rt,stimulus,button_pressed,trial_type,trial_index,time_elapsed,internal_node_id,subject,list,ppt_race,ppt_gender,url,first_guess,correct,key_press,responses,image_type,phrase_type,test_part
2907,Welcome to the experiment. Press Continue to begin.,0,html-button-response,0,2909,0.0-0.0,64190,List2A,black,woman,,,,,,,,
6172,,,external-html,1,10221,0.0-1.0,64190,List2A,black,woman,consent.html,,,,,,,
10023,"<p>On the next page, you will see portraits of 8 people and their names.</p><p>Your first task is to take a few minutes to memorise the names of these people.</p><p>You will have to recall their names during the rest of the experiment, so it is</p><p>essential that you try to memorise these people and their names as best as you can.</p><br><p><strong>You will then be tested on your memory of these names and portraits.</strong></p><br><p>The experiment will start after you have completed this memory test.</p><br><p>Ready?</p>",0,html-button-response,2,20244,0.0-2.0,64190,List2A,black,woman,,,,,,,,
54935,"<img src='img/portrait_matrix_list2.jpg' style='width:900px;height:500px;''></img><p>If you have memorised all the portraits and names and are ready to start, press Continue.</p><p><strong>Please note: Your memory of these faces will be tested 4 times during this experiment.</strong></p>",0,html-button-response,3,76197,0.0-3.0-0.0,64190,List2A,black,woman,,,,,,,,
22699,"<img src=""portrait/BW2.jpg""style=""height:400px;""></img>",2,html-button-response,4,99901,0.0-3.0-1.0,64190,List2A,black,woman,,TRUE,2,,,,,
null,CORRECT,,html-keyboard-response,5,101427,0.0-3.0-2.0-0.0,64190,List2A,black,woman,,,,null,,,,
12568,"<img src=""portrait/BM2.jpg""style=""height:400px;""></img>",5,html-button-response,6,113997,0.0-3.0-4.0,64190,List2A,black,woman,,TRUE,5,,,,,
null,CORRECT,,html-keyboard-response,7,115527,0.0-3.0-5.0-0.0,64190,List2A,black,woman,,,,null,,,,
7484,"<img src=""portrait/WM1.jpg""style=""height:400px;""></img>",6,html-button-response,8,123013,0.0-3.0-7.0,64190,List2A,black,woman,,TRUE,6,,,,,
null,CORRECT,,html-keyboard-response,9,124526,0.0-3.0-8.0-0.0,64190,List2A,black,woman,,,,null,,,,
8172,"<img src=""portrait/WW2.jpg""style=""height:400px;""></img>",3,html-button-response,10,132700,0.0-3.0-10.0,64190,List2A,black,woman,,TRUE,3,,,,,
null,CORRECT,,html-keyboard-response,11,134218,0.0-3.0-11.0-0.0,64190,List2A,black,woman,,,,null,,,,
8504,"<img src=""portrait/WM2.jpg""style=""height:400px;""></img>",7,html-button-response,12,142724,0.0-3.0-13.0,64190,List2A,black,woman,,TRUE,7,,,,,
null,CORRECT,,html-keyboard-response,13,144227,0.0-3.0-14.0-0.0,64190,List2A,black,woman,,,,null,,,,
12800,"<img src=""portrait/BM1.jpg""style=""height:400px;""></img>",4,html-button-response,14,157028,0.0-3.0-16.0,64190,List2A,black,woman,,TRUE,4,,,,,
null,CORRECT,,html-keyboard-response,15,158544,0.0-3.0-17.0-0.0,64190,List2A,black,woman,,,,null,,,,
6018,"<img src=""portrait/WW1.jpg""style=""height:400px;""></img>",1,html-button-response,16,164564,0.0-3.0-19.0,64190,List2A,black,woman,,TRUE,1,,,,,
null,CORRECT,,html-keyboard-response,17,166081,0.0-3.0-20.0-0.0,64190,List2A,black,woman,,,,null,,,,
12297,"<img src=""portrait/BW1.jpg""style=""height:400px;""></img>",0,html-button-response,18,178380,0.0-3.0-22.0,64190,List2A,black,woman,,TRUE,0,,,,,
null,CORRECT,,html-keyboard-response,19,179882,0.0-3.0-23.0-0.0,64190,List2A,black,woman,,,,null,,,,
3129,<p>You got 8 out of 8 right first time. Press Continue.</p>,0,html-button-response,20,183012,0.0-3.0-25.0,64190,List2A,black,woman,,,,,,,,
27746,"<p>In this experiment, you will view photographs of the people from the memory game interacting.</p><p>By using the <strong>exact</strong> phrase given <i>after</i> the photograph appears and recalling the correct names of the people in the photographs, form a sentence describing the interaction. You do not need to capitalise names.</p><p>Type your answer in the space provided. Please complete every sentence before moving onto the next trial.</p><p>You will only have a few seconds to memorise each given photograph and phrase before you can respond, so try your best to focus.</p><p>An example is given below. Press 'Continue' when you are ready.</p><img src='img/speaking_example.jpg' style='width:800px;height:460px;''></img>",0,html-button-response,21,211764,0.0-4.0,64190,List2A,black,woman,,,,,,,,
1776,"<p>Before the experiment starts, you will watch two example trials. Press 'Continue'.</p>",0,html-button-response,22,214556,0.0-5.0,64190,List2A,black,woman,,,,,,,,
null,<img src='img/meet_eg.gif' style='height:400px;''></img>,,html-keyboard-response,23,217569,0.0-6.0,64190,List2A,black,woman,,,,null,,,,
null,<p>is meeting</p>,,html-keyboard-response,24,219585,0.0-7.0,64190,List2A,black,woman,,,,null,,,,
8539,<p><b>Answer:</b> jane is meeting ruth</p>,0,html-button-response,25,228124,0.0-8.0,64190,List2A,black,woman,,,,,,,,
null,<img src='img/look_eg.gif' style='height:400px;''></img>,,html-keyboard-response,26,231131,0.0-9.0,64190,List2A,black,woman,,,,null,,,,
null,<p>are looking at each other</p>,,html-keyboard-response,27,233147,0.0-10.0,64190,List2A,black,woman,,,,null,,,,
11919,<p><b>Answer:</b> fred and mike are looking at each other</p>,0,html-button-response,28,245068,0.0-11.0,64190,List2A,black,woman,,,,,,,,
12971,"<p>Ready to start the experiment?</p><br><p><strong>Remember to describe the picture using a full sentence,</strong></p><p><strong>that combines the names of the people with the <i>exact</i> phrase given.</strong></p><p><strong>To receive full payment you must do this correctly.</strong></p><p><strong> You do not need to capitalise names or use punctuation.</strong></p><br><p>Press 'Continue' to begin.</p>",0,html-button-response,29,259052,0.0-12.0,64190,List2A,black,woman,,,,,,,,
null,"<div style=""font-size:60px;"">+</div>",,html-keyboard-response,30,260579,0.0-13.0-0.0,64190,List2A,black,woman,,,,null,,,,
null,"<img src=""stim_listA/play6.gif""style=""height:400px;""></stim_listA>",,html-keyboard-response,31,262583,0.0-13.0-1.0,64190,List2A,black,woman,,,,null,,,,
null,are playing with each other,,html-keyboard-response,32,264594,0.0-13.0-2.0,64190,List2A,black,woman,,,,null,,,,
55351,,,survey-text,33,319948,0.0-13.0-3.0,64190,List2A,black,woman,,,,,"{""Q0"":""Fred and Luke are playing with eachother ""}","<img src=""stim_listA/play6.gif""style=""height:400px;""></stim_listA>",are playing with each other,
null,"<div style=""font-size:60px;"">+</div>",,html-keyboard-response,34,320461,0.0-13.0-0.1,64190,List2A,black,woman,,,,null,,,,
null,"<img src=""stim_listA/kiss2.gif""style=""height:400px;""></stim_listA>",,html-keyboard-response,35,322464,0.0-13.0-1.1,64190,List2A,black,woman,,,,null,,,,
null,are kissing each other,,html-keyboard-response,36,324478,0.0-13.0-2.1,64190,List2A,black,woman,,,,null,,,,
38516,,,survey-text,37,362995,0.0-13.0-3.1,64190,List2A,black,woman,,,,,"{""Q0"":""Dave and Jane are kissing eachother""}","<img src=""stim_listA/kiss2.gif""style=""height:400px;""></stim_listA>",are kissing each other,
null,"<div style=""font-size:60px;"">+</div>",,html-keyboard-response,38,363510,0.0-13.0-0.2,64190,List2A,black,woman,,,,null,,,,
null,"<img src=""stim_listA/dance3.gif""style=""height:400px;""></stim_listA>",,html-keyboard-response,39,365513,0.0-13.0-1.2,64190,List2A,black,woman,,,,null,,,,
null,is dancing with,,html-keyboard-response,40,367525,0.0-13.0-2.2,64190,List2A,black,woman,,,,null,,,,
30533,,,survey-text,41,398059,0.0-13.0-3.2,64190,List2A,black,woman,,,,,"{""Q0"":""Fred is dancing with Jane ""}","<img src=""stim_listA/dance3.gif""style=""height:400px;""></stim_listA>",is dancing with,
null,"<div style=""font-size:60px;"">+</div>",,html-keyboard-response,42,398572,0.0-13.0-0.3,64190,List2A,black,woman,,,,null,,,,
null,"<img src=""stim_listA/argue6.gif""style=""height:400px;""></stim_listA>",,html-keyboard-response,43,400577,0.0-13.0-1.3,64190,List2A,black,woman,,,,null,,,,
null,are arguing with each other,,html-keyboard-response,44,402589,0.0-13.0-2.3,64190,List2A,black,woman,,,,null,,,,
36124,,,survey-text,45,438715,0.0-13.0-3.3,64190,List2A,black,woman,,,,,"{""Q0"":""Mike and Luke are arguing with eachother ""}","<img src=""stim_listA/argue6.gif""style=""height:400px;""></stim_listA>",are arguing with each other,
null,"<div style=""font-size:60px;"">+</div>",,html-keyboard-response,46,439231,0.0-13.0-0.4,64190,List2A,black,woman,,,,null,,,,
null,"<img src=""stim_listA/talk3.gif""style=""height:400px;""></stim_listA>",,html-keyboard-response,47,441235,0.0-13.0-1.4,64190,List2A,black,woman,,,,null,,,,
null,is talking to,,html-keyboard-response,48,443238,0.0-13.0-2.4,64190,List2A,black,woman,,,,null,,,,
21500,,,survey-text,49,464739,0.0-13.0-3.4,64190,List2A,black,woman,,,,,"{""Q0"":""Fred is talking to Kate ""}","<img src=""stim_listA/talk3.gif""style=""height:400px;""></stim_listA>",is talking to,
null,"<div style=""font-size:60px;"">+</div>",,html-keyboard-response,50,465247,0.0-13.0-0.5,64190,List2A,black,woman,,,,null,,,,
null,"<img src=""stim_listA/dance8.gif""style=""height:400px;""></stim_listA>",,html-keyboard-response,51,467250,0.0-13.0-1.5,64190,List2A,black,woman,,,,null,,,,
null,are dancing with each other,,html-keyboard-response,52,469257,0.0-13.0-2.5,64190,List2A,black,woman,,,,null,,,,
42585,,,survey-text,53,511843,0.0-13.0-3.5,64190,List2A,black,woman,,,,,"{""Q0"":""Beth and Jane are dancing with eachother ""}","<img src=""stim_listA/dance8.gif""style=""height:400px;""></stim_listA>",are dancing with each other,
null,"<div style=""font-size:60px;"">+</div>",,html-keyboard-response,54,512347,0.0-13.0-0.6,64190,List2A,black,woman,,,,null,,,,
null,"<img src=""stim_listA/flirt6.gif""style=""height:400px;""></stim_listA>",,html-keyboard-response,55,514351,0.0-13.0-1.6,64190,List2A,black,woman,,,,null,,,,
null,are flirting with each other,,html-keyboard-response,56,516355,0.0-13.0-2.6,64190,List2A,black,woman,,,,null,,,,
27054,,,survey-text,57,543411,0.0-13.0-3.6,64190,List2A,black,woman,,,,,"{""Q0"":""Fred and Dave are flirting with eachother ""}","<img src=""stim_listA/flirt6.gif""style=""height:400px;""></stim_listA>",are flirting with each other,
null,"<div style=""font-size:60px;"">+</div>",,html-keyboard-response,58,543918,0.0-13.0-0.7,64190,List2A,black,woman,,,,null,,,,
null,"<img src=""stim_listA/touch1.gif""style=""height:400px;""></stim_listA>",,html-keyboard-response,59,545928,0.0-13.0-1.7,64190,List2A,black,woman,,,,null,,,,
null,is touching,,html-keyboard-response,60,547944,0.0-13.0-2.7,64190,List2A,black,woman,,,,null,,,,
33121,,,survey-text,61,581067,0.0-13.0-3.7,64190,List2A,black,woman,,,,,"{""Q0"":""Dave is touching Jane ""}","<img src=""stim_listA/touch1.gif""style=""height:400px;""></stim_listA>",is touching,
null,"<div style=""font-size:60px;"">+</div>",,html-keyboard-response,62,581577,0.0-13.0-0.8,64190,List2A,black,woman,,,,null,,,,
null,"<img src=""stim_listA/dance6.gif""style=""height:400px;""></stim_listA>",,html-keyboard-response,63,583591,0.0-13.0-1.8,64190,List2A,black,woman,,,,null,,,,
null,are dancing with each other,,html-keyboard-response,64,585606,0.0-13.0-2.8,64190,List2A,black,woman,,,,null,,,,
31530,,,survey-text,65,617138,0.0-13.0-3.8,64190,List2A,black,woman,,,,,"{""Q0"":""Fred and Dave are dancing with eachother ""}","<img src=""stim_listA/dance6.gif""style=""height:400px;""></stim_listA>",are dancing with each other,
null,"<div style=""font-size:60px;"">+</div>",,html-keyboard-response,66,617655,0.0-13.0-0.9,64190,List2A,black,woman,,,,null,,,,
null,"<img src=""stim_listA/play1.gif""style=""height:400px;""></stim_listA>",,html-keyboard-response,67,619658,0.0-13.0-1.9,64190,List2A,black,woman,,,,null,,,,
null,is playing with,,html-keyboard-response,68,621668,0.0-13.0-2.9,64190,List2A,black,woman,,,,null,,,,
17628,,,survey-text,69,639298,0.0-13.0-3.9,64190,List2A,black,woman,,,,,"{""Q0"":""Jane is playing with Dave ""}","<img src=""stim_listA/play1.gif""style=""height:400px;""></stim_listA>",is playing with,
null,"<div style=""font-size:60px;"">+</div>",,html-keyboard-response,70,639800,0.0-13.0-0.10,64190,List2A,black,woman,,,,null,,,,
null,"<img src=""stim_listA/marry7.gif""style=""height:400px;""></stim_listA>",,html-keyboard-response,71,641805,0.0-13.0-1.10,64190,List2A,black,woman,,,,null,,,,
null,is marrying,,html-keyboard-response,72,643820,0.0-13.0-2.10,64190,List2A,black,woman,,,,null,,,,
22420,,,survey-text,73,666242,0.0-13.0-3.10,64190,List2A,black,woman,,,,,"{""Q0"":""Beth is marrying Jane ""}","<img src=""stim_listA/marry7.gif""style=""height:400px;""></stim_listA>",is marrying,
null,"<div style=""font-size:60px;"">+</div>",,html-keyboard-response,74,666748,0.0-13.0-0.11,64190,List2A,black,woman,,,,null,,,,
null,"<img src=""stim_listA/kiss7.gif""style=""height:400px;""></stim_listA>",,html-keyboard-response,75,668757,0.0-13.0-1.11,64190,List2A,black,woman,,,,null,,,,
null,is kissing,,html-keyboard-response,76,670766,0.0-13.0-2.11,64190,List2A,black,woman,,,,null,,,,
13314,,,survey-text,77,684082,0.0-13.0-3.11,64190,List2A,black,woman,,,,,"{""Q0"":""Beth is kissing Ruth ""}","<img src=""stim_listA/kiss7.gif""style=""height:400px;""></stim_listA>",is kissing,
null,"<div style=""font-size:60px;"">+</div>",,html-keyboard-response,78,684583,0.0-13.0-0.12,64190,List2A,black,woman,,,,null,,,,
null,"<img src=""stim_listA/marry6.gif""style=""height:400px;""></stim_listA>",,html-keyboard-response,79,686593,0.0-13.0-1.12,64190,List2A,black,woman,,,,null,,,,
null,are marrying each other,,html-keyboard-response,80,688606,0.0-13.0-2.12,64190,List2A,black,woman,,,,null,,,,
30650,,,survey-text,81,719258,0.0-13.0-3.12,64190,List2A,black,woman,,,,,"{""Q0"":""Luke and Mike are marrying eachother ""}","<img src=""stim_listA/marry6.gif""style=""height:400px;""></stim_listA>",are marrying each other,
null,"<div style=""font-size:60px;"">+</div>",,html-keyboard-response,82,719759,0.0-13.0-0.13,64190,List2A,black,woman,,,,null,,,,
null,"<img src=""stim_listA/dance5.gif""style=""height:400px;""></stim_listA>",,html-keyboard-response,83,721763,0.0-13.0-1.13,64190,List2A,black,woman,,,,null,,,,
null,is dancing with,,html-keyboard-response,84,723765,0.0-13.0-2.13,64190,List2A,black,woman,,,,null,,,,
27939,,,survey-text,85,751706,0.0-13.0-3.13,64190,List2A,black,woman,,,,,"{""Q0"":""Luke is dancing with Mike ""}","<img src=""stim_listA/dance5.gif""style=""height:400px;""></stim_listA>",is dancing with,
null,"<div style=""font-size:60px;"">+</div>",,html-keyboard-response,86,752214,0.0-13.0-0.14,64190,List2A,black,woman,,,,null,,,,
null,"<img src=""stim_listA/talk7.gif""style=""height:400px;""></stim_listA>",,html-keyboard-response,87,754218,0.0-13.0-1.14,64190,List2A,black,woman,,,,null,,,,
null,is talking to,,html-keyboard-response,88,756219,0.0-13.0-2.14,64190,List2A,black,woman,,,,null,,,,
24198,,,survey-text,89,780418,0.0-13.0-3.14,64190,List2A,black,woman,,,,,"{""Q0"":""Ruth is talking to Kate ""}","<img src=""stim_listA/talk7.gif""style=""height:400px;""></stim_listA>",is talking to,
null,"<div style=""font-size:60px;"">+</div>",,html-keyboard-response,90,780919,0.0-13.0-0.15,64190,List2A,black,woman,,,,null,,,,
null,"<img src=""stim_listA/marry3.gif""style=""height:400px;""></stim_listA>",,html-keyboard-response,91,782928,0.0-13.0-1.15,64190,List2A,black,woman,,,,null,,,,
null,is marrying,,html-keyboard-response,92,784939,0.0-13.0-2.15,64190,List2A,black,woman,,,,null,,,,
26525,,,survey-text,93,811466,0.0-13.0-3.15,64190,List2A,black,woman,,,,,"{""Q0"":""Mike is marrying Beth ""}","<img src=""stim_listA/marry3.gif""style=""height:400px;""></stim_listA>",is marrying,
null,"<div style=""font-size:60px;"">+</div>",,html-keyboard-response,94,811967,0.0-13.0-0.16,64190,List2A,black,woman,,,,null,,,,
null,"<img src=""stim_listA/fight3.gif""style=""height:400px;""></stim_listA>",,html-keyboard-response,95,813970,0.0-13.0-1.16,64190,List2A,black,woman,,,,null,,,,
null,is fighting,,html-keyboard-response,96,815972,0.0-13.0-2.16,64190,List2A,black,woman,,,,null,,,,
18771,,,survey-text,97,834746,0.0-13.0-3.16,64190,List2A,black,woman,,,,,"{""Q0"":""Mike is fighting Kate ""}","<img src=""stim_listA/fight3.gif""style=""height:400px;""></stim_listA>",is fighting,
null,"<div style=""font-size:60px;"">+</div>",,html-keyboard-response,98,835248,0.0-13.0-0.17,64190,List2A,black,woman,,,,null,,,,
null,"<img src=""stim_listA/flirt5.gif""style=""height:400px;""></stim_listA>",,html-keyboard-response,99,837251,0.0-13.0-1.17,64190,List2A,black,woman,,,,null,,,,
null,is flirting with,,html-keyboard-response,100,839257,0.0-13.0-2.17,64190,List2A,black,woman,,,,null,,,,
18999,,,survey-text,101,858258,0.0-13.0-3.17,64190,List2A,black,woman,,,,,"{""Q0"":""Luke is flirting with Mike ""}","<img src=""stim_listA/flirt5.gif""style=""height:400px;""></stim_listA>",is flirting with,
null,"<div style=""font-size:60px;"">+</div>",,html-keyboard-response,102,858760,0.0-13.0-0.18,64190,List2A,black,woman,,,,null,,,,
null,"<img src=""stim_listA/fight4.gif""style=""height:400px;""></stim_listA>",,html-keyboard-response,103,860763,0.0-13.0-1.18,64190,List2A,black,woman,,,,null,,,,
null,are fighting each other,,html-keyboard-response,104,862766,0.0-13.0-2.18,64190,List2A,black,woman,,,,null,,,,
27770,,,survey-text,105,890537,0.0-13.0-3.18,64190,List2A,black,woman,,,,,"{""Q0"":""Beth and Fred are fighting each other ""}","<img src=""stim_listA/fight4.gif""style=""height:400px;""></stim_listA>",are fighting each other,
null,"<div style=""font-size:60px;"">+</div>",,html-keyboard-response,106,891041,0.0-13.0-0.19,64190,List2A,black,woman,,,,null,,,,
null,"<img src=""stim_listA/fight1.gif""style=""height:400px;""></stim_listA>",,html-keyboard-response,107,893044,0.0-13.0-1.19,64190,List2A,black,woman,,,,null,,,,
null,is fighting,,html-keyboard-response,108,895055,0.0-13.0-2.19,64190,List2A,black,woman,,,,null,,,,
20864,,,survey-text,109,915921,0.0-13.0-3.19,64190,List2A,black,woman,,,,,"{""Q0"":""Dave is fighting Jane ""}","<img src=""stim_listA/fight1.gif""style=""height:400px;""></stim_listA>",is fighting,
46110,"<img src='img/portrait_matrix_list2.jpg' style='width:900px;height:500px;''></img><p>If you have memorised all the portraits and names and are ready to start, press Continue.</p><p><strong>Please note: Your memory of these faces will be tested 4 times during this experiment.</strong></p>",0,html-button-response,110,962032,0.0-14.0-0.0,64190,List2A,black,woman,,,,,,,,
4357,"<img src=""portrait/WM2.jpg""style=""height:400px;""></img>",7,html-button-response,111,967392,0.0-14.0-1.0,64190,List2A,black,woman,,TRUE,7,,,,,
null,CORRECT,,html-keyboard-response,112,968896,0.0-14.0-2.0-0.0,64190,List2A,black,woman,,,,null,,,,
3254,"<img src=""portrait/BM2.jpg""style=""height:400px;""></img>",5,html-button-response,113,972152,0.0-14.0-4.0,64190,List2A,black,woman,,TRUE,5,,,,,
null,CORRECT,,html-keyboard-response,114,973656,0.0-14.0-5.0-0.0,64190,List2A,black,woman,,,,null,,,,
3358,"<img src=""portrait/BW2.jpg""style=""height:400px;""></img>",2,html-button-response,115,977016,0.0-14.0-7.0,64190,List2A,black,woman,,TRUE,2,,,,,
null,CORRECT,,html-keyboard-response,116,978539,0.0-14.0-8.0-0.0,64190,List2A,black,woman,,,,null,,,,
6450,"<img src=""portrait/BW1.jpg""style=""height:400px;""></img>",0,html-button-response,117,984992,0.0-14.0-10.0,64190,List2A,black,woman,,TRUE,0,,,,,
null,CORRECT,,html-keyboard-response,118,986501,0.0-14.0-11.0-0.0,64190,List2A,black,woman,,,,null,,,,
3904,"<img src=""portrait/WW2.jpg""style=""height:400px;""></img>",3,html-button-response,119,990408,0.0-14.0-13.0,64190,List2A,black,woman,,TRUE,3,,,,,
null,CORRECT,,html-keyboard-response,120,991911,0.0-14.0-14.0-0.0,64190,List2A,black,woman,,,,null,,,,
3711,"<img src=""portrait/WM1.jpg""style=""height:400px;""></img>",6,html-button-response,121,995624,0.0-14.0-16.0,64190,List2A,black,woman,,TRUE,6,,,,,
null,CORRECT,,html-keyboard-response,122,997128,0.0-14.0-17.0-0.0,64190,List2A,black,woman,,,,null,,,,
8781,"<img src=""portrait/BM1.jpg""style=""height:400px;""></img>",4,html-button-response,123,1005912,0.0-14.0-19.0,64190,List2A,black,woman,,TRUE,4,,,,,
null,CORRECT,,html-keyboard-response,124,1007439,0.0-14.0-20.0-0.0,64190,List2A,black,woman,,,,null,,,,
5694,"<img src=""portrait/WW1.jpg""style=""height:400px;""></img>",1,html-button-response,125,1013136,0.0-14.0-22.0,64190,List2A,black,woman,,TRUE,1,,,,,
null,CORRECT,,html-keyboard-response,126,1014644,0.0-14.0-23.0-0.0,64190,List2A,black,woman,,,,null,,,,
8091,<p>You got 8 out of 8 right first time. Press Continue.</p>,0,html-button-response,127,1022737,0.0-14.0-25.0,64190,List2A,black,woman,,,,,,,,
null,"<div style=""font-size:60px;"">+</div>",,html-keyboard-response,128,1024247,0.0-15.0-0.0,64190,List2A,black,woman,,,,null,,,,
null,"<img src=""stim_listA/marry4.gif""style=""height:400px;""></stim_listA>",,html-keyboard-response,129,1026250,0.0-15.0-1.0,64190,List2A,black,woman,,,,null,,,,
null,are marrying each other,,html-keyboard-response,130,1028253,0.0-15.0-2.0,64190,List2A,black,woman,,,,null,,,,
25451,,,survey-text,131,1053705,0.0-15.0-3.0,64190,List2A,black,woman,,,,,"{""Q0"":""Fred and Kate are marrying each other ""}","<img src=""stim_listA/marry4.gif""style=""height:400px;""></stim_listA>",are marrying each other,
null,"<div style=""font-size:60px;"">+</div>",,html-keyboard-response,132,1054212,0.0-15.0-0.1,64190,List2A,black,woman,,,,null,,,,
null,"<img src=""stim_listA/talk6.gif""style=""height:400px;""></stim_listA>",,html-keyboard-response,133,1056221,0.0-15.0-1.1,64190,List2A,black,woman,,,,null,,,,
null,are talking to each other,,html-keyboard-response,134,1058226,0.0-15.0-2.1,64190,List2A,black,woman,,,,null,,,,
23789,,,survey-text,135,1082017,0.0-15.0-3.1,64190,List2A,black,woman,,,,,"{""Q0"":""Fred and Dave are talking with each other ""}","<img src=""stim_listA/talk6.gif""style=""height:400px;""></stim_listA>",are talking to each other,
null,"<div style=""font-size:60px;"">+</div>",,html-keyboard-response,136,1082529,0.0-15.0-0.2,64190,List2A,black,woman,,,,null,,,,
null,"<img src=""stim_listA/argue3.gif""style=""height:400px;""></stim_listA>",,html-keyboard-response,137,1084532,0.0-15.0-1.2,64190,List2A,black,woman,,,,null,,,,
null,is arguing with,,html-keyboard-response,138,1086539,0.0-15.0-2.2,64190,List2A,black,woman,,,,null,,,,
16908,,,survey-text,139,1103448,0.0-15.0-3.2,64190,List2A,black,woman,,,,,"{""Q0"":""Mike is arguing with Beth ""}","<img src=""stim_listA/argue3.gif""style=""height:400px;""></stim_listA>",is arguing with,
null,"<div style=""font-size:60px;"">+</div>",,html-keyboard-response,140,1103958,0.0-15.0-0.3,64190,List2A,black,woman,,,,null,,,,
null,"<img src=""stim_listA/argue1.gif""style=""height:400px;""></stim_listA>",,html-keyboard-response,141,1105966,0.0-15.0-1.3,64190,List2A,black,woman,,,,null,,,,
null,is arguing with,,html-keyboard-response,142,1107977,0.0-15.0-2.3,64190,List2A,black,woman,,,,null,,,,
21173,,,survey-text,143,1129152,0.0-15.0-3.3,64190,List2A,black,woman,,,,,"{""Q0"":""Ruth is arguing with Dave ""}","<img src=""stim_listA/argue1.gif""style=""height:400px;""></stim_listA>",is arguing with,
null,"<div style=""font-size:60px;"">+</div>",,html-keyboard-response,144,1129654,0.0-15.0-0.4,64190,List2A,black,woman,,,,null,,,,
null,"<img src=""stim_listA/marry5.gif""style=""height:400px;""></stim_listA>",,html-keyboard-response,145,1131660,0.0-15.0-1.4,64190,List2A,black,woman,,,,null,,,,
null,is marrying,,html-keyboard-response,146,1133668,0.0-15.0-2.4,64190,List2A,black,woman,,,,null,,,,
16635,,,survey-text,147,1150304,0.0-15.0-3.4,64190,List2A,black,woman,,,,,"{""Q0"":""Fred is marrying Dave ""}","<img src=""stim_listA/marry5.gif""style=""height:400px;""></stim_listA>",is marrying,
null,"<div style=""font-size:60px;"">+</div>",,html-keyboard-response,148,1150816,0.0-15.0-0.5,64190,List2A,black,woman,,,,null,,,,
null,"<img src=""stim_listA/talk1.gif""style=""height:400px;""></stim_listA>",,html-keyboard-response,149,1152819,0.0-15.0-1.5,64190,List2A,black,woman,,,,null,,,,
null,is talking to,,html-keyboard-response,150,1154821,0.0-15.0-2.5,64190,List2A,black,woman,,,,null,,,,
19650,,,survey-text,151,1174472,0.0-15.0-3.5,64190,List2A,black,woman,,,,,"{""Q0"":""Luke is talking to Jane ""}","<img src=""stim_listA/talk1.gif""style=""height:400px;""></stim_listA>",is talking to,
null,"<div style=""font-size:60px;"">+</div>",,html-keyboard-response,152,1174977,0.0-15.0-0.6,64190,List2A,black,woman,,,,null,,,,
null,"<img src=""stim_listA/shout5.gif""style=""height:400px;""></stim_listA>",,html-keyboard-response,153,1176981,0.0-15.0-1.6,64190,List2A,black,woman,,,,null,,,,
null,is shouting at,,html-keyboard-response,154,1178991,0.0-15.0-2.6,64190,List2A,black,woman,,,,null,,,,
19856,,,survey-text,155,1198848,0.0-15.0-3.6,64190,List2A,black,woman,,,,,"{""Q0"":""Luke is shouting at Fred ""}","<img src=""stim_listA/shout5.gif""style=""height:400px;""></stim_listA>",is shouting at,
null,"<div style=""font-size:60px;"">+</div>",,html-keyboard-response,156,1199350,0.0-15.0-0.7,64190,List2A,black,woman,,,,null,,,,
null,"<img src=""stim_listA/touch5.gif""style=""height:400px;""></stim_listA>",,html-keyboard-response,157,1201355,0.0-15.0-1.7,64190,List2A,black,woman,,,,null,,,,
null,is touching,,html-keyboard-response,158,1203357,0.0-15.0-2.7,64190,List2A,black,woman,,,,null,,,,
20210,,,survey-text,159,1223568,0.0-15.0-3.7,64190,List2A,black,woman,,,,,"{""Q0"":""Mike is touching Dave ""}","<img src=""stim_listA/touch5.gif""style=""height:400px;""></stim_listA>",is touching,
null,"<div style=""font-size:60px;"">+</div>",,html-keyboard-response,160,1224081,0.0-15.0-0.8,64190,List2A,black,woman,,,,null,,,,
null,"<img src=""stim_listA/kiss8.gif""style=""height:400px;""></stim_listA>",,html-keyboard-response,161,1226093,0.0-15.0-1.8,64190,List2A,black,woman,,,,null,,,,
null,are kissing each other,,html-keyboard-response,162,1228096,0.0-15.0-2.8,64190,List2A,black,woman,,,,null,,,,
23023,,,survey-text,163,1251120,0.0-15.0-3.8,64190,List2A,black,woman,,,,,"{""Q0"":""Kate and Jane are kissing each other ""}","<img src=""stim_listA/kiss8.gif""style=""height:400px;""></stim_listA>",are kissing each other,
null,"<div style=""font-size:60px;"">+</div>",,html-keyboard-response,164,1251630,0.0-15.0-0.9,64190,List2A,black,woman,,,,null,,,,
null,"<img src=""stim_listA/play8.gif""style=""height:400px;""></stim_listA>",,html-keyboard-response,165,1253639,0.0-15.0-1.9,64190,List2A,black,woman,,,,null,,,,
null,are playing with each other,,html-keyboard-response,166,1255641,0.0-15.0-2.9,64190,List2A,black,woman,,,,null,,,,
22878,,,survey-text,167,1278520,0.0-15.0-3.9,64190,List2A,black,woman,,,,,"{""Q0"":""Ruth and Beth are playing with each other ""}","<img src=""stim_listA/play8.gif""style=""height:400px;""></stim_listA>",are playing with each other,
null,"<div style=""font-size:60px;"">+</div>",,html-keyboard-response,168,1279028,0.0-15.0-0.10,64190,List2A,black,woman,,,,null,,,,
null,"<img src=""stim_listA/flirt2.gif""style=""height:400px;""></stim_listA>",,html-keyboard-response,169,1281031,0.0-15.0-1.10,64190,List2A,black,woman,,,,null,,,,
null,are flirting with each other,,html-keyboard-response,170,1283046,0.0-15.0-2.10,64190,List2A,black,woman,,,,null,,,,
31584,,,survey-text,171,1314632,0.0-15.0-3.10,64190,List2A,black,woman,,,,,"{""Q0"":""Ruth and Dave are flirting with each other ""}","<img src=""stim_listA/flirt2.gif""style=""height:400px;""></stim_listA>",are flirting with each other,
null,"<div style=""font-size:60px;"">+</div>",,html-keyboard-response,172,1315145,0.0-15.0-0.11,64190,List2A,black,woman,,,,null,,,,
null,"<img src=""stim_listA/fight2.gif""style=""height:400px;""></stim_listA>",,html-keyboard-response,173,1317148,0.0-15.0-1.11,64190,List2A,black,woman,,,,null,,,,
null,are fighting each other,,html-keyboard-response,174,1319151,0.0-15.0-2.11,64190,List2A,black,woman,,,,null,,,,
29711,,,survey-text,175,1348864,0.0-15.0-3.11,64190,List2A,black,woman,,,,,"{""Q0"":""Ruth and Luke are fighting each other ""}","<img src=""stim_listA/fight2.gif""style=""height:400px;""></stim_listA>",are fighting each other,
null,"<div style=""font-size:60px;"">+</div>",,html-keyboard-response,176,1349365,0.0-15.0-0.12,64190,List2A,black,woman,,,,null,,,,
null,"<img src=""stim_listA/shout3.gif""style=""height:400px;""></stim_listA>",,html-keyboard-response,177,1351369,0.0-15.0-1.12,64190,List2A,black,woman,,,,null,,,,
null,is shouting at,,html-keyboard-response,178,1353380,0.0-15.0-2.12,64190,List2A,black,woman,,,,null,,,,
22418,,,survey-text,179,1375800,0.0-15.0-3.12,64190,List2A,black,woman,,,,,"{""Q0"":""Beth is shouting at Fred ""}","<img src=""stim_listA/shout3.gif""style=""height:400px;""></stim_listA>",is shouting at,
null,"<div style=""font-size:60px;"">+</div>",,html-keyboard-response,180,1376316,0.0-15.0-0.13,64190,List2A,black,woman,,,,null,,,,
null,"<img src=""stim_listA/dance7.gif""style=""height:400px;""></stim_listA>",,html-keyboard-response,181,1378320,0.0-15.0-1.13,64190,List2A,black,woman,,,,null,,,,
null,is dancing with,,html-keyboard-response,182,1380327,0.0-15.0-2.13,64190,List2A,black,woman,,,,null,,,,
27766,,,survey-text,183,1408095,0.0-15.0-3.13,64190,List2A,black,woman,,,,,"{""Q0"":""Ruth is dancing with Kate ""}","<img src=""stim_listA/dance7.gif""style=""height:400px;""></stim_listA>",is dancing with,
null,"<div style=""font-size:60px;"">+</div>",,html-keyboard-response,184,1408610,0.0-15.0-0.14,64190,List2A,black,woman,,,,null,,,,
null,"<img src=""stim_listA/shout1.gif""style=""height:400px;""></stim_listA>",,html-keyboard-response,185,1410620,0.0-15.0-1.14,64190,List2A,black,woman,,,,null,,,,
null,is shouting at,,html-keyboard-response,186,1412636,0.0-15.0-2.14,64190,List2A,black,woman,,,,null,,,,
19210,,,survey-text,187,1431847,0.0-15.0-3.14,64190,List2A,black,woman,,,,,"{""Q0"":""Ruth is shouting at Luke ""}","<img src=""stim_listA/shout1.gif""style=""height:400px;""></stim_listA>",is shouting at,
null,"<div style=""font-size:60px;"">+</div>",,html-keyboard-response,188,1432351,0.0-15.0-0.15,64190,List2A,black,woman,,,,null,,,,
null,"<img src=""stim_listA/shout4.gif""style=""height:400px;""></stim_listA>",,html-keyboard-response,189,1434369,0.0-15.0-1.15,64190,List2A,black,woman,,,,null,,,,
null,are shouting at each other,,html-keyboard-response,190,1436381,0.0-15.0-2.15,64190,List2A,black,woman,,,,null,,,,
25272,,,survey-text,191,1461655,0.0-15.0-3.15,64190,List2A,black,woman,,,,,"{""Q0"":""Kate and Mike are shouting at each other ""}","<img src=""stim_listA/shout4.gif""style=""height:400px;""></stim_listA>",are shouting at each other,
null,"<div style=""font-size:60px;"">+</div>",,html-keyboard-response,192,1462165,0.0-15.0-0.16,64190,List2A,black,woman,,,,null,,,,
null,"<img src=""stim_listA/talk5.gif""style=""height:400px;""></stim_listA>",,html-keyboard-response,193,1464177,0.0-15.0-1.16,64190,List2A,black,woman,,,,null,,,,
null,is talking to,,html-keyboard-response,194,1466179,0.0-15.0-2.16,64190,List2A,black,woman,,,,null,,,,
13163,,,survey-text,195,1479343,0.0-15.0-3.16,64190,List2A,black,woman,,,,,"{""Q0"":""Mike is talking to Luke ""}","<img src=""stim_listA/talk5.gif""style=""height:400px;""></stim_listA>",is talking to,
null,"<div style=""font-size:60px;"">+</div>",,html-keyboard-response,196,1479858,0.0-15.0-0.17,64190,List2A,black,woman,,,,null,,,,
null,"<img src=""stim_listA/play7.gif""style=""height:400px;""></stim_listA>",,html-keyboard-response,197,1481862,0.0-15.0-1.17,64190,List2A,black,woman,,,,null,,,,
null,is playing with,,html-keyboard-response,198,1483873,0.0-15.0-2.17,64190,List2A,black,woman,,,,null,,,,
23613,,,survey-text,199,1507487,0.0-15.0-3.17,64190,List2A,black,woman,,,,,"{""Q0"":""Kate is playing with Jane ""}","<img src=""stim_listA/play7.gif""style=""height:400px;""></stim_listA>",is playing with,
null,"<div style=""font-size:60px;"">+</div>",,html-keyboard-response,200,1508000,0.0-15.0-0.18,64190,List2A,black,woman,,,,null,,,,
null,"<img src=""stim_listA/touch4.gif""style=""height:400px;""></stim_listA>",,html-keyboard-response,201,1510004,0.0-15.0-1.18,64190,List2A,black,woman,,,,null,,,,
null,are touching each other,,html-keyboard-response,202,1512014,0.0-15.0-2.18,64190,List2A,black,woman,,,,null,,,,
26815,,,survey-text,203,1538831,0.0-15.0-3.18,64190,List2A,black,woman,,,,,"{""Q0"":""Fred and Beth are touching each other ""}","<img src=""stim_listA/touch4.gif""style=""height:400px;""></stim_listA>",are touching each other,
null,"<div style=""font-size:60px;"">+</div>",,html-keyboard-response,204,1539341,0.0-15.0-0.19,64190,List2A,black,woman,,,,null,,,,
null,"<img src=""stim_listA/fight6.gif""style=""height:400px;""></stim_listA>",,html-keyboard-response,205,1541345,0.0-15.0-1.19,64190,List2A,black,woman,,,,null,,,,
null,are fighting each other,,html-keyboard-response,206,1543354,0.0-15.0-2.19,64190,List2A,black,woman,,,,null,,,,
30795,,,survey-text,207,1574151,0.0-15.0-3.19,64190,List2A,black,woman,,,,,"{""Q0"":""Luke and Fred are fighting each other ""}","<img src=""stim_listA/fight6.gif""style=""height:400px;""></stim_listA>",are fighting each other,
22791,"<img src='img/portrait_matrix_list2.jpg' style='width:900px;height:500px;''></img><p>If you have memorised all the portraits and names and are ready to start, press Continue.</p><p><strong>Please note: Your memory of these faces will be tested 4 times during this experiment.</strong></p>",0,html-button-response,208,1596943,0.0-16.0-0.0,64190,List2A,black,woman,,,,,,,,
7340,"<img src=""portrait/BW1.jpg""style=""height:400px;""></img>",0,html-button-response,209,1605287,0.0-16.0-1.0,64190,List2A,black,woman,,TRUE,0,,,,,
null,CORRECT,,html-keyboard-response,210,1606793,0.0-16.0-2.0-0.0,64190,List2A,black,woman,,,,null,,,,
2523,"<img src=""portrait/BM2.jpg""style=""height:400px;""></img>",5,html-button-response,211,1609319,0.0-16.0-4.0,64190,List2A,black,woman,,TRUE,5,,,,,
null,CORRECT,,html-keyboard-response,212,1610839,0.0-16.0-5.0-0.0,64190,List2A,black,woman,,,,null,,,,
6485,"<img src=""portrait/WW1.jpg""style=""height:400px;""></img>",1,html-button-response,213,1617327,0.0-16.0-7.0,64190,List2A,black,woman,,TRUE,1,,,,,
null,CORRECT,,html-keyboard-response,214,1618843,0.0-16.0-8.0-0.0,64190,List2A,black,woman,,,,null,,,,
6138,"<img src=""portrait/BW2.jpg""style=""height:400px;""></img>",2,html-button-response,215,1624983,0.0-16.0-10.0,64190,List2A,black,woman,,TRUE,2,,,,,
null,CORRECT,,html-keyboard-response,216,1626502,0.0-16.0-11.0-0.0,64190,List2A,black,woman,,,,null,,,,
2879,"<img src=""portrait/WW2.jpg""style=""height:400px;""></img>",3,html-button-response,217,1629383,0.0-16.0-13.0,64190,List2A,black,woman,,TRUE,3,,,,,
null,CORRECT,,html-keyboard-response,218,1630912,0.0-16.0-14.0-0.0,64190,List2A,black,woman,,,,null,,,,
4556,"<img src=""portrait/WM1.jpg""style=""height:400px;""></img>",6,html-button-response,219,1635471,0.0-16.0-16.0,64190,List2A,black,woman,,TRUE,6,,,,,
null,CORRECT,,html-keyboard-response,220,1636978,0.0-16.0-17.0-0.0,64190,List2A,black,woman,,,,null,,,,
1746,"<img src=""portrait/BM1.jpg""style=""height:400px;""></img>",4,html-button-response,221,1638727,0.0-16.0-19.0,64190,List2A,black,woman,,TRUE,4,,,,,
null,CORRECT,,html-keyboard-response,222,1640251,0.0-16.0-20.0-0.0,64190,List2A,black,woman,,,,null,,,,
1457,"<img src=""portrait/WM2.jpg""style=""height:400px;""></img>",7,html-button-response,223,1641711,0.0-16.0-22.0,64190,List2A,black,woman,,TRUE,7,,,,,
null,CORRECT,,html-keyboard-response,224,1643240,0.0-16.0-23.0-0.0,64190,List2A,black,woman,,,,null,,,,
1300,<p>You got 8 out of 8 right first time. Press Continue.</p>,0,html-button-response,225,1644543,0.0-16.0-25.0,64190,List2A,black,woman,,,,,,,,
null,"<div style=""font-size:60px;"">+</div>",,html-keyboard-response,226,1646063,0.0-17.0-0.0,64190,List2A,black,woman,,,,null,,,,
null,"<img src=""stim_listA/talk2.gif""style=""height:400px;""></stim_listA>",,html-keyboard-response,227,1648067,0.0-17.0-1.0,64190,List2A,black,woman,,,,null,,,,
null,are talking to each other,,html-keyboard-response,228,1650082,0.0-17.0-2.0,64190,List2A,black,woman,,,,null,,,,
34955,,,survey-text,229,1685038,0.0-17.0-3.0,64190,List2A,black,woman,,,,,"{""Q0"":""Ruth and Dave are talking to each other ""}","<img src=""stim_listA/talk2.gif""style=""height:400px;""></stim_listA>",are talking to each other,
null,"<div style=""font-size:60px;"">+</div>",,html-keyboard-response,230,1685552,0.0-17.0-0.1,64190,List2A,black,woman,,,,null,,,,
null,"<img src=""stim_listA/touch7.gif""style=""height:400px;""></stim_listA>",,html-keyboard-response,231,1687555,0.0-17.0-1.1,64190,List2A,black,woman,,,,null,,,,
null,is touching,,html-keyboard-response,232,1689561,0.0-17.0-2.1,64190,List2A,black,woman,,,,null,,,,
24523,,,survey-text,233,1714086,0.0-17.0-3.1,64190,List2A,black,woman,,,,,"{""Q0"":""Kate is touching Jane ""}","<img src=""stim_listA/touch7.gif""style=""height:400px;""></stim_listA>",is touching,
null,"<div style=""font-size:60px;"">+</div>",,html-keyboard-response,234,1714588,0.0-17.0-0.2,64190,List2A,black,woman,,,,null,,,,
null,"<img src=""stim_listA/play5.gif""style=""height:400px;""></stim_listA>",,html-keyboard-response,235,1716591,0.0-17.0-1.2,64190,List2A,black,woman,,,,null,,,,
null,is playing with,,html-keyboard-response,236,1718603,0.0-17.0-2.2,64190,List2A,black,woman,,,,null,,,,
10506,,,survey-text,237,1729110,0.0-17.0-3.2,64190,List2A,black,woman,,,,,"{""Q0"":""Mike is playing with Dave ""}","<img src=""stim_listA/play5.gif""style=""height:400px;""></stim_listA>",is playing with,
null,"<div style=""font-size:60px;"">+</div>",,html-keyboard-response,238,1729611,0.0-17.0-0.3,64190,List2A,black,woman,,,,null,,,,
null,"<img src=""stim_listA/argue8.gif""style=""height:400px;""></stim_listA>",,html-keyboard-response,239,1731629,0.0-17.0-1.3,64190,List2A,black,woman,,,,null,,,,
null,are arguing with each other,,html-keyboard-response,240,1733642,0.0-17.0-2.3,64190,List2A,black,woman,,,,null,,,,
30003,,,survey-text,241,1763646,0.0-17.0-3.3,64190,List2A,black,woman,,,,,"{""Q0"":""Ruth and Kate are arguing with each other""}","<img src=""stim_listA/argue8.gif""style=""height:400px;""></stim_listA>",are arguing with each other,
null,"<div style=""font-size:60px;"">+</div>",,html-keyboard-response,242,1764153,0.0-17.0-0.4,64190,List2A,black,woman,,,,null,,,,
null,"<img src=""stim_listA/argue2.gif""style=""height:400px;""></stim_listA>",,html-keyboard-response,243,1766156,0.0-17.0-1.4,64190,List2A,black,woman,,,,null,,,,
null,are arguing with each other,,html-keyboard-response,244,1768164,0.0-17.0-2.4,64190,List2A,black,woman,,,,null,,,,
27304,,,survey-text,245,1795470,0.0-17.0-3.4,64190,List2A,black,woman,,,,,"{""Q0"":""Jane and Luke are arguing with each other ""}","<img src=""stim_listA/argue2.gif""style=""height:400px;""></stim_listA>",are arguing with each other,
null,"<div style=""font-size:60px;"">+</div>",,html-keyboard-response,246,1795972,0.0-17.0-0.5,64190,List2A,black,woman,,,,null,,,,
null,"<img src=""stim_listA/touch3.gif""style=""height:400px;""></stim_listA>",,html-keyboard-response,247,1797978,0.0-17.0-1.5,64190,List2A,black,woman,,,,null,,,,
null,is touching,,html-keyboard-response,248,1799992,0.0-17.0-2.5,64190,List2A,black,woman,,,,null,,,,
12221,,,survey-text,249,1812214,0.0-17.0-3.5,64190,List2A,black,woman,,,,,"{""Q0"":""Kate is touching Mike ""}","<img src=""stim_listA/touch3.gif""style=""height:400px;""></stim_listA>",is touching,
null,"<div style=""font-size:60px;"">+</div>",,html-keyboard-response,250,1812731,0.0-17.0-0.6,64190,List2A,black,woman,,,,null,,,,
null,"<img src=""stim_listA/flirt1.gif""style=""height:400px;""></stim_listA>",,html-keyboard-response,251,1814734,0.0-17.0-1.6,64190,List2A,black,woman,,,,null,,,,
null,is flirting with,,html-keyboard-response,252,1816751,0.0-17.0-2.6,64190,List2A,black,woman,,,,null,,,,
17302,,,survey-text,253,1834054,0.0-17.0-3.6,64190,List2A,black,woman,,,,,"{""Q0"":""Luke is flirting with Jane ""}","<img src=""stim_listA/flirt1.gif""style=""height:400px;""></stim_listA>",is flirting with,
null,"<div style=""font-size:60px;"">+</div>",,html-keyboard-response,254,1834561,0.0-17.0-0.7,64190,List2A,black,woman,,,,null,,,,
null,"<img src=""stim_listA/play3.gif""style=""height:400px;""></stim_listA>",,html-keyboard-response,255,1836569,0.0-17.0-1.7,64190,List2A,black,woman,,,,null,,,,
null,is playing with,,html-keyboard-response,256,1838575,0.0-17.0-2.7,64190,List2A,black,woman,,,,null,,,,
11941,,,survey-text,257,1850518,0.0-17.0-3.7,64190,List2A,black,woman,,,,,"{""Q0"":""Mike is playing with Kate ""}","<img src=""stim_listA/play3.gif""style=""height:400px;""></stim_listA>",is playing with,
null,"<div style=""font-size:60px;"">+</div>",,html-keyboard-response,258,1851030,0.0-17.0-0.8,64190,List2A,black,woman,,,,null,,,,
null,"<img src=""stim_listA/flirt8.gif""style=""height:400px;""></stim_listA>",,html-keyboard-response,259,1853034,0.0-17.0-1.8,64190,List2A,black,woman,,,,null,,,,
null,are flirting with each other,,html-keyboard-response,260,1855036,0.0-17.0-2.8,64190,List2A,black,woman,,,,null,,,,
21312,,,survey-text,261,1876350,0.0-17.0-3.8,64190,List2A,black,woman,,,,,"{""Q0"":""Kate and Jane are flirting with each other ""}","<img src=""stim_listA/flirt8.gif""style=""height:400px;""></stim_listA>",are flirting with each other,
null,"<div style=""font-size:60px;"">+</div>",,html-keyboard-response,262,1876851,0.0-17.0-0.9,64190,List2A,black,woman,,,,null,,,,
null,"<img src=""stim_listA/argue7.gif""style=""height:400px;""></stim_listA>",,html-keyboard-response,263,1878858,0.0-17.0-1.9,64190,List2A,black,woman,,,,null,,,,
null,is arguing with,,html-keyboard-response,264,1880860,0.0-17.0-2.9,64190,List2A,black,woman,,,,null,,,,
22112,,,survey-text,265,1902974,0.0-17.0-3.9,64190,List2A,black,woman,,,,,"{""Q0"":""Beth is arguing with Jane ""}","<img src=""stim_listA/argue7.gif""style=""height:400px;""></stim_listA>",is arguing with,
null,"<div style=""font-size:60px;"">+</div>",,html-keyboard-response,266,1903484,0.0-17.0-0.10,64190,List2A,black,woman,,,,null,,,,
null,"<img src=""stim_listA/touch8.gif""style=""height:400px;""></stim_listA>",,html-keyboard-response,267,1905491,0.0-17.0-1.10,64190,List2A,black,woman,,,,null,,,,
null,are touching each other,,html-keyboard-response,268,1907502,0.0-17.0-2.10,64190,List2A,black,woman,,,,null,,,,
25958,,,survey-text,269,1933461,0.0-17.0-3.10,64190,List2A,black,woman,,,,,"{""Q0"":""Ruth and Beth are touching each other ""}","<img src=""stim_listA/touch8.gif""style=""height:400px;""></stim_listA>",are touching each other,
null,"<div style=""font-size:60px;"">+</div>",,html-keyboard-response,270,1933974,0.0-17.0-0.11,64190,List2A,black,woman,,,,null,,,,
null,"<img src=""stim_listA/dance2.gif""style=""height:400px;""></stim_listA>",,html-keyboard-response,271,1935979,0.0-17.0-1.11,64190,List2A,black,woman,,,,null,,,,
null,are dancing with each other,,html-keyboard-response,272,1937988,0.0-17.0-2.11,64190,List2A,black,woman,,,,null,,,,
24232,,,survey-text,273,1962221,0.0-17.0-3.11,64190,List2A,black,woman,,,,,"{""Q0"":""Ruth and Dave are dancing with each other ""}","<img src=""stim_listA/dance2.gif""style=""height:400px;""></stim_listA>",are dancing with each other,
null,"<div style=""font-size:60px;"">+</div>",,html-keyboard-response,274,1962729,0.0-17.0-0.12,64190,List2A,black,woman,,,,null,,,,
null,"<img src=""stim_listA/argue5.gif""style=""height:400px;""></stim_listA>",,html-keyboard-response,275,1964737,0.0-17.0-1.12,64190,List2A,black,woman,,,,null,,,,
null,is arguing with,,html-keyboard-response,276,1966739,0.0-17.0-2.12,64190,List2A,black,woman,,,,null,,,,
22817,,,survey-text,277,1989557,0.0-17.0-3.12,64190,List2A,black,woman,,,,,"{""Q0"":""Fred is arguing with Dave ""}","<img src=""stim_listA/argue5.gif""style=""height:400px;""></stim_listA>",is arguing with,
null,"<div style=""font-size:60px;"">+</div>",,html-keyboard-response,278,1990064,0.0-17.0-0.13,64190,List2A,black,woman,,,,null,,,,
null,"<img src=""stim_listA/shout7.gif""style=""height:400px;""></stim_listA>",,html-keyboard-response,279,1992067,0.0-17.0-1.13,64190,List2A,black,woman,,,,null,,,,
null,is shouting at,,html-keyboard-response,280,1994083,0.0-17.0-2.13,64190,List2A,black,woman,,,,null,,,,
14832,,,survey-text,281,2008917,0.0-17.0-3.13,64190,List2A,black,woman,,,,,"{""Q0"":""Ruth is shouting at Beth ""}","<img src=""stim_listA/shout7.gif""style=""height:400px;""></stim_listA>",is shouting at,
null,"<div style=""font-size:60px;"">+</div>",,html-keyboard-response,282,2009430,0.0-17.0-0.14,64190,List2A,black,woman,,,,null,,,,
null,"<img src=""stim_listA/kiss6.gif""style=""height:400px;""></stim_listA>",,html-keyboard-response,283,2011436,0.0-17.0-1.14,64190,List2A,black,woman,,,,null,,,,
null,are kissing each other,,html-keyboard-response,284,2013451,0.0-17.0-2.14,64190,List2A,black,woman,,,,null,,,,
21416,,,survey-text,285,2034869,0.0-17.0-3.14,64190,List2A,black,woman,,,,,"{""Q0"":""Mike and Dave are kissing each other ""}","<img src=""stim_listA/kiss6.gif""style=""height:400px;""></stim_listA>",are kissing each other,
null,"<div style=""font-size:60px;"">+</div>",,html-keyboard-response,286,2035384,0.0-17.0-0.15,64190,List2A,black,woman,,,,null,,,,
null,"<img src=""stim_listA/kiss4.gif""style=""height:400px;""></stim_listA>",,html-keyboard-response,287,2037397,0.0-17.0-1.15,64190,List2A,black,woman,,,,null,,,,
null,are kissing each other,,html-keyboard-response,288,2039405,0.0-17.0-2.15,64190,List2A,black,woman,,,,null,,,,
21687,,,survey-text,289,2061093,0.0-17.0-3.15,64190,List2A,black,woman,,,,,"{""Q0"":""Mike and Kate are kissing eachother""}","<img src=""stim_listA/kiss4.gif""style=""height:400px;""></stim_listA>",are kissing each other,
null,"<div style=""font-size:60px;"">+</div>",,html-keyboard-response,290,2061609,0.0-17.0-0.16,64190,List2A,black,woman,,,,null,,,,
null,"<img src=""stim_listA/marry1.gif""style=""height:400px;""></stim_listA>",,html-keyboard-response,291,2063613,0.0-17.0-1.16,64190,List2A,black,woman,,,,null,,,,
null,is marrying,,html-keyboard-response,292,2065614,0.0-17.0-2.16,64190,List2A,black,woman,,,,null,,,,
21710,,,survey-text,293,2087325,0.0-17.0-3.16,64190,List2A,black,woman,,,,,"{""Q0"":""Ruth is marrying Dave ""}","<img src=""stim_listA/marry1.gif""style=""height:400px;""></stim_listA>",is marrying,
null,"<div style=""font-size:60px;"">+</div>",,html-keyboard-response,294,2087835,0.0-17.0-0.17,64190,List2A,black,woman,,,,null,,,,
null,"<img src=""stim_listA/play2.gif""style=""height:400px;""></stim_listA>",,html-keyboard-response,295,2089838,0.0-17.0-1.17,64190,List2A,black,woman,,,,null,,,,
null,are playing with each other,,html-keyboard-response,296,2091853,0.0-17.0-2.17,64190,List2A,black,woman,,,,null,,,,
24086,,,survey-text,297,2115941,0.0-17.0-3.17,64190,List2A,black,woman,,,,,"{""Q0"":""Ruth and Luke are playing with each other ""}","<img src=""stim_listA/play2.gif""style=""height:400px;""></stim_listA>",are playing with each other,
null,"<div style=""font-size:60px;"">+</div>",,html-keyboard-response,298,2116452,0.0-17.0-0.18,64190,List2A,black,woman,,,,null,,,,
null,"<img src=""stim_listA/talk8.gif""style=""height:400px;""></stim_listA>",,html-keyboard-response,299,2118455,0.0-17.0-1.18,64190,List2A,black,woman,,,,null,,,,
null,are talking to each other,,html-keyboard-response,300,2120466,0.0-17.0-2.18,64190,List2A,black,woman,,,,null,,,,
22889,,,survey-text,301,2143357,0.0-17.0-3.18,64190,List2A,black,woman,,,,,"{""Q0"":""Beth and Jane are talking to each other ""}","<img src=""stim_listA/talk8.gif""style=""height:400px;""></stim_listA>",are talking to each other,
null,"<div style=""font-size:60px;"">+</div>",,html-keyboard-response,302,2143863,0.0-17.0-0.19,64190,List2A,black,woman,,,,null,,,,
null,"<img src=""stim_listA/flirt7.gif""style=""height:400px;""></stim_listA>",,html-keyboard-response,303,2145866,0.0-17.0-1.19,64190,List2A,black,woman,,,,null,,,,
null,is flirting with,,html-keyboard-response,304,2147869,0.0-17.0-2.19,64190,List2A,black,woman,,,,null,,,,
25429,,,survey-text,305,2173301,0.0-17.0-3.19,64190,List2A,black,woman,,,,,"{""Q0"":""Ruth is flirting with Kate ""}","<img src=""stim_listA/flirt7.gif""style=""height:400px;""></stim_listA>",is flirting with,
14535,"<img src='img/portrait_matrix_list2.jpg' style='width:900px;height:500px;''></img><p>If you have memorised all the portraits and names and are ready to start, press Continue.</p><p><strong>Please note: Your memory of these faces will be tested 4 times during this experiment.</strong></p>",0,html-button-response,306,2187837,0.0-18.0-0.0,64190,List2A,black,woman,,,,,,,,
2300,"<img src=""portrait/BM2.jpg""style=""height:400px;""></img>",5,html-button-response,307,2191141,0.0-18.0-1.0,64190,List2A,black,woman,,TRUE,5,,,,,
null,CORRECT,,html-keyboard-response,308,2192646,0.0-18.0-2.0-0.0,64190,List2A,black,woman,,,,null,,,,
3309,"<img src=""portrait/WW1.jpg""style=""height:400px;""></img>",1,html-button-response,309,2195957,0.0-18.0-4.0,64190,List2A,black,woman,,TRUE,1,,,,,
null,CORRECT,,html-keyboard-response,310,2197475,0.0-18.0-5.0-0.0,64190,List2A,black,woman,,,,null,,,,
4679,"<img src=""portrait/WM1.jpg""style=""height:400px;""></img>",6,html-button-response,311,2202157,0.0-18.0-7.0,64190,List2A,black,woman,,TRUE,6,,,,,
null,CORRECT,,html-keyboard-response,312,2203681,0.0-18.0-8.0-0.0,64190,List2A,black,woman,,,,null,,,,
2658,"<img src=""portrait/WM2.jpg""style=""height:400px;""></img>",7,html-button-response,313,2206341,0.0-18.0-10.0,64190,List2A,black,woman,,TRUE,7,,,,,
null,CORRECT,,html-keyboard-response,314,2207856,0.0-18.0-11.0-0.0,64190,List2A,black,woman,,,,null,,,,
1699,"<img src=""portrait/WW2.jpg""style=""height:400px;""></img>",3,html-button-response,315,2209557,0.0-18.0-13.0,64190,List2A,black,woman,,TRUE,3,,,,,
null,CORRECT,,html-keyboard-response,316,2211068,0.0-18.0-14.0-0.0,64190,List2A,black,woman,,,,null,,,,
1471,"<img src=""portrait/BM1.jpg""style=""height:400px;""></img>",4,html-button-response,317,2212540,0.0-18.0-16.0,64190,List2A,black,woman,,TRUE,4,,,,,
null,CORRECT,,html-keyboard-response,318,2214056,0.0-18.0-17.0-0.0,64190,List2A,black,woman,,,,null,,,,
2634,"<img src=""portrait/BW1.jpg""style=""height:400px;""></img>",0,html-button-response,319,2216692,0.0-18.0-19.0,64190,List2A,black,woman,,TRUE,0,,,,,
null,CORRECT,,html-keyboard-response,320,2218197,0.0-18.0-20.0-0.0,64190,List2A,black,woman,,,,null,,,,
2469,"<img src=""portrait/BW2.jpg""style=""height:400px;""></img>",2,html-button-response,321,2220668,0.0-18.0-22.0,64190,List2A,black,woman,,TRUE,2,,,,,
null,CORRECT,,html-keyboard-response,322,2222186,0.0-18.0-23.0-0.0,64190,List2A,black,woman,,,,null,,,,
4656,<p>You got 8 out of 8 right first time. Press Continue.</p>,0,html-button-response,323,2226844,0.0-18.0-25.0,64190,List2A,black,woman,,,,,,,,
null,"<div style=""font-size:60px;"">+</div>",,html-keyboard-response,324,2228360,0.0-19.0-0.0,64190,List2A,black,woman,,,,null,,,,
null,"<img src=""stim_listA/flirt3.gif""style=""height:400px;""></stim_listA>",,html-keyboard-response,325,2230365,0.0-19.0-1.0,64190,List2A,black,woman,,,,null,,,,
null,is flirting with,,html-keyboard-response,326,2232367,0.0-19.0-2.0,64190,List2A,black,woman,,,,null,,,,
22083,,,survey-text,327,2254452,0.0-19.0-3.0,64190,List2A,black,woman,,,,,"{""Q0"":""Kate is flirting with Fred""}","<img src=""stim_listA/flirt3.gif""style=""height:400px;""></stim_listA>",is flirting with,
null,"<div style=""font-size:60px;"">+</div>",,html-keyboard-response,328,2254966,0.0-19.0-0.1,64190,List2A,black,woman,,,,null,,,,
null,"<img src=""stim_listA/dance4.gif""style=""height:400px;""></stim_listA>",,html-keyboard-response,329,2256970,0.0-19.0-1.1,64190,List2A,black,woman,,,,null,,,,
null,are dancing with each other,,html-keyboard-response,330,2258981,0.0-19.0-2.1,64190,List2A,black,woman,,,,null,,,,
25758,,,survey-text,331,2284740,0.0-19.0-3.1,64190,List2A,black,woman,,,,,"{""Q0"":""Beth and Mike are dancing with each other ""}","<img src=""stim_listA/dance4.gif""style=""height:400px;""></stim_listA>",are dancing with each other,
null,"<div style=""font-size:60px;"">+</div>",,html-keyboard-response,332,2285246,0.0-19.0-0.2,64190,List2A,black,woman,,,,null,,,,
null,"<img src=""stim_listA/talk4.gif""style=""height:400px;""></stim_listA>",,html-keyboard-response,333,2287250,0.0-19.0-1.2,64190,List2A,black,woman,,,,null,,,,
null,are talking to each other,,html-keyboard-response,334,2289266,0.0-19.0-2.2,64190,List2A,black,woman,,,,null,,,,
31368,,,survey-text,335,2320636,0.0-19.0-3.2,64190,List2A,black,woman,,,,,"{""Q0"":""Beth and Mike are talking with each other ""}","<img src=""stim_listA/talk4.gif""style=""height:400px;""></stim_listA>",are talking to each other,
null,"<div style=""font-size:60px;"">+</div>",,html-keyboard-response,336,2321149,0.0-19.0-0.3,64190,List2A,black,woman,,,,null,,,,
null,"<img src=""stim_listA/flirt4.gif""style=""height:400px;""></stim_listA>",,html-keyboard-response,337,2323153,0.0-19.0-1.3,64190,List2A,black,woman,,,,null,,,,
null,are flirting with each other,,html-keyboard-response,338,2325157,0.0-19.0-2.3,64190,List2A,black,woman,,,,null,,,,
25725,,,survey-text,339,2350884,0.0-19.0-3.3,64190,List2A,black,woman,,,,,"{""Q0"":""Beth and Mike are flirting with each other  ""}","<img src=""stim_listA/flirt4.gif""style=""height:400px;""></stim_listA>",are flirting with each other,
null,"<div style=""font-size:60px;"">+</div>",,html-keyboard-response,340,2351391,0.0-19.0-0.4,64190,List2A,black,woman,,,,null,,,,
null,"<img src=""stim_listA/marry2.gif""style=""height:400px;""></stim_listA>",,html-keyboard-response,341,2353394,0.0-19.0-1.4,64190,List2A,black,woman,,,,null,,,,
null,are marrying each other,,html-keyboard-response,342,2355405,0.0-19.0-2.4,64190,List2A,black,woman,,,,null,,,,
19549,,,survey-text,343,2374956,0.0-19.0-3.4,64190,List2A,black,woman,,,,,"{""Q0"":""Jane and mike are marrying eachother ""}","<img src=""stim_listA/marry2.gif""style=""height:400px;""></stim_listA>",are marrying each other,
null,"<div style=""font-size:60px;"">+</div>",,html-keyboard-response,344,2375462,0.0-19.0-0.5,64190,List2A,black,woman,,,,null,,,,
null,"<img src=""stim_listA/argue4.gif""style=""height:400px;""></stim_listA>",,html-keyboard-response,345,2377467,0.0-19.0-1.5,64190,List2A,black,woman,,,,null,,,,
null,are arguing with each other,,html-keyboard-response,346,2379483,0.0-19.0-2.5,64190,List2A,black,woman,,,,null,,,,
37366,,,survey-text,347,2416852,0.0-19.0-3.5,64190,List2A,black,woman,,,,,"{""Q0"":""Fred and Kate are arguing with each other ""}","<img src=""stim_listA/argue4.gif""style=""height:400px;""></stim_listA>",are arguing with each other,
null,"<div style=""font-size:60px;"">+</div>",,html-keyboard-response,348,2417354,0.0-19.0-0.6,64190,List2A,black,woman,,,,null,,,,
null,"<img src=""stim_listA/dance1.gif""style=""height:400px;""></stim_listA>",,html-keyboard-response,349,2419358,0.0-19.0-1.6,64190,List2A,black,woman,,,,null,,,,
null,is dancing with,,html-keyboard-response,350,2421361,0.0-19.0-2.6,64190,List2A,black,woman,,,,null,,,,
19873,,,survey-text,351,2441236,0.0-19.0-3.6,64190,List2A,black,woman,,,,,"{""Q0"":""Luke is dancing with Jane ""}","<img src=""stim_listA/dance1.gif""style=""height:400px;""></stim_listA>",is dancing with,
null,"<div style=""font-size:60px;"">+</div>",,html-keyboard-response,352,2441749,0.0-19.0-0.7,64190,List2A,black,woman,,,,null,,,,
null,"<img src=""stim_listA/kiss3.gif""style=""height:400px;""></stim_listA>",,html-keyboard-response,353,2443757,0.0-19.0-1.7,64190,List2A,black,woman,,,,null,,,,
null,is kissing,,html-keyboard-response,354,2445764,0.0-19.0-2.7,64190,List2A,black,woman,,,,null,,,,
27230,,,survey-text,355,2472996,0.0-19.0-3.7,64190,List2A,black,woman,,,,,"{""Q0"":""Beth is kissing Fred ""}","<img src=""stim_listA/kiss3.gif""style=""height:400px;""></stim_listA>",is kissing,
null,"<div style=""font-size:60px;"">+</div>",,html-keyboard-response,356,2473499,0.0-19.0-0.8,64190,List2A,black,woman,,,,null,,,,
null,"<img src=""stim_listA/shout2.gif""style=""height:400px;""></stim_listA>",,html-keyboard-response,357,2475507,0.0-19.0-1.8,64190,List2A,black,woman,,,,null,,,,
null,are shouting at each other,,html-keyboard-response,358,2477514,0.0-19.0-2.8,64190,List2A,black,woman,,,,null,,,,
25359,,,survey-text,359,2502875,0.0-19.0-3.8,64190,List2A,black,woman,,,,,"{""Q0"":""Jane and Dave are shouting at each other ""}","<img src=""stim_listA/shout2.gif""style=""height:400px;""></stim_listA>",are shouting at each other,
null,"<div style=""font-size:60px;"">+</div>",,html-keyboard-response,360,2503377,0.0-19.0-0.9,64190,List2A,black,woman,,,,null,,,,
null,"<img src=""stim_listA/shout6.gif""style=""height:400px;""></stim_listA>",,html-keyboard-response,361,2505382,0.0-19.0-1.9,64190,List2A,black,woman,,,,null,,,,
null,are shouting at each other,,html-keyboard-response,362,2507394,0.0-19.0-2.9,64190,List2A,black,woman,,,,null,,,,
20799,,,survey-text,363,2528195,0.0-19.0-3.9,64190,List2A,black,woman,,,,,"{""Q0"":""Dave and Mike are shouting at each other ""}","<img src=""stim_listA/shout6.gif""style=""height:400px;""></stim_listA>",are shouting at each other,
null,"<div style=""font-size:60px;"">+</div>",,html-keyboard-response,364,2528700,0.0-19.0-0.10,64190,List2A,black,woman,,,,null,,,,
null,"<img src=""stim_listA/fight8.gif""style=""height:400px;""></stim_listA>",,html-keyboard-response,365,2530704,0.0-19.0-1.10,64190,List2A,black,woman,,,,null,,,,
null,are fighting each other,,html-keyboard-response,366,2532708,0.0-19.0-2.10,64190,List2A,black,woman,,,,null,,,,
19942,,,survey-text,367,2552651,0.0-19.0-3.10,64190,List2A,black,woman,,,,,"{""Q0"":""Beth and Ruth are fighting each other ""}","<img src=""stim_listA/fight8.gif""style=""height:400px;""></stim_listA>",are fighting each other,
null,"<div style=""font-size:60px;"">+</div>",,html-keyboard-response,368,2553152,0.0-19.0-0.11,64190,List2A,black,woman,,,,null,,,,
null,"<img src=""stim_listA/kiss1.gif""style=""height:400px;""></stim_listA>",,html-keyboard-response,369,2555156,0.0-19.0-1.11,64190,List2A,black,woman,,,,null,,,,
null,is kissing,,html-keyboard-response,370,2557168,0.0-19.0-2.11,64190,List2A,black,woman,,,,null,,,,
34234,,,survey-text,371,2591403,0.0-19.0-3.11,64190,List2A,black,woman,,,,,"{""Q0"":""Ruth is kissing Luke ""}","<img src=""stim_listA/kiss1.gif""style=""height:400px;""></stim_listA>",is kissing,
null,"<div style=""font-size:60px;"">+</div>",,html-keyboard-response,372,2591908,0.0-19.0-0.12,64190,List2A,black,woman,,,,null,,,,
null,"<img src=""stim_listA/kiss5.gif""style=""height:400px;""></stim_listA>",,html-keyboard-response,373,2593912,0.0-19.0-1.12,64190,List2A,black,woman,,,,null,,,,
null,is kissing,,html-keyboard-response,374,2595913,0.0-19.0-2.12,64190,List2A,black,woman,,,,null,,,,
17864,,,survey-text,375,2613779,0.0-19.0-3.12,64190,List2A,black,woman,,,,,"{""Q0"":""Luke is kissing Fred ""}","<img src=""stim_listA/kiss5.gif""style=""height:400px;""></stim_listA>",is kissing,
null,"<div style=""font-size:60px;"">+</div>",,html-keyboard-response,376,2614286,0.0-19.0-0.13,64190,List2A,black,woman,,,,null,,,,
null,"<img src=""stim_listA/marry8.gif""style=""height:400px;""></stim_listA>",,html-keyboard-response,377,2616289,0.0-19.0-1.13,64190,List2A,black,woman,,,,null,,,,
null,are marrying each other,,html-keyboard-response,378,2618298,0.0-19.0-2.13,64190,List2A,black,woman,,,,null,,,,
22080,,,survey-text,379,2640379,0.0-19.0-3.13,64190,List2A,black,woman,,,,,"{""Q0"":""Kate and Ruth are marrying each other ""}","<img src=""stim_listA/marry8.gif""style=""height:400px;""></stim_listA>",are marrying each other,
null,"<div style=""font-size:60px;"">+</div>",,html-keyboard-response,380,2640887,0.0-19.0-0.14,64190,List2A,black,woman,,,,null,,,,
null,"<img src=""stim_listA/fight7.gif""style=""height:400px;""></stim_listA>",,html-keyboard-response,381,2642890,0.0-19.0-1.14,64190,List2A,black,woman,,,,null,,,,
null,is fighting,,html-keyboard-response,382,2644892,0.0-19.0-2.14,64190,List2A,black,woman,,,,null,,,,
18165,,,survey-text,383,2663059,0.0-19.0-3.14,64190,List2A,black,woman,,,,,"{""Q0"":""Kate is fighting Jane ""}","<img src=""stim_listA/fight7.gif""style=""height:400px;""></stim_listA>",is fighting,
null,"<div style=""font-size:60px;"">+</div>",,html-keyboard-response,384,2663560,0.0-19.0-0.15,64190,List2A,black,woman,,,,null,,,,
null,"<img src=""stim_listA/touch6.gif""style=""height:400px;""></stim_listA>",,html-keyboard-response,385,2665563,0.0-19.0-1.15,64190,List2A,black,woman,,,,null,,,,
null,are touching each other,,html-keyboard-response,386,2667577,0.0-19.0-2.15,64190,List2A,black,woman,,,,null,,,,
19136,,,survey-text,387,2686715,0.0-19.0-3.15,64190,List2A,black,woman,,,,,"{""Q0"":""Fred and Luke are touching each other ""}","<img src=""stim_listA/touch6.gif""style=""height:400px;""></stim_listA>",are touching each other,
null,"<div style=""font-size:60px;"">+</div>",,html-keyboard-response,388,2687219,0.0-19.0-0.16,64190,List2A,black,woman,,,,null,,,,
null,"<img src=""stim_listA/play4.gif""style=""height:400px;""></stim_listA>",,html-keyboard-response,389,2689232,0.0-19.0-1.16,64190,List2A,black,woman,,,,null,,,,
null,are playing with each other,,html-keyboard-response,390,2691248,0.0-19.0-2.16,64190,List2A,black,woman,,,,null,,,,
26656,,,survey-text,391,2717907,0.0-19.0-3.16,64190,List2A,black,woman,,,,,"{""Q0"":""Beth and Fred are playing with each other ""}","<img src=""stim_listA/play4.gif""style=""height:400px;""></stim_listA>",are playing with each other,
null,"<div style=""font-size:60px;"">+</div>",,html-keyboard-response,392,2718419,0.0-19.0-0.17,64190,List2A,black,woman,,,,null,,,,
null,"<img src=""stim_listA/touch2.gif""style=""height:400px;""></stim_listA>",,html-keyboard-response,393,2720431,0.0-19.0-1.17,64190,List2A,black,woman,,,,null,,,,
null,are touching each other,,html-keyboard-response,394,2722434,0.0-19.0-2.17,64190,List2A,black,woman,,,,null,,,,
29391,,,survey-text,395,2751826,0.0-19.0-3.17,64190,List2A,black,woman,,,,,"{""Q0"":""Ruth and Luke are touching each other ""}","<img src=""stim_listA/touch2.gif""style=""height:400px;""></stim_listA>",are touching each other,
null,"<div style=""font-size:60px;"">+</div>",,html-keyboard-response,396,2752341,0.0-19.0-0.18,64190,List2A,black,woman,,,,null,,,,
null,"<img src=""stim_listA/shout8.gif""style=""height:400px;""></stim_listA>",,html-keyboard-response,397,2754344,0.0-19.0-1.18,64190,List2A,black,woman,,,,null,,,,
null,are shouting at each other,,html-keyboard-response,398,2756355,0.0-19.0-2.18,64190,List2A,black,woman,,,,null,,,,
22854,,,survey-text,399,2779210,0.0-19.0-3.18,64190,List2A,black,woman,,,,,"{""Q0"":""Kate and Jane are shouting at each other ""}","<img src=""stim_listA/shout8.gif""style=""height:400px;""></stim_listA>",are shouting at each other,
null,"<div style=""font-size:60px;"">+</div>",,html-keyboard-response,400,2779712,0.0-19.0-0.19,64190,List2A,black,woman,,,,null,,,,
null,"<img src=""stim_listA/fight5.gif""style=""height:400px;""></stim_listA>",,html-keyboard-response,401,2781730,0.0-19.0-1.19,64190,List2A,black,woman,,,,null,,,,
null,is fighting,,html-keyboard-response,402,2783735,0.0-19.0-2.19,64190,List2A,black,woman,,,,null,,,,
15849,,,survey-text,403,2799586,0.0-19.0-3.19,64190,List2A,black,woman,,,,,"{""Q0"":""Mike is fighting Dave ""}","<img src=""stim_listA/fight5.gif""style=""height:400px;""></stim_listA>",is fighting,
1895,<p>Thank you for completing that task.</p><p>The final part of this session is a short questionnaire.</p><p>Press Continue.</p>,0,html-button-response,404,2801482,0.0-20.0,64190,List2A,black,woman,,,,,,,,
47848,,,survey-text,405,2850346,0.0-21.0,64190,List2A,black,woman,,,,,"{""Q0"":""21"",""Q1"":""english "",""Q2"":""english "",""Q3"":""United States "",""Q4"":""African American "",""Q5"":""Female ""}",,,demographics
7246,,,survey-likert,406,2857594,0.0-22.0,64190,List2A,black,woman,,,,,"{""Q0"":4}",,,likert_ESS
7767,,,survey-likert,407,2865362,0.0-23.0,64190,List2A,black,woman,,,,,"{""Q0"":4}",,,likert_NSSAL_Q1
6479,,,survey-likert,408,2871842,0.0-24.0,64190,List2A,black,woman,,,,,"{""Q0"":4}",,,likert_NSSAL_Q2
3295,,,survey-likert,409,2875138,0.0-25.0,64190,List2A,black,woman,,,,,"{""Q0"":4}",,,likert_CGRS_Q1
28583,,,survey-likert,410,2903722,0.0-26.0,64190,List2A,black,woman,,,,,"{""Q0"":4}",,,likert_CGRS_Q2
2551,,,survey-likert,411,2906274,0.0-27.0,64190,List2A,black,woman,,,,,"{""Q0"":4}",,,likert_CGRS_Q3
7007,,,survey-text,412,2913282,0.0-28.0,64190,List2A,black,woman,,,,,"{""Q0"":""ccc""}",,,worker_id
17702,,,external-html,413,2931330,0.0-29.0,64190,List2A,black,woman,debrief.html,,,,,,,
