rt,stimulus,button_pressed,trial_type,trial_index,time_elapsed,internal_node_id,subject,list,ppt_race,ppt_gender,url,first_guess,correct,key_press,responses,image_type,phrase_type,test_part
4426,Welcome to the experiment. Press Continue to begin.,0,html-button-response,0,4432,0.0-0.0,64292,List2B,black,woman,,,,,,,,
217614,,,external-html,1,223235,0.0-1.0,64292,List2B,black,woman,consent.html,,,,,,,
285847,"<p>On the next page, you will see portraits of 8 people and their names.</p><p>Your first task is to take a few minutes to memorise the names of these people.</p><p>You will have to recall their names during the rest of the experiment, so it is</p><p>essential that you try to memorise these people and their names as best as you can.</p><br><p><strong>You will then be tested on your memory of these names and portraits.</strong></p><br><p>The experiment will start after you have completed this memory test.</p><br><p>Ready?</p>",0,html-button-response,2,509087,0.0-2.0,64292,List2B,black,woman,,,,,,,,
61577,"<img src='img/portrait_matrix_list2.jpg' style='width:900px;height:500px;''></img><p>If you have memorised all the portraits and names and are ready to start, press Continue.</p><p><strong>Please note: Your memory of these faces will be tested 4 times during this experiment.</strong></p>",0,html-button-response,3,571684,0.0-3.0-0.0,64292,List2B,black,woman,,,,,,,,
24187,"<img src=""portrait/WM1.jpg""style=""height:400px;""></img>",6,html-button-response,4,596879,0.0-3.0-1.0,64292,List2B,black,woman,,TRUE,6,,,,,
null,CORRECT,,html-keyboard-response,5,598397,0.0-3.0-2.0-0.0,64292,List2B,black,woman,,,,null,,,,
3963,"<img src=""portrait/WW2.jpg""style=""height:400px;""></img>",2,html-button-response,6,602376,0.0-3.0-4.0,64292,List2B,black,woman,,TRUE,3,,,,,
4901,"<img src=""portrait/WW2.jpg""style=""height:400px;""></img>",3,html-button-response,7,608283,0.0-3.0-6.0-0.0,64292,List2B,black,woman,,FALSE,3,,,,,
null,CORRECT,,html-keyboard-response,8,609789,0.0-3.0-6.0-1.0-0.0,64292,List2B,black,woman,,,,null,,,,
14332,"<img src=""portrait/BW2.jpg""style=""height:400px;""></img>",2,html-button-response,9,624131,0.0-3.0-7.0,64292,List2B,black,woman,,TRUE,2,,,,,
null,CORRECT,,html-keyboard-response,10,625649,0.0-3.0-8.0-0.0,64292,List2B,black,woman,,,,null,,,,
3288,"<img src=""portrait/BM2.jpg""style=""height:400px;""></img>",5,html-button-response,11,628948,0.0-3.0-10.0,64292,List2B,black,woman,,TRUE,5,,,,,
null,CORRECT,,html-keyboard-response,12,630452,0.0-3.0-11.0-0.0,64292,List2B,black,woman,,,,null,,,,
4488,"<img src=""portrait/WW1.jpg""style=""height:400px;""></img>",0,html-button-response,13,634944,0.0-3.0-13.0,64292,List2B,black,woman,,TRUE,1,,,,,
3924,"<img src=""portrait/WW1.jpg""style=""height:400px;""></img>",1,html-button-response,14,639875,0.0-3.0-15.0-0.0,64292,List2B,black,woman,,FALSE,1,,,,,
null,CORRECT,,html-keyboard-response,15,641380,0.0-3.0-15.0-1.0-0.0,64292,List2B,black,woman,,,,null,,,,
11901,"<img src=""portrait/BM1.jpg""style=""height:400px;""></img>",4,html-button-response,16,653287,0.0-3.0-16.0,64292,List2B,black,woman,,TRUE,4,,,,,
null,CORRECT,,html-keyboard-response,17,654794,0.0-3.0-17.0-0.0,64292,List2B,black,woman,,,,null,,,,
5231,"<img src=""portrait/BW1.jpg""style=""height:400px;""></img>",3,html-button-response,18,660029,0.0-3.0-19.0,64292,List2B,black,woman,,TRUE,0,,,,,
2586,"<img src=""portrait/BW1.jpg""style=""height:400px;""></img>",0,html-button-response,19,663628,0.0-3.0-21.0-0.0,64292,List2B,black,woman,,FALSE,0,,,,,
null,CORRECT,,html-keyboard-response,20,665133,0.0-3.0-21.0-1.0-0.0,64292,List2B,black,woman,,,,null,,,,
15325,"<img src=""portrait/WM2.jpg""style=""height:400px;""></img>",7,html-button-response,21,680466,0.0-3.0-22.0,64292,List2B,black,woman,,TRUE,7,,,,,
null,CORRECT,,html-keyboard-response,22,681970,0.0-3.0-23.0-0.0,64292,List2B,black,woman,,,,null,,,,
4004,<p>You got 5 out of 8 right first time. Press Continue.</p>,0,html-button-response,23,685980,0.0-3.0-25.0,64292,List2B,black,woman,,,,,,,,
7625,"As you did not score 100%, the memory game will repeat. Press Continue.",0,html-button-response,24,694608,0.0-3.0-26.0-0.0,64292,List2B,black,woman,,,,,,,,
14189,"<img src='img/portrait_matrix_list2.jpg' style='width:900px;height:500px;''></img><p>If you have memorised all the portraits and names and are ready to start, press Continue.</p><p><strong>Please note: Your memory of these faces will be tested 4 times during this experiment.</strong></p>",0,html-button-response,25,709806,0.0-3.1-0.1,64292,List2B,black,woman,,,,,,,,
2735,"<img src=""portrait/WM1.jpg""style=""height:400px;""></img>",6,html-button-response,26,713546,0.0-3.1-1.1,64292,List2B,black,woman,,TRUE,6,,,,,
null,CORRECT,,html-keyboard-response,27,715051,0.0-3.1-2.1-0.1,64292,List2B,black,woman,,,,null,,,,
11570,"<img src=""portrait/WW2.jpg""style=""height:400px;""></img>",3,html-button-response,28,726629,0.0-3.1-4.1,64292,List2B,black,woman,,TRUE,3,,,,,
null,CORRECT,,html-keyboard-response,29,728148,0.0-3.1-5.1-0.1,64292,List2B,black,woman,,,,null,,,,
9945,"<img src=""portrait/BW2.jpg""style=""height:400px;""></img>",2,html-button-response,30,738106,0.0-3.1-7.1,64292,List2B,black,woman,,TRUE,2,,,,,
null,CORRECT,,html-keyboard-response,31,739618,0.0-3.1-8.1-0.1,64292,List2B,black,woman,,,,null,,,,
3493,"<img src=""portrait/BM2.jpg""style=""height:400px;""></img>",5,html-button-response,32,743119,0.0-3.1-10.1,64292,List2B,black,woman,,TRUE,5,,,,,
null,CORRECT,,html-keyboard-response,33,744624,0.0-3.1-11.1-0.1,64292,List2B,black,woman,,,,null,,,,
9456,"<img src=""portrait/WW1.jpg""style=""height:400px;""></img>",1,html-button-response,34,754087,0.0-3.1-13.1,64292,List2B,black,woman,,TRUE,1,,,,,
null,CORRECT,,html-keyboard-response,35,755604,0.0-3.1-14.1-0.1,64292,List2B,black,woman,,,,null,,,,
3946,"<img src=""portrait/BM1.jpg""style=""height:400px;""></img>",4,html-button-response,36,759565,0.0-3.1-16.1,64292,List2B,black,woman,,TRUE,4,,,,,
null,CORRECT,,html-keyboard-response,37,761068,0.0-3.1-17.1-0.1,64292,List2B,black,woman,,,,null,,,,
8406,"<img src=""portrait/BW1.jpg""style=""height:400px;""></img>",0,html-button-response,38,769486,0.0-3.1-19.1,64292,List2B,black,woman,,TRUE,0,,,,,
null,CORRECT,,html-keyboard-response,39,771003,0.0-3.1-20.1-0.1,64292,List2B,black,woman,,,,null,,,,
10162,"<img src=""portrait/WM2.jpg""style=""height:400px;""></img>",7,html-button-response,40,781172,0.0-3.1-22.1,64292,List2B,black,woman,,TRUE,7,,,,,
null,CORRECT,,html-keyboard-response,41,782684,0.0-3.1-23.1-0.1,64292,List2B,black,woman,,,,null,,,,
2601,<p>You got 8 out of 8 right first time. Press Continue.</p>,0,html-button-response,42,785294,0.0-3.1-25.1,64292,List2B,black,woman,,,,,,,,
210556,"<p>In this experiment, you will view photographs of the people from the memory game interacting.</p><p>By using the <strong>exact</strong> phrase given <i>after</i> the photograph appears and recalling the correct names of the people in the photographs, form a sentence describing the interaction. You do not need to capitalise names.</p><p>Type your answer in the space provided. Please complete every sentence before moving onto the next trial.</p><p>You will only have a few seconds to memorise each given photograph and phrase before you can respond, so try your best to focus.</p><p>An example is given below. Press 'Continue' when you are ready.</p><img src='img/speaking_example.jpg' style='width:800px;height:460px;''></img>",0,html-button-response,43,996866,0.0-4.0,64292,List2B,black,woman,,,,,,,,
4507,"<p>Before the experiment starts, you will watch two example trials. Press 'Continue'.</p>",0,html-button-response,44,1002389,0.0-5.0,64292,List2B,black,woman,,,,,,,,
null,<img src='img/meet_eg.gif' style='height:400px;''></img>,,html-keyboard-response,45,1005398,0.0-6.0,64292,List2B,black,woman,,,,null,,,,
null,<p>is meeting</p>,,html-keyboard-response,46,1007402,0.0-7.0,64292,List2B,black,woman,,,,null,,,,
11244,<p><b>Answer:</b> jane is meeting ruth</p>,0,html-button-response,47,1018652,0.0-8.0,64292,List2B,black,woman,,,,,,,,
null,<img src='img/look_eg.gif' style='height:400px;''></img>,,html-keyboard-response,48,1021657,0.0-9.0,64292,List2B,black,woman,,,,null,,,,
null,<p>are looking at each other</p>,,html-keyboard-response,49,1023661,0.0-10.0,64292,List2B,black,woman,,,,null,,,,
16900,<p><b>Answer:</b> fred and mike are looking at each other</p>,0,html-button-response,50,1040564,0.0-11.0,64292,List2B,black,woman,,,,,,,,
14665,"<p>Ready to start the experiment?</p><br><p><strong>Remember to describe the picture using a full sentence,</strong></p><p><strong>that combines the names of the people with the <i>exact</i> phrase given.</strong></p><p><strong>To receive full payment you must do this correctly.</strong></p><p><strong> You do not need to capitalise names or use punctuation.</strong></p><br><p>Press 'Continue' to begin.</p>",0,html-button-response,51,1056234,0.0-12.0,64292,List2B,black,woman,,,,,,,,
null,"<div style=""font-size:60px;"">+</div>",,html-keyboard-response,52,1057739,0.0-13.0-0.0,64292,List2B,black,woman,,,,null,,,,
null,"<img src=""stim_listB/talk6.gif""style=""height:400px;""></stim_listB>",,html-keyboard-response,53,1059745,0.0-13.0-1.0,64292,List2B,black,woman,,,,null,,,,
null,are talking to each other,,html-keyboard-response,54,1061750,0.0-13.0-2.0,64292,List2B,black,woman,,,,null,,,,
35136,,,survey-text,55,1096889,0.0-13.0-3.0,64292,List2B,black,woman,,,,,"{""Q0"":""Luke and Fred are talking.""}","<img src=""stim_listB/talk6.gif""style=""height:400px;""></stim_listB>",are talking to each other,
null,"<div style=""font-size:60px;"">+</div>",,html-keyboard-response,56,1097396,0.0-13.0-0.1,64292,List2B,black,woman,,,,null,,,,
null,"<img src=""stim_listB/shout2.gif""style=""height:400px;""></stim_listB>",,html-keyboard-response,57,1099401,0.0-13.0-1.1,64292,List2B,black,woman,,,,null,,,,
null,are shouting at each other,,html-keyboard-response,58,1101406,0.0-13.0-2.1,64292,List2B,black,woman,,,,null,,,,
32276,,,survey-text,59,1133697,0.0-13.0-3.1,64292,List2B,black,woman,,,,,"{""Q0"":""Luke and Jane are shouting.""}","<img src=""stim_listB/shout2.gif""style=""height:400px;""></stim_listB>",are shouting at each other,
null,"<div style=""font-size:60px;"">+</div>",,html-keyboard-response,60,1134209,0.0-13.0-0.2,64292,List2B,black,woman,,,,null,,,,
null,"<img src=""stim_listB/marry8.gif""style=""height:400px;""></stim_listB>",,html-keyboard-response,61,1136222,0.0-13.0-1.2,64292,List2B,black,woman,,,,null,,,,
null,are marrying each other,,html-keyboard-response,62,1138226,0.0-13.0-2.2,64292,List2B,black,woman,,,,null,,,,
27321,,,survey-text,63,1165558,0.0-13.0-3.2,64292,List2B,black,woman,,,,,"{""Q0"":""Beth and Kate are getting married.""}","<img src=""stim_listB/marry8.gif""style=""height:400px;""></stim_listB>",are marrying each other,
null,"<div style=""font-size:60px;"">+</div>",,html-keyboard-response,64,1166073,0.0-13.0-0.3,64292,List2B,black,woman,,,,null,,,,
null,"<img src=""stim_listB/shout3.gif""style=""height:400px;""></stim_listB>",,html-keyboard-response,65,1168080,0.0-13.0-1.3,64292,List2B,black,woman,,,,null,,,,
null,is shouting at,,html-keyboard-response,66,1170085,0.0-13.0-2.3,64292,List2B,black,woman,,,,null,,,,
45733,,,survey-text,67,1215828,0.0-13.0-3.3,64292,List2B,black,woman,,,,,"{""Q0"":""Fred and Beth are shouting.""}","<img src=""stim_listB/shout3.gif""style=""height:400px;""></stim_listB>",is shouting at,
null,"<div style=""font-size:60px;"">+</div>",,html-keyboard-response,68,1216342,0.0-13.0-0.4,64292,List2B,black,woman,,,,null,,,,
null,"<img src=""stim_listB/play4.gif""style=""height:400px;""></stim_listB>",,html-keyboard-response,69,1218349,0.0-13.0-1.4,64292,List2B,black,woman,,,,null,,,,
null,are playing with each other,,html-keyboard-response,70,1220353,0.0-13.0-2.4,64292,List2B,black,woman,,,,null,,,,
50039,,,survey-text,71,1270401,0.0-13.0-3.4,64292,List2B,black,woman,,,,,"{""Q0"":""Fred and Beth smiling at each other.""}","<img src=""stim_listB/play4.gif""style=""height:400px;""></stim_listB>",are playing with each other,
null,"<div style=""font-size:60px;"">+</div>",,html-keyboard-response,72,1270916,0.0-13.0-0.5,64292,List2B,black,woman,,,,null,,,,
null,"<img src=""stim_listB/argue7.gif""style=""height:400px;""></stim_listB>",,html-keyboard-response,73,1272920,0.0-13.0-1.5,64292,List2B,black,woman,,,,null,,,,
null,is arguing with,,html-keyboard-response,74,1274926,0.0-13.0-2.5,64292,List2B,black,woman,,,,null,,,,
48434,,,survey-text,75,1323373,0.0-13.0-3.5,64292,List2B,black,woman,,,,,"{""Q0"":""Kate is arguing with Kate.""}","<img src=""stim_listB/argue7.gif""style=""height:400px;""></stim_listB>",is arguing with,
null,"<div style=""font-size:60px;"">+</div>",,html-keyboard-response,76,1323885,0.0-13.0-0.6,64292,List2B,black,woman,,,,null,,,,
null,"<img src=""stim_listB/dance7.gif""style=""height:400px;""></stim_listB>",,html-keyboard-response,77,1325890,0.0-13.0-1.6,64292,List2B,black,woman,,,,null,,,,
null,is dancing with,,html-keyboard-response,78,1327895,0.0-13.0-2.6,64292,List2B,black,woman,,,,null,,,,
38260,,,survey-text,79,1366169,0.0-13.0-3.6,64292,List2B,black,woman,,,,,"{""Q0"":""Ruth is dancing with Beth.""}","<img src=""stim_listB/dance7.gif""style=""height:400px;""></stim_listB>",is dancing with,
null,"<div style=""font-size:60px;"">+</div>",,html-keyboard-response,80,1366681,0.0-13.0-0.7,64292,List2B,black,woman,,,,null,,,,
null,"<img src=""stim_listB/talk1.gif""style=""height:400px;""></stim_listB>",,html-keyboard-response,81,1368686,0.0-13.0-1.7,64292,List2B,black,woman,,,,null,,,,
null,is talking to,,html-keyboard-response,82,1370691,0.0-13.0-2.7,64292,List2B,black,woman,,,,null,,,,
33472,,,survey-text,83,1404172,0.0-13.0-3.7,64292,List2B,black,woman,,,,,"{""Q0"":""Luke is talking to Ruth.""}","<img src=""stim_listB/talk1.gif""style=""height:400px;""></stim_listB>",is talking to,
null,"<div style=""font-size:60px;"">+</div>",,html-keyboard-response,84,1404685,0.0-13.0-0.8,64292,List2B,black,woman,,,,null,,,,
null,"<img src=""stim_listB/talk8.gif""style=""height:400px;""></stim_listB>",,html-keyboard-response,85,1406691,0.0-13.0-1.8,64292,List2B,black,woman,,,,null,,,,
null,are talking to each other,,html-keyboard-response,86,1408695,0.0-13.0-2.8,64292,List2B,black,woman,,,,null,,,,
49104,,,survey-text,87,1457807,0.0-13.0-3.8,64292,List2B,black,woman,,,,,"{""Q0"":""Jane and Kate are talking to each other.""}","<img src=""stim_listB/talk8.gif""style=""height:400px;""></stim_listB>",are talking to each other,
null,"<div style=""font-size:60px;"">+</div>",,html-keyboard-response,88,1458322,0.0-13.0-0.9,64292,List2B,black,woman,,,,null,,,,
null,"<img src=""stim_listB/play1.gif""style=""height:400px;""></stim_listB>",,html-keyboard-response,89,1460326,0.0-13.0-1.9,64292,List2B,black,woman,,,,null,,,,
null,is playing with,,html-keyboard-response,90,1462331,0.0-13.0-2.9,64292,List2B,black,woman,,,,null,,,,
59473,,,survey-text,91,1521812,0.0-13.0-3.9,64292,List2B,black,woman,,,,,"{""Q0"":""Dave and Jane are playing.""}","<img src=""stim_listB/play1.gif""style=""height:400px;""></stim_listB>",is playing with,
null,"<div style=""font-size:60px;"">+</div>",,html-keyboard-response,92,1522324,0.0-13.0-0.10,64292,List2B,black,woman,,,,null,,,,
null,"<img src=""stim_listB/argue2.gif""style=""height:400px;""></stim_listB>",,html-keyboard-response,93,1524330,0.0-13.0-1.10,64292,List2B,black,woman,,,,null,,,,
null,are arguing with each other,,html-keyboard-response,94,1526335,0.0-13.0-2.10,64292,List2B,black,woman,,,,null,,,,
26059,,,survey-text,95,1552401,0.0-13.0-3.10,64292,List2B,black,woman,,,,,"{""Q0"":""Jane and Luke are arguing.""}","<img src=""stim_listB/argue2.gif""style=""height:400px;""></stim_listB>",are arguing with each other,
null,"<div style=""font-size:60px;"">+</div>",,html-keyboard-response,96,1552911,0.0-13.0-0.11,64292,List2B,black,woman,,,,null,,,,
null,"<img src=""stim_listB/argue8.gif""style=""height:400px;""></stim_listB>",,html-keyboard-response,97,1554919,0.0-13.0-1.11,64292,List2B,black,woman,,,,null,,,,
null,are arguing with each other,,html-keyboard-response,98,1556924,0.0-13.0-2.11,64292,List2B,black,woman,,,,null,,,,
38504,,,survey-text,99,1595433,0.0-13.0-3.11,64292,List2B,black,woman,,,,,"{""Q0"":""Kate and Ruth are arguing.""}","<img src=""stim_listB/argue8.gif""style=""height:400px;""></stim_listB>",are arguing with each other,
null,"<div style=""font-size:60px;"">+</div>",,html-keyboard-response,100,1595946,0.0-13.0-0.12,64292,List2B,black,woman,,,,null,,,,
null,"<img src=""stim_listB/dance4.gif""style=""height:400px;""></stim_listB>",,html-keyboard-response,101,1597951,0.0-13.0-1.12,64292,List2B,black,woman,,,,null,,,,
null,are dancing with each other,,html-keyboard-response,102,1599956,0.0-13.0-2.12,64292,List2B,black,woman,,,,null,,,,
50893,,,survey-text,103,1650858,0.0-13.0-3.12,64292,List2B,black,woman,,,,,"{""Q0"":""Mike and Beth are dancing with each other.""}","<img src=""stim_listB/dance4.gif""style=""height:400px;""></stim_listB>",are dancing with each other,
null,"<div style=""font-size:60px;"">+</div>",,html-keyboard-response,104,1651373,0.0-13.0-0.13,64292,List2B,black,woman,,,,null,,,,
null,"<img src=""stim_listB/touch4.gif""style=""height:400px;""></stim_listB>",,html-keyboard-response,105,1653378,0.0-13.0-1.13,64292,List2B,black,woman,,,,null,,,,
null,are touching each other,,html-keyboard-response,106,1655384,0.0-13.0-2.13,64292,List2B,black,woman,,,,null,,,,
29829,,,survey-text,107,1685222,0.0-13.0-3.13,64292,List2B,black,woman,,,,,"{""Q0"":""Fred and Kate are touching each other.""}","<img src=""stim_listB/touch4.gif""style=""height:400px;""></stim_listB>",are touching each other,
null,"<div style=""font-size:60px;"">+</div>",,html-keyboard-response,108,1685731,0.0-13.0-0.14,64292,List2B,black,woman,,,,null,,,,
null,"<img src=""stim_listB/argue5.gif""style=""height:400px;""></stim_listB>",,html-keyboard-response,109,1687734,0.0-13.0-1.14,64292,List2B,black,woman,,,,null,,,,
null,is arguing with,,html-keyboard-response,110,1689740,0.0-13.0-2.14,64292,List2B,black,woman,,,,null,,,,
30778,,,survey-text,111,1720526,0.0-13.0-3.14,64292,List2B,black,woman,,,,,"{""Q0"":""Dave is arguing with Fred.""}","<img src=""stim_listB/argue5.gif""style=""height:400px;""></stim_listB>",is arguing with,
null,"<div style=""font-size:60px;"">+</div>",,html-keyboard-response,112,1721039,0.0-13.0-0.15,64292,List2B,black,woman,,,,null,,,,
null,"<img src=""stim_listB/kiss8.gif""style=""height:400px;""></stim_listB>",,html-keyboard-response,113,1723045,0.0-13.0-1.15,64292,List2B,black,woman,,,,null,,,,
null,are kissing each other,,html-keyboard-response,114,1725050,0.0-13.0-2.15,64292,List2B,black,woman,,,,null,,,,
34811,,,survey-text,115,1759871,0.0-13.0-3.15,64292,List2B,black,woman,,,,,"{""Q0"":""Kate and Jane are kissing each other.""}","<img src=""stim_listB/kiss8.gif""style=""height:400px;""></stim_listB>",are kissing each other,
null,"<div style=""font-size:60px;"">+</div>",,html-keyboard-response,116,1760382,0.0-13.0-0.16,64292,List2B,black,woman,,,,null,,,,
null,"<img src=""stim_listB/fight1.gif""style=""height:400px;""></stim_listB>",,html-keyboard-response,117,1762385,0.0-13.0-1.16,64292,List2B,black,woman,,,,null,,,,
null,is fighting,,html-keyboard-response,118,1764390,0.0-13.0-2.16,64292,List2B,black,woman,,,,null,,,,
48592,,,survey-text,119,1812993,0.0-13.0-3.16,64292,List2B,black,woman,,,,,"{""Q0"":""Jane and Dave are fighting.""}","<img src=""stim_listB/fight1.gif""style=""height:400px;""></stim_listB>",is fighting,
null,"<div style=""font-size:60px;"">+</div>",,html-keyboard-response,120,1813507,0.0-13.0-0.17,64292,List2B,black,woman,,,,null,,,,
null,"<img src=""stim_listB/dance3.gif""style=""height:400px;""></stim_listB>",,html-keyboard-response,121,1815512,0.0-13.0-1.17,64292,List2B,black,woman,,,,null,,,,
null,is dancing with,,html-keyboard-response,122,1817517,0.0-13.0-2.17,64292,List2B,black,woman,,,,null,,,,
39390,,,survey-text,123,1856915,0.0-13.0-3.17,64292,List2B,black,woman,,,,,"{""Q0"":""Fred is dancing with Kate.""}","<img src=""stim_listB/dance3.gif""style=""height:400px;""></stim_listB>",is dancing with,
null,"<div style=""font-size:60px;"">+</div>",,html-keyboard-response,124,1857431,0.0-13.0-0.18,64292,List2B,black,woman,,,,null,,,,
null,"<img src=""stim_listB/fight8.gif""style=""height:400px;""></stim_listB>",,html-keyboard-response,125,1859438,0.0-13.0-1.18,64292,List2B,black,woman,,,,null,,,,
null,are fighting each other,,html-keyboard-response,126,1861444,0.0-13.0-2.18,64292,List2B,black,woman,,,,null,,,,
32516,,,survey-text,127,1893968,0.0-13.0-3.18,64292,List2B,black,woman,,,,,"{""Q0"":""Ruth and Beth are fighting each other.""}","<img src=""stim_listB/fight8.gif""style=""height:400px;""></stim_listB>",are fighting each other,
null,"<div style=""font-size:60px;"">+</div>",,html-keyboard-response,128,1894480,0.0-13.0-0.19,64292,List2B,black,woman,,,,null,,,,
null,"<img src=""stim_listB/touch8.gif""style=""height:400px;""></stim_listB>",,html-keyboard-response,129,1896487,0.0-13.0-1.19,64292,List2B,black,woman,,,,null,,,,
null,are touching each other,,html-keyboard-response,130,1898492,0.0-13.0-2.19,64292,List2B,black,woman,,,,null,,,,
26126,,,survey-text,131,1924625,0.0-13.0-3.19,64292,List2B,black,woman,,,,,"{""Q0"":""Ruth and Kate are touching each other.""}","<img src=""stim_listB/touch8.gif""style=""height:400px;""></stim_listB>",are touching each other,
32794,"<img src='img/portrait_matrix_list2.jpg' style='width:900px;height:500px;''></img><p>If you have memorised all the portraits and names and are ready to start, press Continue.</p><p><strong>Please note: Your memory of these faces will be tested 4 times during this experiment.</strong></p>",0,html-button-response,132,1957429,0.0-14.0-0.0,64292,List2B,black,woman,,,,,,,,
13394,"<img src=""portrait/WM1.jpg""style=""height:400px;""></img>",6,html-button-response,133,1971840,0.0-14.0-1.0,64292,List2B,black,woman,,TRUE,6,,,,,
null,CORRECT,,html-keyboard-response,134,1973359,0.0-14.0-2.0-0.0,64292,List2B,black,woman,,,,null,,,,
4962,"<img src=""portrait/BM2.jpg""style=""height:400px;""></img>",5,html-button-response,135,1978332,0.0-14.0-4.0,64292,List2B,black,woman,,TRUE,5,,,,,
null,CORRECT,,html-keyboard-response,136,1979837,0.0-14.0-5.0-0.0,64292,List2B,black,woman,,,,null,,,,
2978,"<img src=""portrait/BW1.jpg""style=""height:400px;""></img>",0,html-button-response,137,1982824,0.0-14.0-7.0,64292,List2B,black,woman,,TRUE,0,,,,,
null,CORRECT,,html-keyboard-response,138,1984328,0.0-14.0-8.0-0.0,64292,List2B,black,woman,,,,null,,,,
10036,"<img src=""portrait/WW2.jpg""style=""height:400px;""></img>",3,html-button-response,139,1994374,0.0-14.0-10.0,64292,List2B,black,woman,,TRUE,3,,,,,
null,CORRECT,,html-keyboard-response,140,1995892,0.0-14.0-11.0-0.0,64292,List2B,black,woman,,,,null,,,,
2228,"<img src=""portrait/WW1.jpg""style=""height:400px;""></img>",1,html-button-response,141,1998133,0.0-14.0-13.0,64292,List2B,black,woman,,TRUE,1,,,,,
null,CORRECT,,html-keyboard-response,142,1999637,0.0-14.0-14.0-0.0,64292,List2B,black,woman,,,,null,,,,
3730,"<img src=""portrait/BM1.jpg""style=""height:400px;""></img>",4,html-button-response,143,2003372,0.0-14.0-16.0,64292,List2B,black,woman,,TRUE,4,,,,,
null,CORRECT,,html-keyboard-response,144,2004876,0.0-14.0-17.0-0.0,64292,List2B,black,woman,,,,null,,,,
2052,"<img src=""portrait/WM2.jpg""style=""height:400px;""></img>",7,html-button-response,145,2006934,0.0-14.0-19.0,64292,List2B,black,woman,,TRUE,7,,,,,
null,CORRECT,,html-keyboard-response,146,2008438,0.0-14.0-20.0-0.0,64292,List2B,black,woman,,,,null,,,,
12412,"<img src=""portrait/BW2.jpg""style=""height:400px;""></img>",2,html-button-response,147,2020860,0.0-14.0-22.0,64292,List2B,black,woman,,TRUE,2,,,,,
null,CORRECT,,html-keyboard-response,148,2022372,0.0-14.0-23.0-0.0,64292,List2B,black,woman,,,,null,,,,
2718,<p>You got 8 out of 8 right first time. Press Continue.</p>,0,html-button-response,149,2025103,0.0-14.0-25.0,64292,List2B,black,woman,,,,,,,,
null,"<div style=""font-size:60px;"">+</div>",,html-keyboard-response,150,2026610,0.0-15.0-0.0,64292,List2B,black,woman,,,,null,,,,
null,"<img src=""stim_listB/kiss2.gif""style=""height:400px;""></stim_listB>",,html-keyboard-response,151,2028615,0.0-15.0-1.0,64292,List2B,black,woman,,,,null,,,,
null,are kissing each other,,html-keyboard-response,152,2030620,0.0-15.0-2.0,64292,List2B,black,woman,,,,null,,,,
33514,,,survey-text,153,2064143,0.0-15.0-3.0,64292,List2B,black,woman,,,,,"{""Q0"":""Dave and Jane are kissing each other.""}","<img src=""stim_listB/kiss2.gif""style=""height:400px;""></stim_listB>",are kissing each other,
null,"<div style=""font-size:60px;"">+</div>",,html-keyboard-response,154,2064657,0.0-15.0-0.1,64292,List2B,black,woman,,,,null,,,,
null,"<img src=""stim_listB/kiss5.gif""style=""height:400px;""></stim_listB>",,html-keyboard-response,155,2066664,0.0-15.0-1.1,64292,List2B,black,woman,,,,null,,,,
null,is kissing,,html-keyboard-response,156,2068670,0.0-15.0-2.1,64292,List2B,black,woman,,,,null,,,,
23004,,,survey-text,157,2091683,0.0-15.0-3.1,64292,List2B,black,woman,,,,,"{""Q0"":""Luke and Fred are kissing.""}","<img src=""stim_listB/kiss5.gif""style=""height:400px;""></stim_listB>",is kissing,
null,"<div style=""font-size:60px;"">+</div>",,html-keyboard-response,158,2092197,0.0-15.0-0.2,64292,List2B,black,woman,,,,null,,,,
null,"<img src=""stim_listB/dance5.gif""style=""height:400px;""></stim_listB>",,html-keyboard-response,159,2094204,0.0-15.0-1.2,64292,List2B,black,woman,,,,null,,,,
null,is dancing with,,html-keyboard-response,160,2096210,0.0-15.0-2.2,64292,List2B,black,woman,,,,null,,,,
20651,,,survey-text,161,2116869,0.0-15.0-3.2,64292,List2B,black,woman,,,,,"{""Q0"":""Luke is dancing with Mike.""}","<img src=""stim_listB/dance5.gif""style=""height:400px;""></stim_listB>",is dancing with,
null,"<div style=""font-size:60px;"">+</div>",,html-keyboard-response,162,2117384,0.0-15.0-0.3,64292,List2B,black,woman,,,,null,,,,
null,"<img src=""stim_listB/shout6.gif""style=""height:400px;""></stim_listB>",,html-keyboard-response,163,2119391,0.0-15.0-1.3,64292,List2B,black,woman,,,,null,,,,
null,are shouting at each other,,html-keyboard-response,164,2121396,0.0-15.0-2.3,64292,List2B,black,woman,,,,null,,,,
27367,,,survey-text,165,2148771,0.0-15.0-3.3,64292,List2B,black,woman,,,,,"{""Q0"":""Dave and Fred are shouting at each other.""}","<img src=""stim_listB/shout6.gif""style=""height:400px;""></stim_listB>",are shouting at each other,
null,"<div style=""font-size:60px;"">+</div>",,html-keyboard-response,166,2149285,0.0-15.0-0.4,64292,List2B,black,woman,,,,null,,,,
null,"<img src=""stim_listB/kiss7.gif""style=""height:400px;""></stim_listB>",,html-keyboard-response,167,2151292,0.0-15.0-1.4,64292,List2B,black,woman,,,,null,,,,
null,is kissing,,html-keyboard-response,168,2153296,0.0-15.0-2.4,64292,List2B,black,woman,,,,null,,,,
36300,,,survey-text,169,2189604,0.0-15.0-3.4,64292,List2B,black,woman,,,,,"{""Q0"":""Ruth and Kate are kissing.""}","<img src=""stim_listB/kiss7.gif""style=""height:400px;""></stim_listB>",is kissing,
null,"<div style=""font-size:60px;"">+</div>",,html-keyboard-response,170,2190115,0.0-15.0-0.5,64292,List2B,black,woman,,,,null,,,,
null,"<img src=""stim_listB/talk5.gif""style=""height:400px;""></stim_listB>",,html-keyboard-response,171,2192120,0.0-15.0-1.5,64292,List2B,black,woman,,,,null,,,,
null,is talking to,,html-keyboard-response,172,2194124,0.0-15.0-2.5,64292,List2B,black,woman,,,,null,,,,
14882,,,survey-text,173,2209012,0.0-15.0-3.5,64292,List2B,black,woman,,,,,"{""Q0"":""Mike is taking to Luke.""}","<img src=""stim_listB/talk5.gif""style=""height:400px;""></stim_listB>",is talking to,
null,"<div style=""font-size:60px;"">+</div>",,html-keyboard-response,174,2209516,0.0-15.0-0.6,64292,List2B,black,woman,,,,null,,,,
null,"<img src=""stim_listB/touch2.gif""style=""height:400px;""></stim_listB>",,html-keyboard-response,175,2211520,0.0-15.0-1.6,64292,List2B,black,woman,,,,null,,,,
null,are touching each other,,html-keyboard-response,176,2213525,0.0-15.0-2.6,64292,List2B,black,woman,,,,null,,,,
18886,,,survey-text,177,2232414,0.0-15.0-3.6,64292,List2B,black,woman,,,,,"{""Q0"":""Ruth and Luke are touching each other.""}","<img src=""stim_listB/touch2.gif""style=""height:400px;""></stim_listB>",are touching each other,
null,"<div style=""font-size:60px;"">+</div>",,html-keyboard-response,178,2232917,0.0-15.0-0.7,64292,List2B,black,woman,,,,null,,,,
null,"<img src=""stim_listB/flirt7.gif""style=""height:400px;""></stim_listB>",,html-keyboard-response,179,2234921,0.0-15.0-1.7,64292,List2B,black,woman,,,,null,,,,
null,is flirting with,,html-keyboard-response,180,2236926,0.0-15.0-2.7,64292,List2B,black,woman,,,,null,,,,
23281,,,survey-text,181,2260212,0.0-15.0-3.7,64292,List2B,black,woman,,,,,"{""Q0"":""Ruth is flirting with Kate.""}","<img src=""stim_listB/flirt7.gif""style=""height:400px;""></stim_listB>",is flirting with,
null,"<div style=""font-size:60px;"">+</div>",,html-keyboard-response,182,2260725,0.0-15.0-0.8,64292,List2B,black,woman,,,,null,,,,
null,"<img src=""stim_listB/kiss6.gif""style=""height:400px;""></stim_listB>",,html-keyboard-response,183,2262730,0.0-15.0-1.8,64292,List2B,black,woman,,,,null,,,,
null,are kissing each other,,html-keyboard-response,184,2264734,0.0-15.0-2.8,64292,List2B,black,woman,,,,null,,,,
18792,,,survey-text,185,2283532,0.0-15.0-3.8,64292,List2B,black,woman,,,,,"{""Q0"":""Mike and Dave are kissing each other.""}","<img src=""stim_listB/kiss6.gif""style=""height:400px;""></stim_listB>",are kissing each other,
null,"<div style=""font-size:60px;"">+</div>",,html-keyboard-response,186,2284035,0.0-15.0-0.9,64292,List2B,black,woman,,,,null,,,,
null,"<img src=""stim_listB/argue1.gif""style=""height:400px;""></stim_listB>",,html-keyboard-response,187,2286038,0.0-15.0-1.9,64292,List2B,black,woman,,,,null,,,,
null,is arguing with,,html-keyboard-response,188,2288043,0.0-15.0-2.9,64292,List2B,black,woman,,,,null,,,,
12954,,,survey-text,189,2301001,0.0-15.0-3.9,64292,List2B,black,woman,,,,,"{""Q0"":""Dave is arguing with Ruth.""}","<img src=""stim_listB/argue1.gif""style=""height:400px;""></stim_listB>",is arguing with,
null,"<div style=""font-size:60px;"">+</div>",,html-keyboard-response,190,2301505,0.0-15.0-0.10,64292,List2B,black,woman,,,,null,,,,
null,"<img src=""stim_listB/dance8.gif""style=""height:400px;""></stim_listB>",,html-keyboard-response,191,2303511,0.0-15.0-1.10,64292,List2B,black,woman,,,,null,,,,
null,are dancing with each other,,html-keyboard-response,192,2305517,0.0-15.0-2.10,64292,List2B,black,woman,,,,null,,,,
31604,,,survey-text,193,2337127,0.0-15.0-3.10,64292,List2B,black,woman,,,,,"{""Q0"":""Beth and Jane are dancing together.""}","<img src=""stim_listB/dance8.gif""style=""height:400px;""></stim_listB>",are dancing with each other,
null,"<div style=""font-size:60px;"">+</div>",,html-keyboard-response,194,2337641,0.0-15.0-0.11,64292,List2B,black,woman,,,,null,,,,
null,"<img src=""stim_listB/fight5.gif""style=""height:400px;""></stim_listB>",,html-keyboard-response,195,2339647,0.0-15.0-1.11,64292,List2B,black,woman,,,,null,,,,
null,is fighting,,html-keyboard-response,196,2341652,0.0-15.0-2.11,64292,List2B,black,woman,,,,null,,,,
21735,,,survey-text,197,2363393,0.0-15.0-3.11,64292,List2B,black,woman,,,,,"{""Q0"":""Mike and Dave are fighting.""}","<img src=""stim_listB/fight5.gif""style=""height:400px;""></stim_listB>",is fighting,
null,"<div style=""font-size:60px;"">+</div>",,html-keyboard-response,198,2363898,0.0-15.0-0.12,64292,List2B,black,woman,,,,null,,,,
null,"<img src=""stim_listB/flirt4.gif""style=""height:400px;""></stim_listB>",,html-keyboard-response,199,2365902,0.0-15.0-1.12,64292,List2B,black,woman,,,,null,,,,
null,are flirting with each other,,html-keyboard-response,200,2367906,0.0-15.0-2.12,64292,List2B,black,woman,,,,null,,,,
26621,,,survey-text,201,2394531,0.0-15.0-3.12,64292,List2B,black,woman,,,,,"{""Q0"":""Beth and Mike are flirting with each other.""}","<img src=""stim_listB/flirt4.gif""style=""height:400px;""></stim_listB>",are flirting with each other,
null,"<div style=""font-size:60px;"">+</div>",,html-keyboard-response,202,2395035,0.0-15.0-0.13,64292,List2B,black,woman,,,,null,,,,
null,"<img src=""stim_listB/kiss3.gif""style=""height:400px;""></stim_listB>",,html-keyboard-response,203,2397040,0.0-15.0-1.13,64292,List2B,black,woman,,,,null,,,,
null,is kissing,,html-keyboard-response,204,2399045,0.0-15.0-2.13,64292,List2B,black,woman,,,,null,,,,
21642,,,survey-text,205,2420692,0.0-15.0-3.13,64292,List2B,black,woman,,,,,"{""Q0"":""Fred and Kate are kissing.""}","<img src=""stim_listB/kiss3.gif""style=""height:400px;""></stim_listB>",is kissing,
null,"<div style=""font-size:60px;"">+</div>",,html-keyboard-response,206,2421195,0.0-15.0-0.14,64292,List2B,black,woman,,,,null,,,,
null,"<img src=""stim_listB/marry5.gif""style=""height:400px;""></stim_listB>",,html-keyboard-response,207,2423199,0.0-15.0-1.14,64292,List2B,black,woman,,,,null,,,,
null,is marrying,,html-keyboard-response,208,2425204,0.0-15.0-2.14,64292,List2B,black,woman,,,,null,,,,
21195,,,survey-text,209,2446404,0.0-15.0-3.14,64292,List2B,black,woman,,,,,"{""Q0"":""Fred and Dave are marrying.""}","<img src=""stim_listB/marry5.gif""style=""height:400px;""></stim_listB>",is marrying,
null,"<div style=""font-size:60px;"">+</div>",,html-keyboard-response,210,2446908,0.0-15.0-0.15,64292,List2B,black,woman,,,,null,,,,
null,"<img src=""stim_listB/flirt8.gif""style=""height:400px;""></stim_listB>",,html-keyboard-response,211,2448914,0.0-15.0-1.15,64292,List2B,black,woman,,,,null,,,,
null,are flirting with each other,,html-keyboard-response,212,2450918,0.0-15.0-2.15,64292,List2B,black,woman,,,,null,,,,
20628,,,survey-text,213,2471550,0.0-15.0-3.15,64292,List2B,black,woman,,,,,"{""Q0"":""Beth and Jane are flirting with each other.""}","<img src=""stim_listB/flirt8.gif""style=""height:400px;""></stim_listB>",are flirting with each other,
null,"<div style=""font-size:60px;"">+</div>",,html-keyboard-response,214,2472055,0.0-15.0-0.16,64292,List2B,black,woman,,,,null,,,,
null,"<img src=""stim_listB/talk2.gif""style=""height:400px;""></stim_listB>",,html-keyboard-response,215,2474060,0.0-15.0-1.16,64292,List2B,black,woman,,,,null,,,,
null,are talking to each other,,html-keyboard-response,216,2476065,0.0-15.0-2.16,64292,List2B,black,woman,,,,null,,,,
23263,,,survey-text,217,2499333,0.0-15.0-3.16,64292,List2B,black,woman,,,,,"{""Q0"":""Ruth and Dave are talking with each other.""}","<img src=""stim_listB/talk2.gif""style=""height:400px;""></stim_listB>",are talking to each other,
null,"<div style=""font-size:60px;"">+</div>",,html-keyboard-response,218,2499837,0.0-15.0-0.17,64292,List2B,black,woman,,,,null,,,,
null,"<img src=""stim_listB/marry2.gif""style=""height:400px;""></stim_listB>",,html-keyboard-response,219,2501840,0.0-15.0-1.17,64292,List2B,black,woman,,,,null,,,,
null,are marrying each other,,html-keyboard-response,220,2503843,0.0-15.0-2.17,64292,List2B,black,woman,,,,null,,,,
28888,,,survey-text,221,2532738,0.0-15.0-3.17,64292,List2B,black,woman,,,,,"{""Q0"":""Luke and Jane are marrying.""}","<img src=""stim_listB/marry2.gif""style=""height:400px;""></stim_listB>",are marrying each other,
null,"<div style=""font-size:60px;"">+</div>",,html-keyboard-response,222,2533251,0.0-15.0-0.18,64292,List2B,black,woman,,,,null,,,,
null,"<img src=""stim_listB/play8.gif""style=""height:400px;""></stim_listB>",,html-keyboard-response,223,2535255,0.0-15.0-1.18,64292,List2B,black,woman,,,,null,,,,
null,are playing with each other,,html-keyboard-response,224,2537259,0.0-15.0-2.18,64292,List2B,black,woman,,,,null,,,,
18868,,,survey-text,225,2556135,0.0-15.0-3.18,64292,List2B,black,woman,,,,,"{""Q0"":""Beth and Ruth are playing together.""}","<img src=""stim_listB/play8.gif""style=""height:400px;""></stim_listB>",are playing with each other,
null,"<div style=""font-size:60px;"">+</div>",,html-keyboard-response,226,2556640,0.0-15.0-0.19,64292,List2B,black,woman,,,,null,,,,
null,"<img src=""stim_listB/argue6.gif""style=""height:400px;""></stim_listB>",,html-keyboard-response,227,2558644,0.0-15.0-1.19,64292,List2B,black,woman,,,,null,,,,
null,are arguing with each other,,html-keyboard-response,228,2560647,0.0-15.0-2.19,64292,List2B,black,woman,,,,null,,,,
19570,,,survey-text,229,2580222,0.0-15.0-3.19,64292,List2B,black,woman,,,,,"{""Q0"":""Mike and Luke are arguing with each other.""}","<img src=""stim_listB/argue6.gif""style=""height:400px;""></stim_listB>",are arguing with each other,
26240,"<img src='img/portrait_matrix_list2.jpg' style='width:900px;height:500px;''></img><p>If you have memorised all the portraits and names and are ready to start, press Continue.</p><p><strong>Please note: Your memory of these faces will be tested 4 times during this experiment.</strong></p>",0,html-button-response,230,2606471,0.0-16.0-0.0,64292,List2B,black,woman,,,,,,,,
5057,"<img src=""portrait/WM1.jpg""style=""height:400px;""></img>",6,html-button-response,231,2612532,0.0-16.0-1.0,64292,List2B,black,woman,,TRUE,6,,,,,
null,CORRECT,,html-keyboard-response,232,2614055,0.0-16.0-2.0-0.0,64292,List2B,black,woman,,,,null,,,,
5340,"<img src=""portrait/WW2.jpg""style=""height:400px;""></img>",3,html-button-response,233,2619402,0.0-16.0-4.0,64292,List2B,black,woman,,TRUE,3,,,,,
null,CORRECT,,html-keyboard-response,234,2620906,0.0-16.0-5.0-0.0,64292,List2B,black,woman,,,,null,,,,
2671,"<img src=""portrait/WW1.jpg""style=""height:400px;""></img>",1,html-button-response,235,2623584,0.0-16.0-7.0,64292,List2B,black,woman,,TRUE,1,,,,,
null,CORRECT,,html-keyboard-response,236,2625090,0.0-16.0-8.0-0.0,64292,List2B,black,woman,,,,null,,,,
2270,"<img src=""portrait/BW1.jpg""style=""height:400px;""></img>",0,html-button-response,237,2627368,0.0-16.0-10.0,64292,List2B,black,woman,,TRUE,0,,,,,
null,CORRECT,,html-keyboard-response,238,2628872,0.0-16.0-11.0-0.0,64292,List2B,black,woman,,,,null,,,,
2824,"<img src=""portrait/BM2.jpg""style=""height:400px;""></img>",5,html-button-response,239,2631702,0.0-16.0-13.0,64292,List2B,black,woman,,TRUE,5,,,,,
null,CORRECT,,html-keyboard-response,240,2633206,0.0-16.0-14.0-0.0,64292,List2B,black,woman,,,,null,,,,
2363,"<img src=""portrait/BM1.jpg""style=""height:400px;""></img>",4,html-button-response,241,2635575,0.0-16.0-16.0,64292,List2B,black,woman,,TRUE,4,,,,,
null,CORRECT,,html-keyboard-response,242,2637078,0.0-16.0-17.0-0.0,64292,List2B,black,woman,,,,null,,,,
5151,"<img src=""portrait/BW2.jpg""style=""height:400px;""></img>",2,html-button-response,243,2642237,0.0-16.0-19.0,64292,List2B,black,woman,,TRUE,2,,,,,
null,CORRECT,,html-keyboard-response,244,2643740,0.0-16.0-20.0-0.0,64292,List2B,black,woman,,,,null,,,,
2589,"<img src=""portrait/WM2.jpg""style=""height:400px;""></img>",7,html-button-response,245,2646336,0.0-16.0-22.0,64292,List2B,black,woman,,TRUE,7,,,,,
null,CORRECT,,html-keyboard-response,246,2647841,0.0-16.0-23.0-0.0,64292,List2B,black,woman,,,,null,,,,
4556,<p>You got 8 out of 8 right first time. Press Continue.</p>,0,html-button-response,247,2652403,0.0-16.0-25.0,64292,List2B,black,woman,,,,,,,,
null,"<div style=""font-size:60px;"">+</div>",,html-keyboard-response,248,2653912,0.0-17.0-0.0,64292,List2B,black,woman,,,,null,,,,
null,"<img src=""stim_listB/touch7.gif""style=""height:400px;""></stim_listB>",,html-keyboard-response,249,2655917,0.0-17.0-1.0,64292,List2B,black,woman,,,,null,,,,
null,is touching,,html-keyboard-response,250,2657922,0.0-17.0-2.0,64292,List2B,black,woman,,,,null,,,,
41041,,,survey-text,251,2698974,0.0-17.0-3.0,64292,List2B,black,woman,,,,,"{""Q0"":""Jane and Kate are touching.""}","<img src=""stim_listB/touch7.gif""style=""height:400px;""></stim_listB>",is touching,
null,"<div style=""font-size:60px;"">+</div>",,html-keyboard-response,252,2699487,0.0-17.0-0.1,64292,List2B,black,woman,,,,null,,,,
null,"<img src=""stim_listB/talk3.gif""style=""height:400px;""></stim_listB>",,html-keyboard-response,253,2701495,0.0-17.0-1.1,64292,List2B,black,woman,,,,null,,,,
null,is talking to,,html-keyboard-response,254,2703501,0.0-17.0-2.1,64292,List2B,black,woman,,,,null,,,,
12770,,,survey-text,255,2716280,0.0-17.0-3.1,64292,List2B,black,woman,,,,,"{""Q0"":""Fred is talking to Kate.""}","<img src=""stim_listB/talk3.gif""style=""height:400px;""></stim_listB>",is talking to,
null,"<div style=""font-size:60px;"">+</div>",,html-keyboard-response,256,2716783,0.0-17.0-0.2,64292,List2B,black,woman,,,,null,,,,
null,"<img src=""stim_listB/flirt5.gif""style=""height:400px;""></stim_listB>",,html-keyboard-response,257,2718787,0.0-17.0-1.2,64292,List2B,black,woman,,,,null,,,,
null,is flirting with,,html-keyboard-response,258,2720790,0.0-17.0-2.2,64292,List2B,black,woman,,,,null,,,,
16735,,,survey-text,259,2737530,0.0-17.0-3.2,64292,List2B,black,woman,,,,,"{""Q0"":""Luke is flirting with Mike.""}","<img src=""stim_listB/flirt5.gif""style=""height:400px;""></stim_listB>",is flirting with,
null,"<div style=""font-size:60px;"">+</div>",,html-keyboard-response,260,2738035,0.0-17.0-0.3,64292,List2B,black,woman,,,,null,,,,
null,"<img src=""stim_listB/argue4.gif""style=""height:400px;""></stim_listB>",,html-keyboard-response,261,2740039,0.0-17.0-1.3,64292,List2B,black,woman,,,,null,,,,
null,are arguing with each other,,html-keyboard-response,262,2742044,0.0-17.0-2.3,64292,List2B,black,woman,,,,null,,,,
22120,,,survey-text,263,2764169,0.0-17.0-3.3,64292,List2B,black,woman,,,,,"{""Q0"":""Kate and Fred are talking.""}","<img src=""stim_listB/argue4.gif""style=""height:400px;""></stim_listB>",are arguing with each other,
null,"<div style=""font-size:60px;"">+</div>",,html-keyboard-response,264,2764674,0.0-17.0-0.4,64292,List2B,black,woman,,,,null,,,,
null,"<img src=""stim_listB/dance2.gif""style=""height:400px;""></stim_listB>",,html-keyboard-response,265,2766679,0.0-17.0-1.4,64292,List2B,black,woman,,,,null,,,,
null,are dancing with each other,,html-keyboard-response,266,2768684,0.0-17.0-2.4,64292,List2B,black,woman,,,,null,,,,
19513,,,survey-text,267,2788201,0.0-17.0-3.4,64292,List2B,black,woman,,,,,"{""Q0"":""Ruth and Dave are dancing with each other.""}","<img src=""stim_listB/dance2.gif""style=""height:400px;""></stim_listB>",are dancing with each other,
null,"<div style=""font-size:60px;"">+</div>",,html-keyboard-response,268,2788706,0.0-17.0-0.5,64292,List2B,black,woman,,,,null,,,,
null,"<img src=""stim_listB/dance1.gif""style=""height:400px;""></stim_listB>",,html-keyboard-response,269,2790710,0.0-17.0-1.5,64292,List2B,black,woman,,,,null,,,,
null,is dancing with,,html-keyboard-response,270,2792714,0.0-17.0-2.5,64292,List2B,black,woman,,,,null,,,,
14266,,,survey-text,271,2806991,0.0-17.0-3.5,64292,List2B,black,woman,,,,,"{""Q0"":""Luke is dancing with Jane.""}","<img src=""stim_listB/dance1.gif""style=""height:400px;""></stim_listB>",is dancing with,
null,"<div style=""font-size:60px;"">+</div>",,html-keyboard-response,272,2807495,0.0-17.0-0.6,64292,List2B,black,woman,,,,null,,,,
null,"<img src=""stim_listB/play7.gif""style=""height:400px;""></stim_listB>",,html-keyboard-response,273,2809499,0.0-17.0-1.6,64292,List2B,black,woman,,,,null,,,,
null,is playing with,,html-keyboard-response,274,2811504,0.0-17.0-2.6,64292,List2B,black,woman,,,,null,,,,
15751,,,survey-text,275,2827260,0.0-17.0-3.6,64292,List2B,black,woman,,,,,"{""Q0"":""Jane is playing with Kate.""}","<img src=""stim_listB/play7.gif""style=""height:400px;""></stim_listB>",is playing with,
null,"<div style=""font-size:60px;"">+</div>",,html-keyboard-response,276,2827763,0.0-17.0-0.7,64292,List2B,black,woman,,,,null,,,,
null,"<img src=""stim_listB/fight4.gif""style=""height:400px;""></stim_listB>",,html-keyboard-response,277,2829765,0.0-17.0-1.7,64292,List2B,black,woman,,,,null,,,,
null,are fighting each other,,html-keyboard-response,278,2831769,0.0-17.0-2.7,64292,List2B,black,woman,,,,null,,,,
28045,,,survey-text,279,2859818,0.0-17.0-3.7,64292,List2B,black,woman,,,,,"{""Q0"":""Beth and Fred are fighting each other.""}","<img src=""stim_listB/fight4.gif""style=""height:400px;""></stim_listB>",are fighting each other,
null,"<div style=""font-size:60px;"">+</div>",,html-keyboard-response,280,2860322,0.0-17.0-0.8,64292,List2B,black,woman,,,,null,,,,
null,"<img src=""stim_listB/play3.gif""style=""height:400px;""></stim_listB>",,html-keyboard-response,281,2862328,0.0-17.0-1.8,64292,List2B,black,woman,,,,null,,,,
null,is playing with,,html-keyboard-response,282,2864331,0.0-17.0-2.8,64292,List2B,black,woman,,,,null,,,,
15918,,,survey-text,283,2880253,0.0-17.0-3.8,64292,List2B,black,woman,,,,,"{""Q0"":""Mike is playing with Kate.""}","<img src=""stim_listB/play3.gif""style=""height:400px;""></stim_listB>",is playing with,
null,"<div style=""font-size:60px;"">+</div>",,html-keyboard-response,284,2880757,0.0-17.0-0.9,64292,List2B,black,woman,,,,null,,,,
null,"<img src=""stim_listB/kiss1.gif""style=""height:400px;""></stim_listB>",,html-keyboard-response,285,2882761,0.0-17.0-1.9,64292,List2B,black,woman,,,,null,,,,
null,is kissing,,html-keyboard-response,286,2884765,0.0-17.0-2.9,64292,List2B,black,woman,,,,null,,,,
12086,,,survey-text,287,2896856,0.0-17.0-3.9,64292,List2B,black,woman,,,,,"{""Q0"":""Luke and Ruth are kissing.""}","<img src=""stim_listB/kiss1.gif""style=""height:400px;""></stim_listB>",is kissing,
null,"<div style=""font-size:60px;"">+</div>",,html-keyboard-response,288,2897360,0.0-17.0-0.10,64292,List2B,black,woman,,,,null,,,,
null,"<img src=""stim_listB/fight3.gif""style=""height:400px;""></stim_listB>",,html-keyboard-response,289,2899362,0.0-17.0-1.10,64292,List2B,black,woman,,,,null,,,,
null,is fighting,,html-keyboard-response,290,2901366,0.0-17.0-2.10,64292,List2B,black,woman,,,,null,,,,
22091,,,survey-text,291,2923460,0.0-17.0-3.10,64292,List2B,black,woman,,,,,"{""Q0"":""Kate and Mike are fighting.""}","<img src=""stim_listB/fight3.gif""style=""height:400px;""></stim_listB>",is fighting,
null,"<div style=""font-size:60px;"">+</div>",,html-keyboard-response,292,2923964,0.0-17.0-0.11,64292,List2B,black,woman,,,,null,,,,
null,"<img src=""stim_listB/flirt1.gif""style=""height:400px;""></stim_listB>",,html-keyboard-response,293,2925967,0.0-17.0-1.11,64292,List2B,black,woman,,,,null,,,,
null,is flirting with,,html-keyboard-response,294,2927972,0.0-17.0-2.11,64292,List2B,black,woman,,,,null,,,,
17334,,,survey-text,295,2945310,0.0-17.0-3.11,64292,List2B,black,woman,,,,,"{""Q0"":""Luke is flirting with Jane.""}","<img src=""stim_listB/flirt1.gif""style=""height:400px;""></stim_listB>",is flirting with,
null,"<div style=""font-size:60px;"">+</div>",,html-keyboard-response,296,2945815,0.0-17.0-0.12,64292,List2B,black,woman,,,,null,,,,
null,"<img src=""stim_listB/touch6.gif""style=""height:400px;""></stim_listB>",,html-keyboard-response,297,2947820,0.0-17.0-1.12,64292,List2B,black,woman,,,,null,,,,
null,are touching each other,,html-keyboard-response,298,2949824,0.0-17.0-2.12,64292,List2B,black,woman,,,,null,,,,
16433,,,survey-text,299,2966260,0.0-17.0-3.12,64292,List2B,black,woman,,,,,"{""Q0"":""Luke and Fred are touching each other.""}","<img src=""stim_listB/touch6.gif""style=""height:400px;""></stim_listB>",are touching each other,
null,"<div style=""font-size:60px;"">+</div>",,html-keyboard-response,300,2966766,0.0-17.0-0.13,64292,List2B,black,woman,,,,null,,,,
null,"<img src=""stim_listB/touch5.gif""style=""height:400px;""></stim_listB>",,html-keyboard-response,301,2968772,0.0-17.0-1.13,64292,List2B,black,woman,,,,null,,,,
null,is touching,,html-keyboard-response,302,2970776,0.0-17.0-2.13,64292,List2B,black,woman,,,,null,,,,
12225,,,survey-text,303,2983011,0.0-17.0-3.13,64292,List2B,black,woman,,,,,"{""Q0"":""Mike and Dave are touching.""}","<img src=""stim_listB/touch5.gif""style=""height:400px;""></stim_listB>",is touching,
null,"<div style=""font-size:60px;"">+</div>",,html-keyboard-response,304,2983515,0.0-17.0-0.14,64292,List2B,black,woman,,,,null,,,,
null,"<img src=""stim_listB/marry1.gif""style=""height:400px;""></stim_listB>",,html-keyboard-response,305,2985521,0.0-17.0-1.14,64292,List2B,black,woman,,,,null,,,,
null,is marrying,,html-keyboard-response,306,2987526,0.0-17.0-2.14,64292,List2B,black,woman,,,,null,,,,
20088,,,survey-text,307,3007618,0.0-17.0-3.14,64292,List2B,black,woman,,,,,"{""Q0"":""Dave and Ruth are marrying.""}","<img src=""stim_listB/marry1.gif""style=""height:400px;""></stim_listB>",is marrying,
null,"<div style=""font-size:60px;"">+</div>",,html-keyboard-response,308,3008122,0.0-17.0-0.15,64292,List2B,black,woman,,,,null,,,,
null,"<img src=""stim_listB/touch3.gif""style=""height:400px;""></stim_listB>",,html-keyboard-response,309,3010127,0.0-17.0-1.15,64292,List2B,black,woman,,,,null,,,,
null,is touching,,html-keyboard-response,310,3012132,0.0-17.0-2.15,64292,List2B,black,woman,,,,null,,,,
20524,,,survey-text,311,3032660,0.0-17.0-3.15,64292,List2B,black,woman,,,,,"{""Q0"":""Kate and Mike are touching.""}","<img src=""stim_listB/touch3.gif""style=""height:400px;""></stim_listB>",is touching,
null,"<div style=""font-size:60px;"">+</div>",,html-keyboard-response,312,3033163,0.0-17.0-0.16,64292,List2B,black,woman,,,,null,,,,
null,"<img src=""stim_listB/talk7.gif""style=""height:400px;""></stim_listB>",,html-keyboard-response,313,3035169,0.0-17.0-1.16,64292,List2B,black,woman,,,,null,,,,
null,is talking to,,html-keyboard-response,314,3037173,0.0-17.0-2.16,64292,List2B,black,woman,,,,null,,,,
16427,,,survey-text,315,3053606,0.0-17.0-3.16,64292,List2B,black,woman,,,,,"{""Q0"":""Ruth is talking to Kate.""}","<img src=""stim_listB/talk7.gif""style=""height:400px;""></stim_listB>",is talking to,
null,"<div style=""font-size:60px;"">+</div>",,html-keyboard-response,316,3054112,0.0-17.0-0.17,64292,List2B,black,woman,,,,null,,,,
null,"<img src=""stim_listB/flirt2.gif""style=""height:400px;""></stim_listB>",,html-keyboard-response,317,3056117,0.0-17.0-1.17,64292,List2B,black,woman,,,,null,,,,
null,are flirting with each other,,html-keyboard-response,318,3058122,0.0-17.0-2.17,64292,List2B,black,woman,,,,null,,,,
20073,,,survey-text,319,3078199,0.0-17.0-3.17,64292,List2B,black,woman,,,,,"{""Q0"":""Ruth and Dave are flirting with each other.""}","<img src=""stim_listB/flirt2.gif""style=""height:400px;""></stim_listB>",are flirting with each other,
null,"<div style=""font-size:60px;"">+</div>",,html-keyboard-response,320,3078704,0.0-17.0-0.18,64292,List2B,black,woman,,,,null,,,,
null,"<img src=""stim_listB/talk4.gif""style=""height:400px;""></stim_listB>",,html-keyboard-response,321,3080709,0.0-17.0-1.18,64292,List2B,black,woman,,,,null,,,,
null,are talking to each other,,html-keyboard-response,322,3082714,0.0-17.0-2.18,64292,List2B,black,woman,,,,null,,,,
19425,,,survey-text,323,3102144,0.0-17.0-3.18,64292,List2B,black,woman,,,,,"{""Q0"":""Mike and Beth are talking to each other.""}","<img src=""stim_listB/talk4.gif""style=""height:400px;""></stim_listB>",are talking to each other,
null,"<div style=""font-size:60px;"">+</div>",,html-keyboard-response,324,3102651,0.0-17.0-0.19,64292,List2B,black,woman,,,,null,,,,
null,"<img src=""stim_listB/shout7.gif""style=""height:400px;""></stim_listB>",,html-keyboard-response,325,3104655,0.0-17.0-1.19,64292,List2B,black,woman,,,,null,,,,
null,is shouting at,,html-keyboard-response,326,3106660,0.0-17.0-2.19,64292,List2B,black,woman,,,,null,,,,
16069,,,survey-text,327,3122739,0.0-17.0-3.19,64292,List2B,black,woman,,,,,"{""Q0"":""Ruth is shouting at Beth.""}","<img src=""stim_listB/shout7.gif""style=""height:400px;""></stim_listB>",is shouting at,
13746,"<img src='img/portrait_matrix_list2.jpg' style='width:900px;height:500px;''></img><p>If you have memorised all the portraits and names and are ready to start, press Continue.</p><p><strong>Please note: Your memory of these faces will be tested 4 times during this experiment.</strong></p>",0,html-button-response,328,3136490,0.0-18.0-0.0,64292,List2B,black,woman,,,,,,,,
3088,"<img src=""portrait/BM2.jpg""style=""height:400px;""></img>",5,html-button-response,329,3140586,0.0-18.0-1.0,64292,List2B,black,woman,,TRUE,5,,,,,
null,CORRECT,,html-keyboard-response,330,3142095,0.0-18.0-2.0-0.0,64292,List2B,black,woman,,,,null,,,,
3170,"<img src=""portrait/WM1.jpg""style=""height:400px;""></img>",6,html-button-response,331,3145273,0.0-18.0-4.0,64292,List2B,black,woman,,TRUE,6,,,,,
null,CORRECT,,html-keyboard-response,332,3146778,0.0-18.0-5.0-0.0,64292,List2B,black,woman,,,,null,,,,
2686,"<img src=""portrait/WW1.jpg""style=""height:400px;""></img>",1,html-button-response,333,3149471,0.0-18.0-7.0,64292,List2B,black,woman,,TRUE,1,,,,,
null,CORRECT,,html-keyboard-response,334,3150976,0.0-18.0-8.0-0.0,64292,List2B,black,woman,,,,null,,,,
2187,"<img src=""portrait/BW1.jpg""style=""height:400px;""></img>",0,html-button-response,335,3153169,0.0-18.0-10.0,64292,List2B,black,woman,,TRUE,0,,,,,
null,CORRECT,,html-keyboard-response,336,3154672,0.0-18.0-11.0-0.0,64292,List2B,black,woman,,,,null,,,,
2947,"<img src=""portrait/BM1.jpg""style=""height:400px;""></img>",4,html-button-response,337,3157623,0.0-18.0-13.0,64292,List2B,black,woman,,TRUE,4,,,,,
null,CORRECT,,html-keyboard-response,338,3159127,0.0-18.0-14.0-0.0,64292,List2B,black,woman,,,,null,,,,
2091,"<img src=""portrait/WW2.jpg""style=""height:400px;""></img>",3,html-button-response,339,3161226,0.0-18.0-16.0,64292,List2B,black,woman,,TRUE,3,,,,,
null,CORRECT,,html-keyboard-response,340,3162730,0.0-18.0-17.0-0.0,64292,List2B,black,woman,,,,null,,,,
2851,"<img src=""portrait/BW2.jpg""style=""height:400px;""></img>",0,html-button-response,341,3165588,0.0-18.0-19.0,64292,List2B,black,woman,,TRUE,2,,,,,
2263,"<img src=""portrait/BW2.jpg""style=""height:400px;""></img>",0,html-button-response,342,3168858,0.0-18.0-21.0-0.0,64292,List2B,black,woman,,FALSE,2,,,,,
null,INCORRECT,,html-keyboard-response,343,3170365,0.0-18.0-21.0-2.0-0.0,64292,List2B,black,woman,,,,null,,,,
5985,"<img src=""portrait/WM2.jpg""style=""height:400px;""></img>",7,html-button-response,344,3176356,0.0-18.0-22.0,64292,List2B,black,woman,,TRUE,7,,,,,
null,CORRECT,,html-keyboard-response,345,3177861,0.0-18.0-23.0-0.0,64292,List2B,black,woman,,,,null,,,,
2241,<p>You got 7 out of 8 right first time. Press Continue.</p>,0,html-button-response,346,3180109,0.0-18.0-25.0,64292,List2B,black,woman,,,,,,,,
2595,"As you did not score 100%, the memory game will repeat. Press Continue.",0,html-button-response,347,3183709,0.0-18.0-26.0-0.0,64292,List2B,black,woman,,,,,,,,
2724,"<img src='img/portrait_matrix_list2.jpg' style='width:900px;height:500px;''></img><p>If you have memorised all the portraits and names and are ready to start, press Continue.</p><p><strong>Please note: Your memory of these faces will be tested 4 times during this experiment.</strong></p>",0,html-button-response,348,3187447,0.0-18.1-0.1,64292,List2B,black,woman,,,,,,,,
2403,"<img src=""portrait/BM2.jpg""style=""height:400px;""></img>",5,html-button-response,349,3190858,0.0-18.1-1.1,64292,List2B,black,woman,,TRUE,5,,,,,
null,CORRECT,,html-keyboard-response,350,3192363,0.0-18.1-2.1-0.1,64292,List2B,black,woman,,,,null,,,,
2372,"<img src=""portrait/WM1.jpg""style=""height:400px;""></img>",6,html-button-response,351,3194741,0.0-18.1-4.1,64292,List2B,black,woman,,TRUE,6,,,,,
null,CORRECT,,html-keyboard-response,352,3196246,0.0-18.1-5.1-0.1,64292,List2B,black,woman,,,,null,,,,
2156,"<img src=""portrait/WW1.jpg""style=""height:400px;""></img>",1,html-button-response,353,3198409,0.0-18.1-7.1,64292,List2B,black,woman,,TRUE,1,,,,,
null,CORRECT,,html-keyboard-response,354,3199913,0.0-18.1-8.1-0.1,64292,List2B,black,woman,,,,null,,,,
2409,"<img src=""portrait/BW1.jpg""style=""height:400px;""></img>",0,html-button-response,355,3202331,0.0-18.1-10.1,64292,List2B,black,woman,,TRUE,0,,,,,
null,CORRECT,,html-keyboard-response,356,3203835,0.0-18.1-11.1-0.1,64292,List2B,black,woman,,,,null,,,,
3169,"<img src=""portrait/BM1.jpg""style=""height:400px;""></img>",4,html-button-response,357,3207010,0.0-18.1-13.1,64292,List2B,black,woman,,TRUE,4,,,,,
null,CORRECT,,html-keyboard-response,358,3208515,0.0-18.1-14.1-0.1,64292,List2B,black,woman,,,,null,,,,
5111,"<img src=""portrait/WW2.jpg""style=""height:400px;""></img>",3,html-button-response,359,3213633,0.0-18.1-16.1,64292,List2B,black,woman,,TRUE,3,,,,,
null,CORRECT,,html-keyboard-response,360,3215137,0.0-18.1-17.1-0.1,64292,List2B,black,woman,,,,null,,,,
1949,"<img src=""portrait/BW2.jpg""style=""height:400px;""></img>",2,html-button-response,361,3217094,0.0-18.1-19.1,64292,List2B,black,woman,,TRUE,2,,,,,
null,CORRECT,,html-keyboard-response,362,3218599,0.0-18.1-20.1-0.1,64292,List2B,black,woman,,,,null,,,,
3216,"<img src=""portrait/WM2.jpg""style=""height:400px;""></img>",7,html-button-response,363,3221826,0.0-18.1-22.1,64292,List2B,black,woman,,TRUE,7,,,,,
null,CORRECT,,html-keyboard-response,364,3223332,0.0-18.1-23.1-0.1,64292,List2B,black,woman,,,,null,,,,
2046,<p>You got 8 out of 8 right first time. Press Continue.</p>,0,html-button-response,365,3225384,0.0-18.1-25.1,64292,List2B,black,woman,,,,,,,,
null,"<div style=""font-size:60px;"">+</div>",,html-keyboard-response,366,3226893,0.0-19.0-0.0,64292,List2B,black,woman,,,,null,,,,
null,"<img src=""stim_listB/marry7.gif""style=""height:400px;""></stim_listB>",,html-keyboard-response,367,3228898,0.0-19.0-1.0,64292,List2B,black,woman,,,,null,,,,
null,is marrying,,html-keyboard-response,368,3230902,0.0-19.0-2.0,64292,List2B,black,woman,,,,null,,,,
19183,,,survey-text,369,3250100,0.0-19.0-3.0,64292,List2B,black,woman,,,,,"{""Q0"":""Beth and Ruth are marrying.""}","<img src=""stim_listB/marry7.gif""style=""height:400px;""></stim_listB>",is marrying,
null,"<div style=""font-size:60px;"">+</div>",,html-keyboard-response,370,3250604,0.0-19.0-0.1,64292,List2B,black,woman,,,,null,,,,
null,"<img src=""stim_listB/flirt3.gif""style=""height:400px;""></stim_listB>",,html-keyboard-response,371,3252608,0.0-19.0-1.1,64292,List2B,black,woman,,,,null,,,,
null,is flirting with,,html-keyboard-response,372,3254613,0.0-19.0-2.1,64292,List2B,black,woman,,,,null,,,,
17640,,,survey-text,373,3272258,0.0-19.0-3.1,64292,List2B,black,woman,,,,,"{""Q0"":""Fred is Flirting with Kate.""}","<img src=""stim_listB/flirt3.gif""style=""height:400px;""></stim_listB>",is flirting with,
null,"<div style=""font-size:60px;"">+</div>",,html-keyboard-response,374,3272761,0.0-19.0-0.2,64292,List2B,black,woman,,,,null,,,,
null,"<img src=""stim_listB/fight7.gif""style=""height:400px;""></stim_listB>",,html-keyboard-response,375,3274764,0.0-19.0-1.2,64292,List2B,black,woman,,,,null,,,,
null,is fighting,,html-keyboard-response,376,3276769,0.0-19.0-2.2,64292,List2B,black,woman,,,,null,,,,
11873,,,survey-text,377,3288654,0.0-19.0-3.2,64292,List2B,black,woman,,,,,"{""Q0"":""Jane is fighting Kate.""}","<img src=""stim_listB/fight7.gif""style=""height:400px;""></stim_listB>",is fighting,
null,"<div style=""font-size:60px;"">+</div>",,html-keyboard-response,378,3289161,0.0-19.0-0.3,64292,List2B,black,woman,,,,null,,,,
null,"<img src=""stim_listB/marry6.gif""style=""height:400px;""></stim_listB>",,html-keyboard-response,379,3291165,0.0-19.0-1.3,64292,List2B,black,woman,,,,null,,,,
null,are marrying each other,,html-keyboard-response,380,3293169,0.0-19.0-2.3,64292,List2B,black,woman,,,,null,,,,
18248,,,survey-text,381,3311420,0.0-19.0-3.3,64292,List2B,black,woman,,,,,"{""Q0"":""Luke and Mike are marrying each other.""}","<img src=""stim_listB/marry6.gif""style=""height:400px;""></stim_listB>",are marrying each other,
null,"<div style=""font-size:60px;"">+</div>",,html-keyboard-response,382,3311923,0.0-19.0-0.4,64292,List2B,black,woman,,,,null,,,,
null,"<img src=""stim_listB/shout8.gif""style=""height:400px;""></stim_listB>",,html-keyboard-response,383,3313926,0.0-19.0-1.4,64292,List2B,black,woman,,,,null,,,,
null,are shouting at each other,,html-keyboard-response,384,3315929,0.0-19.0-2.4,64292,List2B,black,woman,,,,null,,,,
22324,,,survey-text,385,3338268,0.0-19.0-3.4,64292,List2B,black,woman,,,,,"{""Q0"":""Kate and Jane are shouting at each other.""}","<img src=""stim_listB/shout8.gif""style=""height:400px;""></stim_listB>",are shouting at each other,
null,"<div style=""font-size:60px;"">+</div>",,html-keyboard-response,386,3338773,0.0-19.0-0.5,64292,List2B,black,woman,,,,null,,,,
null,"<img src=""stim_listB/argue3.gif""style=""height:400px;""></stim_listB>",,html-keyboard-response,387,3340779,0.0-19.0-1.5,64292,List2B,black,woman,,,,null,,,,
null,is arguing with,,html-keyboard-response,388,3342784,0.0-19.0-2.5,64292,List2B,black,woman,,,,null,,,,
11821,,,survey-text,389,3354610,0.0-19.0-3.5,64292,List2B,black,woman,,,,,"{""Q0"":""Mike is arguing with Beth.""}","<img src=""stim_listB/argue3.gif""style=""height:400px;""></stim_listB>",is arguing with,
null,"<div style=""font-size:60px;"">+</div>",,html-keyboard-response,390,3355116,0.0-19.0-0.6,64292,List2B,black,woman,,,,null,,,,
null,"<img src=""stim_listB/play5.gif""style=""height:400px;""></stim_listB>",,html-keyboard-response,391,3357121,0.0-19.0-1.6,64292,List2B,black,woman,,,,null,,,,
null,is playing with,,html-keyboard-response,392,3359126,0.0-19.0-2.6,64292,List2B,black,woman,,,,null,,,,
14821,,,survey-text,393,3373952,0.0-19.0-3.6,64292,List2B,black,woman,,,,,"{""Q0"":""Dave is playing with Mike.""}","<img src=""stim_listB/play5.gif""style=""height:400px;""></stim_listB>",is playing with,
null,"<div style=""font-size:60px;"">+</div>",,html-keyboard-response,394,3374456,0.0-19.0-0.7,64292,List2B,black,woman,,,,null,,,,
null,"<img src=""stim_listB/dance6.gif""style=""height:400px;""></stim_listB>",,html-keyboard-response,395,3376460,0.0-19.0-1.7,64292,List2B,black,woman,,,,null,,,,
null,are dancing with each other,,html-keyboard-response,396,3378465,0.0-19.0-2.7,64292,List2B,black,woman,,,,null,,,,
19957,,,survey-text,397,3398427,0.0-19.0-3.7,64292,List2B,black,woman,,,,,"{""Q0"":""Fred and Dave are dancing with each other.""}","<img src=""stim_listB/dance6.gif""style=""height:400px;""></stim_listB>",are dancing with each other,
null,"<div style=""font-size:60px;"">+</div>",,html-keyboard-response,398,3398931,0.0-19.0-0.8,64292,List2B,black,woman,,,,null,,,,
null,"<img src=""stim_listB/marry3.gif""style=""height:400px;""></stim_listB>",,html-keyboard-response,399,3400935,0.0-19.0-1.8,64292,List2B,black,woman,,,,null,,,,
null,is marrying,,html-keyboard-response,400,3402940,0.0-19.0-2.8,64292,List2B,black,woman,,,,null,,,,
17912,,,survey-text,401,3420862,0.0-19.0-3.8,64292,List2B,black,woman,,,,,"{""Q0"":""Mike is marrying Beth.""}","<img src=""stim_listB/marry3.gif""style=""height:400px;""></stim_listB>",is marrying,
null,"<div style=""font-size:60px;"">+</div>",,html-keyboard-response,402,3421367,0.0-19.0-0.9,64292,List2B,black,woman,,,,null,,,,
null,"<img src=""stim_listB/play2.gif""style=""height:400px;""></stim_listB>",,html-keyboard-response,403,3423371,0.0-19.0-1.9,64292,List2B,black,woman,,,,null,,,,
null,are playing with each other,,html-keyboard-response,404,3425376,0.0-19.0-2.9,64292,List2B,black,woman,,,,null,,,,
18570,,,survey-text,405,3443950,0.0-19.0-3.9,64292,List2B,black,woman,,,,,"{""Q0"":""Ruth and Luke are playing with each other.""}","<img src=""stim_listB/play2.gif""style=""height:400px;""></stim_listB>",are playing with each other,
null,"<div style=""font-size:60px;"">+</div>",,html-keyboard-response,406,3444453,0.0-19.0-0.10,64292,List2B,black,woman,,,,null,,,,
null,"<img src=""stim_listB/touch1.gif""style=""height:400px;""></stim_listB>",,html-keyboard-response,407,3446455,0.0-19.0-1.10,64292,List2B,black,woman,,,,null,,,,
null,is touching,,html-keyboard-response,408,3448459,0.0-19.0-2.10,64292,List2B,black,woman,,,,null,,,,
14832,,,survey-text,409,3463301,0.0-19.0-3.10,64292,List2B,black,woman,,,,,"{""Q0"":""Dave is touching Jane.""}","<img src=""stim_listB/touch1.gif""style=""height:400px;""></stim_listB>",is touching,
null,"<div style=""font-size:60px;"">+</div>",,html-keyboard-response,410,3463805,0.0-19.0-0.11,64292,List2B,black,woman,,,,null,,,,
null,"<img src=""stim_listB/fight2.gif""style=""height:400px;""></stim_listB>",,html-keyboard-response,411,3465809,0.0-19.0-1.11,64292,List2B,black,woman,,,,null,,,,
null,are fighting each other,,html-keyboard-response,412,3467814,0.0-19.0-2.11,64292,List2B,black,woman,,,,null,,,,
17751,,,survey-text,413,3485570,0.0-19.0-3.11,64292,List2B,black,woman,,,,,"{""Q0"":""Ruth and Luke are fighting each other.""}","<img src=""stim_listB/fight2.gif""style=""height:400px;""></stim_listB>",are fighting each other,
null,"<div style=""font-size:60px;"">+</div>",,html-keyboard-response,414,3486075,0.0-19.0-0.12,64292,List2B,black,woman,,,,null,,,,
null,"<img src=""stim_listB/shout5.gif""style=""height:400px;""></stim_listB>",,html-keyboard-response,415,3488080,0.0-19.0-1.12,64292,List2B,black,woman,,,,null,,,,
null,is shouting at,,html-keyboard-response,416,3490084,0.0-19.0-2.12,64292,List2B,black,woman,,,,null,,,,
12447,,,survey-text,417,3502540,0.0-19.0-3.12,64292,List2B,black,woman,,,,,"{""Q0"":""Luke is shouting at Fred.""}","<img src=""stim_listB/shout5.gif""style=""height:400px;""></stim_listB>",is shouting at,
null,"<div style=""font-size:60px;"">+</div>",,html-keyboard-response,418,3503044,0.0-19.0-0.13,64292,List2B,black,woman,,,,null,,,,
null,"<img src=""stim_listB/kiss4.gif""style=""height:400px;""></stim_listB>",,html-keyboard-response,419,3505049,0.0-19.0-1.13,64292,List2B,black,woman,,,,null,,,,
null,are kissing each other,,html-keyboard-response,420,3507053,0.0-19.0-2.13,64292,List2B,black,woman,,,,null,,,,
14541,,,survey-text,421,3521598,0.0-19.0-3.13,64292,List2B,black,woman,,,,,"{""Q0"":""Mike and Kate are kissing each other.""}","<img src=""stim_listB/kiss4.gif""style=""height:400px;""></stim_listB>",are kissing each other,
null,"<div style=""font-size:60px;"">+</div>",,html-keyboard-response,422,3522100,0.0-19.0-0.14,64292,List2B,black,woman,,,,null,,,,
null,"<img src=""stim_listB/play6.gif""style=""height:400px;""></stim_listB>",,html-keyboard-response,423,3524104,0.0-19.0-1.14,64292,List2B,black,woman,,,,null,,,,
null,are playing with each other,,html-keyboard-response,424,3526118,0.0-19.0-2.14,64292,List2B,black,woman,,,,null,,,,
17209,,,survey-text,425,3543332,0.0-19.0-3.14,64292,List2B,black,woman,,,,,"{""Q0"":""Luke and Fred are playing with each other.""}","<img src=""stim_listB/play6.gif""style=""height:400px;""></stim_listB>",are playing with each other,
null,"<div style=""font-size:60px;"">+</div>",,html-keyboard-response,426,3543835,0.0-19.0-0.15,64292,List2B,black,woman,,,,null,,,,
null,"<img src=""stim_listB/fight6.gif""style=""height:400px;""></stim_listB>",,html-keyboard-response,427,3545841,0.0-19.0-1.15,64292,List2B,black,woman,,,,null,,,,
null,are fighting each other,,html-keyboard-response,428,3547845,0.0-19.0-2.15,64292,List2B,black,woman,,,,null,,,,
15444,,,survey-text,429,3563301,0.0-19.0-3.15,64292,List2B,black,woman,,,,,"{""Q0"":""Luke and Fred are fighting each other.""}","<img src=""stim_listB/fight6.gif""style=""height:400px;""></stim_listB>",are fighting each other,
null,"<div style=""font-size:60px;"">+</div>",,html-keyboard-response,430,3563805,0.0-19.0-0.16,64292,List2B,black,woman,,,,null,,,,
null,"<img src=""stim_listB/shout1.gif""style=""height:400px;""></stim_listB>",,html-keyboard-response,431,3565810,0.0-19.0-1.16,64292,List2B,black,woman,,,,null,,,,
null,is shouting at,,html-keyboard-response,432,3567814,0.0-19.0-2.16,64292,List2B,black,woman,,,,null,,,,
12162,,,survey-text,433,3579981,0.0-19.0-3.16,64292,List2B,black,woman,,,,,"{""Q0"":""Luke is shouting at Ruth.""}","<img src=""stim_listB/shout1.gif""style=""height:400px;""></stim_listB>",is shouting at,
null,"<div style=""font-size:60px;"">+</div>",,html-keyboard-response,434,3580487,0.0-19.0-0.17,64292,List2B,black,woman,,,,null,,,,
null,"<img src=""stim_listB/marry4.gif""style=""height:400px;""></stim_listB>",,html-keyboard-response,435,3582492,0.0-19.0-1.17,64292,List2B,black,woman,,,,null,,,,
null,are marrying each other,,html-keyboard-response,436,3584497,0.0-19.0-2.17,64292,List2B,black,woman,,,,null,,,,
16700,,,survey-text,437,3601202,0.0-19.0-3.17,64292,List2B,black,woman,,,,,"{""Q0"":""Kate and Fred are marrying each other.""}","<img src=""stim_listB/marry4.gif""style=""height:400px;""></stim_listB>",are marrying each other,
null,"<div style=""font-size:60px;"">+</div>",,html-keyboard-response,438,3601706,0.0-19.0-0.18,64292,List2B,black,woman,,,,null,,,,
null,"<img src=""stim_listB/shout4.gif""style=""height:400px;""></stim_listB>",,html-keyboard-response,439,3603716,0.0-19.0-1.18,64292,List2B,black,woman,,,,null,,,,
null,are shouting at each other,,html-keyboard-response,440,3605721,0.0-19.0-2.18,64292,List2B,black,woman,,,,null,,,,
15946,,,survey-text,441,3621684,0.0-19.0-3.18,64292,List2B,black,woman,,,,,"{""Q0"":""Kate and Mike are shouting at each other.""}","<img src=""stim_listB/shout4.gif""style=""height:400px;""></stim_listB>",are shouting at each other,
null,"<div style=""font-size:60px;"">+</div>",,html-keyboard-response,442,3622193,0.0-19.0-0.19,64292,List2B,black,woman,,,,null,,,,
null,"<img src=""stim_listB/flirt6.gif""style=""height:400px;""></stim_listB>",,html-keyboard-response,443,3624200,0.0-19.0-1.19,64292,List2B,black,woman,,,,null,,,,
null,are flirting with each other,,html-keyboard-response,444,3626205,0.0-19.0-2.19,64292,List2B,black,woman,,,,null,,,,
18152,,,survey-text,445,3644361,0.0-19.0-3.19,64292,List2B,black,woman,,,,,"{""Q0"":""Dave and Fred are flirting with each other.""}","<img src=""stim_listB/flirt6.gif""style=""height:400px;""></stim_listB>",are flirting with each other,
5845,<p>Thank you for completing that task.</p><p>The final part of this session is a short questionnaire.</p><p>Press Continue.</p>,0,html-button-response,446,3650211,0.0-20.0,64292,List2B,black,woman,,,,,,,,
48398,,,survey-text,447,3699618,0.0-21.0,64292,List2B,black,woman,,,,,"{""Q0"":""48"",""Q1"":""English "",""Q2"":""English "",""Q3"":""United Kingdom"",""Q4"":""Caribbean"",""Q5"":""Female""}",,,demographics
25043,,,survey-likert,448,3724680,0.0-22.0,64292,List2B,black,woman,,,,,"{""Q0"":4}",,,likert_ESS
23755,,,survey-likert,449,3748443,0.0-23.0,64292,List2B,black,woman,,,,,"{""Q0"":5}",,,likert_NSSAL_Q1
7891,,,survey-likert,450,3756344,0.0-24.0,64292,List2B,black,woman,,,,,"{""Q0"":5}",,,likert_NSSAL_Q2
8006,,,survey-likert,451,3764357,0.0-25.0,64292,List2B,black,woman,,,,,"{""Q0"":4}",,,likert_CGRS_Q1
5795,,,survey-likert,452,3770160,0.0-26.0,64292,List2B,black,woman,,,,,"{""Q0"":4}",,,likert_CGRS_Q2
4650,,,survey-likert,453,3774820,0.0-27.0,64292,List2B,black,woman,,,,,"{""Q0"":4}",,,likert_CGRS_Q3
23310,,,survey-text,454,3798140,0.0-28.0,64292,List2B,black,woman,,,,,"{""Q0"":""ccc""}",,,worker_id
5157,,,external-html,455,3803545,0.0-29.0,64292,List2B,black,woman,debrief.html,,,,,,,
