rt,stimulus,button_pressed,trial_type,trial_index,time_elapsed,internal_node_id,subject,list,ppt_race,ppt_gender,url,first_guess,correct,key_press,responses,image_type,phrase_type,test_part
1990,Welcome to the experiment. Press Continue to begin.,0,html-button-response,0,1992,0.0-0.0,6437,List1B,white,man,,,,,,,,
23613,,,external-html,1,26658,0.0-1.0,6437,List1B,white,man,consent.html,,,,,,,
14373,"<p>On the next page, you will see portraits of 8 people and their names.</p><p>Your first task is to take a few minutes to memorise the names of these people.</p><p>You will have to recall their names during the rest of the experiment, so it is</p><p>essential that you try to memorise these people and their names as best as you can.</p><br><p><strong>You will then be tested on your memory of these names and portraits.</strong></p><br><p>The experiment will start after you have completed this memory test.</p><br><p>Ready?</p>",0,html-button-response,2,41032,0.0-2.0,6437,List1B,white,man,,,,,,,,
84286,"<img src='img/portrait_matrix_list1.jpg' style='width:900px;height:500px;''></img><p>If you have memorised all the portraits and names and are ready to start, press Continue.</p><p><strong>Please note: Your memory of these faces will be tested 4 times during this experiment.</strong></p>",0,html-button-response,3,126323,0.0-3.0-0.0,6437,List1B,white,man,,,,,,,,
7187,"<img src=""portrait/WM1.jpg""style=""height:400px;""></img>",6,html-button-response,4,134513,0.0-3.0-1.0,6437,List1B,white,man,,TRUE,6,,,,,
null,CORRECT,,html-keyboard-response,5,136021,0.0-3.0-2.0-0.0,6437,List1B,white,man,,,,null,,,,
2034,"<img src=""portrait/WM2.jpg""style=""height:400px;""></img>",7,html-button-response,6,138056,0.0-3.0-4.0,6437,List1B,white,man,,TRUE,7,,,,,
null,CORRECT,,html-keyboard-response,7,139558,0.0-3.0-5.0-0.0,6437,List1B,white,man,,,,null,,,,
6771,"<img src=""portrait/BW2.jpg""style=""height:400px;""></img>",2,html-button-response,8,146330,0.0-3.0-7.0,6437,List1B,white,man,,TRUE,2,,,,,
null,CORRECT,,html-keyboard-response,9,147842,0.0-3.0-8.0-0.0,6437,List1B,white,man,,,,null,,,,
4698,"<img src=""portrait/BM1.jpg""style=""height:400px;""></img>",4,html-button-response,10,152542,0.0-3.0-10.0,6437,List1B,white,man,,TRUE,4,,,,,
null,CORRECT,,html-keyboard-response,11,154052,0.0-3.0-11.0-0.0,6437,List1B,white,man,,,,null,,,,
10761,"<img src=""portrait/WW2.jpg""style=""height:400px;""></img>",3,html-button-response,12,164815,0.0-3.0-13.0,6437,List1B,white,man,,TRUE,3,,,,,
null,CORRECT,,html-keyboard-response,13,166323,0.0-3.0-14.0-0.0,6437,List1B,white,man,,,,null,,,,
3220,"<img src=""portrait/BM2.jpg""style=""height:400px;""></img>",5,html-button-response,14,169545,0.0-3.0-16.0,6437,List1B,white,man,,TRUE,5,,,,,
null,CORRECT,,html-keyboard-response,15,171050,0.0-3.0-17.0-0.0,6437,List1B,white,man,,,,null,,,,
2671,"<img src=""portrait/WW1.jpg""style=""height:400px;""></img>",1,html-button-response,16,173721,0.0-3.0-19.0,6437,List1B,white,man,,TRUE,1,,,,,
null,CORRECT,,html-keyboard-response,17,175229,0.0-3.0-20.0-0.0,6437,List1B,white,man,,,,null,,,,
4749,"<img src=""portrait/BW1.jpg""style=""height:400px;""></img>",0,html-button-response,18,179979,0.0-3.0-22.0,6437,List1B,white,man,,TRUE,0,,,,,
null,CORRECT,,html-keyboard-response,19,181487,0.0-3.0-23.0-0.0,6437,List1B,white,man,,,,null,,,,
1280,<p>You got 8 out of 8 right first time. Press Continue.</p>,0,html-button-response,20,182768,0.0-3.0-25.0,6437,List1B,white,man,,,,,,,,
14545,"<p>In this experiment, you will view photographs of the people from the memory game interacting.</p><p>By using the <strong>exact</strong> phrase given <i>after</i> the photograph appears and recalling the correct names of the people in the photographs, form a sentence describing the interaction. You do not need to capitalise names.</p><p>Type your answer in the space provided. Please complete every sentence before moving onto the next trial.</p><p>You will only have a few seconds to memorise each given photograph and phrase before you can respond, so try your best to focus.</p><p>An example is given below. Press 'Continue' when you are ready.</p><img src='img/speaking_example.jpg' style='width:800px;height:460px;''></img>",0,html-button-response,21,198320,0.0-4.0,6437,List1B,white,man,,,,,,,,
1131,"<p>Before the experiment starts, you will watch two example trials. Press 'Continue'.</p>",0,html-button-response,22,200456,0.0-5.0,6437,List1B,white,man,,,,,,,,
null,<img src='img/meet_eg.gif' style='height:400px;''></img>,,html-keyboard-response,23,203465,0.0-6.0,6437,List1B,white,man,,,,null,,,,
null,<p>is meeting</p>,,html-keyboard-response,24,205467,0.0-7.0,6437,List1B,white,man,,,,null,,,,
1171,<p><b>Answer:</b> kate is meeting beth</p>,0,html-button-response,25,206640,0.0-8.0,6437,List1B,white,man,,,,,,,,
null,<img src='img/look_eg.gif' style='height:400px;''></img>,,html-keyboard-response,26,209645,0.0-9.0,6437,List1B,white,man,,,,null,,,,
null,<p>are looking at each other</p>,,html-keyboard-response,27,211648,0.0-10.0,6437,List1B,white,man,,,,null,,,,
1135,<p><b>Answer:</b> luke and dave are looking at each other</p>,0,html-button-response,28,212784,0.0-11.0,6437,List1B,white,man,,,,,,,,
5927,"<p>Ready to start the experiment?</p><br><p><strong>Remember to describe the picture using a full sentence,</strong></p><p><strong>that combines the names of the people with the <i>exact</i> phrase given.</strong></p><p><strong>To receive full payment you must do this correctly.</strong></p><p><strong> You do not need to capitalise names or use punctuation.</strong></p><br><p>Press 'Continue' to begin.</p>",0,html-button-response,29,219716,0.0-12.0,6437,List1B,white,man,,,,,,,,
null,"<div style=""font-size:60px;"">+</div>",,html-keyboard-response,30,221218,0.0-13.0-0.0,6437,List1B,white,man,,,,null,,,,
null,"<img src=""stim_listB/fight7.gif""style=""height:400px;""></stim_listB>",,html-keyboard-response,31,223220,0.0-13.0-1.0,6437,List1B,white,man,,,,null,,,,
null,is fighting,,html-keyboard-response,32,225223,0.0-13.0-2.0,6437,List1B,white,man,,,,null,,,,
20833,,,survey-text,33,246057,0.0-13.0-3.0,6437,List1B,white,man,,,,,"{""Q0"":""Kate and jane are fighting""}","<img src=""stim_listB/fight7.gif""style=""height:400px;""></stim_listB>",is fighting,
null,"<div style=""font-size:60px;"">+</div>",,html-keyboard-response,34,246561,0.0-13.0-0.1,6437,List1B,white,man,,,,null,,,,
null,"<img src=""stim_listB/dance7.gif""style=""height:400px;""></stim_listB>",,html-keyboard-response,35,248562,0.0-13.0-1.1,6437,List1B,white,man,,,,null,,,,
null,is dancing with,,html-keyboard-response,36,250568,0.0-13.0-2.1,6437,List1B,white,man,,,,null,,,,
10786,,,survey-text,37,261355,0.0-13.0-3.1,6437,List1B,white,man,,,,,"{""Q0"":""Ruth is dancing with beth""}","<img src=""stim_listB/dance7.gif""style=""height:400px;""></stim_listB>",is dancing with,
null,"<div style=""font-size:60px;"">+</div>",,html-keyboard-response,38,261859,0.0-13.0-0.2,6437,List1B,white,man,,,,null,,,,
null,"<img src=""stim_listB/touch7.gif""style=""height:400px;""></stim_listB>",,html-keyboard-response,39,263862,0.0-13.0-1.2,6437,List1B,white,man,,,,null,,,,
null,is touching,,html-keyboard-response,40,265863,0.0-13.0-2.2,6437,List1B,white,man,,,,null,,,,
3707,,,survey-text,41,269571,0.0-13.0-3.2,6437,List1B,white,man,,,,,"{""Q0"":""Ruth is touching kate""}","<img src=""stim_listB/touch7.gif""style=""height:400px;""></stim_listB>",is touching,
null,"<div style=""font-size:60px;"">+</div>",,html-keyboard-response,42,270077,0.0-13.0-0.3,6437,List1B,white,man,,,,null,,,,
null,"<img src=""stim_listB/touch6.gif""style=""height:400px;""></stim_listB>",,html-keyboard-response,43,272078,0.0-13.0-1.3,6437,List1B,white,man,,,,null,,,,
null,are touching each other,,html-keyboard-response,44,274084,0.0-13.0-2.3,6437,List1B,white,man,,,,null,,,,
8670,,,survey-text,45,282755,0.0-13.0-3.3,6437,List1B,white,man,,,,,"{""Q0"":""Fred and luke are touching each other""}","<img src=""stim_listB/touch6.gif""style=""height:400px;""></stim_listB>",are touching each other,
null,"<div style=""font-size:60px;"">+</div>",,html-keyboard-response,46,283260,0.0-13.0-0.4,6437,List1B,white,man,,,,null,,,,
null,"<img src=""stim_listB/kiss4.gif""style=""height:400px;""></stim_listB>",,html-keyboard-response,47,285262,0.0-13.0-1.4,6437,List1B,white,man,,,,null,,,,
null,are kissing each other,,html-keyboard-response,48,287265,0.0-13.0-2.4,6437,List1B,white,man,,,,null,,,,
10884,,,survey-text,49,298151,0.0-13.0-3.4,6437,List1B,white,man,,,,,"{""Q0"":""Mike and jane are kissing each other""}","<img src=""stim_listB/kiss4.gif""style=""height:400px;""></stim_listB>",are kissing each other,
null,"<div style=""font-size:60px;"">+</div>",,html-keyboard-response,50,298653,0.0-13.0-0.5,6437,List1B,white,man,,,,null,,,,
null,"<img src=""stim_listB/touch1.gif""style=""height:400px;""></stim_listB>",,html-keyboard-response,51,300654,0.0-13.0-1.5,6437,List1B,white,man,,,,null,,,,
null,is touching,,html-keyboard-response,52,302655,0.0-13.0-2.5,6437,List1B,white,man,,,,null,,,,
4926,,,survey-text,53,307583,0.0-13.0-3.5,6437,List1B,white,man,,,,,"{""Q0"":""Mike is touching jane""}","<img src=""stim_listB/touch1.gif""style=""height:400px;""></stim_listB>",is touching,
null,"<div style=""font-size:60px;"">+</div>",,html-keyboard-response,54,308084,0.0-13.0-0.6,6437,List1B,white,man,,,,null,,,,
null,"<img src=""stim_listB/argue3.gif""style=""height:400px;""></stim_listB>",,html-keyboard-response,55,310086,0.0-13.0-1.6,6437,List1B,white,man,,,,null,,,,
null,is arguing with,,html-keyboard-response,56,312090,0.0-13.0-2.6,6437,List1B,white,man,,,,null,,,,
8231,,,survey-text,57,320321,0.0-13.0-3.6,6437,List1B,white,man,,,,,"{""Q0"":""RUth is arguing with dave""}","<img src=""stim_listB/argue3.gif""style=""height:400px;""></stim_listB>",is arguing with,
null,"<div style=""font-size:60px;"">+</div>",,html-keyboard-response,58,320823,0.0-13.0-0.7,6437,List1B,white,man,,,,null,,,,
null,"<img src=""stim_listB/kiss6.gif""style=""height:400px;""></stim_listB>",,html-keyboard-response,59,322826,0.0-13.0-1.7,6437,List1B,white,man,,,,null,,,,
null,are kissing each other,,html-keyboard-response,60,324827,0.0-13.0-2.7,6437,List1B,white,man,,,,null,,,,
7705,,,survey-text,61,332534,0.0-13.0-3.7,6437,List1B,white,man,,,,,"{""Q0"":""Mike and Dave are kissing each other""}","<img src=""stim_listB/kiss6.gif""style=""height:400px;""></stim_listB>",are kissing each other,
null,"<div style=""font-size:60px;"">+</div>",,html-keyboard-response,62,333036,0.0-13.0-0.8,6437,List1B,white,man,,,,null,,,,
null,"<img src=""stim_listB/flirt5.gif""style=""height:400px;""></stim_listB>",,html-keyboard-response,63,335038,0.0-13.0-1.8,6437,List1B,white,man,,,,null,,,,
null,is flirting with,,html-keyboard-response,64,337040,0.0-13.0-2.8,6437,List1B,white,man,,,,null,,,,
4621,,,survey-text,65,341663,0.0-13.0-3.8,6437,List1B,white,man,,,,,"{""Q0"":""Fred is flirting with dave""}","<img src=""stim_listB/flirt5.gif""style=""height:400px;""></stim_listB>",is flirting with,
null,"<div style=""font-size:60px;"">+</div>",,html-keyboard-response,66,342172,0.0-13.0-0.9,6437,List1B,white,man,,,,null,,,,
null,"<img src=""stim_listB/play2.gif""style=""height:400px;""></stim_listB>",,html-keyboard-response,67,344175,0.0-13.0-1.9,6437,List1B,white,man,,,,null,,,,
null,are playing with each other,,html-keyboard-response,68,346179,0.0-13.0-2.9,6437,List1B,white,man,,,,null,,,,
35512,,,survey-text,69,381692,0.0-13.0-3.9,6437,List1B,white,man,,,,,"{""Q0"":""Fred and beth are playing with each other""}","<img src=""stim_listB/play2.gif""style=""height:400px;""></stim_listB>",are playing with each other,
null,"<div style=""font-size:60px;"">+</div>",,html-keyboard-response,70,382194,0.0-13.0-0.10,6437,List1B,white,man,,,,null,,,,
null,"<img src=""stim_listB/fight3.gif""style=""height:400px;""></stim_listB>",,html-keyboard-response,71,384197,0.0-13.0-1.10,6437,List1B,white,man,,,,null,,,,
null,is fighting,,html-keyboard-response,72,386198,0.0-13.0-2.10,6437,List1B,white,man,,,,null,,,,
6334,,,survey-text,73,392532,0.0-13.0-3.10,6437,List1B,white,man,,,,,"{""Q0"":""Jane is fighting dave""}","<img src=""stim_listB/fight3.gif""style=""height:400px;""></stim_listB>",is fighting,
null,"<div style=""font-size:60px;"">+</div>",,html-keyboard-response,74,393034,0.0-13.0-0.11,6437,List1B,white,man,,,,null,,,,
null,"<img src=""stim_listB/argue4.gif""style=""height:400px;""></stim_listB>",,html-keyboard-response,75,395035,0.0-13.0-1.11,6437,List1B,white,man,,,,null,,,,
null,are arguing with each other,,html-keyboard-response,76,397037,0.0-13.0-2.11,6437,List1B,white,man,,,,null,,,,
10261,,,survey-text,77,407300,0.0-13.0-3.11,6437,List1B,white,man,,,,,"{""Q0"":""Mike and jane are arguing with each other""}","<img src=""stim_listB/argue4.gif""style=""height:400px;""></stim_listB>",are arguing with each other,
null,"<div style=""font-size:60px;"">+</div>",,html-keyboard-response,78,407806,0.0-13.0-0.12,6437,List1B,white,man,,,,null,,,,
null,"<img src=""stim_listB/flirt8.gif""style=""height:400px;""></stim_listB>",,html-keyboard-response,79,409808,0.0-13.0-1.12,6437,List1B,white,man,,,,null,,,,
null,are flirting with each other,,html-keyboard-response,80,411809,0.0-13.0-2.12,6437,List1B,white,man,,,,null,,,,
8122,,,survey-text,81,419932,0.0-13.0-3.12,6437,List1B,white,man,,,,,"{""Q0"":""Kate and jane are flirting with each other""}","<img src=""stim_listB/flirt8.gif""style=""height:400px;""></stim_listB>",are flirting with each other,
null,"<div style=""font-size:60px;"">+</div>",,html-keyboard-response,82,420438,0.0-13.0-0.13,6437,List1B,white,man,,,,null,,,,
null,"<img src=""stim_listB/flirt6.gif""style=""height:400px;""></stim_listB>",,html-keyboard-response,83,422439,0.0-13.0-1.13,6437,List1B,white,man,,,,null,,,,
null,are flirting with each other,,html-keyboard-response,84,424442,0.0-13.0-2.13,6437,List1B,white,man,,,,null,,,,
6604,,,survey-text,85,431047,0.0-13.0-3.13,6437,List1B,white,man,,,,,"{""Q0"":""Luke and mike are flirting with each other""}","<img src=""stim_listB/flirt6.gif""style=""height:400px;""></stim_listB>",are flirting with each other,
null,"<div style=""font-size:60px;"">+</div>",,html-keyboard-response,86,431549,0.0-13.0-0.14,6437,List1B,white,man,,,,null,,,,
null,"<img src=""stim_listB/argue6.gif""style=""height:400px;""></stim_listB>",,html-keyboard-response,87,433550,0.0-13.0-1.14,6437,List1B,white,man,,,,null,,,,
null,are arguing with each other,,html-keyboard-response,88,435551,0.0-13.0-2.14,6437,List1B,white,man,,,,null,,,,
7251,,,survey-text,89,442804,0.0-13.0-3.14,6437,List1B,white,man,,,,,"{""Q0"":""Dave and fred are arguing with each other""}","<img src=""stim_listB/argue6.gif""style=""height:400px;""></stim_listB>",are arguing with each other,
null,"<div style=""font-size:60px;"">+</div>",,html-keyboard-response,90,443306,0.0-13.0-0.15,6437,List1B,white,man,,,,null,,,,
null,"<img src=""stim_listB/talk8.gif""style=""height:400px;""></stim_listB>",,html-keyboard-response,91,445308,0.0-13.0-1.15,6437,List1B,white,man,,,,null,,,,
null,are talking to each other,,html-keyboard-response,92,447311,0.0-13.0-2.15,6437,List1B,white,man,,,,null,,,,
5810,,,survey-text,93,453121,0.0-13.0-3.15,6437,List1B,white,man,,,,,"{""Q0"":""Jane and kate are talking to each other""}","<img src=""stim_listB/talk8.gif""style=""height:400px;""></stim_listB>",are talking to each other,
null,"<div style=""font-size:60px;"">+</div>",,html-keyboard-response,94,453624,0.0-13.0-0.16,6437,List1B,white,man,,,,null,,,,
null,"<img src=""stim_listB/kiss3.gif""style=""height:400px;""></stim_listB>",,html-keyboard-response,95,455625,0.0-13.0-1.16,6437,List1B,white,man,,,,null,,,,
null,is kissing,,html-keyboard-response,96,457626,0.0-13.0-2.16,6437,List1B,white,man,,,,null,,,,
3648,,,survey-text,97,461275,0.0-13.0-3.16,6437,List1B,white,man,,,,,"{""Q0"":""Jane is kissing mike""}","<img src=""stim_listB/kiss3.gif""style=""height:400px;""></stim_listB>",is kissing,
null,"<div style=""font-size:60px;"">+</div>",,html-keyboard-response,98,461778,0.0-13.0-0.17,6437,List1B,white,man,,,,null,,,,
null,"<img src=""stim_listB/fight8.gif""style=""height:400px;""></stim_listB>",,html-keyboard-response,99,463780,0.0-13.0-1.17,6437,List1B,white,man,,,,null,,,,
null,are fighting each other,,html-keyboard-response,100,465783,0.0-13.0-2.17,6437,List1B,white,man,,,,null,,,,
5650,,,survey-text,101,471434,0.0-13.0-3.17,6437,List1B,white,man,,,,,"{""Q0"":""Beth and jane are fighting each other""}","<img src=""stim_listB/fight8.gif""style=""height:400px;""></stim_listB>",are fighting each other,
null,"<div style=""font-size:60px;"">+</div>",,html-keyboard-response,102,471939,0.0-13.0-0.18,6437,List1B,white,man,,,,null,,,,
null,"<img src=""stim_listB/dance6.gif""style=""height:400px;""></stim_listB>",,html-keyboard-response,103,473940,0.0-13.0-1.18,6437,List1B,white,man,,,,null,,,,
null,are dancing with each other,,html-keyboard-response,104,475942,0.0-13.0-2.18,6437,List1B,white,man,,,,null,,,,
7375,,,survey-text,105,483318,0.0-13.0-3.18,6437,List1B,white,man,,,,,"{""Q0"":""Mike and luke are dancing with each other""}","<img src=""stim_listB/dance6.gif""style=""height:400px;""></stim_listB>",are dancing with each other,
null,"<div style=""font-size:60px;"">+</div>",,html-keyboard-response,106,483820,0.0-13.0-0.19,6437,List1B,white,man,,,,null,,,,
null,"<img src=""stim_listB/dance2.gif""style=""height:400px;""></stim_listB>",,html-keyboard-response,107,485821,0.0-13.0-1.19,6437,List1B,white,man,,,,null,,,,
null,are dancing with each other,,html-keyboard-response,108,487823,0.0-13.0-2.19,6437,List1B,white,man,,,,null,,,,
6185,,,survey-text,109,494009,0.0-13.0-3.19,6437,List1B,white,man,,,,,"{""Q0"":""Mike and beth are dancing with each other""}","<img src=""stim_listB/dance2.gif""style=""height:400px;""></stim_listB>",are dancing with each other,
15285,"<img src='img/portrait_matrix_list1.jpg' style='width:900px;height:500px;''></img><p>If you have memorised all the portraits and names and are ready to start, press Continue.</p><p><strong>Please note: Your memory of these faces will be tested 4 times during this experiment.</strong></p>",0,html-button-response,110,509295,0.0-14.0-0.0,6437,List1B,white,man,,,,,,,,
3296,"<img src=""portrait/BW2.jpg""style=""height:400px;""></img>",2,html-button-response,111,513594,0.0-14.0-1.0,6437,List1B,white,man,,TRUE,2,,,,,
null,CORRECT,,html-keyboard-response,112,515098,0.0-14.0-2.0-0.0,6437,List1B,white,man,,,,null,,,,
5013,"<img src=""portrait/WW2.jpg""style=""height:400px;""></img>",3,html-button-response,113,520113,0.0-14.0-4.0,6437,List1B,white,man,,TRUE,3,,,,,
null,CORRECT,,html-keyboard-response,114,521617,0.0-14.0-5.0-0.0,6437,List1B,white,man,,,,null,,,,
2091,"<img src=""portrait/BM2.jpg""style=""height:400px;""></img>",5,html-button-response,115,523710,0.0-14.0-7.0,6437,List1B,white,man,,TRUE,5,,,,,
null,CORRECT,,html-keyboard-response,116,525217,0.0-14.0-8.0-0.0,6437,List1B,white,man,,,,null,,,,
3098,"<img src=""portrait/BW1.jpg""style=""height:400px;""></img>",0,html-button-response,117,528315,0.0-14.0-10.0,6437,List1B,white,man,,TRUE,0,,,,,
null,CORRECT,,html-keyboard-response,118,529820,0.0-14.0-11.0-0.0,6437,List1B,white,man,,,,null,,,,
1033,"<img src=""portrait/WW1.jpg""style=""height:400px;""></img>",1,html-button-response,119,530855,0.0-14.0-13.0,6437,List1B,white,man,,TRUE,1,,,,,
null,CORRECT,,html-keyboard-response,120,532363,0.0-14.0-14.0-0.0,6437,List1B,white,man,,,,null,,,,
1165,"<img src=""portrait/WM2.jpg""style=""height:400px;""></img>",7,html-button-response,121,533528,0.0-14.0-16.0,6437,List1B,white,man,,TRUE,7,,,,,
null,CORRECT,,html-keyboard-response,122,535030,0.0-14.0-17.0-0.0,6437,List1B,white,man,,,,null,,,,
2017,"<img src=""portrait/WM1.jpg""style=""height:400px;""></img>",6,html-button-response,123,537049,0.0-14.0-19.0,6437,List1B,white,man,,TRUE,6,,,,,
null,CORRECT,,html-keyboard-response,124,538558,0.0-14.0-20.0-0.0,6437,List1B,white,man,,,,null,,,,
1532,"<img src=""portrait/BM1.jpg""style=""height:400px;""></img>",4,html-button-response,125,540090,0.0-14.0-22.0,6437,List1B,white,man,,TRUE,4,,,,,
null,CORRECT,,html-keyboard-response,126,541601,0.0-14.0-23.0-0.0,6437,List1B,white,man,,,,null,,,,
1318,<p>You got 8 out of 8 right first time. Press Continue.</p>,0,html-button-response,127,542919,0.0-14.0-25.0,6437,List1B,white,man,,,,,,,,
null,"<div style=""font-size:60px;"">+</div>",,html-keyboard-response,128,544426,0.0-15.0-0.0,6437,List1B,white,man,,,,null,,,,
null,"<img src=""stim_listB/kiss8.gif""style=""height:400px;""></stim_listB>",,html-keyboard-response,129,546428,0.0-15.0-1.0,6437,List1B,white,man,,,,null,,,,
null,are kissing each other,,html-keyboard-response,130,548431,0.0-15.0-2.0,6437,List1B,white,man,,,,null,,,,
7486,,,survey-text,131,555917,0.0-15.0-3.0,6437,List1B,white,man,,,,,"{""Q0"":""Jane and kate are kissing each other""}","<img src=""stim_listB/kiss8.gif""style=""height:400px;""></stim_listB>",are kissing each other,
null,"<div style=""font-size:60px;"">+</div>",,html-keyboard-response,132,556419,0.0-15.0-0.1,6437,List1B,white,man,,,,null,,,,
null,"<img src=""stim_listB/fight6.gif""style=""height:400px;""></stim_listB>",,html-keyboard-response,133,558422,0.0-15.0-1.1,6437,List1B,white,man,,,,null,,,,
null,are fighting each other,,html-keyboard-response,134,560423,0.0-15.0-2.1,6437,List1B,white,man,,,,null,,,,
6311,,,survey-text,135,566736,0.0-15.0-3.1,6437,List1B,white,man,,,,,"{""Q0"":""Fred and mike are fighting each other""}","<img src=""stim_listB/fight6.gif""style=""height:400px;""></stim_listB>",are fighting each other,
null,"<div style=""font-size:60px;"">+</div>",,html-keyboard-response,136,567237,0.0-15.0-0.2,6437,List1B,white,man,,,,null,,,,
null,"<img src=""stim_listB/fight4.gif""style=""height:400px;""></stim_listB>",,html-keyboard-response,137,569239,0.0-15.0-1.2,6437,List1B,white,man,,,,null,,,,
null,are fighting each other,,html-keyboard-response,138,571240,0.0-15.0-2.2,6437,List1B,white,man,,,,null,,,,
6431,,,survey-text,139,577672,0.0-15.0-3.2,6437,List1B,white,man,,,,,"{""Q0"":""Mike and ruth are fighting each other""}","<img src=""stim_listB/fight4.gif""style=""height:400px;""></stim_listB>",are fighting each other,
null,"<div style=""font-size:60px;"">+</div>",,html-keyboard-response,140,578177,0.0-15.0-0.3,6437,List1B,white,man,,,,null,,,,
null,"<img src=""stim_listB/play6.gif""style=""height:400px;""></stim_listB>",,html-keyboard-response,141,580179,0.0-15.0-1.3,6437,List1B,white,man,,,,null,,,,
null,are playing with each other,,html-keyboard-response,142,582180,0.0-15.0-2.3,6437,List1B,white,man,,,,null,,,,
6649,,,survey-text,143,588831,0.0-15.0-3.3,6437,List1B,white,man,,,,,"{""Q0"":""Fred and luke are playing with each other""}","<img src=""stim_listB/play6.gif""style=""height:400px;""></stim_listB>",are playing with each other,
null,"<div style=""font-size:60px;"">+</div>",,html-keyboard-response,144,589333,0.0-15.0-0.4,6437,List1B,white,man,,,,null,,,,
null,"<img src=""stim_listB/touch2.gif""style=""height:400px;""></stim_listB>",,html-keyboard-response,145,591337,0.0-15.0-1.4,6437,List1B,white,man,,,,null,,,,
null,are touching each other,,html-keyboard-response,146,593338,0.0-15.0-2.4,6437,List1B,white,man,,,,null,,,,
4903,,,survey-text,147,598243,0.0-15.0-3.4,6437,List1B,white,man,,,,,"{""Q0"":""Fred and beth are touching each other""}","<img src=""stim_listB/touch2.gif""style=""height:400px;""></stim_listB>",are touching each other,
null,"<div style=""font-size:60px;"">+</div>",,html-keyboard-response,148,598746,0.0-15.0-0.5,6437,List1B,white,man,,,,null,,,,
null,"<img src=""stim_listB/shout6.gif""style=""height:400px;""></stim_listB>",,html-keyboard-response,149,600748,0.0-15.0-1.5,6437,List1B,white,man,,,,null,,,,
null,are shouting at each other,,html-keyboard-response,150,602750,0.0-15.0-2.5,6437,List1B,white,man,,,,null,,,,
8782,,,survey-text,151,611533,0.0-15.0-3.5,6437,List1B,white,man,,,,,"{""Q0"":""Mike and dave are shouting at each other""}","<img src=""stim_listB/shout6.gif""style=""height:400px;""></stim_listB>",are shouting at each other,
null,"<div style=""font-size:60px;"">+</div>",,html-keyboard-response,152,612035,0.0-15.0-0.6,6437,List1B,white,man,,,,null,,,,
null,"<img src=""stim_listB/argue8.gif""style=""height:400px;""></stim_listB>",,html-keyboard-response,153,614037,0.0-15.0-1.6,6437,List1B,white,man,,,,null,,,,
null,are arguing with each other,,html-keyboard-response,154,616039,0.0-15.0-2.6,6437,List1B,white,man,,,,null,,,,
9308,,,survey-text,155,625347,0.0-15.0-3.6,6437,List1B,white,man,,,,,"{""Q0"":""Beth and ruth are arguing with each other""}","<img src=""stim_listB/argue8.gif""style=""height:400px;""></stim_listB>",are arguing with each other,
null,"<div style=""font-size:60px;"">+</div>",,html-keyboard-response,156,625853,0.0-15.0-0.7,6437,List1B,white,man,,,,null,,,,
null,"<img src=""stim_listB/dance8.gif""style=""height:400px;""></stim_listB>",,html-keyboard-response,157,627858,0.0-15.0-1.7,6437,List1B,white,man,,,,null,,,,
null,are dancing with each other,,html-keyboard-response,158,629859,0.0-15.0-2.7,6437,List1B,white,man,,,,null,,,,
5202,,,survey-text,159,635062,0.0-15.0-3.7,6437,List1B,white,man,,,,,"{""Q0"":""Kate and ruth are dancing with each other""}","<img src=""stim_listB/dance8.gif""style=""height:400px;""></stim_listB>",are dancing with each other,
null,"<div style=""font-size:60px;"">+</div>",,html-keyboard-response,160,635568,0.0-15.0-0.8,6437,List1B,white,man,,,,null,,,,
null,"<img src=""stim_listB/flirt3.gif""style=""height:400px;""></stim_listB>",,html-keyboard-response,161,637574,0.0-15.0-1.8,6437,List1B,white,man,,,,null,,,,
null,is flirting with,,html-keyboard-response,162,639575,0.0-15.0-2.8,6437,List1B,white,man,,,,null,,,,
4350,,,survey-text,163,643926,0.0-15.0-3.8,6437,List1B,white,man,,,,,"{""Q0"":""Jane is flirting with luke""}","<img src=""stim_listB/flirt3.gif""style=""height:400px;""></stim_listB>",is flirting with,
null,"<div style=""font-size:60px;"">+</div>",,html-keyboard-response,164,644427,0.0-15.0-0.9,6437,List1B,white,man,,,,null,,,,
null,"<img src=""stim_listB/shout1.gif""style=""height:400px;""></stim_listB>",,html-keyboard-response,165,646429,0.0-15.0-1.9,6437,List1B,white,man,,,,null,,,,
null,is shouting at,,html-keyboard-response,166,648431,0.0-15.0-2.9,6437,List1B,white,man,,,,null,,,,
4145,,,survey-text,167,652576,0.0-15.0-3.9,6437,List1B,white,man,,,,,"{""Q0"":""Beth is shouting at dave""}","<img src=""stim_listB/shout1.gif""style=""height:400px;""></stim_listB>",is shouting at,
null,"<div style=""font-size:60px;"">+</div>",,html-keyboard-response,168,653081,0.0-15.0-0.10,6437,List1B,white,man,,,,null,,,,
null,"<img src=""stim_listB/talk4.gif""style=""height:400px;""></stim_listB>",,html-keyboard-response,169,655084,0.0-15.0-1.10,6437,List1B,white,man,,,,null,,,,
null,are talking to each other,,html-keyboard-response,170,657086,0.0-15.0-2.10,6437,List1B,white,man,,,,null,,,,
5278,,,survey-text,171,662365,0.0-15.0-3.10,6437,List1B,white,man,,,,,"{""Q0"":""Ruth and dave are talking to each other""}","<img src=""stim_listB/talk4.gif""style=""height:400px;""></stim_listB>",are talking to each other,
null,"<div style=""font-size:60px;"">+</div>",,html-keyboard-response,172,662868,0.0-15.0-0.11,6437,List1B,white,man,,,,null,,,,
null,"<img src=""stim_listB/talk3.gif""style=""height:400px;""></stim_listB>",,html-keyboard-response,173,664872,0.0-15.0-1.11,6437,List1B,white,man,,,,null,,,,
null,is talking to,,html-keyboard-response,174,666872,0.0-15.0-2.11,6437,List1B,white,man,,,,null,,,,
3428,,,survey-text,175,670301,0.0-15.0-3.11,6437,List1B,white,man,,,,,"{""Q0"":""jane is talking to luke""}","<img src=""stim_listB/talk3.gif""style=""height:400px;""></stim_listB>",is talking to,
null,"<div style=""font-size:60px;"">+</div>",,html-keyboard-response,176,670803,0.0-15.0-0.12,6437,List1B,white,man,,,,null,,,,
null,"<img src=""stim_listB/touch5.gif""style=""height:400px;""></stim_listB>",,html-keyboard-response,177,672804,0.0-15.0-1.12,6437,List1B,white,man,,,,null,,,,
null,is touching,,html-keyboard-response,178,674807,0.0-15.0-2.12,6437,List1B,white,man,,,,null,,,,
5773,,,survey-text,179,680582,0.0-15.0-3.12,6437,List1B,white,man,,,,,"{""Q0"":""dave is touching mike""}","<img src=""stim_listB/touch5.gif""style=""height:400px;""></stim_listB>",is touching,
null,"<div style=""font-size:60px;"">+</div>",,html-keyboard-response,180,681085,0.0-15.0-0.13,6437,List1B,white,man,,,,null,,,,
null,"<img src=""stim_listB/dance3.gif""style=""height:400px;""></stim_listB>",,html-keyboard-response,181,683087,0.0-15.0-1.13,6437,List1B,white,man,,,,null,,,,
null,is dancing with,,html-keyboard-response,182,685090,0.0-15.0-2.13,6437,List1B,white,man,,,,null,,,,
5891,,,survey-text,183,690982,0.0-15.0-3.13,6437,List1B,white,man,,,,,"{""Q0"":""jane is dancing with luke""}","<img src=""stim_listB/dance3.gif""style=""height:400px;""></stim_listB>",is dancing with,
null,"<div style=""font-size:60px;"">+</div>",,html-keyboard-response,184,691484,0.0-15.0-0.14,6437,List1B,white,man,,,,null,,,,
null,"<img src=""stim_listB/play5.gif""style=""height:400px;""></stim_listB>",,html-keyboard-response,185,693485,0.0-15.0-1.14,6437,List1B,white,man,,,,null,,,,
null,is playing with,,html-keyboard-response,186,695486,0.0-15.0-2.14,6437,List1B,white,man,,,,null,,,,
3824,,,survey-text,187,699310,0.0-15.0-3.14,6437,List1B,white,man,,,,,"{""Q0"":""dave is playing with mike""}","<img src=""stim_listB/play5.gif""style=""height:400px;""></stim_listB>",is playing with,
null,"<div style=""font-size:60px;"">+</div>",,html-keyboard-response,188,699817,0.0-15.0-0.15,6437,List1B,white,man,,,,null,,,,
null,"<img src=""stim_listB/flirt2.gif""style=""height:400px;""></stim_listB>",,html-keyboard-response,189,701822,0.0-15.0-1.15,6437,List1B,white,man,,,,null,,,,
null,are flirting with each other,,html-keyboard-response,190,703823,0.0-15.0-2.15,6437,List1B,white,man,,,,null,,,,
6067,,,survey-text,191,709892,0.0-15.0-3.15,6437,List1B,white,man,,,,,"{""Q0"":""mike and beth are flirting with each other""}","<img src=""stim_listB/flirt2.gif""style=""height:400px;""></stim_listB>",are flirting with each other,
null,"<div style=""font-size:60px;"">+</div>",,html-keyboard-response,192,710394,0.0-15.0-0.16,6437,List1B,white,man,,,,null,,,,
null,"<img src=""stim_listB/play3.gif""style=""height:400px;""></stim_listB>",,html-keyboard-response,193,712396,0.0-15.0-1.16,6437,List1B,white,man,,,,null,,,,
null,is playing with,,html-keyboard-response,194,714397,0.0-15.0-2.16,6437,List1B,white,man,,,,null,,,,
3511,,,survey-text,195,717909,0.0-15.0-3.16,6437,List1B,white,man,,,,,"{""Q0"":""jane is playing with dave""}","<img src=""stim_listB/play3.gif""style=""height:400px;""></stim_listB>",is playing with,
null,"<div style=""font-size:60px;"">+</div>",,html-keyboard-response,196,718410,0.0-15.0-0.17,6437,List1B,white,man,,,,null,,,,
null,"<img src=""stim_listB/shout8.gif""style=""height:400px;""></stim_listB>",,html-keyboard-response,197,720412,0.0-15.0-1.17,6437,List1B,white,man,,,,null,,,,
null,are shouting at each other,,html-keyboard-response,198,722413,0.0-15.0-2.17,6437,List1B,white,man,,,,null,,,,
5789,,,survey-text,199,728203,0.0-15.0-3.17,6437,List1B,white,man,,,,,"{""Q0"":""kate and jane are shouting at each other""}","<img src=""stim_listB/shout8.gif""style=""height:400px;""></stim_listB>",are shouting at each other,
null,"<div style=""font-size:60px;"">+</div>",,html-keyboard-response,200,728705,0.0-15.0-0.18,6437,List1B,white,man,,,,null,,,,
null,"<img src=""stim_listB/marry6.gif""style=""height:400px;""></stim_listB>",,html-keyboard-response,201,730706,0.0-15.0-1.18,6437,List1B,white,man,,,,null,,,,
null,are marrying each other,,html-keyboard-response,202,732708,0.0-15.0-2.18,6437,List1B,white,man,,,,null,,,,
5365,,,survey-text,203,738073,0.0-15.0-3.18,6437,List1B,white,man,,,,,"{""Q0"":""fred and dave are marrying each other""}","<img src=""stim_listB/marry6.gif""style=""height:400px;""></stim_listB>",are marrying each other,
null,"<div style=""font-size:60px;"">+</div>",,html-keyboard-response,204,738579,0.0-15.0-0.19,6437,List1B,white,man,,,,null,,,,
null,"<img src=""stim_listB/shout5.gif""style=""height:400px;""></stim_listB>",,html-keyboard-response,205,740580,0.0-15.0-1.19,6437,List1B,white,man,,,,null,,,,
null,is shouting at,,html-keyboard-response,206,742582,0.0-15.0-2.19,6437,List1B,white,man,,,,null,,,,
4898,,,survey-text,207,747480,0.0-15.0-3.19,6437,List1B,white,man,,,,,"{""Q0"":""luke is shouting at fred""}","<img src=""stim_listB/shout5.gif""style=""height:400px;""></stim_listB>",is shouting at,
2609,"<img src='img/portrait_matrix_list1.jpg' style='width:900px;height:500px;''></img><p>If you have memorised all the portraits and names and are ready to start, press Continue.</p><p><strong>Please note: Your memory of these faces will be tested 4 times during this experiment.</strong></p>",0,html-button-response,208,750091,0.0-16.0-0.0,6437,List1B,white,man,,,,,,,,
3272,"<img src=""portrait/BM1.jpg""style=""height:400px;""></img>",4,html-button-response,209,754371,0.0-16.0-1.0,6437,List1B,white,man,,TRUE,4,,,,,
null,CORRECT,,html-keyboard-response,210,755878,0.0-16.0-2.0-0.0,6437,List1B,white,man,,,,null,,,,
2731,"<img src=""portrait/BW2.jpg""style=""height:400px;""></img>",2,html-button-response,211,758611,0.0-16.0-4.0,6437,List1B,white,man,,TRUE,2,,,,,
null,CORRECT,,html-keyboard-response,212,760123,0.0-16.0-5.0-0.0,6437,List1B,white,man,,,,null,,,,
1050,"<img src=""portrait/WW2.jpg""style=""height:400px;""></img>",3,html-button-response,213,761174,0.0-16.0-7.0,6437,List1B,white,man,,TRUE,3,,,,,
null,CORRECT,,html-keyboard-response,214,762678,0.0-16.0-8.0-0.0,6437,List1B,white,man,,,,null,,,,
1307,"<img src=""portrait/WM2.jpg""style=""height:400px;""></img>",7,html-button-response,215,763986,0.0-16.0-10.0,6437,List1B,white,man,,TRUE,7,,,,,
null,CORRECT,,html-keyboard-response,216,765493,0.0-16.0-11.0-0.0,6437,List1B,white,man,,,,null,,,,
1278,"<img src=""portrait/WW1.jpg""style=""height:400px;""></img>",1,html-button-response,217,766772,0.0-16.0-13.0,6437,List1B,white,man,,TRUE,1,,,,,
null,CORRECT,,html-keyboard-response,218,768281,0.0-16.0-14.0-0.0,6437,List1B,white,man,,,,null,,,,
701,"<img src=""portrait/BW1.jpg""style=""height:400px;""></img>",0,html-button-response,219,768983,0.0-16.0-16.0,6437,List1B,white,man,,TRUE,0,,,,,
null,CORRECT,,html-keyboard-response,220,770490,0.0-16.0-17.0-0.0,6437,List1B,white,man,,,,null,,,,
2181,"<img src=""portrait/BM2.jpg""style=""height:400px;""></img>",5,html-button-response,221,772672,0.0-16.0-19.0,6437,List1B,white,man,,TRUE,5,,,,,
null,CORRECT,,html-keyboard-response,222,774181,0.0-16.0-20.0-0.0,6437,List1B,white,man,,,,null,,,,
1268,"<img src=""portrait/WM1.jpg""style=""height:400px;""></img>",6,html-button-response,223,775451,0.0-16.0-22.0,6437,List1B,white,man,,TRUE,6,,,,,
null,CORRECT,,html-keyboard-response,224,776957,0.0-16.0-23.0-0.0,6437,List1B,white,man,,,,null,,,,
928,<p>You got 8 out of 8 right first time. Press Continue.</p>,0,html-button-response,225,777887,0.0-16.0-25.0,6437,List1B,white,man,,,,,,,,
null,"<div style=""font-size:60px;"">+</div>",,html-keyboard-response,226,779397,0.0-17.0-0.0,6437,List1B,white,man,,,,null,,,,
null,"<img src=""stim_listB/argue1.gif""style=""height:400px;""></stim_listB>",,html-keyboard-response,227,781400,0.0-17.0-1.0,6437,List1B,white,man,,,,null,,,,
null,is arguing with,,html-keyboard-response,228,783402,0.0-17.0-2.0,6437,List1B,white,man,,,,null,,,,
4958,,,survey-text,229,788360,0.0-17.0-3.0,6437,List1B,white,man,,,,,"{""Q0"":""ruth is arguing with mike""}","<img src=""stim_listB/argue1.gif""style=""height:400px;""></stim_listB>",is arguing with,
null,"<div style=""font-size:60px;"">+</div>",,html-keyboard-response,230,788866,0.0-17.0-0.1,6437,List1B,white,man,,,,null,,,,
null,"<img src=""stim_listB/kiss1.gif""style=""height:400px;""></stim_listB>",,html-keyboard-response,231,790870,0.0-17.0-1.1,6437,List1B,white,man,,,,null,,,,
null,is kissing,,html-keyboard-response,232,792874,0.0-17.0-2.1,6437,List1B,white,man,,,,null,,,,
4161,,,survey-text,233,797037,0.0-17.0-3.1,6437,List1B,white,man,,,,,"{""Q0"":""beth is kissing fred""}","<img src=""stim_listB/kiss1.gif""style=""height:400px;""></stim_listB>",is kissing,
null,"<div style=""font-size:60px;"">+</div>",,html-keyboard-response,234,797541,0.0-17.0-0.2,6437,List1B,white,man,,,,null,,,,
null,"<img src=""stim_listB/fight2.gif""style=""height:400px;""></stim_listB>",,html-keyboard-response,235,799544,0.0-17.0-1.2,6437,List1B,white,man,,,,null,,,,
null,are fighting each other,,html-keyboard-response,236,801545,0.0-17.0-2.2,6437,List1B,white,man,,,,null,,,,
6149,,,survey-text,237,807695,0.0-17.0-3.2,6437,List1B,white,man,,,,,"{""Q0"":""beth and fred are fighting each other""}","<img src=""stim_listB/fight2.gif""style=""height:400px;""></stim_listB>",are fighting each other,
null,"<div style=""font-size:60px;"">+</div>",,html-keyboard-response,238,808198,0.0-17.0-0.3,6437,List1B,white,man,,,,null,,,,
null,"<img src=""stim_listB/talk1.gif""style=""height:400px;""></stim_listB>",,html-keyboard-response,239,810199,0.0-17.0-1.3,6437,List1B,white,man,,,,null,,,,
null,is talking to,,html-keyboard-response,240,812201,0.0-17.0-2.3,6437,List1B,white,man,,,,null,,,,
3370,,,survey-text,241,815574,0.0-17.0-3.3,6437,List1B,white,man,,,,,"{""Q0"":""kate is talking to fred""}","<img src=""stim_listB/talk1.gif""style=""height:400px;""></stim_listB>",is talking to,
null,"<div style=""font-size:60px;"">+</div>",,html-keyboard-response,242,816077,0.0-17.0-0.4,6437,List1B,white,man,,,,null,,,,
null,"<img src=""stim_listB/play4.gif""style=""height:400px;""></stim_listB>",,html-keyboard-response,243,818082,0.0-17.0-1.4,6437,List1B,white,man,,,,null,,,,
null,are playing with each other,,html-keyboard-response,244,820084,0.0-17.0-2.4,6437,List1B,white,man,,,,null,,,,
8738,,,survey-text,245,828822,0.0-17.0-3.4,6437,List1B,white,man,,,,,"{""Q0"":""luke and ruth are playing with each other""}","<img src=""stim_listB/play4.gif""style=""height:400px;""></stim_listB>",are playing with each other,
null,"<div style=""font-size:60px;"">+</div>",,html-keyboard-response,246,829324,0.0-17.0-0.5,6437,List1B,white,man,,,,null,,,,
null,"<img src=""stim_listB/marry7.gif""style=""height:400px;""></stim_listB>",,html-keyboard-response,247,831328,0.0-17.0-1.5,6437,List1B,white,man,,,,null,,,,
null,is marrying,,html-keyboard-response,248,833329,0.0-17.0-2.5,6437,List1B,white,man,,,,null,,,,
3671,,,survey-text,249,837000,0.0-17.0-3.5,6437,List1B,white,man,,,,,"{""Q0"":""ruth is marrying kate""}","<img src=""stim_listB/marry7.gif""style=""height:400px;""></stim_listB>",is marrying,
null,"<div style=""font-size:60px;"">+</div>",,html-keyboard-response,250,837504,0.0-17.0-0.6,6437,List1B,white,man,,,,null,,,,
null,"<img src=""stim_listB/talk5.gif""style=""height:400px;""></stim_listB>",,html-keyboard-response,251,839508,0.0-17.0-1.6,6437,List1B,white,man,,,,null,,,,
null,is talking to,,html-keyboard-response,252,841510,0.0-17.0-2.6,6437,List1B,white,man,,,,null,,,,
3403,,,survey-text,253,844915,0.0-17.0-3.6,6437,List1B,white,man,,,,,"{""Q0"":""dave is talking to fred""}","<img src=""stim_listB/talk5.gif""style=""height:400px;""></stim_listB>",is talking to,
null,"<div style=""font-size:60px;"">+</div>",,html-keyboard-response,254,845417,0.0-17.0-0.7,6437,List1B,white,man,,,,null,,,,
null,"<img src=""stim_listB/talk7.gif""style=""height:400px;""></stim_listB>",,html-keyboard-response,255,847423,0.0-17.0-1.7,6437,List1B,white,man,,,,null,,,,
null,is talking to,,html-keyboard-response,256,849425,0.0-17.0-2.7,6437,List1B,white,man,,,,null,,,,
4492,,,survey-text,257,853917,0.0-17.0-3.7,6437,List1B,white,man,,,,,"{""Q0"":""jane is talking to beth""}","<img src=""stim_listB/talk7.gif""style=""height:400px;""></stim_listB>",is talking to,
null,"<div style=""font-size:60px;"">+</div>",,html-keyboard-response,258,854418,0.0-17.0-0.8,6437,List1B,white,man,,,,null,,,,
null,"<img src=""stim_listB/marry8.gif""style=""height:400px;""></stim_listB>",,html-keyboard-response,259,856422,0.0-17.0-1.8,6437,List1B,white,man,,,,null,,,,
null,are marrying each other,,html-keyboard-response,260,858427,0.0-17.0-2.8,6437,List1B,white,man,,,,null,,,,
5835,,,survey-text,261,864264,0.0-17.0-3.8,6437,List1B,white,man,,,,,"{""Q0"":""beth and jane are marrying each other""}","<img src=""stim_listB/marry8.gif""style=""height:400px;""></stim_listB>",are marrying each other,
null,"<div style=""font-size:60px;"">+</div>",,html-keyboard-response,262,864769,0.0-17.0-0.9,6437,List1B,white,man,,,,null,,,,
null,"<img src=""stim_listB/play8.gif""style=""height:400px;""></stim_listB>",,html-keyboard-response,263,866770,0.0-17.0-1.9,6437,List1B,white,man,,,,null,,,,
null,are playing with each other,,html-keyboard-response,264,868771,0.0-17.0-2.9,6437,List1B,white,man,,,,null,,,,
8018,,,survey-text,265,876790,0.0-17.0-3.9,6437,List1B,white,man,,,,,"{""Q0"":""beth and ruth are playing with each other""}","<img src=""stim_listB/play8.gif""style=""height:400px;""></stim_listB>",are playing with each other,
null,"<div style=""font-size:60px;"">+</div>",,html-keyboard-response,266,877293,0.0-17.0-0.10,6437,List1B,white,man,,,,null,,,,
null,"<img src=""stim_listB/kiss5.gif""style=""height:400px;""></stim_listB>",,html-keyboard-response,267,879296,0.0-17.0-1.10,6437,List1B,white,man,,,,null,,,,
null,is kissing,,html-keyboard-response,268,881297,0.0-17.0-2.10,6437,List1B,white,man,,,,null,,,,
3772,,,survey-text,269,885070,0.0-17.0-3.10,6437,List1B,white,man,,,,,"{""Q0"":""luke is kissing fred""}","<img src=""stim_listB/kiss5.gif""style=""height:400px;""></stim_listB>",is kissing,
null,"<div style=""font-size:60px;"">+</div>",,html-keyboard-response,270,885572,0.0-17.0-0.11,6437,List1B,white,man,,,,null,,,,
null,"<img src=""stim_listB/marry2.gif""style=""height:400px;""></stim_listB>",,html-keyboard-response,271,887574,0.0-17.0-1.11,6437,List1B,white,man,,,,null,,,,
null,are marrying each other,,html-keyboard-response,272,889576,0.0-17.0-2.11,6437,List1B,white,man,,,,null,,,,
5255,,,survey-text,273,894831,0.0-17.0-3.11,6437,List1B,white,man,,,,,"{""Q0"":""fred and kate are marrying each other""}","<img src=""stim_listB/marry2.gif""style=""height:400px;""></stim_listB>",are marrying each other,
null,"<div style=""font-size:60px;"">+</div>",,html-keyboard-response,274,895336,0.0-17.0-0.12,6437,List1B,white,man,,,,null,,,,
null,"<img src=""stim_listB/talk2.gif""style=""height:400px;""></stim_listB>",,html-keyboard-response,275,897338,0.0-17.0-1.12,6437,List1B,white,man,,,,null,,,,
null,are talking to each other,,html-keyboard-response,276,899342,0.0-17.0-2.12,6437,List1B,white,man,,,,null,,,,
7083,,,survey-text,277,906426,0.0-17.0-3.12,6437,List1B,white,man,,,,,"{""Q0"":""mike and beth are talking to each other""}","<img src=""stim_listB/talk2.gif""style=""height:400px;""></stim_listB>",are talking to each other,
null,"<div style=""font-size:60px;"">+</div>",,html-keyboard-response,278,906929,0.0-17.0-0.13,6437,List1B,white,man,,,,null,,,,
null,"<img src=""stim_listB/argue5.gif""style=""height:400px;""></stim_listB>",,html-keyboard-response,279,908931,0.0-17.0-1.13,6437,List1B,white,man,,,,null,,,,
null,is arguing with,,html-keyboard-response,280,910932,0.0-17.0-2.13,6437,List1B,white,man,,,,null,,,,
3853,,,survey-text,281,914786,0.0-17.0-3.13,6437,List1B,white,man,,,,,"{""Q0"":""luke is arguing with mike""}","<img src=""stim_listB/argue5.gif""style=""height:400px;""></stim_listB>",is arguing with,
null,"<div style=""font-size:60px;"">+</div>",,html-keyboard-response,282,915289,0.0-17.0-0.14,6437,List1B,white,man,,,,null,,,,
null,"<img src=""stim_listB/play7.gif""style=""height:400px;""></stim_listB>",,html-keyboard-response,283,917291,0.0-17.0-1.14,6437,List1B,white,man,,,,null,,,,
null,is playing with,,html-keyboard-response,284,919292,0.0-17.0-2.14,6437,List1B,white,man,,,,null,,,,
5451,,,survey-text,285,924744,0.0-17.0-3.14,6437,List1B,white,man,,,,,"{""Q0"":""jane is playing with kate""}","<img src=""stim_listB/play7.gif""style=""height:400px;""></stim_listB>",is playing with,
null,"<div style=""font-size:60px;"">+</div>",,html-keyboard-response,286,925246,0.0-17.0-0.15,6437,List1B,white,man,,,,null,,,,
null,"<img src=""stim_listB/kiss7.gif""style=""height:400px;""></stim_listB>",,html-keyboard-response,287,927247,0.0-17.0-1.15,6437,List1B,white,man,,,,null,,,,
null,is kissing,,html-keyboard-response,288,929248,0.0-17.0-2.15,6437,List1B,white,man,,,,null,,,,
3161,,,survey-text,289,932411,0.0-17.0-3.15,6437,List1B,white,man,,,,,"{""Q0"":""ruth is kissing beth""}","<img src=""stim_listB/kiss7.gif""style=""height:400px;""></stim_listB>",is kissing,
null,"<div style=""font-size:60px;"">+</div>",,html-keyboard-response,290,932913,0.0-17.0-0.16,6437,List1B,white,man,,,,null,,,,
null,"<img src=""stim_listB/marry5.gif""style=""height:400px;""></stim_listB>",,html-keyboard-response,291,934917,0.0-17.0-1.16,6437,List1B,white,man,,,,null,,,,
null,is marrying,,html-keyboard-response,292,936921,0.0-17.0-2.16,6437,List1B,white,man,,,,null,,,,
3672,,,survey-text,293,940595,0.0-17.0-3.16,6437,List1B,white,man,,,,,"{""Q0"":""luke is marrying mike""}","<img src=""stim_listB/marry5.gif""style=""height:400px;""></stim_listB>",is marrying,
null,"<div style=""font-size:60px;"">+</div>",,html-keyboard-response,294,941096,0.0-17.0-0.17,6437,List1B,white,man,,,,null,,,,
null,"<img src=""stim_listB/shout2.gif""style=""height:400px;""></stim_listB>",,html-keyboard-response,295,943101,0.0-17.0-1.17,6437,List1B,white,man,,,,null,,,,
null,are shouting at each other,,html-keyboard-response,296,945102,0.0-17.0-2.17,6437,List1B,white,man,,,,null,,,,
6356,,,survey-text,297,951459,0.0-17.0-3.17,6437,List1B,white,man,,,,,"{""Q0"":""mike and jane are shouting at each other""}","<img src=""stim_listB/shout2.gif""style=""height:400px;""></stim_listB>",are shouting at each other,
null,"<div style=""font-size:60px;"">+</div>",,html-keyboard-response,298,951965,0.0-17.0-0.18,6437,List1B,white,man,,,,null,,,,
null,"<img src=""stim_listB/kiss2.gif""style=""height:400px;""></stim_listB>",,html-keyboard-response,299,953969,0.0-17.0-1.18,6437,List1B,white,man,,,,null,,,,
null,are kissing each other,,html-keyboard-response,300,956081,0.0-17.0-2.18,6437,List1B,white,man,,,,null,,,,
7449,,,survey-text,301,963532,0.0-17.0-3.18,6437,List1B,white,man,,,,,"{""Q0"":""mike and kate are kissing each other""}","<img src=""stim_listB/kiss2.gif""style=""height:400px;""></stim_listB>",are kissing each other,
null,"<div style=""font-size:60px;"">+</div>",,html-keyboard-response,302,964034,0.0-17.0-0.19,6437,List1B,white,man,,,,null,,,,
null,"<img src=""stim_listB/shout4.gif""style=""height:400px;""></stim_listB>",,html-keyboard-response,303,966038,0.0-17.0-1.19,6437,List1B,white,man,,,,null,,,,
null,are shouting at each other,,html-keyboard-response,304,968043,0.0-17.0-2.19,6437,List1B,white,man,,,,null,,,,
5155,,,survey-text,305,973200,0.0-17.0-3.19,6437,List1B,white,man,,,,,"{""Q0"":""dave and jane are shouting at each other""}","<img src=""stim_listB/shout4.gif""style=""height:400px;""></stim_listB>",are shouting at each other,
194407,"<img src='img/portrait_matrix_list1.jpg' style='width:900px;height:500px;''></img><p>If you have memorised all the portraits and names and are ready to start, press Continue.</p><p><strong>Please note: Your memory of these faces will be tested 4 times during this experiment.</strong></p>",0,html-button-response,306,1167613,0.0-18.0-0.0,6437,List1B,white,man,,,,,,,,
2073,"<img src=""portrait/WW1.jpg""style=""height:400px;""></img>",1,html-button-response,307,1170691,0.0-18.0-1.0,6437,List1B,white,man,,TRUE,1,,,,,
null,CORRECT,,html-keyboard-response,308,1172196,0.0-18.0-2.0-0.0,6437,List1B,white,man,,,,null,,,,
2953,"<img src=""portrait/BM1.jpg""style=""height:400px;""></img>",4,html-button-response,309,1175155,0.0-18.0-4.0,6437,List1B,white,man,,TRUE,4,,,,,
null,CORRECT,,html-keyboard-response,310,1176658,0.0-18.0-5.0-0.0,6437,List1B,white,man,,,,null,,,,
1574,"<img src=""portrait/WW2.jpg""style=""height:400px;""></img>",2,html-button-response,311,1178233,0.0-18.0-7.0,6437,List1B,white,man,,TRUE,3,,,,,
2906,"<img src=""portrait/WW2.jpg""style=""height:400px;""></img>",3,html-button-response,312,1182146,0.0-18.0-9.0-0.0,6437,List1B,white,man,,FALSE,3,,,,,
null,CORRECT,,html-keyboard-response,313,1183656,0.0-18.0-9.0-1.0-0.0,6437,List1B,white,man,,,,null,,,,
1667,"<img src=""portrait/WM1.jpg""style=""height:400px;""></img>",6,html-button-response,314,1185326,0.0-18.0-10.0,6437,List1B,white,man,,TRUE,6,,,,,
null,CORRECT,,html-keyboard-response,315,1186836,0.0-18.0-11.0-0.0,6437,List1B,white,man,,,,null,,,,
1597,"<img src=""portrait/BM2.jpg""style=""height:400px;""></img>",5,html-button-response,316,1188435,0.0-18.0-13.0,6437,List1B,white,man,,TRUE,5,,,,,
null,CORRECT,,html-keyboard-response,317,1189940,0.0-18.0-14.0-0.0,6437,List1B,white,man,,,,null,,,,
1666,"<img src=""portrait/BW2.jpg""style=""height:400px;""></img>",2,html-button-response,318,1191606,0.0-18.0-16.0,6437,List1B,white,man,,TRUE,2,,,,,
null,CORRECT,,html-keyboard-response,319,1193116,0.0-18.0-17.0-0.0,6437,List1B,white,man,,,,null,,,,
1260,"<img src=""portrait/WM2.jpg""style=""height:400px;""></img>",7,html-button-response,320,1194377,0.0-18.0-19.0,6437,List1B,white,man,,TRUE,7,,,,,
null,CORRECT,,html-keyboard-response,321,1195884,0.0-18.0-20.0-0.0,6437,List1B,white,man,,,,null,,,,
1563,"<img src=""portrait/BW1.jpg""style=""height:400px;""></img>",0,html-button-response,322,1197448,0.0-18.0-22.0,6437,List1B,white,man,,TRUE,0,,,,,
null,CORRECT,,html-keyboard-response,323,1198957,0.0-18.0-23.0-0.0,6437,List1B,white,man,,,,null,,,,
867,<p>You got 7 out of 8 right first time. Press Continue.</p>,0,html-button-response,324,1199824,0.0-18.0-25.0,6437,List1B,white,man,,,,,,,,
2075,"As you did not score 100%, the memory game will repeat. Press Continue.",0,html-button-response,325,1202902,0.0-18.0-26.0-0.0,6437,List1B,white,man,,,,,,,,
2233,"<img src='img/portrait_matrix_list1.jpg' style='width:900px;height:500px;''></img><p>If you have memorised all the portraits and names and are ready to start, press Continue.</p><p><strong>Please note: Your memory of these faces will be tested 4 times during this experiment.</strong></p>",0,html-button-response,326,1206138,0.0-18.1-0.1,6437,List1B,white,man,,,,,,,,
1178,"<img src=""portrait/WW1.jpg""style=""height:400px;""></img>",1,html-button-response,327,1208321,0.0-18.1-1.1,6437,List1B,white,man,,TRUE,1,,,,,
null,CORRECT,,html-keyboard-response,328,1209827,0.0-18.1-2.1-0.1,6437,List1B,white,man,,,,null,,,,
1730,"<img src=""portrait/BM1.jpg""style=""height:400px;""></img>",4,html-button-response,329,1211559,0.0-18.1-4.1,6437,List1B,white,man,,TRUE,4,,,,,
null,CORRECT,,html-keyboard-response,330,1213062,0.0-18.1-5.1-0.1,6437,List1B,white,man,,,,null,,,,
2625,"<img src=""portrait/WW2.jpg""style=""height:400px;""></img>",3,html-button-response,331,1215689,0.0-18.1-7.1,6437,List1B,white,man,,TRUE,3,,,,,
null,CORRECT,,html-keyboard-response,332,1217931,0.0-18.1-8.1-0.1,6437,List1B,white,man,,,,null,,,,
2012,"<img src=""portrait/WM1.jpg""style=""height:400px;""></img>",6,html-button-response,333,1219944,0.0-18.1-10.1,6437,List1B,white,man,,TRUE,6,,,,,
null,CORRECT,,html-keyboard-response,334,1221453,0.0-18.1-11.1-0.1,6437,List1B,white,man,,,,null,,,,
1461,"<img src=""portrait/BM2.jpg""style=""height:400px;""></img>",5,html-button-response,335,1222916,0.0-18.1-13.1,6437,List1B,white,man,,TRUE,5,,,,,
null,CORRECT,,html-keyboard-response,336,1224422,0.0-18.1-14.1-0.1,6437,List1B,white,man,,,,null,,,,
1457,"<img src=""portrait/BW2.jpg""style=""height:400px;""></img>",0,html-button-response,337,1225880,0.0-18.1-16.1,6437,List1B,white,man,,TRUE,2,,,,,
2066,"<img src=""portrait/BW2.jpg""style=""height:400px;""></img>",2,html-button-response,338,1228948,0.0-18.1-18.1-0.1,6437,List1B,white,man,,FALSE,2,,,,,
null,CORRECT,,html-keyboard-response,339,1230453,0.0-18.1-18.1-1.1-0.1,6437,List1B,white,man,,,,null,,,,
1294,"<img src=""portrait/WM2.jpg""style=""height:400px;""></img>",7,html-button-response,340,1231749,0.0-18.1-19.1,6437,List1B,white,man,,TRUE,7,,,,,
null,CORRECT,,html-keyboard-response,341,1233251,0.0-18.1-20.1-0.1,6437,List1B,white,man,,,,null,,,,
1750,"<img src=""portrait/BW1.jpg""style=""height:400px;""></img>",0,html-button-response,342,1235002,0.0-18.1-22.1,6437,List1B,white,man,,TRUE,0,,,,,
null,CORRECT,,html-keyboard-response,343,1236506,0.0-18.1-23.1-0.1,6437,List1B,white,man,,,,null,,,,
804,<p>You got 7 out of 8 right first time. Press Continue.</p>,0,html-button-response,344,1237310,0.0-18.1-25.1,6437,List1B,white,man,,,,,,,,
517,"As you did not score 100%, the memory game will repeat. Press Continue.",0,html-button-response,345,1238831,0.0-18.1-26.1-0.1,6437,List1B,white,man,,,,,,,,
103631,"<img src='img/portrait_matrix_list1.jpg' style='width:900px;height:500px;''></img><p>If you have memorised all the portraits and names and are ready to start, press Continue.</p><p><strong>Please note: Your memory of these faces will be tested 4 times during this experiment.</strong></p>",0,html-button-response,346,1343464,0.0-18.2-0.2,6437,List1B,white,man,,,,,,,,
1706,"<img src=""portrait/WW1.jpg""style=""height:400px;""></img>",1,html-button-response,347,1346172,0.0-18.2-1.2,6437,List1B,white,man,,TRUE,1,,,,,
null,CORRECT,,html-keyboard-response,348,1347680,0.0-18.2-2.2-0.2,6437,List1B,white,man,,,,null,,,,
1831,"<img src=""portrait/BM1.jpg""style=""height:400px;""></img>",4,html-button-response,349,1349512,0.0-18.2-4.2,6437,List1B,white,man,,TRUE,4,,,,,
null,CORRECT,,html-keyboard-response,350,1351020,0.0-18.2-5.2-0.2,6437,List1B,white,man,,,,null,,,,
1958,"<img src=""portrait/WW2.jpg""style=""height:400px;""></img>",3,html-button-response,351,1352980,0.0-18.2-7.2,6437,List1B,white,man,,TRUE,3,,,,,
null,CORRECT,,html-keyboard-response,352,1354484,0.0-18.2-8.2-0.2,6437,List1B,white,man,,,,null,,,,
1499,"<img src=""portrait/WM1.jpg""style=""height:400px;""></img>",6,html-button-response,353,1355985,0.0-18.2-10.2,6437,List1B,white,man,,TRUE,6,,,,,
null,CORRECT,,html-keyboard-response,354,1357674,0.0-18.2-11.2-0.2,6437,List1B,white,man,,,,null,,,,
2107,"<img src=""portrait/BM2.jpg""style=""height:400px;""></img>",5,html-button-response,355,1359783,0.0-18.2-13.2,6437,List1B,white,man,,TRUE,5,,,,,
null,CORRECT,,html-keyboard-response,356,1361287,0.0-18.2-14.2-0.2,6437,List1B,white,man,,,,null,,,,
3498,"<img src=""portrait/BW2.jpg""style=""height:400px;""></img>",2,html-button-response,357,1364786,0.0-18.2-16.2,6437,List1B,white,man,,TRUE,2,,,,,
null,CORRECT,,html-keyboard-response,358,1366290,0.0-18.2-17.2-0.2,6437,List1B,white,man,,,,null,,,,
1197,"<img src=""portrait/WM2.jpg""style=""height:400px;""></img>",7,html-button-response,359,1367489,0.0-18.2-19.2,6437,List1B,white,man,,TRUE,7,,,,,
null,CORRECT,,html-keyboard-response,360,1368994,0.0-18.2-20.2-0.2,6437,List1B,white,man,,,,null,,,,
761,"<img src=""portrait/BW1.jpg""style=""height:400px;""></img>",0,html-button-response,361,1369756,0.0-18.2-22.2,6437,List1B,white,man,,TRUE,0,,,,,
null,CORRECT,,html-keyboard-response,362,1371266,0.0-18.2-23.2-0.2,6437,List1B,white,man,,,,null,,,,
3172,<p>You got 8 out of 8 right first time. Press Continue.</p>,0,html-button-response,363,1374439,0.0-18.2-25.2,6437,List1B,white,man,,,,,,,,
null,"<div style=""font-size:60px;"">+</div>",,html-keyboard-response,364,1375943,0.0-19.0-0.0,6437,List1B,white,man,,,,null,,,,
null,"<img src=""stim_listB/flirt4.gif""style=""height:400px;""></stim_listB>",,html-keyboard-response,365,1377946,0.0-19.0-1.0,6437,List1B,white,man,,,,null,,,,
null,are flirting with each other,,html-keyboard-response,366,1379947,0.0-19.0-2.0,6437,List1B,white,man,,,,null,,,,
7147,,,survey-text,367,1387095,0.0-19.0-3.0,6437,List1B,white,man,,,,,"{""Q0"":""dave and ruth are flirting with each other""}","<img src=""stim_listB/flirt4.gif""style=""height:400px;""></stim_listB>",are flirting with each other,
null,"<div style=""font-size:60px;"">+</div>",,html-keyboard-response,368,1387598,0.0-19.0-0.1,6437,List1B,white,man,,,,null,,,,
null,"<img src=""stim_listB/talk6.gif""style=""height:400px;""></stim_listB>",,html-keyboard-response,369,1389602,0.0-19.0-1.1,6437,List1B,white,man,,,,null,,,,
null,are talking to each other,,html-keyboard-response,370,1391603,0.0-19.0-2.1,6437,List1B,white,man,,,,null,,,,
5989,,,survey-text,371,1397594,0.0-19.0-3.1,6437,List1B,white,man,,,,,"{""Q0"":""mike and luke are talking to each other""}","<img src=""stim_listB/talk6.gif""style=""height:400px;""></stim_listB>",are talking to each other,
null,"<div style=""font-size:60px;"">+</div>",,html-keyboard-response,372,1398098,0.0-19.0-0.2,6437,List1B,white,man,,,,null,,,,
null,"<img src=""stim_listB/fight1.gif""style=""height:400px;""></stim_listB>",,html-keyboard-response,373,1400100,0.0-19.0-1.2,6437,List1B,white,man,,,,null,,,,
null,is fighting,,html-keyboard-response,374,1402101,0.0-19.0-2.2,6437,List1B,white,man,,,,null,,,,
3180,,,survey-text,375,1405282,0.0-19.0-3.2,6437,List1B,white,man,,,,,"{""Q0"":""kate is fighting mike""}","<img src=""stim_listB/fight1.gif""style=""height:400px;""></stim_listB>",is fighting,
null,"<div style=""font-size:60px;"">+</div>",,html-keyboard-response,376,1405788,0.0-19.0-0.3,6437,List1B,white,man,,,,null,,,,
null,"<img src=""stim_listB/touch3.gif""style=""height:400px;""></stim_listB>",,html-keyboard-response,377,1407791,0.0-19.0-1.3,6437,List1B,white,man,,,,null,,,,
null,is touching,,html-keyboard-response,378,1409795,0.0-19.0-2.3,6437,List1B,white,man,,,,null,,,,
4594,,,survey-text,379,1414390,0.0-19.0-3.3,6437,List1B,white,man,,,,,"{""Q0"":""jane is touching dave""}","<img src=""stim_listB/touch3.gif""style=""height:400px;""></stim_listB>",is touching,
null,"<div style=""font-size:60px;"">+</div>",,html-keyboard-response,380,1414891,0.0-19.0-0.4,6437,List1B,white,man,,,,null,,,,
null,"<img src=""stim_listB/fight5.gif""style=""height:400px;""></stim_listB>",,html-keyboard-response,381,1416893,0.0-19.0-1.4,6437,List1B,white,man,,,,null,,,,
null,is fighting,,html-keyboard-response,382,1418894,0.0-19.0-2.4,6437,List1B,white,man,,,,null,,,,
3669,,,survey-text,383,1422565,0.0-19.0-3.4,6437,List1B,white,man,,,,,"{""Q0"":""dave is fighting mike""}","<img src=""stim_listB/fight5.gif""style=""height:400px;""></stim_listB>",is fighting,
null,"<div style=""font-size:60px;"">+</div>",,html-keyboard-response,384,1423066,0.0-19.0-0.5,6437,List1B,white,man,,,,null,,,,
null,"<img src=""stim_listB/shout3.gif""style=""height:400px;""></stim_listB>",,html-keyboard-response,385,1425070,0.0-19.0-1.5,6437,List1B,white,man,,,,null,,,,
null,is shouting at,,html-keyboard-response,386,1427071,0.0-19.0-2.5,6437,List1B,white,man,,,,null,,,,
3893,,,survey-text,387,1430965,0.0-19.0-3.5,6437,List1B,white,man,,,,,"{""Q0"":""jane is shouting at luke""}","<img src=""stim_listB/shout3.gif""style=""height:400px;""></stim_listB>",is shouting at,
null,"<div style=""font-size:60px;"">+</div>",,html-keyboard-response,388,1431469,0.0-19.0-0.6,6437,List1B,white,man,,,,null,,,,
null,"<img src=""stim_listB/flirt7.gif""style=""height:400px;""></stim_listB>",,html-keyboard-response,389,1433470,0.0-19.0-1.6,6437,List1B,white,man,,,,null,,,,
null,is flirting with,,html-keyboard-response,390,1435474,0.0-19.0-2.6,6437,List1B,white,man,,,,null,,,,
4010,,,survey-text,391,1439485,0.0-19.0-3.6,6437,List1B,white,man,,,,,"{""Q0"":""jane is flirting with beth""}","<img src=""stim_listB/flirt7.gif""style=""height:400px;""></stim_listB>",is flirting with,
null,"<div style=""font-size:60px;"">+</div>",,html-keyboard-response,392,1439989,0.0-19.0-0.7,6437,List1B,white,man,,,,null,,,,
null,"<img src=""stim_listB/touch4.gif""style=""height:400px;""></stim_listB>",,html-keyboard-response,393,1441991,0.0-19.0-1.7,6437,List1B,white,man,,,,null,,,,
null,are touching each other,,html-keyboard-response,394,1443992,0.0-19.0-2.7,6437,List1B,white,man,,,,null,,,,
8372,,,survey-text,395,1452365,0.0-19.0-3.7,6437,List1B,white,man,,,,,"{""Q0"":""luke and ruth are touching each other""}","<img src=""stim_listB/touch4.gif""style=""height:400px;""></stim_listB>",are touching each other,
null,"<div style=""font-size:60px;"">+</div>",,html-keyboard-response,396,1452868,0.0-19.0-0.8,6437,List1B,white,man,,,,null,,,,
null,"<img src=""stim_listB/dance4.gif""style=""height:400px;""></stim_listB>",,html-keyboard-response,397,1454873,0.0-19.0-1.8,6437,List1B,white,man,,,,null,,,,
null,are dancing with each other,,html-keyboard-response,398,1456875,0.0-19.0-2.8,6437,List1B,white,man,,,,null,,,,
7314,,,survey-text,399,1464189,0.0-19.0-3.8,6437,List1B,white,man,,,,,"{""Q0"":""dave and ruth are dancing with each other""}","<img src=""stim_listB/dance4.gif""style=""height:400px;""></stim_listB>",are dancing with each other,
null,"<div style=""font-size:60px;"">+</div>",,html-keyboard-response,400,1464692,0.0-19.0-0.9,6437,List1B,white,man,,,,null,,,,
null,"<img src=""stim_listB/play1.gif""style=""height:400px;""></stim_listB>",,html-keyboard-response,401,1466695,0.0-19.0-1.9,6437,List1B,white,man,,,,null,,,,
null,is playing with,,html-keyboard-response,402,1468696,0.0-19.0-2.9,6437,List1B,white,man,,,,null,,,,
3809,,,survey-text,403,1472507,0.0-19.0-3.9,6437,List1B,white,man,,,,,"{""Q0"":""kate is playing with mike""}","<img src=""stim_listB/play1.gif""style=""height:400px;""></stim_listB>",is playing with,
null,"<div style=""font-size:60px;"">+</div>",,html-keyboard-response,404,1473013,0.0-19.0-0.10,6437,List1B,white,man,,,,null,,,,
null,"<img src=""stim_listB/dance1.gif""style=""height:400px;""></stim_listB>",,html-keyboard-response,405,1475016,0.0-19.0-1.10,6437,List1B,white,man,,,,null,,,,
null,is dancing with,,html-keyboard-response,406,1477017,0.0-19.0-2.10,6437,List1B,white,man,,,,null,,,,
4505,,,survey-text,407,1481524,0.0-19.0-3.10,6437,List1B,white,man,,,,,"{""Q0"":""kate is dancing with fred""}","<img src=""stim_listB/dance1.gif""style=""height:400px;""></stim_listB>",is dancing with,
null,"<div style=""font-size:60px;"">+</div>",,html-keyboard-response,408,1482029,0.0-19.0-0.11,6437,List1B,white,man,,,,null,,,,
null,"<img src=""stim_listB/marry3.gif""style=""height:400px;""></stim_listB>",,html-keyboard-response,409,1484031,0.0-19.0-1.11,6437,List1B,white,man,,,,null,,,,
null,is marrying,,html-keyboard-response,410,1486033,0.0-19.0-2.11,6437,List1B,white,man,,,,null,,,,
3167,,,survey-text,411,1489201,0.0-19.0-3.11,6437,List1B,white,man,,,,,"{""Q0"":""ruth is marrying dave""}","<img src=""stim_listB/marry3.gif""style=""height:400px;""></stim_listB>",is marrying,
null,"<div style=""font-size:60px;"">+</div>",,html-keyboard-response,412,1489706,0.0-19.0-0.12,6437,List1B,white,man,,,,null,,,,
null,"<img src=""stim_listB/flirt1.gif""style=""height:400px;""></stim_listB>",,html-keyboard-response,413,1491712,0.0-19.0-1.12,6437,List1B,white,man,,,,null,,,,
null,is flirting with,,html-keyboard-response,414,1493713,0.0-19.0-2.12,6437,List1B,white,man,,,,null,,,,
4750,,,survey-text,415,1498464,0.0-19.0-3.12,6437,List1B,white,man,,,,,"{""Q0"":""kate is flirting with fred""}","<img src=""stim_listB/flirt1.gif""style=""height:400px;""></stim_listB>",is flirting with,
null,"<div style=""font-size:60px;"">+</div>",,html-keyboard-response,416,1498968,0.0-19.0-0.13,6437,List1B,white,man,,,,null,,,,
null,"<img src=""stim_listB/argue7.gif""style=""height:400px;""></stim_listB>",,html-keyboard-response,417,1500971,0.0-19.0-1.13,6437,List1B,white,man,,,,null,,,,
null,is arguing with,,html-keyboard-response,418,1502974,0.0-19.0-2.13,6437,List1B,white,man,,,,null,,,,
5992,,,survey-text,419,1508966,0.0-19.0-3.13,6437,List1B,white,man,,,,,"{""Q0"":""ruth is arguing with kate""}","<img src=""stim_listB/argue7.gif""style=""height:400px;""></stim_listB>",is arguing with,
null,"<div style=""font-size:60px;"">+</div>",,html-keyboard-response,420,1509473,0.0-19.0-0.14,6437,List1B,white,man,,,,null,,,,
null,"<img src=""stim_listB/marry1.gif""style=""height:400px;""></stim_listB>",,html-keyboard-response,421,1511478,0.0-19.0-1.14,6437,List1B,white,man,,,,null,,,,
null,is marrying,,html-keyboard-response,422,1513480,0.0-19.0-2.14,6437,List1B,white,man,,,,null,,,,
3387,,,survey-text,423,1516867,0.0-19.0-3.14,6437,List1B,white,man,,,,,"{""Q0"":""beth is marrying mike""}","<img src=""stim_listB/marry1.gif""style=""height:400px;""></stim_listB>",is marrying,
null,"<div style=""font-size:60px;"">+</div>",,html-keyboard-response,424,1517369,0.0-19.0-0.15,6437,List1B,white,man,,,,null,,,,
null,"<img src=""stim_listB/dance5.gif""style=""height:400px;""></stim_listB>",,html-keyboard-response,425,1519374,0.0-19.0-1.15,6437,List1B,white,man,,,,null,,,,
null,is dancing with,,html-keyboard-response,426,1521376,0.0-19.0-2.15,6437,List1B,white,man,,,,null,,,,
6674,,,survey-text,427,1528051,0.0-19.0-3.15,6437,List1B,white,man,,,,,"{""Q0"":""dave is dancing with fred""}","<img src=""stim_listB/dance5.gif""style=""height:400px;""></stim_listB>",is dancing with,
null,"<div style=""font-size:60px;"">+</div>",,html-keyboard-response,428,1528556,0.0-19.0-0.16,6437,List1B,white,man,,,,null,,,,
null,"<img src=""stim_listB/touch8.gif""style=""height:400px;""></stim_listB>",,html-keyboard-response,429,1530561,0.0-19.0-1.16,6437,List1B,white,man,,,,null,,,,
null,are touching each other,,html-keyboard-response,430,1532562,0.0-19.0-2.16,6437,List1B,white,man,,,,null,,,,
6064,,,survey-text,431,1538627,0.0-19.0-3.16,6437,List1B,white,man,,,,,"{""Q0"":""beth and ruth are touching each other""}","<img src=""stim_listB/touch8.gif""style=""height:400px;""></stim_listB>",are touching each other,
null,"<div style=""font-size:60px;"">+</div>",,html-keyboard-response,432,1539131,0.0-19.0-0.17,6437,List1B,white,man,,,,null,,,,
null,"<img src=""stim_listB/shout7.gif""style=""height:400px;""></stim_listB>",,html-keyboard-response,433,1541133,0.0-19.0-1.17,6437,List1B,white,man,,,,null,,,,
null,is shouting at,,html-keyboard-response,434,1543135,0.0-19.0-2.17,6437,List1B,white,man,,,,null,,,,
3618,,,survey-text,435,1546754,0.0-19.0-3.17,6437,List1B,white,man,,,,,"{""Q0"":""ruth is shouting at beth""}","<img src=""stim_listB/shout7.gif""style=""height:400px;""></stim_listB>",is shouting at,
null,"<div style=""font-size:60px;"">+</div>",,html-keyboard-response,436,1547256,0.0-19.0-0.18,6437,List1B,white,man,,,,null,,,,
null,"<img src=""stim_listB/argue2.gif""style=""height:400px;""></stim_listB>",,html-keyboard-response,437,1549261,0.0-19.0-1.18,6437,List1B,white,man,,,,null,,,,
null,are arguing with each other,,html-keyboard-response,438,1551266,0.0-19.0-2.18,6437,List1B,white,man,,,,null,,,,
6087,,,survey-text,439,1557355,0.0-19.0-3.18,6437,List1B,white,man,,,,,"{""Q0"":""fred and kate are arguing with each other""}","<img src=""stim_listB/argue2.gif""style=""height:400px;""></stim_listB>",are arguing with each other,
null,"<div style=""font-size:60px;"">+</div>",,html-keyboard-response,440,1557859,0.0-19.0-0.19,6437,List1B,white,man,,,,null,,,,
null,"<img src=""stim_listB/marry4.gif""style=""height:400px;""></stim_listB>",,html-keyboard-response,441,1559860,0.0-19.0-1.19,6437,List1B,white,man,,,,null,,,,
null,are marrying each other,,html-keyboard-response,442,1561861,0.0-19.0-2.19,6437,List1B,white,man,,,,null,,,,
7136,,,survey-text,443,1568999,0.0-19.0-3.19,6437,List1B,white,man,,,,,"{""Q0"":""luke and jane are marrying each other""}","<img src=""stim_listB/marry4.gif""style=""height:400px;""></stim_listB>",are marrying each other,
1393,<p>Thank you for completing that task.</p><p>The final part of this session is a short questionnaire.</p><p>Press Continue.</p>,0,html-button-response,444,1570392,0.0-20.0,6437,List1B,white,man,,,,,,,,
12052,,,survey-text,445,1583449,0.0-21.0,6437,List1B,white,man,,,,,"{""Q0"":""22"",""Q1"":""English"",""Q2"":""English"",""Q3"":""England"",""Q4"":""White"",""Q5"":""Male""}",,,demographics
5862,,,survey-likert,446,1589315,0.0-22.0,6437,List1B,white,man,,,,,"{""Q0"":4}",,,likert_ESS
3103,,,survey-likert,447,1592420,0.0-23.0,6437,List1B,white,man,,,,,"{""Q0"":4}",,,likert_NSSAL_Q1
1632,,,survey-likert,448,1594054,0.0-24.0,6437,List1B,white,man,,,,,"{""Q0"":4}",,,likert_NSSAL_Q2
1921,,,survey-likert,449,1595978,0.0-25.0,6437,List1B,white,man,,,,,"{""Q0"":4}",,,likert_CGRS_Q1
1651,,,survey-likert,450,1597632,0.0-26.0,6437,List1B,white,man,,,,,"{""Q0"":4}",,,likert_CGRS_Q2
1403,,,survey-likert,451,1599036,0.0-27.0,6437,List1B,white,man,,,,,"{""Q0"":4}",,,likert_CGRS_Q3
6170,,,survey-text,452,1605209,0.0-28.0,6437,List1B,white,man,,,,,"{""Q0"":""ccc""}",,,worker_id
11861,,,external-html,453,1617153,0.0-29.0,6437,List1B,white,man,debrief.html,,,,,,,
