rt,stimulus,button_pressed,trial_type,trial_index,time_elapsed,internal_node_id,subject,list,ppt_race,ppt_gender,url,first_guess,correct,key_press,responses,image_type,phrase_type,test_part
1849,Welcome to the experiment. Press Continue to begin.,0,html-button-response,0,1854,0.0-0.0,64748,List1A,black,man,,,,,,,,
28515,,,external-html,1,31516,0.0-1.0,64748,List1A,black,man,consent.html,,,,,,,
19007,"<p>On the next page, you will see portraits of 8 people and their names.</p><p>Your first task is to take a few minutes to memorise the names of these people.</p><p>You will have to recall their names during the rest of the experiment, so it is</p><p>essential that you try to memorise these people and their names as best as you can.</p><br><p><strong>You will then be tested on your memory of these names and portraits.</strong></p><br><p>The experiment will start after you have completed this memory test.</p><br><p>Ready?</p>",0,html-button-response,2,50525,0.0-2.0,64748,List1A,black,man,,,,,,,,
73136,"<img src='img/portrait_matrix_list1.jpg' style='width:900px;height:500px;''></img><p>If you have memorised all the portraits and names and are ready to start, press Continue.</p><p><strong>Please note: Your memory of these faces will be tested 4 times during this experiment.</strong></p>",0,html-button-response,3,124668,0.0-3.0-0.0,64748,List1A,black,man,,,,,,,,
3604,"<img src=""portrait/WM1.jpg""style=""height:400px;""></img>",6,html-button-response,4,129276,0.0-3.0-1.0,64748,List1A,black,man,,TRUE,6,,,,,
null,CORRECT,,html-keyboard-response,5,130784,0.0-3.0-2.0-0.0,64748,List1A,black,man,,,,null,,,,
2360,"<img src=""portrait/BM1.jpg""style=""height:400px;""></img>",4,html-button-response,6,133148,0.0-3.0-4.0,64748,List1A,black,man,,TRUE,4,,,,,
null,CORRECT,,html-keyboard-response,7,134652,0.0-3.0-5.0-0.0,64748,List1A,black,man,,,,null,,,,
2669,"<img src=""portrait/BM2.jpg""style=""height:400px;""></img>",5,html-button-response,8,137323,0.0-3.0-7.0,64748,List1A,black,man,,TRUE,5,,,,,
null,CORRECT,,html-keyboard-response,9,138827,0.0-3.0-8.0-0.0,64748,List1A,black,man,,,,null,,,,
2197,"<img src=""portrait/WW2.jpg""style=""height:400px;""></img>",3,html-button-response,10,141026,0.0-3.0-10.0,64748,List1A,black,man,,TRUE,3,,,,,
null,CORRECT,,html-keyboard-response,11,142530,0.0-3.0-11.0-0.0,64748,List1A,black,man,,,,null,,,,
2109,"<img src=""portrait/BW1.jpg""style=""height:400px;""></img>",0,html-button-response,12,144642,0.0-3.0-13.0,64748,List1A,black,man,,TRUE,0,,,,,
null,CORRECT,,html-keyboard-response,13,146145,0.0-3.0-14.0-0.0,64748,List1A,black,man,,,,null,,,,
2629,"<img src=""portrait/WW1.jpg""style=""height:400px;""></img>",1,html-button-response,14,148777,0.0-3.0-16.0,64748,List1A,black,man,,TRUE,1,,,,,
null,CORRECT,,html-keyboard-response,15,150281,0.0-3.0-17.0-0.0,64748,List1A,black,man,,,,null,,,,
2526,"<img src=""portrait/BW2.jpg""style=""height:400px;""></img>",2,html-button-response,16,152809,0.0-3.0-19.0,64748,List1A,black,man,,TRUE,2,,,,,
null,CORRECT,,html-keyboard-response,17,154313,0.0-3.0-20.0-0.0,64748,List1A,black,man,,,,null,,,,
1796,"<img src=""portrait/WM2.jpg""style=""height:400px;""></img>",7,html-button-response,18,156112,0.0-3.0-22.0,64748,List1A,black,man,,TRUE,7,,,,,
null,CORRECT,,html-keyboard-response,19,157615,0.0-3.0-23.0-0.0,64748,List1A,black,man,,,,null,,,,
2005,<p>You got 8 out of 8 right first time. Press Continue.</p>,0,html-button-response,20,159623,0.0-3.0-25.0,64748,List1A,black,man,,,,,,,,
44798,"<p>In this experiment, you will view photographs of the people from the memory game interacting.</p><p>By using the <strong>exact</strong> phrase given <i>after</i> the photograph appears and recalling the correct names of the people in the photographs, form a sentence describing the interaction. You do not need to capitalise names.</p><p>Type your answer in the space provided. Please complete every sentence before moving onto the next trial.</p><p>You will only have a few seconds to memorise each given photograph and phrase before you can respond, so try your best to focus.</p><p>An example is given below. Press 'Continue' when you are ready.</p><img src='img/speaking_example.jpg' style='width:800px;height:460px;''></img>",0,html-button-response,21,205426,0.0-4.0,64748,List1A,black,man,,,,,,,,
2964,"<p>Before the experiment starts, you will watch two example trials. Press 'Continue'.</p>",0,html-button-response,22,209393,0.0-5.0,64748,List1A,black,man,,,,,,,,
null,<img src='img/meet_eg.gif' style='height:400px;''></img>,,html-keyboard-response,23,212399,0.0-6.0,64748,List1A,black,man,,,,null,,,,
null,<p>is meeting</p>,,html-keyboard-response,24,214405,0.0-7.0,64748,List1A,black,man,,,,null,,,,
2913,<p><b>Answer:</b> kate is meeting beth</p>,0,html-button-response,25,217320,0.0-8.0,64748,List1A,black,man,,,,,,,,
null,<img src='img/look_eg.gif' style='height:400px;''></img>,,html-keyboard-response,26,220324,0.0-9.0,64748,List1A,black,man,,,,null,,,,
null,<p>are looking at each other</p>,,html-keyboard-response,27,222326,0.0-10.0,64748,List1A,black,man,,,,null,,,,
2471,<p><b>Answer:</b> luke and dave are looking at each other</p>,0,html-button-response,28,224799,0.0-11.0,64748,List1A,black,man,,,,,,,,
9052,"<p>Ready to start the experiment?</p><br><p><strong>Remember to describe the picture using a full sentence,</strong></p><p><strong>that combines the names of the people with the <i>exact</i> phrase given.</strong></p><p><strong>To receive full payment you must do this correctly.</strong></p><p><strong> You do not need to capitalise names or use punctuation.</strong></p><br><p>Press 'Continue' to begin.</p>",0,html-button-response,29,234854,0.0-12.0,64748,List1A,black,man,,,,,,,,
null,"<div style=""font-size:60px;"">+</div>",,html-keyboard-response,30,236358,0.0-13.0-0.0,64748,List1A,black,man,,,,null,,,,
null,"<img src=""stim_listA/marry7.gif""style=""height:400px;""></stim_listA>",,html-keyboard-response,31,238366,0.0-13.0-1.0,64748,List1A,black,man,,,,null,,,,
null,is marrying,,html-keyboard-response,32,240369,0.0-13.0-2.0,64748,List1A,black,man,,,,null,,,,
10648,,,survey-text,33,251020,0.0-13.0-3.0,64748,List1A,black,man,,,,,"{""Q0"":""Kate is marrying Ruth.""}","<img src=""stim_listA/marry7.gif""style=""height:400px;""></stim_listA>",is marrying,
null,"<div style=""font-size:60px;"">+</div>",,html-keyboard-response,34,251524,0.0-13.0-0.1,64748,List1A,black,man,,,,null,,,,
null,"<img src=""stim_listA/flirt8.gif""style=""height:400px;""></stim_listA>",,html-keyboard-response,35,253526,0.0-13.0-1.1,64748,List1A,black,man,,,,null,,,,
null,are flirting with each other,,html-keyboard-response,36,255528,0.0-13.0-2.1,64748,List1A,black,man,,,,null,,,,
11247,,,survey-text,37,266777,0.0-13.0-3.1,64748,List1A,black,man,,,,,"{""Q0"":""Kate and Ruth are flirting with each other.""}","<img src=""stim_listA/flirt8.gif""style=""height:400px;""></stim_listA>",are flirting with each other,
null,"<div style=""font-size:60px;"">+</div>",,html-keyboard-response,38,267284,0.0-13.0-0.2,64748,List1A,black,man,,,,null,,,,
null,"<img src=""stim_listA/play4.gif""style=""height:400px;""></stim_listA>",,html-keyboard-response,39,269287,0.0-13.0-1.2,64748,List1A,black,man,,,,null,,,,
null,are playing with each other,,html-keyboard-response,40,271289,0.0-13.0-2.2,64748,List1A,black,man,,,,null,,,,
11019,,,survey-text,41,282311,0.0-13.0-3.2,64748,List1A,black,man,,,,,"{""Q0"":""Luke and Ruth are playing with each other.""}","<img src=""stim_listA/play4.gif""style=""height:400px;""></stim_listA>",are playing with each other,
null,"<div style=""font-size:60px;"">+</div>",,html-keyboard-response,42,282814,0.0-13.0-0.3,64748,List1A,black,man,,,,null,,,,
null,"<img src=""stim_listA/talk4.gif""style=""height:400px;""></stim_listA>",,html-keyboard-response,43,284820,0.0-13.0-1.3,64748,List1A,black,man,,,,null,,,,
null,are talking to each other,,html-keyboard-response,44,286823,0.0-13.0-2.3,64748,List1A,black,man,,,,null,,,,
8748,,,survey-text,45,295573,0.0-13.0-3.3,64748,List1A,black,man,,,,,"{""Q0"":""Ruth and Dave are talking to each other.""}","<img src=""stim_listA/talk4.gif""style=""height:400px;""></stim_listA>",are talking to each other,
null,"<div style=""font-size:60px;"">+</div>",,html-keyboard-response,46,296076,0.0-13.0-0.4,64748,List1A,black,man,,,,null,,,,
null,"<img src=""stim_listA/play7.gif""style=""height:400px;""></stim_listA>",,html-keyboard-response,47,298079,0.0-13.0-1.4,64748,List1A,black,man,,,,null,,,,
null,is playing with,,html-keyboard-response,48,300081,0.0-13.0-2.4,64748,List1A,black,man,,,,null,,,,
8664,,,survey-text,49,308748,0.0-13.0-3.4,64748,List1A,black,man,,,,,"{""Q0"":""Jane is playing with Kate.""}","<img src=""stim_listA/play7.gif""style=""height:400px;""></stim_listA>",is playing with,
null,"<div style=""font-size:60px;"">+</div>",,html-keyboard-response,50,309250,0.0-13.0-0.5,64748,List1A,black,man,,,,null,,,,
null,"<img src=""stim_listA/fight5.gif""style=""height:400px;""></stim_listA>",,html-keyboard-response,51,311254,0.0-13.0-1.5,64748,List1A,black,man,,,,null,,,,
null,is fighting,,html-keyboard-response,52,313256,0.0-13.0-2.5,64748,List1A,black,man,,,,null,,,,
7535,,,survey-text,53,320793,0.0-13.0-3.5,64748,List1A,black,man,,,,,"{""Q0"":""Mike is fighting Dave.""}","<img src=""stim_listA/fight5.gif""style=""height:400px;""></stim_listA>",is fighting,
null,"<div style=""font-size:60px;"">+</div>",,html-keyboard-response,54,321296,0.0-13.0-0.6,64748,List1A,black,man,,,,null,,,,
null,"<img src=""stim_listA/fight3.gif""style=""height:400px;""></stim_listA>",,html-keyboard-response,55,323299,0.0-13.0-1.6,64748,List1A,black,man,,,,null,,,,
null,is fighting,,html-keyboard-response,56,325305,0.0-13.0-2.6,64748,List1A,black,man,,,,null,,,,
5981,,,survey-text,57,331289,0.0-13.0-3.6,64748,List1A,black,man,,,,,"{""Q0"":""Jane is fighting Dave.""}","<img src=""stim_listA/fight3.gif""style=""height:400px;""></stim_listA>",is fighting,
null,"<div style=""font-size:60px;"">+</div>",,html-keyboard-response,58,331792,0.0-13.0-0.7,64748,List1A,black,man,,,,null,,,,
null,"<img src=""stim_listA/flirt1.gif""style=""height:400px;""></stim_listA>",,html-keyboard-response,59,333799,0.0-13.0-1.7,64748,List1A,black,man,,,,null,,,,
null,is flirting with,,html-keyboard-response,60,335801,0.0-13.0-2.7,64748,List1A,black,man,,,,null,,,,
7243,,,survey-text,61,343047,0.0-13.0-3.7,64748,List1A,black,man,,,,,"{""Q0"":""Kate is flirting with fred.""}","<img src=""stim_listA/flirt1.gif""style=""height:400px;""></stim_listA>",is flirting with,
null,"<div style=""font-size:60px;"">+</div>",,html-keyboard-response,62,343549,0.0-13.0-0.8,64748,List1A,black,man,,,,null,,,,
null,"<img src=""stim_listA/flirt3.gif""style=""height:400px;""></stim_listA>",,html-keyboard-response,63,345554,0.0-13.0-1.8,64748,List1A,black,man,,,,null,,,,
null,is flirting with,,html-keyboard-response,64,347556,0.0-13.0-2.8,64748,List1A,black,man,,,,null,,,,
7687,,,survey-text,65,355245,0.0-13.0-3.8,64748,List1A,black,man,,,,,"{""Q0"":""Luke is flirting with Jane.""}","<img src=""stim_listA/flirt3.gif""style=""height:400px;""></stim_listA>",is flirting with,
null,"<div style=""font-size:60px;"">+</div>",,html-keyboard-response,66,355751,0.0-13.0-0.9,64748,List1A,black,man,,,,null,,,,
null,"<img src=""stim_listA/touch6.gif""style=""height:400px;""></stim_listA>",,html-keyboard-response,67,357754,0.0-13.0-1.9,64748,List1A,black,man,,,,null,,,,
null,are touching each other,,html-keyboard-response,68,359756,0.0-13.0-2.9,64748,List1A,black,man,,,,null,,,,
9782,,,survey-text,69,369540,0.0-13.0-3.9,64748,List1A,black,man,,,,,"{""Q0"":""Fred and Luke are touching each other.""}","<img src=""stim_listA/touch6.gif""style=""height:400px;""></stim_listA>",are touching each other,
null,"<div style=""font-size:60px;"">+</div>",,html-keyboard-response,70,370042,0.0-13.0-0.10,64748,List1A,black,man,,,,null,,,,
null,"<img src=""stim_listA/flirt5.gif""style=""height:400px;""></stim_listA>",,html-keyboard-response,71,372045,0.0-13.0-1.10,64748,List1A,black,man,,,,null,,,,
null,is flirting with,,html-keyboard-response,72,374048,0.0-13.0-2.10,64748,List1A,black,man,,,,null,,,,
7455,,,survey-text,73,381506,0.0-13.0-3.10,64748,List1A,black,man,,,,,"{""Q0"":""Dave is flirting with Fred.""}","<img src=""stim_listA/flirt5.gif""style=""height:400px;""></stim_listA>",is flirting with,
null,"<div style=""font-size:60px;"">+</div>",,html-keyboard-response,74,382009,0.0-13.0-0.11,64748,List1A,black,man,,,,null,,,,
null,"<img src=""stim_listA/marry8.gif""style=""height:400px;""></stim_listA>",,html-keyboard-response,75,384014,0.0-13.0-1.11,64748,List1A,black,man,,,,null,,,,
null,are marrying each other,,html-keyboard-response,76,386016,0.0-13.0-2.11,64748,List1A,black,man,,,,null,,,,
8543,,,survey-text,77,394560,0.0-13.0-3.11,64748,List1A,black,man,,,,,"{""Q0"":""Beth and Jane are marrying each other.""}","<img src=""stim_listA/marry8.gif""style=""height:400px;""></stim_listA>",are marrying each other,
null,"<div style=""font-size:60px;"">+</div>",,html-keyboard-response,78,395063,0.0-13.0-0.12,64748,List1A,black,man,,,,null,,,,
null,"<img src=""stim_listA/fight4.gif""style=""height:400px;""></stim_listA>",,html-keyboard-response,79,397066,0.0-13.0-1.12,64748,List1A,black,man,,,,null,,,,
null,are fighting each other,,html-keyboard-response,80,399068,0.0-13.0-2.12,64748,List1A,black,man,,,,null,,,,
7448,,,survey-text,81,406519,0.0-13.0-3.12,64748,List1A,black,man,,,,,"{""Q0"":""Luke and Ruth are fighting each other.""}","<img src=""stim_listA/fight4.gif""style=""height:400px;""></stim_listA>",are fighting each other,
null,"<div style=""font-size:60px;"">+</div>",,html-keyboard-response,82,407021,0.0-13.0-0.13,64748,List1A,black,man,,,,null,,,,
null,"<img src=""stim_listA/play6.gif""style=""height:400px;""></stim_listA>",,html-keyboard-response,83,409024,0.0-13.0-1.13,64748,List1A,black,man,,,,null,,,,
null,are playing with each other,,html-keyboard-response,84,411026,0.0-13.0-2.13,64748,List1A,black,man,,,,null,,,,
8634,,,survey-text,85,419662,0.0-13.0-3.13,64748,List1A,black,man,,,,,"{""Q0"":""Fred and Luke are playing with each other.""}","<img src=""stim_listA/play6.gif""style=""height:400px;""></stim_listA>",are playing with each other,
null,"<div style=""font-size:60px;"">+</div>",,html-keyboard-response,86,420165,0.0-13.0-0.14,64748,List1A,black,man,,,,null,,,,
null,"<img src=""stim_listA/shout1.gif""style=""height:400px;""></stim_listA>",,html-keyboard-response,87,422171,0.0-13.0-1.14,64748,List1A,black,man,,,,null,,,,
null,is shouting at,,html-keyboard-response,88,424174,0.0-13.0-2.14,64748,List1A,black,man,,,,null,,,,
9251,,,survey-text,89,433426,0.0-13.0-3.14,64748,List1A,black,man,,,,,"{""Q0"":""Beth is shouting at Fred.""}","<img src=""stim_listA/shout1.gif""style=""height:400px;""></stim_listA>",is shouting at,
null,"<div style=""font-size:60px;"">+</div>",,html-keyboard-response,90,433929,0.0-13.0-0.15,64748,List1A,black,man,,,,null,,,,
null,"<img src=""stim_listA/marry1.gif""style=""height:400px;""></stim_listA>",,html-keyboard-response,91,435933,0.0-13.0-1.15,64748,List1A,black,man,,,,null,,,,
null,is marrying,,html-keyboard-response,92,437936,0.0-13.0-2.15,64748,List1A,black,man,,,,null,,,,
6104,,,survey-text,93,444042,0.0-13.0-3.15,64748,List1A,black,man,,,,,"{""Q0"":""Mike is marrying Beth.""}","<img src=""stim_listA/marry1.gif""style=""height:400px;""></stim_listA>",is marrying,
null,"<div style=""font-size:60px;"">+</div>",,html-keyboard-response,94,444545,0.0-13.0-0.16,64748,List1A,black,man,,,,null,,,,
null,"<img src=""stim_listA/play8.gif""style=""height:400px;""></stim_listA>",,html-keyboard-response,95,446549,0.0-13.0-1.16,64748,List1A,black,man,,,,null,,,,
null,are playing with each other,,html-keyboard-response,96,448551,0.0-13.0-2.16,64748,List1A,black,man,,,,null,,,,
8327,,,survey-text,97,456880,0.0-13.0-3.16,64748,List1A,black,man,,,,,"{""Q0"":""Beth and Ruth are playing with each other.""}","<img src=""stim_listA/play8.gif""style=""height:400px;""></stim_listA>",are playing with each other,
null,"<div style=""font-size:60px;"">+</div>",,html-keyboard-response,98,457382,0.0-13.0-0.17,64748,List1A,black,man,,,,null,,,,
null,"<img src=""stim_listA/play1.gif""style=""height:400px;""></stim_listA>",,html-keyboard-response,99,459386,0.0-13.0-1.17,64748,List1A,black,man,,,,null,,,,
null,is playing with,,html-keyboard-response,100,461388,0.0-13.0-2.17,64748,List1A,black,man,,,,null,,,,
7529,,,survey-text,101,468918,0.0-13.0-3.17,64748,List1A,black,man,,,,,"{""Q0"":""Mike is playing with Kate.""}","<img src=""stim_listA/play1.gif""style=""height:400px;""></stim_listA>",is playing with,
null,"<div style=""font-size:60px;"">+</div>",,html-keyboard-response,102,469421,0.0-13.0-0.18,64748,List1A,black,man,,,,null,,,,
null,"<img src=""stim_listA/kiss5.gif""style=""height:400px;""></stim_listA>",,html-keyboard-response,103,471424,0.0-13.0-1.18,64748,List1A,black,man,,,,null,,,,
null,is kissing,,html-keyboard-response,104,473427,0.0-13.0-2.18,64748,List1A,black,man,,,,null,,,,
13272,,,survey-text,105,486700,0.0-13.0-3.18,64748,List1A,black,man,,,,,"{""Q0"":""Fred is kissing Luke.""}","<img src=""stim_listA/kiss5.gif""style=""height:400px;""></stim_listA>",is kissing,
null,"<div style=""font-size:60px;"">+</div>",,html-keyboard-response,106,487203,0.0-13.0-0.19,64748,List1A,black,man,,,,null,,,,
null,"<img src=""stim_listA/dance5.gif""style=""height:400px;""></stim_listA>",,html-keyboard-response,107,489212,0.0-13.0-1.19,64748,List1A,black,man,,,,null,,,,
null,is dancing with,,html-keyboard-response,108,491215,0.0-13.0-2.19,64748,List1A,black,man,,,,null,,,,
7083,,,survey-text,109,498299,0.0-13.0-3.19,64748,List1A,black,man,,,,,"{""Q0"":""Dave is dancing with Fred.""}","<img src=""stim_listA/dance5.gif""style=""height:400px;""></stim_listA>",is dancing with,
11491,"<img src='img/portrait_matrix_list1.jpg' style='width:900px;height:500px;''></img><p>If you have memorised all the portraits and names and are ready to start, press Continue.</p><p><strong>Please note: Your memory of these faces will be tested 4 times during this experiment.</strong></p>",0,html-button-response,110,509793,0.0-14.0-0.0,64748,List1A,black,man,,,,,,,,
2626,"<img src=""portrait/BM2.jpg""style=""height:400px;""></img>",5,html-button-response,111,513424,0.0-14.0-1.0,64748,List1A,black,man,,TRUE,5,,,,,
null,CORRECT,,html-keyboard-response,112,514928,0.0-14.0-2.0-0.0,64748,List1A,black,man,,,,null,,,,
2589,"<img src=""portrait/WM1.jpg""style=""height:400px;""></img>",6,html-button-response,113,517520,0.0-14.0-4.0,64748,List1A,black,man,,TRUE,6,,,,,
null,CORRECT,,html-keyboard-response,114,519023,0.0-14.0-5.0-0.0,64748,List1A,black,man,,,,null,,,,
2190,"<img src=""portrait/BW2.jpg""style=""height:400px;""></img>",2,html-button-response,115,521216,0.0-14.0-7.0,64748,List1A,black,man,,TRUE,2,,,,,
null,CORRECT,,html-keyboard-response,116,522719,0.0-14.0-8.0-0.0,64748,List1A,black,man,,,,null,,,,
2038,"<img src=""portrait/WW1.jpg""style=""height:400px;""></img>",1,html-button-response,117,524760,0.0-14.0-10.0,64748,List1A,black,man,,TRUE,1,,,,,
null,CORRECT,,html-keyboard-response,118,526264,0.0-14.0-11.0-0.0,64748,List1A,black,man,,,,null,,,,
1812,"<img src=""portrait/WM2.jpg""style=""height:400px;""></img>",7,html-button-response,119,528079,0.0-14.0-13.0,64748,List1A,black,man,,TRUE,7,,,,,
null,CORRECT,,html-keyboard-response,120,529587,0.0-14.0-14.0-0.0,64748,List1A,black,man,,,,null,,,,
1880,"<img src=""portrait/WW2.jpg""style=""height:400px;""></img>",3,html-button-response,121,531471,0.0-14.0-16.0,64748,List1A,black,man,,TRUE,3,,,,,
null,CORRECT,,html-keyboard-response,122,532975,0.0-14.0-17.0-0.0,64748,List1A,black,man,,,,null,,,,
2244,"<img src=""portrait/BM1.jpg""style=""height:400px;""></img>",4,html-button-response,123,535222,0.0-14.0-19.0,64748,List1A,black,man,,TRUE,4,,,,,
null,CORRECT,,html-keyboard-response,124,536729,0.0-14.0-20.0-0.0,64748,List1A,black,man,,,,null,,,,
1769,"<img src=""portrait/BW1.jpg""style=""height:400px;""></img>",0,html-button-response,125,538501,0.0-14.0-22.0,64748,List1A,black,man,,TRUE,0,,,,,
null,CORRECT,,html-keyboard-response,126,540004,0.0-14.0-23.0-0.0,64748,List1A,black,man,,,,null,,,,
2013,<p>You got 8 out of 8 right first time. Press Continue.</p>,0,html-button-response,127,542021,0.0-14.0-25.0,64748,List1A,black,man,,,,,,,,
null,"<div style=""font-size:60px;"">+</div>",,html-keyboard-response,128,543525,0.0-15.0-0.0,64748,List1A,black,man,,,,null,,,,
null,"<img src=""stim_listA/flirt7.gif""style=""height:400px;""></stim_listA>",,html-keyboard-response,129,545529,0.0-15.0-1.0,64748,List1A,black,man,,,,null,,,,
null,is flirting with,,html-keyboard-response,130,547530,0.0-15.0-2.0,64748,List1A,black,man,,,,null,,,,
8294,,,survey-text,131,555827,0.0-15.0-3.0,64748,List1A,black,man,,,,,"{""Q0"":""Jane is flirting with Beth.""}","<img src=""stim_listA/flirt7.gif""style=""height:400px;""></stim_listA>",is flirting with,
null,"<div style=""font-size:60px;"">+</div>",,html-keyboard-response,132,556330,0.0-15.0-0.1,64748,List1A,black,man,,,,null,,,,
null,"<img src=""stim_listA/argue6.gif""style=""height:400px;""></stim_listA>",,html-keyboard-response,133,558333,0.0-15.0-1.1,64748,List1A,black,man,,,,null,,,,
null,are arguing with each other,,html-keyboard-response,134,560335,0.0-15.0-2.1,64748,List1A,black,man,,,,null,,,,
10360,,,survey-text,135,570697,0.0-15.0-3.1,64748,List1A,black,man,,,,,"{""Q0"":""Dave and Fred are arguing with each other.""}","<img src=""stim_listA/argue6.gif""style=""height:400px;""></stim_listA>",are arguing with each other,
null,"<div style=""font-size:60px;"">+</div>",,html-keyboard-response,136,571200,0.0-15.0-0.2,64748,List1A,black,man,,,,null,,,,
null,"<img src=""stim_listA/fight1.gif""style=""height:400px;""></stim_listA>",,html-keyboard-response,137,573203,0.0-15.0-1.2,64748,List1A,black,man,,,,null,,,,
null,is fighting,,html-keyboard-response,138,575207,0.0-15.0-2.2,64748,List1A,black,man,,,,null,,,,
11542,,,survey-text,139,586751,0.0-15.0-3.2,64748,List1A,black,man,,,,,"{""Q0"":""Kate is fighting Mike.""}","<img src=""stim_listA/fight1.gif""style=""height:400px;""></stim_listA>",is fighting,
null,"<div style=""font-size:60px;"">+</div>",,html-keyboard-response,140,587253,0.0-15.0-0.3,64748,List1A,black,man,,,,null,,,,
null,"<img src=""stim_listA/touch3.gif""style=""height:400px;""></stim_listA>",,html-keyboard-response,141,589257,0.0-15.0-1.3,64748,List1A,black,man,,,,null,,,,
null,is touching,,html-keyboard-response,142,591259,0.0-15.0-2.3,64748,List1A,black,man,,,,null,,,,
5689,,,survey-text,143,596950,0.0-15.0-3.3,64748,List1A,black,man,,,,,"{""Q0"":""Jane is touching Dave.""}","<img src=""stim_listA/touch3.gif""style=""height:400px;""></stim_listA>",is touching,
null,"<div style=""font-size:60px;"">+</div>",,html-keyboard-response,144,597452,0.0-15.0-0.4,64748,List1A,black,man,,,,null,,,,
null,"<img src=""stim_listA/marry6.gif""style=""height:400px;""></stim_listA>",,html-keyboard-response,145,599455,0.0-15.0-1.4,64748,List1A,black,man,,,,null,,,,
null,are marrying each other,,html-keyboard-response,146,601458,0.0-15.0-2.4,64748,List1A,black,man,,,,null,,,,
10000,,,survey-text,147,611460,0.0-15.0-3.4,64748,List1A,black,man,,,,,"{""Q0"":""Fred and Dave are marrying each other.""}","<img src=""stim_listA/marry6.gif""style=""height:400px;""></stim_listA>",are marrying each other,
null,"<div style=""font-size:60px;"">+</div>",,html-keyboard-response,148,611962,0.0-15.0-0.5,64748,List1A,black,man,,,,null,,,,
null,"<img src=""stim_listA/play2.gif""style=""height:400px;""></stim_listA>",,html-keyboard-response,149,613966,0.0-15.0-1.5,64748,List1A,black,man,,,,null,,,,
null,are playing with each other,,html-keyboard-response,150,615968,0.0-15.0-2.5,64748,List1A,black,man,,,,null,,,,
9672,,,survey-text,151,625642,0.0-15.0-3.5,64748,List1A,black,man,,,,,"{""Q0"":""Beth and Fred are playing with each other.""}","<img src=""stim_listA/play2.gif""style=""height:400px;""></stim_listA>",are playing with each other,
null,"<div style=""font-size:60px;"">+</div>",,html-keyboard-response,152,626145,0.0-15.0-0.6,64748,List1A,black,man,,,,null,,,,
null,"<img src=""stim_listA/marry5.gif""style=""height:400px;""></stim_listA>",,html-keyboard-response,153,628149,0.0-15.0-1.6,64748,List1A,black,man,,,,null,,,,
null,is marrying,,html-keyboard-response,154,630151,0.0-15.0-2.6,64748,List1A,black,man,,,,null,,,,
7014,,,survey-text,155,637168,0.0-15.0-3.6,64748,List1A,black,man,,,,,"{""Q0"":""Mike is marrying Luke.""}","<img src=""stim_listA/marry5.gif""style=""height:400px;""></stim_listA>",is marrying,
null,"<div style=""font-size:60px;"">+</div>",,html-keyboard-response,156,637672,0.0-15.0-0.7,64748,List1A,black,man,,,,null,,,,
null,"<img src=""stim_listA/kiss3.gif""style=""height:400px;""></stim_listA>",,html-keyboard-response,157,639675,0.0-15.0-1.7,64748,List1A,black,man,,,,null,,,,
null,is kissing,,html-keyboard-response,158,641678,0.0-15.0-2.7,64748,List1A,black,man,,,,null,,,,
6903,,,survey-text,159,648583,0.0-15.0-3.7,64748,List1A,black,man,,,,,"{""Q0"":""Ruth is kissing Luke.""}","<img src=""stim_listA/kiss3.gif""style=""height:400px;""></stim_listA>",is kissing,
null,"<div style=""font-size:60px;"">+</div>",,html-keyboard-response,160,649085,0.0-15.0-0.8,64748,List1A,black,man,,,,null,,,,
null,"<img src=""stim_listA/argue5.gif""style=""height:400px;""></stim_listA>",,html-keyboard-response,161,651088,0.0-15.0-1.8,64748,List1A,black,man,,,,null,,,,
null,is arguing with,,html-keyboard-response,162,653090,0.0-15.0-2.8,64748,List1A,black,man,,,,null,,,,
6673,,,survey-text,163,659765,0.0-15.0-3.8,64748,List1A,black,man,,,,,"{""Q0"":""Luke is arguing with Mike.""}","<img src=""stim_listA/argue5.gif""style=""height:400px;""></stim_listA>",is arguing with,
null,"<div style=""font-size:60px;"">+</div>",,html-keyboard-response,164,660268,0.0-15.0-0.9,64748,List1A,black,man,,,,null,,,,
null,"<img src=""stim_listA/shout8.gif""style=""height:400px;""></stim_listA>",,html-keyboard-response,165,662273,0.0-15.0-1.9,64748,List1A,black,man,,,,null,,,,
null,are shouting at each other,,html-keyboard-response,166,664275,0.0-15.0-2.9,64748,List1A,black,man,,,,null,,,,
9047,,,survey-text,167,673323,0.0-15.0-3.9,64748,List1A,black,man,,,,,"{""Q0"":""Jane and Kate are shouting at each other.""}","<img src=""stim_listA/shout8.gif""style=""height:400px;""></stim_listA>",are shouting at each other,
null,"<div style=""font-size:60px;"">+</div>",,html-keyboard-response,168,673828,0.0-15.0-0.10,64748,List1A,black,man,,,,null,,,,
null,"<img src=""stim_listA/argue8.gif""style=""height:400px;""></stim_listA>",,html-keyboard-response,169,675831,0.0-15.0-1.10,64748,List1A,black,man,,,,null,,,,
null,are arguing with each other,,html-keyboard-response,170,677834,0.0-15.0-2.10,64748,List1A,black,man,,,,null,,,,
9998,,,survey-text,171,687834,0.0-15.0-3.10,64748,List1A,black,man,,,,,"{""Q0"":""Beth and Jane are arguing with each other.""}","<img src=""stim_listA/argue8.gif""style=""height:400px;""></stim_listA>",are arguing with each other,
null,"<div style=""font-size:60px;"">+</div>",,html-keyboard-response,172,688337,0.0-15.0-0.11,64748,List1A,black,man,,,,null,,,,
null,"<img src=""stim_listA/dance6.gif""style=""height:400px;""></stim_listA>",,html-keyboard-response,173,690341,0.0-15.0-1.11,64748,List1A,black,man,,,,null,,,,
null,are dancing with each other,,html-keyboard-response,174,692347,0.0-15.0-2.11,64748,List1A,black,man,,,,null,,,,
8931,,,survey-text,175,701280,0.0-15.0-3.11,64748,List1A,black,man,,,,,"{""Q0"":""Mike and Luke are dancing with each other.""}","<img src=""stim_listA/dance6.gif""style=""height:400px;""></stim_listA>",are dancing with each other,
null,"<div style=""font-size:60px;"">+</div>",,html-keyboard-response,176,701783,0.0-15.0-0.12,64748,List1A,black,man,,,,null,,,,
null,"<img src=""stim_listA/argue2.gif""style=""height:400px;""></stim_listA>",,html-keyboard-response,177,703787,0.0-15.0-1.12,64748,List1A,black,man,,,,null,,,,
null,are arguing with each other,,html-keyboard-response,178,705788,0.0-15.0-2.12,64748,List1A,black,man,,,,null,,,,
11903,,,survey-text,179,717693,0.0-15.0-3.12,64748,List1A,black,man,,,,,"{""Q0"":""Kate and Fred are arguing with each other.""}","<img src=""stim_listA/argue2.gif""style=""height:400px;""></stim_listA>",are arguing with each other,
null,"<div style=""font-size:60px;"">+</div>",,html-keyboard-response,180,718196,0.0-15.0-0.13,64748,List1A,black,man,,,,null,,,,
null,"<img src=""stim_listA/argue3.gif""style=""height:400px;""></stim_listA>",,html-keyboard-response,181,720200,0.0-15.0-1.13,64748,List1A,black,man,,,,null,,,,
null,is arguing with,,html-keyboard-response,182,722202,0.0-15.0-2.13,64748,List1A,black,man,,,,null,,,,
7712,,,survey-text,183,729916,0.0-15.0-3.13,64748,List1A,black,man,,,,,"{""Q0"":""Dave is arguing with Ruth.""}","<img src=""stim_listA/argue3.gif""style=""height:400px;""></stim_listA>",is arguing with,
null,"<div style=""font-size:60px;"">+</div>",,html-keyboard-response,184,730420,0.0-15.0-0.14,64748,List1A,black,man,,,,null,,,,
null,"<img src=""stim_listA/kiss6.gif""style=""height:400px;""></stim_listA>",,html-keyboard-response,185,732424,0.0-15.0-1.14,64748,List1A,black,man,,,,null,,,,
null,are kissing each other,,html-keyboard-response,186,734427,0.0-15.0-2.14,64748,List1A,black,man,,,,null,,,,
10813,,,survey-text,187,745242,0.0-15.0-3.14,64748,List1A,black,man,,,,,"{""Q0"":""Dave and Mike are kissing each other.""}","<img src=""stim_listA/kiss6.gif""style=""height:400px;""></stim_listA>",are kissing each other,
null,"<div style=""font-size:60px;"">+</div>",,html-keyboard-response,188,745744,0.0-15.0-0.15,64748,List1A,black,man,,,,null,,,,
null,"<img src=""stim_listA/shout3.gif""style=""height:400px;""></stim_listA>",,html-keyboard-response,189,747749,0.0-15.0-1.15,64748,List1A,black,man,,,,null,,,,
null,is shouting at,,html-keyboard-response,190,749753,0.0-15.0-2.15,64748,List1A,black,man,,,,null,,,,
7678,,,survey-text,191,757433,0.0-15.0-3.15,64748,List1A,black,man,,,,,"{""Q0"":""Ruth is shouting at Luke.""}","<img src=""stim_listA/shout3.gif""style=""height:400px;""></stim_listA>",is shouting at,
null,"<div style=""font-size:60px;"">+</div>",,html-keyboard-response,192,757935,0.0-15.0-0.16,64748,List1A,black,man,,,,null,,,,
null,"<img src=""stim_listA/fight8.gif""style=""height:400px;""></stim_listA>",,html-keyboard-response,193,759938,0.0-15.0-1.16,64748,List1A,black,man,,,,null,,,,
null,are fighting each other,,html-keyboard-response,194,761944,0.0-15.0-2.16,64748,List1A,black,man,,,,null,,,,
9532,,,survey-text,195,771479,0.0-15.0-3.16,64748,List1A,black,man,,,,,"{""Q0"":""Beth and Ruth are fighting each other.""}","<img src=""stim_listA/fight8.gif""style=""height:400px;""></stim_listA>",are fighting each other,
null,"<div style=""font-size:60px;"">+</div>",,html-keyboard-response,196,771981,0.0-15.0-0.17,64748,List1A,black,man,,,,null,,,,
null,"<img src=""stim_listA/dance4.gif""style=""height:400px;""></stim_listA>",,html-keyboard-response,197,773985,0.0-15.0-1.17,64748,List1A,black,man,,,,null,,,,
null,are dancing with each other,,html-keyboard-response,198,775987,0.0-15.0-2.17,64748,List1A,black,man,,,,null,,,,
8776,,,survey-text,199,784765,0.0-15.0-3.17,64748,List1A,black,man,,,,,"{""Q0"":""Dave and Ruth are dancing with each other.""}","<img src=""stim_listA/dance4.gif""style=""height:400px;""></stim_listA>",are dancing with each other,
null,"<div style=""font-size:60px;"">+</div>",,html-keyboard-response,200,785267,0.0-15.0-0.18,64748,List1A,black,man,,,,null,,,,
null,"<img src=""stim_listA/fight7.gif""style=""height:400px;""></stim_listA>",,html-keyboard-response,201,787274,0.0-15.0-1.18,64748,List1A,black,man,,,,null,,,,
null,is fighting,,html-keyboard-response,202,789278,0.0-15.0-2.18,64748,List1A,black,man,,,,null,,,,
7755,,,survey-text,203,797035,0.0-15.0-3.18,64748,List1A,black,man,,,,,"{""Q0"":""Jane is fighting Kate.""}","<img src=""stim_listA/fight7.gif""style=""height:400px;""></stim_listA>",is fighting,
null,"<div style=""font-size:60px;"">+</div>",,html-keyboard-response,204,797538,0.0-15.0-0.19,64748,List1A,black,man,,,,null,,,,
null,"<img src=""stim_listA/talk7.gif""style=""height:400px;""></stim_listA>",,html-keyboard-response,205,799543,0.0-15.0-1.19,64748,List1A,black,man,,,,null,,,,
null,is talking to,,html-keyboard-response,206,801544,0.0-15.0-2.19,64748,List1A,black,man,,,,null,,,,
5551,,,survey-text,207,807098,0.0-15.0-3.19,64748,List1A,black,man,,,,,"{""Q0"":""Beth is talking to Jane.""}","<img src=""stim_listA/talk7.gif""style=""height:400px;""></stim_listA>",is talking to,
8469,"<img src='img/portrait_matrix_list1.jpg' style='width:900px;height:500px;''></img><p>If you have memorised all the portraits and names and are ready to start, press Continue.</p><p><strong>Please note: Your memory of these faces will be tested 4 times during this experiment.</strong></p>",0,html-button-response,208,815569,0.0-16.0-0.0,64748,List1A,black,man,,,,,,,,
2100,"<img src=""portrait/BW1.jpg""style=""height:400px;""></img>",0,html-button-response,209,818672,0.0-16.0-1.0,64748,List1A,black,man,,TRUE,0,,,,,
null,CORRECT,,html-keyboard-response,210,820176,0.0-16.0-2.0-0.0,64748,List1A,black,man,,,,null,,,,
2150,"<img src=""portrait/BM1.jpg""style=""height:400px;""></img>",4,html-button-response,211,822328,0.0-16.0-4.0,64748,List1A,black,man,,TRUE,4,,,,,
null,CORRECT,,html-keyboard-response,212,823832,0.0-16.0-5.0-0.0,64748,List1A,black,man,,,,null,,,,
2116,"<img src=""portrait/WW1.jpg""style=""height:400px;""></img>",1,html-button-response,213,825952,0.0-16.0-7.0,64748,List1A,black,man,,TRUE,1,,,,,
null,CORRECT,,html-keyboard-response,214,827456,0.0-16.0-8.0-0.0,64748,List1A,black,man,,,,null,,,,
2189,"<img src=""portrait/WW2.jpg""style=""height:400px;""></img>",3,html-button-response,215,829647,0.0-16.0-10.0,64748,List1A,black,man,,TRUE,3,,,,,
null,CORRECT,,html-keyboard-response,216,831151,0.0-16.0-11.0-0.0,64748,List1A,black,man,,,,null,,,,
1981,"<img src=""portrait/WM2.jpg""style=""height:400px;""></img>",7,html-button-response,217,833134,0.0-16.0-13.0,64748,List1A,black,man,,TRUE,7,,,,,
null,CORRECT,,html-keyboard-response,218,834639,0.0-16.0-14.0-0.0,64748,List1A,black,man,,,,null,,,,
2548,"<img src=""portrait/WM1.jpg""style=""height:400px;""></img>",6,html-button-response,219,837190,0.0-16.0-16.0,64748,List1A,black,man,,TRUE,6,,,,,
null,CORRECT,,html-keyboard-response,220,838694,0.0-16.0-17.0-0.0,64748,List1A,black,man,,,,null,,,,
2365,"<img src=""portrait/BM2.jpg""style=""height:400px;""></img>",5,html-button-response,221,841061,0.0-16.0-19.0,64748,List1A,black,man,,TRUE,5,,,,,
null,CORRECT,,html-keyboard-response,222,842564,0.0-16.0-20.0-0.0,64748,List1A,black,man,,,,null,,,,
1910,"<img src=""portrait/BW2.jpg""style=""height:400px;""></img>",2,html-button-response,223,844477,0.0-16.0-22.0,64748,List1A,black,man,,TRUE,2,,,,,
null,CORRECT,,html-keyboard-response,224,845981,0.0-16.0-23.0-0.0,64748,List1A,black,man,,,,null,,,,
6212,<p>You got 8 out of 8 right first time. Press Continue.</p>,0,html-button-response,225,852196,0.0-16.0-25.0,64748,List1A,black,man,,,,,,,,
null,"<div style=""font-size:60px;"">+</div>",,html-keyboard-response,226,853700,0.0-17.0-0.0,64748,List1A,black,man,,,,null,,,,
null,"<img src=""stim_listA/marry3.gif""style=""height:400px;""></stim_listA>",,html-keyboard-response,227,855703,0.0-17.0-1.0,64748,List1A,black,man,,,,null,,,,
null,is marrying,,html-keyboard-response,228,857705,0.0-17.0-2.0,64748,List1A,black,man,,,,null,,,,
7247,,,survey-text,229,864954,0.0-17.0-3.0,64748,List1A,black,man,,,,,"{""Q0"":""Dave is marrying Ruth.""}","<img src=""stim_listA/marry3.gif""style=""height:400px;""></stim_listA>",is marrying,
null,"<div style=""font-size:60px;"">+</div>",,html-keyboard-response,230,865457,0.0-17.0-0.1,64748,List1A,black,man,,,,null,,,,
null,"<img src=""stim_listA/shout2.gif""style=""height:400px;""></stim_listA>",,html-keyboard-response,231,867460,0.0-17.0-1.1,64748,List1A,black,man,,,,null,,,,
null,are shouting at each other,,html-keyboard-response,232,869463,0.0-17.0-2.1,64748,List1A,black,man,,,,null,,,,
7920,,,survey-text,233,877385,0.0-17.0-3.1,64748,List1A,black,man,,,,,"{""Q0"":""Kate and Mike are shouting at each other.""}","<img src=""stim_listA/shout2.gif""style=""height:400px;""></stim_listA>",are shouting at each other,
null,"<div style=""font-size:60px;"">+</div>",,html-keyboard-response,234,877887,0.0-17.0-0.2,64748,List1A,black,man,,,,null,,,,
null,"<img src=""stim_listA/touch4.gif""style=""height:400px;""></stim_listA>",,html-keyboard-response,235,879890,0.0-17.0-1.2,64748,List1A,black,man,,,,null,,,,
null,are touching each other,,html-keyboard-response,236,881892,0.0-17.0-2.2,64748,List1A,black,man,,,,null,,,,
9096,,,survey-text,237,890991,0.0-17.0-3.2,64748,List1A,black,man,,,,,"{""Q0"":""Luke and Ruth are touching each other.""}","<img src=""stim_listA/touch4.gif""style=""height:400px;""></stim_listA>",are touching each other,
null,"<div style=""font-size:60px;"">+</div>",,html-keyboard-response,238,891493,0.0-17.0-0.3,64748,List1A,black,man,,,,null,,,,
null,"<img src=""stim_listA/shout6.gif""style=""height:400px;""></stim_listA>",,html-keyboard-response,239,893496,0.0-17.0-1.3,64748,List1A,black,man,,,,null,,,,
null,are shouting at each other,,html-keyboard-response,240,895498,0.0-17.0-2.3,64748,List1A,black,man,,,,null,,,,
9769,,,survey-text,241,905269,0.0-17.0-3.3,64748,List1A,black,man,,,,,"{""Q0"":""Dave and Mike are shouting at each other.""}","<img src=""stim_listA/shout6.gif""style=""height:400px;""></stim_listA>",are shouting at each other,
null,"<div style=""font-size:60px;"">+</div>",,html-keyboard-response,242,905771,0.0-17.0-0.4,64748,List1A,black,man,,,,null,,,,
null,"<img src=""stim_listA/touch8.gif""style=""height:400px;""></stim_listA>",,html-keyboard-response,243,907774,0.0-17.0-1.4,64748,List1A,black,man,,,,null,,,,
null,are touching each other,,html-keyboard-response,244,909783,0.0-17.0-2.4,64748,List1A,black,man,,,,null,,,,
9682,,,survey-text,245,919467,0.0-17.0-3.4,64748,List1A,black,man,,,,,"{""Q0"":""Beth and Ruth are touching each other.""}","<img src=""stim_listA/touch8.gif""style=""height:400px;""></stim_listA>",are touching each other,
null,"<div style=""font-size:60px;"">+</div>",,html-keyboard-response,246,919970,0.0-17.0-0.5,64748,List1A,black,man,,,,null,,,,
null,"<img src=""stim_listA/play3.gif""style=""height:400px;""></stim_listA>",,html-keyboard-response,247,921975,0.0-17.0-1.5,64748,List1A,black,man,,,,null,,,,
null,is playing with,,html-keyboard-response,248,923976,0.0-17.0-2.5,64748,List1A,black,man,,,,null,,,,
6591,,,survey-text,249,930569,0.0-17.0-3.5,64748,List1A,black,man,,,,,"{""Q0"":""Dave is playing with Jane.""}","<img src=""stim_listA/play3.gif""style=""height:400px;""></stim_listA>",is playing with,
null,"<div style=""font-size:60px;"">+</div>",,html-keyboard-response,250,931072,0.0-17.0-0.6,64748,List1A,black,man,,,,null,,,,
null,"<img src=""stim_listA/dance7.gif""style=""height:400px;""></stim_listA>",,html-keyboard-response,251,933074,0.0-17.0-1.6,64748,List1A,black,man,,,,null,,,,
null,is dancing with,,html-keyboard-response,252,935077,0.0-17.0-2.6,64748,List1A,black,man,,,,null,,,,
6137,,,survey-text,253,941217,0.0-17.0-3.6,64748,List1A,black,man,,,,,"{""Q0"":""Beth is dancing with Jane.""}","<img src=""stim_listA/dance7.gif""style=""height:400px;""></stim_listA>",is dancing with,
null,"<div style=""font-size:60px;"">+</div>",,html-keyboard-response,254,941721,0.0-17.0-0.7,64748,List1A,black,man,,,,null,,,,
null,"<img src=""stim_listA/touch2.gif""style=""height:400px;""></stim_listA>",,html-keyboard-response,255,943725,0.0-17.0-1.7,64748,List1A,black,man,,,,null,,,,
null,are touching each other,,html-keyboard-response,256,945726,0.0-17.0-2.7,64748,List1A,black,man,,,,null,,,,
8725,,,survey-text,257,954454,0.0-17.0-3.7,64748,List1A,black,man,,,,,"{""Q0"":""Fred and Beth are touching each other.""}","<img src=""stim_listA/touch2.gif""style=""height:400px;""></stim_listA>",are touching each other,
null,"<div style=""font-size:60px;"">+</div>",,html-keyboard-response,258,954957,0.0-17.0-0.8,64748,List1A,black,man,,,,null,,,,
null,"<img src=""stim_listA/argue1.gif""style=""height:400px;""></stim_listA>",,html-keyboard-response,259,956961,0.0-17.0-1.8,64748,List1A,black,man,,,,null,,,,
null,is arguing with,,html-keyboard-response,260,958963,0.0-17.0-2.8,64748,List1A,black,man,,,,null,,,,
6871,,,survey-text,261,965836,0.0-17.0-3.8,64748,List1A,black,man,,,,,"{""Q0"":""Mike is arguing with Beth.""}","<img src=""stim_listA/argue1.gif""style=""height:400px;""></stim_listA>",is arguing with,
null,"<div style=""font-size:60px;"">+</div>",,html-keyboard-response,262,966340,0.0-17.0-0.9,64748,List1A,black,man,,,,null,,,,
null,"<img src=""stim_listA/talk1.gif""style=""height:400px;""></stim_listA>",,html-keyboard-response,263,968345,0.0-17.0-1.9,64748,List1A,black,man,,,,null,,,,
null,is talking to,,html-keyboard-response,264,970347,0.0-17.0-2.9,64748,List1A,black,man,,,,null,,,,
6661,,,survey-text,265,977010,0.0-17.0-3.9,64748,List1A,black,man,,,,,"{""Q0"":""Fred is talking to Kate.""}","<img src=""stim_listA/talk1.gif""style=""height:400px;""></stim_listA>",is talking to,
null,"<div style=""font-size:60px;"">+</div>",,html-keyboard-response,266,977512,0.0-17.0-0.10,64748,List1A,black,man,,,,null,,,,
null,"<img src=""stim_listA/shout4.gif""style=""height:400px;""></stim_listA>",,html-keyboard-response,267,979517,0.0-17.0-1.10,64748,List1A,black,man,,,,null,,,,
null,are shouting at each other,,html-keyboard-response,268,981518,0.0-17.0-2.10,64748,List1A,black,man,,,,null,,,,
8338,,,survey-text,269,989857,0.0-17.0-3.10,64748,List1A,black,man,,,,,"{""Q0"":""Jane and Dave are shouting at each other.""}","<img src=""stim_listA/shout4.gif""style=""height:400px;""></stim_listA>",are shouting at each other,
null,"<div style=""font-size:60px;"">+</div>",,html-keyboard-response,270,990360,0.0-17.0-0.11,64748,List1A,black,man,,,,null,,,,
null,"<img src=""stim_listA/dance1.gif""style=""height:400px;""></stim_listA>",,html-keyboard-response,271,992365,0.0-17.0-1.11,64748,List1A,black,man,,,,null,,,,
null,is dancing with,,html-keyboard-response,272,994367,0.0-17.0-2.11,64748,List1A,black,man,,,,null,,,,
5607,,,survey-text,273,999976,0.0-17.0-3.11,64748,List1A,black,man,,,,,"{""Q0"":""Kate is dancing with Fred.""}","<img src=""stim_listA/dance1.gif""style=""height:400px;""></stim_listA>",is dancing with,
null,"<div style=""font-size:60px;"">+</div>",,html-keyboard-response,274,1000478,0.0-17.0-0.12,64748,List1A,black,man,,,,null,,,,
null,"<img src=""stim_listA/kiss7.gif""style=""height:400px;""></stim_listA>",,html-keyboard-response,275,1002483,0.0-17.0-1.12,64748,List1A,black,man,,,,null,,,,
null,is kissing,,html-keyboard-response,276,1004485,0.0-17.0-2.12,64748,List1A,black,man,,,,null,,,,
6239,,,survey-text,277,1010727,0.0-17.0-3.12,64748,List1A,black,man,,,,,"{""Q0"":""Beth is kissing Ruth.""}","<img src=""stim_listA/kiss7.gif""style=""height:400px;""></stim_listA>",is kissing,
null,"<div style=""font-size:60px;"">+</div>",,html-keyboard-response,278,1011234,0.0-17.0-0.13,64748,List1A,black,man,,,,null,,,,
null,"<img src=""stim_listA/dance8.gif""style=""height:400px;""></stim_listA>",,html-keyboard-response,279,1013237,0.0-17.0-1.13,64748,List1A,black,man,,,,null,,,,
null,are dancing with each other,,html-keyboard-response,280,1015239,0.0-17.0-2.13,64748,List1A,black,man,,,,null,,,,
9844,,,survey-text,281,1025085,0.0-17.0-3.13,64748,List1A,black,man,,,,,"{""Q0"":""Ruth and Kate are dancing with each other.""}","<img src=""stim_listA/dance8.gif""style=""height:400px;""></stim_listA>",are dancing with each other,
null,"<div style=""font-size:60px;"">+</div>",,html-keyboard-response,282,1025588,0.0-17.0-0.14,64748,List1A,black,man,,,,null,,,,
null,"<img src=""stim_listA/flirt4.gif""style=""height:400px;""></stim_listA>",,html-keyboard-response,283,1027592,0.0-17.0-1.14,64748,List1A,black,man,,,,null,,,,
null,are flirting with each other,,html-keyboard-response,284,1029595,0.0-17.0-2.14,64748,List1A,black,man,,,,null,,,,
10366,,,survey-text,285,1039963,0.0-17.0-3.14,64748,List1A,black,man,,,,,"{""Q0"":""Dave and Ruth are flirting with each other.""}","<img src=""stim_listA/flirt4.gif""style=""height:400px;""></stim_listA>",are flirting with each other,
null,"<div style=""font-size:60px;"">+</div>",,html-keyboard-response,286,1040465,0.0-17.0-0.15,64748,List1A,black,man,,,,null,,,,
null,"<img src=""stim_listA/talk2.gif""style=""height:400px;""></stim_listA>",,html-keyboard-response,287,1042469,0.0-17.0-1.15,64748,List1A,black,man,,,,null,,,,
null,are talking to each other,,html-keyboard-response,288,1044471,0.0-17.0-2.15,64748,List1A,black,man,,,,null,,,,
8959,,,survey-text,289,1053432,0.0-17.0-3.15,64748,List1A,black,man,,,,,"{""Q0"":""Mike and Beth are talking to each other.""}","<img src=""stim_listA/talk2.gif""style=""height:400px;""></stim_listA>",are talking to each other,
null,"<div style=""font-size:60px;"">+</div>",,html-keyboard-response,290,1053934,0.0-17.0-0.16,64748,List1A,black,man,,,,null,,,,
null,"<img src=""stim_listA/flirt2.gif""style=""height:400px;""></stim_listA>",,html-keyboard-response,291,1055937,0.0-17.0-1.16,64748,List1A,black,man,,,,null,,,,
null,are flirting with each other,,html-keyboard-response,292,1057939,0.0-17.0-2.16,64748,List1A,black,man,,,,null,,,,
15578,,,survey-text,293,1073518,0.0-17.0-3.16,64748,List1A,black,man,,,,,"{""Q0"":""Mike and Beth are flirting with each other.""}","<img src=""stim_listA/flirt2.gif""style=""height:400px;""></stim_listA>",are flirting with each other,
null,"<div style=""font-size:60px;"">+</div>",,html-keyboard-response,294,1074021,0.0-17.0-0.17,64748,List1A,black,man,,,,null,,,,
null,"<img src=""stim_listA/shout5.gif""style=""height:400px;""></stim_listA>",,html-keyboard-response,295,1076024,0.0-17.0-1.17,64748,List1A,black,man,,,,null,,,,
null,is shouting at,,html-keyboard-response,296,1078027,0.0-17.0-2.17,64748,List1A,black,man,,,,null,,,,
6704,,,survey-text,297,1084733,0.0-17.0-3.17,64748,List1A,black,man,,,,,"{""Q0"":""Fred is shouting at Luke.""}","<img src=""stim_listA/shout5.gif""style=""height:400px;""></stim_listA>",is shouting at,
null,"<div style=""font-size:60px;"">+</div>",,html-keyboard-response,298,1085240,0.0-17.0-0.18,64748,List1A,black,man,,,,null,,,,
null,"<img src=""stim_listA/fight2.gif""style=""height:400px;""></stim_listA>",,html-keyboard-response,299,1087244,0.0-17.0-1.18,64748,List1A,black,man,,,,null,,,,
null,are fighting each other,,html-keyboard-response,300,1089246,0.0-17.0-2.18,64748,List1A,black,man,,,,null,,,,
9035,,,survey-text,301,1098283,0.0-17.0-3.18,64748,List1A,black,man,,,,,"{""Q0"":""Beth and Fred are fighting each other.""}","<img src=""stim_listA/fight2.gif""style=""height:400px;""></stim_listA>",are fighting each other,
null,"<div style=""font-size:60px;"">+</div>",,html-keyboard-response,302,1098786,0.0-17.0-0.19,64748,List1A,black,man,,,,null,,,,
null,"<img src=""stim_listA/argue4.gif""style=""height:400px;""></stim_listA>",,html-keyboard-response,303,1100788,0.0-17.0-1.19,64748,List1A,black,man,,,,null,,,,
null,are arguing with each other,,html-keyboard-response,304,1102791,0.0-17.0-2.19,64748,List1A,black,man,,,,null,,,,
10719,,,survey-text,305,1113513,0.0-17.0-3.19,64748,List1A,black,man,,,,,"{""Q0"":""Luke and Jane are arguing with each other.""}","<img src=""stim_listA/argue4.gif""style=""height:400px;""></stim_listA>",are arguing with each other,
13115,"<img src='img/portrait_matrix_list1.jpg' style='width:900px;height:500px;''></img><p>If you have memorised all the portraits and names and are ready to start, press Continue.</p><p><strong>Please note: Your memory of these faces will be tested 4 times during this experiment.</strong></p>",0,html-button-response,306,1126632,0.0-18.0-0.0,64748,List1A,black,man,,,,,,,,
2208,"<img src=""portrait/WM1.jpg""style=""height:400px;""></img>",6,html-button-response,307,1129847,0.0-18.0-1.0,64748,List1A,black,man,,TRUE,6,,,,,
null,CORRECT,,html-keyboard-response,308,1131352,0.0-18.0-2.0-0.0,64748,List1A,black,man,,,,null,,,,
1964,"<img src=""portrait/WW2.jpg""style=""height:400px;""></img>",3,html-button-response,309,1133319,0.0-18.0-4.0,64748,List1A,black,man,,TRUE,3,,,,,
null,CORRECT,,html-keyboard-response,310,1134822,0.0-18.0-5.0-0.0,64748,List1A,black,man,,,,null,,,,
2285,"<img src=""portrait/BM1.jpg""style=""height:400px;""></img>",4,html-button-response,311,1137110,0.0-18.0-7.0,64748,List1A,black,man,,TRUE,4,,,,,
null,CORRECT,,html-keyboard-response,312,1138614,0.0-18.0-8.0-0.0,64748,List1A,black,man,,,,null,,,,
2805,"<img src=""portrait/WW1.jpg""style=""height:400px;""></img>",1,html-button-response,313,1141422,0.0-18.0-10.0,64748,List1A,black,man,,TRUE,1,,,,,
null,CORRECT,,html-keyboard-response,314,1142926,0.0-18.0-11.0-0.0,64748,List1A,black,man,,,,null,,,,
1805,"<img src=""portrait/BM2.jpg""style=""height:400px;""></img>",5,html-button-response,315,1144733,0.0-18.0-13.0,64748,List1A,black,man,,TRUE,5,,,,,
null,CORRECT,,html-keyboard-response,316,1146236,0.0-18.0-14.0-0.0,64748,List1A,black,man,,,,null,,,,
1398,"<img src=""portrait/WM2.jpg""style=""height:400px;""></img>",7,html-button-response,317,1147637,0.0-18.0-16.0,64748,List1A,black,man,,TRUE,7,,,,,
null,CORRECT,,html-keyboard-response,318,1149141,0.0-18.0-17.0-0.0,64748,List1A,black,man,,,,null,,,,
1725,"<img src=""portrait/BW1.jpg""style=""height:400px;""></img>",0,html-button-response,319,1150868,0.0-18.0-19.0,64748,List1A,black,man,,TRUE,0,,,,,
null,CORRECT,,html-keyboard-response,320,1152373,0.0-18.0-20.0-0.0,64748,List1A,black,man,,,,null,,,,
1605,"<img src=""portrait/BW2.jpg""style=""height:400px;""></img>",2,html-button-response,321,1153982,0.0-18.0-22.0,64748,List1A,black,man,,TRUE,2,,,,,
null,CORRECT,,html-keyboard-response,322,1155488,0.0-18.0-23.0-0.0,64748,List1A,black,man,,,,null,,,,
1641,<p>You got 8 out of 8 right first time. Press Continue.</p>,0,html-button-response,323,1157131,0.0-18.0-25.0,64748,List1A,black,man,,,,,,,,
null,"<div style=""font-size:60px;"">+</div>",,html-keyboard-response,324,1158635,0.0-19.0-0.0,64748,List1A,black,man,,,,null,,,,
null,"<img src=""stim_listA/marry4.gif""style=""height:400px;""></stim_listA>",,html-keyboard-response,325,1160638,0.0-19.0-1.0,64748,List1A,black,man,,,,null,,,,
null,are marrying each other,,html-keyboard-response,326,1162641,0.0-19.0-2.0,64748,List1A,black,man,,,,null,,,,
8870,,,survey-text,327,1171513,0.0-19.0-3.0,64748,List1A,black,man,,,,,"{""Q0"":""Jane and Luke are marrying each other.""}","<img src=""stim_listA/marry4.gif""style=""height:400px;""></stim_listA>",are marrying each other,
null,"<div style=""font-size:60px;"">+</div>",,html-keyboard-response,328,1172015,0.0-19.0-0.1,64748,List1A,black,man,,,,null,,,,
null,"<img src=""stim_listA/talk3.gif""style=""height:400px;""></stim_listA>",,html-keyboard-response,329,1174018,0.0-19.0-1.1,64748,List1A,black,man,,,,null,,,,
null,is talking to,,html-keyboard-response,330,1176020,0.0-19.0-2.1,64748,List1A,black,man,,,,null,,,,
6770,,,survey-text,331,1182792,0.0-19.0-3.1,64748,List1A,black,man,,,,,"{""Q0"":""Luke is talking to Jane.""}","<img src=""stim_listA/talk3.gif""style=""height:400px;""></stim_listA>",is talking to,
null,"<div style=""font-size:60px;"">+</div>",,html-keyboard-response,332,1183294,0.0-19.0-0.2,64748,List1A,black,man,,,,null,,,,
null,"<img src=""stim_listA/play5.gif""style=""height:400px;""></stim_listA>",,html-keyboard-response,333,1185298,0.0-19.0-1.2,64748,List1A,black,man,,,,null,,,,
null,is playing with,,html-keyboard-response,334,1187301,0.0-19.0-2.2,64748,List1A,black,man,,,,null,,,,
6040,,,survey-text,335,1193343,0.0-19.0-3.2,64748,List1A,black,man,,,,,"{""Q0"":""Mike is playing with Dave.""}","<img src=""stim_listA/play5.gif""style=""height:400px;""></stim_listA>",is playing with,
null,"<div style=""font-size:60px;"">+</div>",,html-keyboard-response,336,1193845,0.0-19.0-0.3,64748,List1A,black,man,,,,null,,,,
null,"<img src=""stim_listA/argue7.gif""style=""height:400px;""></stim_listA>",,html-keyboard-response,337,1195848,0.0-19.0-1.3,64748,List1A,black,man,,,,null,,,,
null,is arguing with,,html-keyboard-response,338,1197850,0.0-19.0-2.3,64748,List1A,black,man,,,,null,,,,
8377,,,survey-text,339,1206229,0.0-19.0-3.3,64748,List1A,black,man,,,,,"{""Q0"":""Ruth is arguing with Kate.""}","<img src=""stim_listA/argue7.gif""style=""height:400px;""></stim_listA>",is arguing with,
null,"<div style=""font-size:60px;"">+</div>",,html-keyboard-response,340,1206731,0.0-19.0-0.4,64748,List1A,black,man,,,,null,,,,
null,"<img src=""stim_listA/dance3.gif""style=""height:400px;""></stim_listA>",,html-keyboard-response,341,1208736,0.0-19.0-1.4,64748,List1A,black,man,,,,null,,,,
null,is dancing with,,html-keyboard-response,342,1210738,0.0-19.0-2.4,64748,List1A,black,man,,,,null,,,,
7183,,,survey-text,343,1217923,0.0-19.0-3.4,64748,List1A,black,man,,,,,"{""Q0"":""Luke is dancing with Jane.""}","<img src=""stim_listA/dance3.gif""style=""height:400px;""></stim_listA>",is dancing with,
null,"<div style=""font-size:60px;"">+</div>",,html-keyboard-response,344,1218425,0.0-19.0-0.5,64748,List1A,black,man,,,,null,,,,
null,"<img src=""stim_listA/touch5.gif""style=""height:400px;""></stim_listA>",,html-keyboard-response,345,1220429,0.0-19.0-1.5,64748,List1A,black,man,,,,null,,,,
null,is touching,,html-keyboard-response,346,1222430,0.0-19.0-2.5,64748,List1A,black,man,,,,null,,,,
9297,,,survey-text,347,1231729,0.0-19.0-3.5,64748,List1A,black,man,,,,,"{""Q0"":""Dave is touching Mike.""}","<img src=""stim_listA/touch5.gif""style=""height:400px;""></stim_listA>",is touching,
null,"<div style=""font-size:60px;"">+</div>",,html-keyboard-response,348,1232235,0.0-19.0-0.6,64748,List1A,black,man,,,,null,,,,
null,"<img src=""stim_listA/kiss8.gif""style=""height:400px;""></stim_listA>",,html-keyboard-response,349,1234240,0.0-19.0-1.6,64748,List1A,black,man,,,,null,,,,
null,are kissing each other,,html-keyboard-response,350,1236242,0.0-19.0-2.6,64748,List1A,black,man,,,,null,,,,
8276,,,survey-text,351,1244520,0.0-19.0-3.6,64748,List1A,black,man,,,,,"{""Q0"":""Kate and Jane are touching each other.""}","<img src=""stim_listA/kiss8.gif""style=""height:400px;""></stim_listA>",are kissing each other,
null,"<div style=""font-size:60px;"">+</div>",,html-keyboard-response,352,1245023,0.0-19.0-0.7,64748,List1A,black,man,,,,null,,,,
null,"<img src=""stim_listA/kiss1.gif""style=""height:400px;""></stim_listA>",,html-keyboard-response,353,1247027,0.0-19.0-1.7,64748,List1A,black,man,,,,null,,,,
null,is kissing,,html-keyboard-response,354,1249029,0.0-19.0-2.7,64748,List1A,black,man,,,,null,,,,
9055,,,survey-text,355,1258086,0.0-19.0-3.7,64748,List1A,black,man,,,,,"{""Q0"":""Fred is kissing Beth.""}","<img src=""stim_listA/kiss1.gif""style=""height:400px;""></stim_listA>",is kissing,
null,"<div style=""font-size:60px;"">+</div>",,html-keyboard-response,356,1258589,0.0-19.0-0.8,64748,List1A,black,man,,,,null,,,,
null,"<img src=""stim_listA/fight6.gif""style=""height:400px;""></stim_listA>",,html-keyboard-response,357,1260593,0.0-19.0-1.8,64748,List1A,black,man,,,,null,,,,
null,are fighting each other,,html-keyboard-response,358,1262596,0.0-19.0-2.8,64748,List1A,black,man,,,,null,,,,
8206,,,survey-text,359,1270804,0.0-19.0-3.8,64748,List1A,black,man,,,,,"{""Q0"":""Fred and Luke are fighting each other.""}","<img src=""stim_listA/fight6.gif""style=""height:400px;""></stim_listA>",are fighting each other,
null,"<div style=""font-size:60px;"">+</div>",,html-keyboard-response,360,1271307,0.0-19.0-0.9,64748,List1A,black,man,,,,null,,,,
null,"<img src=""stim_listA/dance2.gif""style=""height:400px;""></stim_listA>",,html-keyboard-response,361,1273310,0.0-19.0-1.9,64748,List1A,black,man,,,,null,,,,
null,are dancing with each other,,html-keyboard-response,362,1275319,0.0-19.0-2.9,64748,List1A,black,man,,,,null,,,,
11313,,,survey-text,363,1286635,0.0-19.0-3.9,64748,List1A,black,man,,,,,"{""Q0"":""Mike and Beth are dancing with each other.""}","<img src=""stim_listA/dance2.gif""style=""height:400px;""></stim_listA>",are dancing with each other,
null,"<div style=""font-size:60px;"">+</div>",,html-keyboard-response,364,1287138,0.0-19.0-0.10,64748,List1A,black,man,,,,null,,,,
null,"<img src=""stim_listA/touch7.gif""style=""height:400px;""></stim_listA>",,html-keyboard-response,365,1289141,0.0-19.0-1.10,64748,List1A,black,man,,,,null,,,,
null,is touching,,html-keyboard-response,366,1291143,0.0-19.0-2.10,64748,List1A,black,man,,,,null,,,,
5680,,,survey-text,367,1296825,0.0-19.0-3.10,64748,List1A,black,man,,,,,"{""Q0"":""Kate is touching Jane.""}","<img src=""stim_listA/touch7.gif""style=""height:400px;""></stim_listA>",is touching,
null,"<div style=""font-size:60px;"">+</div>",,html-keyboard-response,368,1297327,0.0-19.0-0.11,64748,List1A,black,man,,,,null,,,,
null,"<img src=""stim_listA/touch1.gif""style=""height:400px;""></stim_listA>",,html-keyboard-response,369,1299332,0.0-19.0-1.11,64748,List1A,black,man,,,,null,,,,
null,is touching,,html-keyboard-response,370,1301334,0.0-19.0-2.11,64748,List1A,black,man,,,,null,,,,
6622,,,survey-text,371,1307958,0.0-19.0-3.11,64748,List1A,black,man,,,,,"{""Q0"":""Mike is touching Kate.""}","<img src=""stim_listA/touch1.gif""style=""height:400px;""></stim_listA>",is touching,
null,"<div style=""font-size:60px;"">+</div>",,html-keyboard-response,372,1308460,0.0-19.0-0.12,64748,List1A,black,man,,,,null,,,,
null,"<img src=""stim_listA/talk5.gif""style=""height:400px;""></stim_listA>",,html-keyboard-response,373,1310463,0.0-19.0-1.12,64748,List1A,black,man,,,,null,,,,
null,is talking to,,html-keyboard-response,374,1312466,0.0-19.0-2.12,64748,List1A,black,man,,,,null,,,,
6978,,,survey-text,375,1319446,0.0-19.0-3.12,64748,List1A,black,man,,,,,"{""Q0"":""Fred is talking to Dave.""}","<img src=""stim_listA/talk5.gif""style=""height:400px;""></stim_listA>",is talking to,
null,"<div style=""font-size:60px;"">+</div>",,html-keyboard-response,376,1319948,0.0-19.0-0.13,64748,List1A,black,man,,,,null,,,,
null,"<img src=""stim_listA/marry2.gif""style=""height:400px;""></stim_listA>",,html-keyboard-response,377,1321952,0.0-19.0-1.13,64748,List1A,black,man,,,,null,,,,
null,are marrying each other,,html-keyboard-response,378,1323954,0.0-19.0-2.13,64748,List1A,black,man,,,,null,,,,
10343,,,survey-text,379,1334300,0.0-19.0-3.13,64748,List1A,black,man,,,,,"{""Q0"":""Fred and Kate are marrying each other.""}","<img src=""stim_listA/marry2.gif""style=""height:400px;""></stim_listA>",are marrying each other,
null,"<div style=""font-size:60px;"">+</div>",,html-keyboard-response,380,1334803,0.0-19.0-0.14,64748,List1A,black,man,,,,null,,,,
null,"<img src=""stim_listA/kiss2.gif""style=""height:400px;""></stim_listA>",,html-keyboard-response,381,1336806,0.0-19.0-1.14,64748,List1A,black,man,,,,null,,,,
null,are kissing each other,,html-keyboard-response,382,1338809,0.0-19.0-2.14,64748,List1A,black,man,,,,null,,,,
10694,,,survey-text,383,1349506,0.0-19.0-3.14,64748,List1A,black,man,,,,,"{""Q0"":""mike and kate are kissing each other.""}","<img src=""stim_listA/kiss2.gif""style=""height:400px;""></stim_listA>",are kissing each other,
null,"<div style=""font-size:60px;"">+</div>",,html-keyboard-response,384,1350008,0.0-19.0-0.15,64748,List1A,black,man,,,,null,,,,
null,"<img src=""stim_listA/talk8.gif""style=""height:400px;""></stim_listA>",,html-keyboard-response,385,1352011,0.0-19.0-1.15,64748,List1A,black,man,,,,null,,,,
null,are talking to each other,,html-keyboard-response,386,1354013,0.0-19.0-2.15,64748,List1A,black,man,,,,null,,,,
8137,,,survey-text,387,1362152,0.0-19.0-3.15,64748,List1A,black,man,,,,,"{""Q0"":""Ruth and Kate are talking to each other.""}","<img src=""stim_listA/talk8.gif""style=""height:400px;""></stim_listA>",are talking to each other,
null,"<div style=""font-size:60px;"">+</div>",,html-keyboard-response,388,1362655,0.0-19.0-0.16,64748,List1A,black,man,,,,null,,,,
null,"<img src=""stim_listA/talk6.gif""style=""height:400px;""></stim_listA>",,html-keyboard-response,389,1364659,0.0-19.0-1.16,64748,List1A,black,man,,,,null,,,,
null,are talking to each other,,html-keyboard-response,390,1366661,0.0-19.0-2.16,64748,List1A,black,man,,,,null,,,,
7735,,,survey-text,391,1374399,0.0-19.0-3.16,64748,List1A,black,man,,,,,"{""Q0"":""Luke and Mike are talking to each other.""}","<img src=""stim_listA/talk6.gif""style=""height:400px;""></stim_listA>",are talking to each other,
null,"<div style=""font-size:60px;"">+</div>",,html-keyboard-response,392,1374902,0.0-19.0-0.17,64748,List1A,black,man,,,,null,,,,
null,"<img src=""stim_listA/shout7.gif""style=""height:400px;""></stim_listA>",,html-keyboard-response,393,1376905,0.0-19.0-1.17,64748,List1A,black,man,,,,null,,,,
null,is shouting at,,html-keyboard-response,394,1378907,0.0-19.0-2.17,64748,List1A,black,man,,,,null,,,,
7062,,,survey-text,395,1385972,0.0-19.0-3.17,64748,List1A,black,man,,,,,"{""Q0"":""Ruth is shouting at Beth.""}","<img src=""stim_listA/shout7.gif""style=""height:400px;""></stim_listA>",is shouting at,
null,"<div style=""font-size:60px;"">+</div>",,html-keyboard-response,396,1386474,0.0-19.0-0.18,64748,List1A,black,man,,,,null,,,,
null,"<img src=""stim_listA/kiss4.gif""style=""height:400px;""></stim_listA>",,html-keyboard-response,397,1388477,0.0-19.0-1.18,64748,List1A,black,man,,,,null,,,,
null,are kissing each other,,html-keyboard-response,398,1390479,0.0-19.0-2.18,64748,List1A,black,man,,,,null,,,,
7506,,,survey-text,399,1397987,0.0-19.0-3.18,64748,List1A,black,man,,,,,"{""Q0"":""Dave and Jane are kissing each other.""}","<img src=""stim_listA/kiss4.gif""style=""height:400px;""></stim_listA>",are kissing each other,
null,"<div style=""font-size:60px;"">+</div>",,html-keyboard-response,400,1398490,0.0-19.0-0.19,64748,List1A,black,man,,,,null,,,,
null,"<img src=""stim_listA/flirt6.gif""style=""height:400px;""></stim_listA>",,html-keyboard-response,401,1400492,0.0-19.0-1.19,64748,List1A,black,man,,,,null,,,,
null,are flirting with each other,,html-keyboard-response,402,1402495,0.0-19.0-2.19,64748,List1A,black,man,,,,null,,,,
8696,,,survey-text,403,1411192,0.0-19.0-3.19,64748,List1A,black,man,,,,,"{""Q0"":""Luke and Mike are flirting with each other.""}","<img src=""stim_listA/flirt6.gif""style=""height:400px;""></stim_listA>",are flirting with each other,
3622,<p>Thank you for completing that task.</p><p>The final part of this session is a short questionnaire.</p><p>Press Continue.</p>,0,html-button-response,404,1414817,0.0-20.0,64748,List1A,black,man,,,,,,,,
333896,,,survey-text,405,1749718,0.0-21.0,64748,List1A,black,man,,,,,"{""Q0"":""30"",""Q1"":""English"",""Q2"":""English"",""Q3"":""United States"",""Q4"":""African American"",""Q5"":""Male""}",,,demographics
9666,,,survey-likert,406,1759389,0.0-22.0,64748,List1A,black,man,,,,,"{""Q0"":4}",,,likert_ESS
7034,,,survey-likert,407,1766427,0.0-23.0,64748,List1A,black,man,,,,,"{""Q0"":4}",,,likert_NSSAL_Q1
5059,,,survey-likert,408,1771491,0.0-24.0,64748,List1A,black,man,,,,,"{""Q0"":4}",,,likert_NSSAL_Q2
12129,,,survey-likert,409,1783624,0.0-25.0,64748,List1A,black,man,,,,,"{""Q0"":3}",,,likert_CGRS_Q1
3741,,,survey-likert,410,1787367,0.0-26.0,64748,List1A,black,man,,,,,"{""Q0"":4}",,,likert_CGRS_Q2
4244,,,survey-likert,411,1791615,0.0-27.0,64748,List1A,black,man,,,,,"{""Q0"":3}",,,likert_CGRS_Q3
12587,,,survey-text,412,1804206,0.0-28.0,64748,List1A,black,man,,,,,"{""Q0"":""ccc""}",,,worker_id
14219,,,external-html,413,1818947,0.0-29.0,64748,List1A,black,man,debrief.html,,,,,,,
