rt,stimulus,button_pressed,trial_type,trial_index,time_elapsed,internal_node_id,subject,list,ppt_race,ppt_gender,url,first_guess,correct,key_press,responses,image_type,phrase_type,test_part
1152,Welcome to the experiment. Press Continue to begin.,0,html-button-response,0,1154,0.0-0.0,65010,List1A,black,man,,,,,,,,
3704,,,external-html,1,5970,0.0-1.0,65010,List1A,black,man,consent.html,,,,,,,
7199,"<p>On the next page, you will see portraits of 8 people and their names.</p><p>Your first task is to take a few minutes to memorise the names of these people.</p><p>You will have to recall their names during the rest of the experiment, so it is</p><p>essential that you try to memorise these people and their names as best as you can.</p><br><p><strong>You will then be tested on your memory of these names and portraits.</strong></p><br><p>The experiment will start after you have completed this memory test.</p><br><p>Ready?</p>",0,html-button-response,2,13170,0.0-2.0,65010,List1A,black,man,,,,,,,,
38528,"<img src='img/portrait_matrix_list1.jpg' style='width:900px;height:500px;''></img><p>If you have memorised all the portraits and names and are ready to start, press Continue.</p><p><strong>Please note: Your memory of these faces will be tested 4 times during this experiment.</strong></p>",0,html-button-response,3,52713,0.0-3.0-0.0,65010,List1A,black,man,,,,,,,,
10327,"<img src=""portrait/WM2.jpg""style=""height:400px;""></img>",7,html-button-response,4,64059,0.0-3.0-1.0,65010,List1A,black,man,,TRUE,7,,,,,
null,CORRECT,,html-keyboard-response,5,65575,0.0-3.0-2.0-0.0,65010,List1A,black,man,,,,null,,,,
3144,"<img src=""portrait/BM1.jpg""style=""height:400px;""></img>",4,html-button-response,6,68721,0.0-3.0-4.0,65010,List1A,black,man,,TRUE,4,,,,,
null,CORRECT,,html-keyboard-response,7,70240,0.0-3.0-5.0-0.0,65010,List1A,black,man,,,,null,,,,
4350,"<img src=""portrait/BW1.jpg""style=""height:400px;""></img>",0,html-button-response,8,74594,0.0-3.0-7.0,65010,List1A,black,man,,TRUE,0,,,,,
null,CORRECT,,html-keyboard-response,9,76114,0.0-3.0-8.0-0.0,65010,List1A,black,man,,,,null,,,,
3518,"<img src=""portrait/BM2.jpg""style=""height:400px;""></img>",6,html-button-response,10,79633,0.0-3.0-10.0,65010,List1A,black,man,,TRUE,5,,,,,
4942,"<img src=""portrait/BM2.jpg""style=""height:400px;""></img>",5,html-button-response,11,85594,0.0-3.0-12.0-0.0,65010,List1A,black,man,,FALSE,5,,,,,
null,CORRECT,,html-keyboard-response,12,87099,0.0-3.0-12.0-1.0-0.0,65010,List1A,black,man,,,,null,,,,
6580,"<img src=""portrait/BW2.jpg""style=""height:400px;""></img>",2,html-button-response,13,93681,0.0-3.0-13.0,65010,List1A,black,man,,TRUE,2,,,,,
null,CORRECT,,html-keyboard-response,14,95191,0.0-3.0-14.0-0.0,65010,List1A,black,man,,,,null,,,,
4197,"<img src=""portrait/WW2.jpg""style=""height:400px;""></img>",3,html-button-response,15,99394,0.0-3.0-16.0,65010,List1A,black,man,,TRUE,3,,,,,
null,CORRECT,,html-keyboard-response,16,100913,0.0-3.0-17.0-0.0,65010,List1A,black,man,,,,null,,,,
4678,"<img src=""portrait/WW1.jpg""style=""height:400px;""></img>",1,html-button-response,17,105594,0.0-3.0-19.0,65010,List1A,black,man,,TRUE,1,,,,,
null,CORRECT,,html-keyboard-response,18,107111,0.0-3.0-20.0-0.0,65010,List1A,black,man,,,,null,,,,
2016,"<img src=""portrait/WM1.jpg""style=""height:400px;""></img>",6,html-button-response,19,109129,0.0-3.0-22.0,65010,List1A,black,man,,TRUE,6,,,,,
null,CORRECT,,html-keyboard-response,20,110660,0.0-3.0-23.0-0.0,65010,List1A,black,man,,,,null,,,,
1771,<p>You got 7 out of 8 right first time. Press Continue.</p>,0,html-button-response,21,112434,0.0-3.0-25.0,65010,List1A,black,man,,,,,,,,
3118,"As you did not score 100%, the memory game will repeat. Press Continue.",0,html-button-response,22,116553,0.0-3.0-26.0-0.0,65010,List1A,black,man,,,,,,,,
4123,"<img src='img/portrait_matrix_list1.jpg' style='width:900px;height:500px;''></img><p>If you have memorised all the portraits and names and are ready to start, press Continue.</p><p><strong>Please note: Your memory of these faces will be tested 4 times during this experiment.</strong></p>",0,html-button-response,23,121681,0.0-3.1-0.1,65010,List1A,black,man,,,,,,,,
2045,"<img src=""portrait/WM2.jpg""style=""height:400px;""></img>",7,html-button-response,24,124746,0.0-3.1-1.1,65010,List1A,black,man,,TRUE,7,,,,,
null,CORRECT,,html-keyboard-response,25,126267,0.0-3.1-2.1-0.1,65010,List1A,black,man,,,,null,,,,
114717,"<img src=""portrait/BM1.jpg""style=""height:400px;""></img>",4,html-button-response,26,240986,0.0-3.1-4.1,65010,List1A,black,man,,TRUE,4,,,,,
null,CORRECT,,html-keyboard-response,27,242505,0.0-3.1-5.1-0.1,65010,List1A,black,man,,,,null,,,,
5150,"<img src=""portrait/BW1.jpg""style=""height:400px;""></img>",0,html-button-response,28,247657,0.0-3.1-7.1,65010,List1A,black,man,,TRUE,0,,,,,
null,CORRECT,,html-keyboard-response,29,249175,0.0-3.1-8.1-0.1,65010,List1A,black,man,,,,null,,,,
3079,"<img src=""portrait/BM2.jpg""style=""height:400px;""></img>",5,html-button-response,30,252257,0.0-3.1-10.1,65010,List1A,black,man,,TRUE,5,,,,,
null,CORRECT,,html-keyboard-response,31,253776,0.0-3.1-11.1-0.1,65010,List1A,black,man,,,,null,,,,
2736,"<img src=""portrait/BW2.jpg""style=""height:400px;""></img>",2,html-button-response,32,256514,0.0-3.1-13.1,65010,List1A,black,man,,TRUE,2,,,,,
null,CORRECT,,html-keyboard-response,33,258048,0.0-3.1-14.1-0.1,65010,List1A,black,man,,,,null,,,,
2047,"<img src=""portrait/WW2.jpg""style=""height:400px;""></img>",3,html-button-response,34,260098,0.0-3.1-16.1,65010,List1A,black,man,,TRUE,3,,,,,
null,CORRECT,,html-keyboard-response,35,261617,0.0-3.1-17.1-0.1,65010,List1A,black,man,,,,null,,,,
3118,"<img src=""portrait/WW1.jpg""style=""height:400px;""></img>",1,html-button-response,36,264739,0.0-3.1-19.1,65010,List1A,black,man,,TRUE,1,,,,,
null,CORRECT,,html-keyboard-response,37,266255,0.0-3.1-20.1-0.1,65010,List1A,black,man,,,,null,,,,
2520,"<img src=""portrait/WM1.jpg""style=""height:400px;""></img>",6,html-button-response,38,268779,0.0-3.1-22.1,65010,List1A,black,man,,TRUE,6,,,,,
null,CORRECT,,html-keyboard-response,39,270285,0.0-3.1-23.1-0.1,65010,List1A,black,man,,,,null,,,,
1315,<p>You got 8 out of 8 right first time. Press Continue.</p>,0,html-button-response,40,271602,0.0-3.1-25.1,65010,List1A,black,man,,,,,,,,
234718,"<p>In this experiment, you will view photographs of the people from the memory game interacting.</p><p>By using the <strong>exact</strong> phrase given <i>after</i> the photograph appears and recalling the correct names of the people in the photographs, form a sentence describing the interaction. You do not need to capitalise names.</p><p>Type your answer in the space provided. Please complete every sentence before moving onto the next trial.</p><p>You will only have a few seconds to memorise each given photograph and phrase before you can respond, so try your best to focus.</p><p>An example is given below. Press 'Continue' when you are ready.</p><img src='img/speaking_example.jpg' style='width:800px;height:460px;''></img>",0,html-button-response,41,507323,0.0-4.0,65010,List1A,black,man,,,,,,,,
1924,"<p>Before the experiment starts, you will watch two example trials. Press 'Continue'.</p>",0,html-button-response,42,510268,0.0-5.0,65010,List1A,black,man,,,,,,,,
null,<img src='img/meet_eg.gif' style='height:400px;''></img>,,html-keyboard-response,43,513281,0.0-6.0,65010,List1A,black,man,,,,null,,,,
null,<p>is meeting</p>,,html-keyboard-response,44,515285,0.0-7.0,65010,List1A,black,man,,,,null,,,,
3108,<p><b>Answer:</b> kate is meeting beth</p>,0,html-button-response,45,518393,0.0-8.0,65010,List1A,black,man,,,,,,,,
null,<img src='img/look_eg.gif' style='height:400px;''></img>,,html-keyboard-response,46,521419,0.0-9.0,65010,List1A,black,man,,,,null,,,,
null,<p>are looking at each other</p>,,html-keyboard-response,47,523422,0.0-10.0,65010,List1A,black,man,,,,null,,,,
2753,<p><b>Answer:</b> luke and dave are looking at each other</p>,0,html-button-response,48,526177,0.0-11.0,65010,List1A,black,man,,,,,,,,
7870,"<p>Ready to start the experiment?</p><br><p><strong>Remember to describe the picture using a full sentence,</strong></p><p><strong>that combines the names of the people with the <i>exact</i> phrase given.</strong></p><p><strong>To receive full payment you must do this correctly.</strong></p><p><strong> You do not need to capitalise names or use punctuation.</strong></p><br><p>Press 'Continue' to begin.</p>",0,html-button-response,49,535065,0.0-12.0,65010,List1A,black,man,,,,,,,,
null,"<div style=""font-size:60px;"">+</div>",,html-keyboard-response,50,536599,0.0-13.0-0.0,65010,List1A,black,man,,,,null,,,,
null,"<img src=""stim_listA/argue6.gif""style=""height:400px;""></stim_listA>",,html-keyboard-response,51,538609,0.0-13.0-1.0,65010,List1A,black,man,,,,null,,,,
null,are arguing with each other,,html-keyboard-response,52,540612,0.0-13.0-2.0,65010,List1A,black,man,,,,null,,,,
16605,,,survey-text,53,557219,0.0-13.0-3.0,65010,List1A,black,man,,,,,"{""Q0"":""dave and fred are arguing with each other""}","<img src=""stim_listA/argue6.gif""style=""height:400px;""></stim_listA>",are arguing with each other,
null,"<div style=""font-size:60px;"">+</div>",,html-keyboard-response,54,557733,0.0-13.0-0.1,65010,List1A,black,man,,,,null,,,,
null,"<img src=""stim_listA/kiss6.gif""style=""height:400px;""></stim_listA>",,html-keyboard-response,55,559746,0.0-13.0-1.1,65010,List1A,black,man,,,,null,,,,
null,are kissing each other,,html-keyboard-response,56,561744,0.0-13.0-2.1,65010,List1A,black,man,,,,null,,,,
18399,,,survey-text,57,580146,0.0-13.0-3.1,65010,List1A,black,man,,,,,"{""Q0"":""dave and mike are kissing each other""}","<img src=""stim_listA/kiss6.gif""style=""height:400px;""></stim_listA>",are kissing each other,
null,"<div style=""font-size:60px;"">+</div>",,html-keyboard-response,58,580652,0.0-13.0-0.2,65010,List1A,black,man,,,,null,,,,
null,"<img src=""stim_listA/fight2.gif""style=""height:400px;""></stim_listA>",,html-keyboard-response,59,582660,0.0-13.0-1.2,65010,List1A,black,man,,,,null,,,,
null,are fighting each other,,html-keyboard-response,60,584663,0.0-13.0-2.2,65010,List1A,black,man,,,,null,,,,
17616,,,survey-text,61,602282,0.0-13.0-3.2,65010,List1A,black,man,,,,,"{""Q0"":""fred and beth are fighting each other""}","<img src=""stim_listA/fight2.gif""style=""height:400px;""></stim_listA>",are fighting each other,
null,"<div style=""font-size:60px;"">+</div>",,html-keyboard-response,62,602798,0.0-13.0-0.3,65010,List1A,black,man,,,,null,,,,
null,"<img src=""stim_listA/play5.gif""style=""height:400px;""></stim_listA>",,html-keyboard-response,63,604810,0.0-13.0-1.3,65010,List1A,black,man,,,,null,,,,
null,is playing with,,html-keyboard-response,64,606810,0.0-13.0-2.3,65010,List1A,black,man,,,,null,,,,
12934,,,survey-text,65,619746,0.0-13.0-3.3,65010,List1A,black,man,,,,,"{""Q0"":""dave is playing with mike""}","<img src=""stim_listA/play5.gif""style=""height:400px;""></stim_listA>",is playing with,
null,"<div style=""font-size:60px;"">+</div>",,html-keyboard-response,66,620261,0.0-13.0-0.4,65010,List1A,black,man,,,,null,,,,
null,"<img src=""stim_listA/marry2.gif""style=""height:400px;""></stim_listA>",,html-keyboard-response,67,622277,0.0-13.0-1.4,65010,List1A,black,man,,,,null,,,,
null,are marrying each other,,html-keyboard-response,68,624264,0.0-13.0-2.4,65010,List1A,black,man,,,,null,,,,
55512,,,survey-text,69,679778,0.0-13.0-3.4,65010,List1A,black,man,,,,,"{""Q0"":""fred and kate are marrying each other""}","<img src=""stim_listA/marry2.gif""style=""height:400px;""></stim_listA>",are marrying each other,
null,"<div style=""font-size:60px;"">+</div>",,html-keyboard-response,70,680291,0.0-13.0-0.5,65010,List1A,black,man,,,,null,,,,
null,"<img src=""stim_listA/shout5.gif""style=""height:400px;""></stim_listA>",,html-keyboard-response,71,682314,0.0-13.0-1.5,65010,List1A,black,man,,,,null,,,,
null,is shouting at,,html-keyboard-response,72,684302,0.0-13.0-2.5,65010,List1A,black,man,,,,null,,,,
15730,,,survey-text,73,700034,0.0-13.0-3.5,65010,List1A,black,man,,,,,"{""Q0"":""fred is shouting at luke""}","<img src=""stim_listA/shout5.gif""style=""height:400px;""></stim_listA>",is shouting at,
null,"<div style=""font-size:60px;"">+</div>",,html-keyboard-response,74,700547,0.0-13.0-0.6,65010,List1A,black,man,,,,null,,,,
null,"<img src=""stim_listA/talk1.gif""style=""height:400px;""></stim_listA>",,html-keyboard-response,75,702559,0.0-13.0-1.6,65010,List1A,black,man,,,,null,,,,
null,is talking to,,html-keyboard-response,76,704555,0.0-13.0-2.6,65010,List1A,black,man,,,,null,,,,
10884,,,survey-text,77,715442,0.0-13.0-3.6,65010,List1A,black,man,,,,,"{""Q0"":""kate is talking to fred""}","<img src=""stim_listA/talk1.gif""style=""height:400px;""></stim_listA>",is talking to,
null,"<div style=""font-size:60px;"">+</div>",,html-keyboard-response,78,715943,0.0-13.0-0.7,65010,List1A,black,man,,,,null,,,,
null,"<img src=""stim_listA/play2.gif""style=""height:400px;""></stim_listA>",,html-keyboard-response,79,717961,0.0-13.0-1.7,65010,List1A,black,man,,,,null,,,,
null,are playing with each other,,html-keyboard-response,80,719957,0.0-13.0-2.7,65010,List1A,black,man,,,,null,,,,
14162,,,survey-text,81,734122,0.0-13.0-3.7,65010,List1A,black,man,,,,,"{""Q0"":""fred is playing with beth""}","<img src=""stim_listA/play2.gif""style=""height:400px;""></stim_listA>",are playing with each other,
null,"<div style=""font-size:60px;"">+</div>",,html-keyboard-response,82,734635,0.0-13.0-0.8,65010,List1A,black,man,,,,null,,,,
null,"<img src=""stim_listA/flirt5.gif""style=""height:400px;""></stim_listA>",,html-keyboard-response,83,736646,0.0-13.0-1.8,65010,List1A,black,man,,,,null,,,,
null,is flirting with,,html-keyboard-response,84,738642,0.0-13.0-2.8,65010,List1A,black,man,,,,null,,,,
9999,,,survey-text,85,748642,0.0-13.0-3.8,65010,List1A,black,man,,,,,"{""Q0"":""fred is flirting with dave""}","<img src=""stim_listA/flirt5.gif""style=""height:400px;""></stim_listA>",is flirting with,
null,"<div style=""font-size:60px;"">+</div>",,html-keyboard-response,86,749159,0.0-13.0-0.9,65010,List1A,black,man,,,,null,,,,
null,"<img src=""stim_listA/kiss2.gif""style=""height:400px;""></stim_listA>",,html-keyboard-response,87,751170,0.0-13.0-1.9,65010,List1A,black,man,,,,null,,,,
null,are kissing each other,,html-keyboard-response,88,753161,0.0-13.0-2.9,65010,List1A,black,man,,,,null,,,,
13878,,,survey-text,89,767042,0.0-13.0-3.9,65010,List1A,black,man,,,,,"{""Q0"":""mike and kate are kissing each other""}","<img src=""stim_listA/kiss2.gif""style=""height:400px;""></stim_listA>",are kissing each other,
null,"<div style=""font-size:60px;"">+</div>",,html-keyboard-response,90,767556,0.0-13.0-0.10,65010,List1A,black,man,,,,null,,,,
null,"<img src=""stim_listA/fight5.gif""style=""height:400px;""></stim_listA>",,html-keyboard-response,91,769568,0.0-13.0-1.10,65010,List1A,black,man,,,,null,,,,
null,is fighting,,html-keyboard-response,92,771558,0.0-13.0-2.10,65010,List1A,black,man,,,,null,,,,
8387,,,survey-text,93,779946,0.0-13.0-3.10,65010,List1A,black,man,,,,,"{""Q0"":""dave and mike are fighting""}","<img src=""stim_listA/fight5.gif""style=""height:400px;""></stim_listA>",is fighting,
null,"<div style=""font-size:60px;"">+</div>",,html-keyboard-response,94,780460,0.0-13.0-0.11,65010,List1A,black,man,,,,null,,,,
null,"<img src=""stim_listA/marry6.gif""style=""height:400px;""></stim_listA>",,html-keyboard-response,95,782474,0.0-13.0-1.11,65010,List1A,black,man,,,,null,,,,
null,are marrying each other,,html-keyboard-response,96,784469,0.0-13.0-2.11,65010,List1A,black,man,,,,null,,,,
11876,,,survey-text,97,796347,0.0-13.0-3.11,65010,List1A,black,man,,,,,"{""Q0"":""dave and fred are marrying each other""}","<img src=""stim_listA/marry6.gif""style=""height:400px;""></stim_listA>",are marrying each other,
null,"<div style=""font-size:60px;"">+</div>",,html-keyboard-response,98,796861,0.0-13.0-0.12,65010,List1A,black,man,,,,null,,,,
null,"<img src=""stim_listA/touch1.gif""style=""height:400px;""></stim_listA>",,html-keyboard-response,99,798873,0.0-13.0-1.12,65010,List1A,black,man,,,,null,,,,
null,is touching,,html-keyboard-response,100,800864,0.0-13.0-2.12,65010,List1A,black,man,,,,null,,,,
12598,,,survey-text,101,813466,0.0-13.0-3.12,65010,List1A,black,man,,,,,"{""Q0"":""mike and kate are touching""}","<img src=""stim_listA/touch1.gif""style=""height:400px;""></stim_listA>",is touching,
null,"<div style=""font-size:60px;"">+</div>",,html-keyboard-response,102,813979,0.0-13.0-0.13,65010,List1A,black,man,,,,null,,,,
null,"<img src=""stim_listA/argue1.gif""style=""height:400px;""></stim_listA>",,html-keyboard-response,103,815987,0.0-13.0-1.13,65010,List1A,black,man,,,,null,,,,
null,is arguing with,,html-keyboard-response,104,817989,0.0-13.0-2.13,65010,List1A,black,man,,,,null,,,,
11372,,,survey-text,105,829363,0.0-13.0-3.13,65010,List1A,black,man,,,,,"{""Q0"":""beth is arguing with mike""}","<img src=""stim_listA/argue1.gif""style=""height:400px;""></stim_listA>",is arguing with,
null,"<div style=""font-size:60px;"">+</div>",,html-keyboard-response,106,829876,0.0-13.0-0.14,65010,List1A,black,man,,,,null,,,,
null,"<img src=""stim_listA/fight7.gif""style=""height:400px;""></stim_listA>",,html-keyboard-response,107,831891,0.0-13.0-1.14,65010,List1A,black,man,,,,null,,,,
null,is fighting,,html-keyboard-response,108,833886,0.0-13.0-2.14,65010,List1A,black,man,,,,null,,,,
12865,,,survey-text,109,846754,0.0-13.0-3.14,65010,List1A,black,man,,,,,"{""Q0"":""jane is fighting kate""}","<img src=""stim_listA/fight7.gif""style=""height:400px;""></stim_listA>",is fighting,
null,"<div style=""font-size:60px;"">+</div>",,html-keyboard-response,110,847267,0.0-13.0-0.15,65010,List1A,black,man,,,,null,,,,
null,"<img src=""stim_listA/dance3.gif""style=""height:400px;""></stim_listA>",,html-keyboard-response,111,849283,0.0-13.0-1.15,65010,List1A,black,man,,,,null,,,,
null,is dancing with,,html-keyboard-response,112,851272,0.0-13.0-2.15,65010,List1A,black,man,,,,null,,,,
9199,,,survey-text,113,860474,0.0-13.0-3.15,65010,List1A,black,man,,,,,"{""Q0"":""luke is dancing with jane""}","<img src=""stim_listA/dance3.gif""style=""height:400px;""></stim_listA>",is dancing with,
null,"<div style=""font-size:60px;"">+</div>",,html-keyboard-response,114,860990,0.0-13.0-0.16,65010,List1A,black,man,,,,null,,,,
null,"<img src=""stim_listA/marry8.gif""style=""height:400px;""></stim_listA>",,html-keyboard-response,115,863001,0.0-13.0-1.16,65010,List1A,black,man,,,,null,,,,
null,are marrying each other,,html-keyboard-response,116,865004,0.0-13.0-2.16,65010,List1A,black,man,,,,null,,,,
70916,,,survey-text,117,935923,0.0-13.0-3.16,65010,List1A,black,man,,,,,"{""Q0"":""jane and beth are marrying each other""}","<img src=""stim_listA/marry8.gif""style=""height:400px;""></stim_listA>",are marrying each other,
null,"<div style=""font-size:60px;"">+</div>",,html-keyboard-response,118,936425,0.0-13.0-0.17,65010,List1A,black,man,,,,null,,,,
null,"<img src=""stim_listA/flirt3.gif""style=""height:400px;""></stim_listA>",,html-keyboard-response,119,938437,0.0-13.0-1.17,65010,List1A,black,man,,,,null,,,,
null,is flirting with,,html-keyboard-response,120,940440,0.0-13.0-2.17,65010,List1A,black,man,,,,null,,,,
13191,,,survey-text,121,953634,0.0-13.0-3.17,65010,List1A,black,man,,,,,"{""Q0"":""luke is flirting with jane""}","<img src=""stim_listA/flirt3.gif""style=""height:400px;""></stim_listA>",is flirting with,
null,"<div style=""font-size:60px;"">+</div>",,html-keyboard-response,122,954149,0.0-13.0-0.18,65010,List1A,black,man,,,,null,,,,
null,"<img src=""stim_listA/marry1.gif""style=""height:400px;""></stim_listA>",,html-keyboard-response,123,956157,0.0-13.0-1.18,65010,List1A,black,man,,,,null,,,,
null,is marrying,,html-keyboard-response,124,958161,0.0-13.0-2.18,65010,List1A,black,man,,,,null,,,,
9567,,,survey-text,125,967730,0.0-13.0-3.18,65010,List1A,black,man,,,,,"{""Q0"":""mike is marrying beth""}","<img src=""stim_listA/marry1.gif""style=""height:400px;""></stim_listA>",is marrying,
null,"<div style=""font-size:60px;"">+</div>",,html-keyboard-response,126,968247,0.0-13.0-0.19,65010,List1A,black,man,,,,null,,,,
null,"<img src=""stim_listA/marry3.gif""style=""height:400px;""></stim_listA>",,html-keyboard-response,127,970256,0.0-13.0-1.19,65010,List1A,black,man,,,,null,,,,
null,is marrying,,html-keyboard-response,128,972250,0.0-13.0-2.19,65010,List1A,black,man,,,,null,,,,
8927,,,survey-text,129,981178,0.0-13.0-3.19,65010,List1A,black,man,,,,,"{""Q0"":""dave is marrying ruth""}","<img src=""stim_listA/marry3.gif""style=""height:400px;""></stim_listA>",is marrying,
3710,"<img src='img/portrait_matrix_list1.jpg' style='width:900px;height:500px;''></img><p>If you have memorised all the portraits and names and are ready to start, press Continue.</p><p><strong>Please note: Your memory of these faces will be tested 4 times during this experiment.</strong></p>",0,html-button-response,130,984890,0.0-14.0-0.0,65010,List1A,black,man,,,,,,,,
4517,"<img src=""portrait/BW1.jpg""style=""height:400px;""></img>",0,html-button-response,131,990426,0.0-14.0-1.0,65010,List1A,black,man,,TRUE,0,,,,,
null,CORRECT,,html-keyboard-response,132,991944,0.0-14.0-2.0-0.0,65010,List1A,black,man,,,,null,,,,
1726,"<img src=""portrait/BM1.jpg""style=""height:400px;""></img>",4,html-button-response,133,993674,0.0-14.0-4.0,65010,List1A,black,man,,TRUE,4,,,,,
null,CORRECT,,html-keyboard-response,134,995191,0.0-14.0-5.0-0.0,65010,List1A,black,man,,,,null,,,,
3592,"<img src=""portrait/WW1.jpg""style=""height:400px;""></img>",1,html-button-response,135,998786,0.0-14.0-7.0,65010,List1A,black,man,,TRUE,1,,,,,
null,CORRECT,,html-keyboard-response,136,1000306,0.0-14.0-8.0-0.0,65010,List1A,black,man,,,,null,,,,
1686,"<img src=""portrait/WM1.jpg""style=""height:400px;""></img>",6,html-button-response,137,1001994,0.0-14.0-10.0,65010,List1A,black,man,,TRUE,6,,,,,
null,CORRECT,,html-keyboard-response,138,1003524,0.0-14.0-11.0-0.0,65010,List1A,black,man,,,,null,,,,
1477,"<img src=""portrait/WM2.jpg""style=""height:400px;""></img>",7,html-button-response,139,1005002,0.0-14.0-13.0,65010,List1A,black,man,,TRUE,7,,,,,
null,CORRECT,,html-keyboard-response,140,1006533,0.0-14.0-14.0-0.0,65010,List1A,black,man,,,,null,,,,
2545,"<img src=""portrait/BM2.jpg""style=""height:400px;""></img>",5,html-button-response,141,1009082,0.0-14.0-16.0,65010,List1A,black,man,,TRUE,5,,,,,
null,CORRECT,,html-keyboard-response,142,1010598,0.0-14.0-17.0-0.0,65010,List1A,black,man,,,,null,,,,
1832,"<img src=""portrait/WW2.jpg""style=""height:400px;""></img>",3,html-button-response,143,1012434,0.0-14.0-19.0,65010,List1A,black,man,,TRUE,3,,,,,
null,CORRECT,,html-keyboard-response,144,1013954,0.0-14.0-20.0-0.0,65010,List1A,black,man,,,,null,,,,
1653,"<img src=""portrait/BW2.jpg""style=""height:400px;""></img>",2,html-button-response,145,1015610,0.0-14.0-22.0,65010,List1A,black,man,,TRUE,2,,,,,
null,CORRECT,,html-keyboard-response,146,1017142,0.0-14.0-23.0-0.0,65010,List1A,black,man,,,,null,,,,
1496,<p>You got 8 out of 8 right first time. Press Continue.</p>,0,html-button-response,147,1018642,0.0-14.0-25.0,65010,List1A,black,man,,,,,,,,
null,"<div style=""font-size:60px;"">+</div>",,html-keyboard-response,148,1020161,0.0-15.0-0.0,65010,List1A,black,man,,,,null,,,,
null,"<img src=""stim_listA/flirt1.gif""style=""height:400px;""></stim_listA>",,html-keyboard-response,149,1022169,0.0-15.0-1.0,65010,List1A,black,man,,,,null,,,,
null,is flirting with,,html-keyboard-response,150,1024174,0.0-15.0-2.0,65010,List1A,black,man,,,,null,,,,
9497,,,survey-text,151,1033674,0.0-15.0-3.0,65010,List1A,black,man,,,,,"{""Q0"":""fred is flirting with kate""}","<img src=""stim_listA/flirt1.gif""style=""height:400px;""></stim_listA>",is flirting with,
null,"<div style=""font-size:60px;"">+</div>",,html-keyboard-response,152,1034187,0.0-15.0-0.1,65010,List1A,black,man,,,,null,,,,
null,"<img src=""stim_listA/touch4.gif""style=""height:400px;""></stim_listA>",,html-keyboard-response,153,1036205,0.0-15.0-1.1,65010,List1A,black,man,,,,null,,,,
null,are touching each other,,html-keyboard-response,154,1038190,0.0-15.0-2.1,65010,List1A,black,man,,,,null,,,,
16234,,,survey-text,155,1054426,0.0-15.0-3.1,65010,List1A,black,man,,,,,"{""Q0"":""ruth and luke are touching each other""}","<img src=""stim_listA/touch4.gif""style=""height:400px;""></stim_listA>",are touching each other,
null,"<div style=""font-size:60px;"">+</div>",,html-keyboard-response,156,1054942,0.0-15.0-0.2,65010,List1A,black,man,,,,null,,,,
null,"<img src=""stim_listA/fight6.gif""style=""height:400px;""></stim_listA>",,html-keyboard-response,157,1056944,0.0-15.0-1.2,65010,List1A,black,man,,,,null,,,,
null,are fighting each other,,html-keyboard-response,158,1058947,0.0-15.0-2.2,65010,List1A,black,man,,,,null,,,,
12605,,,survey-text,159,1071554,0.0-15.0-3.2,65010,List1A,black,man,,,,,"{""Q0"":""luke and fred are fighting each other""}","<img src=""stim_listA/fight6.gif""style=""height:400px;""></stim_listA>",are fighting each other,
null,"<div style=""font-size:60px;"">+</div>",,html-keyboard-response,160,1072056,0.0-15.0-0.3,65010,List1A,black,man,,,,null,,,,
null,"<img src=""stim_listA/talk4.gif""style=""height:400px;""></stim_listA>",,html-keyboard-response,161,1074062,0.0-15.0-1.3,65010,List1A,black,man,,,,null,,,,
null,are talking to each other,,html-keyboard-response,162,1076074,0.0-15.0-2.3,65010,List1A,black,man,,,,null,,,,
16293,,,survey-text,163,1092370,0.0-15.0-3.3,65010,List1A,black,man,,,,,"{""Q0"":""dave and ruth are talking to each other""}","<img src=""stim_listA/talk4.gif""style=""height:400px;""></stim_listA>",are talking to each other,
null,"<div style=""font-size:60px;"">+</div>",,html-keyboard-response,164,1092886,0.0-15.0-0.4,65010,List1A,black,man,,,,null,,,,
null,"<img src=""stim_listA/talk8.gif""style=""height:400px;""></stim_listA>",,html-keyboard-response,165,1094894,0.0-15.0-1.4,65010,List1A,black,man,,,,null,,,,
null,are talking to each other,,html-keyboard-response,166,1096896,0.0-15.0-2.4,65010,List1A,black,man,,,,null,,,,
15336,,,survey-text,167,1112234,0.0-15.0-3.4,65010,List1A,black,man,,,,,"{""Q0"":""kate and ruth are talking to each other""}","<img src=""stim_listA/talk8.gif""style=""height:400px;""></stim_listA>",are talking to each other,
null,"<div style=""font-size:60px;"">+</div>",,html-keyboard-response,168,1112750,0.0-15.0-0.5,65010,List1A,black,man,,,,null,,,,
null,"<img src=""stim_listA/shout8.gif""style=""height:400px;""></stim_listA>",,html-keyboard-response,169,1114752,0.0-15.0-1.5,65010,List1A,black,man,,,,null,,,,
null,are shouting at each other,,html-keyboard-response,170,1116767,0.0-15.0-2.5,65010,List1A,black,man,,,,null,,,,
13281,,,survey-text,171,1130050,0.0-15.0-3.5,65010,List1A,black,man,,,,,"{""Q0"":""jane and kate are shouting at each other""}","<img src=""stim_listA/shout8.gif""style=""height:400px;""></stim_listA>",are shouting at each other,
null,"<div style=""font-size:60px;"">+</div>",,html-keyboard-response,172,1130565,0.0-15.0-0.6,65010,List1A,black,man,,,,null,,,,
null,"<img src=""stim_listA/marry7.gif""style=""height:400px;""></stim_listA>",,html-keyboard-response,173,1132579,0.0-15.0-1.6,65010,List1A,black,man,,,,null,,,,
null,is marrying,,html-keyboard-response,174,1134579,0.0-15.0-2.6,65010,List1A,black,man,,,,null,,,,
7894,,,survey-text,175,1142475,0.0-15.0-3.6,65010,List1A,black,man,,,,,"{""Q0"":""ruth is marrying kate""}","<img src=""stim_listA/marry7.gif""style=""height:400px;""></stim_listA>",is marrying,
null,"<div style=""font-size:60px;"">+</div>",,html-keyboard-response,176,1142992,0.0-15.0-0.7,65010,List1A,black,man,,,,null,,,,
null,"<img src=""stim_listA/talk5.gif""style=""height:400px;""></stim_listA>",,html-keyboard-response,177,1145008,0.0-15.0-1.7,65010,List1A,black,man,,,,null,,,,
null,is talking to,,html-keyboard-response,178,1147004,0.0-15.0-2.7,65010,List1A,black,man,,,,null,,,,
7550,,,survey-text,179,1154554,0.0-15.0-3.7,65010,List1A,black,man,,,,,"{""Q0"":""dave is talking to fred""}","<img src=""stim_listA/talk5.gif""style=""height:400px;""></stim_listA>",is talking to,
null,"<div style=""font-size:60px;"">+</div>",,html-keyboard-response,180,1155071,0.0-15.0-0.8,65010,List1A,black,man,,,,null,,,,
null,"<img src=""stim_listA/kiss4.gif""style=""height:400px;""></stim_listA>",,html-keyboard-response,181,1157081,0.0-15.0-1.8,65010,List1A,black,man,,,,null,,,,
null,are kissing each other,,html-keyboard-response,182,1159085,0.0-15.0-2.8,65010,List1A,black,man,,,,null,,,,
33667,,,survey-text,183,1192754,0.0-15.0-3.8,65010,List1A,black,man,,,,,"{""Q0"":""jane and dave are kissing each other""}","<img src=""stim_listA/kiss4.gif""style=""height:400px;""></stim_listA>",are kissing each other,
null,"<div style=""font-size:60px;"">+</div>",,html-keyboard-response,184,1193270,0.0-15.0-0.9,65010,List1A,black,man,,,,null,,,,
null,"<img src=""stim_listA/shout3.gif""style=""height:400px;""></stim_listA>",,html-keyboard-response,185,1195280,0.0-15.0-1.9,65010,List1A,black,man,,,,null,,,,
null,is shouting at,,html-keyboard-response,186,1197287,0.0-15.0-2.9,65010,List1A,black,man,,,,null,,,,
12512,,,survey-text,187,1209803,0.0-15.0-3.9,65010,List1A,black,man,,,,,"{""Q0"":""ruth is shouting at luke""}","<img src=""stim_listA/shout3.gif""style=""height:400px;""></stim_listA>",is shouting at,
null,"<div style=""font-size:60px;"">+</div>",,html-keyboard-response,188,1210318,0.0-15.0-0.10,65010,List1A,black,man,,,,null,,,,
null,"<img src=""stim_listA/argue3.gif""style=""height:400px;""></stim_listA>",,html-keyboard-response,189,1212332,0.0-15.0-1.10,65010,List1A,black,man,,,,null,,,,
null,is arguing with,,html-keyboard-response,190,1214325,0.0-15.0-2.10,65010,List1A,black,man,,,,null,,,,
8803,,,survey-text,191,1223131,0.0-15.0-3.10,65010,List1A,black,man,,,,,"{""Q0"":""ruth is arguing with dave""}","<img src=""stim_listA/argue3.gif""style=""height:400px;""></stim_listA>",is arguing with,
null,"<div style=""font-size:60px;"">+</div>",,html-keyboard-response,192,1223649,0.0-15.0-0.11,65010,List1A,black,man,,,,null,,,,
null,"<img src=""stim_listA/fight8.gif""style=""height:400px;""></stim_listA>",,html-keyboard-response,193,1225655,0.0-15.0-1.11,65010,List1A,black,man,,,,null,,,,
null,are fighting each other,,html-keyboard-response,194,1227659,0.0-15.0-2.11,65010,List1A,black,man,,,,null,,,,
12508,,,survey-text,195,1240171,0.0-15.0-3.11,65010,List1A,black,man,,,,,"{""Q0"":""beth and ruth are fighting each other""}","<img src=""stim_listA/fight8.gif""style=""height:400px;""></stim_listA>",are fighting each other,
null,"<div style=""font-size:60px;"">+</div>",,html-keyboard-response,196,1240675,0.0-15.0-0.12,65010,List1A,black,man,,,,null,,,,
null,"<img src=""stim_listA/kiss7.gif""style=""height:400px;""></stim_listA>",,html-keyboard-response,197,1242688,0.0-15.0-1.12,65010,List1A,black,man,,,,null,,,,
null,is kissing,,html-keyboard-response,198,1244681,0.0-15.0-2.12,65010,List1A,black,man,,,,null,,,,
6208,,,survey-text,199,1250891,0.0-15.0-3.12,65010,List1A,black,man,,,,,"{""Q0"":""beth is kissing ruth""}","<img src=""stim_listA/kiss7.gif""style=""height:400px;""></stim_listA>",is kissing,
null,"<div style=""font-size:60px;"">+</div>",,html-keyboard-response,200,1251408,0.0-15.0-0.13,65010,List1A,black,man,,,,null,,,,
null,"<img src=""stim_listA/marry5.gif""style=""height:400px;""></stim_listA>",,html-keyboard-response,201,1253411,0.0-15.0-1.13,65010,List1A,black,man,,,,null,,,,
null,is marrying,,html-keyboard-response,202,1255423,0.0-15.0-2.13,65010,List1A,black,man,,,,null,,,,
7466,,,survey-text,203,1262890,0.0-15.0-3.13,65010,List1A,black,man,,,,,"{""Q0"":""luke is marrying mike""}","<img src=""stim_listA/marry5.gif""style=""height:400px;""></stim_listA>",is marrying,
null,"<div style=""font-size:60px;"">+</div>",,html-keyboard-response,204,1263392,0.0-15.0-0.14,65010,List1A,black,man,,,,null,,,,
null,"<img src=""stim_listA/dance7.gif""style=""height:400px;""></stim_listA>",,html-keyboard-response,205,1265397,0.0-15.0-1.14,65010,List1A,black,man,,,,null,,,,
null,is dancing with,,html-keyboard-response,206,1267407,0.0-15.0-2.14,65010,List1A,black,man,,,,null,,,,
7745,,,survey-text,207,1275154,0.0-15.0-3.14,65010,List1A,black,man,,,,,"{""Q0"":""jane is dancing with beth""}","<img src=""stim_listA/dance7.gif""style=""height:400px;""></stim_listA>",is dancing with,
null,"<div style=""font-size:60px;"">+</div>",,html-keyboard-response,208,1275657,0.0-15.0-0.15,65010,List1A,black,man,,,,null,,,,
null,"<img src=""stim_listA/touch6.gif""style=""height:400px;""></stim_listA>",,html-keyboard-response,209,1277672,0.0-15.0-1.15,65010,List1A,black,man,,,,null,,,,
null,are touching each other,,html-keyboard-response,210,1279675,0.0-15.0-2.15,65010,List1A,black,man,,,,null,,,,
14172,,,survey-text,211,1293851,0.0-15.0-3.15,65010,List1A,black,man,,,,,"{""Q0"":""luke and fred are touching eacht other""}","<img src=""stim_listA/touch6.gif""style=""height:400px;""></stim_listA>",are touching each other,
null,"<div style=""font-size:60px;"">+</div>",,html-keyboard-response,212,1294367,0.0-15.0-0.16,65010,List1A,black,man,,,,null,,,,
null,"<img src=""stim_listA/touch2.gif""style=""height:400px;""></stim_listA>",,html-keyboard-response,213,1296375,0.0-15.0-1.16,65010,List1A,black,man,,,,null,,,,
null,are touching each other,,html-keyboard-response,214,1298377,0.0-15.0-2.16,65010,List1A,black,man,,,,null,,,,
14232,,,survey-text,215,1312610,0.0-15.0-3.16,65010,List1A,black,man,,,,,"{""Q0"":""beth and fred are touching each other""}","<img src=""stim_listA/touch2.gif""style=""height:400px;""></stim_listA>",are touching each other,
null,"<div style=""font-size:60px;"">+</div>",,html-keyboard-response,216,1313112,0.0-15.0-0.17,65010,List1A,black,man,,,,null,,,,
null,"<img src=""stim_listA/dance1.gif""style=""height:400px;""></stim_listA>",,html-keyboard-response,217,1315140,0.0-15.0-1.17,65010,List1A,black,man,,,,null,,,,
null,is dancing with,,html-keyboard-response,218,1317126,0.0-15.0-2.17,65010,List1A,black,man,,,,null,,,,
7667,,,survey-text,219,1324794,0.0-15.0-3.17,65010,List1A,black,man,,,,,"{""Q0"":""fred is dancing with kate""}","<img src=""stim_listA/dance1.gif""style=""height:400px;""></stim_listA>",is dancing with,
null,"<div style=""font-size:60px;"">+</div>",,html-keyboard-response,220,1325308,0.0-15.0-0.18,65010,List1A,black,man,,,,null,,,,
null,"<img src=""stim_listA/touch8.gif""style=""height:400px;""></stim_listA>",,html-keyboard-response,221,1327317,0.0-15.0-1.18,65010,List1A,black,man,,,,null,,,,
null,are touching each other,,html-keyboard-response,222,1329313,0.0-15.0-2.18,65010,List1A,black,man,,,,null,,,,
15646,,,survey-text,223,1344962,0.0-15.0-3.18,65010,List1A,black,man,,,,,"{""Q0"":""jane and beth are touching each other""}","<img src=""stim_listA/touch8.gif""style=""height:400px;""></stim_listA>",are touching each other,
null,"<div style=""font-size:60px;"">+</div>",,html-keyboard-response,224,1345478,0.0-15.0-0.19,65010,List1A,black,man,,,,null,,,,
null,"<img src=""stim_listA/play4.gif""style=""height:400px;""></stim_listA>",,html-keyboard-response,225,1347488,0.0-15.0-1.19,65010,List1A,black,man,,,,null,,,,
null,are playing with each other,,html-keyboard-response,226,1349490,0.0-15.0-2.19,65010,List1A,black,man,,,,null,,,,
13662,,,survey-text,227,1363155,0.0-15.0-3.19,65010,List1A,black,man,,,,,"{""Q0"":""luke and ruth are playing with each other""}","<img src=""stim_listA/play4.gif""style=""height:400px;""></stim_listA>",are playing with each other,
1557,"<img src='img/portrait_matrix_list1.jpg' style='width:900px;height:500px;''></img><p>If you have memorised all the portraits and names and are ready to start, press Continue.</p><p><strong>Please note: Your memory of these faces will be tested 4 times during this experiment.</strong></p>",0,html-button-response,228,1364714,0.0-16.0-0.0,65010,List1A,black,man,,,,,,,,
1439,"<img src=""portrait/WW2.jpg""style=""height:400px;""></img>",3,html-button-response,229,1367170,0.0-16.0-1.0,65010,List1A,black,man,,TRUE,3,,,,,
null,CORRECT,,html-keyboard-response,230,1368676,0.0-16.0-2.0-0.0,65010,List1A,black,man,,,,null,,,,
1763,"<img src=""portrait/WW1.jpg""style=""height:400px;""></img>",1,html-button-response,231,1370442,0.0-16.0-4.0,65010,List1A,black,man,,TRUE,1,,,,,
null,CORRECT,,html-keyboard-response,232,1371961,0.0-16.0-5.0-0.0,65010,List1A,black,man,,,,null,,,,
1180,"<img src=""portrait/WM1.jpg""style=""height:400px;""></img>",6,html-button-response,233,1373147,0.0-16.0-7.0,65010,List1A,black,man,,TRUE,6,,,,,
null,CORRECT,,html-keyboard-response,234,1374675,0.0-16.0-8.0-0.0,65010,List1A,black,man,,,,null,,,,
1251,"<img src=""portrait/BM1.jpg""style=""height:400px;""></img>",4,html-button-response,235,1375931,0.0-16.0-10.0,65010,List1A,black,man,,TRUE,4,,,,,
null,CORRECT,,html-keyboard-response,236,1377447,0.0-16.0-11.0-0.0,65010,List1A,black,man,,,,null,,,,
1281,"<img src=""portrait/BW2.jpg""style=""height:400px;""></img>",2,html-button-response,237,1378730,0.0-16.0-13.0,65010,List1A,black,man,,TRUE,2,,,,,
null,CORRECT,,html-keyboard-response,238,1380235,0.0-16.0-14.0-0.0,65010,List1A,black,man,,,,null,,,,
1379,"<img src=""portrait/WM2.jpg""style=""height:400px;""></img>",7,html-button-response,239,1381618,0.0-16.0-16.0,65010,List1A,black,man,,TRUE,7,,,,,
null,CORRECT,,html-keyboard-response,240,1383145,0.0-16.0-17.0-0.0,65010,List1A,black,man,,,,null,,,,
1926,"<img src=""portrait/BM2.jpg""style=""height:400px;""></img>",5,html-button-response,241,1385074,0.0-16.0-19.0,65010,List1A,black,man,,TRUE,5,,,,,
null,CORRECT,,html-keyboard-response,242,1386607,0.0-16.0-20.0-0.0,65010,List1A,black,man,,,,null,,,,
1447,"<img src=""portrait/BW1.jpg""style=""height:400px;""></img>",0,html-button-response,243,1388058,0.0-16.0-22.0,65010,List1A,black,man,,TRUE,0,,,,,
null,CORRECT,,html-keyboard-response,244,1389585,0.0-16.0-23.0-0.0,65010,List1A,black,man,,,,null,,,,
1245,<p>You got 8 out of 8 right first time. Press Continue.</p>,0,html-button-response,245,1390834,0.0-16.0-25.0,65010,List1A,black,man,,,,,,,,
null,"<div style=""font-size:60px;"">+</div>",,html-keyboard-response,246,1392352,0.0-17.0-0.0,65010,List1A,black,man,,,,null,,,,
null,"<img src=""stim_listA/touch7.gif""style=""height:400px;""></stim_listA>",,html-keyboard-response,247,1394357,0.0-17.0-1.0,65010,List1A,black,man,,,,null,,,,
null,is touching,,html-keyboard-response,248,1396360,0.0-17.0-2.0,65010,List1A,black,man,,,,null,,,,
388345,,,survey-text,249,1784706,0.0-17.0-3.0,65010,List1A,black,man,,,,,"{""Q0"":""jane is touching kate""}","<img src=""stim_listA/touch7.gif""style=""height:400px;""></stim_listA>",is touching,
null,"<div style=""font-size:60px;"">+</div>",,html-keyboard-response,250,1785222,0.0-17.0-0.1,65010,List1A,black,man,,,,null,,,,
null,"<img src=""stim_listA/dance6.gif""style=""height:400px;""></stim_listA>",,html-keyboard-response,251,1787229,0.0-17.0-1.1,65010,List1A,black,man,,,,null,,,,
null,are dancing with each other,,html-keyboard-response,252,1789234,0.0-17.0-2.1,65010,List1A,black,man,,,,null,,,,
10773,,,survey-text,253,1800011,0.0-17.0-3.1,65010,List1A,black,man,,,,,"{""Q0"":""mike and luke are dancing with each other""}","<img src=""stim_listA/dance6.gif""style=""height:400px;""></stim_listA>",are dancing with each other,
null,"<div style=""font-size:60px;"">+</div>",,html-keyboard-response,254,1800527,0.0-17.0-0.2,65010,List1A,black,man,,,,null,,,,
null,"<img src=""stim_listA/play3.gif""style=""height:400px;""></stim_listA>",,html-keyboard-response,255,1802531,0.0-17.0-1.2,65010,List1A,black,man,,,,null,,,,
null,is playing with,,html-keyboard-response,256,1804539,0.0-17.0-2.2,65010,List1A,black,man,,,,null,,,,
10590,,,survey-text,257,1815131,0.0-17.0-3.2,65010,List1A,black,man,,,,,"{""Q0"":""jane is playing with dave""}","<img src=""stim_listA/play3.gif""style=""height:400px;""></stim_listA>",is playing with,
null,"<div style=""font-size:60px;"">+</div>",,html-keyboard-response,258,1815646,0.0-17.0-0.3,65010,List1A,black,man,,,,null,,,,
null,"<img src=""stim_listA/dance4.gif""style=""height:400px;""></stim_listA>",,html-keyboard-response,259,1817657,0.0-17.0-1.3,65010,List1A,black,man,,,,null,,,,
null,are dancing with each other,,html-keyboard-response,260,1819660,0.0-17.0-2.3,65010,List1A,black,man,,,,null,,,,
12851,,,survey-text,261,1832515,0.0-17.0-3.3,65010,List1A,black,man,,,,,"{""Q0"":""ruth and dave are dancing with each other""}","<img src=""stim_listA/dance4.gif""style=""height:400px;""></stim_listA>",are dancing with each other,
null,"<div style=""font-size:60px;"">+</div>",,html-keyboard-response,262,1833032,0.0-17.0-0.4,65010,List1A,black,man,,,,null,,,,
null,"<img src=""stim_listA/argue8.gif""style=""height:400px;""></stim_listA>",,html-keyboard-response,263,1835043,0.0-17.0-1.4,65010,List1A,black,man,,,,null,,,,
null,are arguing with each other,,html-keyboard-response,264,1837038,0.0-17.0-2.4,65010,List1A,black,man,,,,null,,,,
12690,,,survey-text,265,1849731,0.0-17.0-3.4,65010,List1A,black,man,,,,,"{""Q0"":""beth and jane are arguing with each other""}","<img src=""stim_listA/argue8.gif""style=""height:400px;""></stim_listA>",are arguing with each other,
null,"<div style=""font-size:60px;"">+</div>",,html-keyboard-response,266,1850245,0.0-17.0-0.5,65010,List1A,black,man,,,,null,,,,
null,"<img src=""stim_listA/shout6.gif""style=""height:400px;""></stim_listA>",,html-keyboard-response,267,1852264,0.0-17.0-1.5,65010,List1A,black,man,,,,null,,,,
null,are shouting at each other,,html-keyboard-response,268,1854257,0.0-17.0-2.5,65010,List1A,black,man,,,,null,,,,
10230,,,survey-text,269,1864490,0.0-17.0-3.5,65010,List1A,black,man,,,,,"{""Q0"":""mike and dave are shouting at each other""}","<img src=""stim_listA/shout6.gif""style=""height:400px;""></stim_listA>",are shouting at each other,
null,"<div style=""font-size:60px;"">+</div>",,html-keyboard-response,270,1865006,0.0-17.0-0.6,65010,List1A,black,man,,,,null,,,,
null,"<img src=""stim_listA/kiss8.gif""style=""height:400px;""></stim_listA>",,html-keyboard-response,271,1867017,0.0-17.0-1.6,65010,List1A,black,man,,,,null,,,,
null,are kissing each other,,html-keyboard-response,272,1869016,0.0-17.0-2.6,65010,List1A,black,man,,,,null,,,,
11782,,,survey-text,273,1880802,0.0-17.0-3.6,65010,List1A,black,man,,,,,"{""Q0"":""jane and kate are kissing each other""}","<img src=""stim_listA/kiss8.gif""style=""height:400px;""></stim_listA>",are kissing each other,
null,"<div style=""font-size:60px;"">+</div>",,html-keyboard-response,274,1881304,0.0-17.0-0.7,65010,List1A,black,man,,,,null,,,,
null,"<img src=""stim_listA/kiss3.gif""style=""height:400px;""></stim_listA>",,html-keyboard-response,275,1883315,0.0-17.0-1.7,65010,List1A,black,man,,,,null,,,,
null,is kissing,,html-keyboard-response,276,1885318,0.0-17.0-2.7,65010,List1A,black,man,,,,null,,,,
10202,,,survey-text,277,1895522,0.0-17.0-3.7,65010,List1A,black,man,,,,,"{""Q0"":""ruth is kissing luke""}","<img src=""stim_listA/kiss3.gif""style=""height:400px;""></stim_listA>",is kissing,
null,"<div style=""font-size:60px;"">+</div>",,html-keyboard-response,278,1896039,0.0-17.0-0.8,65010,List1A,black,man,,,,null,,,,
null,"<img src=""stim_listA/shout7.gif""style=""height:400px;""></stim_listA>",,html-keyboard-response,279,1898044,0.0-17.0-1.8,65010,List1A,black,man,,,,null,,,,
null,is shouting at,,html-keyboard-response,280,1900041,0.0-17.0-2.8,65010,List1A,black,man,,,,null,,,,
9153,,,survey-text,281,1909195,0.0-17.0-3.8,65010,List1A,black,man,,,,,"{""Q0"":""beth is shouting at ruth""}","<img src=""stim_listA/shout7.gif""style=""height:400px;""></stim_listA>",is shouting at,
null,"<div style=""font-size:60px;"">+</div>",,html-keyboard-response,282,1909710,0.0-17.0-0.9,65010,List1A,black,man,,,,null,,,,
null,"<img src=""stim_listA/argue7.gif""style=""height:400px;""></stim_listA>",,html-keyboard-response,283,1911725,0.0-17.0-1.9,65010,List1A,black,man,,,,null,,,,
null,is arguing with,,html-keyboard-response,284,1913719,0.0-17.0-2.9,65010,List1A,black,man,,,,null,,,,
7961,,,survey-text,285,1921682,0.0-17.0-3.9,65010,List1A,black,man,,,,,"{""Q0"":""kate is arguing with ruth""}","<img src=""stim_listA/argue7.gif""style=""height:400px;""></stim_listA>",is arguing with,
null,"<div style=""font-size:60px;"">+</div>",,html-keyboard-response,286,1922197,0.0-17.0-0.10,65010,List1A,black,man,,,,null,,,,
null,"<img src=""stim_listA/flirt2.gif""style=""height:400px;""></stim_listA>",,html-keyboard-response,287,1924213,0.0-17.0-1.10,65010,List1A,black,man,,,,null,,,,
null,are flirting with each other,,html-keyboard-response,288,1926215,0.0-17.0-2.10,65010,List1A,black,man,,,,null,,,,
14264,,,survey-text,289,1940483,0.0-17.0-3.10,65010,List1A,black,man,,,,,"{""Q0"":""mike and beth are flirting with each other""}","<img src=""stim_listA/flirt2.gif""style=""height:400px;""></stim_listA>",are flirting with each other,
null,"<div style=""font-size:60px;"">+</div>",,html-keyboard-response,290,1940997,0.0-17.0-0.11,65010,List1A,black,man,,,,null,,,,
null,"<img src=""stim_listA/argue2.gif""style=""height:400px;""></stim_listA>",,html-keyboard-response,291,1942999,0.0-17.0-1.11,65010,List1A,black,man,,,,null,,,,
null,are arguing with each other,,html-keyboard-response,292,1945003,0.0-17.0-2.11,65010,List1A,black,man,,,,null,,,,
14037,,,survey-text,293,1959044,0.0-17.0-3.11,65010,List1A,black,man,,,,,"{""Q0"":""kate and fred are arguing with each other""}","<img src=""stim_listA/argue2.gif""style=""height:400px;""></stim_listA>",are arguing with each other,
null,"<div style=""font-size:60px;"">+</div>",,html-keyboard-response,294,1959548,0.0-17.0-0.12,65010,List1A,black,man,,,,null,,,,
null,"<img src=""stim_listA/dance5.gif""style=""height:400px;""></stim_listA>",,html-keyboard-response,295,1961560,0.0-17.0-1.12,65010,List1A,black,man,,,,null,,,,
null,is dancing with,,html-keyboard-response,296,1963554,0.0-17.0-2.12,65010,List1A,black,man,,,,null,,,,
10191,,,survey-text,297,1973746,0.0-17.0-3.12,65010,List1A,black,man,,,,,"{""Q0"":""fred is dancing with dave""}","<img src=""stim_listA/dance5.gif""style=""height:400px;""></stim_listA>",is dancing with,
null,"<div style=""font-size:60px;"">+</div>",,html-keyboard-response,298,1974261,0.0-17.0-0.13,65010,List1A,black,man,,,,null,,,,
null,"<img src=""stim_listA/play1.gif""style=""height:400px;""></stim_listA>",,html-keyboard-response,299,1976269,0.0-17.0-1.13,65010,List1A,black,man,,,,null,,,,
null,is playing with,,html-keyboard-response,300,1978270,0.0-17.0-2.13,65010,List1A,black,man,,,,null,,,,
8531,,,survey-text,301,1986804,0.0-17.0-3.13,65010,List1A,black,man,,,,,"{""Q0"":""mike is playing with kate""}","<img src=""stim_listA/play1.gif""style=""height:400px;""></stim_listA>",is playing with,
null,"<div style=""font-size:60px;"">+</div>",,html-keyboard-response,302,1987308,0.0-17.0-0.14,65010,List1A,black,man,,,,null,,,,
null,"<img src=""stim_listA/flirt8.gif""style=""height:400px;""></stim_listA>",,html-keyboard-response,303,1989318,0.0-17.0-1.14,65010,List1A,black,man,,,,null,,,,
null,are flirting with each other,,html-keyboard-response,304,1991322,0.0-17.0-2.14,65010,List1A,black,man,,,,null,,,,
12031,,,survey-text,305,2003354,0.0-17.0-3.14,65010,List1A,black,man,,,,,"{""Q0"":""jane and kate are flirting with each other""}","<img src=""stim_listA/flirt8.gif""style=""height:400px;""></stim_listA>",are flirting with each other,
null,"<div style=""font-size:60px;"">+</div>",,html-keyboard-response,306,2003871,0.0-17.0-0.15,65010,List1A,black,man,,,,null,,,,
null,"<img src=""stim_listA/shout1.gif""style=""height:400px;""></stim_listA>",,html-keyboard-response,307,2005887,0.0-17.0-1.15,65010,List1A,black,man,,,,null,,,,
null,is shouting at,,html-keyboard-response,308,2007880,0.0-17.0-2.15,65010,List1A,black,man,,,,null,,,,
8072,,,survey-text,309,2015955,0.0-17.0-3.15,65010,List1A,black,man,,,,,"{""Q0"":""beth is shouting at fred""}","<img src=""stim_listA/shout1.gif""style=""height:400px;""></stim_listA>",is shouting at,
null,"<div style=""font-size:60px;"">+</div>",,html-keyboard-response,310,2016469,0.0-17.0-0.16,65010,List1A,black,man,,,,null,,,,
null,"<img src=""stim_listA/play7.gif""style=""height:400px;""></stim_listA>",,html-keyboard-response,311,2018499,0.0-17.0-1.16,65010,List1A,black,man,,,,null,,,,
null,is playing with,,html-keyboard-response,312,2020480,0.0-17.0-2.16,65010,List1A,black,man,,,,null,,,,
6638,,,survey-text,313,2027123,0.0-17.0-3.16,65010,List1A,black,man,,,,,"{""Q0"":""jane is playing with kate""}","<img src=""stim_listA/play7.gif""style=""height:400px;""></stim_listA>",is playing with,
null,"<div style=""font-size:60px;"">+</div>",,html-keyboard-response,314,2027637,0.0-17.0-0.17,65010,List1A,black,man,,,,null,,,,
null,"<img src=""stim_listA/fight1.gif""style=""height:400px;""></stim_listA>",,html-keyboard-response,315,2029648,0.0-17.0-1.17,65010,List1A,black,man,,,,null,,,,
null,is fighting,,html-keyboard-response,316,2031641,0.0-17.0-2.17,65010,List1A,black,man,,,,null,,,,
7945,,,survey-text,317,2039587,0.0-17.0-3.17,65010,List1A,black,man,,,,,"{""Q0"":""kate is fighting mike""}","<img src=""stim_listA/fight1.gif""style=""height:400px;""></stim_listA>",is fighting,
null,"<div style=""font-size:60px;"">+</div>",,html-keyboard-response,318,2040102,0.0-17.0-0.18,65010,List1A,black,man,,,,null,,,,
null,"<img src=""stim_listA/play8.gif""style=""height:400px;""></stim_listA>",,html-keyboard-response,319,2042109,0.0-17.0-1.18,65010,List1A,black,man,,,,null,,,,
null,are playing with each other,,html-keyboard-response,320,2044111,0.0-17.0-2.18,65010,List1A,black,man,,,,null,,,,
16032,,,survey-text,321,2060147,0.0-17.0-3.18,65010,List1A,black,man,,,,,"{""Q0"":""ruth and beth are playing with each other""}","<img src=""stim_listA/play8.gif""style=""height:400px;""></stim_listA>",are playing with each other,
null,"<div style=""font-size:60px;"">+</div>",,html-keyboard-response,322,2060650,0.0-17.0-0.19,65010,List1A,black,man,,,,null,,,,
null,"<img src=""stim_listA/talk2.gif""style=""height:400px;""></stim_listA>",,html-keyboard-response,323,2062656,0.0-17.0-1.19,65010,List1A,black,man,,,,null,,,,
null,are talking to each other,,html-keyboard-response,324,2064654,0.0-17.0-2.19,65010,List1A,black,man,,,,null,,,,
12034,,,survey-text,325,2076691,0.0-17.0-3.19,65010,List1A,black,man,,,,,"{""Q0"":""beth and mike are talking to each other""}","<img src=""stim_listA/talk2.gif""style=""height:400px;""></stim_listA>",are talking to each other,
3239,"<img src='img/portrait_matrix_list1.jpg' style='width:900px;height:500px;''></img><p>If you have memorised all the portraits and names and are ready to start, press Continue.</p><p><strong>Please note: Your memory of these faces will be tested 4 times during this experiment.</strong></p>",0,html-button-response,326,2079931,0.0-18.0-0.0,65010,List1A,black,man,,,,,,,,
1533,"<img src=""portrait/BW2.jpg""style=""height:400px;""></img>",2,html-button-response,327,2082474,0.0-18.0-1.0,65010,List1A,black,man,,TRUE,2,,,,,
null,CORRECT,,html-keyboard-response,328,2084007,0.0-18.0-2.0-0.0,65010,List1A,black,man,,,,null,,,,
1487,"<img src=""portrait/BW1.jpg""style=""height:400px;""></img>",0,html-button-response,329,2085499,0.0-18.0-4.0,65010,List1A,black,man,,TRUE,0,,,,,
null,CORRECT,,html-keyboard-response,330,2087017,0.0-18.0-5.0-0.0,65010,List1A,black,man,,,,null,,,,
1485,"<img src=""portrait/BM1.jpg""style=""height:400px;""></img>",4,html-button-response,331,2088506,0.0-18.0-7.0,65010,List1A,black,man,,TRUE,4,,,,,
null,CORRECT,,html-keyboard-response,332,2090025,0.0-18.0-8.0-0.0,65010,List1A,black,man,,,,null,,,,
1429,"<img src=""portrait/WM2.jpg""style=""height:400px;""></img>",7,html-button-response,333,2091459,0.0-18.0-10.0,65010,List1A,black,man,,TRUE,7,,,,,
null,CORRECT,,html-keyboard-response,334,2092989,0.0-18.0-11.0-0.0,65010,List1A,black,man,,,,null,,,,
1266,"<img src=""portrait/WW2.jpg""style=""height:400px;""></img>",3,html-button-response,335,2094258,0.0-18.0-13.0,65010,List1A,black,man,,TRUE,3,,,,,
null,CORRECT,,html-keyboard-response,336,2095788,0.0-18.0-14.0-0.0,65010,List1A,black,man,,,,null,,,,
1747,"<img src=""portrait/BM2.jpg""style=""height:400px;""></img>",5,html-button-response,337,2097538,0.0-18.0-16.0,65010,List1A,black,man,,TRUE,5,,,,,
null,CORRECT,,html-keyboard-response,338,2099068,0.0-18.0-17.0-0.0,65010,List1A,black,man,,,,null,,,,
1691,"<img src=""portrait/WW1.jpg""style=""height:400px;""></img>",1,html-button-response,339,2100762,0.0-18.0-19.0,65010,List1A,black,man,,TRUE,1,,,,,
null,CORRECT,,html-keyboard-response,340,2102281,0.0-18.0-20.0-0.0,65010,List1A,black,man,,,,null,,,,
1141,"<img src=""portrait/WM1.jpg""style=""height:400px;""></img>",6,html-button-response,341,2103426,0.0-18.0-22.0,65010,List1A,black,man,,TRUE,6,,,,,
null,CORRECT,,html-keyboard-response,342,2104928,0.0-18.0-23.0-0.0,65010,List1A,black,man,,,,null,,,,
1494,<p>You got 8 out of 8 right first time. Press Continue.</p>,0,html-button-response,343,2106427,0.0-18.0-25.0,65010,List1A,black,man,,,,,,,,
null,"<div style=""font-size:60px;"">+</div>",,html-keyboard-response,344,2107958,0.0-19.0-0.0,65010,List1A,black,man,,,,null,,,,
null,"<img src=""stim_listA/kiss5.gif""style=""height:400px;""></stim_listA>",,html-keyboard-response,345,2109963,0.0-19.0-1.0,65010,List1A,black,man,,,,null,,,,
null,is kissing,,html-keyboard-response,346,2111970,0.0-19.0-2.0,65010,List1A,black,man,,,,null,,,,
11750,,,survey-text,347,2123723,0.0-19.0-3.0,65010,List1A,black,man,,,,,"{""Q0"":""luke is kissing fred""}","<img src=""stim_listA/kiss5.gif""style=""height:400px;""></stim_listA>",is kissing,
null,"<div style=""font-size:60px;"">+</div>",,html-keyboard-response,348,2124237,0.0-19.0-0.1,65010,List1A,black,man,,,,null,,,,
null,"<img src=""stim_listA/fight3.gif""style=""height:400px;""></stim_listA>",,html-keyboard-response,349,2126249,0.0-19.0-1.1,65010,List1A,black,man,,,,null,,,,
null,is fighting,,html-keyboard-response,350,2128247,0.0-19.0-2.1,65010,List1A,black,man,,,,null,,,,
6049,,,survey-text,351,2134299,0.0-19.0-3.1,65010,List1A,black,man,,,,,"{""Q0"":""jane is fighting dave""}","<img src=""stim_listA/fight3.gif""style=""height:400px;""></stim_listA>",is fighting,
null,"<div style=""font-size:60px;"">+</div>",,html-keyboard-response,352,2134815,0.0-19.0-0.2,65010,List1A,black,man,,,,null,,,,
null,"<img src=""stim_listA/play6.gif""style=""height:400px;""></stim_listA>",,html-keyboard-response,353,2136824,0.0-19.0-1.2,65010,List1A,black,man,,,,null,,,,
null,are playing with each other,,html-keyboard-response,354,2138832,0.0-19.0-2.2,65010,List1A,black,man,,,,null,,,,
10592,,,survey-text,355,2149427,0.0-19.0-3.2,65010,List1A,black,man,,,,,"{""Q0"":""fred and luke are playing with each other""}","<img src=""stim_listA/play6.gif""style=""height:400px;""></stim_listA>",are playing with each other,
null,"<div style=""font-size:60px;"">+</div>",,html-keyboard-response,356,2149942,0.0-19.0-0.3,65010,List1A,black,man,,,,null,,,,
null,"<img src=""stim_listA/shout2.gif""style=""height:400px;""></stim_listA>",,html-keyboard-response,357,2151953,0.0-19.0-1.3,65010,List1A,black,man,,,,null,,,,
null,are shouting at each other,,html-keyboard-response,358,2153954,0.0-19.0-2.3,65010,List1A,black,man,,,,null,,,,
10157,,,survey-text,359,2164115,0.0-19.0-3.3,65010,List1A,black,man,,,,,"{""Q0"":""kate and mike are shouting at each other""}","<img src=""stim_listA/shout2.gif""style=""height:400px;""></stim_listA>",are shouting at each other,
null,"<div style=""font-size:60px;"">+</div>",,html-keyboard-response,360,2164631,0.0-19.0-0.4,65010,List1A,black,man,,,,null,,,,
null,"<img src=""stim_listA/dance8.gif""style=""height:400px;""></stim_listA>",,html-keyboard-response,361,2166642,0.0-19.0-1.4,65010,List1A,black,man,,,,null,,,,
null,are dancing with each other,,html-keyboard-response,362,2168651,0.0-19.0-2.4,65010,List1A,black,man,,,,null,,,,
12940,,,survey-text,363,2181595,0.0-19.0-3.4,65010,List1A,black,man,,,,,"{""Q0"":""kate and ruth are dancing with each other""}","<img src=""stim_listA/dance8.gif""style=""height:400px;""></stim_listA>",are dancing with each other,
null,"<div style=""font-size:60px;"">+</div>",,html-keyboard-response,364,2182111,0.0-19.0-0.5,65010,List1A,black,man,,,,null,,,,
null,"<img src=""stim_listA/flirt6.gif""style=""height:400px;""></stim_listA>",,html-keyboard-response,365,2184128,0.0-19.0-1.5,65010,List1A,black,man,,,,null,,,,
null,are flirting with each other,,html-keyboard-response,366,2186113,0.0-19.0-2.5,65010,List1A,black,man,,,,null,,,,
13798,,,survey-text,367,2199914,0.0-19.0-3.5,65010,List1A,black,man,,,,,"{""Q0"":""luke and mike are flirting with each other""}","<img src=""stim_listA/flirt6.gif""style=""height:400px;""></stim_listA>",are flirting with each other,
null,"<div style=""font-size:60px;"">+</div>",,html-keyboard-response,368,2200417,0.0-19.0-0.6,65010,List1A,black,man,,,,null,,,,
null,"<img src=""stim_listA/marry4.gif""style=""height:400px;""></stim_listA>",,html-keyboard-response,369,2202423,0.0-19.0-1.6,65010,List1A,black,man,,,,null,,,,
null,are marrying each other,,html-keyboard-response,370,2204423,0.0-19.0-2.6,65010,List1A,black,man,,,,null,,,,
11210,,,survey-text,371,2215634,0.0-19.0-3.6,65010,List1A,black,man,,,,,"{""Q0"":""luke and jane are marrying each other""}","<img src=""stim_listA/marry4.gif""style=""height:400px;""></stim_listA>",are marrying each other,
null,"<div style=""font-size:60px;"">+</div>",,html-keyboard-response,372,2216150,0.0-19.0-0.7,65010,List1A,black,man,,,,null,,,,
null,"<img src=""stim_listA/shout4.gif""style=""height:400px;""></stim_listA>",,html-keyboard-response,373,2218155,0.0-19.0-1.7,65010,List1A,black,man,,,,null,,,,
null,are shouting at each other,,html-keyboard-response,374,2220156,0.0-19.0-2.7,65010,List1A,black,man,,,,null,,,,
13348,,,survey-text,375,2233507,0.0-19.0-3.7,65010,List1A,black,man,,,,,"{""Q0"":""jane and dave are shouting at each other""}","<img src=""stim_listA/shout4.gif""style=""height:400px;""></stim_listA>",are shouting at each other,
null,"<div style=""font-size:60px;"">+</div>",,html-keyboard-response,376,2234022,0.0-19.0-0.8,65010,List1A,black,man,,,,null,,,,
null,"<img src=""stim_listA/flirt7.gif""style=""height:400px;""></stim_listA>",,html-keyboard-response,377,2236038,0.0-19.0-1.8,65010,List1A,black,man,,,,null,,,,
null,is flirting with,,html-keyboard-response,378,2238038,0.0-19.0-2.8,65010,List1A,black,man,,,,null,,,,
8586,,,survey-text,379,2246627,0.0-19.0-3.8,65010,List1A,black,man,,,,,"{""Q0"":""beth is flirting with jane""}","<img src=""stim_listA/flirt7.gif""style=""height:400px;""></stim_listA>",is flirting with,
null,"<div style=""font-size:60px;"">+</div>",,html-keyboard-response,380,2247146,0.0-19.0-0.9,65010,List1A,black,man,,,,null,,,,
null,"<img src=""stim_listA/dance2.gif""style=""height:400px;""></stim_listA>",,html-keyboard-response,381,2249155,0.0-19.0-1.9,65010,List1A,black,man,,,,null,,,,
null,are dancing with each other,,html-keyboard-response,382,2251161,0.0-19.0-2.9,65010,List1A,black,man,,,,null,,,,
11576,,,survey-text,383,2262738,0.0-19.0-3.9,65010,List1A,black,man,,,,,"{""Q0"":""mike and beth are dancing with each other""}","<img src=""stim_listA/dance2.gif""style=""height:400px;""></stim_listA>",are dancing with each other,
null,"<div style=""font-size:60px;"">+</div>",,html-keyboard-response,384,2263254,0.0-19.0-0.10,65010,List1A,black,man,,,,null,,,,
null,"<img src=""stim_listA/talk3.gif""style=""height:400px;""></stim_listA>",,html-keyboard-response,385,2265261,0.0-19.0-1.10,65010,List1A,black,man,,,,null,,,,
null,is talking to,,html-keyboard-response,386,2267266,0.0-19.0-2.10,65010,List1A,black,man,,,,null,,,,
6599,,,survey-text,387,2273867,0.0-19.0-3.10,65010,List1A,black,man,,,,,"{""Q0"":""luke is talking to jane""}","<img src=""stim_listA/talk3.gif""style=""height:400px;""></stim_listA>",is talking to,
null,"<div style=""font-size:60px;"">+</div>",,html-keyboard-response,388,2274383,0.0-19.0-0.11,65010,List1A,black,man,,,,null,,,,
null,"<img src=""stim_listA/argue4.gif""style=""height:400px;""></stim_listA>",,html-keyboard-response,389,2276390,0.0-19.0-1.11,65010,List1A,black,man,,,,null,,,,
null,are arguing with each other,,html-keyboard-response,390,2278395,0.0-19.0-2.11,65010,List1A,black,man,,,,null,,,,
10197,,,survey-text,391,2288595,0.0-19.0-3.11,65010,List1A,black,man,,,,,"{""Q0"":""luke and jane are arguing with each other""}","<img src=""stim_listA/argue4.gif""style=""height:400px;""></stim_listA>",are arguing with each other,
null,"<div style=""font-size:60px;"">+</div>",,html-keyboard-response,392,2289110,0.0-19.0-0.12,65010,List1A,black,man,,,,null,,,,
null,"<img src=""stim_listA/touch5.gif""style=""height:400px;""></stim_listA>",,html-keyboard-response,393,2291125,0.0-19.0-1.12,65010,List1A,black,man,,,,null,,,,
null,is touching,,html-keyboard-response,394,2293118,0.0-19.0-2.12,65010,List1A,black,man,,,,null,,,,
6409,,,survey-text,395,2299531,0.0-19.0-3.12,65010,List1A,black,man,,,,,"{""Q0"":""dave is touching mike""}","<img src=""stim_listA/touch5.gif""style=""height:400px;""></stim_listA>",is touching,
null,"<div style=""font-size:60px;"">+</div>",,html-keyboard-response,396,2300047,0.0-19.0-0.13,65010,List1A,black,man,,,,null,,,,
null,"<img src=""stim_listA/kiss1.gif""style=""height:400px;""></stim_listA>",,html-keyboard-response,397,2302063,0.0-19.0-1.13,65010,List1A,black,man,,,,null,,,,
null,is kissing,,html-keyboard-response,398,2304063,0.0-19.0-2.13,65010,List1A,black,man,,,,null,,,,
5936,,,survey-text,399,2310003,0.0-19.0-3.13,65010,List1A,black,man,,,,,"{""Q0"":""beth is kissing fred""}","<img src=""stim_listA/kiss1.gif""style=""height:400px;""></stim_listA>",is kissing,
null,"<div style=""font-size:60px;"">+</div>",,html-keyboard-response,400,2310519,0.0-19.0-0.14,65010,List1A,black,man,,,,null,,,,
null,"<img src=""stim_listA/flirt4.gif""style=""height:400px;""></stim_listA>",,html-keyboard-response,401,2312539,0.0-19.0-1.14,65010,List1A,black,man,,,,null,,,,
null,are flirting with each other,,html-keyboard-response,402,2314521,0.0-19.0-2.14,65010,List1A,black,man,,,,null,,,,
51544,,,survey-text,403,2366066,0.0-19.0-3.14,65010,List1A,black,man,,,,,"{""Q0"":""ruth and dave are flirting with each other""}","<img src=""stim_listA/flirt4.gif""style=""height:400px;""></stim_listA>",are flirting with each other,
null,"<div style=""font-size:60px;"">+</div>",,html-keyboard-response,404,2366584,0.0-19.0-0.15,65010,List1A,black,man,,,,null,,,,
null,"<img src=""stim_listA/touch3.gif""style=""height:400px;""></stim_listA>",,html-keyboard-response,405,2368588,0.0-19.0-1.15,65010,List1A,black,man,,,,null,,,,
null,is touching,,html-keyboard-response,406,2370684,0.0-19.0-2.15,65010,List1A,black,man,,,,null,,,,
123720,,,survey-text,407,2494411,0.0-19.0-3.15,65010,List1A,black,man,,,,,"{""Q0"":""jane is touching dave""}","<img src=""stim_listA/touch3.gif""style=""height:400px;""></stim_listA>",is touching,
null,"<div style=""font-size:60px;"">+</div>",,html-keyboard-response,408,2494937,0.0-19.0-0.16,65010,List1A,black,man,,,,null,,,,
null,"<img src=""stim_listA/fight4.gif""style=""height:400px;""></stim_listA>",,html-keyboard-response,409,2496954,0.0-19.0-1.16,65010,List1A,black,man,,,,null,,,,
null,are fighting each other,,html-keyboard-response,410,2498952,0.0-19.0-2.16,65010,List1A,black,man,,,,null,,,,
11399,,,survey-text,411,2510354,0.0-19.0-3.16,65010,List1A,black,man,,,,,"{""Q0"":""ruth and luke are fighting each other""}","<img src=""stim_listA/fight4.gif""style=""height:400px;""></stim_listA>",are fighting each other,
null,"<div style=""font-size:60px;"">+</div>",,html-keyboard-response,412,2510856,0.0-19.0-0.17,65010,List1A,black,man,,,,null,,,,
null,"<img src=""stim_listA/argue5.gif""style=""height:400px;""></stim_listA>",,html-keyboard-response,413,2512867,0.0-19.0-1.17,65010,List1A,black,man,,,,null,,,,
null,is arguing with,,html-keyboard-response,414,2514865,0.0-19.0-2.17,65010,List1A,black,man,,,,null,,,,
7440,,,survey-text,415,2522307,0.0-19.0-3.17,65010,List1A,black,man,,,,,"{""Q0"":""mike is arguing with luke""}","<img src=""stim_listA/argue5.gif""style=""height:400px;""></stim_listA>",is arguing with,
null,"<div style=""font-size:60px;"">+</div>",,html-keyboard-response,416,2522822,0.0-19.0-0.18,65010,List1A,black,man,,,,null,,,,
null,"<img src=""stim_listA/talk7.gif""style=""height:400px;""></stim_listA>",,html-keyboard-response,417,2524829,0.0-19.0-1.18,65010,List1A,black,man,,,,null,,,,
null,is talking to,,html-keyboard-response,418,2526834,0.0-19.0-2.18,65010,List1A,black,man,,,,null,,,,
11974,,,survey-text,419,2538811,0.0-19.0-3.18,65010,List1A,black,man,,,,,"{""Q0"":""beth is talking to jane""}","<img src=""stim_listA/talk7.gif""style=""height:400px;""></stim_listA>",is talking to,
null,"<div style=""font-size:60px;"">+</div>",,html-keyboard-response,420,2539313,0.0-19.0-0.19,65010,List1A,black,man,,,,null,,,,
null,"<img src=""stim_listA/talk6.gif""style=""height:400px;""></stim_listA>",,html-keyboard-response,421,2541328,0.0-19.0-1.19,65010,List1A,black,man,,,,null,,,,
null,are talking to each other,,html-keyboard-response,422,2543320,0.0-19.0-2.19,65010,List1A,black,man,,,,null,,,,
10984,,,survey-text,423,2554307,0.0-19.0-3.19,65010,List1A,black,man,,,,,"{""Q0"":""luke and mike are talking to each other""}","<img src=""stim_listA/talk6.gif""style=""height:400px;""></stim_listA>",are talking to each other,
2190,<p>Thank you for completing that task.</p><p>The final part of this session is a short questionnaire.</p><p>Press Continue.</p>,0,html-button-response,424,2556499,0.0-20.0,65010,List1A,black,man,,,,,,,,
22691,,,survey-text,425,2580211,0.0-21.0,65010,List1A,black,man,,,,,"{""Q0"":""35"",""Q1"":""english"",""Q2"":""english"",""Q3"":""US"",""Q4"":""African American"",""Q5"":""male""}",,,demographics
7613,,,survey-likert,426,2587827,0.0-22.0,65010,List1A,black,man,,,,,"{""Q0"":4}",,,likert_ESS
8182,,,survey-likert,427,2596011,0.0-23.0,65010,List1A,black,man,,,,,"{""Q0"":4}",,,likert_NSSAL_Q1
4693,,,survey-likert,428,2600707,0.0-24.0,65010,List1A,black,man,,,,,"{""Q0"":4}",,,likert_NSSAL_Q2
3759,,,survey-likert,429,2604467,0.0-25.0,65010,List1A,black,man,,,,,"{""Q0"":4}",,,likert_CGRS_Q1
2078,,,survey-likert,430,2606547,0.0-26.0,65010,List1A,black,man,,,,,"{""Q0"":4}",,,likert_CGRS_Q2
1775,,,survey-likert,431,2608323,0.0-27.0,65010,List1A,black,man,,,,,"{""Q0"":4}",,,likert_CGRS_Q3
9110,,,survey-text,432,2617434,0.0-28.0,65010,List1A,black,man,,,,,"{""Q0"":""ccc""}",,,worker_id
3044,,,external-html,433,2620674,0.0-29.0,65010,List1A,black,man,debrief.html,,,,,,,
