"rt","stimulus","button_pressed","trial_type","trial_index","time_elapsed","internal_node_id","subject","list","ppt_race","ppt_gender","url","first_guess","correct","key_press","responses","image_type","phrase_type","test_part"
"5080","Welcome to the experiment. Press Continue to begin.","0","html-button-response","0","5083","0.0-0.0","65202","List1A","black","woman","","","","","","","",""
"10723","","","external-html","1","17010","0.0-1.0","65202","List1A","black","woman","consent.html","","","","","","",""
"13286","<p>On the next page, you will see portraits of 8 people and their names.</p><p>Your first task is to take a few minutes to memorise the names of these people.</p><p>You will have to recall their names during the rest of the experiment, so it is</p><p>essential that you try to memorise these people and their names as best as you can.</p><br><p><strong>You will then be tested on your memory of these names and portraits.</strong></p><br><p>The experiment will start after you have completed this memory test.</p><br><p>Ready?</p>","0","html-button-response","2","30299","0.0-2.0","65202","List1A","black","woman","","","","","","","",""
"66582","<img src='img/portrait_matrix_list1.jpg' style='width:900px;height:500px;''></img><p>If you have memorised all the portraits and names and are ready to start, press Continue.</p><p><strong>Please note: Your memory of these faces will be tested 4 times during this experiment.</strong></p>","0","html-button-response","3","97890","0.0-3.0-0.0","65202","List1A","black","woman","","","","","","","",""
"3164","<img src=""portrait/WM2.jpg""style=""height:400px;""></img>","7","html-button-response","4","102062","0.0-3.0-1.0","65202","List1A","black","woman","","true","7","","","","",""
"null","CORRECT","","html-keyboard-response","5","103572","0.0-3.0-2.0-0.0","65202","List1A","black","woman","","","","null","","","",""
"3644","<img src=""portrait/WW1.jpg""style=""height:400px;""></img>","2","html-button-response","6","107218","0.0-3.0-4.0","65202","List1A","black","woman","","true","1","","","","",""
"7238","<img src=""portrait/WW1.jpg""style=""height:400px;""></img>","1","html-button-response","7","115464","0.0-3.0-6.0-0.0","65202","List1A","black","woman","","false","1","","","","",""
"null","CORRECT","","html-keyboard-response","8","116976","0.0-3.0-6.0-1.0-0.0","65202","List1A","black","woman","","","","null","","","",""
"5704","<img src=""portrait/BM2.jpg""style=""height:400px;""></img>","5","html-button-response","9","122682","0.0-3.0-7.0","65202","List1A","black","woman","","true","5","","","","",""
"null","CORRECT","","html-keyboard-response","10","124194","0.0-3.0-8.0-0.0","65202","List1A","black","woman","","","","null","","","",""
"2481","<img src=""portrait/BW1.jpg""style=""height:400px;""></img>","2","html-button-response","11","126677","0.0-3.0-10.0","65202","List1A","black","woman","","true","0","","","","",""
"3320","<img src=""portrait/BW1.jpg""style=""height:400px;""></img>","0","html-button-response","12","131002","0.0-3.0-12.0-0.0","65202","List1A","black","woman","","false","0","","","","",""
"null","CORRECT","","html-keyboard-response","13","132513","0.0-3.0-12.0-1.0-0.0","65202","List1A","black","woman","","","","null","","","",""
"2795","<img src=""portrait/BM1.jpg""style=""height:400px;""></img>","4","html-button-response","14","135311","0.0-3.0-13.0","65202","List1A","black","woman","","true","4","","","","",""
"null","CORRECT","","html-keyboard-response","15","136823","0.0-3.0-14.0-0.0","65202","List1A","black","woman","","","","null","","","",""
"7478","<img src=""portrait/BW2.jpg""style=""height:400px;""></img>","3","html-button-response","16","144303","0.0-3.0-16.0","65202","List1A","black","woman","","true","2","","","","",""
"1361","<img src=""portrait/BW2.jpg""style=""height:400px;""></img>","2","html-button-response","17","146666","0.0-3.0-18.0-0.0","65202","List1A","black","woman","","false","2","","","","",""
"null","CORRECT","","html-keyboard-response","18","148178","0.0-3.0-18.0-1.0-0.0","65202","List1A","black","woman","","","","null","","","",""
"1919","<img src=""portrait/WW2.jpg""style=""height:400px;""></img>","3","html-button-response","19","150099","0.0-3.0-19.0","65202","List1A","black","woman","","true","3","","","","",""
"null","CORRECT","","html-keyboard-response","20","151607","0.0-3.0-20.0-0.0","65202","List1A","black","woman","","","","null","","","",""
"3718","<img src=""portrait/WM1.jpg""style=""height:400px;""></img>","6","html-button-response","21","155327","0.0-3.0-22.0","65202","List1A","black","woman","","true","6","","","","",""
"null","CORRECT","","html-keyboard-response","22","156829","0.0-3.0-23.0-0.0","65202","List1A","black","woman","","","","null","","","",""
"1509","<p>You got 5 out of 8 right first time. Press Continue.</p>","0","html-button-response","23","158339","0.0-3.0-25.0","65202","List1A","black","woman","","","","","","","",""
"2899","As you did not score 100%, the memory game will repeat. Press Continue.","0","html-button-response","24","162239","0.0-3.0-26.0-0.0","65202","List1A","black","woman","","","","","","","",""
"23237","<img src='img/portrait_matrix_list1.jpg' style='width:900px;height:500px;''></img><p>If you have memorised all the portraits and names and are ready to start, press Continue.</p><p><strong>Please note: Your memory of these faces will be tested 4 times during this experiment.</strong></p>","0","html-button-response","25","186484","0.0-3.1-0.1","65202","List1A","black","woman","","","","","","","",""
"2755","<img src=""portrait/WM2.jpg""style=""height:400px;""></img>","7","html-button-response","26","190247","0.0-3.1-1.1","65202","List1A","black","woman","","true","7","","","","",""
"null","CORRECT","","html-keyboard-response","27","191759","0.0-3.1-2.1-0.1","65202","List1A","black","woman","","","","null","","","",""
"3719","<img src=""portrait/WW1.jpg""style=""height:400px;""></img>","1","html-button-response","28","195480","0.0-3.1-4.1","65202","List1A","black","woman","","true","1","","","","",""
"null","CORRECT","","html-keyboard-response","29","196992","0.0-3.1-5.1-0.1","65202","List1A","black","woman","","","","null","","","",""
"3129","<img src=""portrait/BM2.jpg""style=""height:400px;""></img>","5","html-button-response","30","200123","0.0-3.1-7.1","65202","List1A","black","woman","","true","5","","","","",""
"null","CORRECT","","html-keyboard-response","31","201635","0.0-3.1-8.1-0.1","65202","List1A","black","woman","","","","null","","","",""
"3048","<img src=""portrait/BW1.jpg""style=""height:400px;""></img>","0","html-button-response","32","204684","0.0-3.1-10.1","65202","List1A","black","woman","","true","0","","","","",""
"null","CORRECT","","html-keyboard-response","33","206196","0.0-3.1-11.1-0.1","65202","List1A","black","woman","","","","null","","","",""
"2353","<img src=""portrait/BM1.jpg""style=""height:400px;""></img>","4","html-button-response","34","208551","0.0-3.1-13.1","65202","List1A","black","woman","","true","4","","","","",""
"null","CORRECT","","html-keyboard-response","35","210060","0.0-3.1-14.1-0.1","65202","List1A","black","woman","","","","null","","","",""
"3656","<img src=""portrait/BW2.jpg""style=""height:400px;""></img>","2","html-button-response","36","213719","0.0-3.1-16.1","65202","List1A","black","woman","","true","2","","","","",""
"null","CORRECT","","html-keyboard-response","37","215226","0.0-3.1-17.1-0.1","65202","List1A","black","woman","","","","null","","","",""
"3385","<img src=""portrait/WW2.jpg""style=""height:400px;""></img>","3","html-button-response","38","218614","0.0-3.1-19.1","65202","List1A","black","woman","","true","3","","","","",""
"null","CORRECT","","html-keyboard-response","39","220121","0.0-3.1-20.1-0.1","65202","List1A","black","woman","","","","null","","","",""
"3322","<img src=""portrait/WM1.jpg""style=""height:400px;""></img>","6","html-button-response","40","223444","0.0-3.1-22.1","65202","List1A","black","woman","","true","6","","","","",""
"null","CORRECT","","html-keyboard-response","41","224956","0.0-3.1-23.1-0.1","65202","List1A","black","woman","","","","null","","","",""
"1302","<p>You got 8 out of 8 right first time. Press Continue.</p>","0","html-button-response","42","226260","0.0-3.1-25.1","65202","List1A","black","woman","","","","","","","",""
"18102","<p>In this experiment, you will view photographs of the people from the memory game interacting.</p><p>By using the <strong>exact</strong> phrase given <i>after</i> the photograph appears and recalling the correct names of the people in the photographs, form a sentence describing the interaction. You do not need to capitalise names.</p><p>Type your answer in the space provided. Please complete every sentence before moving onto the next trial.</p><p>You will only have a few seconds to memorise each given photograph and phrase before you can respond, so try your best to focus.</p><p>An example is given below. Press 'Continue' when you are ready.</p><img src='img/speaking_example.jpg' style='width:800px;height:460px;''></img>","0","html-button-response","43","245369","0.0-4.0","65202","List1A","black","woman","","","","","","","",""
"6655","<p>Before the experiment starts, you will watch two example trials. Press 'Continue'.</p>","0","html-button-response","44","253030","0.0-5.0","65202","List1A","black","woman","","","","","","","",""
"null","<img src='img/meet_eg.gif' style='height:400px;''></img>","","html-keyboard-response","45","256038","0.0-6.0","65202","List1A","black","woman","","","","null","","","",""
"null","<p>is meeting</p>","","html-keyboard-response","46","258042","0.0-7.0","65202","List1A","black","woman","","","","null","","","",""
"2399","<p><b>Answer:</b> kate is meeting beth</p>","0","html-button-response","47","260442","0.0-8.0","65202","List1A","black","woman","","","","","","","",""
"null","<img src='img/look_eg.gif' style='height:400px;''></img>","","html-keyboard-response","48","263446","0.0-9.0","65202","List1A","black","woman","","","","null","","","",""
"null","<p>are looking at each other</p>","","html-keyboard-response","49","265449","0.0-10.0","65202","List1A","black","woman","","","","null","","","",""
"1325","<p><b>Answer:</b> luke and dave are looking at each other</p>","0","html-button-response","50","266775","0.0-11.0","65202","List1A","black","woman","","","","","","","",""
"4416","<p>Ready to start the experiment?</p><br><p><strong>Remember to describe the picture using a full sentence,</strong></p><p><strong>that combines the names of the people with the <i>exact</i> phrase given.</strong></p><p><strong>To receive full payment you must do this correctly.</strong></p><p><strong> You do not need to capitalise names or use punctuation.</strong></p><br><p>Press 'Continue' to begin.</p>","0","html-button-response","51","272196","0.0-12.0","65202","List1A","black","woman","","","","","","","",""
"null","<div style=""font-size:60px;"">+</div>","","html-keyboard-response","52","273703","0.0-13.0-0.0","65202","List1A","black","woman","","","","null","","","",""
"null","<img src=""stim_listA/flirt2.gif""style=""height:400px;""></stim_listA>","","html-keyboard-response","53","275705","0.0-13.0-1.0","65202","List1A","black","woman","","","","null","","","",""
"null","are flirting with each other","","html-keyboard-response","54","277707","0.0-13.0-2.0","65202","List1A","black","woman","","","","null","","","",""
"7145","","","survey-text","55","284856","0.0-13.0-3.0","65202","List1A","black","woman","","","","","{""Q0"":""mike and beth are flirting with each other""}","<img src=""stim_listA/flirt2.gif""style=""height:400px;""></stim_listA>","are flirting with each other",""
"null","<div style=""font-size:60px;"">+</div>","","html-keyboard-response","56","285360","0.0-13.0-0.1","65202","List1A","black","woman","","","","null","","","",""
"null","<img src=""stim_listA/kiss7.gif""style=""height:400px;""></stim_listA>","","html-keyboard-response","57","287362","0.0-13.0-1.1","65202","List1A","black","woman","","","","null","","","",""
"null","is kissing","","html-keyboard-response","58","289371","0.0-13.0-2.1","65202","List1A","black","woman","","","","null","","","",""
"10045","","","survey-text","59","299418","0.0-13.0-3.1","65202","List1A","black","woman","","","","","{""Q0"":""beth and ruth is kissing""}","<img src=""stim_listA/kiss7.gif""style=""height:400px;""></stim_listA>","is kissing",""
"null","<div style=""font-size:60px;"">+</div>","","html-keyboard-response","60","299919","0.0-13.0-0.2","65202","List1A","black","woman","","","","null","","","",""
"null","<img src=""stim_listA/touch7.gif""style=""height:400px;""></stim_listA>","","html-keyboard-response","61","301926","0.0-13.0-1.2","65202","List1A","black","woman","","","","null","","","",""
"null","is touching","","html-keyboard-response","62","303927","0.0-13.0-2.2","65202","List1A","black","woman","","","","null","","","",""
"4792","","","survey-text","63","308722","0.0-13.0-3.2","65202","List1A","black","woman","","","","","{""Q0"":""jane and kate is touching""}","<img src=""stim_listA/touch7.gif""style=""height:400px;""></stim_listA>","is touching",""
"null","<div style=""font-size:60px;"">+</div>","","html-keyboard-response","64","309225","0.0-13.0-0.3","65202","List1A","black","woman","","","","null","","","",""
"null","<img src=""stim_listA/talk4.gif""style=""height:400px;""></stim_listA>","","html-keyboard-response","65","311228","0.0-13.0-1.3","65202","List1A","black","woman","","","","null","","","",""
"null","are talking to each other","","html-keyboard-response","66","313235","0.0-13.0-2.3","65202","List1A","black","woman","","","","null","","","",""
"7198","","","survey-text","67","320434","0.0-13.0-3.3","65202","List1A","black","woman","","","","","{""Q0"":""ruth and dave are talking to each other""}","<img src=""stim_listA/talk4.gif""style=""height:400px;""></stim_listA>","are talking to each other",""
"null","<div style=""font-size:60px;"">+</div>","","html-keyboard-response","68","320937","0.0-13.0-0.4","65202","List1A","black","woman","","","","null","","","",""
"null","<img src=""stim_listA/fight5.gif""style=""height:400px;""></stim_listA>","","html-keyboard-response","69","322940","0.0-13.0-1.4","65202","List1A","black","woman","","","","null","","","",""
"null","is fighting","","html-keyboard-response","70","324942","0.0-13.0-2.4","65202","List1A","black","woman","","","","null","","","",""
"7249","","","survey-text","71","332192","0.0-13.0-3.4","65202","List1A","black","woman","","","","","{""Q0"":""dave and mike is fighting""}","<img src=""stim_listA/fight5.gif""style=""height:400px;""></stim_listA>","is fighting",""
"null","<div style=""font-size:60px;"">+</div>","","html-keyboard-response","72","332696","0.0-13.0-0.5","65202","List1A","black","woman","","","","null","","","",""
"null","<img src=""stim_listA/shout7.gif""style=""height:400px;""></stim_listA>","","html-keyboard-response","73","334698","0.0-13.0-1.5","65202","List1A","black","woman","","","","null","","","",""
"null","is shouting at","","html-keyboard-response","74","336703","0.0-13.0-2.5","65202","List1A","black","woman","","","","null","","","",""
"16260","","","survey-text","75","352965","0.0-13.0-3.5","65202","List1A","black","woman","","","","","{""Q0"":""ruth is shouting at beth""}","<img src=""stim_listA/shout7.gif""style=""height:400px;""></stim_listA>","is shouting at",""
"null","<div style=""font-size:60px;"">+</div>","","html-keyboard-response","76","353467","0.0-13.0-0.6","65202","List1A","black","woman","","","","null","","","",""
"null","<img src=""stim_listA/argue8.gif""style=""height:400px;""></stim_listA>","","html-keyboard-response","77","355469","0.0-13.0-1.6","65202","List1A","black","woman","","","","null","","","",""
"null","are arguing with each other","","html-keyboard-response","78","357472","0.0-13.0-2.6","65202","List1A","black","woman","","","","null","","","",""
"9645","","","survey-text","79","367117","0.0-13.0-3.6","65202","List1A","black","woman","","","","","{""Q0"":""beth and jane are arguing with each other""}","<img src=""stim_listA/argue8.gif""style=""height:400px;""></stim_listA>","are arguing with each other",""
"null","<div style=""font-size:60px;"">+</div>","","html-keyboard-response","80","367620","0.0-13.0-0.7","65202","List1A","black","woman","","","","null","","","",""
"null","<img src=""stim_listA/talk8.gif""style=""height:400px;""></stim_listA>","","html-keyboard-response","81","369623","0.0-13.0-1.7","65202","List1A","black","woman","","","","null","","","",""
"null","are talking to each other","","html-keyboard-response","82","371628","0.0-13.0-2.7","65202","List1A","black","woman","","","","null","","","",""
"8636","","","survey-text","83","380265","0.0-13.0-3.7","65202","List1A","black","woman","","","","","{""Q0"":""kate and ruth are talking to each other""}","<img src=""stim_listA/talk8.gif""style=""height:400px;""></stim_listA>","are talking to each other",""
"null","<div style=""font-size:60px;"">+</div>","","html-keyboard-response","84","380769","0.0-13.0-0.8","65202","List1A","black","woman","","","","null","","","",""
"null","<img src=""stim_listA/argue5.gif""style=""height:400px;""></stim_listA>","","html-keyboard-response","85","382771","0.0-13.0-1.8","65202","List1A","black","woman","","","","null","","","",""
"null","is arguing with","","html-keyboard-response","86","384772","0.0-13.0-2.8","65202","List1A","black","woman","","","","null","","","",""
"4419","","","survey-text","87","389193","0.0-13.0-3.8","65202","List1A","black","woman","","","","","{""Q0"":""mike is arguing with luke""}","<img src=""stim_listA/argue5.gif""style=""height:400px;""></stim_listA>","is arguing with",""
"null","<div style=""font-size:60px;"">+</div>","","html-keyboard-response","88","389695","0.0-13.0-0.9","65202","List1A","black","woman","","","","null","","","",""
"null","<img src=""stim_listA/fight3.gif""style=""height:400px;""></stim_listA>","","html-keyboard-response","89","391698","0.0-13.0-1.9","65202","List1A","black","woman","","","","null","","","",""
"null","is fighting","","html-keyboard-response","90","393705","0.0-13.0-2.9","65202","List1A","black","woman","","","","null","","","",""
"6473","","","survey-text","91","400179","0.0-13.0-3.9","65202","List1A","black","woman","","","","","{""Q0"":""dave is fighting jane""}","<img src=""stim_listA/fight3.gif""style=""height:400px;""></stim_listA>","is fighting",""
"null","<div style=""font-size:60px;"">+</div>","","html-keyboard-response","92","400681","0.0-13.0-0.10","65202","List1A","black","woman","","","","null","","","",""
"null","<img src=""stim_listA/argue1.gif""style=""height:400px;""></stim_listA>","","html-keyboard-response","93","402683","0.0-13.0-1.10","65202","List1A","black","woman","","","","null","","","",""
"null","is arguing with","","html-keyboard-response","94","404687","0.0-13.0-2.10","65202","List1A","black","woman","","","","null","","","",""
"6069","","","survey-text","95","410757","0.0-13.0-3.10","65202","List1A","black","woman","","","","","{""Q0"":""mike is arguing with beth""}","<img src=""stim_listA/argue1.gif""style=""height:400px;""></stim_listA>","is arguing with",""
"null","<div style=""font-size:60px;"">+</div>","","html-keyboard-response","96","411260","0.0-13.0-0.11","65202","List1A","black","woman","","","","null","","","",""
"null","<img src=""stim_listA/fight4.gif""style=""height:400px;""></stim_listA>","","html-keyboard-response","97","413264","0.0-13.0-1.11","65202","List1A","black","woman","","","","null","","","",""
"null","are fighting each other","","html-keyboard-response","98","415267","0.0-13.0-2.11","65202","List1A","black","woman","","","","null","","","",""
"9703","","","survey-text","99","424971","0.0-13.0-3.11","65202","List1A","black","woman","","","","","{""Q0"":""luke and ruth are fighting with each other""}","<img src=""stim_listA/fight4.gif""style=""height:400px;""></stim_listA>","are fighting each other",""
"null","<div style=""font-size:60px;"">+</div>","","html-keyboard-response","100","425474","0.0-13.0-0.12","65202","List1A","black","woman","","","","null","","","",""
"null","<img src=""stim_listA/play5.gif""style=""height:400px;""></stim_listA>","","html-keyboard-response","101","427476","0.0-13.0-1.12","65202","List1A","black","woman","","","","null","","","",""
"null","is playing with","","html-keyboard-response","102","429477","0.0-13.0-2.12","65202","List1A","black","woman","","","","null","","","",""
"3916","","","survey-text","103","433394","0.0-13.0-3.12","65202","List1A","black","woman","","","","","{""Q0"":""dave is playing with mike""}","<img src=""stim_listA/play5.gif""style=""height:400px;""></stim_listA>","is playing with",""
"null","<div style=""font-size:60px;"">+</div>","","html-keyboard-response","104","433897","0.0-13.0-0.13","65202","List1A","black","woman","","","","null","","","",""
"null","<img src=""stim_listA/play8.gif""style=""height:400px;""></stim_listA>","","html-keyboard-response","105","435901","0.0-13.0-1.13","65202","List1A","black","woman","","","","null","","","",""
"null","are playing with each other","","html-keyboard-response","106","437903","0.0-13.0-2.13","65202","List1A","black","woman","","","","null","","","",""
"5928","","","survey-text","107","443833","0.0-13.0-3.13","65202","List1A","black","woman","","","","","{""Q0"":""ruth and beth are playing with each other""}","<img src=""stim_listA/play8.gif""style=""height:400px;""></stim_listA>","are playing with each other",""
"null","<div style=""font-size:60px;"">+</div>","","html-keyboard-response","108","444335","0.0-13.0-0.14","65202","List1A","black","woman","","","","null","","","",""
"null","<img src=""stim_listA/marry8.gif""style=""height:400px;""></stim_listA>","","html-keyboard-response","109","446337","0.0-13.0-1.14","65202","List1A","black","woman","","","","null","","","",""
"null","are marrying each other","","html-keyboard-response","110","448338","0.0-13.0-2.14","65202","List1A","black","woman","","","","null","","","",""
"6769","","","survey-text","111","455108","0.0-13.0-3.14","65202","List1A","black","woman","","","","","{""Q0"":""jane and beth are marrying each other""}","<img src=""stim_listA/marry8.gif""style=""height:400px;""></stim_listA>","are marrying each other",""
"null","<div style=""font-size:60px;"">+</div>","","html-keyboard-response","112","455613","0.0-13.0-0.15","65202","List1A","black","woman","","","","null","","","",""
"null","<img src=""stim_listA/fight8.gif""style=""height:400px;""></stim_listA>","","html-keyboard-response","113","457618","0.0-13.0-1.15","65202","List1A","black","woman","","","","null","","","",""
"null","are fighting each other","","html-keyboard-response","114","459621","0.0-13.0-2.15","65202","List1A","black","woman","","","","null","","","",""
"6754","","","survey-text","115","466376","0.0-13.0-3.15","65202","List1A","black","woman","","","","","{""Q0"":""ruth and beth are fighting each other""}","<img src=""stim_listA/fight8.gif""style=""height:400px;""></stim_listA>","are fighting each other",""
"null","<div style=""font-size:60px;"">+</div>","","html-keyboard-response","116","466879","0.0-13.0-0.16","65202","List1A","black","woman","","","","null","","","",""
"null","<img src=""stim_listA/argue2.gif""style=""height:400px;""></stim_listA>","","html-keyboard-response","117","468884","0.0-13.0-1.16","65202","List1A","black","woman","","","","null","","","",""
"null","are arguing with each other","","html-keyboard-response","118","470890","0.0-13.0-2.16","65202","List1A","black","woman","","","","null","","","",""
"6956","","","survey-text","119","477847","0.0-13.0-3.16","65202","List1A","black","woman","","","","","{""Q0"":""fred and kate are arguing with each other""}","<img src=""stim_listA/argue2.gif""style=""height:400px;""></stim_listA>","are arguing with each other",""
"null","<div style=""font-size:60px;"">+</div>","","html-keyboard-response","120","478350","0.0-13.0-0.17","65202","List1A","black","woman","","","","null","","","",""
"null","<img src=""stim_listA/argue4.gif""style=""height:400px;""></stim_listA>","","html-keyboard-response","121","480353","0.0-13.0-1.17","65202","List1A","black","woman","","","","null","","","",""
"null","are arguing with each other","","html-keyboard-response","122","482355","0.0-13.0-2.17","65202","List1A","black","woman","","","","null","","","",""
"6398","","","survey-text","123","488754","0.0-13.0-3.17","65202","List1A","black","woman","","","","","{""Q0"":""luke and jane are arguing with each other""}","<img src=""stim_listA/argue4.gif""style=""height:400px;""></stim_listA>","are arguing with each other",""
"null","<div style=""font-size:60px;"">+</div>","","html-keyboard-response","124","489257","0.0-13.0-0.18","65202","List1A","black","woman","","","","null","","","",""
"null","<img src=""stim_listA/touch8.gif""style=""height:400px;""></stim_listA>","","html-keyboard-response","125","491262","0.0-13.0-1.18","65202","List1A","black","woman","","","","null","","","",""
"null","are touching each other","","html-keyboard-response","126","493263","0.0-13.0-2.18","65202","List1A","black","woman","","","","null","","","",""
"4805","","","survey-text","127","498069","0.0-13.0-3.18","65202","List1A","black","woman","","","","","{""Q0"":""ruth and beth are touching each other""}","<img src=""stim_listA/touch8.gif""style=""height:400px;""></stim_listA>","are touching each other",""
"null","<div style=""font-size:60px;"">+</div>","","html-keyboard-response","128","498573","0.0-13.0-0.19","65202","List1A","black","woman","","","","null","","","",""
"null","<img src=""stim_listA/kiss8.gif""style=""height:400px;""></stim_listA>","","html-keyboard-response","129","500577","0.0-13.0-1.19","65202","List1A","black","woman","","","","null","","","",""
"null","are kissing each other","","html-keyboard-response","130","502580","0.0-13.0-2.19","65202","List1A","black","woman","","","","null","","","",""
"5575","","","survey-text","131","508156","0.0-13.0-3.19","65202","List1A","black","woman","","","","","{""Q0"":""jane and kate are kissing each other""}","<img src=""stim_listA/kiss8.gif""style=""height:400px;""></stim_listA>","are kissing each other",""
"4721","<img src='img/portrait_matrix_list1.jpg' style='width:900px;height:500px;''></img><p>If you have memorised all the portraits and names and are ready to start, press Continue.</p><p><strong>Please note: Your memory of these faces will be tested 4 times during this experiment.</strong></p>","0","html-button-response","132","512880","0.0-14.0-0.0","65202","List1A","black","woman","","","","","","","",""
"3161","<img src=""portrait/WM2.jpg""style=""height:400px;""></img>","7","html-button-response","133","517048","0.0-14.0-1.0","65202","List1A","black","woman","","true","7","","","","",""
"null","CORRECT","","html-keyboard-response","134","518560","0.0-14.0-2.0-0.0","65202","List1A","black","woman","","","","null","","","",""
"1768","<img src=""portrait/BM2.jpg""style=""height:400px;""></img>","5","html-button-response","135","520329","0.0-14.0-4.0","65202","List1A","black","woman","","true","5","","","","",""
"null","CORRECT","","html-keyboard-response","136","521840","0.0-14.0-5.0-0.0","65202","List1A","black","woman","","","","null","","","",""
"4837","<img src=""portrait/BW2.jpg""style=""height:400px;""></img>","2","html-button-response","137","526678","0.0-14.0-7.0","65202","List1A","black","woman","","true","2","","","","",""
"null","CORRECT","","html-keyboard-response","138","528186","0.0-14.0-8.0-0.0","65202","List1A","black","woman","","","","null","","","",""
"1303","<img src=""portrait/WW2.jpg""style=""height:400px;""></img>","3","html-button-response","139","529490","0.0-14.0-10.0","65202","List1A","black","woman","","true","3","","","","",""
"null","CORRECT","","html-keyboard-response","140","531002","0.0-14.0-11.0-0.0","65202","List1A","black","woman","","","","null","","","",""
"2456","<img src=""portrait/BW1.jpg""style=""height:400px;""></img>","0","html-button-response","141","533460","0.0-14.0-13.0","65202","List1A","black","woman","","true","0","","","","",""
"null","CORRECT","","html-keyboard-response","142","534971","0.0-14.0-14.0-0.0","65202","List1A","black","woman","","","","null","","","",""
"1512","<img src=""portrait/WW1.jpg""style=""height:400px;""></img>","1","html-button-response","143","536485","0.0-14.0-16.0","65202","List1A","black","woman","","true","1","","","","",""
"null","CORRECT","","html-keyboard-response","144","537991","0.0-14.0-17.0-0.0","65202","List1A","black","woman","","","","null","","","",""
"2227","<img src=""portrait/WM1.jpg""style=""height:400px;""></img>","6","html-button-response","145","540221","0.0-14.0-19.0","65202","List1A","black","woman","","true","6","","","","",""
"null","CORRECT","","html-keyboard-response","146","541727","0.0-14.0-20.0-0.0","65202","List1A","black","woman","","","","null","","","",""
"1587","<img src=""portrait/BM1.jpg""style=""height:400px;""></img>","4","html-button-response","147","543316","0.0-14.0-22.0","65202","List1A","black","woman","","true","4","","","","",""
"null","CORRECT","","html-keyboard-response","148","544828","0.0-14.0-23.0-0.0","65202","List1A","black","woman","","","","null","","","",""
"1438","<p>You got 8 out of 8 right first time. Press Continue.</p>","0","html-button-response","149","546267","0.0-14.0-25.0","65202","List1A","black","woman","","","","","","","",""
"null","<div style=""font-size:60px;"">+</div>","","html-keyboard-response","150","547779","0.0-15.0-0.0","65202","List1A","black","woman","","","","null","","","",""
"null","<img src=""stim_listA/flirt6.gif""style=""height:400px;""></stim_listA>","","html-keyboard-response","151","549781","0.0-15.0-1.0","65202","List1A","black","woman","","","","null","","","",""
"null","are flirting with each other","","html-keyboard-response","152","551782","0.0-15.0-2.0","65202","List1A","black","woman","","","","null","","","",""
"6518","","","survey-text","153","558302","0.0-15.0-3.0","65202","List1A","black","woman","","","","","{""Q0"":""luke and mike are flirting with each other""}","<img src=""stim_listA/flirt6.gif""style=""height:400px;""></stim_listA>","are flirting with each other",""
"null","<div style=""font-size:60px;"">+</div>","","html-keyboard-response","154","558804","0.0-15.0-0.1","65202","List1A","black","woman","","","","null","","","",""
"null","<img src=""stim_listA/kiss5.gif""style=""height:400px;""></stim_listA>","","html-keyboard-response","155","560806","0.0-15.0-1.1","65202","List1A","black","woman","","","","null","","","",""
"null","is kissing","","html-keyboard-response","156","562810","0.0-15.0-2.1","65202","List1A","black","woman","","","","null","","","",""
"5158","","","survey-text","157","567969","0.0-15.0-3.1","65202","List1A","black","woman","","","","","{""Q0"":""luke is kissing fred""}","<img src=""stim_listA/kiss5.gif""style=""height:400px;""></stim_listA>","is kissing",""
"null","<div style=""font-size:60px;"">+</div>","","html-keyboard-response","158","568470","0.0-15.0-0.2","65202","List1A","black","woman","","","","null","","","",""
"null","<img src=""stim_listA/shout3.gif""style=""height:400px;""></stim_listA>","","html-keyboard-response","159","570473","0.0-15.0-1.2","65202","List1A","black","woman","","","","null","","","",""
"null","is shouting at","","html-keyboard-response","160","572479","0.0-15.0-2.2","65202","List1A","black","woman","","","","null","","","",""
"4105","","","survey-text","161","576585","0.0-15.0-3.2","65202","List1A","black","woman","","","","","{""Q0"":""ruth is shouting at luke""}","<img src=""stim_listA/shout3.gif""style=""height:400px;""></stim_listA>","is shouting at",""
"null","<div style=""font-size:60px;"">+</div>","","html-keyboard-response","162","577088","0.0-15.0-0.3","65202","List1A","black","woman","","","","null","","","",""
"null","<img src=""stim_listA/talk7.gif""style=""height:400px;""></stim_listA>","","html-keyboard-response","163","579091","0.0-15.0-1.3","65202","List1A","black","woman","","","","null","","","",""
"null","is talking to","","html-keyboard-response","164","581092","0.0-15.0-2.3","65202","List1A","black","woman","","","","null","","","",""
"4356","","","survey-text","165","585448","0.0-15.0-3.3","65202","List1A","black","woman","","","","","{""Q0"":""jane is talking to beth""}","<img src=""stim_listA/talk7.gif""style=""height:400px;""></stim_listA>","is talking to",""
"null","<div style=""font-size:60px;"">+</div>","","html-keyboard-response","166","585951","0.0-15.0-0.4","65202","List1A","black","woman","","","","null","","","",""
"null","<img src=""stim_listA/flirt8.gif""style=""height:400px;""></stim_listA>","","html-keyboard-response","167","587955","0.0-15.0-1.4","65202","List1A","black","woman","","","","null","","","",""
"null","are flirting with each other","","html-keyboard-response","168","589957","0.0-15.0-2.4","65202","List1A","black","woman","","","","null","","","",""
"6119","","","survey-text","169","596077","0.0-15.0-3.4","65202","List1A","black","woman","","","","","{""Q0"":""ruth and kate are flirting with each other""}","<img src=""stim_listA/flirt8.gif""style=""height:400px;""></stim_listA>","are flirting with each other",""
"null","<div style=""font-size:60px;"">+</div>","","html-keyboard-response","170","596579","0.0-15.0-0.5","65202","List1A","black","woman","","","","null","","","",""
"null","<img src=""stim_listA/talk1.gif""style=""height:400px;""></stim_listA>","","html-keyboard-response","171","598581","0.0-15.0-1.5","65202","List1A","black","woman","","","","null","","","",""
"null","is talking to","","html-keyboard-response","172","600585","0.0-15.0-2.5","65202","List1A","black","woman","","","","null","","","",""
"4960","","","survey-text","173","605547","0.0-15.0-3.5","65202","List1A","black","woman","","","","","{""Q0"":""fred is talking to kate""}","<img src=""stim_listA/talk1.gif""style=""height:400px;""></stim_listA>","is talking to",""
"null","<div style=""font-size:60px;"">+</div>","","html-keyboard-response","174","606049","0.0-15.0-0.6","65202","List1A","black","woman","","","","null","","","",""
"null","<img src=""stim_listA/talk5.gif""style=""height:400px;""></stim_listA>","","html-keyboard-response","175","608053","0.0-15.0-1.6","65202","List1A","black","woman","","","","null","","","",""
"null","is talking to","","html-keyboard-response","176","610059","0.0-15.0-2.6","65202","List1A","black","woman","","","","null","","","",""
"5254","","","survey-text","177","615315","0.0-15.0-3.6","65202","List1A","black","woman","","","","","{""Q0"":""dave is talking to fred""}","<img src=""stim_listA/talk5.gif""style=""height:400px;""></stim_listA>","is talking to",""
"null","<div style=""font-size:60px;"">+</div>","","html-keyboard-response","178","615818","0.0-15.0-0.7","65202","List1A","black","woman","","","","null","","","",""
"null","<img src=""stim_listA/play1.gif""style=""height:400px;""></stim_listA>","","html-keyboard-response","179","617821","0.0-15.0-1.7","65202","List1A","black","woman","","","","null","","","",""
"null","is playing with","","html-keyboard-response","180","619826","0.0-15.0-2.7","65202","List1A","black","woman","","","","null","","","",""
"5103","","","survey-text","181","624930","0.0-15.0-3.7","65202","List1A","black","woman","","","","","{""Q0"":""mike is playing with kate""}","<img src=""stim_listA/play1.gif""style=""height:400px;""></stim_listA>","is playing with",""
"null","<div style=""font-size:60px;"">+</div>","","html-keyboard-response","182","625433","0.0-15.0-0.8","65202","List1A","black","woman","","","","null","","","",""
"null","<img src=""stim_listA/shout8.gif""style=""height:400px;""></stim_listA>","","html-keyboard-response","183","627436","0.0-15.0-1.8","65202","List1A","black","woman","","","","null","","","",""
"null","are shouting at each other","","html-keyboard-response","184","629438","0.0-15.0-2.8","65202","List1A","black","woman","","","","null","","","",""
"5298","","","survey-text","185","634738","0.0-15.0-3.8","65202","List1A","black","woman","","","","","{""Q0"":""jane and kate are shouting at each other""}","<img src=""stim_listA/shout8.gif""style=""height:400px;""></stim_listA>","are shouting at each other",""
"null","<div style=""font-size:60px;"">+</div>","","html-keyboard-response","186","635240","0.0-15.0-0.9","65202","List1A","black","woman","","","","null","","","",""
"null","<img src=""stim_listA/kiss4.gif""style=""height:400px;""></stim_listA>","","html-keyboard-response","187","637244","0.0-15.0-1.9","65202","List1A","black","woman","","","","null","","","",""
"null","are kissing each other","","html-keyboard-response","188","639250","0.0-15.0-2.9","65202","List1A","black","woman","","","","null","","","",""
"4953","","","survey-text","189","644203","0.0-15.0-3.9","65202","List1A","black","woman","","","","","{""Q0"":""dave and jane are kissing each other""}","<img src=""stim_listA/kiss4.gif""style=""height:400px;""></stim_listA>","are kissing each other",""
"null","<div style=""font-size:60px;"">+</div>","","html-keyboard-response","190","644706","0.0-15.0-0.10","65202","List1A","black","woman","","","","null","","","",""
"null","<img src=""stim_listA/flirt4.gif""style=""height:400px;""></stim_listA>","","html-keyboard-response","191","646710","0.0-15.0-1.10","65202","List1A","black","woman","","","","null","","","",""
"null","are flirting with each other","","html-keyboard-response","192","648716","0.0-15.0-2.10","65202","List1A","black","woman","","","","null","","","",""
"6485","","","survey-text","193","655202","0.0-15.0-3.10","65202","List1A","black","woman","","","","","{""Q0"":""dave and ruth are flirting with each other""}","<img src=""stim_listA/flirt4.gif""style=""height:400px;""></stim_listA>","are flirting with each other",""
"null","<div style=""font-size:60px;"">+</div>","","html-keyboard-response","194","655705","0.0-15.0-0.11","65202","List1A","black","woman","","","","null","","","",""
"null","<img src=""stim_listA/fight7.gif""style=""height:400px;""></stim_listA>","","html-keyboard-response","195","657707","0.0-15.0-1.11","65202","List1A","black","woman","","","","null","","","",""
"null","is fighting","","html-keyboard-response","196","659710","0.0-15.0-2.11","65202","List1A","black","woman","","","","null","","","",""
"4212","","","survey-text","197","663923","0.0-15.0-3.11","65202","List1A","black","woman","","","","","{""Q0"":""jane is fighting kate""}","<img src=""stim_listA/fight7.gif""style=""height:400px;""></stim_listA>","is fighting",""
"null","<div style=""font-size:60px;"">+</div>","","html-keyboard-response","198","664425","0.0-15.0-0.12","65202","List1A","black","woman","","","","null","","","",""
"null","<img src=""stim_listA/shout5.gif""style=""height:400px;""></stim_listA>","","html-keyboard-response","199","666428","0.0-15.0-1.12","65202","List1A","black","woman","","","","null","","","",""
"null","is shouting at","","html-keyboard-response","200","668434","0.0-15.0-2.12","65202","List1A","black","woman","","","","null","","","",""
"8306","","","survey-text","201","676742","0.0-15.0-3.12","65202","List1A","black","woman","","","","","{""Q0"":""luke is shouting at fred""}","<img src=""stim_listA/shout5.gif""style=""height:400px;""></stim_listA>","is shouting at",""
"null","<div style=""font-size:60px;"">+</div>","","html-keyboard-response","202","677244","0.0-15.0-0.13","65202","List1A","black","woman","","","","null","","","",""
"null","<img src=""stim_listA/dance8.gif""style=""height:400px;""></stim_listA>","","html-keyboard-response","203","679245","0.0-15.0-1.13","65202","List1A","black","woman","","","","null","","","",""
"null","are dancing with each other","","html-keyboard-response","204","681251","0.0-15.0-2.13","65202","List1A","black","woman","","","","null","","","",""
"5357","","","survey-text","205","686609","0.0-15.0-3.13","65202","List1A","black","woman","","","","","{""Q0"":""ruth and kate are dancing with each other""}","<img src=""stim_listA/dance8.gif""style=""height:400px;""></stim_listA>","are dancing with each other",""
"null","<div style=""font-size:60px;"">+</div>","","html-keyboard-response","206","687110","0.0-15.0-0.14","65202","List1A","black","woman","","","","null","","","",""
"null","<img src=""stim_listA/fight6.gif""style=""height:400px;""></stim_listA>","","html-keyboard-response","207","689114","0.0-15.0-1.14","65202","List1A","black","woman","","","","null","","","",""
"null","are fighting each other","","html-keyboard-response","208","691117","0.0-15.0-2.14","65202","List1A","black","woman","","","","null","","","",""
"5291","","","survey-text","209","696410","0.0-15.0-3.14","65202","List1A","black","woman","","","","","{""Q0"":""luke and fred are fighting each other""}","<img src=""stim_listA/fight6.gif""style=""height:400px;""></stim_listA>","are fighting each other",""
"null","<div style=""font-size:60px;"">+</div>","","html-keyboard-response","210","696912","0.0-15.0-0.15","65202","List1A","black","woman","","","","null","","","",""
"null","<img src=""stim_listA/flirt1.gif""style=""height:400px;""></stim_listA>","","html-keyboard-response","211","698916","0.0-15.0-1.15","65202","List1A","black","woman","","","","null","","","",""
"null","is flirting with","","html-keyboard-response","212","700919","0.0-15.0-2.15","65202","List1A","black","woman","","","","null","","","",""
"3863","","","survey-text","213","704784","0.0-15.0-3.15","65202","List1A","black","woman","","","","","{""Q0"":""fred is flirting with kate""}","<img src=""stim_listA/flirt1.gif""style=""height:400px;""></stim_listA>","is flirting with",""
"null","<div style=""font-size:60px;"">+</div>","","html-keyboard-response","214","705286","0.0-15.0-0.16","65202","List1A","black","woman","","","","null","","","",""
"null","<img src=""stim_listA/flirt3.gif""style=""height:400px;""></stim_listA>","","html-keyboard-response","215","707288","0.0-15.0-1.16","65202","List1A","black","woman","","","","null","","","",""
"null","is flirting with","","html-keyboard-response","216","709289","0.0-15.0-2.16","65202","List1A","black","woman","","","","null","","","",""
"4740","","","survey-text","217","714031","0.0-15.0-3.16","65202","List1A","black","woman","","","","","{""Q0"":""luke is flirting with jane""}","<img src=""stim_listA/flirt3.gif""style=""height:400px;""></stim_listA>","is flirting with",""
"null","<div style=""font-size:60px;"">+</div>","","html-keyboard-response","218","714533","0.0-15.0-0.17","65202","List1A","black","woman","","","","null","","","",""
"null","<img src=""stim_listA/kiss6.gif""style=""height:400px;""></stim_listA>","","html-keyboard-response","219","716537","0.0-15.0-1.17","65202","List1A","black","woman","","","","null","","","",""
"null","are kissing each other","","html-keyboard-response","220","718539","0.0-15.0-2.17","65202","List1A","black","woman","","","","null","","","",""
"5584","","","survey-text","221","724125","0.0-15.0-3.17","65202","List1A","black","woman","","","","","{""Q0"":""dave and mike are kissing each other""}","<img src=""stim_listA/kiss6.gif""style=""height:400px;""></stim_listA>","are kissing each other",""
"null","<div style=""font-size:60px;"">+</div>","","html-keyboard-response","222","724628","0.0-15.0-0.18","65202","List1A","black","woman","","","","null","","","",""
"null","<img src=""stim_listA/marry2.gif""style=""height:400px;""></stim_listA>","","html-keyboard-response","223","726630","0.0-15.0-1.18","65202","List1A","black","woman","","","","null","","","",""
"null","are marrying each other","","html-keyboard-response","224","728636","0.0-15.0-2.18","65202","List1A","black","woman","","","","null","","","",""
"6361","","","survey-text","225","734998","0.0-15.0-3.18","65202","List1A","black","woman","","","","","{""Q0"":""fred and kate are marrying each other""}","<img src=""stim_listA/marry2.gif""style=""height:400px;""></stim_listA>","are marrying each other",""
"null","<div style=""font-size:60px;"">+</div>","","html-keyboard-response","226","735501","0.0-15.0-0.19","65202","List1A","black","woman","","","","null","","","",""
"null","<img src=""stim_listA/play3.gif""style=""height:400px;""></stim_listA>","","html-keyboard-response","227","737505","0.0-15.0-1.19","65202","List1A","black","woman","","","","null","","","",""
"null","is playing with","","html-keyboard-response","228","739507","0.0-15.0-2.19","65202","List1A","black","woman","","","","null","","","",""
"6075","","","survey-text","229","745584","0.0-15.0-3.19","65202","List1A","black","woman","","","","","{""Q0"":""jane is playing with dave""}","<img src=""stim_listA/play3.gif""style=""height:400px;""></stim_listA>","is playing with",""
"1948","<img src='img/portrait_matrix_list1.jpg' style='width:900px;height:500px;''></img><p>If you have memorised all the portraits and names and are ready to start, press Continue.</p><p><strong>Please note: Your memory of these faces will be tested 4 times during this experiment.</strong></p>","0","html-button-response","230","747533","0.0-16.0-0.0","65202","List1A","black","woman","","","","","","","",""
"4532","<img src=""portrait/BM2.jpg""style=""height:400px;""></img>","5","html-button-response","231","753072","0.0-16.0-1.0","65202","List1A","black","woman","","true","5","","","","",""
"null","CORRECT","","html-keyboard-response","232","754584","0.0-16.0-2.0-0.0","65202","List1A","black","woman","","","","null","","","",""
"1868","<img src=""portrait/BW1.jpg""style=""height:400px;""></img>","0","html-button-response","233","756453","0.0-16.0-4.0","65202","List1A","black","woman","","true","0","","","","",""
"null","CORRECT","","html-keyboard-response","234","757964","0.0-16.0-5.0-0.0","65202","List1A","black","woman","","","","null","","","",""
"1308","<img src=""portrait/BW2.jpg""style=""height:400px;""></img>","2","html-button-response","235","759274","0.0-16.0-7.0","65202","List1A","black","woman","","true","2","","","","",""
"null","CORRECT","","html-keyboard-response","236","760786","0.0-16.0-8.0-0.0","65202","List1A","black","woman","","","","null","","","",""
"1854","<img src=""portrait/WM1.jpg""style=""height:400px;""></img>","6","html-button-response","237","762641","0.0-16.0-10.0","65202","List1A","black","woman","","true","6","","","","",""
"null","CORRECT","","html-keyboard-response","238","764152","0.0-16.0-11.0-0.0","65202","List1A","black","woman","","","","null","","","",""
"1637","<img src=""portrait/WW2.jpg""style=""height:400px;""></img>","3","html-button-response","239","765790","0.0-16.0-13.0","65202","List1A","black","woman","","true","3","","","","",""
"null","CORRECT","","html-keyboard-response","240","767302","0.0-16.0-14.0-0.0","65202","List1A","black","woman","","","","null","","","",""
"1198","<img src=""portrait/WW1.jpg""style=""height:400px;""></img>","1","html-button-response","241","768501","0.0-16.0-16.0","65202","List1A","black","woman","","true","1","","","","",""
"null","CORRECT","","html-keyboard-response","242","770013","0.0-16.0-17.0-0.0","65202","List1A","black","woman","","","","null","","","",""
"1226","<img src=""portrait/WM2.jpg""style=""height:400px;""></img>","7","html-button-response","243","771241","0.0-16.0-19.0","65202","List1A","black","woman","","true","7","","","","",""
"null","CORRECT","","html-keyboard-response","244","772752","0.0-16.0-20.0-0.0","65202","List1A","black","woman","","","","null","","","",""
"1797","<img src=""portrait/BM1.jpg""style=""height:400px;""></img>","4","html-button-response","245","774551","0.0-16.0-22.0","65202","List1A","black","woman","","true","4","","","","",""
"null","CORRECT","","html-keyboard-response","246","776060","0.0-16.0-23.0-0.0","65202","List1A","black","woman","","","","null","","","",""
"1175","<p>You got 8 out of 8 right first time. Press Continue.</p>","0","html-button-response","247","777237","0.0-16.0-25.0","65202","List1A","black","woman","","","","","","","",""
"null","<div style=""font-size:60px;"">+</div>","","html-keyboard-response","248","778749","0.0-17.0-0.0","65202","List1A","black","woman","","","","null","","","",""
"null","<img src=""stim_listA/dance1.gif""style=""height:400px;""></stim_listA>","","html-keyboard-response","249","780752","0.0-17.0-1.0","65202","List1A","black","woman","","","","null","","","",""
"null","is dancing with","","html-keyboard-response","250","782753","0.0-17.0-2.0","65202","List1A","black","woman","","","","null","","","",""
"4158","","","survey-text","251","786913","0.0-17.0-3.0","65202","List1A","black","woman","","","","","{""Q0"":""kate is dancing with fred""}","<img src=""stim_listA/dance1.gif""style=""height:400px;""></stim_listA>","is dancing with",""
"null","<div style=""font-size:60px;"">+</div>","","html-keyboard-response","252","787415","0.0-17.0-0.1","65202","List1A","black","woman","","","","null","","","",""
"null","<img src=""stim_listA/argue6.gif""style=""height:400px;""></stim_listA>","","html-keyboard-response","253","789417","0.0-17.0-1.1","65202","List1A","black","woman","","","","null","","","",""
"null","are arguing with each other","","html-keyboard-response","254","791419","0.0-17.0-2.1","65202","List1A","black","woman","","","","null","","","",""
"5282","","","survey-text","255","796703","0.0-17.0-3.1","65202","List1A","black","woman","","","","","{""Q0"":""fred and dave are arguing with each other""}","<img src=""stim_listA/argue6.gif""style=""height:400px;""></stim_listA>","are arguing with each other",""
"null","<div style=""font-size:60px;"">+</div>","","html-keyboard-response","256","797205","0.0-17.0-0.2","65202","List1A","black","woman","","","","null","","","",""
"null","<img src=""stim_listA/play6.gif""style=""height:400px;""></stim_listA>","","html-keyboard-response","257","799208","0.0-17.0-1.2","65202","List1A","black","woman","","","","null","","","",""
"null","are playing with each other","","html-keyboard-response","258","801209","0.0-17.0-2.2","65202","List1A","black","woman","","","","null","","","",""
"5258","","","survey-text","259","806469","0.0-17.0-3.2","65202","List1A","black","woman","","","","","{""Q0"":""fred and luke are playing with each other""}","<img src=""stim_listA/play6.gif""style=""height:400px;""></stim_listA>","are playing with each other",""
"null","<div style=""font-size:60px;"">+</div>","","html-keyboard-response","260","806971","0.0-17.0-0.3","65202","List1A","black","woman","","","","null","","","",""
"null","<img src=""stim_listA/touch2.gif""style=""height:400px;""></stim_listA>","","html-keyboard-response","261","808973","0.0-17.0-1.3","65202","List1A","black","woman","","","","null","","","",""
"null","are touching each other","","html-keyboard-response","262","810977","0.0-17.0-2.3","65202","List1A","black","woman","","","","null","","","",""
"5434","","","survey-text","263","816413","0.0-17.0-3.3","65202","List1A","black","woman","","","","","{""Q0"":""fred and beth are touching each other""}","<img src=""stim_listA/touch2.gif""style=""height:400px;""></stim_listA>","are touching each other",""
"null","<div style=""font-size:60px;"">+</div>","","html-keyboard-response","264","816915","0.0-17.0-0.4","65202","List1A","black","woman","","","","null","","","",""
"null","<img src=""stim_listA/dance6.gif""style=""height:400px;""></stim_listA>","","html-keyboard-response","265","818917","0.0-17.0-1.4","65202","List1A","black","woman","","","","null","","","",""
"null","are dancing with each other","","html-keyboard-response","266","820920","0.0-17.0-2.4","65202","List1A","black","woman","","","","null","","","",""
"6561","","","survey-text","267","827482","0.0-17.0-3.4","65202","List1A","black","woman","","","","","{""Q0"":""mike and luke are dancing with each other""}","<img src=""stim_listA/dance6.gif""style=""height:400px;""></stim_listA>","are dancing with each other",""
"null","<div style=""font-size:60px;"">+</div>","","html-keyboard-response","268","827985","0.0-17.0-0.5","65202","List1A","black","woman","","","","null","","","",""
"null","<img src=""stim_listA/dance2.gif""style=""height:400px;""></stim_listA>","","html-keyboard-response","269","829987","0.0-17.0-1.5","65202","List1A","black","woman","","","","null","","","",""
"null","are dancing with each other","","html-keyboard-response","270","831989","0.0-17.0-2.5","65202","List1A","black","woman","","","","null","","","",""
"6774","","","survey-text","271","838765","0.0-17.0-3.5","65202","List1A","black","woman","","","","","{""Q0"":""beth and mike are dancing with each other""}","<img src=""stim_listA/dance2.gif""style=""height:400px;""></stim_listA>","are dancing with each other",""
"null","<div style=""font-size:60px;"">+</div>","","html-keyboard-response","272","839268","0.0-17.0-0.6","65202","List1A","black","woman","","","","null","","","",""
"null","<img src=""stim_listA/play4.gif""style=""height:400px;""></stim_listA>","","html-keyboard-response","273","841269","0.0-17.0-1.6","65202","List1A","black","woman","","","","null","","","",""
"null","are playing with each other","","html-keyboard-response","274","843271","0.0-17.0-2.6","65202","List1A","black","woman","","","","null","","","",""
"5501","","","survey-text","275","848774","0.0-17.0-3.6","65202","List1A","black","woman","","","","","{""Q0"":""luke and ruth are playing with each other""}","<img src=""stim_listA/play4.gif""style=""height:400px;""></stim_listA>","are playing with each other",""
"null","<div style=""font-size:60px;"">+</div>","","html-keyboard-response","276","849276","0.0-17.0-0.7","65202","List1A","black","woman","","","","null","","","",""
"null","<img src=""stim_listA/marry7.gif""style=""height:400px;""></stim_listA>","","html-keyboard-response","277","851277","0.0-17.0-1.7","65202","List1A","black","woman","","","","null","","","",""
"null","is marrying","","html-keyboard-response","278","853279","0.0-17.0-2.7","65202","List1A","black","woman","","","","null","","","",""
"5015","","","survey-text","279","858296","0.0-17.0-3.7","65202","List1A","black","woman","","","","","{""Q0"":""ruth is marrying kate""}","<img src=""stim_listA/marry7.gif""style=""height:400px;""></stim_listA>","is marrying",""
"null","<div style=""font-size:60px;"">+</div>","","html-keyboard-response","280","858801","0.0-17.0-0.8","65202","List1A","black","woman","","","","null","","","",""
"null","<img src=""stim_listA/kiss2.gif""style=""height:400px;""></stim_listA>","","html-keyboard-response","281","860803","0.0-17.0-1.8","65202","List1A","black","woman","","","","null","","","",""
"null","are kissing each other","","html-keyboard-response","282","862808","0.0-17.0-2.8","65202","List1A","black","woman","","","","null","","","",""
"5036","","","survey-text","283","867845","0.0-17.0-3.8","65202","List1A","black","woman","","","","","{""Q0"":""kate and mike are kissing each other""}","<img src=""stim_listA/kiss2.gif""style=""height:400px;""></stim_listA>","are kissing each other",""
"null","<div style=""font-size:60px;"">+</div>","","html-keyboard-response","284","868348","0.0-17.0-0.9","65202","List1A","black","woman","","","","null","","","",""
"null","<img src=""stim_listA/flirt7.gif""style=""height:400px;""></stim_listA>","","html-keyboard-response","285","870351","0.0-17.0-1.9","65202","List1A","black","woman","","","","null","","","",""
"null","is flirting with","","html-keyboard-response","286","872351","0.0-17.0-2.9","65202","List1A","black","woman","","","","null","","","",""
"4199","","","survey-text","287","876552","0.0-17.0-3.9","65202","List1A","black","woman","","","","","{""Q0"":""jane is flirting with beth""}","<img src=""stim_listA/flirt7.gif""style=""height:400px;""></stim_listA>","is flirting with",""
"null","<div style=""font-size:60px;"">+</div>","","html-keyboard-response","288","877054","0.0-17.0-0.10","65202","List1A","black","woman","","","","null","","","",""
"null","<img src=""stim_listA/talk3.gif""style=""height:400px;""></stim_listA>","","html-keyboard-response","289","879057","0.0-17.0-1.10","65202","List1A","black","woman","","","","null","","","",""
"null","is talking to","","html-keyboard-response","290","881059","0.0-17.0-2.10","65202","List1A","black","woman","","","","null","","","",""
"3577","","","survey-text","291","884637","0.0-17.0-3.10","65202","List1A","black","woman","","","","","{""Q0"":""jane is talking to luke""}","<img src=""stim_listA/talk3.gif""style=""height:400px;""></stim_listA>","is talking to",""
"null","<div style=""font-size:60px;"">+</div>","","html-keyboard-response","292","885139","0.0-17.0-0.11","65202","List1A","black","woman","","","","null","","","",""
"null","<img src=""stim_listA/argue7.gif""style=""height:400px;""></stim_listA>","","html-keyboard-response","293","887142","0.0-17.0-1.11","65202","List1A","black","woman","","","","null","","","",""
"null","is arguing with","","html-keyboard-response","294","889143","0.0-17.0-2.11","65202","List1A","black","woman","","","","null","","","",""
"3644","","","survey-text","295","892789","0.0-17.0-3.11","65202","List1A","black","woman","","","","","{""Q0"":""ruth is arguing with kate""}","<img src=""stim_listA/argue7.gif""style=""height:400px;""></stim_listA>","is arguing with",""
"null","<div style=""font-size:60px;"">+</div>","","html-keyboard-response","296","893292","0.0-17.0-0.12","65202","List1A","black","woman","","","","null","","","",""
"null","<img src=""stim_listA/dance3.gif""style=""height:400px;""></stim_listA>","","html-keyboard-response","297","895294","0.0-17.0-1.12","65202","List1A","black","woman","","","","null","","","",""
"null","is dancing with","","html-keyboard-response","298","897296","0.0-17.0-2.12","65202","List1A","black","woman","","","","null","","","",""
"4316","","","survey-text","299","901614","0.0-17.0-3.12","65202","List1A","black","woman","","","","","{""Q0"":""luke is dancing with jane""}","<img src=""stim_listA/dance3.gif""style=""height:400px;""></stim_listA>","is dancing with",""
"null","<div style=""font-size:60px;"">+</div>","","html-keyboard-response","300","902117","0.0-17.0-0.13","65202","List1A","black","woman","","","","null","","","",""
"null","<img src=""stim_listA/kiss1.gif""style=""height:400px;""></stim_listA>","","html-keyboard-response","301","904122","0.0-17.0-1.13","65202","List1A","black","woman","","","","null","","","",""
"null","is kissing","","html-keyboard-response","302","906123","0.0-17.0-2.13","65202","List1A","black","woman","","","","null","","","",""
"3405","","","survey-text","303","909529","0.0-17.0-3.13","65202","List1A","black","woman","","","","","{""Q0"":""beth is kissing fred""}","<img src=""stim_listA/kiss1.gif""style=""height:400px;""></stim_listA>","is kissing",""
"null","<div style=""font-size:60px;"">+</div>","","html-keyboard-response","304","910031","0.0-17.0-0.14","65202","List1A","black","woman","","","","null","","","",""
"null","<img src=""stim_listA/flirt5.gif""style=""height:400px;""></stim_listA>","","html-keyboard-response","305","912035","0.0-17.0-1.14","65202","List1A","black","woman","","","","null","","","",""
"null","is flirting with","","html-keyboard-response","306","914036","0.0-17.0-2.14","65202","List1A","black","woman","","","","null","","","",""
"3546","","","survey-text","307","917583","0.0-17.0-3.14","65202","List1A","black","woman","","","","","{""Q0"":""fred is flirting with dave""}","<img src=""stim_listA/flirt5.gif""style=""height:400px;""></stim_listA>","is flirting with",""
"null","<div style=""font-size:60px;"">+</div>","","html-keyboard-response","308","918085","0.0-17.0-0.15","65202","List1A","black","woman","","","","null","","","",""
"null","<img src=""stim_listA/dance4.gif""style=""height:400px;""></stim_listA>","","html-keyboard-response","309","920088","0.0-17.0-1.15","65202","List1A","black","woman","","","","null","","","",""
"null","are dancing with each other","","html-keyboard-response","310","922094","0.0-17.0-2.15","65202","List1A","black","woman","","","","null","","","",""
"5727","","","survey-text","311","927822","0.0-17.0-3.15","65202","List1A","black","woman","","","","","{""Q0"":""ruth and dave are dancing with each other""}","<img src=""stim_listA/dance4.gif""style=""height:400px;""></stim_listA>","are dancing with each other",""
"null","<div style=""font-size:60px;"">+</div>","","html-keyboard-response","312","928325","0.0-17.0-0.16","65202","List1A","black","woman","","","","null","","","",""
"null","<img src=""stim_listA/shout4.gif""style=""height:400px;""></stim_listA>","","html-keyboard-response","313","930327","0.0-17.0-1.16","65202","List1A","black","woman","","","","null","","","",""
"null","are shouting at each other","","html-keyboard-response","314","932332","0.0-17.0-2.16","65202","List1A","black","woman","","","","null","","","",""
"7780","","","survey-text","315","940114","0.0-17.0-3.16","65202","List1A","black","woman","","","","","{""Q0"":""jane and dave are shouting at each other""}","<img src=""stim_listA/shout4.gif""style=""height:400px;""></stim_listA>","are shouting at each other",""
"null","<div style=""font-size:60px;"">+</div>","","html-keyboard-response","316","940615","0.0-17.0-0.17","65202","List1A","black","woman","","","","null","","","",""
"null","<img src=""stim_listA/shout6.gif""style=""height:400px;""></stim_listA>","","html-keyboard-response","317","942618","0.0-17.0-1.17","65202","List1A","black","woman","","","","null","","","",""
"null","are shouting at each other","","html-keyboard-response","318","944619","0.0-17.0-2.17","65202","List1A","black","woman","","","","null","","","",""
"5603","","","survey-text","319","950222","0.0-17.0-3.17","65202","List1A","black","woman","","","","","{""Q0"":""mike and fred are shouting at each other""}","<img src=""stim_listA/shout6.gif""style=""height:400px;""></stim_listA>","are shouting at each other",""
"null","<div style=""font-size:60px;"">+</div>","","html-keyboard-response","320","950726","0.0-17.0-0.18","65202","List1A","black","woman","","","","null","","","",""
"null","<img src=""stim_listA/dance5.gif""style=""height:400px;""></stim_listA>","","html-keyboard-response","321","952728","0.0-17.0-1.18","65202","List1A","black","woman","","","","null","","","",""
"null","is dancing with","","html-keyboard-response","322","954733","0.0-17.0-2.18","65202","List1A","black","woman","","","","null","","","",""
"4387","","","survey-text","323","959122","0.0-17.0-3.18","65202","List1A","black","woman","","","","","{""Q0"":""fred is dancing with dave""}","<img src=""stim_listA/dance5.gif""style=""height:400px;""></stim_listA>","is dancing with",""
"null","<div style=""font-size:60px;"">+</div>","","html-keyboard-response","324","959624","0.0-17.0-0.19","65202","List1A","black","woman","","","","null","","","",""
"null","<img src=""stim_listA/touch4.gif""style=""height:400px;""></stim_listA>","","html-keyboard-response","325","961628","0.0-17.0-1.19","65202","List1A","black","woman","","","","null","","","",""
"null","are touching each other","","html-keyboard-response","326","963629","0.0-17.0-2.19","65202","List1A","black","woman","","","","null","","","",""
"5959","","","survey-text","327","969590","0.0-17.0-3.19","65202","List1A","black","woman","","","","","{""Q0"":""luke and ruth are touching each other""}","<img src=""stim_listA/touch4.gif""style=""height:400px;""></stim_listA>","are touching each other",""
"1611","<img src='img/portrait_matrix_list1.jpg' style='width:900px;height:500px;''></img><p>If you have memorised all the portraits and names and are ready to start, press Continue.</p><p><strong>Please note: Your memory of these faces will be tested 4 times during this experiment.</strong></p>","0","html-button-response","328","971203","0.0-18.0-0.0","65202","List1A","black","woman","","","","","","","",""
"2302","<img src=""portrait/WW2.jpg""style=""height:400px;""></img>","3","html-button-response","329","974512","0.0-18.0-1.0","65202","List1A","black","woman","","true","3","","","","",""
"null","CORRECT","","html-keyboard-response","330","976024","0.0-18.0-2.0-0.0","65202","List1A","black","woman","","","","null","","","",""
"1941","<img src=""portrait/WM2.jpg""style=""height:400px;""></img>","7","html-button-response","331","977967","0.0-18.0-4.0","65202","List1A","black","woman","","true","7","","","","",""
"null","CORRECT","","html-keyboard-response","332","979475","0.0-18.0-5.0-0.0","65202","List1A","black","woman","","","","null","","","",""
"1599","<img src=""portrait/BW1.jpg""style=""height:400px;""></img>","0","html-button-response","333","981077","0.0-18.0-7.0","65202","List1A","black","woman","","true","0","","","","",""
"null","CORRECT","","html-keyboard-response","334","982585","0.0-18.0-8.0-0.0","65202","List1A","black","woman","","","","null","","","",""
"1112","<img src=""portrait/BW2.jpg""style=""height:400px;""></img>","2","html-button-response","335","983699","0.0-18.0-10.0","65202","List1A","black","woman","","true","2","","","","",""
"null","CORRECT","","html-keyboard-response","336","985208","0.0-18.0-11.0-0.0","65202","List1A","black","woman","","","","null","","","",""
"1956","<img src=""portrait/BM2.jpg""style=""height:400px;""></img>","5","html-button-response","337","987166","0.0-18.0-13.0","65202","List1A","black","woman","","true","5","","","","",""
"null","CORRECT","","html-keyboard-response","338","988678","0.0-18.0-14.0-0.0","65202","List1A","black","woman","","","","null","","","",""
"1801","<img src=""portrait/BM1.jpg""style=""height:400px;""></img>","4","html-button-response","339","990481","0.0-18.0-16.0","65202","List1A","black","woman","","true","4","","","","",""
"null","CORRECT","","html-keyboard-response","340","991988","0.0-18.0-17.0-0.0","65202","List1A","black","woman","","","","null","","","",""
"2101","<img src=""portrait/WM1.jpg""style=""height:400px;""></img>","6","html-button-response","341","994090","0.0-18.0-19.0","65202","List1A","black","woman","","true","6","","","","",""
"null","CORRECT","","html-keyboard-response","342","995601","0.0-18.0-20.0-0.0","65202","List1A","black","woman","","","","null","","","",""
"2417","<img src=""portrait/WW1.jpg""style=""height:400px;""></img>","1","html-button-response","343","998020","0.0-18.0-22.0","65202","List1A","black","woman","","true","1","","","","",""
"null","CORRECT","","html-keyboard-response","344","999531","0.0-18.0-23.0-0.0","65202","List1A","black","woman","","","","null","","","",""
"1594","<p>You got 8 out of 8 right first time. Press Continue.</p>","0","html-button-response","345","1001127","0.0-18.0-25.0","65202","List1A","black","woman","","","","","","","",""
"null","<div style=""font-size:60px;"">+</div>","","html-keyboard-response","346","1002634","0.0-19.0-0.0","65202","List1A","black","woman","","","","null","","","",""
"null","<img src=""stim_listA/marry3.gif""style=""height:400px;""></stim_listA>","","html-keyboard-response","347","1004636","0.0-19.0-1.0","65202","List1A","black","woman","","","","null","","","",""
"null","is marrying","","html-keyboard-response","348","1006637","0.0-19.0-2.0","65202","List1A","black","woman","","","","null","","","",""
"5304","","","survey-text","349","1011942","0.0-19.0-3.0","65202","List1A","black","woman","","","","","{""Q0"":""ruth is marrying dave""}","<img src=""stim_listA/marry3.gif""style=""height:400px;""></stim_listA>","is marrying",""
"null","<div style=""font-size:60px;"">+</div>","","html-keyboard-response","350","1012445","0.0-19.0-0.1","65202","List1A","black","woman","","","","null","","","",""
"null","<img src=""stim_listA/talk2.gif""style=""height:400px;""></stim_listA>","","html-keyboard-response","351","1014449","0.0-19.0-1.1","65202","List1A","black","woman","","","","null","","","",""
"null","are talking to each other","","html-keyboard-response","352","1016450","0.0-19.0-2.1","65202","List1A","black","woman","","","","null","","","",""
"5125","","","survey-text","353","1021576","0.0-19.0-3.1","65202","List1A","black","woman","","","","","{""Q0"":""beth and mike are talking to each other""}","<img src=""stim_listA/talk2.gif""style=""height:400px;""></stim_listA>","are talking to each other",""
"null","<div style=""font-size:60px;"">+</div>","","html-keyboard-response","354","1022079","0.0-19.0-0.2","65202","List1A","black","woman","","","","null","","","",""
"null","<img src=""stim_listA/marry6.gif""style=""height:400px;""></stim_listA>","","html-keyboard-response","355","1024084","0.0-19.0-1.2","65202","List1A","black","woman","","","","null","","","",""
"null","are marrying each other","","html-keyboard-response","356","1026085","0.0-19.0-2.2","65202","List1A","black","woman","","","","null","","","",""
"7020","","","survey-text","357","1033107","0.0-19.0-3.2","65202","List1A","black","woman","","","","","{""Q0"":""fred and dave are marrying each other""}","<img src=""stim_listA/marry6.gif""style=""height:400px;""></stim_listA>","are marrying each other",""
"null","<div style=""font-size:60px;"">+</div>","","html-keyboard-response","358","1033610","0.0-19.0-0.3","65202","List1A","black","woman","","","","null","","","",""
"null","<img src=""stim_listA/marry1.gif""style=""height:400px;""></stim_listA>","","html-keyboard-response","359","1035613","0.0-19.0-1.3","65202","List1A","black","woman","","","","null","","","",""
"null","is marrying","","html-keyboard-response","360","1037617","0.0-19.0-2.3","65202","List1A","black","woman","","","","null","","","",""
"3353","","","survey-text","361","1040973","0.0-19.0-3.3","65202","List1A","black","woman","","","","","{""Q0"":""beth is marrying mike""}","<img src=""stim_listA/marry1.gif""style=""height:400px;""></stim_listA>","is marrying",""
"null","<div style=""font-size:60px;"">+</div>","","html-keyboard-response","362","1041475","0.0-19.0-0.4","65202","List1A","black","woman","","","","null","","","",""
"null","<img src=""stim_listA/fight2.gif""style=""height:400px;""></stim_listA>","","html-keyboard-response","363","1043478","0.0-19.0-1.4","65202","List1A","black","woman","","","","null","","","",""
"null","are fighting each other","","html-keyboard-response","364","1045484","0.0-19.0-2.4","65202","List1A","black","woman","","","","null","","","",""
"5673","","","survey-text","365","1051158","0.0-19.0-3.4","65202","List1A","black","woman","","","","","{""Q0"":""beth and fred are fighting each other""}","<img src=""stim_listA/fight2.gif""style=""height:400px;""></stim_listA>","are fighting each other",""
"null","<div style=""font-size:60px;"">+</div>","","html-keyboard-response","366","1051663","0.0-19.0-0.5","65202","List1A","black","woman","","","","null","","","",""
"null","<img src=""stim_listA/dance7.gif""style=""height:400px;""></stim_listA>","","html-keyboard-response","367","1053666","0.0-19.0-1.5","65202","List1A","black","woman","","","","null","","","",""
"null","is dancing with","","html-keyboard-response","368","1055669","0.0-19.0-2.5","65202","List1A","black","woman","","","","null","","","",""
"3618","","","survey-text","369","1059289","0.0-19.0-3.5","65202","List1A","black","woman","","","","","{""Q0"":""beth is dancing with jane""}","<img src=""stim_listA/dance7.gif""style=""height:400px;""></stim_listA>","is dancing with",""
"null","<div style=""font-size:60px;"">+</div>","","html-keyboard-response","370","1059791","0.0-19.0-0.6","65202","List1A","black","woman","","","","null","","","",""
"null","<img src=""stim_listA/touch1.gif""style=""height:400px;""></stim_listA>","","html-keyboard-response","371","1061794","0.0-19.0-1.6","65202","List1A","black","woman","","","","null","","","",""
"null","is touching","","html-keyboard-response","372","1063797","0.0-19.0-2.6","65202","List1A","black","woman","","","","null","","","",""
"4223","","","survey-text","373","1068022","0.0-19.0-3.6","65202","List1A","black","woman","","","","","{""Q0"":""kate is touching mike""}","<img src=""stim_listA/touch1.gif""style=""height:400px;""></stim_listA>","is touching",""
"null","<div style=""font-size:60px;"">+</div>","","html-keyboard-response","374","1068524","0.0-19.0-0.7","65202","List1A","black","woman","","","","null","","","",""
"null","<img src=""stim_listA/touch5.gif""style=""height:400px;""></stim_listA>","","html-keyboard-response","375","1070526","0.0-19.0-1.7","65202","List1A","black","woman","","","","null","","","",""
"null","is touching","","html-keyboard-response","376","1072530","0.0-19.0-2.7","65202","List1A","black","woman","","","","null","","","",""
"3461","","","survey-text","377","1075992","0.0-19.0-3.7","65202","List1A","black","woman","","","","","{""Q0"":""dave is touching mike""}","<img src=""stim_listA/touch5.gif""style=""height:400px;""></stim_listA>","is touching",""
"null","<div style=""font-size:60px;"">+</div>","","html-keyboard-response","378","1076494","0.0-19.0-0.8","65202","List1A","black","woman","","","","null","","","",""
"null","<img src=""stim_listA/talk6.gif""style=""height:400px;""></stim_listA>","","html-keyboard-response","379","1078497","0.0-19.0-1.8","65202","List1A","black","woman","","","","null","","","",""
"null","are talking to each other","","html-keyboard-response","380","1080499","0.0-19.0-2.8","65202","List1A","black","woman","","","","null","","","",""
"4727","","","survey-text","381","1085226","0.0-19.0-3.8","65202","List1A","black","woman","","","","","{""Q0"":""luke and mike are talking to each other""}","<img src=""stim_listA/talk6.gif""style=""height:400px;""></stim_listA>","are talking to each other",""
"null","<div style=""font-size:60px;"">+</div>","","html-keyboard-response","382","1085729","0.0-19.0-0.9","65202","List1A","black","woman","","","","null","","","",""
"null","<img src=""stim_listA/shout1.gif""style=""height:400px;""></stim_listA>","","html-keyboard-response","383","1087732","0.0-19.0-1.9","65202","List1A","black","woman","","","","null","","","",""
"null","is shouting at","","html-keyboard-response","384","1089738","0.0-19.0-2.9","65202","List1A","black","woman","","","","null","","","",""
"4023","","","survey-text","385","1093762","0.0-19.0-3.9","65202","List1A","black","woman","","","","","{""Q0"":""beth is shouting at fred""}","<img src=""stim_listA/shout1.gif""style=""height:400px;""></stim_listA>","is shouting at",""
"null","<div style=""font-size:60px;"">+</div>","","html-keyboard-response","386","1094263","0.0-19.0-0.10","65202","List1A","black","woman","","","","null","","","",""
"null","<img src=""stim_listA/marry4.gif""style=""height:400px;""></stim_listA>","","html-keyboard-response","387","1096266","0.0-19.0-1.10","65202","List1A","black","woman","","","","null","","","",""
"null","are marrying each other","","html-keyboard-response","388","1098267","0.0-19.0-2.10","65202","List1A","black","woman","","","","null","","","",""
"7577","","","survey-text","389","1105847","0.0-19.0-3.10","65202","List1A","black","woman","","","","","{""Q0"":""jane and luke are marrying each other""}","<img src=""stim_listA/marry4.gif""style=""height:400px;""></stim_listA>","are marrying each other",""
"null","<div style=""font-size:60px;"">+</div>","","html-keyboard-response","390","1106349","0.0-19.0-0.11","65202","List1A","black","woman","","","","null","","","",""
"null","<img src=""stim_listA/argue3.gif""style=""height:400px;""></stim_listA>","","html-keyboard-response","391","1108351","0.0-19.0-1.11","65202","List1A","black","woman","","","","null","","","",""
"null","is arguing with","","html-keyboard-response","392","1110353","0.0-19.0-2.11","65202","List1A","black","woman","","","","null","","","",""
"5257","","","survey-text","393","1115611","0.0-19.0-3.11","65202","List1A","black","woman","","","","","{""Q0"":""ruth is arguing with dave""}","<img src=""stim_listA/argue3.gif""style=""height:400px;""></stim_listA>","is arguing with",""
"null","<div style=""font-size:60px;"">+</div>","","html-keyboard-response","394","1116116","0.0-19.0-0.12","65202","List1A","black","woman","","","","null","","","",""
"null","<img src=""stim_listA/touch3.gif""style=""height:400px;""></stim_listA>","","html-keyboard-response","395","1118118","0.0-19.0-1.12","65202","List1A","black","woman","","","","null","","","",""
"null","is touching","","html-keyboard-response","396","1120121","0.0-19.0-2.12","65202","List1A","black","woman","","","","null","","","",""
"2903","","","survey-text","397","1123025","0.0-19.0-3.12","65202","List1A","black","woman","","","","","{""Q0"":""dave is touching jane""}","<img src=""stim_listA/touch3.gif""style=""height:400px;""></stim_listA>","is touching",""
"null","<div style=""font-size:60px;"">+</div>","","html-keyboard-response","398","1123528","0.0-19.0-0.13","65202","List1A","black","woman","","","","null","","","",""
"null","<img src=""stim_listA/shout2.gif""style=""height:400px;""></stim_listA>","","html-keyboard-response","399","1125530","0.0-19.0-1.13","65202","List1A","black","woman","","","","null","","","",""
"null","are shouting at each other","","html-keyboard-response","400","1127537","0.0-19.0-2.13","65202","List1A","black","woman","","","","null","","","",""
"8286","","","survey-text","401","1135824","0.0-19.0-3.13","65202","List1A","black","woman","","","","","{""Q0"":""mike and kate are shouting at each other""}","<img src=""stim_listA/shout2.gif""style=""height:400px;""></stim_listA>","are shouting at each other",""
"null","<div style=""font-size:60px;"">+</div>","","html-keyboard-response","402","1136327","0.0-19.0-0.14","65202","List1A","black","woman","","","","null","","","",""
"null","<img src=""stim_listA/fight1.gif""style=""height:400px;""></stim_listA>","","html-keyboard-response","403","1138329","0.0-19.0-1.14","65202","List1A","black","woman","","","","null","","","",""
"null","is fighting","","html-keyboard-response","404","1140331","0.0-19.0-2.14","65202","List1A","black","woman","","","","null","","","",""
"3687","","","survey-text","405","1144018","0.0-19.0-3.14","65202","List1A","black","woman","","","","","{""Q0"":""mike is fighting kate""}","<img src=""stim_listA/fight1.gif""style=""height:400px;""></stim_listA>","is fighting",""
"null","<div style=""font-size:60px;"">+</div>","","html-keyboard-response","406","1144521","0.0-19.0-0.15","65202","List1A","black","woman","","","","null","","","",""
"null","<img src=""stim_listA/touch6.gif""style=""height:400px;""></stim_listA>","","html-keyboard-response","407","1146523","0.0-19.0-1.15","65202","List1A","black","woman","","","","null","","","",""
"null","are touching each other","","html-keyboard-response","408","1148527","0.0-19.0-2.15","65202","List1A","black","woman","","","","null","","","",""
"6006","","","survey-text","409","1154535","0.0-19.0-3.15","65202","List1A","black","woman","","","","","{""Q0"":""luke and fred are touching each other""}","<img src=""stim_listA/touch6.gif""style=""height:400px;""></stim_listA>","are touching each other",""
"null","<div style=""font-size:60px;"">+</div>","","html-keyboard-response","410","1155038","0.0-19.0-0.16","65202","List1A","black","woman","","","","null","","","",""
"null","<img src=""stim_listA/marry5.gif""style=""height:400px;""></stim_listA>","","html-keyboard-response","411","1157040","0.0-19.0-1.16","65202","List1A","black","woman","","","","null","","","",""
"null","is marrying","","html-keyboard-response","412","1159044","0.0-19.0-2.16","65202","List1A","black","woman","","","","null","","","",""
"5307","","","survey-text","413","1164352","0.0-19.0-3.16","65202","List1A","black","woman","","","","","{""Q0"":""luke is marrying mike""}","<img src=""stim_listA/marry5.gif""style=""height:400px;""></stim_listA>","is marrying",""
"null","<div style=""font-size:60px;"">+</div>","","html-keyboard-response","414","1164854","0.0-19.0-0.17","65202","List1A","black","woman","","","","null","","","",""
"null","<img src=""stim_listA/kiss3.gif""style=""height:400px;""></stim_listA>","","html-keyboard-response","415","1166857","0.0-19.0-1.17","65202","List1A","black","woman","","","","null","","","",""
"null","is kissing","","html-keyboard-response","416","1168863","0.0-19.0-2.17","65202","List1A","black","woman","","","","null","","","",""
"4297","","","survey-text","417","1173161","0.0-19.0-3.17","65202","List1A","black","woman","","","","","{""Q0"":""ruth is kissing luke""}","<img src=""stim_listA/kiss3.gif""style=""height:400px;""></stim_listA>","is kissing",""
"null","<div style=""font-size:60px;"">+</div>","","html-keyboard-response","418","1173664","0.0-19.0-0.18","65202","List1A","black","woman","","","","null","","","",""
"null","<img src=""stim_listA/play2.gif""style=""height:400px;""></stim_listA>","","html-keyboard-response","419","1175667","0.0-19.0-1.18","65202","List1A","black","woman","","","","null","","","",""
"null","are playing with each other","","html-keyboard-response","420","1177668","0.0-19.0-2.18","65202","List1A","black","woman","","","","null","","","",""
"4754","","","survey-text","421","1182423","0.0-19.0-3.18","65202","List1A","black","woman","","","","","{""Q0"":""fred and beth are playing with each other""}","<img src=""stim_listA/play2.gif""style=""height:400px;""></stim_listA>","are playing with each other",""
"null","<div style=""font-size:60px;"">+</div>","","html-keyboard-response","422","1182926","0.0-19.0-0.19","65202","List1A","black","woman","","","","null","","","",""
"null","<img src=""stim_listA/play7.gif""style=""height:400px;""></stim_listA>","","html-keyboard-response","423","1184930","0.0-19.0-1.19","65202","List1A","black","woman","","","","null","","","",""
"null","is playing with","","html-keyboard-response","424","1186934","0.0-19.0-2.19","65202","List1A","black","woman","","","","null","","","",""
"4357","","","survey-text","425","1191293","0.0-19.0-3.19","65202","List1A","black","woman","","","","","{""Q0"":""jane is playing with kate""}","<img src=""stim_listA/play7.gif""style=""height:400px;""></stim_listA>","is playing with",""
"60210","<p>Thank you for completing that task.</p><p>The final part of this session is a short questionnaire.</p><p>Press Continue.</p>","0","html-button-response","426","1251504","0.0-20.0","65202","List1A","black","woman","","","","","","","",""
"11957","","","survey-text","427","1264465","0.0-21.0","65202","List1A","black","woman","","","","","{""Q0"":""30"",""Q1"":""English"",""Q2"":""English"",""Q3"":""USA"",""Q4"":""Black"",""Q5"":""Female""}","","","demographics"
"5613","","","survey-likert","428","1270083","0.0-22.0","65202","List1A","black","woman","","","","","{""Q0"":4}","","","likert_ESS"
"7487","","","survey-likert","429","1277573","0.0-23.0","65202","List1A","black","woman","","","","","{""Q0"":4}","","","likert_NSSAL_Q1"
"2474","","","survey-likert","430","1280054","0.0-24.0","65202","List1A","black","woman","","","","","{""Q0"":4}","","","likert_NSSAL_Q2"
"4706","","","survey-likert","431","1284765","0.0-25.0","65202","List1A","black","woman","","","","","{""Q0"":2}","","","likert_CGRS_Q1"
"2464","","","survey-likert","432","1287233","0.0-26.0","65202","List1A","black","woman","","","","","{""Q0"":1}","","","likert_CGRS_Q2"
"2919","","","survey-likert","433","1290156","0.0-27.0","65202","List1A","black","woman","","","","","{""Q0"":0}","","","likert_CGRS_Q3"
"6280","","","survey-text","434","1296441","0.0-28.0","65202","List1A","black","woman","","","","","{""Q0"":""5bdc96a7ba6cc10001854ac8""}","","","worker_id"
"8859","","","external-html","435","1305502","0.0-29.0","65202","List1A","black","woman","debrief.html","","","","","","",""
