rt,stimulus,button_pressed,trial_type,trial_index,time_elapsed,internal_node_id,subject,list,ppt_race,ppt_gender,url,first_guess,correct,key_press,responses,image_type,phrase_type,test_part
1051,Welcome to the experiment. Press Continue to begin.,0,html-button-response,0,1054,0.0-0.0,65866,List1B,white,man,,,,,,,,
6715,,,external-html,1,8830,0.0-1.0,65866,List1B,white,man,consent.html,,,,,,,
12534,"<p>On the next page, you will see portraits of 8 people and their names.</p><p>Your first task is to take a few minutes to memorise the names of these people.</p><p>You will have to recall their names during the rest of the experiment, so it is</p><p>essential that you try to memorise these people and their names as best as you can.</p><br><p><strong>You will then be tested on your memory of these names and portraits.</strong></p><br><p>The experiment will start after you have completed this memory test.</p><br><p>Ready?</p>",0,html-button-response,2,21366,0.0-2.0,65866,List1B,white,man,,,,,,,,
58963,"<img src='img/portrait_matrix_list1.jpg' style='width:900px;height:500px;''></img><p>If you have memorised all the portraits and names and are ready to start, press Continue.</p><p><strong>Please note: Your memory of these faces will be tested 4 times during this experiment.</strong></p>",0,html-button-response,3,81334,0.0-3.0-0.0,65866,List1B,white,man,,,,,,,,
4533,"<img src=""portrait/BM2.jpg""style=""height:400px;""></img>",5,html-button-response,4,86870,0.0-3.0-1.0,65866,List1B,white,man,,TRUE,5,,,,,
null,CORRECT,,html-keyboard-response,5,88373,0.0-3.0-2.0-0.0,65866,List1B,white,man,,,,null,,,,
3423,"<img src=""portrait/BW1.jpg""style=""height:400px;""></img>",2,html-button-response,6,91798,0.0-3.0-4.0,65866,List1B,white,man,,TRUE,0,,,,,
4925,"<img src=""portrait/BW1.jpg""style=""height:400px;""></img>",0,html-button-response,7,97725,0.0-3.0-6.0-0.0,65866,List1B,white,man,,FALSE,0,,,,,
null,CORRECT,,html-keyboard-response,8,99229,0.0-3.0-6.0-1.0-0.0,65866,List1B,white,man,,,,null,,,,
4079,"<img src=""portrait/BW2.jpg""style=""height:400px;""></img>",2,html-button-response,9,103309,0.0-3.0-7.0,65866,List1B,white,man,,TRUE,2,,,,,
null,CORRECT,,html-keyboard-response,10,104813,0.0-3.0-8.0-0.0,65866,List1B,white,man,,,,null,,,,
1567,"<img src=""portrait/WW1.jpg""style=""height:400px;""></img>",1,html-button-response,11,106381,0.0-3.0-10.0,65866,List1B,white,man,,TRUE,1,,,,,
null,CORRECT,,html-keyboard-response,12,107884,0.0-3.0-11.0-0.0,65866,List1B,white,man,,,,null,,,,
2032,"<img src=""portrait/BM1.jpg""style=""height:400px;""></img>",4,html-button-response,13,109918,0.0-3.0-13.0,65866,List1B,white,man,,TRUE,4,,,,,
null,CORRECT,,html-keyboard-response,14,111422,0.0-3.0-14.0-0.0,65866,List1B,white,man,,,,null,,,,
3093,"<img src=""portrait/WM1.jpg""style=""height:400px;""></img>",6,html-button-response,15,114517,0.0-3.0-16.0,65866,List1B,white,man,,TRUE,6,,,,,
null,CORRECT,,html-keyboard-response,16,116021,0.0-3.0-17.0-0.0,65866,List1B,white,man,,,,null,,,,
2887,"<img src=""portrait/WW2.jpg""style=""height:400px;""></img>",3,html-button-response,17,118909,0.0-3.0-19.0,65866,List1B,white,man,,TRUE,3,,,,,
null,CORRECT,,html-keyboard-response,18,120412,0.0-3.0-20.0-0.0,65866,List1B,white,man,,,,null,,,,
2113,"<img src=""portrait/WM2.jpg""style=""height:400px;""></img>",7,html-button-response,19,122526,0.0-3.0-22.0,65866,List1B,white,man,,TRUE,7,,,,,
null,CORRECT,,html-keyboard-response,20,124028,0.0-3.0-23.0-0.0,65866,List1B,white,man,,,,null,,,,
2167,<p>You got 7 out of 8 right first time. Press Continue.</p>,0,html-button-response,21,126198,0.0-3.0-25.0,65866,List1B,white,man,,,,,,,,
3317,"As you did not score 100%, the memory game will repeat. Press Continue.",0,html-button-response,22,130518,0.0-3.0-26.0-0.0,65866,List1B,white,man,,,,,,,,
22147,"<img src='img/portrait_matrix_list1.jpg' style='width:900px;height:500px;''></img><p>If you have memorised all the portraits and names and are ready to start, press Continue.</p><p><strong>Please note: Your memory of these faces will be tested 4 times during this experiment.</strong></p>",0,html-button-response,23,153670,0.0-3.1-0.1,65866,List1B,white,man,,,,,,,,
4221,"<img src=""portrait/BM2.jpg""style=""height:400px;""></img>",4,html-button-response,24,158894,0.0-3.1-1.1,65866,List1B,white,man,,TRUE,5,,,,,
1838,"<img src=""portrait/BM2.jpg""style=""height:400px;""></img>",5,html-button-response,25,161734,0.0-3.1-3.1-0.1,65866,List1B,white,man,,FALSE,5,,,,,
null,CORRECT,,html-keyboard-response,26,163237,0.0-3.1-3.1-1.1-0.1,65866,List1B,white,man,,,,null,,,,
3271,"<img src=""portrait/BW1.jpg""style=""height:400px;""></img>",2,html-button-response,27,166510,0.0-3.1-4.1,65866,List1B,white,man,,TRUE,0,,,,,
3365,"<img src=""portrait/BW1.jpg""style=""height:400px;""></img>",0,html-button-response,28,170878,0.0-3.1-6.1-0.1,65866,List1B,white,man,,FALSE,0,,,,,
null,CORRECT,,html-keyboard-response,29,172380,0.0-3.1-6.1-1.1-0.1,65866,List1B,white,man,,,,null,,,,
2423,"<img src=""portrait/BW2.jpg""style=""height:400px;""></img>",2,html-button-response,30,174806,0.0-3.1-7.1,65866,List1B,white,man,,TRUE,2,,,,,
null,CORRECT,,html-keyboard-response,31,176309,0.0-3.1-8.1-0.1,65866,List1B,white,man,,,,null,,,,
3991,"<img src=""portrait/WW1.jpg""style=""height:400px;""></img>",1,html-button-response,32,180302,0.0-3.1-10.1,65866,List1B,white,man,,TRUE,1,,,,,
null,CORRECT,,html-keyboard-response,33,181804,0.0-3.1-11.1-0.1,65866,List1B,white,man,,,,null,,,,
1815,"<img src=""portrait/BM1.jpg""style=""height:400px;""></img>",4,html-button-response,34,183622,0.0-3.1-13.1,65866,List1B,white,man,,TRUE,4,,,,,
null,CORRECT,,html-keyboard-response,35,185124,0.0-3.1-14.1-0.1,65866,List1B,white,man,,,,null,,,,
1896,"<img src=""portrait/WM1.jpg""style=""height:400px;""></img>",6,html-button-response,36,187022,0.0-3.1-16.1,65866,List1B,white,man,,TRUE,6,,,,,
null,CORRECT,,html-keyboard-response,37,188530,0.0-3.1-17.1-0.1,65866,List1B,white,man,,,,null,,,,
1402,"<img src=""portrait/WW2.jpg""style=""height:400px;""></img>",3,html-button-response,38,189933,0.0-3.1-19.1,65866,List1B,white,man,,TRUE,3,,,,,
null,CORRECT,,html-keyboard-response,39,191436,0.0-3.1-20.1-0.1,65866,List1B,white,man,,,,null,,,,
3376,"<img src=""portrait/WM2.jpg""style=""height:400px;""></img>",7,html-button-response,40,194813,0.0-3.1-22.1,65866,List1B,white,man,,TRUE,7,,,,,
null,CORRECT,,html-keyboard-response,41,196317,0.0-3.1-23.1-0.1,65866,List1B,white,man,,,,null,,,,
1447,<p>You got 6 out of 8 right first time. Press Continue.</p>,0,html-button-response,42,197766,0.0-3.1-25.1,65866,List1B,white,man,,,,,,,,
1453,"As you did not score 100%, the memory game will repeat. Press Continue.",0,html-button-response,43,200221,0.0-3.1-26.1-0.1,65866,List1B,white,man,,,,,,,,
7421,"<img src='img/portrait_matrix_list1.jpg' style='width:900px;height:500px;''></img><p>If you have memorised all the portraits and names and are ready to start, press Continue.</p><p><strong>Please note: Your memory of these faces will be tested 4 times during this experiment.</strong></p>",0,html-button-response,44,208645,0.0-3.2-0.2,65866,List1B,white,man,,,,,,,,
8183,"<img src=""portrait/BM2.jpg""style=""height:400px;""></img>",5,html-button-response,45,217829,0.0-3.2-1.2,65866,List1B,white,man,,TRUE,5,,,,,
null,CORRECT,,html-keyboard-response,46,219333,0.0-3.2-2.2-0.2,65866,List1B,white,man,,,,null,,,,
9615,"<img src=""portrait/BW1.jpg""style=""height:400px;""></img>",0,html-button-response,47,228949,0.0-3.2-4.2,65866,List1B,white,man,,TRUE,0,,,,,
null,CORRECT,,html-keyboard-response,48,230453,0.0-3.2-5.2-0.2,65866,List1B,white,man,,,,null,,,,
7615,"<img src=""portrait/BW2.jpg""style=""height:400px;""></img>",2,html-button-response,49,238070,0.0-3.2-7.2,65866,List1B,white,man,,TRUE,2,,,,,
null,CORRECT,,html-keyboard-response,50,239572,0.0-3.2-8.2-0.2,65866,List1B,white,man,,,,null,,,,
7047,"<img src=""portrait/WW1.jpg""style=""height:400px;""></img>",1,html-button-response,51,246621,0.0-3.2-10.2,65866,List1B,white,man,,TRUE,1,,,,,
null,CORRECT,,html-keyboard-response,52,248125,0.0-3.2-11.2-0.2,65866,List1B,white,man,,,,null,,,,
1806,"<img src=""portrait/BM1.jpg""style=""height:400px;""></img>",4,html-button-response,53,249933,0.0-3.2-13.2,65866,List1B,white,man,,TRUE,4,,,,,
null,CORRECT,,html-keyboard-response,54,251437,0.0-3.2-14.2-0.2,65866,List1B,white,man,,,,null,,,,
1999,"<img src=""portrait/WM1.jpg""style=""height:400px;""></img>",6,html-button-response,55,253437,0.0-3.2-16.2,65866,List1B,white,man,,TRUE,6,,,,,
null,CORRECT,,html-keyboard-response,56,254940,0.0-3.2-17.2-0.2,65866,List1B,white,man,,,,null,,,,
2135,"<img src=""portrait/WW2.jpg""style=""height:400px;""></img>",3,html-button-response,57,257077,0.0-3.2-19.2,65866,List1B,white,man,,TRUE,3,,,,,
null,CORRECT,,html-keyboard-response,58,258581,0.0-3.2-20.2-0.2,65866,List1B,white,man,,,,null,,,,
4830,"<img src=""portrait/WM2.jpg""style=""height:400px;""></img>",7,html-button-response,59,263413,0.0-3.2-22.2,65866,List1B,white,man,,TRUE,7,,,,,
null,CORRECT,,html-keyboard-response,60,264916,0.0-3.2-23.2-0.2,65866,List1B,white,man,,,,null,,,,
1198,<p>You got 8 out of 8 right first time. Press Continue.</p>,0,html-button-response,61,266117,0.0-3.2-25.2,65866,List1B,white,man,,,,,,,,
36302,"<p>In this experiment, you will view photographs of the people from the memory game interacting.</p><p>By using the <strong>exact</strong> phrase given <i>after</i> the photograph appears and recalling the correct names of the people in the photographs, form a sentence describing the interaction. You do not need to capitalise names.</p><p>Type your answer in the space provided. Please complete every sentence before moving onto the next trial.</p><p>You will only have a few seconds to memorise each given photograph and phrase before you can respond, so try your best to focus.</p><p>An example is given below. Press 'Continue' when you are ready.</p><img src='img/speaking_example.jpg' style='width:800px;height:460px;''></img>",0,html-button-response,62,303422,0.0-4.0,65866,List1B,white,man,,,,,,,,
2292,"<p>Before the experiment starts, you will watch two example trials. Press 'Continue'.</p>",0,html-button-response,63,306717,0.0-5.0,65866,List1B,white,man,,,,,,,,
null,<img src='img/meet_eg.gif' style='height:400px;''></img>,,html-keyboard-response,64,309721,0.0-6.0,65866,List1B,white,man,,,,null,,,,
null,<p>is meeting</p>,,html-keyboard-response,65,311724,0.0-7.0,65866,List1B,white,man,,,,null,,,,
4001,<p><b>Answer:</b> kate is meeting beth</p>,0,html-button-response,66,315725,0.0-8.0,65866,List1B,white,man,,,,,,,,
null,<img src='img/look_eg.gif' style='height:400px;''></img>,,html-keyboard-response,67,318729,0.0-9.0,65866,List1B,white,man,,,,null,,,,
null,<p>are looking at each other</p>,,html-keyboard-response,68,320732,0.0-10.0,65866,List1B,white,man,,,,null,,,,
1944,<p><b>Answer:</b> luke and dave are looking at each other</p>,0,html-button-response,69,322677,0.0-11.0,65866,List1B,white,man,,,,,,,,
10798,"<p>Ready to start the experiment?</p><br><p><strong>Remember to describe the picture using a full sentence,</strong></p><p><strong>that combines the names of the people with the <i>exact</i> phrase given.</strong></p><p><strong>To receive full payment you must do this correctly.</strong></p><p><strong> You do not need to capitalise names or use punctuation.</strong></p><br><p>Press 'Continue' to begin.</p>",0,html-button-response,70,334477,0.0-12.0,65866,List1B,white,man,,,,,,,,
null,"<div style=""font-size:60px;"">+</div>",,html-keyboard-response,71,335980,0.0-13.0-0.0,65866,List1B,white,man,,,,null,,,,
null,"<img src=""stim_listB/dance3.gif""style=""height:400px;""></stim_listB>",,html-keyboard-response,72,337984,0.0-13.0-1.0,65866,List1B,white,man,,,,null,,,,
null,is dancing with,,html-keyboard-response,73,339986,0.0-13.0-2.0,65866,List1B,white,man,,,,null,,,,
11090,,,survey-text,74,351078,0.0-13.0-3.0,65866,List1B,white,man,,,,,"{""Q0"":""luke is dancing with ruth""}","<img src=""stim_listB/dance3.gif""style=""height:400px;""></stim_listB>",is dancing with,
null,"<div style=""font-size:60px;"">+</div>",,html-keyboard-response,75,351581,0.0-13.0-0.1,65866,List1B,white,man,,,,null,,,,
null,"<img src=""stim_listB/kiss1.gif""style=""height:400px;""></stim_listB>",,html-keyboard-response,76,353582,0.0-13.0-1.1,65866,List1B,white,man,,,,null,,,,
null,is kissing,,html-keyboard-response,77,355584,0.0-13.0-2.1,65866,List1B,white,man,,,,null,,,,
11525,,,survey-text,78,367110,0.0-13.0-3.1,65866,List1B,white,man,,,,,"{""Q0"":""beth is kissing fred""}","<img src=""stim_listB/kiss1.gif""style=""height:400px;""></stim_listB>",is kissing,
null,"<div style=""font-size:60px;"">+</div>",,html-keyboard-response,79,367612,0.0-13.0-0.2,65866,List1B,white,man,,,,null,,,,
null,"<img src=""stim_listB/fight1.gif""style=""height:400px;""></stim_listB>",,html-keyboard-response,80,369616,0.0-13.0-1.2,65866,List1B,white,man,,,,null,,,,
null,is fighting,,html-keyboard-response,81,371617,0.0-13.0-2.2,65866,List1B,white,man,,,,null,,,,
17602,,,survey-text,82,389221,0.0-13.0-3.2,65866,List1B,white,man,,,,,"{""Q0"":""kate is fighting mike""}","<img src=""stim_listB/fight1.gif""style=""height:400px;""></stim_listB>",is fighting,
null,"<div style=""font-size:60px;"">+</div>",,html-keyboard-response,83,389723,0.0-13.0-0.3,65866,List1B,white,man,,,,null,,,,
null,"<img src=""stim_listB/argue4.gif""style=""height:400px;""></stim_listB>",,html-keyboard-response,84,391727,0.0-13.0-1.3,65866,List1B,white,man,,,,null,,,,
null,are arguing with each other,,html-keyboard-response,85,393730,0.0-13.0-2.3,65866,List1B,white,man,,,,null,,,,
16594,,,survey-text,86,410325,0.0-13.0-3.3,65866,List1B,white,man,,,,,"{""Q0"":""ruth and luke are arguing with eachother ""}","<img src=""stim_listB/argue4.gif""style=""height:400px;""></stim_listB>",are arguing with each other,
null,"<div style=""font-size:60px;"">+</div>",,html-keyboard-response,87,410828,0.0-13.0-0.4,65866,List1B,white,man,,,,null,,,,
null,"<img src=""stim_listB/kiss3.gif""style=""height:400px;""></stim_listB>",,html-keyboard-response,88,412832,0.0-13.0-1.4,65866,List1B,white,man,,,,null,,,,
null,is kissing,,html-keyboard-response,89,414834,0.0-13.0-2.4,65866,List1B,white,man,,,,null,,,,
22458,,,survey-text,90,437294,0.0-13.0-3.4,65866,List1B,white,man,,,,,"{""Q0"":""luke is kissing ruth""}","<img src=""stim_listB/kiss3.gif""style=""height:400px;""></stim_listB>",is kissing,
null,"<div style=""font-size:60px;"">+</div>",,html-keyboard-response,91,437796,0.0-13.0-0.5,65866,List1B,white,man,,,,null,,,,
null,"<img src=""stim_listB/kiss6.gif""style=""height:400px;""></stim_listB>",,html-keyboard-response,92,439801,0.0-13.0-1.5,65866,List1B,white,man,,,,null,,,,
null,are kissing each other,,html-keyboard-response,93,441802,0.0-13.0-2.5,65866,List1B,white,man,,,,null,,,,
16394,,,survey-text,94,458197,0.0-13.0-3.5,65866,List1B,white,man,,,,,"{""Q0"":""mike and dave are kissing eachother""}","<img src=""stim_listB/kiss6.gif""style=""height:400px;""></stim_listB>",are kissing each other,
null,"<div style=""font-size:60px;"">+</div>",,html-keyboard-response,95,458699,0.0-13.0-0.6,65866,List1B,white,man,,,,null,,,,
null,"<img src=""stim_listB/dance1.gif""style=""height:400px;""></stim_listB>",,html-keyboard-response,96,460701,0.0-13.0-1.6,65866,List1B,white,man,,,,null,,,,
null,is dancing with,,html-keyboard-response,97,462704,0.0-13.0-2.6,65866,List1B,white,man,,,,null,,,,
9308,,,survey-text,98,472014,0.0-13.0-3.6,65866,List1B,white,man,,,,,"{""Q0"":""kate is dancing with fred""}","<img src=""stim_listB/dance1.gif""style=""height:400px;""></stim_listB>",is dancing with,
null,"<div style=""font-size:60px;"">+</div>",,html-keyboard-response,99,472515,0.0-13.0-0.7,65866,List1B,white,man,,,,null,,,,
null,"<img src=""stim_listB/shout7.gif""style=""height:400px;""></stim_listB>",,html-keyboard-response,100,474518,0.0-13.0-1.7,65866,List1B,white,man,,,,null,,,,
null,is shouting at,,html-keyboard-response,101,476520,0.0-13.0-2.7,65866,List1B,white,man,,,,null,,,,
6700,,,survey-text,102,483221,0.0-13.0-3.7,65866,List1B,white,man,,,,,"{""Q0"":""ruth is shouting at beth""}","<img src=""stim_listB/shout7.gif""style=""height:400px;""></stim_listB>",is shouting at,
null,"<div style=""font-size:60px;"">+</div>",,html-keyboard-response,103,483723,0.0-13.0-0.8,65866,List1B,white,man,,,,null,,,,
null,"<img src=""stim_listB/marry7.gif""style=""height:400px;""></stim_listB>",,html-keyboard-response,104,485726,0.0-13.0-1.8,65866,List1B,white,man,,,,null,,,,
null,is marrying,,html-keyboard-response,105,487729,0.0-13.0-2.8,65866,List1B,white,man,,,,null,,,,
12739,,,survey-text,106,500469,0.0-13.0-3.8,65866,List1B,white,man,,,,,"{""Q0"":""ruth is marrying kate""}","<img src=""stim_listB/marry7.gif""style=""height:400px;""></stim_listB>",is marrying,
null,"<div style=""font-size:60px;"">+</div>",,html-keyboard-response,107,500971,0.0-13.0-0.9,65866,List1B,white,man,,,,null,,,,
null,"<img src=""stim_listB/dance2.gif""style=""height:400px;""></stim_listB>",,html-keyboard-response,108,502973,0.0-13.0-1.9,65866,List1B,white,man,,,,null,,,,
null,are dancing with each other,,html-keyboard-response,109,504974,0.0-13.0-2.9,65866,List1B,white,man,,,,null,,,,
21982,,,survey-text,110,526958,0.0-13.0-3.9,65866,List1B,white,man,,,,,"{""Q0"":""beth and mike are dancing with eachother ""}","<img src=""stim_listB/dance2.gif""style=""height:400px;""></stim_listB>",are dancing with each other,
null,"<div style=""font-size:60px;"">+</div>",,html-keyboard-response,111,527460,0.0-13.0-0.10,65866,List1B,white,man,,,,null,,,,
null,"<img src=""stim_listB/touch3.gif""style=""height:400px;""></stim_listB>",,html-keyboard-response,112,529463,0.0-13.0-1.10,65866,List1B,white,man,,,,null,,,,
null,is touching,,html-keyboard-response,113,531466,0.0-13.0-2.10,65866,List1B,white,man,,,,null,,,,
15115,,,survey-text,114,546582,0.0-13.0-3.10,65866,List1B,white,man,,,,,"{""Q0"":""dave is touching jane""}","<img src=""stim_listB/touch3.gif""style=""height:400px;""></stim_listB>",is touching,
null,"<div style=""font-size:60px;"">+</div>",,html-keyboard-response,115,547085,0.0-13.0-0.11,65866,List1B,white,man,,,,null,,,,
null,"<img src=""stim_listB/shout4.gif""style=""height:400px;""></stim_listB>",,html-keyboard-response,116,549089,0.0-13.0-1.11,65866,List1B,white,man,,,,null,,,,
null,are shouting at each other,,html-keyboard-response,117,551092,0.0-13.0-2.11,65866,List1B,white,man,,,,null,,,,
14727,,,survey-text,118,565821,0.0-13.0-3.11,65866,List1B,white,man,,,,,"{""Q0"":""jane and dave are shouting at eachother ""}","<img src=""stim_listB/shout4.gif""style=""height:400px;""></stim_listB>",are shouting at each other,
null,"<div style=""font-size:60px;"">+</div>",,html-keyboard-response,119,566323,0.0-13.0-0.12,65866,List1B,white,man,,,,null,,,,
null,"<img src=""stim_listB/fight8.gif""style=""height:400px;""></stim_listB>",,html-keyboard-response,120,568326,0.0-13.0-1.12,65866,List1B,white,man,,,,null,,,,
null,are fighting each other,,html-keyboard-response,121,570327,0.0-13.0-2.12,65866,List1B,white,man,,,,null,,,,
8132,,,survey-text,122,578461,0.0-13.0-3.12,65866,List1B,white,man,,,,,"{""Q0"":""beth and ruth are fighting eachother""}","<img src=""stim_listB/fight8.gif""style=""height:400px;""></stim_listB>",are fighting each other,
null,"<div style=""font-size:60px;"">+</div>",,html-keyboard-response,123,578962,0.0-13.0-0.13,65866,List1B,white,man,,,,null,,,,
null,"<img src=""stim_listB/argue2.gif""style=""height:400px;""></stim_listB>",,html-keyboard-response,124,580965,0.0-13.0-1.13,65866,List1B,white,man,,,,null,,,,
null,are arguing with each other,,html-keyboard-response,125,582966,0.0-13.0-2.13,65866,List1B,white,man,,,,null,,,,
7877,,,survey-text,126,590845,0.0-13.0-3.13,65866,List1B,white,man,,,,,"{""Q0"":""fred and kate are arguing with eachother""}","<img src=""stim_listB/argue2.gif""style=""height:400px;""></stim_listB>",are arguing with each other,
null,"<div style=""font-size:60px;"">+</div>",,html-keyboard-response,127,591347,0.0-13.0-0.14,65866,List1B,white,man,,,,null,,,,
null,"<img src=""stim_listB/touch7.gif""style=""height:400px;""></stim_listB>",,html-keyboard-response,128,593350,0.0-13.0-1.14,65866,List1B,white,man,,,,null,,,,
null,is touching,,html-keyboard-response,129,595351,0.0-13.0-2.14,65866,List1B,white,man,,,,null,,,,
13396,,,survey-text,130,608749,0.0-13.0-3.14,65866,List1B,white,man,,,,,"{""Q0"":""kate is touching jane""}","<img src=""stim_listB/touch7.gif""style=""height:400px;""></stim_listB>",is touching,
null,"<div style=""font-size:60px;"">+</div>",,html-keyboard-response,131,609251,0.0-13.0-0.15,65866,List1B,white,man,,,,null,,,,
null,"<img src=""stim_listB/talk7.gif""style=""height:400px;""></stim_listB>",,html-keyboard-response,132,611254,0.0-13.0-1.15,65866,List1B,white,man,,,,null,,,,
null,is talking to,,html-keyboard-response,133,613255,0.0-13.0-2.15,65866,List1B,white,man,,,,null,,,,
7267,,,survey-text,134,620525,0.0-13.0-3.15,65866,List1B,white,man,,,,,"{""Q0"":""beth is talking to jane""}","<img src=""stim_listB/talk7.gif""style=""height:400px;""></stim_listB>",is talking to,
null,"<div style=""font-size:60px;"">+</div>",,html-keyboard-response,135,621028,0.0-13.0-0.16,65866,List1B,white,man,,,,null,,,,
null,"<img src=""stim_listB/flirt7.gif""style=""height:400px;""></stim_listB>",,html-keyboard-response,136,623030,0.0-13.0-1.16,65866,List1B,white,man,,,,null,,,,
null,is flirting with,,html-keyboard-response,137,625031,0.0-13.0-2.16,65866,List1B,white,man,,,,null,,,,
8932,,,survey-text,138,633965,0.0-13.0-3.16,65866,List1B,white,man,,,,,"{""Q0"":""beth is flirting with jane""}","<img src=""stim_listB/flirt7.gif""style=""height:400px;""></stim_listB>",is flirting with,
null,"<div style=""font-size:60px;"">+</div>",,html-keyboard-response,139,634467,0.0-13.0-0.17,65866,List1B,white,man,,,,null,,,,
null,"<img src=""stim_listB/flirt8.gif""style=""height:400px;""></stim_listB>",,html-keyboard-response,140,636469,0.0-13.0-1.17,65866,List1B,white,man,,,,null,,,,
null,are flirting with each other,,html-keyboard-response,141,638471,0.0-13.0-2.17,65866,List1B,white,man,,,,null,,,,
16005,,,survey-text,142,654477,0.0-13.0-3.17,65866,List1B,white,man,,,,,"{""Q0"":""kate and ruth are flirting with eachother ""}","<img src=""stim_listB/flirt8.gif""style=""height:400px;""></stim_listB>",are flirting with each other,
null,"<div style=""font-size:60px;"">+</div>",,html-keyboard-response,143,654980,0.0-13.0-0.18,65866,List1B,white,man,,,,null,,,,
null,"<img src=""stim_listB/flirt4.gif""style=""height:400px;""></stim_listB>",,html-keyboard-response,144,656983,0.0-13.0-1.18,65866,List1B,white,man,,,,null,,,,
null,are flirting with each other,,html-keyboard-response,145,658985,0.0-13.0-2.18,65866,List1B,white,man,,,,null,,,,
16347,,,survey-text,146,675333,0.0-13.0-3.18,65866,List1B,white,man,,,,,"{""Q0"":""dave and ruth are flirting wit eachother ""}","<img src=""stim_listB/flirt4.gif""style=""height:400px;""></stim_listB>",are flirting with each other,
null,"<div style=""font-size:60px;"">+</div>",,html-keyboard-response,147,675834,0.0-13.0-0.19,65866,List1B,white,man,,,,null,,,,
null,"<img src=""stim_listB/play3.gif""style=""height:400px;""></stim_listB>",,html-keyboard-response,148,677837,0.0-13.0-1.19,65866,List1B,white,man,,,,null,,,,
null,is playing with,,html-keyboard-response,149,679838,0.0-13.0-2.19,65866,List1B,white,man,,,,null,,,,
6206,,,survey-text,150,686045,0.0-13.0-3.19,65866,List1B,white,man,,,,,"{""Q0"":""jane is playing with dave""}","<img src=""stim_listB/play3.gif""style=""height:400px;""></stim_listB>",is playing with,
5798,"<img src='img/portrait_matrix_list1.jpg' style='width:900px;height:500px;''></img><p>If you have memorised all the portraits and names and are ready to start, press Continue.</p><p><strong>Please note: Your memory of these faces will be tested 4 times during this experiment.</strong></p>",0,html-button-response,151,691845,0.0-14.0-0.0,65866,List1B,white,man,,,,,,,,
1510,"<img src=""portrait/BM2.jpg""style=""height:400px;""></img>",5,html-button-response,152,694357,0.0-14.0-1.0,65866,List1B,white,man,,TRUE,5,,,,,
null,CORRECT,,html-keyboard-response,153,695861,0.0-14.0-2.0-0.0,65866,List1B,white,man,,,,null,,,,
1262,"<img src=""portrait/WM1.jpg""style=""height:400px;""></img>",6,html-button-response,154,697125,0.0-14.0-4.0,65866,List1B,white,man,,TRUE,6,,,,,
null,CORRECT,,html-keyboard-response,155,698628,0.0-14.0-5.0-0.0,65866,List1B,white,man,,,,null,,,,
4111,"<img src=""portrait/BW1.jpg""style=""height:400px;""></img>",0,html-button-response,156,702741,0.0-14.0-7.0,65866,List1B,white,man,,TRUE,0,,,,,
null,CORRECT,,html-keyboard-response,157,704244,0.0-14.0-8.0-0.0,65866,List1B,white,man,,,,null,,,,
1240,"<img src=""portrait/WW1.jpg""style=""height:400px;""></img>",1,html-button-response,158,705485,0.0-14.0-10.0,65866,List1B,white,man,,TRUE,1,,,,,
null,CORRECT,,html-keyboard-response,159,706990,0.0-14.0-11.0-0.0,65866,List1B,white,man,,,,null,,,,
2558,"<img src=""portrait/BW2.jpg""style=""height:400px;""></img>",2,html-button-response,160,709549,0.0-14.0-13.0,65866,List1B,white,man,,TRUE,2,,,,,
null,CORRECT,,html-keyboard-response,161,711051,0.0-14.0-14.0-0.0,65866,List1B,white,man,,,,null,,,,
2304,"<img src=""portrait/WM2.jpg""style=""height:400px;""></img>",7,html-button-response,162,713357,0.0-14.0-16.0,65866,List1B,white,man,,TRUE,7,,,,,
null,CORRECT,,html-keyboard-response,163,714860,0.0-14.0-17.0-0.0,65866,List1B,white,man,,,,null,,,,
2686,"<img src=""portrait/WW2.jpg""style=""height:400px;""></img>",3,html-button-response,164,717549,0.0-14.0-19.0,65866,List1B,white,man,,TRUE,3,,,,,
null,CORRECT,,html-keyboard-response,165,719053,0.0-14.0-20.0-0.0,65866,List1B,white,man,,,,null,,,,
2615,"<img src=""portrait/BM1.jpg""style=""height:400px;""></img>",4,html-button-response,166,721669,0.0-14.0-22.0,65866,List1B,white,man,,TRUE,4,,,,,
null,CORRECT,,html-keyboard-response,167,723172,0.0-14.0-23.0-0.0,65866,List1B,white,man,,,,null,,,,
1488,<p>You got 8 out of 8 right first time. Press Continue.</p>,0,html-button-response,168,724661,0.0-14.0-25.0,65866,List1B,white,man,,,,,,,,
null,"<div style=""font-size:60px;"">+</div>",,html-keyboard-response,169,726163,0.0-15.0-0.0,65866,List1B,white,man,,,,null,,,,
null,"<img src=""stim_listB/argue1.gif""style=""height:400px;""></stim_listB>",,html-keyboard-response,170,728167,0.0-15.0-1.0,65866,List1B,white,man,,,,null,,,,
null,is arguing with,,html-keyboard-response,171,730169,0.0-15.0-2.0,65866,List1B,white,man,,,,null,,,,
9035,,,survey-text,172,739205,0.0-15.0-3.0,65866,List1B,white,man,,,,,"{""Q0"":""beth is arguing with mike ""}","<img src=""stim_listB/argue1.gif""style=""height:400px;""></stim_listB>",is arguing with,
null,"<div style=""font-size:60px;"">+</div>",,html-keyboard-response,173,739707,0.0-15.0-0.1,65866,List1B,white,man,,,,null,,,,
null,"<img src=""stim_listB/argue5.gif""style=""height:400px;""></stim_listB>",,html-keyboard-response,174,741711,0.0-15.0-1.1,65866,List1B,white,man,,,,null,,,,
null,is arguing with,,html-keyboard-response,175,743713,0.0-15.0-2.1,65866,List1B,white,man,,,,null,,,,
7218,,,survey-text,176,750933,0.0-15.0-3.1,65866,List1B,white,man,,,,,"{""Q0"":""luke is arguing with mike ""}","<img src=""stim_listB/argue5.gif""style=""height:400px;""></stim_listB>",is arguing with,
null,"<div style=""font-size:60px;"">+</div>",,html-keyboard-response,177,751434,0.0-15.0-0.2,65866,List1B,white,man,,,,null,,,,
null,"<img src=""stim_listB/marry8.gif""style=""height:400px;""></stim_listB>",,html-keyboard-response,178,753436,0.0-15.0-1.2,65866,List1B,white,man,,,,null,,,,
null,are marrying each other,,html-keyboard-response,179,755439,0.0-15.0-2.2,65866,List1B,white,man,,,,null,,,,
7653,,,survey-text,180,763093,0.0-15.0-3.2,65866,List1B,white,man,,,,,"{""Q0"":""beth and jane are marrying eachother ""}","<img src=""stim_listB/marry8.gif""style=""height:400px;""></stim_listB>",are marrying each other,
null,"<div style=""font-size:60px;"">+</div>",,html-keyboard-response,181,763595,0.0-15.0-0.3,65866,List1B,white,man,,,,null,,,,
null,"<img src=""stim_listB/shout3.gif""style=""height:400px;""></stim_listB>",,html-keyboard-response,182,765599,0.0-15.0-1.3,65866,List1B,white,man,,,,null,,,,
null,is shouting at,,html-keyboard-response,183,767601,0.0-15.0-2.3,65866,List1B,white,man,,,,null,,,,
6130,,,survey-text,184,773734,0.0-15.0-3.3,65866,List1B,white,man,,,,,"{""Q0"":""ruth is shouting at luke ""}","<img src=""stim_listB/shout3.gif""style=""height:400px;""></stim_listB>",is shouting at,
null,"<div style=""font-size:60px;"">+</div>",,html-keyboard-response,185,774237,0.0-15.0-0.4,65866,List1B,white,man,,,,null,,,,
null,"<img src=""stim_listB/kiss5.gif""style=""height:400px;""></stim_listB>",,html-keyboard-response,186,776239,0.0-15.0-1.4,65866,List1B,white,man,,,,null,,,,
null,is kissing,,html-keyboard-response,187,778241,0.0-15.0-2.4,65866,List1B,white,man,,,,null,,,,
5132,,,survey-text,188,783373,0.0-15.0-3.4,65866,List1B,white,man,,,,,"{""Q0"":""luke is kissing fred""}","<img src=""stim_listB/kiss5.gif""style=""height:400px;""></stim_listB>",is kissing,
null,"<div style=""font-size:60px;"">+</div>",,html-keyboard-response,189,783874,0.0-15.0-0.5,65866,List1B,white,man,,,,null,,,,
null,"<img src=""stim_listB/argue6.gif""style=""height:400px;""></stim_listB>",,html-keyboard-response,190,785877,0.0-15.0-1.5,65866,List1B,white,man,,,,null,,,,
null,are arguing with each other,,html-keyboard-response,191,787878,0.0-15.0-2.5,65866,List1B,white,man,,,,null,,,,
11558,,,survey-text,192,799437,0.0-15.0-3.5,65866,List1B,white,man,,,,,"{""Q0"":""fred and dave are arguing with eachother ""}","<img src=""stim_listB/argue6.gif""style=""height:400px;""></stim_listB>",are arguing with each other,
null,"<div style=""font-size:60px;"">+</div>",,html-keyboard-response,193,799938,0.0-15.0-0.6,65866,List1B,white,man,,,,null,,,,
null,"<img src=""stim_listB/dance5.gif""style=""height:400px;""></stim_listB>",,html-keyboard-response,194,801941,0.0-15.0-1.6,65866,List1B,white,man,,,,null,,,,
null,is dancing with,,html-keyboard-response,195,803942,0.0-15.0-2.6,65866,List1B,white,man,,,,null,,,,
6759,,,survey-text,196,810702,0.0-15.0-3.6,65866,List1B,white,man,,,,,"{""Q0"":""fred is dancing with dave ""}","<img src=""stim_listB/dance5.gif""style=""height:400px;""></stim_listB>",is dancing with,
null,"<div style=""font-size:60px;"">+</div>",,html-keyboard-response,197,811205,0.0-15.0-0.7,65866,List1B,white,man,,,,null,,,,
null,"<img src=""stim_listB/argue7.gif""style=""height:400px;""></stim_listB>",,html-keyboard-response,198,813207,0.0-15.0-1.7,65866,List1B,white,man,,,,null,,,,
null,is arguing with,,html-keyboard-response,199,815209,0.0-15.0-2.7,65866,List1B,white,man,,,,null,,,,
5802,,,survey-text,200,821013,0.0-15.0-3.7,65866,List1B,white,man,,,,,"{""Q0"":""ruth is arguing with kate ""}","<img src=""stim_listB/argue7.gif""style=""height:400px;""></stim_listB>",is arguing with,
null,"<div style=""font-size:60px;"">+</div>",,html-keyboard-response,201,821515,0.0-15.0-0.8,65866,List1B,white,man,,,,null,,,,
null,"<img src=""stim_listB/shout2.gif""style=""height:400px;""></stim_listB>",,html-keyboard-response,202,823517,0.0-15.0-1.8,65866,List1B,white,man,,,,null,,,,
null,are shouting at each other,,html-keyboard-response,203,825519,0.0-15.0-2.8,65866,List1B,white,man,,,,null,,,,
23260,,,survey-text,204,848781,0.0-15.0-3.8,65866,List1B,white,man,,,,,"{""Q0"":""mike and kate are shouting at eachother ""}","<img src=""stim_listB/shout2.gif""style=""height:400px;""></stim_listB>",are shouting at each other,
null,"<div style=""font-size:60px;"">+</div>",,html-keyboard-response,205,849283,0.0-15.0-0.9,65866,List1B,white,man,,,,null,,,,
null,"<img src=""stim_listB/kiss7.gif""style=""height:400px;""></stim_listB>",,html-keyboard-response,206,851287,0.0-15.0-1.9,65866,List1B,white,man,,,,null,,,,
null,is kissing,,html-keyboard-response,207,853289,0.0-15.0-2.9,65866,List1B,white,man,,,,null,,,,
9162,,,survey-text,208,862453,0.0-15.0-3.9,65866,List1B,white,man,,,,,"{""Q0"":""beth is kissing ruth""}","<img src=""stim_listB/kiss7.gif""style=""height:400px;""></stim_listB>",is kissing,
null,"<div style=""font-size:60px;"">+</div>",,html-keyboard-response,209,862955,0.0-15.0-0.10,65866,List1B,white,man,,,,null,,,,
null,"<img src=""stim_listB/kiss4.gif""style=""height:400px;""></stim_listB>",,html-keyboard-response,210,864957,0.0-15.0-1.10,65866,List1B,white,man,,,,null,,,,
null,are kissing each other,,html-keyboard-response,211,866959,0.0-15.0-2.10,65866,List1B,white,man,,,,null,,,,
12293,,,survey-text,212,879253,0.0-15.0-3.10,65866,List1B,white,man,,,,,"{""Q0"":""dave and jane are kissing eachother ""}","<img src=""stim_listB/kiss4.gif""style=""height:400px;""></stim_listB>",are kissing each other,
null,"<div style=""font-size:60px;"">+</div>",,html-keyboard-response,213,879755,0.0-15.0-0.11,65866,List1B,white,man,,,,null,,,,
null,"<img src=""stim_listB/play7.gif""style=""height:400px;""></stim_listB>",,html-keyboard-response,214,881758,0.0-15.0-1.11,65866,List1B,white,man,,,,null,,,,
null,is playing with,,html-keyboard-response,215,883760,0.0-15.0-2.11,65866,List1B,white,man,,,,null,,,,
6707,,,survey-text,216,890469,0.0-15.0-3.11,65866,List1B,white,man,,,,,"{""Q0"":""jane is playing with kate ""}","<img src=""stim_listB/play7.gif""style=""height:400px;""></stim_listB>",is playing with,
null,"<div style=""font-size:60px;"">+</div>",,html-keyboard-response,217,890970,0.0-15.0-0.12,65866,List1B,white,man,,,,null,,,,
null,"<img src=""stim_listB/dance7.gif""style=""height:400px;""></stim_listB>",,html-keyboard-response,218,892973,0.0-15.0-1.12,65866,List1B,white,man,,,,null,,,,
null,is dancing with,,html-keyboard-response,219,894976,0.0-15.0-2.12,65866,List1B,white,man,,,,null,,,,
9147,,,survey-text,220,904125,0.0-15.0-3.12,65866,List1B,white,man,,,,,"{""Q0"":""ruth is dancing with beth""}","<img src=""stim_listB/dance7.gif""style=""height:400px;""></stim_listB>",is dancing with,
null,"<div style=""font-size:60px;"">+</div>",,html-keyboard-response,221,904626,0.0-15.0-0.13,65866,List1B,white,man,,,,null,,,,
null,"<img src=""stim_listB/touch1.gif""style=""height:400px;""></stim_listB>",,html-keyboard-response,222,906629,0.0-15.0-1.13,65866,List1B,white,man,,,,null,,,,
null,is touching,,html-keyboard-response,223,908631,0.0-15.0-2.13,65866,List1B,white,man,,,,null,,,,
7469,,,survey-text,224,916101,0.0-15.0-3.13,65866,List1B,white,man,,,,,"{""Q0"":""mike is touching kate ""}","<img src=""stim_listB/touch1.gif""style=""height:400px;""></stim_listB>",is touching,
null,"<div style=""font-size:60px;"">+</div>",,html-keyboard-response,225,916603,0.0-15.0-0.14,65866,List1B,white,man,,,,null,,,,
null,"<img src=""stim_listB/argue8.gif""style=""height:400px;""></stim_listB>",,html-keyboard-response,226,918605,0.0-15.0-1.14,65866,List1B,white,man,,,,null,,,,
null,are arguing with each other,,html-keyboard-response,227,920607,0.0-15.0-2.14,65866,List1B,white,man,,,,null,,,,
11781,,,survey-text,228,932389,0.0-15.0-3.14,65866,List1B,white,man,,,,,"{""Q0"":""beth and jane are arguing with eachother ""}","<img src=""stim_listB/argue8.gif""style=""height:400px;""></stim_listB>",are arguing with each other,
null,"<div style=""font-size:60px;"">+</div>",,html-keyboard-response,229,932890,0.0-15.0-0.15,65866,List1B,white,man,,,,null,,,,
null,"<img src=""stim_listB/play8.gif""style=""height:400px;""></stim_listB>",,html-keyboard-response,230,934893,0.0-15.0-1.15,65866,List1B,white,man,,,,null,,,,
null,are playing with each other,,html-keyboard-response,231,936895,0.0-15.0-2.15,65866,List1B,white,man,,,,null,,,,
15957,,,survey-text,232,952853,0.0-15.0-3.15,65866,List1B,white,man,,,,,"{""Q0"":""beth and ruth are playing with eachother""}","<img src=""stim_listB/play8.gif""style=""height:400px;""></stim_listB>",are playing with each other,
null,"<div style=""font-size:60px;"">+</div>",,html-keyboard-response,233,953355,0.0-15.0-0.16,65866,List1B,white,man,,,,null,,,,
null,"<img src=""stim_listB/dance6.gif""style=""height:400px;""></stim_listB>",,html-keyboard-response,234,955361,0.0-15.0-1.16,65866,List1B,white,man,,,,null,,,,
null,are dancing with each other,,html-keyboard-response,235,957363,0.0-15.0-2.16,65866,List1B,white,man,,,,null,,,,
12321,,,survey-text,236,969686,0.0-15.0-3.16,65866,List1B,white,man,,,,,"{""Q0"":""mike and luke are dancing with eachother ""}","<img src=""stim_listB/dance6.gif""style=""height:400px;""></stim_listB>",are dancing with each other,
null,"<div style=""font-size:60px;"">+</div>",,html-keyboard-response,237,970187,0.0-15.0-0.17,65866,List1B,white,man,,,,null,,,,
null,"<img src=""stim_listB/dance4.gif""style=""height:400px;""></stim_listB>",,html-keyboard-response,238,972189,0.0-15.0-1.17,65866,List1B,white,man,,,,null,,,,
null,are dancing with each other,,html-keyboard-response,239,974190,0.0-15.0-2.17,65866,List1B,white,man,,,,null,,,,
11343,,,survey-text,240,985533,0.0-15.0-3.17,65866,List1B,white,man,,,,,"{""Q0"":""ruth and dave are dancing with eachother ""}","<img src=""stim_listB/dance4.gif""style=""height:400px;""></stim_listB>",are dancing with each other,
null,"<div style=""font-size:60px;"">+</div>",,html-keyboard-response,241,986035,0.0-15.0-0.18,65866,List1B,white,man,,,,null,,,,
null,"<img src=""stim_listB/touch5.gif""style=""height:400px;""></stim_listB>",,html-keyboard-response,242,988037,0.0-15.0-1.18,65866,List1B,white,man,,,,null,,,,
null,is touching,,html-keyboard-response,243,990040,0.0-15.0-2.18,65866,List1B,white,man,,,,null,,,,
6451,,,survey-text,244,996493,0.0-15.0-3.18,65866,List1B,white,man,,,,,"{""Q0"":""mike is touching dave ""}","<img src=""stim_listB/touch5.gif""style=""height:400px;""></stim_listB>",is touching,
null,"<div style=""font-size:60px;"">+</div>",,html-keyboard-response,245,996995,0.0-15.0-0.19,65866,List1B,white,man,,,,null,,,,
null,"<img src=""stim_listB/shout6.gif""style=""height:400px;""></stim_listB>",,html-keyboard-response,246,998999,0.0-15.0-1.19,65866,List1B,white,man,,,,null,,,,
null,are shouting at each other,,html-keyboard-response,247,1001001,0.0-15.0-2.19,65866,List1B,white,man,,,,null,,,,
9596,,,survey-text,248,1010597,0.0-15.0-3.19,65866,List1B,white,man,,,,,"{""Q0"":""mike and dave are shouting at eachother ""}","<img src=""stim_listB/shout6.gif""style=""height:400px;""></stim_listB>",are shouting at each other,
1831,"<img src='img/portrait_matrix_list1.jpg' style='width:900px;height:500px;''></img><p>If you have memorised all the portraits and names and are ready to start, press Continue.</p><p><strong>Please note: Your memory of these faces will be tested 4 times during this experiment.</strong></p>",0,html-button-response,249,1012429,0.0-16.0-0.0,65866,List1B,white,man,,,,,,,,
1581,"<img src=""portrait/WW1.jpg""style=""height:400px;""></img>",1,html-button-response,250,1015014,0.0-16.0-1.0,65866,List1B,white,man,,TRUE,1,,,,,
null,CORRECT,,html-keyboard-response,251,1016517,0.0-16.0-2.0-0.0,65866,List1B,white,man,,,,null,,,,
2191,"<img src=""portrait/WM2.jpg""style=""height:400px;""></img>",7,html-button-response,252,1018709,0.0-16.0-4.0,65866,List1B,white,man,,TRUE,7,,,,,
null,CORRECT,,html-keyboard-response,253,1020212,0.0-16.0-5.0-0.0,65866,List1B,white,man,,,,null,,,,
1871,"<img src=""portrait/BM2.jpg""style=""height:400px;""></img>",5,html-button-response,254,1022085,0.0-16.0-7.0,65866,List1B,white,man,,TRUE,5,,,,,
null,CORRECT,,html-keyboard-response,255,1023589,0.0-16.0-8.0-0.0,65866,List1B,white,man,,,,null,,,,
7367,"<img src=""portrait/BW1.jpg""style=""height:400px;""></img>",0,html-button-response,256,1030957,0.0-16.0-10.0,65866,List1B,white,man,,TRUE,0,,,,,
null,CORRECT,,html-keyboard-response,257,1032461,0.0-16.0-11.0-0.0,65866,List1B,white,man,,,,null,,,,
1662,"<img src=""portrait/WW2.jpg""style=""height:400px;""></img>",3,html-button-response,258,1034125,0.0-16.0-13.0,65866,List1B,white,man,,TRUE,3,,,,,
null,CORRECT,,html-keyboard-response,259,1035627,0.0-16.0-14.0-0.0,65866,List1B,white,man,,,,null,,,,
2033,"<img src=""portrait/BM1.jpg""style=""height:400px;""></img>",4,html-button-response,260,1037661,0.0-16.0-16.0,65866,List1B,white,man,,TRUE,4,,,,,
null,CORRECT,,html-keyboard-response,261,1039165,0.0-16.0-17.0-0.0,65866,List1B,white,man,,,,null,,,,
3783,"<img src=""portrait/WM1.jpg""style=""height:400px;""></img>",6,html-button-response,262,1042950,0.0-16.0-19.0,65866,List1B,white,man,,TRUE,6,,,,,
null,CORRECT,,html-keyboard-response,263,1044453,0.0-16.0-20.0-0.0,65866,List1B,white,man,,,,null,,,,
3039,"<img src=""portrait/BW2.jpg""style=""height:400px;""></img>",2,html-button-response,264,1047493,0.0-16.0-22.0,65866,List1B,white,man,,TRUE,2,,,,,
null,CORRECT,,html-keyboard-response,265,1048996,0.0-16.0-23.0-0.0,65866,List1B,white,man,,,,null,,,,
11839,<p>You got 8 out of 8 right first time. Press Continue.</p>,0,html-button-response,266,1060837,0.0-16.0-25.0,65866,List1B,white,man,,,,,,,,
null,"<div style=""font-size:60px;"">+</div>",,html-keyboard-response,267,1062339,0.0-17.0-0.0,65866,List1B,white,man,,,,null,,,,
null,"<img src=""stim_listB/talk1.gif""style=""height:400px;""></stim_listB>",,html-keyboard-response,268,1064340,0.0-17.0-1.0,65866,List1B,white,man,,,,null,,,,
null,is talking to,,html-keyboard-response,269,1066342,0.0-17.0-2.0,65866,List1B,white,man,,,,null,,,,
6181,,,survey-text,270,1072525,0.0-17.0-3.0,65866,List1B,white,man,,,,,"{""Q0"":""kate is talking to fred ""}","<img src=""stim_listB/talk1.gif""style=""height:400px;""></stim_listB>",is talking to,
null,"<div style=""font-size:60px;"">+</div>",,html-keyboard-response,271,1073026,0.0-17.0-0.1,65866,List1B,white,man,,,,null,,,,
null,"<img src=""stim_listB/shout1.gif""style=""height:400px;""></stim_listB>",,html-keyboard-response,272,1075028,0.0-17.0-1.1,65866,List1B,white,man,,,,null,,,,
null,is shouting at,,html-keyboard-response,273,1077031,0.0-17.0-2.1,65866,List1B,white,man,,,,null,,,,
7005,,,survey-text,274,1084037,0.0-17.0-3.1,65866,List1B,white,man,,,,,"{""Q0"":""beth is shouting at fred ""}","<img src=""stim_listB/shout1.gif""style=""height:400px;""></stim_listB>",is shouting at,
null,"<div style=""font-size:60px;"">+</div>",,html-keyboard-response,275,1084539,0.0-17.0-0.2,65866,List1B,white,man,,,,null,,,,
null,"<img src=""stim_listB/flirt5.gif""style=""height:400px;""></stim_listB>",,html-keyboard-response,276,1086542,0.0-17.0-1.2,65866,List1B,white,man,,,,null,,,,
null,is flirting with,,html-keyboard-response,277,1088543,0.0-17.0-2.2,65866,List1B,white,man,,,,null,,,,
8732,,,survey-text,278,1097277,0.0-17.0-3.2,65866,List1B,white,man,,,,,"{""Q0"":""dave is flirting with fred""}","<img src=""stim_listB/flirt5.gif""style=""height:400px;""></stim_listB>",is flirting with,
null,"<div style=""font-size:60px;"">+</div>",,html-keyboard-response,279,1097780,0.0-17.0-0.3,65866,List1B,white,man,,,,null,,,,
null,"<img src=""stim_listB/fight2.gif""style=""height:400px;""></stim_listB>",,html-keyboard-response,280,1099783,0.0-17.0-1.3,65866,List1B,white,man,,,,null,,,,
null,are fighting each other,,html-keyboard-response,281,1101785,0.0-17.0-2.3,65866,List1B,white,man,,,,null,,,,
7466,,,survey-text,282,1109253,0.0-17.0-3.3,65866,List1B,white,man,,,,,"{""Q0"":""fred and beth are fighting eachother ""}","<img src=""stim_listB/fight2.gif""style=""height:400px;""></stim_listB>",are fighting each other,
null,"<div style=""font-size:60px;"">+</div>",,html-keyboard-response,283,1109755,0.0-17.0-0.4,65866,List1B,white,man,,,,null,,,,
null,"<img src=""stim_listB/touch4.gif""style=""height:400px;""></stim_listB>",,html-keyboard-response,284,1111757,0.0-17.0-1.4,65866,List1B,white,man,,,,null,,,,
null,are touching each other,,html-keyboard-response,285,1113758,0.0-17.0-2.4,65866,List1B,white,man,,,,null,,,,
10517,,,survey-text,286,1124277,0.0-17.0-3.4,65866,List1B,white,man,,,,,"{""Q0"":""luke and ruth are touching eachother ""}","<img src=""stim_listB/touch4.gif""style=""height:400px;""></stim_listB>",are touching each other,
null,"<div style=""font-size:60px;"">+</div>",,html-keyboard-response,287,1124779,0.0-17.0-0.5,65866,List1B,white,man,,,,null,,,,
null,"<img src=""stim_listB/flirt3.gif""style=""height:400px;""></stim_listB>",,html-keyboard-response,288,1126782,0.0-17.0-1.5,65866,List1B,white,man,,,,null,,,,
null,is flirting with,,html-keyboard-response,289,1128784,0.0-17.0-2.5,65866,List1B,white,man,,,,null,,,,
12188,,,survey-text,290,1140973,0.0-17.0-3.5,65866,List1B,white,man,,,,,"{""Q0"":""jane is flirting with luke""}","<img src=""stim_listB/flirt3.gif""style=""height:400px;""></stim_listB>",is flirting with,
null,"<div style=""font-size:60px;"">+</div>",,html-keyboard-response,291,1141475,0.0-17.0-0.6,65866,List1B,white,man,,,,null,,,,
null,"<img src=""stim_listB/kiss2.gif""style=""height:400px;""></stim_listB>",,html-keyboard-response,292,1143479,0.0-17.0-1.6,65866,List1B,white,man,,,,null,,,,
null,are kissing each other,,html-keyboard-response,293,1145481,0.0-17.0-2.6,65866,List1B,white,man,,,,null,,,,
6883,,,survey-text,294,1152365,0.0-17.0-3.6,65866,List1B,white,man,,,,,"{""Q0"":""mike and kate are kissing eachother ""}","<img src=""stim_listB/kiss2.gif""style=""height:400px;""></stim_listB>",are kissing each other,
null,"<div style=""font-size:60px;"">+</div>",,html-keyboard-response,295,1152868,0.0-17.0-0.7,65866,List1B,white,man,,,,null,,,,
null,"<img src=""stim_listB/talk3.gif""style=""height:400px;""></stim_listB>",,html-keyboard-response,296,1154870,0.0-17.0-1.7,65866,List1B,white,man,,,,null,,,,
null,is talking to,,html-keyboard-response,297,1156872,0.0-17.0-2.7,65866,List1B,white,man,,,,null,,,,
5877,,,survey-text,298,1162749,0.0-17.0-3.7,65866,List1B,white,man,,,,,"{""Q0"":""jane is talking to luke ""}","<img src=""stim_listB/talk3.gif""style=""height:400px;""></stim_listB>",is talking to,
null,"<div style=""font-size:60px;"">+</div>",,html-keyboard-response,299,1163251,0.0-17.0-0.8,65866,List1B,white,man,,,,null,,,,
null,"<img src=""stim_listB/marry3.gif""style=""height:400px;""></stim_listB>",,html-keyboard-response,300,1165254,0.0-17.0-1.8,65866,List1B,white,man,,,,null,,,,
null,is marrying,,html-keyboard-response,301,1167256,0.0-17.0-2.8,65866,List1B,white,man,,,,null,,,,
7044,,,survey-text,302,1174301,0.0-17.0-3.8,65866,List1B,white,man,,,,,"{""Q0"":""ruth is marrying dave ""}","<img src=""stim_listB/marry3.gif""style=""height:400px;""></stim_listB>",is marrying,
null,"<div style=""font-size:60px;"">+</div>",,html-keyboard-response,303,1174803,0.0-17.0-0.9,65866,List1B,white,man,,,,null,,,,
null,"<img src=""stim_listB/flirt2.gif""style=""height:400px;""></stim_listB>",,html-keyboard-response,304,1176805,0.0-17.0-1.9,65866,List1B,white,man,,,,null,,,,
null,are flirting with each other,,html-keyboard-response,305,1178808,0.0-17.0-2.9,65866,List1B,white,man,,,,null,,,,
10764,,,survey-text,306,1189573,0.0-17.0-3.9,65866,List1B,white,man,,,,,"{""Q0"":""mike and beth are flirting with each other ""}","<img src=""stim_listB/flirt2.gif""style=""height:400px;""></stim_listB>",are flirting with each other,
null,"<div style=""font-size:60px;"">+</div>",,html-keyboard-response,307,1190075,0.0-17.0-0.10,65866,List1B,white,man,,,,null,,,,
null,"<img src=""stim_listB/touch6.gif""style=""height:400px;""></stim_listB>",,html-keyboard-response,308,1192079,0.0-17.0-1.10,65866,List1B,white,man,,,,null,,,,
null,are touching each other,,html-keyboard-response,309,1194083,0.0-17.0-2.10,65866,List1B,white,man,,,,null,,,,
8241,,,survey-text,310,1202325,0.0-17.0-3.10,65866,List1B,white,man,,,,,"{""Q0"":""dave and luke are touching each other ""}","<img src=""stim_listB/touch6.gif""style=""height:400px;""></stim_listB>",are touching each other,
null,"<div style=""font-size:60px;"">+</div>",,html-keyboard-response,311,1202827,0.0-17.0-0.11,65866,List1B,white,man,,,,null,,,,
null,"<img src=""stim_listB/shout8.gif""style=""height:400px;""></stim_listB>",,html-keyboard-response,312,1204830,0.0-17.0-1.11,65866,List1B,white,man,,,,null,,,,
null,are shouting at each other,,html-keyboard-response,313,1206833,0.0-17.0-2.11,65866,List1B,white,man,,,,null,,,,
7970,,,survey-text,314,1214805,0.0-17.0-3.11,65866,List1B,white,man,,,,,"{""Q0"":""kate and jane are shouting at each other ""}","<img src=""stim_listB/shout8.gif""style=""height:400px;""></stim_listB>",are shouting at each other,
null,"<div style=""font-size:60px;"">+</div>",,html-keyboard-response,315,1215306,0.0-17.0-0.12,65866,List1B,white,man,,,,null,,,,
null,"<img src=""stim_listB/fight7.gif""style=""height:400px;""></stim_listB>",,html-keyboard-response,316,1217309,0.0-17.0-1.12,65866,List1B,white,man,,,,null,,,,
null,is fighting,,html-keyboard-response,317,1219310,0.0-17.0-2.12,65866,List1B,white,man,,,,null,,,,
5341,,,survey-text,318,1224653,0.0-17.0-3.12,65866,List1B,white,man,,,,,"{""Q0"":""jane is flighting kate ""}","<img src=""stim_listB/fight7.gif""style=""height:400px;""></stim_listB>",is fighting,
null,"<div style=""font-size:60px;"">+</div>",,html-keyboard-response,319,1225155,0.0-17.0-0.13,65866,List1B,white,man,,,,null,,,,
null,"<img src=""stim_listB/play2.gif""style=""height:400px;""></stim_listB>",,html-keyboard-response,320,1227159,0.0-17.0-1.13,65866,List1B,white,man,,,,null,,,,
null,are playing with each other,,html-keyboard-response,321,1229160,0.0-17.0-2.13,65866,List1B,white,man,,,,null,,,,
10467,,,survey-text,322,1239629,0.0-17.0-3.13,65866,List1B,white,man,,,,,"{""Q0"":""fred and beth are playing with each other ""}","<img src=""stim_listB/play2.gif""style=""height:400px;""></stim_listB>",are playing with each other,
null,"<div style=""font-size:60px;"">+</div>",,html-keyboard-response,323,1240131,0.0-17.0-0.14,65866,List1B,white,man,,,,null,,,,
null,"<img src=""stim_listB/fight3.gif""style=""height:400px;""></stim_listB>",,html-keyboard-response,324,1242134,0.0-17.0-1.14,65866,List1B,white,man,,,,null,,,,
null,is fighting,,html-keyboard-response,325,1244136,0.0-17.0-2.14,65866,List1B,white,man,,,,null,,,,
6780,,,survey-text,326,1250918,0.0-17.0-3.14,65866,List1B,white,man,,,,,"{""Q0"":""jane is fighting dave ""}","<img src=""stim_listB/fight3.gif""style=""height:400px;""></stim_listB>",is fighting,
null,"<div style=""font-size:60px;"">+</div>",,html-keyboard-response,327,1251420,0.0-17.0-0.15,65866,List1B,white,man,,,,null,,,,
null,"<img src=""stim_listB/dance8.gif""style=""height:400px;""></stim_listB>",,html-keyboard-response,328,1253422,0.0-17.0-1.15,65866,List1B,white,man,,,,null,,,,
null,are dancing with each other,,html-keyboard-response,329,1255424,0.0-17.0-2.15,65866,List1B,white,man,,,,null,,,,
15420,,,survey-text,330,1270845,0.0-17.0-3.15,65866,List1B,white,man,,,,,"{""Q0"":""kate and ruth are dancing with each other ""}","<img src=""stim_listB/dance8.gif""style=""height:400px;""></stim_listB>",are dancing with each other,
null,"<div style=""font-size:60px;"">+</div>",,html-keyboard-response,331,1271347,0.0-17.0-0.16,65866,List1B,white,man,,,,null,,,,
null,"<img src=""stim_listB/argue3.gif""style=""height:400px;""></stim_listB>",,html-keyboard-response,332,1273350,0.0-17.0-1.16,65866,List1B,white,man,,,,null,,,,
null,is arguing with,,html-keyboard-response,333,1275351,0.0-17.0-2.16,65866,List1B,white,man,,,,null,,,,
10013,,,survey-text,334,1285365,0.0-17.0-3.16,65866,List1B,white,man,,,,,"{""Q0"":""ruth is arguing with dave ""}","<img src=""stim_listB/argue3.gif""style=""height:400px;""></stim_listB>",is arguing with,
null,"<div style=""font-size:60px;"">+</div>",,html-keyboard-response,335,1285867,0.0-17.0-0.17,65866,List1B,white,man,,,,null,,,,
null,"<img src=""stim_listB/play1.gif""style=""height:400px;""></stim_listB>",,html-keyboard-response,336,1287870,0.0-17.0-1.17,65866,List1B,white,man,,,,null,,,,
null,is playing with,,html-keyboard-response,337,1289871,0.0-17.0-2.17,65866,List1B,white,man,,,,null,,,,
6268,,,survey-text,338,1296141,0.0-17.0-3.17,65866,List1B,white,man,,,,,"{""Q0"":""kate is playing with mike ""}","<img src=""stim_listB/play1.gif""style=""height:400px;""></stim_listB>",is playing with,
null,"<div style=""font-size:60px;"">+</div>",,html-keyboard-response,339,1296642,0.0-17.0-0.18,65866,List1B,white,man,,,,null,,,,
null,"<img src=""stim_listB/touch8.gif""style=""height:400px;""></stim_listB>",,html-keyboard-response,340,1298644,0.0-17.0-1.18,65866,List1B,white,man,,,,null,,,,
null,are touching each other,,html-keyboard-response,341,1300646,0.0-17.0-2.18,65866,List1B,white,man,,,,null,,,,
12253,,,survey-text,342,1312901,0.0-17.0-3.18,65866,List1B,white,man,,,,,"{""Q0"":""beth and ruth are touching each other ""}","<img src=""stim_listB/touch8.gif""style=""height:400px;""></stim_listB>",are touching each other,
null,"<div style=""font-size:60px;"">+</div>",,html-keyboard-response,343,1313403,0.0-17.0-0.19,65866,List1B,white,man,,,,null,,,,
null,"<img src=""stim_listB/marry2.gif""style=""height:400px;""></stim_listB>",,html-keyboard-response,344,1315406,0.0-17.0-1.19,65866,List1B,white,man,,,,null,,,,
null,are marrying each other,,html-keyboard-response,345,1317408,0.0-17.0-2.19,65866,List1B,white,man,,,,null,,,,
7180,,,survey-text,346,1324589,0.0-17.0-3.19,65866,List1B,white,man,,,,,"{""Q0"":""fred and kate are marrying each other ""}","<img src=""stim_listB/marry2.gif""style=""height:400px;""></stim_listB>",are marrying each other,
1254,"<img src='img/portrait_matrix_list1.jpg' style='width:900px;height:500px;''></img><p>If you have memorised all the portraits and names and are ready to start, press Continue.</p><p><strong>Please note: Your memory of these faces will be tested 4 times during this experiment.</strong></p>",0,html-button-response,347,1325845,0.0-18.0-0.0,65866,List1B,white,man,,,,,,,,
1709,"<img src=""portrait/BW2.jpg""style=""height:400px;""></img>",2,html-button-response,348,1328558,0.0-18.0-1.0,65866,List1B,white,man,,TRUE,2,,,,,
null,CORRECT,,html-keyboard-response,349,1330061,0.0-18.0-2.0-0.0,65866,List1B,white,man,,,,null,,,,
1583,"<img src=""portrait/BM1.jpg""style=""height:400px;""></img>",4,html-button-response,350,1331646,0.0-18.0-4.0,65866,List1B,white,man,,TRUE,4,,,,,
null,CORRECT,,html-keyboard-response,351,1333149,0.0-18.0-5.0-0.0,65866,List1B,white,man,,,,null,,,,
2351,"<img src=""portrait/BW1.jpg""style=""height:400px;""></img>",0,html-button-response,352,1335501,0.0-18.0-7.0,65866,List1B,white,man,,TRUE,0,,,,,
null,CORRECT,,html-keyboard-response,353,1337003,0.0-18.0-8.0-0.0,65866,List1B,white,man,,,,null,,,,
1489,"<img src=""portrait/BM2.jpg""style=""height:400px;""></img>",5,html-button-response,354,1338494,0.0-18.0-10.0,65866,List1B,white,man,,TRUE,5,,,,,
null,CORRECT,,html-keyboard-response,355,1339995,0.0-18.0-11.0-0.0,65866,List1B,white,man,,,,null,,,,
1720,"<img src=""portrait/WW2.jpg""style=""height:400px;""></img>",3,html-button-response,356,1341717,0.0-18.0-13.0,65866,List1B,white,man,,TRUE,3,,,,,
null,CORRECT,,html-keyboard-response,357,1343221,0.0-18.0-14.0-0.0,65866,List1B,white,man,,,,null,,,,
1567,"<img src=""portrait/WM1.jpg""style=""height:400px;""></img>",6,html-button-response,358,1344789,0.0-18.0-16.0,65866,List1B,white,man,,TRUE,6,,,,,
null,CORRECT,,html-keyboard-response,359,1346293,0.0-18.0-17.0-0.0,65866,List1B,white,man,,,,null,,,,
1335,"<img src=""portrait/WM2.jpg""style=""height:400px;""></img>",7,html-button-response,360,1347629,0.0-18.0-19.0,65866,List1B,white,man,,TRUE,7,,,,,
null,CORRECT,,html-keyboard-response,361,1349132,0.0-18.0-20.0-0.0,65866,List1B,white,man,,,,null,,,,
1552,"<img src=""portrait/WW1.jpg""style=""height:400px;""></img>",1,html-button-response,362,1350685,0.0-18.0-22.0,65866,List1B,white,man,,TRUE,1,,,,,
null,CORRECT,,html-keyboard-response,363,1352189,0.0-18.0-23.0-0.0,65866,List1B,white,man,,,,null,,,,
1047,<p>You got 8 out of 8 right first time. Press Continue.</p>,0,html-button-response,364,1353237,0.0-18.0-25.0,65866,List1B,white,man,,,,,,,,
null,"<div style=""font-size:60px;"">+</div>",,html-keyboard-response,365,1354740,0.0-19.0-0.0,65866,List1B,white,man,,,,null,,,,
null,"<img src=""stim_listB/talk5.gif""style=""height:400px;""></stim_listB>",,html-keyboard-response,366,1356742,0.0-19.0-1.0,65866,List1B,white,man,,,,null,,,,
null,is talking to,,html-keyboard-response,367,1358746,0.0-19.0-2.0,65866,List1B,white,man,,,,null,,,,
10586,,,survey-text,368,1369334,0.0-19.0-3.0,65866,List1B,white,man,,,,,"{""Q0"":""dave is talking to fred""}","<img src=""stim_listB/talk5.gif""style=""height:400px;""></stim_listB>",is talking to,
null,"<div style=""font-size:60px;"">+</div>",,html-keyboard-response,369,1369836,0.0-19.0-0.1,65866,List1B,white,man,,,,null,,,,
null,"<img src=""stim_listB/marry6.gif""style=""height:400px;""></stim_listB>",,html-keyboard-response,370,1371839,0.0-19.0-1.1,65866,List1B,white,man,,,,null,,,,
null,are marrying each other,,html-keyboard-response,371,1373841,0.0-19.0-2.1,65866,List1B,white,man,,,,null,,,,
15851,,,survey-text,372,1389693,0.0-19.0-3.1,65866,List1B,white,man,,,,,"{""Q0"":""dave and fred are marrying each other ""}","<img src=""stim_listB/marry6.gif""style=""height:400px;""></stim_listB>",are marrying each other,
null,"<div style=""font-size:60px;"">+</div>",,html-keyboard-response,373,1390195,0.0-19.0-0.2,65866,List1B,white,man,,,,null,,,,
null,"<img src=""stim_listB/fight4.gif""style=""height:400px;""></stim_listB>",,html-keyboard-response,374,1392198,0.0-19.0-1.2,65866,List1B,white,man,,,,null,,,,
null,are fighting each other,,html-keyboard-response,375,1394199,0.0-19.0-2.2,65866,List1B,white,man,,,,null,,,,
7814,,,survey-text,376,1402015,0.0-19.0-3.2,65866,List1B,white,man,,,,,"{""Q0"":""luke and ruth are fighting each other ""}","<img src=""stim_listB/fight4.gif""style=""height:400px;""></stim_listB>",are fighting each other,
null,"<div style=""font-size:60px;"">+</div>",,html-keyboard-response,377,1402517,0.0-19.0-0.3,65866,List1B,white,man,,,,null,,,,
null,"<img src=""stim_listB/touch2.gif""style=""height:400px;""></stim_listB>",,html-keyboard-response,378,1404519,0.0-19.0-1.3,65866,List1B,white,man,,,,null,,,,
null,are touching each other,,html-keyboard-response,379,1406521,0.0-19.0-2.3,65866,List1B,white,man,,,,null,,,,
12313,,,survey-text,380,1418837,0.0-19.0-3.3,65866,List1B,white,man,,,,,"{""Q0"":""fred and beth are touching each other ""}","<img src=""stim_listB/touch2.gif""style=""height:400px;""></stim_listB>",are touching each other,
null,"<div style=""font-size:60px;"">+</div>",,html-keyboard-response,381,1419338,0.0-19.0-0.4,65866,List1B,white,man,,,,null,,,,
null,"<img src=""stim_listB/marry1.gif""style=""height:400px;""></stim_listB>",,html-keyboard-response,382,1421341,0.0-19.0-1.4,65866,List1B,white,man,,,,null,,,,
null,is marrying,,html-keyboard-response,383,1423343,0.0-19.0-2.4,65866,List1B,white,man,,,,null,,,,
8564,,,survey-text,384,1431909,0.0-19.0-3.4,65866,List1B,white,man,,,,,"{""Q0"":""beth is marrying mike ""}","<img src=""stim_listB/marry1.gif""style=""height:400px;""></stim_listB>",is marrying,
null,"<div style=""font-size:60px;"">+</div>",,html-keyboard-response,385,1432410,0.0-19.0-0.5,65866,List1B,white,man,,,,null,,,,
null,"<img src=""stim_listB/kiss8.gif""style=""height:400px;""></stim_listB>",,html-keyboard-response,386,1434412,0.0-19.0-1.5,65866,List1B,white,man,,,,null,,,,
null,are kissing each other,,html-keyboard-response,387,1436415,0.0-19.0-2.5,65866,List1B,white,man,,,,null,,,,
7613,,,survey-text,388,1444030,0.0-19.0-3.5,65866,List1B,white,man,,,,,"{""Q0"":""jane and kate are kissing each other ""}","<img src=""stim_listB/kiss8.gif""style=""height:400px;""></stim_listB>",are kissing each other,
null,"<div style=""font-size:60px;"">+</div>",,html-keyboard-response,389,1444533,0.0-19.0-0.6,65866,List1B,white,man,,,,null,,,,
null,"<img src=""stim_listB/talk4.gif""style=""height:400px;""></stim_listB>",,html-keyboard-response,390,1446536,0.0-19.0-1.6,65866,List1B,white,man,,,,null,,,,
null,are talking to each other,,html-keyboard-response,391,1448538,0.0-19.0-2.6,65866,List1B,white,man,,,,null,,,,
11003,,,survey-text,392,1459541,0.0-19.0-3.6,65866,List1B,white,man,,,,,"{""Q0"":""dave and ruth are talking to each other ""}","<img src=""stim_listB/talk4.gif""style=""height:400px;""></stim_listB>",are talking to each other,
null,"<div style=""font-size:60px;"">+</div>",,html-keyboard-response,393,1460043,0.0-19.0-0.7,65866,List1B,white,man,,,,null,,,,
null,"<img src=""stim_listB/marry5.gif""style=""height:400px;""></stim_listB>",,html-keyboard-response,394,1462046,0.0-19.0-1.7,65866,List1B,white,man,,,,null,,,,
null,is marrying,,html-keyboard-response,395,1464049,0.0-19.0-2.7,65866,List1B,white,man,,,,null,,,,
6427,,,survey-text,396,1470477,0.0-19.0-3.7,65866,List1B,white,man,,,,,"{""Q0"":""luke is marrying mike ""}","<img src=""stim_listB/marry5.gif""style=""height:400px;""></stim_listB>",is marrying,
null,"<div style=""font-size:60px;"">+</div>",,html-keyboard-response,397,1470980,0.0-19.0-0.8,65866,List1B,white,man,,,,null,,,,
null,"<img src=""stim_listB/talk8.gif""style=""height:400px;""></stim_listB>",,html-keyboard-response,398,1472982,0.0-19.0-1.8,65866,List1B,white,man,,,,null,,,,
null,are talking to each other,,html-keyboard-response,399,1474984,0.0-19.0-2.8,65866,List1B,white,man,,,,null,,,,
8523,,,survey-text,400,1483509,0.0-19.0-3.8,65866,List1B,white,man,,,,,"{""Q0"":""kate and ruth are talking to each other""}","<img src=""stim_listB/talk8.gif""style=""height:400px;""></stim_listB>",are talking to each other,
null,"<div style=""font-size:60px;"">+</div>",,html-keyboard-response,401,1484010,0.0-19.0-0.9,65866,List1B,white,man,,,,null,,,,
null,"<img src=""stim_listB/play6.gif""style=""height:400px;""></stim_listB>",,html-keyboard-response,402,1486014,0.0-19.0-1.9,65866,List1B,white,man,,,,null,,,,
null,are playing with each other,,html-keyboard-response,403,1488017,0.0-19.0-2.9,65866,List1B,white,man,,,,null,,,,
10883,,,survey-text,404,1498902,0.0-19.0-3.9,65866,List1B,white,man,,,,,"{""Q0"":""fred and luke are playing with each other ""}","<img src=""stim_listB/play6.gif""style=""height:400px;""></stim_listB>",are playing with each other,
null,"<div style=""font-size:60px;"">+</div>",,html-keyboard-response,405,1499405,0.0-19.0-0.10,65866,List1B,white,man,,,,null,,,,
null,"<img src=""stim_listB/talk6.gif""style=""height:400px;""></stim_listB>",,html-keyboard-response,406,1501408,0.0-19.0-1.10,65866,List1B,white,man,,,,null,,,,
null,are talking to each other,,html-keyboard-response,407,1503410,0.0-19.0-2.10,65866,List1B,white,man,,,,null,,,,
7817,,,survey-text,408,1511229,0.0-19.0-3.10,65866,List1B,white,man,,,,,"{""Q0"":""mike and luke are talking to each other ""}","<img src=""stim_listB/talk6.gif""style=""height:400px;""></stim_listB>",are talking to each other,
null,"<div style=""font-size:60px;"">+</div>",,html-keyboard-response,409,1511730,0.0-19.0-0.11,65866,List1B,white,man,,,,null,,,,
null,"<img src=""stim_listB/play4.gif""style=""height:400px;""></stim_listB>",,html-keyboard-response,410,1513732,0.0-19.0-1.11,65866,List1B,white,man,,,,null,,,,
null,are playing with each other,,html-keyboard-response,411,1515734,0.0-19.0-2.11,65866,List1B,white,man,,,,null,,,,
13606,,,survey-text,412,1529342,0.0-19.0-3.11,65866,List1B,white,man,,,,,"{""Q0"":""ruth and luke are playing with each other ""}","<img src=""stim_listB/play4.gif""style=""height:400px;""></stim_listB>",are playing with each other,
null,"<div style=""font-size:60px;"">+</div>",,html-keyboard-response,413,1529845,0.0-19.0-0.12,65866,List1B,white,man,,,,null,,,,
null,"<img src=""stim_listB/fight5.gif""style=""height:400px;""></stim_listB>",,html-keyboard-response,414,1531848,0.0-19.0-1.12,65866,List1B,white,man,,,,null,,,,
null,is fighting,,html-keyboard-response,415,1533849,0.0-19.0-2.12,65866,List1B,white,man,,,,null,,,,
13307,,,survey-text,416,1547157,0.0-19.0-3.12,65866,List1B,white,man,,,,,"{""Q0"":""dave is fighting mike ""}","<img src=""stim_listB/fight5.gif""style=""height:400px;""></stim_listB>",is fighting,
null,"<div style=""font-size:60px;"">+</div>",,html-keyboard-response,417,1547659,0.0-19.0-0.13,65866,List1B,white,man,,,,null,,,,
null,"<img src=""stim_listB/flirt1.gif""style=""height:400px;""></stim_listB>",,html-keyboard-response,418,1549662,0.0-19.0-1.13,65866,List1B,white,man,,,,null,,,,
null,is flirting with,,html-keyboard-response,419,1551664,0.0-19.0-2.13,65866,List1B,white,man,,,,null,,,,
6924,,,survey-text,420,1558590,0.0-19.0-3.13,65866,List1B,white,man,,,,,"{""Q0"":""kate is flirting with fred""}","<img src=""stim_listB/flirt1.gif""style=""height:400px;""></stim_listB>",is flirting with,
null,"<div style=""font-size:60px;"">+</div>",,html-keyboard-response,421,1559093,0.0-19.0-0.14,65866,List1B,white,man,,,,null,,,,
null,"<img src=""stim_listB/play5.gif""style=""height:400px;""></stim_listB>",,html-keyboard-response,422,1561095,0.0-19.0-1.14,65866,List1B,white,man,,,,null,,,,
null,is playing with,,html-keyboard-response,423,1563097,0.0-19.0-2.14,65866,List1B,white,man,,,,null,,,,
8578,,,survey-text,424,1571677,0.0-19.0-3.14,65866,List1B,white,man,,,,,"{""Q0"":""dave is playing with mike""}","<img src=""stim_listB/play5.gif""style=""height:400px;""></stim_listB>",is playing with,
null,"<div style=""font-size:60px;"">+</div>",,html-keyboard-response,425,1572180,0.0-19.0-0.15,65866,List1B,white,man,,,,null,,,,
null,"<img src=""stim_listB/fight6.gif""style=""height:400px;""></stim_listB>",,html-keyboard-response,426,1574184,0.0-19.0-1.15,65866,List1B,white,man,,,,null,,,,
null,are fighting each other,,html-keyboard-response,427,1576187,0.0-19.0-2.15,65866,List1B,white,man,,,,null,,,,
7488,,,survey-text,428,1583677,0.0-19.0-3.15,65866,List1B,white,man,,,,,"{""Q0"":""fred and luke are fighting each other""}","<img src=""stim_listB/fight6.gif""style=""height:400px;""></stim_listB>",are fighting each other,
null,"<div style=""font-size:60px;"">+</div>",,html-keyboard-response,429,1584178,0.0-19.0-0.16,65866,List1B,white,man,,,,null,,,,
null,"<img src=""stim_listB/flirt6.gif""style=""height:400px;""></stim_listB>",,html-keyboard-response,430,1586180,0.0-19.0-1.16,65866,List1B,white,man,,,,null,,,,
null,are flirting with each other,,html-keyboard-response,431,1588183,0.0-19.0-2.16,65866,List1B,white,man,,,,null,,,,
11700,,,survey-text,432,1599885,0.0-19.0-3.16,65866,List1B,white,man,,,,,"{""Q0"":""mike and luke are fighting each other ""}","<img src=""stim_listB/flirt6.gif""style=""height:400px;""></stim_listB>",are flirting with each other,
null,"<div style=""font-size:60px;"">+</div>",,html-keyboard-response,433,1600387,0.0-19.0-0.17,65866,List1B,white,man,,,,null,,,,
null,"<img src=""stim_listB/marry4.gif""style=""height:400px;""></stim_listB>",,html-keyboard-response,434,1602389,0.0-19.0-1.17,65866,List1B,white,man,,,,null,,,,
null,are marrying each other,,html-keyboard-response,435,1604390,0.0-19.0-2.17,65866,List1B,white,man,,,,null,,,,
9414,,,survey-text,436,1613805,0.0-19.0-3.17,65866,List1B,white,man,,,,,"{""Q0"":""jane and luke are marrying each other""}","<img src=""stim_listB/marry4.gif""style=""height:400px;""></stim_listB>",are marrying each other,
null,"<div style=""font-size:60px;"">+</div>",,html-keyboard-response,437,1614307,0.0-19.0-0.18,65866,List1B,white,man,,,,null,,,,
null,"<img src=""stim_listB/talk2.gif""style=""height:400px;""></stim_listB>",,html-keyboard-response,438,1616310,0.0-19.0-1.18,65866,List1B,white,man,,,,null,,,,
null,are talking to each other,,html-keyboard-response,439,1618315,0.0-19.0-2.18,65866,List1B,white,man,,,,null,,,,
7656,,,survey-text,440,1625973,0.0-19.0-3.18,65866,List1B,white,man,,,,,"{""Q0"":""mike and beth are talking to each other ""}","<img src=""stim_listB/talk2.gif""style=""height:400px;""></stim_listB>",are talking to each other,
null,"<div style=""font-size:60px;"">+</div>",,html-keyboard-response,441,1626474,0.0-19.0-0.19,65866,List1B,white,man,,,,null,,,,
null,"<img src=""stim_listB/shout5.gif""style=""height:400px;""></stim_listB>",,html-keyboard-response,442,1628476,0.0-19.0-1.19,65866,List1B,white,man,,,,null,,,,
null,is shouting at,,html-keyboard-response,443,1630477,0.0-19.0-2.19,65866,List1B,white,man,,,,null,,,,
7070,,,survey-text,444,1637549,0.0-19.0-3.19,65866,List1B,white,man,,,,,"{""Q0"":""luke is shouting at fred""}","<img src=""stim_listB/shout5.gif""style=""height:400px;""></stim_listB>",is shouting at,
2527,<p>Thank you for completing that task.</p><p>The final part of this session is a short questionnaire.</p><p>Press Continue.</p>,0,html-button-response,445,1640076,0.0-20.0,65866,List1B,white,man,,,,,,,,
22038,,,survey-text,446,1663118,0.0-21.0,65866,List1B,white,man,,,,,"{""Q0"":""29"",""Q1"":""english"",""Q2"":""english"",""Q3"":""england"",""Q4"":""white"",""Q5"":""male""}",,,demographics
8605,,,survey-likert,447,1671726,0.0-22.0,65866,List1B,white,man,,,,,"{""Q0"":3}",,,likert_ESS
11630,,,survey-likert,448,1683357,0.0-23.0,65866,List1B,white,man,,,,,"{""Q0"":4}",,,likert_NSSAL_Q1
1879,,,survey-likert,449,1685237,0.0-24.0,65866,List1B,white,man,,,,,"{""Q0"":4}",,,likert_NSSAL_Q2
5495,,,survey-likert,450,1690734,0.0-25.0,65866,List1B,white,man,,,,,"{""Q0"":4}",,,likert_CGRS_Q1
4022,,,survey-likert,451,1694757,0.0-26.0,65866,List1B,white,man,,,,,"{""Q0"":4}",,,likert_CGRS_Q2
3208,,,survey-likert,452,1697966,0.0-27.0,65866,List1B,white,man,,,,,"{""Q0"":4}",,,likert_CGRS_Q3
11181,,,survey-text,453,1709149,0.0-28.0,65866,List1B,white,man,,,,,"{""Q0"":""ccc""}",,,worker_id
2828,,,external-html,454,1712117,0.0-29.0,65866,List1B,white,man,debrief.html,,,,,,,
