rt,stimulus,button_pressed,trial_type,trial_index,time_elapsed,internal_node_id,subject,list,ppt_race,ppt_gender,url,first_guess,correct,key_press,responses,image_type,phrase_type,test_part
10905,Welcome to the experiment. Press Continue to begin.,0,html-button-response,0,10932,0.0-0.0,6694,List2B,black,woman,,,,,,,,
95786,,,external-html,1,108047,0.0-1.0,6694,List2B,black,woman,consent.html,,,,,,,
10898,"<p>On the next page, you will see portraits of 8 people and their names.</p><p>Your first task is to take a few minutes to memorise the names of these people.</p><p>You will have to recall their names during the rest of the experiment, so it is</p><p>essential that you try to memorise these people and their names as best as you can.</p><br><p><strong>You will then be tested on your memory of these names and portraits.</strong></p><br><p>The experiment will start after you have completed this memory test.</p><br><p>Ready?</p>",0,html-button-response,2,118948,0.0-2.0,6694,List2B,black,woman,,,,,,,,
57740,"<img src='img/portrait_matrix_list2.jpg' style='width:900px;height:500px;''></img><p>If you have memorised all the portraits and names and are ready to start, press Continue.</p><p><strong>Please note: Your memory of these faces will be tested 4 times during this experiment.</strong></p>",0,html-button-response,3,177693,0.0-3.0-0.0,6694,List2B,black,woman,,,,,,,,
15176,"<img src=""portrait/BW2.jpg""style=""height:400px;""></img>",1,html-button-response,4,193873,0.0-3.0-1.0,6694,List2B,black,woman,,TRUE,2,,,,,
24785,"<img src=""portrait/BW2.jpg""style=""height:400px;""></img>",2,html-button-response,5,219664,0.0-3.0-3.0-0.0,6694,List2B,black,woman,,FALSE,2,,,,,
null,CORRECT,,html-keyboard-response,6,221174,0.0-3.0-3.0-1.0-0.0,6694,List2B,black,woman,,,,null,,,,
10939,"<img src=""portrait/BW1.jpg""style=""height:400px;""></img>",1,html-button-response,7,232116,0.0-3.0-4.0,6694,List2B,black,woman,,TRUE,0,,,,,
14578,"<img src=""portrait/BW1.jpg""style=""height:400px;""></img>",0,html-button-response,8,247700,0.0-3.0-6.0-0.0,6694,List2B,black,woman,,FALSE,0,,,,,
null,CORRECT,,html-keyboard-response,9,249211,0.0-3.0-6.0-1.0-0.0,6694,List2B,black,woman,,,,null,,,,
7986,"<img src=""portrait/BM1.jpg""style=""height:400px;""></img>",7,html-button-response,10,257200,0.0-3.0-7.0,6694,List2B,black,woman,,TRUE,4,,,,,
16633,"<img src=""portrait/BM1.jpg""style=""height:400px;""></img>",4,html-button-response,11,274837,0.0-3.0-9.0-0.0,6694,List2B,black,woman,,FALSE,4,,,,,
null,CORRECT,,html-keyboard-response,12,276347,0.0-3.0-9.0-1.0-0.0,6694,List2B,black,woman,,,,null,,,,
8126,"<img src=""portrait/WM2.jpg""style=""height:400px;""></img>",6,html-button-response,13,284476,0.0-3.0-10.0,6694,List2B,black,woman,,TRUE,7,,,,,
11129,"<img src=""portrait/WM2.jpg""style=""height:400px;""></img>",7,html-button-response,14,296610,0.0-3.0-12.0-0.0,6694,List2B,black,woman,,FALSE,7,,,,,
null,CORRECT,,html-keyboard-response,15,298121,0.0-3.0-12.0-1.0-0.0,6694,List2B,black,woman,,,,null,,,,
4183,"<img src=""portrait/WW1.jpg""style=""height:400px;""></img>",0,html-button-response,16,302307,0.0-3.0-13.0,6694,List2B,black,woman,,TRUE,1,,,,,
3124,"<img src=""portrait/WW1.jpg""style=""height:400px;""></img>",1,html-button-response,17,306437,0.0-3.0-15.0-0.0,6694,List2B,black,woman,,FALSE,1,,,,,
null,CORRECT,,html-keyboard-response,18,307943,0.0-3.0-15.0-1.0-0.0,6694,List2B,black,woman,,,,null,,,,
11476,"<img src=""portrait/WW2.jpg""style=""height:400px;""></img>",3,html-button-response,19,319422,0.0-3.0-16.0,6694,List2B,black,woman,,TRUE,3,,,,,
null,CORRECT,,html-keyboard-response,20,320934,0.0-3.0-17.0-0.0,6694,List2B,black,woman,,,,null,,,,
8808,"<img src=""portrait/BM2.jpg""style=""height:400px;""></img>",5,html-button-response,21,329744,0.0-3.0-19.0,6694,List2B,black,woman,,TRUE,5,,,,,
null,CORRECT,,html-keyboard-response,22,331255,0.0-3.0-20.0-0.0,6694,List2B,black,woman,,,,null,,,,
5538,"<img src=""portrait/WM1.jpg""style=""height:400px;""></img>",6,html-button-response,23,336796,0.0-3.0-22.0,6694,List2B,black,woman,,TRUE,6,,,,,
null,CORRECT,,html-keyboard-response,24,338302,0.0-3.0-23.0-0.0,6694,List2B,black,woman,,,,null,,,,
3466,<p>You got 3 out of 8 right first time. Press Continue.</p>,0,html-button-response,25,341770,0.0-3.0-25.0,6694,List2B,black,woman,,,,,,,,
7108,"As you did not score 100%, the memory game will repeat. Press Continue.",0,html-button-response,26,349880,0.0-3.0-26.0-0.0,6694,List2B,black,woman,,,,,,,,
102622,"<img src='img/portrait_matrix_list2.jpg' style='width:900px;height:500px;''></img><p>If you have memorised all the portraits and names and are ready to start, press Continue.</p><p><strong>Please note: Your memory of these faces will be tested 4 times during this experiment.</strong></p>",0,html-button-response,27,453508,0.0-3.1-0.1,6694,List2B,black,woman,,,,,,,,
12427,"<img src=""portrait/BW2.jpg""style=""height:400px;""></img>",2,html-button-response,28,466943,0.0-3.1-1.1,6694,List2B,black,woman,,TRUE,2,,,,,
null,CORRECT,,html-keyboard-response,29,468447,0.0-3.1-2.1-0.1,6694,List2B,black,woman,,,,null,,,,
9902,"<img src=""portrait/BW1.jpg""style=""height:400px;""></img>",0,html-button-response,30,478479,0.0-3.1-4.1,6694,List2B,black,woman,,TRUE,0,,,,,
null,CORRECT,,html-keyboard-response,31,480059,0.0-3.1-5.1-0.1,6694,List2B,black,woman,,,,null,,,,
9772,"<img src=""portrait/BM1.jpg""style=""height:400px;""></img>",4,html-button-response,32,489846,0.0-3.1-7.1,6694,List2B,black,woman,,TRUE,4,,,,,
null,CORRECT,,html-keyboard-response,33,491355,0.0-3.1-8.1-0.1,6694,List2B,black,woman,,,,null,,,,
17443,"<img src=""portrait/WM2.jpg""style=""height:400px;""></img>",7,html-button-response,34,508800,0.0-3.1-10.1,6694,List2B,black,woman,,TRUE,7,,,,,
null,CORRECT,,html-keyboard-response,35,510304,0.0-3.1-11.1-0.1,6694,List2B,black,woman,,,,null,,,,
13187,"<img src=""portrait/WW1.jpg""style=""height:400px;""></img>",1,html-button-response,36,523516,0.0-3.1-13.1,6694,List2B,black,woman,,TRUE,1,,,,,
null,CORRECT,,html-keyboard-response,37,525025,0.0-3.1-14.1-0.1,6694,List2B,black,woman,,,,null,,,,
11550,"<img src=""portrait/WW2.jpg""style=""height:400px;""></img>",3,html-button-response,38,536578,0.0-3.1-16.1,6694,List2B,black,woman,,TRUE,3,,,,,
null,CORRECT,,html-keyboard-response,39,538086,0.0-3.1-17.1-0.1,6694,List2B,black,woman,,,,null,,,,
6913,"<img src=""portrait/BM2.jpg""style=""height:400px;""></img>",5,html-button-response,40,545002,0.0-3.1-19.1,6694,List2B,black,woman,,TRUE,5,,,,,
null,CORRECT,,html-keyboard-response,41,546506,0.0-3.1-20.1-0.1,6694,List2B,black,woman,,,,null,,,,
8141,"<img src=""portrait/WM1.jpg""style=""height:400px;""></img>",6,html-button-response,42,554651,0.0-3.1-22.1,6694,List2B,black,woman,,TRUE,6,,,,,
null,CORRECT,,html-keyboard-response,43,556157,0.0-3.1-23.1-0.1,6694,List2B,black,woman,,,,null,,,,
6179,<p>You got 8 out of 8 right first time. Press Continue.</p>,0,html-button-response,44,562347,0.0-3.1-25.1,6694,List2B,black,woman,,,,,,,,
49785,"<p>In this experiment, you will view photographs of the people from the memory game interacting.</p><p>By using the <strong>exact</strong> phrase given <i>after</i> the photograph appears and recalling the correct names of the people in the photographs, form a sentence describing the interaction. You do not need to capitalise names.</p><p>Type your answer in the space provided. Please complete every sentence before moving onto the next trial.</p><p>You will only have a few seconds to memorise each given photograph and phrase before you can respond, so try your best to focus.</p><p>An example is given below. Press 'Continue' when you are ready.</p><img src='img/speaking_example.jpg' style='width:800px;height:460px;''></img>",0,html-button-response,45,613144,0.0-4.0,6694,List2B,black,woman,,,,,,,,
5168,"<p>Before the experiment starts, you will watch two example trials. Press 'Continue'.</p>",0,html-button-response,46,619315,0.0-5.0,6694,List2B,black,woman,,,,,,,,
null,<img src='img/meet_eg.gif' style='height:400px;''></img>,,html-keyboard-response,47,622453,0.0-6.0,6694,List2B,black,woman,,,,null,,,,
null,<p>is meeting</p>,,html-keyboard-response,48,624455,0.0-7.0,6694,List2B,black,woman,,,,null,,,,
6813,<p><b>Answer:</b> jane is meeting ruth</p>,0,html-button-response,49,631270,0.0-8.0,6694,List2B,black,woman,,,,,,,,
null,<img src='img/look_eg.gif' style='height:400px;''></img>,,html-keyboard-response,50,634281,0.0-9.0,6694,List2B,black,woman,,,,null,,,,
null,<p>are looking at each other</p>,,html-keyboard-response,51,636285,0.0-10.0,6694,List2B,black,woman,,,,null,,,,
3982,<p><b>Answer:</b> fred and mike are looking at each other</p>,0,html-button-response,52,640269,0.0-11.0,6694,List2B,black,woman,,,,,,,,
23609,"<p>Ready to start the experiment?</p><br><p><strong>Remember to describe the picture using a full sentence,</strong></p><p><strong>that combines the names of the people with the <i>exact</i> phrase given.</strong></p><p><strong>To receive full payment you must do this correctly.</strong></p><p><strong> You do not need to capitalise names or use punctuation.</strong></p><br><p>Press 'Continue' to begin.</p>",0,html-button-response,53,664883,0.0-12.0,6694,List2B,black,woman,,,,,,,,
null,"<div style=""font-size:60px;"">+</div>",,html-keyboard-response,54,666395,0.0-13.0-0.0,6694,List2B,black,woman,,,,null,,,,
null,"<img src=""stim_listB/kiss4.gif""style=""height:400px;""></stim_listB>",,html-keyboard-response,55,668404,0.0-13.0-1.0,6694,List2B,black,woman,,,,null,,,,
null,are kissing each other,,html-keyboard-response,56,670409,0.0-13.0-2.0,6694,List2B,black,woman,,,,null,,,,
69338,,,survey-text,57,739797,0.0-13.0-3.0,6694,List2B,black,woman,,,,,"{""Q0"":""kate and mike are kissing each other""}","<img src=""stim_listB/kiss4.gif""style=""height:400px;""></stim_listB>",are kissing each other,
null,"<div style=""font-size:60px;"">+</div>",,html-keyboard-response,58,740301,0.0-13.0-0.1,6694,List2B,black,woman,,,,null,,,,
null,"<img src=""stim_listB/talk8.gif""style=""height:400px;""></stim_listB>",,html-keyboard-response,59,742304,0.0-13.0-1.1,6694,List2B,black,woman,,,,null,,,,
null,are talking to each other,,html-keyboard-response,60,744307,0.0-13.0-2.1,6694,List2B,black,woman,,,,null,,,,
67602,,,survey-text,61,811910,0.0-13.0-3.1,6694,List2B,black,woman,,,,,"{""Q0"":""beth and kate are talking to each other""}","<img src=""stim_listB/talk8.gif""style=""height:400px;""></stim_listB>",are talking to each other,
null,"<div style=""font-size:60px;"">+</div>",,html-keyboard-response,62,812414,0.0-13.0-0.2,6694,List2B,black,woman,,,,null,,,,
null,"<img src=""stim_listB/dance8.gif""style=""height:400px;""></stim_listB>",,html-keyboard-response,63,814417,0.0-13.0-1.2,6694,List2B,black,woman,,,,null,,,,
null,are dancing with each other,,html-keyboard-response,64,816421,0.0-13.0-2.2,6694,List2B,black,woman,,,,null,,,,
32232,,,survey-text,65,848655,0.0-13.0-3.2,6694,List2B,black,woman,,,,,"{""Q0"":""beth and kate are laughing together""}","<img src=""stim_listB/dance8.gif""style=""height:400px;""></stim_listB>",are dancing with each other,
null,"<div style=""font-size:60px;"">+</div>",,html-keyboard-response,66,849161,0.0-13.0-0.3,6694,List2B,black,woman,,,,null,,,,
null,"<img src=""stim_listB/talk1.gif""style=""height:400px;""></stim_listB>",,html-keyboard-response,67,851166,0.0-13.0-1.3,6694,List2B,black,woman,,,,null,,,,
null,is talking to,,html-keyboard-response,68,853169,0.0-13.0-2.3,6694,List2B,black,woman,,,,null,,,,
51557,,,survey-text,69,904728,0.0-13.0-3.3,6694,List2B,black,woman,,,,,"{""Q0"":""ruth and luke are talking""}","<img src=""stim_listB/talk1.gif""style=""height:400px;""></stim_listB>",is talking to,
null,"<div style=""font-size:60px;"">+</div>",,html-keyboard-response,70,905232,0.0-13.0-0.4,6694,List2B,black,woman,,,,null,,,,
null,"<img src=""stim_listB/fight2.gif""style=""height:400px;""></stim_listB>",,html-keyboard-response,71,907236,0.0-13.0-1.4,6694,List2B,black,woman,,,,null,,,,
null,are fighting each other,,html-keyboard-response,72,909238,0.0-13.0-2.4,6694,List2B,black,woman,,,,null,,,,
31099,,,survey-text,73,940340,0.0-13.0-3.4,6694,List2B,black,woman,,,,,"{""Q0"":""luke and ruth are fighting each other""}","<img src=""stim_listB/fight2.gif""style=""height:400px;""></stim_listB>",are fighting each other,
null,"<div style=""font-size:60px;"">+</div>",,html-keyboard-response,74,940845,0.0-13.0-0.5,6694,List2B,black,woman,,,,null,,,,
null,"<img src=""stim_listB/touch2.gif""style=""height:400px;""></stim_listB>",,html-keyboard-response,75,942847,0.0-13.0-1.5,6694,List2B,black,woman,,,,null,,,,
null,are touching each other,,html-keyboard-response,76,944851,0.0-13.0-2.5,6694,List2B,black,woman,,,,null,,,,
28182,,,survey-text,77,973037,0.0-13.0-3.5,6694,List2B,black,woman,,,,,"{""Q0"":""luke and ruth are touching each other""}","<img src=""stim_listB/touch2.gif""style=""height:400px;""></stim_listB>",are touching each other,
null,"<div style=""font-size:60px;"">+</div>",,html-keyboard-response,78,973543,0.0-13.0-0.6,6694,List2B,black,woman,,,,null,,,,
null,"<img src=""stim_listB/argue2.gif""style=""height:400px;""></stim_listB>",,html-keyboard-response,79,975546,0.0-13.0-1.6,6694,List2B,black,woman,,,,null,,,,
null,are arguing with each other,,html-keyboard-response,80,977547,0.0-13.0-2.6,6694,List2B,black,woman,,,,null,,,,
39512,,,survey-text,81,1017061,0.0-13.0-3.6,6694,List2B,black,woman,,,,,"{""Q0"":""luke and jane are arguring with each other""}","<img src=""stim_listB/argue2.gif""style=""height:400px;""></stim_listB>",are arguing with each other,
null,"<div style=""font-size:60px;"">+</div>",,html-keyboard-response,82,1017562,0.0-13.0-0.7,6694,List2B,black,woman,,,,null,,,,
null,"<img src=""stim_listB/marry2.gif""style=""height:400px;""></stim_listB>",,html-keyboard-response,83,1019564,0.0-13.0-1.7,6694,List2B,black,woman,,,,null,,,,
null,are marrying each other,,html-keyboard-response,84,1021565,0.0-13.0-2.7,6694,List2B,black,woman,,,,null,,,,
17733,,,survey-text,85,1039299,0.0-13.0-3.7,6694,List2B,black,woman,,,,,"{""Q0"":""luke and jane are marrying each other""}","<img src=""stim_listB/marry2.gif""style=""height:400px;""></stim_listB>",are marrying each other,
null,"<div style=""font-size:60px;"">+</div>",,html-keyboard-response,86,1039805,0.0-13.0-0.8,6694,List2B,black,woman,,,,null,,,,
null,"<img src=""stim_listB/play6.gif""style=""height:400px;""></stim_listB>",,html-keyboard-response,87,1041807,0.0-13.0-1.8,6694,List2B,black,woman,,,,null,,,,
null,are playing with each other,,html-keyboard-response,88,1043810,0.0-13.0-2.8,6694,List2B,black,woman,,,,null,,,,
22236,,,survey-text,89,1066047,0.0-13.0-3.8,6694,List2B,black,woman,,,,,"{""Q0"":""luke and fred are playing with each other""}","<img src=""stim_listB/play6.gif""style=""height:400px;""></stim_listB>",are playing with each other,
null,"<div style=""font-size:60px;"">+</div>",,html-keyboard-response,90,1066553,0.0-13.0-0.9,6694,List2B,black,woman,,,,null,,,,
null,"<img src=""stim_listB/flirt1.gif""style=""height:400px;""></stim_listB>",,html-keyboard-response,91,1068555,0.0-13.0-1.9,6694,List2B,black,woman,,,,null,,,,
null,is flirting with,,html-keyboard-response,92,1070559,0.0-13.0-2.9,6694,List2B,black,woman,,,,null,,,,
15087,,,survey-text,93,1085647,0.0-13.0-3.9,6694,List2B,black,woman,,,,,"{""Q0"":""luke and jane are flirting""}","<img src=""stim_listB/flirt1.gif""style=""height:400px;""></stim_listB>",is flirting with,
null,"<div style=""font-size:60px;"">+</div>",,html-keyboard-response,94,1086151,0.0-13.0-0.10,6694,List2B,black,woman,,,,null,,,,
null,"<img src=""stim_listB/talk4.gif""style=""height:400px;""></stim_listB>",,html-keyboard-response,95,1088153,0.0-13.0-1.10,6694,List2B,black,woman,,,,null,,,,
null,are talking to each other,,html-keyboard-response,96,1090156,0.0-13.0-2.10,6694,List2B,black,woman,,,,null,,,,
31340,,,survey-text,97,1121497,0.0-13.0-3.10,6694,List2B,black,woman,,,,,"{""Q0"":""beth and mike are talking""}","<img src=""stim_listB/talk4.gif""style=""height:400px;""></stim_listB>",are talking to each other,
null,"<div style=""font-size:60px;"">+</div>",,html-keyboard-response,98,1122001,0.0-13.0-0.11,6694,List2B,black,woman,,,,null,,,,
null,"<img src=""stim_listB/fight6.gif""style=""height:400px;""></stim_listB>",,html-keyboard-response,99,1124003,0.0-13.0-1.11,6694,List2B,black,woman,,,,null,,,,
null,are fighting each other,,html-keyboard-response,100,1126004,0.0-13.0-2.11,6694,List2B,black,woman,,,,null,,,,
20171,,,survey-text,101,1146176,0.0-13.0-3.11,6694,List2B,black,woman,,,,,"{""Q0"":""luke and fred are fighting each other""}","<img src=""stim_listB/fight6.gif""style=""height:400px;""></stim_listB>",are fighting each other,
null,"<div style=""font-size:60px;"">+</div>",,html-keyboard-response,102,1146678,0.0-13.0-0.12,6694,List2B,black,woman,,,,null,,,,
null,"<img src=""stim_listB/shout1.gif""style=""height:400px;""></stim_listB>",,html-keyboard-response,103,1148680,0.0-13.0-1.12,6694,List2B,black,woman,,,,null,,,,
null,is shouting at,,html-keyboard-response,104,1150681,0.0-13.0-2.12,6694,List2B,black,woman,,,,null,,,,
22924,,,survey-text,105,1173607,0.0-13.0-3.12,6694,List2B,black,woman,,,,,"{""Q0"":""luke and ruth are shouting at each other""}","<img src=""stim_listB/shout1.gif""style=""height:400px;""></stim_listB>",is shouting at,
null,"<div style=""font-size:60px;"">+</div>",,html-keyboard-response,106,1174108,0.0-13.0-0.13,6694,List2B,black,woman,,,,null,,,,
null,"<img src=""stim_listB/argue1.gif""style=""height:400px;""></stim_listB>",,html-keyboard-response,107,1176111,0.0-13.0-1.13,6694,List2B,black,woman,,,,null,,,,
null,is arguing with,,html-keyboard-response,108,1178112,0.0-13.0-2.13,6694,List2B,black,woman,,,,null,,,,
74830,,,survey-text,109,1252944,0.0-13.0-3.13,6694,List2B,black,woman,,,,,"{""Q0"":""jane and mike are shouting at each other""}","<img src=""stim_listB/argue1.gif""style=""height:400px;""></stim_listB>",is arguing with,
null,"<div style=""font-size:60px;"">+</div>",,html-keyboard-response,110,1253450,0.0-13.0-0.14,6694,List2B,black,woman,,,,null,,,,
null,"<img src=""stim_listB/touch4.gif""style=""height:400px;""></stim_listB>",,html-keyboard-response,111,1255452,0.0-13.0-1.14,6694,List2B,black,woman,,,,null,,,,
null,are touching each other,,html-keyboard-response,112,1257454,0.0-13.0-2.14,6694,List2B,black,woman,,,,null,,,,
21982,,,survey-text,113,1279437,0.0-13.0-3.14,6694,List2B,black,woman,,,,,"{""Q0"":""fred and beth are touching each other""}","<img src=""stim_listB/touch4.gif""style=""height:400px;""></stim_listB>",are touching each other,
null,"<div style=""font-size:60px;"">+</div>",,html-keyboard-response,114,1279943,0.0-13.0-0.15,6694,List2B,black,woman,,,,null,,,,
null,"<img src=""stim_listB/talk7.gif""style=""height:400px;""></stim_listB>",,html-keyboard-response,115,1281945,0.0-13.0-1.15,6694,List2B,black,woman,,,,null,,,,
null,is talking to,,html-keyboard-response,116,1283948,0.0-13.0-2.15,6694,List2B,black,woman,,,,null,,,,
23638,,,survey-text,117,1307588,0.0-13.0-3.15,6694,List2B,black,woman,,,,,"{""Q0"":""kate and ruth are talking to each other""}","<img src=""stim_listB/talk7.gif""style=""height:400px;""></stim_listB>",is talking to,
null,"<div style=""font-size:60px;"">+</div>",,html-keyboard-response,118,1308092,0.0-13.0-0.16,6694,List2B,black,woman,,,,null,,,,
null,"<img src=""stim_listB/play1.gif""style=""height:400px;""></stim_listB>",,html-keyboard-response,119,1310098,0.0-13.0-1.16,6694,List2B,black,woman,,,,null,,,,
null,is playing with,,html-keyboard-response,120,1312102,0.0-13.0-2.16,6694,List2B,black,woman,,,,null,,,,
27419,,,survey-text,121,1339523,0.0-13.0-3.16,6694,List2B,black,woman,,,,,"{""Q0"":""jane is playing with dave""}","<img src=""stim_listB/play1.gif""style=""height:400px;""></stim_listB>",is playing with,
null,"<div style=""font-size:60px;"">+</div>",,html-keyboard-response,122,1340028,0.0-13.0-0.17,6694,List2B,black,woman,,,,null,,,,
null,"<img src=""stim_listB/dance2.gif""style=""height:400px;""></stim_listB>",,html-keyboard-response,123,1342031,0.0-13.0-1.17,6694,List2B,black,woman,,,,null,,,,
null,are dancing with each other,,html-keyboard-response,124,1344034,0.0-13.0-2.17,6694,List2B,black,woman,,,,null,,,,
40151,,,survey-text,125,1384187,0.0-13.0-3.17,6694,List2B,black,woman,,,,,"{""Q0"":""ruth is dancing with dave""}","<img src=""stim_listB/dance2.gif""style=""height:400px;""></stim_listB>",are dancing with each other,
null,"<div style=""font-size:60px;"">+</div>",,html-keyboard-response,126,1384691,0.0-13.0-0.18,6694,List2B,black,woman,,,,null,,,,
null,"<img src=""stim_listB/dance1.gif""style=""height:400px;""></stim_listB>",,html-keyboard-response,127,1386693,0.0-13.0-1.18,6694,List2B,black,woman,,,,null,,,,
null,is dancing with,,html-keyboard-response,128,1388695,0.0-13.0-2.18,6694,List2B,black,woman,,,,null,,,,
30771,,,survey-text,129,1419467,0.0-13.0-3.18,6694,List2B,black,woman,,,,,"{""Q0"":""luke is dancing with jane""}","<img src=""stim_listB/dance1.gif""style=""height:400px;""></stim_listB>",is dancing with,
null,"<div style=""font-size:60px;"">+</div>",,html-keyboard-response,130,1419971,0.0-13.0-0.19,6694,List2B,black,woman,,,,null,,,,
null,"<img src=""stim_listB/flirt5.gif""style=""height:400px;""></stim_listB>",,html-keyboard-response,131,1421972,0.0-13.0-1.19,6694,List2B,black,woman,,,,null,,,,
null,is flirting with,,html-keyboard-response,132,1423973,0.0-13.0-2.19,6694,List2B,black,woman,,,,null,,,,
21792,,,survey-text,133,1445767,0.0-13.0-3.19,6694,List2B,black,woman,,,,,"{""Q0"":""luke is flirting with mike""}","<img src=""stim_listB/flirt5.gif""style=""height:400px;""></stim_listB>",is flirting with,
9793,"<img src='img/portrait_matrix_list2.jpg' style='width:900px;height:500px;''></img><p>If you have memorised all the portraits and names and are ready to start, press Continue.</p><p><strong>Please note: Your memory of these faces will be tested 4 times during this experiment.</strong></p>",0,html-button-response,134,1455562,0.0-14.0-0.0,6694,List2B,black,woman,,,,,,,,
5718,"<img src=""portrait/BM1.jpg""style=""height:400px;""></img>",4,html-button-response,135,1462284,0.0-14.0-1.0,6694,List2B,black,woman,,TRUE,4,,,,,
null,CORRECT,,html-keyboard-response,136,1463792,0.0-14.0-2.0-0.0,6694,List2B,black,woman,,,,null,,,,
7022,"<img src=""portrait/WW1.jpg""style=""height:400px;""></img>",1,html-button-response,137,1470818,0.0-14.0-4.0,6694,List2B,black,woman,,TRUE,1,,,,,
null,CORRECT,,html-keyboard-response,138,1472325,0.0-14.0-5.0-0.0,6694,List2B,black,woman,,,,null,,,,
5109,"<img src=""portrait/WM1.jpg""style=""height:400px;""></img>",6,html-button-response,139,1477436,0.0-14.0-7.0,6694,List2B,black,woman,,TRUE,6,,,,,
null,CORRECT,,html-keyboard-response,140,1478939,0.0-14.0-8.0-0.0,6694,List2B,black,woman,,,,null,,,,
16282,"<img src=""portrait/WW2.jpg""style=""height:400px;""></img>",3,html-button-response,141,1495223,0.0-14.0-10.0,6694,List2B,black,woman,,TRUE,3,,,,,
null,CORRECT,,html-keyboard-response,142,1496734,0.0-14.0-11.0-0.0,6694,List2B,black,woman,,,,null,,,,
6585,"<img src=""portrait/BW2.jpg""style=""height:400px;""></img>",2,html-button-response,143,1503322,0.0-14.0-13.0,6694,List2B,black,woman,,TRUE,2,,,,,
null,CORRECT,,html-keyboard-response,144,1504832,0.0-14.0-14.0-0.0,6694,List2B,black,woman,,,,null,,,,
5776,"<img src=""portrait/BM2.jpg""style=""height:400px;""></img>",5,html-button-response,145,1510611,0.0-14.0-16.0,6694,List2B,black,woman,,TRUE,5,,,,,
null,CORRECT,,html-keyboard-response,146,1512117,0.0-14.0-17.0-0.0,6694,List2B,black,woman,,,,null,,,,
11302,"<img src=""portrait/WM2.jpg""style=""height:400px;""></img>",7,html-button-response,147,1523421,0.0-14.0-19.0,6694,List2B,black,woman,,TRUE,7,,,,,
null,CORRECT,,html-keyboard-response,148,1524928,0.0-14.0-20.0-0.0,6694,List2B,black,woman,,,,null,,,,
8797,"<img src=""portrait/BW1.jpg""style=""height:400px;""></img>",0,html-button-response,149,1533727,0.0-14.0-22.0,6694,List2B,black,woman,,TRUE,0,,,,,
null,CORRECT,,html-keyboard-response,150,1535236,0.0-14.0-23.0-0.0,6694,List2B,black,woman,,,,null,,,,
2387,<p>You got 8 out of 8 right first time. Press Continue.</p>,0,html-button-response,151,1537626,0.0-14.0-25.0,6694,List2B,black,woman,,,,,,,,
null,"<div style=""font-size:60px;"">+</div>",,html-keyboard-response,152,1539133,0.0-15.0-0.0,6694,List2B,black,woman,,,,null,,,,
null,"<img src=""stim_listB/kiss8.gif""style=""height:400px;""></stim_listB>",,html-keyboard-response,153,1541135,0.0-15.0-1.0,6694,List2B,black,woman,,,,null,,,,
null,are kissing each other,,html-keyboard-response,154,1543137,0.0-15.0-2.0,6694,List2B,black,woman,,,,null,,,,
37398,,,survey-text,155,1580537,0.0-15.0-3.0,6694,List2B,black,woman,,,,,"{""Q0"":""kate and jane are kissing each other""}","<img src=""stim_listB/kiss8.gif""style=""height:400px;""></stim_listB>",are kissing each other,
null,"<div style=""font-size:60px;"">+</div>",,html-keyboard-response,156,1581043,0.0-15.0-0.1,6694,List2B,black,woman,,,,null,,,,
null,"<img src=""stim_listB/fight4.gif""style=""height:400px;""></stim_listB>",,html-keyboard-response,157,1583050,0.0-15.0-1.1,6694,List2B,black,woman,,,,null,,,,
null,are fighting each other,,html-keyboard-response,158,1585051,0.0-15.0-2.1,6694,List2B,black,woman,,,,null,,,,
27495,,,survey-text,159,1612547,0.0-15.0-3.1,6694,List2B,black,woman,,,,,"{""Q0"":""beth and fred are fighing each other""}","<img src=""stim_listB/fight4.gif""style=""height:400px;""></stim_listB>",are fighting each other,
null,"<div style=""font-size:60px;"">+</div>",,html-keyboard-response,160,1613050,0.0-15.0-0.2,6694,List2B,black,woman,,,,null,,,,
null,"<img src=""stim_listB/marry5.gif""style=""height:400px;""></stim_listB>",,html-keyboard-response,161,1615052,0.0-15.0-1.2,6694,List2B,black,woman,,,,null,,,,
null,is marrying,,html-keyboard-response,162,1617053,0.0-15.0-2.2,6694,List2B,black,woman,,,,null,,,,
22181,,,survey-text,163,1639235,0.0-15.0-3.2,6694,List2B,black,woman,,,,,"{""Q0"":""fred is marrying dave""}","<img src=""stim_listB/marry5.gif""style=""height:400px;""></stim_listB>",is marrying,
null,"<div style=""font-size:60px;"">+</div>",,html-keyboard-response,164,1639739,0.0-15.0-0.3,6694,List2B,black,woman,,,,null,,,,
null,"<img src=""stim_listB/touch8.gif""style=""height:400px;""></stim_listB>",,html-keyboard-response,165,1641743,0.0-15.0-1.3,6694,List2B,black,woman,,,,null,,,,
null,are touching each other,,html-keyboard-response,166,1643746,0.0-15.0-2.3,6694,List2B,black,woman,,,,null,,,,
24692,,,survey-text,167,1668440,0.0-15.0-3.3,6694,List2B,black,woman,,,,,"{""Q0"":""beth and ruth are touching ""}","<img src=""stim_listB/touch8.gif""style=""height:400px;""></stim_listB>",are touching each other,
null,"<div style=""font-size:60px;"">+</div>",,html-keyboard-response,168,1668944,0.0-15.0-0.4,6694,List2B,black,woman,,,,null,,,,
null,"<img src=""stim_listB/flirt6.gif""style=""height:400px;""></stim_listB>",,html-keyboard-response,169,1670946,0.0-15.0-1.4,6694,List2B,black,woman,,,,null,,,,
null,are flirting with each other,,html-keyboard-response,170,1672947,0.0-15.0-2.4,6694,List2B,black,woman,,,,null,,,,
23320,,,survey-text,171,1696269,0.0-15.0-3.4,6694,List2B,black,woman,,,,,"{""Q0"":""fred and dave are flirting""}","<img src=""stim_listB/flirt6.gif""style=""height:400px;""></stim_listB>",are flirting with each other,
null,"<div style=""font-size:60px;"">+</div>",,html-keyboard-response,172,1696772,0.0-15.0-0.5,6694,List2B,black,woman,,,,null,,,,
null,"<img src=""stim_listB/flirt2.gif""style=""height:400px;""></stim_listB>",,html-keyboard-response,173,1698775,0.0-15.0-1.5,6694,List2B,black,woman,,,,null,,,,
null,are flirting with each other,,html-keyboard-response,174,1700778,0.0-15.0-2.5,6694,List2B,black,woman,,,,null,,,,
55163,,,survey-text,175,1755943,0.0-15.0-3.5,6694,List2B,black,woman,,,,,"{""Q0"":""ruth and dave are flirting with each other""}","<img src=""stim_listB/flirt2.gif""style=""height:400px;""></stim_listB>",are flirting with each other,
null,"<div style=""font-size:60px;"">+</div>",,html-keyboard-response,176,1756445,0.0-15.0-0.6,6694,List2B,black,woman,,,,null,,,,
null,"<img src=""stim_listB/argue8.gif""style=""height:400px;""></stim_listB>",,html-keyboard-response,177,1758449,0.0-15.0-1.6,6694,List2B,black,woman,,,,null,,,,
null,are arguing with each other,,html-keyboard-response,178,1760450,0.0-15.0-2.6,6694,List2B,black,woman,,,,null,,,,
23347,,,survey-text,179,1783799,0.0-15.0-3.6,6694,List2B,black,woman,,,,,"{""Q0"":""ruth and kate are aruging with each other""}","<img src=""stim_listB/argue8.gif""style=""height:400px;""></stim_listB>",are arguing with each other,
null,"<div style=""font-size:60px;"">+</div>",,html-keyboard-response,180,1784303,0.0-15.0-0.7,6694,List2B,black,woman,,,,null,,,,
null,"<img src=""stim_listB/flirt7.gif""style=""height:400px;""></stim_listB>",,html-keyboard-response,181,1786306,0.0-15.0-1.7,6694,List2B,black,woman,,,,null,,,,
null,is flirting with,,html-keyboard-response,182,1788307,0.0-15.0-2.7,6694,List2B,black,woman,,,,null,,,,
13412,,,survey-text,183,1801720,0.0-15.0-3.7,6694,List2B,black,woman,,,,,"{""Q0"":""kate is flirting with ruth""}","<img src=""stim_listB/flirt7.gif""style=""height:400px;""></stim_listB>",is flirting with,
null,"<div style=""font-size:60px;"">+</div>",,html-keyboard-response,184,1802222,0.0-15.0-0.8,6694,List2B,black,woman,,,,null,,,,
null,"<img src=""stim_listB/fight1.gif""style=""height:400px;""></stim_listB>",,html-keyboard-response,185,1804225,0.0-15.0-1.8,6694,List2B,black,woman,,,,null,,,,
null,is fighting,,html-keyboard-response,186,1806226,0.0-15.0-2.8,6694,List2B,black,woman,,,,null,,,,
16087,,,survey-text,187,1822315,0.0-15.0-3.8,6694,List2B,black,woman,,,,,"{""Q0"":""jane and dave are fighting""}","<img src=""stim_listB/fight1.gif""style=""height:400px;""></stim_listB>",is fighting,
null,"<div style=""font-size:60px;"">+</div>",,html-keyboard-response,188,1822818,0.0-15.0-0.9,6694,List2B,black,woman,,,,null,,,,
null,"<img src=""stim_listB/shout6.gif""style=""height:400px;""></stim_listB>",,html-keyboard-response,189,1824820,0.0-15.0-1.9,6694,List2B,black,woman,,,,null,,,,
null,are shouting at each other,,html-keyboard-response,190,1826823,0.0-15.0-2.9,6694,List2B,black,woman,,,,null,,,,
21585,,,survey-text,191,1848409,0.0-15.0-3.9,6694,List2B,black,woman,,,,,"{""Q0"":""mike and dave are shouting at each other""}","<img src=""stim_listB/shout6.gif""style=""height:400px;""></stim_listB>",are shouting at each other,
null,"<div style=""font-size:60px;"">+</div>",,html-keyboard-response,192,1848911,0.0-15.0-0.10,6694,List2B,black,woman,,,,null,,,,
null,"<img src=""stim_listB/dance5.gif""style=""height:400px;""></stim_listB>",,html-keyboard-response,193,1850914,0.0-15.0-1.10,6694,List2B,black,woman,,,,null,,,,
null,is dancing with,,html-keyboard-response,194,1852915,0.0-15.0-2.10,6694,List2B,black,woman,,,,null,,,,
9169,,,survey-text,195,1862085,0.0-15.0-3.10,6694,List2B,black,woman,,,,,"{""Q0"":""luke is dancing with mike""}","<img src=""stim_listB/dance5.gif""style=""height:400px;""></stim_listB>",is dancing with,
null,"<div style=""font-size:60px;"">+</div>",,html-keyboard-response,196,1862591,0.0-15.0-0.11,6694,List2B,black,woman,,,,null,,,,
null,"<img src=""stim_listB/dance4.gif""style=""height:400px;""></stim_listB>",,html-keyboard-response,197,1864595,0.0-15.0-1.11,6694,List2B,black,woman,,,,null,,,,
null,are dancing with each other,,html-keyboard-response,198,1866596,0.0-15.0-2.11,6694,List2B,black,woman,,,,null,,,,
20072,,,survey-text,199,1886670,0.0-15.0-3.11,6694,List2B,black,woman,,,,,"{""Q0"":""mike and beth are dancing with each other""}","<img src=""stim_listB/dance4.gif""style=""height:400px;""></stim_listB>",are dancing with each other,
null,"<div style=""font-size:60px;"">+</div>",,html-keyboard-response,200,1887172,0.0-15.0-0.12,6694,List2B,black,woman,,,,null,,,,
null,"<img src=""stim_listB/kiss5.gif""style=""height:400px;""></stim_listB>",,html-keyboard-response,201,1889175,0.0-15.0-1.12,6694,List2B,black,woman,,,,null,,,,
null,is kissing,,html-keyboard-response,202,1891176,0.0-15.0-2.12,6694,List2B,black,woman,,,,null,,,,
15222,,,survey-text,203,1906400,0.0-15.0-3.12,6694,List2B,black,woman,,,,,"{""Q0"":""fred is kissing luke""}","<img src=""stim_listB/kiss5.gif""style=""height:400px;""></stim_listB>",is kissing,
null,"<div style=""font-size:60px;"">+</div>",,html-keyboard-response,204,1906906,0.0-15.0-0.13,6694,List2B,black,woman,,,,null,,,,
null,"<img src=""stim_listB/shout2.gif""style=""height:400px;""></stim_listB>",,html-keyboard-response,205,1908909,0.0-15.0-1.13,6694,List2B,black,woman,,,,null,,,,
null,are shouting at each other,,html-keyboard-response,206,1910910,0.0-15.0-2.13,6694,List2B,black,woman,,,,null,,,,
29921,,,survey-text,207,1940832,0.0-15.0-3.13,6694,List2B,black,woman,,,,,"{""Q0"":""jane and dave are shouting at each other""}","<img src=""stim_listB/shout2.gif""style=""height:400px;""></stim_listB>",are shouting at each other,
null,"<div style=""font-size:60px;"">+</div>",,html-keyboard-response,208,1941333,0.0-15.0-0.14,6694,List2B,black,woman,,,,null,,,,
null,"<img src=""stim_listB/touch6.gif""style=""height:400px;""></stim_listB>",,html-keyboard-response,209,1943336,0.0-15.0-1.14,6694,List2B,black,woman,,,,null,,,,
null,are touching each other,,html-keyboard-response,210,1945337,0.0-15.0-2.14,6694,List2B,black,woman,,,,null,,,,
18463,,,survey-text,211,1963802,0.0-15.0-3.14,6694,List2B,black,woman,,,,,"{""Q0"":""fred and luke are touching each other""}","<img src=""stim_listB/touch6.gif""style=""height:400px;""></stim_listB>",are touching each other,
null,"<div style=""font-size:60px;"">+</div>",,html-keyboard-response,212,1964308,0.0-15.0-0.15,6694,List2B,black,woman,,,,null,,,,
null,"<img src=""stim_listB/dance3.gif""style=""height:400px;""></stim_listB>",,html-keyboard-response,213,1966315,0.0-15.0-1.15,6694,List2B,black,woman,,,,null,,,,
null,is dancing with,,html-keyboard-response,214,1968316,0.0-15.0-2.15,6694,List2B,black,woman,,,,null,,,,
28848,,,survey-text,215,1997165,0.0-15.0-3.15,6694,List2B,black,woman,,,,,"{""Q0"":""fred is dancing with kate""}","<img src=""stim_listB/dance3.gif""style=""height:400px;""></stim_listB>",is dancing with,
null,"<div style=""font-size:60px;"">+</div>",,html-keyboard-response,216,1997669,0.0-15.0-0.16,6694,List2B,black,woman,,,,null,,,,
null,"<img src=""stim_listB/shout5.gif""style=""height:400px;""></stim_listB>",,html-keyboard-response,217,1999673,0.0-15.0-1.16,6694,List2B,black,woman,,,,null,,,,
null,is shouting at,,html-keyboard-response,218,2001676,0.0-15.0-2.16,6694,List2B,black,woman,,,,null,,,,
5629,,,survey-text,219,2007307,0.0-15.0-3.16,6694,List2B,black,woman,,,,,"{""Q0"":""""}","<img src=""stim_listB/shout5.gif""style=""height:400px;""></stim_listB>",is shouting at,
null,"<div style=""font-size:60px;"">+</div>",,html-keyboard-response,220,2007811,0.0-15.0-0.17,6694,List2B,black,woman,,,,null,,,,
null,"<img src=""stim_listB/kiss2.gif""style=""height:400px;""></stim_listB>",,html-keyboard-response,221,2009813,0.0-15.0-1.17,6694,List2B,black,woman,,,,null,,,,
null,are kissing each other,,html-keyboard-response,222,2011815,0.0-15.0-2.17,6694,List2B,black,woman,,,,null,,,,
23430,,,survey-text,223,2035247,0.0-15.0-3.17,6694,List2B,black,woman,,,,,"{""Q0"":""jane and dave are kissing each other""}","<img src=""stim_listB/kiss2.gif""style=""height:400px;""></stim_listB>",are kissing each other,
null,"<div style=""font-size:60px;"">+</div>",,html-keyboard-response,224,2035752,0.0-15.0-0.18,6694,List2B,black,woman,,,,null,,,,
null,"<img src=""stim_listB/argue5.gif""style=""height:400px;""></stim_listB>",,html-keyboard-response,225,2037757,0.0-15.0-1.18,6694,List2B,black,woman,,,,null,,,,
null,is arguing with,,html-keyboard-response,226,2039760,0.0-15.0-2.18,6694,List2B,black,woman,,,,null,,,,
13051,,,survey-text,227,2052813,0.0-15.0-3.18,6694,List2B,black,woman,,,,,"{""Q0"":""fred is aurging with dave""}","<img src=""stim_listB/argue5.gif""style=""height:400px;""></stim_listB>",is arguing with,
null,"<div style=""font-size:60px;"">+</div>",,html-keyboard-response,228,2053315,0.0-15.0-0.19,6694,List2B,black,woman,,,,null,,,,
null,"<img src=""stim_listB/fight7.gif""style=""height:400px;""></stim_listB>",,html-keyboard-response,229,2055317,0.0-15.0-1.19,6694,List2B,black,woman,,,,null,,,,
null,is fighting,,html-keyboard-response,230,2057319,0.0-15.0-2.19,6694,List2B,black,woman,,,,null,,,,
21837,,,survey-text,231,2079158,0.0-15.0-3.19,6694,List2B,black,woman,,,,,"{""Q0"":""kate is fighting with jane""}","<img src=""stim_listB/fight7.gif""style=""height:400px;""></stim_listB>",is fighting,
17600,"<img src='img/portrait_matrix_list2.jpg' style='width:900px;height:500px;''></img><p>If you have memorised all the portraits and names and are ready to start, press Continue.</p><p><strong>Please note: Your memory of these faces will be tested 4 times during this experiment.</strong></p>",0,html-button-response,232,2096760,0.0-16.0-0.0,6694,List2B,black,woman,,,,,,,,
13482,"<img src=""portrait/WM2.jpg""style=""height:400px;""></img>",7,html-button-response,233,2111245,0.0-16.0-1.0,6694,List2B,black,woman,,TRUE,7,,,,,
null,CORRECT,,html-keyboard-response,234,2112754,0.0-16.0-2.0-0.0,6694,List2B,black,woman,,,,null,,,,
4861,"<img src=""portrait/BM2.jpg""style=""height:400px;""></img>",6,html-button-response,235,2117618,0.0-16.0-4.0,6694,List2B,black,woman,,TRUE,5,,,,,
5551,"<img src=""portrait/BM2.jpg""style=""height:400px;""></img>",5,html-button-response,236,2124177,0.0-16.0-6.0-0.0,6694,List2B,black,woman,,FALSE,5,,,,,
null,CORRECT,,html-keyboard-response,237,2125688,0.0-16.0-6.0-1.0-0.0,6694,List2B,black,woman,,,,null,,,,
8945,"<img src=""portrait/WW1.jpg""style=""height:400px;""></img>",1,html-button-response,238,2134635,0.0-16.0-7.0,6694,List2B,black,woman,,TRUE,1,,,,,
null,CORRECT,,html-keyboard-response,239,2136139,0.0-16.0-8.0-0.0,6694,List2B,black,woman,,,,null,,,,
2583,"<img src=""portrait/BM1.jpg""style=""height:400px;""></img>",4,html-button-response,240,2138725,0.0-16.0-10.0,6694,List2B,black,woman,,TRUE,4,,,,,
null,CORRECT,,html-keyboard-response,241,2140230,0.0-16.0-11.0-0.0,6694,List2B,black,woman,,,,null,,,,
13379,"<img src=""portrait/WW2.jpg""style=""height:400px;""></img>",3,html-button-response,242,2153611,0.0-16.0-13.0,6694,List2B,black,woman,,TRUE,3,,,,,
null,CORRECT,,html-keyboard-response,243,2155115,0.0-16.0-14.0-0.0,6694,List2B,black,woman,,,,null,,,,
6684,"<img src=""portrait/BW2.jpg""style=""height:400px;""></img>",2,html-button-response,244,2161801,0.0-16.0-16.0,6694,List2B,black,woman,,TRUE,2,,,,,
null,CORRECT,,html-keyboard-response,245,2163309,0.0-16.0-17.0-0.0,6694,List2B,black,woman,,,,null,,,,
2968,"<img src=""portrait/WM1.jpg""style=""height:400px;""></img>",6,html-button-response,246,2166279,0.0-16.0-19.0,6694,List2B,black,woman,,TRUE,6,,,,,
null,CORRECT,,html-keyboard-response,247,2167790,0.0-16.0-20.0-0.0,6694,List2B,black,woman,,,,null,,,,
6955,"<img src=""portrait/BW1.jpg""style=""height:400px;""></img>",0,html-button-response,248,2174748,0.0-16.0-22.0,6694,List2B,black,woman,,TRUE,0,,,,,
null,CORRECT,,html-keyboard-response,249,2176259,0.0-16.0-23.0-0.0,6694,List2B,black,woman,,,,null,,,,
3133,<p>You got 7 out of 8 right first time. Press Continue.</p>,0,html-button-response,250,2179394,0.0-16.0-25.0,6694,List2B,black,woman,,,,,,,,
6686,"As you did not score 100%, the memory game will repeat. Press Continue.",0,html-button-response,251,2187085,0.0-16.0-26.0-0.0,6694,List2B,black,woman,,,,,,,,
8409,"<img src='img/portrait_matrix_list2.jpg' style='width:900px;height:500px;''></img><p>If you have memorised all the portraits and names and are ready to start, press Continue.</p><p><strong>Please note: Your memory of these faces will be tested 4 times during this experiment.</strong></p>",0,html-button-response,252,2196500,0.0-16.1-0.1,6694,List2B,black,woman,,,,,,,,
13938,"<img src=""portrait/WM2.jpg""style=""height:400px;""></img>",7,html-button-response,253,2211445,0.0-16.1-1.1,6694,List2B,black,woman,,TRUE,7,,,,,
null,CORRECT,,html-keyboard-response,254,2212956,0.0-16.1-2.1-0.1,6694,List2B,black,woman,,,,null,,,,
6080,"<img src=""portrait/BM2.jpg""style=""height:400px;""></img>",5,html-button-response,255,2219039,0.0-16.1-4.1,6694,List2B,black,woman,,TRUE,5,,,,,
null,CORRECT,,html-keyboard-response,256,2220543,0.0-16.1-5.1-0.1,6694,List2B,black,woman,,,,null,,,,
9794,"<img src=""portrait/WW1.jpg""style=""height:400px;""></img>",1,html-button-response,257,2230339,0.0-16.1-7.1,6694,List2B,black,woman,,TRUE,1,,,,,
null,CORRECT,,html-keyboard-response,258,2231845,0.0-16.1-8.1-0.1,6694,List2B,black,woman,,,,null,,,,
2130,"<img src=""portrait/BM1.jpg""style=""height:400px;""></img>",4,html-button-response,259,2233977,0.0-16.1-10.1,6694,List2B,black,woman,,TRUE,4,,,,,
null,CORRECT,,html-keyboard-response,260,2235485,0.0-16.1-11.1-0.1,6694,List2B,black,woman,,,,null,,,,
7125,"<img src=""portrait/WW2.jpg""style=""height:400px;""></img>",3,html-button-response,261,2242613,0.0-16.1-13.1,6694,List2B,black,woman,,TRUE,3,,,,,
null,CORRECT,,html-keyboard-response,262,2244122,0.0-16.1-14.1-0.1,6694,List2B,black,woman,,,,null,,,,
4547,"<img src=""portrait/BW2.jpg""style=""height:400px;""></img>",2,html-button-response,263,2248671,0.0-16.1-16.1,6694,List2B,black,woman,,TRUE,2,,,,,
null,CORRECT,,html-keyboard-response,264,2250182,0.0-16.1-17.1-0.1,6694,List2B,black,woman,,,,null,,,,
2702,"<img src=""portrait/WM1.jpg""style=""height:400px;""></img>",6,html-button-response,265,2252888,0.0-16.1-19.1,6694,List2B,black,woman,,TRUE,6,,,,,
null,CORRECT,,html-keyboard-response,266,2254397,0.0-16.1-20.1-0.1,6694,List2B,black,woman,,,,null,,,,
2798,"<img src=""portrait/BW1.jpg""style=""height:400px;""></img>",0,html-button-response,267,2257197,0.0-16.1-22.1,6694,List2B,black,woman,,TRUE,0,,,,,
null,CORRECT,,html-keyboard-response,268,2258704,0.0-16.1-23.1-0.1,6694,List2B,black,woman,,,,null,,,,
2600,<p>You got 8 out of 8 right first time. Press Continue.</p>,0,html-button-response,269,2261306,0.0-16.1-25.1,6694,List2B,black,woman,,,,,,,,
null,"<div style=""font-size:60px;"">+</div>",,html-keyboard-response,270,2262814,0.0-17.0-0.0,6694,List2B,black,woman,,,,null,,,,
null,"<img src=""stim_listB/kiss6.gif""style=""height:400px;""></stim_listB>",,html-keyboard-response,271,2264817,0.0-17.0-1.0,6694,List2B,black,woman,,,,null,,,,
null,are kissing each other,,html-keyboard-response,272,2266819,0.0-17.0-2.0,6694,List2B,black,woman,,,,null,,,,
19655,,,survey-text,273,2286476,0.0-17.0-3.0,6694,List2B,black,woman,,,,,"{""Q0"":""mike and dave are kissing each other""}","<img src=""stim_listB/kiss6.gif""style=""height:400px;""></stim_listB>",are kissing each other,
null,"<div style=""font-size:60px;"">+</div>",,html-keyboard-response,274,2286979,0.0-17.0-0.1,6694,List2B,black,woman,,,,null,,,,
null,"<img src=""stim_listB/play4.gif""style=""height:400px;""></stim_listB>",,html-keyboard-response,275,2288982,0.0-17.0-1.1,6694,List2B,black,woman,,,,null,,,,
null,are playing with each other,,html-keyboard-response,276,2290984,0.0-17.0-2.1,6694,List2B,black,woman,,,,null,,,,
22321,,,survey-text,277,2313307,0.0-17.0-3.1,6694,List2B,black,woman,,,,,"{""Q0"":""fred and beth are playing with each other""}","<img src=""stim_listB/play4.gif""style=""height:400px;""></stim_listB>",are playing with each other,
null,"<div style=""font-size:60px;"">+</div>",,html-keyboard-response,278,2313809,0.0-17.0-0.2,6694,List2B,black,woman,,,,null,,,,
null,"<img src=""stim_listB/marry1.gif""style=""height:400px;""></stim_listB>",,html-keyboard-response,279,2315811,0.0-17.0-1.2,6694,List2B,black,woman,,,,null,,,,
null,is marrying,,html-keyboard-response,280,2317814,0.0-17.0-2.2,6694,List2B,black,woman,,,,null,,,,
21173,,,survey-text,281,2338988,0.0-17.0-3.2,6694,List2B,black,woman,,,,,"{""Q0"":""dave is marrying ruth""}","<img src=""stim_listB/marry1.gif""style=""height:400px;""></stim_listB>",is marrying,
null,"<div style=""font-size:60px;"">+</div>",,html-keyboard-response,282,2339492,0.0-17.0-0.3,6694,List2B,black,woman,,,,null,,,,
null,"<img src=""stim_listB/talk6.gif""style=""height:400px;""></stim_listB>",,html-keyboard-response,283,2341494,0.0-17.0-1.3,6694,List2B,black,woman,,,,null,,,,
null,are talking to each other,,html-keyboard-response,284,2343495,0.0-17.0-2.3,6694,List2B,black,woman,,,,null,,,,
14390,,,survey-text,285,2357886,0.0-17.0-3.3,6694,List2B,black,woman,,,,,"{""Q0"":""fred and dave are talking to each other""}","<img src=""stim_listB/talk6.gif""style=""height:400px;""></stim_listB>",are talking to each other,
null,"<div style=""font-size:60px;"">+</div>",,html-keyboard-response,286,2358390,0.0-17.0-0.4,6694,List2B,black,woman,,,,null,,,,
null,"<img src=""stim_listB/argue3.gif""style=""height:400px;""></stim_listB>",,html-keyboard-response,287,2360394,0.0-17.0-1.4,6694,List2B,black,woman,,,,null,,,,
null,is arguing with,,html-keyboard-response,288,2362396,0.0-17.0-2.4,6694,List2B,black,woman,,,,null,,,,
21241,,,survey-text,289,2383638,0.0-17.0-3.4,6694,List2B,black,woman,,,,,"{""Q0"":""mike is aruging with beth""}","<img src=""stim_listB/argue3.gif""style=""height:400px;""></stim_listB>",is arguing with,
null,"<div style=""font-size:60px;"">+</div>",,html-keyboard-response,290,2384141,0.0-17.0-0.5,6694,List2B,black,woman,,,,null,,,,
null,"<img src=""stim_listB/shout3.gif""style=""height:400px;""></stim_listB>",,html-keyboard-response,291,2386143,0.0-17.0-1.5,6694,List2B,black,woman,,,,null,,,,
null,is shouting at,,html-keyboard-response,292,2388145,0.0-17.0-2.5,6694,List2B,black,woman,,,,null,,,,
14216,,,survey-text,293,2402361,0.0-17.0-3.5,6694,List2B,black,woman,,,,,"{""Q0"":""fred is shouting at beth""}","<img src=""stim_listB/shout3.gif""style=""height:400px;""></stim_listB>",is shouting at,
null,"<div style=""font-size:60px;"">+</div>",,html-keyboard-response,294,2402866,0.0-17.0-0.6,6694,List2B,black,woman,,,,null,,,,
null,"<img src=""stim_listB/marry7.gif""style=""height:400px;""></stim_listB>",,html-keyboard-response,295,2404869,0.0-17.0-1.6,6694,List2B,black,woman,,,,null,,,,
null,is marrying,,html-keyboard-response,296,2406871,0.0-17.0-2.6,6694,List2B,black,woman,,,,null,,,,
24480,,,survey-text,297,2431353,0.0-17.0-3.6,6694,List2B,black,woman,,,,,"{""Q0"":""beth is marrying jane""}","<img src=""stim_listB/marry7.gif""style=""height:400px;""></stim_listB>",is marrying,
null,"<div style=""font-size:60px;"">+</div>",,html-keyboard-response,298,2431855,0.0-17.0-0.7,6694,List2B,black,woman,,,,null,,,,
null,"<img src=""stim_listB/fight8.gif""style=""height:400px;""></stim_listB>",,html-keyboard-response,299,2433857,0.0-17.0-1.7,6694,List2B,black,woman,,,,null,,,,
null,are fighting each other,,html-keyboard-response,300,2435860,0.0-17.0-2.7,6694,List2B,black,woman,,,,null,,,,
22990,,,survey-text,301,2458853,0.0-17.0-3.7,6694,List2B,black,woman,,,,,"{""Q0"":""beth and ruth are fighting each other""}","<img src=""stim_listB/fight8.gif""style=""height:400px;""></stim_listB>",are fighting each other,
null,"<div style=""font-size:60px;"">+</div>",,html-keyboard-response,302,2459358,0.0-17.0-0.8,6694,List2B,black,woman,,,,null,,,,
null,"<img src=""stim_listB/touch7.gif""style=""height:400px;""></stim_listB>",,html-keyboard-response,303,2461360,0.0-17.0-1.8,6694,List2B,black,woman,,,,null,,,,
null,is touching,,html-keyboard-response,304,2463361,0.0-17.0-2.8,6694,List2B,black,woman,,,,null,,,,
23088,,,survey-text,305,2486452,0.0-17.0-3.8,6694,List2B,black,woman,,,,,"{""Q0"":""kate is touching jane""}","<img src=""stim_listB/touch7.gif""style=""height:400px;""></stim_listB>",is touching,
null,"<div style=""font-size:60px;"">+</div>",,html-keyboard-response,306,2486958,0.0-17.0-0.9,6694,List2B,black,woman,,,,null,,,,
null,"<img src=""stim_listB/argue6.gif""style=""height:400px;""></stim_listB>",,html-keyboard-response,307,2488962,0.0-17.0-1.9,6694,List2B,black,woman,,,,null,,,,
null,are arguing with each other,,html-keyboard-response,308,2490964,0.0-17.0-2.9,6694,List2B,black,woman,,,,null,,,,
16375,,,survey-text,309,2507341,0.0-17.0-3.9,6694,List2B,black,woman,,,,,"{""Q0"":""luke and mike are aruging with each other""}","<img src=""stim_listB/argue6.gif""style=""height:400px;""></stim_listB>",are arguing with each other,
null,"<div style=""font-size:60px;"">+</div>",,html-keyboard-response,310,2507845,0.0-17.0-0.10,6694,List2B,black,woman,,,,null,,,,
null,"<img src=""stim_listB/argue7.gif""style=""height:400px;""></stim_listB>",,html-keyboard-response,311,2509850,0.0-17.0-1.10,6694,List2B,black,woman,,,,null,,,,
null,is arguing with,,html-keyboard-response,312,2511851,0.0-17.0-2.10,6694,List2B,black,woman,,,,null,,,,
18987,,,survey-text,313,2530840,0.0-17.0-3.10,6694,List2B,black,woman,,,,,"{""Q0"":""beth is aruguing with jane""}","<img src=""stim_listB/argue7.gif""style=""height:400px;""></stim_listB>",is arguing with,
null,"<div style=""font-size:60px;"">+</div>",,html-keyboard-response,314,2531342,0.0-17.0-0.11,6694,List2B,black,woman,,,,null,,,,
null,"<img src=""stim_listB/touch5.gif""style=""height:400px;""></stim_listB>",,html-keyboard-response,315,2533344,0.0-17.0-1.11,6694,List2B,black,woman,,,,null,,,,
null,is touching,,html-keyboard-response,316,2535347,0.0-17.0-2.11,6694,List2B,black,woman,,,,null,,,,
16278,,,survey-text,317,2551626,0.0-17.0-3.11,6694,List2B,black,woman,,,,,"{""Q0"":""mike is touching dave""}","<img src=""stim_listB/touch5.gif""style=""height:400px;""></stim_listB>",is touching,
null,"<div style=""font-size:60px;"">+</div>",,html-keyboard-response,318,2552129,0.0-17.0-0.12,6694,List2B,black,woman,,,,null,,,,
null,"<img src=""stim_listB/marry3.gif""style=""height:400px;""></stim_listB>",,html-keyboard-response,319,2554133,0.0-17.0-1.12,6694,List2B,black,woman,,,,null,,,,
null,is marrying,,html-keyboard-response,320,2556136,0.0-17.0-2.12,6694,List2B,black,woman,,,,null,,,,
8538,,,survey-text,321,2564674,0.0-17.0-3.12,6694,List2B,black,woman,,,,,"{""Q0"":""mike is marrying beth""}","<img src=""stim_listB/marry3.gif""style=""height:400px;""></stim_listB>",is marrying,
null,"<div style=""font-size:60px;"">+</div>",,html-keyboard-response,322,2565177,0.0-17.0-0.13,6694,List2B,black,woman,,,,null,,,,
null,"<img src=""stim_listB/play2.gif""style=""height:400px;""></stim_listB>",,html-keyboard-response,323,2567182,0.0-17.0-1.13,6694,List2B,black,woman,,,,null,,,,
null,are playing with each other,,html-keyboard-response,324,2569185,0.0-17.0-2.13,6694,List2B,black,woman,,,,null,,,,
25775,,,survey-text,325,2594961,0.0-17.0-3.13,6694,List2B,black,woman,,,,,"{""Q0"":""luke and ruth are playing with each other""}","<img src=""stim_listB/play2.gif""style=""height:400px;""></stim_listB>",are playing with each other,
null,"<div style=""font-size:60px;"">+</div>",,html-keyboard-response,326,2595496,0.0-17.0-0.14,6694,List2B,black,woman,,,,null,,,,
null,"<img src=""stim_listB/dance7.gif""style=""height:400px;""></stim_listB>",,html-keyboard-response,327,2597499,0.0-17.0-1.14,6694,List2B,black,woman,,,,null,,,,
null,is dancing with,,html-keyboard-response,328,2599500,0.0-17.0-2.14,6694,List2B,black,woman,,,,null,,,,
19425,,,survey-text,329,2618927,0.0-17.0-3.14,6694,List2B,black,woman,,,,,"{""Q0"":""kate is dancing with ruth""}","<img src=""stim_listB/dance7.gif""style=""height:400px;""></stim_listB>",is dancing with,
null,"<div style=""font-size:60px;"">+</div>",,html-keyboard-response,330,2619434,0.0-17.0-0.15,6694,List2B,black,woman,,,,null,,,,
null,"<img src=""stim_listB/kiss1.gif""style=""height:400px;""></stim_listB>",,html-keyboard-response,331,2621441,0.0-17.0-1.15,6694,List2B,black,woman,,,,null,,,,
null,is kissing,,html-keyboard-response,332,2623445,0.0-17.0-2.15,6694,List2B,black,woman,,,,null,,,,
10462,,,survey-text,333,2633909,0.0-17.0-3.15,6694,List2B,black,woman,,,,,"{""Q0"":""luke is kissing ruth""}","<img src=""stim_listB/kiss1.gif""style=""height:400px;""></stim_listB>",is kissing,
null,"<div style=""font-size:60px;"">+</div>",,html-keyboard-response,334,2634410,0.0-17.0-0.16,6694,List2B,black,woman,,,,null,,,,
null,"<img src=""stim_listB/play3.gif""style=""height:400px;""></stim_listB>",,html-keyboard-response,335,2636413,0.0-17.0-1.16,6694,List2B,black,woman,,,,null,,,,
null,is playing with,,html-keyboard-response,336,2638415,0.0-17.0-2.16,6694,List2B,black,woman,,,,null,,,,
30438,,,survey-text,337,2668855,0.0-17.0-3.16,6694,List2B,black,woman,,,,,"{""Q0"":""mike is playing with beth""}","<img src=""stim_listB/play3.gif""style=""height:400px;""></stim_listB>",is playing with,
null,"<div style=""font-size:60px;"">+</div>",,html-keyboard-response,338,2669359,0.0-17.0-0.17,6694,List2B,black,woman,,,,null,,,,
null,"<img src=""stim_listB/dance6.gif""style=""height:400px;""></stim_listB>",,html-keyboard-response,339,2671361,0.0-17.0-1.17,6694,List2B,black,woman,,,,null,,,,
null,are dancing with each other,,html-keyboard-response,340,2673365,0.0-17.0-2.17,6694,List2B,black,woman,,,,null,,,,
32206,,,survey-text,341,2705573,0.0-17.0-3.17,6694,List2B,black,woman,,,,,"{""Q0"":""fred and dave are dancing with each other""}","<img src=""stim_listB/dance6.gif""style=""height:400px;""></stim_listB>",are dancing with each other,
null,"<div style=""font-size:60px;"">+</div>",,html-keyboard-response,342,2706075,0.0-17.0-0.18,6694,List2B,black,woman,,,,null,,,,
null,"<img src=""stim_listB/talk2.gif""style=""height:400px;""></stim_listB>",,html-keyboard-response,343,2708077,0.0-17.0-1.18,6694,List2B,black,woman,,,,null,,,,
null,are talking to each other,,html-keyboard-response,344,2710079,0.0-17.0-2.18,6694,List2B,black,woman,,,,null,,,,
24255,,,survey-text,345,2734336,0.0-17.0-3.18,6694,List2B,black,woman,,,,,"{""Q0"":""dave and ruth are talking to each other""}","<img src=""stim_listB/talk2.gif""style=""height:400px;""></stim_listB>",are talking to each other,
null,"<div style=""font-size:60px;"">+</div>",,html-keyboard-response,346,2734838,0.0-17.0-0.19,6694,List2B,black,woman,,,,null,,,,
null,"<img src=""stim_listB/touch3.gif""style=""height:400px;""></stim_listB>",,html-keyboard-response,347,2736841,0.0-17.0-1.19,6694,List2B,black,woman,,,,null,,,,
null,is touching,,html-keyboard-response,348,2738842,0.0-17.0-2.19,6694,List2B,black,woman,,,,null,,,,
14779,,,survey-text,349,2753622,0.0-17.0-3.19,6694,List2B,black,woman,,,,,"{""Q0"":""mike is touching kate""}","<img src=""stim_listB/touch3.gif""style=""height:400px;""></stim_listB>",is touching,
15470,"<img src='img/portrait_matrix_list2.jpg' style='width:900px;height:500px;''></img><p>If you have memorised all the portraits and names and are ready to start, press Continue.</p><p><strong>Please note: Your memory of these faces will be tested 4 times during this experiment.</strong></p>",0,html-button-response,350,2769099,0.0-18.0-0.0,6694,List2B,black,woman,,,,,,,,
10354,"<img src=""portrait/WW1.jpg""style=""height:400px;""></img>",1,html-button-response,351,2780458,0.0-18.0-1.0,6694,List2B,black,woman,,TRUE,1,,,,,
null,CORRECT,,html-keyboard-response,352,2781967,0.0-18.0-2.0-0.0,6694,List2B,black,woman,,,,null,,,,
7413,"<img src=""portrait/WM1.jpg""style=""height:400px;""></img>",6,html-button-response,353,2789382,0.0-18.0-4.0,6694,List2B,black,woman,,TRUE,6,,,,,
null,CORRECT,,html-keyboard-response,354,2790890,0.0-18.0-5.0-0.0,6694,List2B,black,woman,,,,null,,,,
8946,"<img src=""portrait/BW1.jpg""style=""height:400px;""></img>",0,html-button-response,355,2799838,0.0-18.0-7.0,6694,List2B,black,woman,,TRUE,0,,,,,
null,CORRECT,,html-keyboard-response,356,2801348,0.0-18.0-8.0-0.0,6694,List2B,black,woman,,,,null,,,,
17324,"<img src=""portrait/WW2.jpg""style=""height:400px;""></img>",3,html-button-response,357,2818674,0.0-18.0-10.0,6694,List2B,black,woman,,TRUE,3,,,,,
null,CORRECT,,html-keyboard-response,358,2820179,0.0-18.0-11.0-0.0,6694,List2B,black,woman,,,,null,,,,
3947,"<img src=""portrait/BW2.jpg""style=""height:400px;""></img>",2,html-button-response,359,2824128,0.0-18.0-13.0,6694,List2B,black,woman,,TRUE,2,,,,,
null,CORRECT,,html-keyboard-response,360,2825636,0.0-18.0-14.0-0.0,6694,List2B,black,woman,,,,null,,,,
2368,"<img src=""portrait/BM1.jpg""style=""height:400px;""></img>",4,html-button-response,361,2828008,0.0-18.0-16.0,6694,List2B,black,woman,,TRUE,4,,,,,
null,CORRECT,,html-keyboard-response,362,2829518,0.0-18.0-17.0-0.0,6694,List2B,black,woman,,,,null,,,,
2294,"<img src=""portrait/BM2.jpg""style=""height:400px;""></img>",5,html-button-response,363,2831815,0.0-18.0-19.0,6694,List2B,black,woman,,TRUE,5,,,,,
null,CORRECT,,html-keyboard-response,364,2833327,0.0-18.0-20.0-0.0,6694,List2B,black,woman,,,,null,,,,
3474,"<img src=""portrait/WM2.jpg""style=""height:400px;""></img>",7,html-button-response,365,2836804,0.0-18.0-22.0,6694,List2B,black,woman,,TRUE,7,,,,,
null,CORRECT,,html-keyboard-response,366,2838312,0.0-18.0-23.0-0.0,6694,List2B,black,woman,,,,null,,,,
1601,<p>You got 8 out of 8 right first time. Press Continue.</p>,0,html-button-response,367,2839915,0.0-18.0-25.0,6694,List2B,black,woman,,,,,,,,
null,"<div style=""font-size:60px;"">+</div>",,html-keyboard-response,368,2841424,0.0-19.0-0.0,6694,List2B,black,woman,,,,null,,,,
null,"<img src=""stim_listB/kiss7.gif""style=""height:400px;""></stim_listB>",,html-keyboard-response,369,2843430,0.0-19.0-1.0,6694,List2B,black,woman,,,,null,,,,
null,is kissing,,html-keyboard-response,370,2845435,0.0-19.0-2.0,6694,List2B,black,woman,,,,null,,,,
28680,,,survey-text,371,2874118,0.0-19.0-3.0,6694,List2B,black,woman,,,,,"{""Q0"":""beth is kissing ruth""}","<img src=""stim_listB/kiss7.gif""style=""height:400px;""></stim_listB>",is kissing,
null,"<div style=""font-size:60px;"">+</div>",,html-keyboard-response,372,2874621,0.0-19.0-0.1,6694,List2B,black,woman,,,,null,,,,
null,"<img src=""stim_listB/talk3.gif""style=""height:400px;""></stim_listB>",,html-keyboard-response,373,2876624,0.0-19.0-1.1,6694,List2B,black,woman,,,,null,,,,
null,is talking to,,html-keyboard-response,374,2878625,0.0-19.0-2.1,6694,List2B,black,woman,,,,null,,,,
13275,,,survey-text,375,2891901,0.0-19.0-3.1,6694,List2B,black,woman,,,,,"{""Q0"":""fred is talking to kate""}","<img src=""stim_listB/talk3.gif""style=""height:400px;""></stim_listB>",is talking to,
null,"<div style=""font-size:60px;"">+</div>",,html-keyboard-response,376,2892407,0.0-19.0-0.2,6694,List2B,black,woman,,,,null,,,,
null,"<img src=""stim_listB/argue4.gif""style=""height:400px;""></stim_listB>",,html-keyboard-response,377,2894410,0.0-19.0-1.2,6694,List2B,black,woman,,,,null,,,,
null,are arguing with each other,,html-keyboard-response,378,2896412,0.0-19.0-2.2,6694,List2B,black,woman,,,,null,,,,
16350,,,survey-text,379,2912763,0.0-19.0-3.2,6694,List2B,black,woman,,,,,"{""Q0"":""fred and kate are aruging with each other""}","<img src=""stim_listB/argue4.gif""style=""height:400px;""></stim_listB>",are arguing with each other,
null,"<div style=""font-size:60px;"">+</div>",,html-keyboard-response,380,2913266,0.0-19.0-0.3,6694,List2B,black,woman,,,,null,,,,
null,"<img src=""stim_listB/play7.gif""style=""height:400px;""></stim_listB>",,html-keyboard-response,381,2915268,0.0-19.0-1.3,6694,List2B,black,woman,,,,null,,,,
null,is playing with,,html-keyboard-response,382,2917270,0.0-19.0-2.3,6694,List2B,black,woman,,,,null,,,,
11977,,,survey-text,383,2929249,0.0-19.0-3.3,6694,List2B,black,woman,,,,,"{""Q0"":""kate is playing with jane""}","<img src=""stim_listB/play7.gif""style=""height:400px;""></stim_listB>",is playing with,
null,"<div style=""font-size:60px;"">+</div>",,html-keyboard-response,384,2929754,0.0-19.0-0.4,6694,List2B,black,woman,,,,null,,,,
null,"<img src=""stim_listB/fight5.gif""style=""height:400px;""></stim_listB>",,html-keyboard-response,385,2931758,0.0-19.0-1.4,6694,List2B,black,woman,,,,null,,,,
null,is fighting,,html-keyboard-response,386,2933759,0.0-19.0-2.4,6694,List2B,black,woman,,,,null,,,,
10259,,,survey-text,387,2944020,0.0-19.0-3.4,6694,List2B,black,woman,,,,,"{""Q0"":""mike and dave are fighting""}","<img src=""stim_listB/fight5.gif""style=""height:400px;""></stim_listB>",is fighting,
null,"<div style=""font-size:60px;"">+</div>",,html-keyboard-response,388,2944522,0.0-19.0-0.5,6694,List2B,black,woman,,,,null,,,,
null,"<img src=""stim_listB/shout4.gif""style=""height:400px;""></stim_listB>",,html-keyboard-response,389,2946527,0.0-19.0-1.5,6694,List2B,black,woman,,,,null,,,,
null,are shouting at each other,,html-keyboard-response,390,2948528,0.0-19.0-2.5,6694,List2B,black,woman,,,,null,,,,
13293,,,survey-text,391,2961824,0.0-19.0-3.5,6694,List2B,black,woman,,,,,"{""Q0"":""kate and mike are shoutung at each other""}","<img src=""stim_listB/shout4.gif""style=""height:400px;""></stim_listB>",are shouting at each other,
null,"<div style=""font-size:60px;"">+</div>",,html-keyboard-response,392,2962330,0.0-19.0-0.6,6694,List2B,black,woman,,,,null,,,,
null,"<img src=""stim_listB/marry4.gif""style=""height:400px;""></stim_listB>",,html-keyboard-response,393,2964333,0.0-19.0-1.6,6694,List2B,black,woman,,,,null,,,,
null,are marrying each other,,html-keyboard-response,394,2966334,0.0-19.0-2.6,6694,List2B,black,woman,,,,null,,,,
15427,,,survey-text,395,2981763,0.0-19.0-3.6,6694,List2B,black,woman,,,,,"{""Q0"":""fred and kate are marrying each other""}","<img src=""stim_listB/marry4.gif""style=""height:400px;""></stim_listB>",are marrying each other,
null,"<div style=""font-size:60px;"">+</div>",,html-keyboard-response,396,2982264,0.0-19.0-0.7,6694,List2B,black,woman,,,,null,,,,
null,"<img src=""stim_listB/touch1.gif""style=""height:400px;""></stim_listB>",,html-keyboard-response,397,2984267,0.0-19.0-1.7,6694,List2B,black,woman,,,,null,,,,
null,is touching,,html-keyboard-response,398,2986268,0.0-19.0-2.7,6694,List2B,black,woman,,,,null,,,,
21244,,,survey-text,399,3007515,0.0-19.0-3.7,6694,List2B,black,woman,,,,,"{""Q0"":""dave is touching jane""}","<img src=""stim_listB/touch1.gif""style=""height:400px;""></stim_listB>",is touching,
null,"<div style=""font-size:60px;"">+</div>",,html-keyboard-response,400,3008020,0.0-19.0-0.8,6694,List2B,black,woman,,,,null,,,,
null,"<img src=""stim_listB/talk5.gif""style=""height:400px;""></stim_listB>",,html-keyboard-response,401,3010022,0.0-19.0-1.8,6694,List2B,black,woman,,,,null,,,,
null,is talking to,,html-keyboard-response,402,3012023,0.0-19.0-2.8,6694,List2B,black,woman,,,,null,,,,
11630,,,survey-text,403,3023654,0.0-19.0-3.8,6694,List2B,black,woman,,,,,"{""Q0"":""mike is talking to luke""}","<img src=""stim_listB/talk5.gif""style=""height:400px;""></stim_listB>",is talking to,
null,"<div style=""font-size:60px;"">+</div>",,html-keyboard-response,404,3024156,0.0-19.0-0.9,6694,List2B,black,woman,,,,null,,,,
null,"<img src=""stim_listB/kiss3.gif""style=""height:400px;""></stim_listB>",,html-keyboard-response,405,3026161,0.0-19.0-1.9,6694,List2B,black,woman,,,,null,,,,
null,is kissing,,html-keyboard-response,406,3028163,0.0-19.0-2.9,6694,List2B,black,woman,,,,null,,,,
15031,,,survey-text,407,3043196,0.0-19.0-3.9,6694,List2B,black,woman,,,,,"{""Q0"":""fred is kissing beth""}","<img src=""stim_listB/kiss3.gif""style=""height:400px;""></stim_listB>",is kissing,
null,"<div style=""font-size:60px;"">+</div>",,html-keyboard-response,408,3043701,0.0-19.0-0.10,6694,List2B,black,woman,,,,null,,,,
null,"<img src=""stim_listB/flirt4.gif""style=""height:400px;""></stim_listB>",,html-keyboard-response,409,3045704,0.0-19.0-1.10,6694,List2B,black,woman,,,,null,,,,
null,are flirting with each other,,html-keyboard-response,410,3047706,0.0-19.0-2.10,6694,List2B,black,woman,,,,null,,,,
15361,,,survey-text,411,3063069,0.0-19.0-3.10,6694,List2B,black,woman,,,,,"{""Q0"":""beth and mike are flirting""}","<img src=""stim_listB/flirt4.gif""style=""height:400px;""></stim_listB>",are flirting with each other,
null,"<div style=""font-size:60px;"">+</div>",,html-keyboard-response,412,3063571,0.0-19.0-0.11,6694,List2B,black,woman,,,,null,,,,
null,"<img src=""stim_listB/fight3.gif""style=""height:400px;""></stim_listB>",,html-keyboard-response,413,3065574,0.0-19.0-1.11,6694,List2B,black,woman,,,,null,,,,
null,is fighting,,html-keyboard-response,414,3067575,0.0-19.0-2.11,6694,List2B,black,woman,,,,null,,,,
8039,,,survey-text,415,3075616,0.0-19.0-3.11,6694,List2B,black,woman,,,,,"{""Q0"":""mike is fighting kate""}","<img src=""stim_listB/fight3.gif""style=""height:400px;""></stim_listB>",is fighting,
null,"<div style=""font-size:60px;"">+</div>",,html-keyboard-response,416,3076120,0.0-19.0-0.12,6694,List2B,black,woman,,,,null,,,,
null,"<img src=""stim_listB/marry6.gif""style=""height:400px;""></stim_listB>",,html-keyboard-response,417,3078123,0.0-19.0-1.12,6694,List2B,black,woman,,,,null,,,,
null,are marrying each other,,html-keyboard-response,418,3080126,0.0-19.0-2.12,6694,List2B,black,woman,,,,null,,,,
11957,,,survey-text,419,3092085,0.0-19.0-3.12,6694,List2B,black,woman,,,,,"{""Q0"":""luke and mike are marrying each other""}","<img src=""stim_listB/marry6.gif""style=""height:400px;""></stim_listB>",are marrying each other,
null,"<div style=""font-size:60px;"">+</div>",,html-keyboard-response,420,3092588,0.0-19.0-0.13,6694,List2B,black,woman,,,,null,,,,
null,"<img src=""stim_listB/shout8.gif""style=""height:400px;""></stim_listB>",,html-keyboard-response,421,3094590,0.0-19.0-1.13,6694,List2B,black,woman,,,,null,,,,
null,are shouting at each other,,html-keyboard-response,422,3096593,0.0-19.0-2.13,6694,List2B,black,woman,,,,null,,,,
21270,,,survey-text,423,3117865,0.0-19.0-3.13,6694,List2B,black,woman,,,,,"{""Q0"":""kate and jane are shouting at each other""}","<img src=""stim_listB/shout8.gif""style=""height:400px;""></stim_listB>",are shouting at each other,
null,"<div style=""font-size:60px;"">+</div>",,html-keyboard-response,424,3118367,0.0-19.0-0.14,6694,List2B,black,woman,,,,null,,,,
null,"<img src=""stim_listB/play8.gif""style=""height:400px;""></stim_listB>",,html-keyboard-response,425,3120374,0.0-19.0-1.14,6694,List2B,black,woman,,,,null,,,,
null,are playing with each other,,html-keyboard-response,426,3122375,0.0-19.0-2.14,6694,List2B,black,woman,,,,null,,,,
21644,,,survey-text,427,3144020,0.0-19.0-3.14,6694,List2B,black,woman,,,,,"{""Q0"":""beth and ruth are playing with each other""}","<img src=""stim_listB/play8.gif""style=""height:400px;""></stim_listB>",are playing with each other,
null,"<div style=""font-size:60px;"">+</div>",,html-keyboard-response,428,3144524,0.0-19.0-0.15,6694,List2B,black,woman,,,,null,,,,
null,"<img src=""stim_listB/marry8.gif""style=""height:400px;""></stim_listB>",,html-keyboard-response,429,3146526,0.0-19.0-1.15,6694,List2B,black,woman,,,,null,,,,
null,are marrying each other,,html-keyboard-response,430,3148528,0.0-19.0-2.15,6694,List2B,black,woman,,,,null,,,,
20954,,,survey-text,431,3169483,0.0-19.0-3.15,6694,List2B,black,woman,,,,,"{""Q0"":""kate and ruth are marrying each other""}","<img src=""stim_listB/marry8.gif""style=""height:400px;""></stim_listB>",are marrying each other,
null,"<div style=""font-size:60px;"">+</div>",,html-keyboard-response,432,3169988,0.0-19.0-0.16,6694,List2B,black,woman,,,,null,,,,
null,"<img src=""stim_listB/flirt8.gif""style=""height:400px;""></stim_listB>",,html-keyboard-response,433,3171991,0.0-19.0-1.16,6694,List2B,black,woman,,,,null,,,,
null,are flirting with each other,,html-keyboard-response,434,3173993,0.0-19.0-2.16,6694,List2B,black,woman,,,,null,,,,
25002,,,survey-text,435,3198998,0.0-19.0-3.16,6694,List2B,black,woman,,,,,"{""Q0"":""beth and jane are flirting with each other""}","<img src=""stim_listB/flirt8.gif""style=""height:400px;""></stim_listB>",are flirting with each other,
null,"<div style=""font-size:60px;"">+</div>",,html-keyboard-response,436,3199505,0.0-19.0-0.17,6694,List2B,black,woman,,,,null,,,,
null,"<img src=""stim_listB/flirt3.gif""style=""height:400px;""></stim_listB>",,html-keyboard-response,437,3201507,0.0-19.0-1.17,6694,List2B,black,woman,,,,null,,,,
null,is flirting with,,html-keyboard-response,438,3203508,0.0-19.0-2.17,6694,List2B,black,woman,,,,null,,,,
9314,,,survey-text,439,3212825,0.0-19.0-3.17,6694,List2B,black,woman,,,,,"{""Q0"":""fred is flirting with kate""}","<img src=""stim_listB/flirt3.gif""style=""height:400px;""></stim_listB>",is flirting with,
null,"<div style=""font-size:60px;"">+</div>",,html-keyboard-response,440,3213327,0.0-19.0-0.18,6694,List2B,black,woman,,,,null,,,,
null,"<img src=""stim_listB/play5.gif""style=""height:400px;""></stim_listB>",,html-keyboard-response,441,3215334,0.0-19.0-1.18,6694,List2B,black,woman,,,,null,,,,
null,is playing with,,html-keyboard-response,442,3217334,0.0-19.0-2.18,6694,List2B,black,woman,,,,null,,,,
16381,,,survey-text,443,3233716,0.0-19.0-3.18,6694,List2B,black,woman,,,,,"{""Q0"":""mike is playing with dave""}","<img src=""stim_listB/play5.gif""style=""height:400px;""></stim_listB>",is playing with,
null,"<div style=""font-size:60px;"">+</div>",,html-keyboard-response,444,3234220,0.0-19.0-0.19,6694,List2B,black,woman,,,,null,,,,
null,"<img src=""stim_listB/shout7.gif""style=""height:400px;""></stim_listB>",,html-keyboard-response,445,3236222,0.0-19.0-1.19,6694,List2B,black,woman,,,,null,,,,
null,is shouting at,,html-keyboard-response,446,3238225,0.0-19.0-2.19,6694,List2B,black,woman,,,,null,,,,
12746,,,survey-text,447,3250972,0.0-19.0-3.19,6694,List2B,black,woman,,,,,"{""Q0"":""beth is shouting at ruth""}","<img src=""stim_listB/shout7.gif""style=""height:400px;""></stim_listB>",is shouting at,
3506,<p>Thank you for completing that task.</p><p>The final part of this session is a short questionnaire.</p><p>Press Continue.</p>,0,html-button-response,448,3254480,0.0-20.0,6694,List2B,black,woman,,,,,,,,
45098,,,survey-text,449,3300583,0.0-21.0,6694,List2B,black,woman,,,,,"{""Q0"":""27"",""Q1"":""english"",""Q2"":""english"",""Q3"":""united states"",""Q4"":""african american"",""Q5"":""female""}",,,demographics
10032,,,survey-likert,450,3310817,0.0-22.0,6694,List2B,black,woman,,,,,"{""Q0"":4}",,,likert_ESS
26874,,,survey-likert,451,3337735,0.0-23.0,6694,List2B,black,woman,,,,,"{""Q0"":4}",,,likert_NSSAL_Q1
6199,,,survey-likert,452,3343937,0.0-24.0,6694,List2B,black,woman,,,,,"{""Q0"":4}",,,likert_NSSAL_Q2
8723,,,survey-likert,453,3352664,0.0-25.0,6694,List2B,black,woman,,,,,"{""Q0"":4}",,,likert_CGRS_Q1
5587,,,survey-likert,454,3358254,0.0-26.0,6694,List2B,black,woman,,,,,"{""Q0"":4}",,,likert_CGRS_Q2
4171,,,survey-likert,455,3362428,0.0-27.0,6694,List2B,black,woman,,,,,"{""Q0"":4}",,,likert_CGRS_Q3
14520,,,survey-text,456,3376951,0.0-28.0,6694,List2B,black,woman,,,,,"{""Q0"":""ccc""}",,,worker_id
8511,,,external-html,457,3385757,0.0-29.0,6694,List2B,black,woman,debrief.html,,,,,,,
