rt,stimulus,button_pressed,trial_type,trial_index,time_elapsed,internal_node_id,subject,list,ppt_race,ppt_gender,url,first_guess,correct,key_press,responses,image_type,phrase_type,test_part
2507,Welcome to the experiment. Press Continue to begin.,0,html-button-response,0,2510,0.0-0.0,67659,List1B,white,man,,,,,,,,
70821,,,external-html,1,74385,0.0-1.0,67659,List1B,white,man,consent.html,,,,,,,
12537,"<p>On the next page, you will see portraits of 8 people and their names.</p><p>Your first task is to take a few minutes to memorise the names of these people.</p><p>You will have to recall their names during the rest of the experiment, so it is</p><p>essential that you try to memorise these people and their names as best as you can.</p><br><p><strong>You will then be tested on your memory of these names and portraits.</strong></p><br><p>The experiment will start after you have completed this memory test.</p><br><p>Ready?</p>",0,html-button-response,2,86937,0.0-2.0,67659,List1B,white,man,,,,,,,,
173314,"<img src='img/portrait_matrix_list1.jpg' style='width:900px;height:500px;''></img><p>If you have memorised all the portraits and names and are ready to start, press Continue.</p><p><strong>Please note: Your memory of these faces will be tested 4 times during this experiment.</strong></p>",0,html-button-response,3,261264,0.0-3.0-0.0,67659,List1B,white,man,,,,,,,,
11559,"<img src=""portrait/WM2.jpg""style=""height:400px;""></img>",7,html-button-response,4,273829,0.0-3.0-1.0,67659,List1B,white,man,,TRUE,7,,,,,
null,CORRECT,,html-keyboard-response,5,275337,0.0-3.0-2.0-0.0,67659,List1B,white,man,,,,null,,,,
7209,"<img src=""portrait/BM1.jpg""style=""height:400px;""></img>",4,html-button-response,6,282546,0.0-3.0-4.0,67659,List1B,white,man,,TRUE,4,,,,,
null,CORRECT,,html-keyboard-response,7,284054,0.0-3.0-5.0-0.0,67659,List1B,white,man,,,,null,,,,
2726,"<img src=""portrait/BM2.jpg""style=""height:400px;""></img>",5,html-button-response,8,286780,0.0-3.0-7.0,67659,List1B,white,man,,TRUE,5,,,,,
null,CORRECT,,html-keyboard-response,9,288303,0.0-3.0-8.0-0.0,67659,List1B,white,man,,,,null,,,,
2310,"<img src=""portrait/WW2.jpg""style=""height:400px;""></img>",3,html-button-response,10,290613,0.0-3.0-10.0,67659,List1B,white,man,,TRUE,3,,,,,
null,CORRECT,,html-keyboard-response,11,292121,0.0-3.0-11.0-0.0,67659,List1B,white,man,,,,null,,,,
3741,"<img src=""portrait/WM1.jpg""style=""height:400px;""></img>",6,html-button-response,12,295862,0.0-3.0-13.0,67659,List1B,white,man,,TRUE,6,,,,,
null,CORRECT,,html-keyboard-response,13,297370,0.0-3.0-14.0-0.0,67659,List1B,white,man,,,,null,,,,
8342,"<img src=""portrait/WW1.jpg""style=""height:400px;""></img>",1,html-button-response,14,305712,0.0-3.0-16.0,67659,List1B,white,man,,TRUE,1,,,,,
null,CORRECT,,html-keyboard-response,15,307219,0.0-3.0-17.0-0.0,67659,List1B,white,man,,,,null,,,,
1779,"<img src=""portrait/BW2.jpg""style=""height:400px;""></img>",2,html-button-response,16,308998,0.0-3.0-19.0,67659,List1B,white,man,,TRUE,2,,,,,
null,CORRECT,,html-keyboard-response,17,310518,0.0-3.0-20.0-0.0,67659,List1B,white,man,,,,null,,,,
2491,"<img src=""portrait/BW1.jpg""style=""height:400px;""></img>",0,html-button-response,18,313009,0.0-3.0-22.0,67659,List1B,white,man,,TRUE,0,,,,,
null,CORRECT,,html-keyboard-response,19,314518,0.0-3.0-23.0-0.0,67659,List1B,white,man,,,,null,,,,
4327,<p>You got 8 out of 8 right first time. Press Continue.</p>,0,html-button-response,20,318845,0.0-3.0-25.0,67659,List1B,white,man,,,,,,,,
36111,"<p>In this experiment, you will view photographs of the people from the memory game interacting.</p><p>By using the <strong>exact</strong> phrase given <i>after</i> the photograph appears and recalling the correct names of the people in the photographs, form a sentence describing the interaction. You do not need to capitalise names.</p><p>Type your answer in the space provided. Please complete every sentence before moving onto the next trial.</p><p>You will only have a few seconds to memorise each given photograph and phrase before you can respond, so try your best to focus.</p><p>An example is given below. Press 'Continue' when you are ready.</p><img src='img/speaking_example.jpg' style='width:800px;height:460px;''></img>",0,html-button-response,21,355962,0.0-4.0,67659,List1B,white,man,,,,,,,,
3401,"<p>Before the experiment starts, you will watch two example trials. Press 'Continue'.</p>",0,html-button-response,22,360375,0.0-5.0,67659,List1B,white,man,,,,,,,,
null,<img src='img/meet_eg.gif' style='height:400px;''></img>,,html-keyboard-response,23,363389,0.0-6.0,67659,List1B,white,man,,,,null,,,,
null,<p>is meeting</p>,,html-keyboard-response,24,365399,0.0-7.0,67659,List1B,white,man,,,,null,,,,
9911,<p><b>Answer:</b> kate is meeting beth</p>,0,html-button-response,25,375310,0.0-8.0,67659,List1B,white,man,,,,,,,,
null,<img src='img/look_eg.gif' style='height:400px;''></img>,,html-keyboard-response,26,378334,0.0-9.0,67659,List1B,white,man,,,,null,,,,
null,<p>are looking at each other</p>,,html-keyboard-response,27,380350,0.0-10.0,67659,List1B,white,man,,,,null,,,,
3974,<p><b>Answer:</b> luke and dave are looking at each other</p>,0,html-button-response,28,384324,0.0-11.0,67659,List1B,white,man,,,,,,,,
16842,"<p>Ready to start the experiment?</p><br><p><strong>Remember to describe the picture using a full sentence,</strong></p><p><strong>that combines the names of the people with the <i>exact</i> phrase given.</strong></p><p><strong>To receive full payment you must do this correctly.</strong></p><p><strong> You do not need to capitalise names or use punctuation.</strong></p><br><p>Press 'Continue' to begin.</p>",0,html-button-response,29,402174,0.0-12.0,67659,List1B,white,man,,,,,,,,
null,"<div style=""font-size:60px;"">+</div>",,html-keyboard-response,30,403682,0.0-13.0-0.0,67659,List1B,white,man,,,,null,,,,
null,"<img src=""stim_listB/dance3.gif""style=""height:400px;""></stim_listB>",,html-keyboard-response,31,405682,0.0-13.0-1.0,67659,List1B,white,man,,,,null,,,,
null,is dancing with,,html-keyboard-response,32,407684,0.0-13.0-2.0,67659,List1B,white,man,,,,null,,,,
15737,,,survey-text,33,423421,0.0-13.0-3.0,67659,List1B,white,man,,,,,"{""Q0"":""luke is dancing with jane""}","<img src=""stim_listB/dance3.gif""style=""height:400px;""></stim_listB>",is dancing with,
null,"<div style=""font-size:60px;"">+</div>",,html-keyboard-response,34,423947,0.0-13.0-0.1,67659,List1B,white,man,,,,null,,,,
null,"<img src=""stim_listB/shout4.gif""style=""height:400px;""></stim_listB>",,html-keyboard-response,35,425949,0.0-13.0-1.1,67659,List1B,white,man,,,,null,,,,
null,are shouting at each other,,html-keyboard-response,36,427962,0.0-13.0-2.1,67659,List1B,white,man,,,,null,,,,
41092,,,survey-text,37,469054,0.0-13.0-3.1,67659,List1B,white,man,,,,,"{""Q0"":""dave and jane are shouting at each other""}","<img src=""stim_listB/shout4.gif""style=""height:400px;""></stim_listB>",are shouting at each other,
null,"<div style=""font-size:60px;"">+</div>",,html-keyboard-response,38,469562,0.0-13.0-0.2,67659,List1B,white,man,,,,null,,,,
null,"<img src=""stim_listB/flirt6.gif""style=""height:400px;""></stim_listB>",,html-keyboard-response,39,471563,0.0-13.0-1.2,67659,List1B,white,man,,,,null,,,,
null,are flirting with each other,,html-keyboard-response,40,473578,0.0-13.0-2.2,67659,List1B,white,man,,,,null,,,,
21529,,,survey-text,41,495107,0.0-13.0-3.2,67659,List1B,white,man,,,,,"{""Q0"":""mike and luke are flirting with each other""}","<img src=""stim_listB/flirt6.gif""style=""height:400px;""></stim_listB>",are flirting with each other,
null,"<div style=""font-size:60px;"">+</div>",,html-keyboard-response,42,495613,0.0-13.0-0.3,67659,List1B,white,man,,,,null,,,,
null,"<img src=""stim_listB/flirt8.gif""style=""height:400px;""></stim_listB>",,html-keyboard-response,43,497628,0.0-13.0-1.3,67659,List1B,white,man,,,,null,,,,
null,are flirting with each other,,html-keyboard-response,44,499642,0.0-13.0-2.3,67659,List1B,white,man,,,,null,,,,
25212,,,survey-text,45,524854,0.0-13.0-3.3,67659,List1B,white,man,,,,,"{""Q0"":""ruth and kate are flirting with each other""}","<img src=""stim_listB/flirt8.gif""style=""height:400px;""></stim_listB>",are flirting with each other,
null,"<div style=""font-size:60px;"">+</div>",,html-keyboard-response,46,525361,0.0-13.0-0.4,67659,List1B,white,man,,,,null,,,,
null,"<img src=""stim_listB/shout2.gif""style=""height:400px;""></stim_listB>",,html-keyboard-response,47,527362,0.0-13.0-1.4,67659,List1B,white,man,,,,null,,,,
null,are shouting at each other,,html-keyboard-response,48,529376,0.0-13.0-2.4,67659,List1B,white,man,,,,null,,,,
23095,,,survey-text,49,552471,0.0-13.0-3.4,67659,List1B,white,man,,,,,"{""Q0"":""luke and mike are shouting at each other""}","<img src=""stim_listB/shout2.gif""style=""height:400px;""></stim_listB>",are shouting at each other,
null,"<div style=""font-size:60px;"">+</div>",,html-keyboard-response,50,552978,0.0-13.0-0.5,67659,List1B,white,man,,,,null,,,,
null,"<img src=""stim_listB/fight6.gif""style=""height:400px;""></stim_listB>",,html-keyboard-response,51,554978,0.0-13.0-1.5,67659,List1B,white,man,,,,null,,,,
null,are fighting each other,,html-keyboard-response,52,556991,0.0-13.0-2.5,67659,List1B,white,man,,,,null,,,,
18842,,,survey-text,53,575833,0.0-13.0-3.5,67659,List1B,white,man,,,,,"{""Q0"":""fred and luke are fighting each other""}","<img src=""stim_listB/fight6.gif""style=""height:400px;""></stim_listB>",are fighting each other,
null,"<div style=""font-size:60px;"">+</div>",,html-keyboard-response,54,576343,0.0-13.0-0.6,67659,List1B,white,man,,,,null,,,,
null,"<img src=""stim_listB/talk5.gif""style=""height:400px;""></stim_listB>",,html-keyboard-response,55,578344,0.0-13.0-1.6,67659,List1B,white,man,,,,null,,,,
null,is talking to,,html-keyboard-response,56,580357,0.0-13.0-2.6,67659,List1B,white,man,,,,null,,,,
19245,,,survey-text,57,599602,0.0-13.0-3.6,67659,List1B,white,man,,,,,"{""Q0"":""fred is talking to dave""}","<img src=""stim_listB/talk5.gif""style=""height:400px;""></stim_listB>",is talking to,
null,"<div style=""font-size:60px;"">+</div>",,html-keyboard-response,58,600102,0.0-13.0-0.7,67659,List1B,white,man,,,,null,,,,
null,"<img src=""stim_listB/kiss8.gif""style=""height:400px;""></stim_listB>",,html-keyboard-response,59,602107,0.0-13.0-1.7,67659,List1B,white,man,,,,null,,,,
null,are kissing each other,,html-keyboard-response,60,604121,0.0-13.0-2.7,67659,List1B,white,man,,,,null,,,,
26127,,,survey-text,61,630248,0.0-13.0-3.7,67659,List1B,white,man,,,,,"{""Q0"":""beth and jane are kissing each other""}","<img src=""stim_listB/kiss8.gif""style=""height:400px;""></stim_listB>",are kissing each other,
null,"<div style=""font-size:60px;"">+</div>",,html-keyboard-response,62,630756,0.0-13.0-0.8,67659,List1B,white,man,,,,null,,,,
null,"<img src=""stim_listB/talk1.gif""style=""height:400px;""></stim_listB>",,html-keyboard-response,63,632757,0.0-13.0-1.8,67659,List1B,white,man,,,,null,,,,
null,is talking to,,html-keyboard-response,64,634768,0.0-13.0-2.8,67659,List1B,white,man,,,,null,,,,
25207,,,survey-text,65,659975,0.0-13.0-3.8,67659,List1B,white,man,,,,,"{""Q0"":""fred is talking to kate""}","<img src=""stim_listB/talk1.gif""style=""height:400px;""></stim_listB>",is talking to,
null,"<div style=""font-size:60px;"">+</div>",,html-keyboard-response,66,660489,0.0-13.0-0.9,67659,List1B,white,man,,,,null,,,,
null,"<img src=""stim_listB/touch4.gif""style=""height:400px;""></stim_listB>",,html-keyboard-response,67,662489,0.0-13.0-1.9,67659,List1B,white,man,,,,null,,,,
null,are touching each other,,html-keyboard-response,68,664498,0.0-13.0-2.9,67659,List1B,white,man,,,,null,,,,
23649,,,survey-text,69,688147,0.0-13.0-3.9,67659,List1B,white,man,,,,,"{""Q0"":""luke and ruth are touching each other""}","<img src=""stim_listB/touch4.gif""style=""height:400px;""></stim_listB>",are touching each other,
null,"<div style=""font-size:60px;"">+</div>",,html-keyboard-response,70,688654,0.0-13.0-0.10,67659,List1B,white,man,,,,null,,,,
null,"<img src=""stim_listB/marry6.gif""style=""height:400px;""></stim_listB>",,html-keyboard-response,71,690655,0.0-13.0-1.10,67659,List1B,white,man,,,,null,,,,
null,are marrying each other,,html-keyboard-response,72,692670,0.0-13.0-2.10,67659,List1B,white,man,,,,null,,,,
23771,,,survey-text,73,716441,0.0-13.0-3.10,67659,List1B,white,man,,,,,"{""Q0"":""dave and fred are marrying each other""}","<img src=""stim_listB/marry6.gif""style=""height:400px;""></stim_listB>",are marrying each other,
null,"<div style=""font-size:60px;"">+</div>",,html-keyboard-response,74,716952,0.0-13.0-0.11,67659,List1B,white,man,,,,null,,,,
null,"<img src=""stim_listB/talk3.gif""style=""height:400px;""></stim_listB>",,html-keyboard-response,75,718953,0.0-13.0-1.11,67659,List1B,white,man,,,,null,,,,
null,is talking to,,html-keyboard-response,76,720968,0.0-13.0-2.11,67659,List1B,white,man,,,,null,,,,
14377,,,survey-text,77,735360,0.0-13.0-3.11,67659,List1B,white,man,,,,,"{""Q0"":""jane is talking to luke""}","<img src=""stim_listB/talk3.gif""style=""height:400px;""></stim_listB>",is talking to,
null,"<div style=""font-size:60px;"">+</div>",,html-keyboard-response,78,735868,0.0-13.0-0.12,67659,List1B,white,man,,,,null,,,,
null,"<img src=""stim_listB/shout3.gif""style=""height:400px;""></stim_listB>",,html-keyboard-response,79,737869,0.0-13.0-1.12,67659,List1B,white,man,,,,null,,,,
null,is shouting at,,html-keyboard-response,80,739873,0.0-13.0-2.12,67659,List1B,white,man,,,,null,,,,
25827,,,survey-text,81,765701,0.0-13.0-3.12,67659,List1B,white,man,,,,,"{""Q0"":""ruth is shouting at luke""}","<img src=""stim_listB/shout3.gif""style=""height:400px;""></stim_listB>",is shouting at,
null,"<div style=""font-size:60px;"">+</div>",,html-keyboard-response,82,766203,0.0-13.0-0.13,67659,List1B,white,man,,,,null,,,,
null,"<img src=""stim_listB/marry1.gif""style=""height:400px;""></stim_listB>",,html-keyboard-response,83,768217,0.0-13.0-1.13,67659,List1B,white,man,,,,null,,,,
null,is marrying,,html-keyboard-response,84,770231,0.0-13.0-2.13,67659,List1B,white,man,,,,null,,,,
17959,,,survey-text,85,788190,0.0-13.0-3.13,67659,List1B,white,man,,,,,"{""Q0"":""beth is marrying mike""}","<img src=""stim_listB/marry1.gif""style=""height:400px;""></stim_listB>",is marrying,
null,"<div style=""font-size:60px;"">+</div>",,html-keyboard-response,86,788699,0.0-13.0-0.14,67659,List1B,white,man,,,,null,,,,
null,"<img src=""stim_listB/flirt2.gif""style=""height:400px;""></stim_listB>",,html-keyboard-response,87,790700,0.0-13.0-1.14,67659,List1B,white,man,,,,null,,,,
null,are flirting with each other,,html-keyboard-response,88,792712,0.0-13.0-2.14,67659,List1B,white,man,,,,null,,,,
16830,,,survey-text,89,809557,0.0-13.0-3.14,67659,List1B,white,man,,,,,"{""Q0"":""beth and mike are flirting with each other""}","<img src=""stim_listB/flirt2.gif""style=""height:400px;""></stim_listB>",are flirting with each other,
null,"<div style=""font-size:60px;"">+</div>",,html-keyboard-response,90,810065,0.0-13.0-0.15,67659,List1B,white,man,,,,null,,,,
null,"<img src=""stim_listB/marry2.gif""style=""height:400px;""></stim_listB>",,html-keyboard-response,91,812066,0.0-13.0-1.15,67659,List1B,white,man,,,,null,,,,
null,are marrying each other,,html-keyboard-response,92,814080,0.0-13.0-2.15,67659,List1B,white,man,,,,null,,,,
17675,,,survey-text,93,831755,0.0-13.0-3.15,67659,List1B,white,man,,,,,"{""Q0"":""kate and fred are marrying each other""}","<img src=""stim_listB/marry2.gif""style=""height:400px;""></stim_listB>",are marrying each other,
null,"<div style=""font-size:60px;"">+</div>",,html-keyboard-response,94,832264,0.0-13.0-0.16,67659,List1B,white,man,,,,null,,,,
null,"<img src=""stim_listB/kiss7.gif""style=""height:400px;""></stim_listB>",,html-keyboard-response,95,834266,0.0-13.0-1.16,67659,List1B,white,man,,,,null,,,,
null,is kissing,,html-keyboard-response,96,836280,0.0-13.0-2.16,67659,List1B,white,man,,,,null,,,,
19748,,,survey-text,97,856028,0.0-13.0-3.16,67659,List1B,white,man,,,,,"{""Q0"":""beth and ruth are kissing each other""}","<img src=""stim_listB/kiss7.gif""style=""height:400px;""></stim_listB>",is kissing,
null,"<div style=""font-size:60px;"">+</div>",,html-keyboard-response,98,856529,0.0-13.0-0.17,67659,List1B,white,man,,,,null,,,,
null,"<img src=""stim_listB/marry5.gif""style=""height:400px;""></stim_listB>",,html-keyboard-response,99,858531,0.0-13.0-1.17,67659,List1B,white,man,,,,null,,,,
null,is marrying,,html-keyboard-response,100,860532,0.0-13.0-2.17,67659,List1B,white,man,,,,null,,,,
10790,,,survey-text,101,871324,0.0-13.0-3.17,67659,List1B,white,man,,,,,"{""Q0"":""luke is marrying mike""}","<img src=""stim_listB/marry5.gif""style=""height:400px;""></stim_listB>",is marrying,
null,"<div style=""font-size:60px;"">+</div>",,html-keyboard-response,102,871825,0.0-13.0-0.18,67659,List1B,white,man,,,,null,,,,
null,"<img src=""stim_listB/touch1.gif""style=""height:400px;""></stim_listB>",,html-keyboard-response,103,873827,0.0-13.0-1.18,67659,List1B,white,man,,,,null,,,,
null,is touching,,html-keyboard-response,104,875828,0.0-13.0-2.18,67659,List1B,white,man,,,,null,,,,
9942,,,survey-text,105,885771,0.0-13.0-3.18,67659,List1B,white,man,,,,,"{""Q0"":""kate is touching mike""}","<img src=""stim_listB/touch1.gif""style=""height:400px;""></stim_listB>",is touching,
null,"<div style=""font-size:60px;"">+</div>",,html-keyboard-response,106,886272,0.0-13.0-0.19,67659,List1B,white,man,,,,null,,,,
null,"<img src=""stim_listB/argue4.gif""style=""height:400px;""></stim_listB>",,html-keyboard-response,107,888274,0.0-13.0-1.19,67659,List1B,white,man,,,,null,,,,
null,are arguing with each other,,html-keyboard-response,108,890274,0.0-13.0-2.19,67659,List1B,white,man,,,,null,,,,
22719,,,survey-text,109,912994,0.0-13.0-3.19,67659,List1B,white,man,,,,,"{""Q0"":""jane and luke are arguing with each other""}","<img src=""stim_listB/argue4.gif""style=""height:400px;""></stim_listB>",are arguing with each other,
30055,"<img src='img/portrait_matrix_list1.jpg' style='width:900px;height:500px;''></img><p>If you have memorised all the portraits and names and are ready to start, press Continue.</p><p><strong>Please note: Your memory of these faces will be tested 4 times during this experiment.</strong></p>",0,html-button-response,110,943051,0.0-14.0-0.0,67659,List1B,white,man,,,,,,,,
3484,"<img src=""portrait/BW2.jpg""style=""height:400px;""></img>",2,html-button-response,111,947540,0.0-14.0-1.0,67659,List1B,white,man,,TRUE,2,,,,,
null,CORRECT,,html-keyboard-response,112,949046,0.0-14.0-2.0-0.0,67659,List1B,white,man,,,,null,,,,
2010,"<img src=""portrait/WW2.jpg""style=""height:400px;""></img>",3,html-button-response,113,951056,0.0-14.0-4.0,67659,List1B,white,man,,TRUE,3,,,,,
null,CORRECT,,html-keyboard-response,114,952562,0.0-14.0-5.0-0.0,67659,List1B,white,man,,,,null,,,,
1643,"<img src=""portrait/WM1.jpg""style=""height:400px;""></img>",6,html-button-response,115,954205,0.0-14.0-7.0,67659,List1B,white,man,,TRUE,6,,,,,
null,CORRECT,,html-keyboard-response,116,955727,0.0-14.0-8.0-0.0,67659,List1B,white,man,,,,null,,,,
1960,"<img src=""portrait/WW1.jpg""style=""height:400px;""></img>",1,html-button-response,117,957687,0.0-14.0-10.0,67659,List1B,white,man,,TRUE,1,,,,,
null,CORRECT,,html-keyboard-response,118,959195,0.0-14.0-11.0-0.0,67659,List1B,white,man,,,,null,,,,
1878,"<img src=""portrait/WM2.jpg""style=""height:400px;""></img>",7,html-button-response,119,961073,0.0-14.0-13.0,67659,List1B,white,man,,TRUE,7,,,,,
null,CORRECT,,html-keyboard-response,120,962593,0.0-14.0-14.0-0.0,67659,List1B,white,man,,,,null,,,,
1829,"<img src=""portrait/BM1.jpg""style=""height:400px;""></img>",4,html-button-response,121,964422,0.0-14.0-16.0,67659,List1B,white,man,,TRUE,4,,,,,
null,CORRECT,,html-keyboard-response,122,965928,0.0-14.0-17.0-0.0,67659,List1B,white,man,,,,null,,,,
1628,"<img src=""portrait/BW1.jpg""style=""height:400px;""></img>",0,html-button-response,123,967556,0.0-14.0-19.0,67659,List1B,white,man,,TRUE,0,,,,,
null,CORRECT,,html-keyboard-response,124,969076,0.0-14.0-20.0-0.0,67659,List1B,white,man,,,,null,,,,
2293,"<img src=""portrait/BM2.jpg""style=""height:400px;""></img>",5,html-button-response,125,971369,0.0-14.0-22.0,67659,List1B,white,man,,TRUE,5,,,,,
null,CORRECT,,html-keyboard-response,126,972893,0.0-14.0-23.0-0.0,67659,List1B,white,man,,,,null,,,,
7759,<p>You got 8 out of 8 right first time. Press Continue.</p>,0,html-button-response,127,980652,0.0-14.0-25.0,67659,List1B,white,man,,,,,,,,
null,"<div style=""font-size:60px;"">+</div>",,html-keyboard-response,128,982176,0.0-15.0-0.0,67659,List1B,white,man,,,,null,,,,
null,"<img src=""stim_listB/fight8.gif""style=""height:400px;""></stim_listB>",,html-keyboard-response,129,984177,0.0-15.0-1.0,67659,List1B,white,man,,,,null,,,,
null,are fighting each other,,html-keyboard-response,130,986191,0.0-15.0-2.0,67659,List1B,white,man,,,,null,,,,
13575,,,survey-text,131,999766,0.0-15.0-3.0,67659,List1B,white,man,,,,,"{""Q0"":""beth and ruth are fighting each other""}","<img src=""stim_listB/fight8.gif""style=""height:400px;""></stim_listB>",are fighting each other,
null,"<div style=""font-size:60px;"">+</div>",,html-keyboard-response,132,1000275,0.0-15.0-0.1,67659,List1B,white,man,,,,null,,,,
null,"<img src=""stim_listB/play2.gif""style=""height:400px;""></stim_listB>",,html-keyboard-response,133,1002277,0.0-15.0-1.1,67659,List1B,white,man,,,,null,,,,
null,are playing with each other,,html-keyboard-response,134,1004290,0.0-15.0-2.1,67659,List1B,white,man,,,,null,,,,
15732,,,survey-text,135,1020022,0.0-15.0-3.1,67659,List1B,white,man,,,,,"{""Q0"":""fred and beth are playing with each other""}","<img src=""stim_listB/play2.gif""style=""height:400px;""></stim_listB>",are playing with each other,
null,"<div style=""font-size:60px;"">+</div>",,html-keyboard-response,136,1020525,0.0-15.0-0.2,67659,List1B,white,man,,,,null,,,,
null,"<img src=""stim_listB/kiss3.gif""style=""height:400px;""></stim_listB>",,html-keyboard-response,137,1022540,0.0-15.0-1.2,67659,List1B,white,man,,,,null,,,,
null,is kissing,,html-keyboard-response,138,1024554,0.0-15.0-2.2,67659,List1B,white,man,,,,null,,,,
18724,,,survey-text,139,1043278,0.0-15.0-3.2,67659,List1B,white,man,,,,,"{""Q0"":""ruth is kissing luke""}","<img src=""stim_listB/kiss3.gif""style=""height:400px;""></stim_listB>",is kissing,
null,"<div style=""font-size:60px;"">+</div>",,html-keyboard-response,140,1043789,0.0-15.0-0.3,67659,List1B,white,man,,,,null,,,,
null,"<img src=""stim_listB/flirt1.gif""style=""height:400px;""></stim_listB>",,html-keyboard-response,141,1045790,0.0-15.0-1.3,67659,List1B,white,man,,,,null,,,,
null,is flirting with,,html-keyboard-response,142,1047804,0.0-15.0-2.3,67659,List1B,white,man,,,,null,,,,
13644,,,survey-text,143,1061448,0.0-15.0-3.3,67659,List1B,white,man,,,,,"{""Q0"":""kate is flirting with fred""}","<img src=""stim_listB/flirt1.gif""style=""height:400px;""></stim_listB>",is flirting with,
null,"<div style=""font-size:60px;"">+</div>",,html-keyboard-response,144,1061955,0.0-15.0-0.4,67659,List1B,white,man,,,,null,,,,
null,"<img src=""stim_listB/fight2.gif""style=""height:400px;""></stim_listB>",,html-keyboard-response,145,1063956,0.0-15.0-1.4,67659,List1B,white,man,,,,null,,,,
null,are fighting each other,,html-keyboard-response,146,1065969,0.0-15.0-2.4,67659,List1B,white,man,,,,null,,,,
19646,,,survey-text,147,1085615,0.0-15.0-3.4,67659,List1B,white,man,,,,,"{""Q0"":""beth and fred are fighting each other""}","<img src=""stim_listB/fight2.gif""style=""height:400px;""></stim_listB>",are fighting each other,
null,"<div style=""font-size:60px;"">+</div>",,html-keyboard-response,148,1086122,0.0-15.0-0.5,67659,List1B,white,man,,,,null,,,,
null,"<img src=""stim_listB/fight1.gif""style=""height:400px;""></stim_listB>",,html-keyboard-response,149,1088123,0.0-15.0-1.5,67659,List1B,white,man,,,,null,,,,
null,is fighting,,html-keyboard-response,150,1090136,0.0-15.0-2.5,67659,List1B,white,man,,,,null,,,,
23111,,,survey-text,151,1113247,0.0-15.0-3.5,67659,List1B,white,man,,,,,"{""Q0"":""mike is fighting kate""}","<img src=""stim_listB/fight1.gif""style=""height:400px;""></stim_listB>",is fighting,
null,"<div style=""font-size:60px;"">+</div>",,html-keyboard-response,152,1113755,0.0-15.0-0.6,67659,List1B,white,man,,,,null,,,,
null,"<img src=""stim_listB/argue2.gif""style=""height:400px;""></stim_listB>",,html-keyboard-response,153,1115755,0.0-15.0-1.6,67659,List1B,white,man,,,,null,,,,
null,are arguing with each other,,html-keyboard-response,154,1117755,0.0-15.0-2.6,67659,List1B,white,man,,,,null,,,,
13887,,,survey-text,155,1131643,0.0-15.0-3.6,67659,List1B,white,man,,,,,"{""Q0"":""fred and kate are arguing with each other""}","<img src=""stim_listB/argue2.gif""style=""height:400px;""></stim_listB>",are arguing with each other,
null,"<div style=""font-size:60px;"">+</div>",,html-keyboard-response,156,1132143,0.0-15.0-0.7,67659,List1B,white,man,,,,null,,,,
null,"<img src=""stim_listB/play6.gif""style=""height:400px;""></stim_listB>",,html-keyboard-response,157,1134152,0.0-15.0-1.7,67659,List1B,white,man,,,,null,,,,
null,are playing with each other,,html-keyboard-response,158,1136166,0.0-15.0-2.7,67659,List1B,white,man,,,,null,,,,
15345,,,survey-text,159,1151511,0.0-15.0-3.7,67659,List1B,white,man,,,,,"{""Q0"":""luke and fred are playing with each other""}","<img src=""stim_listB/play6.gif""style=""height:400px;""></stim_listB>",are playing with each other,
null,"<div style=""font-size:60px;"">+</div>",,html-keyboard-response,160,1152018,0.0-15.0-0.8,67659,List1B,white,man,,,,null,,,,
null,"<img src=""stim_listB/dance5.gif""style=""height:400px;""></stim_listB>",,html-keyboard-response,161,1154020,0.0-15.0-1.8,67659,List1B,white,man,,,,null,,,,
null,is dancing with,,html-keyboard-response,162,1156033,0.0-15.0-2.8,67659,List1B,white,man,,,,null,,,,
9808,,,survey-text,163,1165841,0.0-15.0-3.8,67659,List1B,white,man,,,,,"{""Q0"":""dave is dancing with fred""}","<img src=""stim_listB/dance5.gif""style=""height:400px;""></stim_listB>",is dancing with,
null,"<div style=""font-size:60px;"">+</div>",,html-keyboard-response,164,1166351,0.0-15.0-0.9,67659,List1B,white,man,,,,null,,,,
null,"<img src=""stim_listB/dance2.gif""style=""height:400px;""></stim_listB>",,html-keyboard-response,165,1168353,0.0-15.0-1.9,67659,List1B,white,man,,,,null,,,,
null,are dancing with each other,,html-keyboard-response,166,1170365,0.0-15.0-2.9,67659,List1B,white,man,,,,null,,,,
13841,,,survey-text,167,1184206,0.0-15.0-3.9,67659,List1B,white,man,,,,,"{""Q0"":""beth and mike are dancing with each other""}","<img src=""stim_listB/dance2.gif""style=""height:400px;""></stim_listB>",are dancing with each other,
null,"<div style=""font-size:60px;"">+</div>",,html-keyboard-response,168,1184708,0.0-15.0-0.10,67659,List1B,white,man,,,,null,,,,
null,"<img src=""stim_listB/shout5.gif""style=""height:400px;""></stim_listB>",,html-keyboard-response,169,1186717,0.0-15.0-1.10,67659,List1B,white,man,,,,null,,,,
null,is shouting at,,html-keyboard-response,170,1188731,0.0-15.0-2.10,67659,List1B,white,man,,,,null,,,,
10829,,,survey-text,171,1199560,0.0-15.0-3.10,67659,List1B,white,man,,,,,"{""Q0"":""fred is shouting at luke""}","<img src=""stim_listB/shout5.gif""style=""height:400px;""></stim_listB>",is shouting at,
null,"<div style=""font-size:60px;"">+</div>",,html-keyboard-response,172,1200060,0.0-15.0-0.11,67659,List1B,white,man,,,,null,,,,
null,"<img src=""stim_listB/fight3.gif""style=""height:400px;""></stim_listB>",,html-keyboard-response,173,1202068,0.0-15.0-1.11,67659,List1B,white,man,,,,null,,,,
null,is fighting,,html-keyboard-response,174,1204077,0.0-15.0-2.11,67659,List1B,white,man,,,,null,,,,
14512,,,survey-text,175,1218589,0.0-15.0-3.11,67659,List1B,white,man,,,,,"{""Q0"":""jane is fighting dave""}","<img src=""stim_listB/fight3.gif""style=""height:400px;""></stim_listB>",is fighting,
null,"<div style=""font-size:60px;"">+</div>",,html-keyboard-response,176,1219099,0.0-15.0-0.12,67659,List1B,white,man,,,,null,,,,
null,"<img src=""stim_listB/shout1.gif""style=""height:400px;""></stim_listB>",,html-keyboard-response,177,1221099,0.0-15.0-1.12,67659,List1B,white,man,,,,null,,,,
null,is shouting at,,html-keyboard-response,178,1223113,0.0-15.0-2.12,67659,List1B,white,man,,,,null,,,,
10512,,,survey-text,179,1233640,0.0-15.0-3.12,67659,List1B,white,man,,,,,"{""Q0"":""beth is shouting at fred""}","<img src=""stim_listB/shout1.gif""style=""height:400px;""></stim_listB>",is shouting at,
null,"<div style=""font-size:60px;"">+</div>",,html-keyboard-response,180,1234150,0.0-15.0-0.13,67659,List1B,white,man,,,,null,,,,
null,"<img src=""stim_listB/play4.gif""style=""height:400px;""></stim_listB>",,html-keyboard-response,181,1236165,0.0-15.0-1.13,67659,List1B,white,man,,,,null,,,,
null,are playing with each other,,html-keyboard-response,182,1238179,0.0-15.0-2.13,67659,List1B,white,man,,,,null,,,,
16725,,,survey-text,183,1254904,0.0-15.0-3.13,67659,List1B,white,man,,,,,"{""Q0"":""ruth and luke are playing with each other""}","<img src=""stim_listB/play4.gif""style=""height:400px;""></stim_listB>",are playing with each other,
null,"<div style=""font-size:60px;"">+</div>",,html-keyboard-response,184,1255414,0.0-15.0-0.14,67659,List1B,white,man,,,,null,,,,
null,"<img src=""stim_listB/talk6.gif""style=""height:400px;""></stim_listB>",,html-keyboard-response,185,1257415,0.0-15.0-1.14,67659,List1B,white,man,,,,null,,,,
null,are talking to each other,,html-keyboard-response,186,1259430,0.0-15.0-2.14,67659,List1B,white,man,,,,null,,,,
13776,,,survey-text,187,1273206,0.0-15.0-3.14,67659,List1B,white,man,,,,,"{""Q0"":""luke and mike are talking to each other""}","<img src=""stim_listB/talk6.gif""style=""height:400px;""></stim_listB>",are talking to each other,
null,"<div style=""font-size:60px;"">+</div>",,html-keyboard-response,188,1273713,0.0-15.0-0.15,67659,List1B,white,man,,,,null,,,,
null,"<img src=""stim_listB/flirt5.gif""style=""height:400px;""></stim_listB>",,html-keyboard-response,189,1275715,0.0-15.0-1.15,67659,List1B,white,man,,,,null,,,,
null,is flirting with,,html-keyboard-response,190,1277728,0.0-15.0-2.15,67659,List1B,white,man,,,,null,,,,
12361,,,survey-text,191,1290089,0.0-15.0-3.15,67659,List1B,white,man,,,,,"{""Q0"":""dave is flirting with fred""}","<img src=""stim_listB/flirt5.gif""style=""height:400px;""></stim_listB>",is flirting with,
null,"<div style=""font-size:60px;"">+</div>",,html-keyboard-response,192,1290596,0.0-15.0-0.16,67659,List1B,white,man,,,,null,,,,
null,"<img src=""stim_listB/marry7.gif""style=""height:400px;""></stim_listB>",,html-keyboard-response,193,1292598,0.0-15.0-1.16,67659,List1B,white,man,,,,null,,,,
null,is marrying,,html-keyboard-response,194,1294610,0.0-15.0-2.16,67659,List1B,white,man,,,,null,,,,
9741,,,survey-text,195,1304351,0.0-15.0-3.16,67659,List1B,white,man,,,,,"{""Q0"":""ruth is marrying kate""}","<img src=""stim_listB/marry7.gif""style=""height:400px;""></stim_listB>",is marrying,
null,"<div style=""font-size:60px;"">+</div>",,html-keyboard-response,196,1304879,0.0-15.0-0.17,67659,List1B,white,man,,,,null,,,,
null,"<img src=""stim_listB/shout8.gif""style=""height:400px;""></stim_listB>",,html-keyboard-response,197,1306880,0.0-15.0-1.17,67659,List1B,white,man,,,,null,,,,
null,are shouting at each other,,html-keyboard-response,198,1308893,0.0-15.0-2.17,67659,List1B,white,man,,,,null,,,,
16795,,,survey-text,199,1325688,0.0-15.0-3.17,67659,List1B,white,man,,,,,"{""Q0"":""kate and jane are shouting at each other""}","<img src=""stim_listB/shout8.gif""style=""height:400px;""></stim_listB>",are shouting at each other,
null,"<div style=""font-size:60px;"">+</div>",,html-keyboard-response,200,1326188,0.0-15.0-0.18,67659,List1B,white,man,,,,null,,,,
null,"<img src=""stim_listB/touch6.gif""style=""height:400px;""></stim_listB>",,html-keyboard-response,201,1328195,0.0-15.0-1.18,67659,List1B,white,man,,,,null,,,,
null,are touching each other,,html-keyboard-response,202,1330195,0.0-15.0-2.18,67659,List1B,white,man,,,,null,,,,
14192,,,survey-text,203,1344387,0.0-15.0-3.18,67659,List1B,white,man,,,,,"{""Q0"":""fred and luke are touching each other""}","<img src=""stim_listB/touch6.gif""style=""height:400px;""></stim_listB>",are touching each other,
null,"<div style=""font-size:60px;"">+</div>",,html-keyboard-response,204,1344887,0.0-15.0-0.19,67659,List1B,white,man,,,,null,,,,
null,"<img src=""stim_listB/play5.gif""style=""height:400px;""></stim_listB>",,html-keyboard-response,205,1346894,0.0-15.0-1.19,67659,List1B,white,man,,,,null,,,,
null,is playing with,,html-keyboard-response,206,1348909,0.0-15.0-2.19,67659,List1B,white,man,,,,null,,,,
10490,,,survey-text,207,1359399,0.0-15.0-3.19,67659,List1B,white,man,,,,,"{""Q0"":""dave is playing with mike""}","<img src=""stim_listB/play5.gif""style=""height:400px;""></stim_listB>",is playing with,
6056,"<img src='img/portrait_matrix_list1.jpg' style='width:900px;height:500px;''></img><p>If you have memorised all the portraits and names and are ready to start, press Continue.</p><p><strong>Please note: Your memory of these faces will be tested 4 times during this experiment.</strong></p>",0,html-button-response,208,1365455,0.0-16.0-0.0,67659,List1B,white,man,,,,,,,,
2627,"<img src=""portrait/BM1.jpg""style=""height:400px;""></img>",4,html-button-response,209,1369086,0.0-16.0-1.0,67659,List1B,white,man,,TRUE,4,,,,,
null,CORRECT,,html-keyboard-response,210,1370593,0.0-16.0-2.0-0.0,67659,List1B,white,man,,,,null,,,,
1410,"<img src=""portrait/WM1.jpg""style=""height:400px;""></img>",6,html-button-response,211,1372003,0.0-16.0-4.0,67659,List1B,white,man,,TRUE,6,,,,,
null,CORRECT,,html-keyboard-response,212,1373510,0.0-16.0-5.0-0.0,67659,List1B,white,man,,,,null,,,,
1493,"<img src=""portrait/WM2.jpg""style=""height:400px;""></img>",7,html-button-response,213,1375003,0.0-16.0-7.0,67659,List1B,white,man,,TRUE,7,,,,,
null,CORRECT,,html-keyboard-response,214,1376526,0.0-16.0-8.0-0.0,67659,List1B,white,man,,,,null,,,,
1828,"<img src=""portrait/BW1.jpg""style=""height:400px;""></img>",0,html-button-response,215,1378354,0.0-16.0-10.0,67659,List1B,white,man,,TRUE,0,,,,,
null,CORRECT,,html-keyboard-response,216,1379860,0.0-16.0-11.0-0.0,67659,List1B,white,man,,,,null,,,,
1626,"<img src=""portrait/WW1.jpg""style=""height:400px;""></img>",1,html-button-response,217,1381486,0.0-16.0-13.0,67659,List1B,white,man,,TRUE,1,,,,,
null,CORRECT,,html-keyboard-response,218,1382995,0.0-16.0-14.0-0.0,67659,List1B,white,man,,,,null,,,,
1877,"<img src=""portrait/BM2.jpg""style=""height:400px;""></img>",5,html-button-response,219,1384872,0.0-16.0-16.0,67659,List1B,white,man,,TRUE,5,,,,,
null,CORRECT,,html-keyboard-response,220,1386376,0.0-16.0-17.0-0.0,67659,List1B,white,man,,,,null,,,,
1426,"<img src=""portrait/BW2.jpg""style=""height:400px;""></img>",2,html-button-response,221,1387802,0.0-16.0-19.0,67659,List1B,white,man,,TRUE,2,,,,,
null,CORRECT,,html-keyboard-response,222,1389325,0.0-16.0-20.0-0.0,67659,List1B,white,man,,,,null,,,,
1227,"<img src=""portrait/WW2.jpg""style=""height:400px;""></img>",3,html-button-response,223,1390552,0.0-16.0-22.0,67659,List1B,white,man,,TRUE,3,,,,,
null,CORRECT,,html-keyboard-response,224,1392059,0.0-16.0-23.0-0.0,67659,List1B,white,man,,,,null,,,,
41557,<p>You got 8 out of 8 right first time. Press Continue.</p>,0,html-button-response,225,1433616,0.0-16.0-25.0,67659,List1B,white,man,,,,,,,,
null,"<div style=""font-size:60px;"">+</div>",,html-keyboard-response,226,1435125,0.0-17.0-0.0,67659,List1B,white,man,,,,null,,,,
null,"<img src=""stim_listB/kiss5.gif""style=""height:400px;""></stim_listB>",,html-keyboard-response,227,1437125,0.0-17.0-1.0,67659,List1B,white,man,,,,null,,,,
null,is kissing,,html-keyboard-response,228,1439138,0.0-17.0-2.0,67659,List1B,white,man,,,,null,,,,
8245,,,survey-text,229,1447383,0.0-17.0-3.0,67659,List1B,white,man,,,,,"{""Q0"":""luke is kissing fred""}","<img src=""stim_listB/kiss5.gif""style=""height:400px;""></stim_listB>",is kissing,
null,"<div style=""font-size:60px;"">+</div>",,html-keyboard-response,230,1447883,0.0-17.0-0.1,67659,List1B,white,man,,,,null,,,,
null,"<img src=""stim_listB/flirt4.gif""style=""height:400px;""></stim_listB>",,html-keyboard-response,231,1449899,0.0-17.0-1.1,67659,List1B,white,man,,,,null,,,,
null,are flirting with each other,,html-keyboard-response,232,1451914,0.0-17.0-2.1,67659,List1B,white,man,,,,null,,,,
15546,,,survey-text,233,1467460,0.0-17.0-3.1,67659,List1B,white,man,,,,,"{""Q0"":""ruth and dave are flirting with each other""}","<img src=""stim_listB/flirt4.gif""style=""height:400px;""></stim_listB>",are flirting with each other,
null,"<div style=""font-size:60px;"">+</div>",,html-keyboard-response,234,1467960,0.0-17.0-0.2,67659,List1B,white,man,,,,null,,,,
null,"<img src=""stim_listB/kiss2.gif""style=""height:400px;""></stim_listB>",,html-keyboard-response,235,1469972,0.0-17.0-1.2,67659,List1B,white,man,,,,null,,,,
null,are kissing each other,,html-keyboard-response,236,1471986,0.0-17.0-2.2,67659,List1B,white,man,,,,null,,,,
12509,,,survey-text,237,1484495,0.0-17.0-3.2,67659,List1B,white,man,,,,,"{""Q0"":""kate and mike are kissing each other""}","<img src=""stim_listB/kiss2.gif""style=""height:400px;""></stim_listB>",are kissing each other,
null,"<div style=""font-size:60px;"">+</div>",,html-keyboard-response,238,1485005,0.0-17.0-0.3,67659,List1B,white,man,,,,null,,,,
null,"<img src=""stim_listB/marry8.gif""style=""height:400px;""></stim_listB>",,html-keyboard-response,239,1487007,0.0-17.0-1.3,67659,List1B,white,man,,,,null,,,,
null,are marrying each other,,html-keyboard-response,240,1489008,0.0-17.0-2.3,67659,List1B,white,man,,,,null,,,,
12966,,,survey-text,241,1501975,0.0-17.0-3.3,67659,List1B,white,man,,,,,"{""Q0"":""jane and beth are marrying each other""}","<img src=""stim_listB/marry8.gif""style=""height:400px;""></stim_listB>",are marrying each other,
null,"<div style=""font-size:60px;"">+</div>",,html-keyboard-response,242,1502487,0.0-17.0-0.4,67659,List1B,white,man,,,,null,,,,
null,"<img src=""stim_listB/flirt7.gif""style=""height:400px;""></stim_listB>",,html-keyboard-response,243,1504488,0.0-17.0-1.4,67659,List1B,white,man,,,,null,,,,
null,is flirting with,,html-keyboard-response,244,1506502,0.0-17.0-2.4,67659,List1B,white,man,,,,null,,,,
10575,,,survey-text,245,1517077,0.0-17.0-3.4,67659,List1B,white,man,,,,,"{""Q0"":""beth is flirting with jane""}","<img src=""stim_listB/flirt7.gif""style=""height:400px;""></stim_listB>",is flirting with,
null,"<div style=""font-size:60px;"">+</div>",,html-keyboard-response,246,1517577,0.0-17.0-0.5,67659,List1B,white,man,,,,null,,,,
null,"<img src=""stim_listB/argue5.gif""style=""height:400px;""></stim_listB>",,html-keyboard-response,247,1519587,0.0-17.0-1.5,67659,List1B,white,man,,,,null,,,,
null,is arguing with,,html-keyboard-response,248,1521602,0.0-17.0-2.5,67659,List1B,white,man,,,,null,,,,
10643,,,survey-text,249,1532245,0.0-17.0-3.5,67659,List1B,white,man,,,,,"{""Q0"":""mike is arguing with luke""}","<img src=""stim_listB/argue5.gif""style=""height:400px;""></stim_listB>",is arguing with,
null,"<div style=""font-size:60px;"">+</div>",,html-keyboard-response,250,1532753,0.0-17.0-0.6,67659,List1B,white,man,,,,null,,,,
null,"<img src=""stim_listB/argue8.gif""style=""height:400px;""></stim_listB>",,html-keyboard-response,251,1534754,0.0-17.0-1.6,67659,List1B,white,man,,,,null,,,,
null,are arguing with each other,,html-keyboard-response,252,1536768,0.0-17.0-2.6,67659,List1B,white,man,,,,null,,,,
17059,,,survey-text,253,1553827,0.0-17.0-3.6,67659,List1B,white,man,,,,,"{""Q0"":""beth and jane are arguing with each other""}","<img src=""stim_listB/argue8.gif""style=""height:400px;""></stim_listB>",are arguing with each other,
null,"<div style=""font-size:60px;"">+</div>",,html-keyboard-response,254,1554335,0.0-17.0-0.7,67659,List1B,white,man,,,,null,,,,
null,"<img src=""stim_listB/dance8.gif""style=""height:400px;""></stim_listB>",,html-keyboard-response,255,1556336,0.0-17.0-1.7,67659,List1B,white,man,,,,null,,,,
null,are dancing with each other,,html-keyboard-response,256,1558351,0.0-17.0-2.7,67659,List1B,white,man,,,,null,,,,
12606,,,survey-text,257,1570973,0.0-17.0-3.7,67659,List1B,white,man,,,,,"{""Q0"":""kate and ruth are dancing with each other""}","<img src=""stim_listB/dance8.gif""style=""height:400px;""></stim_listB>",are dancing with each other,
null,"<div style=""font-size:60px;"">+</div>",,html-keyboard-response,258,1571485,0.0-17.0-0.8,67659,List1B,white,man,,,,null,,,,
null,"<img src=""stim_listB/touch8.gif""style=""height:400px;""></stim_listB>",,html-keyboard-response,259,1573485,0.0-17.0-1.8,67659,List1B,white,man,,,,null,,,,
null,are touching each other,,html-keyboard-response,260,1575499,0.0-17.0-2.8,67659,List1B,white,man,,,,null,,,,
12877,,,survey-text,261,1588376,0.0-17.0-3.8,67659,List1B,white,man,,,,,"{""Q0"":""ruth and beth are touching each other""}","<img src=""stim_listB/touch8.gif""style=""height:400px;""></stim_listB>",are touching each other,
null,"<div style=""font-size:60px;"">+</div>",,html-keyboard-response,262,1588884,0.0-17.0-0.9,67659,List1B,white,man,,,,null,,,,
null,"<img src=""stim_listB/talk2.gif""style=""height:400px;""></stim_listB>",,html-keyboard-response,263,1590886,0.0-17.0-1.9,67659,List1B,white,man,,,,null,,,,
null,are talking to each other,,html-keyboard-response,264,1592900,0.0-17.0-2.9,67659,List1B,white,man,,,,null,,,,
12260,,,survey-text,265,1605160,0.0-17.0-3.9,67659,List1B,white,man,,,,,"{""Q0"":""mike and beth are talking to each other""}","<img src=""stim_listB/talk2.gif""style=""height:400px;""></stim_listB>",are talking to each other,
null,"<div style=""font-size:60px;"">+</div>",,html-keyboard-response,266,1605667,0.0-17.0-0.10,67659,List1B,white,man,,,,null,,,,
null,"<img src=""stim_listB/argue6.gif""style=""height:400px;""></stim_listB>",,html-keyboard-response,267,1607667,0.0-17.0-1.10,67659,List1B,white,man,,,,null,,,,
null,are arguing with each other,,html-keyboard-response,268,1609678,0.0-17.0-2.10,67659,List1B,white,man,,,,null,,,,
13761,,,survey-text,269,1623439,0.0-17.0-3.10,67659,List1B,white,man,,,,,"{""Q0"":""fred and dave are arguing with each other""}","<img src=""stim_listB/argue6.gif""style=""height:400px;""></stim_listB>",are arguing with each other,
null,"<div style=""font-size:60px;"">+</div>",,html-keyboard-response,270,1623949,0.0-17.0-0.11,67659,List1B,white,man,,,,null,,,,
null,"<img src=""stim_listB/kiss4.gif""style=""height:400px;""></stim_listB>",,html-keyboard-response,271,1625951,0.0-17.0-1.11,67659,List1B,white,man,,,,null,,,,
null,are kissing each other,,html-keyboard-response,272,1627965,0.0-17.0-2.11,67659,List1B,white,man,,,,null,,,,
14925,,,survey-text,273,1642890,0.0-17.0-3.11,67659,List1B,white,man,,,,,"{""Q0"":""jane and dave are kissing each other""}","<img src=""stim_listB/kiss4.gif""style=""height:400px;""></stim_listB>",are kissing each other,
null,"<div style=""font-size:60px;"">+</div>",,html-keyboard-response,274,1643390,0.0-17.0-0.12,67659,List1B,white,man,,,,null,,,,
null,"<img src=""stim_listB/touch5.gif""style=""height:400px;""></stim_listB>",,html-keyboard-response,275,1645405,0.0-17.0-1.12,67659,List1B,white,man,,,,null,,,,
null,is touching,,html-keyboard-response,276,1647413,0.0-17.0-2.12,67659,List1B,white,man,,,,null,,,,
8792,,,survey-text,277,1656205,0.0-17.0-3.12,67659,List1B,white,man,,,,,"{""Q0"":""dave is touching mike""}","<img src=""stim_listB/touch5.gif""style=""height:400px;""></stim_listB>",is touching,
null,"<div style=""font-size:60px;"">+</div>",,html-keyboard-response,278,1656715,0.0-17.0-0.13,67659,List1B,white,man,,,,null,,,,
null,"<img src=""stim_listB/touch3.gif""style=""height:400px;""></stim_listB>",,html-keyboard-response,279,1658715,0.0-17.0-1.13,67659,List1B,white,man,,,,null,,,,
null,is touching,,html-keyboard-response,280,1660730,0.0-17.0-2.13,67659,List1B,white,man,,,,null,,,,
8623,,,survey-text,281,1669353,0.0-17.0-3.13,67659,List1B,white,man,,,,,"{""Q0"":""jane is touching dave""}","<img src=""stim_listB/touch3.gif""style=""height:400px;""></stim_listB>",is touching,
null,"<div style=""font-size:60px;"">+</div>",,html-keyboard-response,282,1669864,0.0-17.0-0.14,67659,List1B,white,man,,,,null,,,,
null,"<img src=""stim_listB/marry4.gif""style=""height:400px;""></stim_listB>",,html-keyboard-response,283,1671865,0.0-17.0-1.14,67659,List1B,white,man,,,,null,,,,
null,are marrying each other,,html-keyboard-response,284,1673874,0.0-17.0-2.14,67659,List1B,white,man,,,,null,,,,
12013,,,survey-text,285,1685887,0.0-17.0-3.14,67659,List1B,white,man,,,,,"{""Q0"":""jane and luke are marrying each other""}","<img src=""stim_listB/marry4.gif""style=""height:400px;""></stim_listB>",are marrying each other,
null,"<div style=""font-size:60px;"">+</div>",,html-keyboard-response,286,1686397,0.0-17.0-0.15,67659,List1B,white,man,,,,null,,,,
null,"<img src=""stim_listB/kiss1.gif""style=""height:400px;""></stim_listB>",,html-keyboard-response,287,1688398,0.0-17.0-1.15,67659,List1B,white,man,,,,null,,,,
null,is kissing,,html-keyboard-response,288,1690412,0.0-17.0-2.15,67659,List1B,white,man,,,,null,,,,
8943,,,survey-text,289,1699355,0.0-17.0-3.15,67659,List1B,white,man,,,,,"{""Q0"":""fred is kissing beth""}","<img src=""stim_listB/kiss1.gif""style=""height:400px;""></stim_listB>",is kissing,
null,"<div style=""font-size:60px;"">+</div>",,html-keyboard-response,290,1699864,0.0-17.0-0.16,67659,List1B,white,man,,,,null,,,,
null,"<img src=""stim_listB/dance4.gif""style=""height:400px;""></stim_listB>",,html-keyboard-response,291,1701864,0.0-17.0-1.16,67659,List1B,white,man,,,,null,,,,
null,are dancing with each other,,html-keyboard-response,292,1703870,0.0-17.0-2.16,67659,List1B,white,man,,,,null,,,,
15082,,,survey-text,293,1718952,0.0-17.0-3.16,67659,List1B,white,man,,,,,"{""Q0"":""dave and ruth are dancing with each other""}","<img src=""stim_listB/dance4.gif""style=""height:400px;""></stim_listB>",are dancing with each other,
null,"<div style=""font-size:60px;"">+</div>",,html-keyboard-response,294,1719462,0.0-17.0-0.17,67659,List1B,white,man,,,,null,,,,
null,"<img src=""stim_listB/shout6.gif""style=""height:400px;""></stim_listB>",,html-keyboard-response,295,1721464,0.0-17.0-1.17,67659,List1B,white,man,,,,null,,,,
null,are shouting at each other,,html-keyboard-response,296,1723473,0.0-17.0-2.17,67659,List1B,white,man,,,,null,,,,
13563,,,survey-text,297,1737036,0.0-17.0-3.17,67659,List1B,white,man,,,,,"{""Q0"":""mike and dave are shouting at each other""}","<img src=""stim_listB/shout6.gif""style=""height:400px;""></stim_listB>",are shouting at each other,
null,"<div style=""font-size:60px;"">+</div>",,html-keyboard-response,298,1737545,0.0-17.0-0.18,67659,List1B,white,man,,,,null,,,,
null,"<img src=""stim_listB/fight7.gif""style=""height:400px;""></stim_listB>",,html-keyboard-response,299,1739546,0.0-17.0-1.18,67659,List1B,white,man,,,,null,,,,
null,is fighting,,html-keyboard-response,300,1741561,0.0-17.0-2.18,67659,List1B,white,man,,,,null,,,,
7855,,,survey-text,301,1749416,0.0-17.0-3.18,67659,List1B,white,man,,,,,"{""Q0"":""kate is fighting jane""}","<img src=""stim_listB/fight7.gif""style=""height:400px;""></stim_listB>",is fighting,
null,"<div style=""font-size:60px;"">+</div>",,html-keyboard-response,302,1749928,0.0-17.0-0.19,67659,List1B,white,man,,,,null,,,,
null,"<img src=""stim_listB/shout7.gif""style=""height:400px;""></stim_listB>",,html-keyboard-response,303,1751929,0.0-17.0-1.19,67659,List1B,white,man,,,,null,,,,
null,is shouting at,,html-keyboard-response,304,1753942,0.0-17.0-2.19,67659,List1B,white,man,,,,null,,,,
10146,,,survey-text,305,1764088,0.0-17.0-3.19,67659,List1B,white,man,,,,,"{""Q0"":""ruth is shouting at beth""}","<img src=""stim_listB/shout7.gif""style=""height:400px;""></stim_listB>",is shouting at,
3682,"<img src='img/portrait_matrix_list1.jpg' style='width:900px;height:500px;''></img><p>If you have memorised all the portraits and names and are ready to start, press Continue.</p><p><strong>Please note: Your memory of these faces will be tested 4 times during this experiment.</strong></p>",0,html-button-response,306,1767786,0.0-18.0-0.0,67659,List1B,white,man,,,,,,,,
2811,"<img src=""portrait/BM1.jpg""style=""height:400px;""></img>",4,html-button-response,307,1771604,0.0-18.0-1.0,67659,List1B,white,man,,TRUE,4,,,,,
null,CORRECT,,html-keyboard-response,308,1773127,0.0-18.0-2.0-0.0,67659,List1B,white,man,,,,null,,,,
1608,"<img src=""portrait/BW1.jpg""style=""height:400px;""></img>",0,html-button-response,309,1774735,0.0-18.0-4.0,67659,List1B,white,man,,TRUE,0,,,,,
null,CORRECT,,html-keyboard-response,310,1776244,0.0-18.0-5.0-0.0,67659,List1B,white,man,,,,null,,,,
1877,"<img src=""portrait/BM2.jpg""style=""height:400px;""></img>",5,html-button-response,311,1778121,0.0-18.0-7.0,67659,List1B,white,man,,TRUE,5,,,,,
null,CORRECT,,html-keyboard-response,312,1779627,0.0-18.0-8.0-0.0,67659,List1B,white,man,,,,null,,,,
1512,"<img src=""portrait/BW2.jpg""style=""height:400px;""></img>",2,html-button-response,313,1781139,0.0-18.0-10.0,67659,List1B,white,man,,TRUE,2,,,,,
null,CORRECT,,html-keyboard-response,314,1782644,0.0-18.0-11.0-0.0,67659,List1B,white,man,,,,null,,,,
1492,"<img src=""portrait/WM2.jpg""style=""height:400px;""></img>",7,html-button-response,315,1784136,0.0-18.0-13.0,67659,List1B,white,man,,TRUE,7,,,,,
null,CORRECT,,html-keyboard-response,316,1785659,0.0-18.0-14.0-0.0,67659,List1B,white,man,,,,null,,,,
1579,"<img src=""portrait/WW2.jpg""style=""height:400px;""></img>",3,html-button-response,317,1787238,0.0-18.0-16.0,67659,List1B,white,man,,TRUE,3,,,,,
null,CORRECT,,html-keyboard-response,318,1788759,0.0-18.0-17.0-0.0,67659,List1B,white,man,,,,null,,,,
1444,"<img src=""portrait/WW1.jpg""style=""height:400px;""></img>",1,html-button-response,319,1790203,0.0-18.0-19.0,67659,List1B,white,man,,TRUE,1,,,,,
null,CORRECT,,html-keyboard-response,320,1791726,0.0-18.0-20.0-0.0,67659,List1B,white,man,,,,null,,,,
1545,"<img src=""portrait/WM1.jpg""style=""height:400px;""></img>",6,html-button-response,321,1793286,0.0-18.0-22.0,67659,List1B,white,man,,TRUE,6,,,,,
null,CORRECT,,html-keyboard-response,322,1794809,0.0-18.0-23.0-0.0,67659,List1B,white,man,,,,null,,,,
12059,<p>You got 8 out of 8 right first time. Press Continue.</p>,0,html-button-response,323,1806868,0.0-18.0-25.0,67659,List1B,white,man,,,,,,,,
null,"<div style=""font-size:60px;"">+</div>",,html-keyboard-response,324,1808381,0.0-19.0-0.0,67659,List1B,white,man,,,,null,,,,
null,"<img src=""stim_listB/kiss6.gif""style=""height:400px;""></stim_listB>",,html-keyboard-response,325,1810392,0.0-19.0-1.0,67659,List1B,white,man,,,,null,,,,
null,are kissing each other,,html-keyboard-response,326,1812406,0.0-19.0-2.0,67659,List1B,white,man,,,,null,,,,
12609,,,survey-text,327,1825015,0.0-19.0-3.0,67659,List1B,white,man,,,,,"{""Q0"":""dave and mike are kissing each other""}","<img src=""stim_listB/kiss6.gif""style=""height:400px;""></stim_listB>",are kissing each other,
null,"<div style=""font-size:60px;"">+</div>",,html-keyboard-response,328,1825525,0.0-19.0-0.1,67659,List1B,white,man,,,,null,,,,
null,"<img src=""stim_listB/play3.gif""style=""height:400px;""></stim_listB>",,html-keyboard-response,329,1827525,0.0-19.0-1.1,67659,List1B,white,man,,,,null,,,,
null,is playing with,,html-keyboard-response,330,1829539,0.0-19.0-2.1,67659,List1B,white,man,,,,null,,,,
11551,,,survey-text,331,1841090,0.0-19.0-3.1,67659,List1B,white,man,,,,,"{""Q0"":""jane is playing with dave""}","<img src=""stim_listB/play3.gif""style=""height:400px;""></stim_listB>",is playing with,
null,"<div style=""font-size:60px;"">+</div>",,html-keyboard-response,332,1841591,0.0-19.0-0.2,67659,List1B,white,man,,,,null,,,,
null,"<img src=""stim_listB/dance1.gif""style=""height:400px;""></stim_listB>",,html-keyboard-response,333,1843592,0.0-19.0-1.2,67659,List1B,white,man,,,,null,,,,
null,is dancing with,,html-keyboard-response,334,1845605,0.0-19.0-2.2,67659,List1B,white,man,,,,null,,,,
9308,,,survey-text,335,1854913,0.0-19.0-3.2,67659,List1B,white,man,,,,,"{""Q0"":""kate is dancing with fred""}","<img src=""stim_listB/dance1.gif""style=""height:400px;""></stim_listB>",is dancing with,
null,"<div style=""font-size:60px;"">+</div>",,html-keyboard-response,336,1855423,0.0-19.0-0.3,67659,List1B,white,man,,,,null,,,,
null,"<img src=""stim_listB/play8.gif""style=""height:400px;""></stim_listB>",,html-keyboard-response,337,1857425,0.0-19.0-1.3,67659,List1B,white,man,,,,null,,,,
null,are playing with each other,,html-keyboard-response,338,1859434,0.0-19.0-2.3,67659,List1B,white,man,,,,null,,,,
12911,,,survey-text,339,1872345,0.0-19.0-3.3,67659,List1B,white,man,,,,,"{""Q0"":""ruth and beth are playing with each other""}","<img src=""stim_listB/play8.gif""style=""height:400px;""></stim_listB>",are playing with each other,
null,"<div style=""font-size:60px;"">+</div>",,html-keyboard-response,340,1872856,0.0-19.0-0.4,67659,List1B,white,man,,,,null,,,,
null,"<img src=""stim_listB/play7.gif""style=""height:400px;""></stim_listB>",,html-keyboard-response,341,1874858,0.0-19.0-1.4,67659,List1B,white,man,,,,null,,,,
null,is playing with,,html-keyboard-response,342,1876871,0.0-19.0-2.4,67659,List1B,white,man,,,,null,,,,
9739,,,survey-text,343,1886610,0.0-19.0-3.4,67659,List1B,white,man,,,,,"{""Q0"":""jane is playing with kate""}","<img src=""stim_listB/play7.gif""style=""height:400px;""></stim_listB>",is playing with,
null,"<div style=""font-size:60px;"">+</div>",,html-keyboard-response,344,1887122,0.0-19.0-0.5,67659,List1B,white,man,,,,null,,,,
null,"<img src=""stim_listB/touch2.gif""style=""height:400px;""></stim_listB>",,html-keyboard-response,345,1889130,0.0-19.0-1.5,67659,List1B,white,man,,,,null,,,,
null,are touching each other,,html-keyboard-response,346,1891142,0.0-19.0-2.5,67659,List1B,white,man,,,,null,,,,
13019,,,survey-text,347,1904161,0.0-19.0-3.5,67659,List1B,white,man,,,,,"{""Q0"":""beth and fred are touching each other""}","<img src=""stim_listB/touch2.gif""style=""height:400px;""></stim_listB>",are touching each other,
null,"<div style=""font-size:60px;"">+</div>",,html-keyboard-response,348,1904671,0.0-19.0-0.6,67659,List1B,white,man,,,,null,,,,
null,"<img src=""stim_listB/play1.gif""style=""height:400px;""></stim_listB>",,html-keyboard-response,349,1906672,0.0-19.0-1.6,67659,List1B,white,man,,,,null,,,,
null,is playing with,,html-keyboard-response,350,1908672,0.0-19.0-2.6,67659,List1B,white,man,,,,null,,,,
7823,,,survey-text,351,1916496,0.0-19.0-3.6,67659,List1B,white,man,,,,,"{""Q0"":""kate is playing with mike""}","<img src=""stim_listB/play1.gif""style=""height:400px;""></stim_listB>",is playing with,
null,"<div style=""font-size:60px;"">+</div>",,html-keyboard-response,352,1917004,0.0-19.0-0.7,67659,List1B,white,man,,,,null,,,,
null,"<img src=""stim_listB/argue7.gif""style=""height:400px;""></stim_listB>",,html-keyboard-response,353,1919006,0.0-19.0-1.7,67659,List1B,white,man,,,,null,,,,
null,is arguing with,,html-keyboard-response,354,1921019,0.0-19.0-2.7,67659,List1B,white,man,,,,null,,,,
9377,,,survey-text,355,1930396,0.0-19.0-3.7,67659,List1B,white,man,,,,,"{""Q0"":""ruth is arguing with kate""}","<img src=""stim_listB/argue7.gif""style=""height:400px;""></stim_listB>",is arguing with,
null,"<div style=""font-size:60px;"">+</div>",,html-keyboard-response,356,1930905,0.0-19.0-0.8,67659,List1B,white,man,,,,null,,,,
null,"<img src=""stim_listB/dance6.gif""style=""height:400px;""></stim_listB>",,html-keyboard-response,357,1932905,0.0-19.0-1.8,67659,List1B,white,man,,,,null,,,,
null,are dancing with each other,,html-keyboard-response,358,1934920,0.0-19.0-2.8,67659,List1B,white,man,,,,null,,,,
12708,,,survey-text,359,1947628,0.0-19.0-3.8,67659,List1B,white,man,,,,,"{""Q0"":""mike and luke are dancing with each other""}","<img src=""stim_listB/dance6.gif""style=""height:400px;""></stim_listB>",are dancing with each other,
null,"<div style=""font-size:60px;"">+</div>",,html-keyboard-response,360,1948137,0.0-19.0-0.9,67659,List1B,white,man,,,,null,,,,
null,"<img src=""stim_listB/fight4.gif""style=""height:400px;""></stim_listB>",,html-keyboard-response,361,1950143,0.0-19.0-1.9,67659,List1B,white,man,,,,null,,,,
null,are fighting each other,,html-keyboard-response,362,1952153,0.0-19.0-2.9,67659,List1B,white,man,,,,null,,,,
13026,,,survey-text,363,1965179,0.0-19.0-3.9,67659,List1B,white,man,,,,,"{""Q0"":""luke and ruth are fighting each other""}","<img src=""stim_listB/fight4.gif""style=""height:400px;""></stim_listB>",are fighting each other,
null,"<div style=""font-size:60px;"">+</div>",,html-keyboard-response,364,1965687,0.0-19.0-0.10,67659,List1B,white,man,,,,null,,,,
null,"<img src=""stim_listB/flirt3.gif""style=""height:400px;""></stim_listB>",,html-keyboard-response,365,1967688,0.0-19.0-1.10,67659,List1B,white,man,,,,null,,,,
null,is flirting with,,html-keyboard-response,366,1969701,0.0-19.0-2.10,67659,List1B,white,man,,,,null,,,,
15156,,,survey-text,367,1984857,0.0-19.0-3.10,67659,List1B,white,man,,,,,"{""Q0"":""luke is flirting with jane""}","<img src=""stim_listB/flirt3.gif""style=""height:400px;""></stim_listB>",is flirting with,
null,"<div style=""font-size:60px;"">+</div>",,html-keyboard-response,368,1985369,0.0-19.0-0.11,67659,List1B,white,man,,,,null,,,,
null,"<img src=""stim_listB/talk8.gif""style=""height:400px;""></stim_listB>",,html-keyboard-response,369,1987370,0.0-19.0-1.11,67659,List1B,white,man,,,,null,,,,
null,are talking to each other,,html-keyboard-response,370,1989383,0.0-19.0-2.11,67659,List1B,white,man,,,,null,,,,
18641,,,survey-text,371,2008039,0.0-19.0-3.11,67659,List1B,white,man,,,,,"{""Q0"":""ruth and kate are talking to each other""}","<img src=""stim_listB/talk8.gif""style=""height:400px;""></stim_listB>",are talking to each other,
null,"<div style=""font-size:60px;"">+</div>",,html-keyboard-response,372,2008551,0.0-19.0-0.12,67659,List1B,white,man,,,,null,,,,
null,"<img src=""stim_listB/touch7.gif""style=""height:400px;""></stim_listB>",,html-keyboard-response,373,2010551,0.0-19.0-1.12,67659,List1B,white,man,,,,null,,,,
null,is touching,,html-keyboard-response,374,2012566,0.0-19.0-2.12,67659,List1B,white,man,,,,null,,,,
8058,,,survey-text,375,2020624,0.0-19.0-3.12,67659,List1B,white,man,,,,,"{""Q0"":""kate is touching jane""}","<img src=""stim_listB/touch7.gif""style=""height:400px;""></stim_listB>",is touching,
null,"<div style=""font-size:60px;"">+</div>",,html-keyboard-response,376,2021150,0.0-19.0-0.13,67659,List1B,white,man,,,,null,,,,
null,"<img src=""stim_listB/argue1.gif""style=""height:400px;""></stim_listB>",,html-keyboard-response,377,2023152,0.0-19.0-1.13,67659,List1B,white,man,,,,null,,,,
null,is arguing with,,html-keyboard-response,378,2025165,0.0-19.0-2.13,67659,List1B,white,man,,,,null,,,,
9996,,,survey-text,379,2035161,0.0-19.0-3.13,67659,List1B,white,man,,,,,"{""Q0"":""beth is arguing with mike""}","<img src=""stim_listB/argue1.gif""style=""height:400px;""></stim_listB>",is arguing with,
null,"<div style=""font-size:60px;"">+</div>",,html-keyboard-response,380,2035668,0.0-19.0-0.14,67659,List1B,white,man,,,,null,,,,
null,"<img src=""stim_listB/argue3.gif""style=""height:400px;""></stim_listB>",,html-keyboard-response,381,2037683,0.0-19.0-1.14,67659,List1B,white,man,,,,null,,,,
null,is arguing with,,html-keyboard-response,382,2039697,0.0-19.0-2.14,67659,List1B,white,man,,,,null,,,,
15572,,,survey-text,383,2055269,0.0-19.0-3.14,67659,List1B,white,man,,,,,"{""Q0"":""dave is arguing with ruth""}","<img src=""stim_listB/argue3.gif""style=""height:400px;""></stim_listB>",is arguing with,
null,"<div style=""font-size:60px;"">+</div>",,html-keyboard-response,384,2055782,0.0-19.0-0.15,67659,List1B,white,man,,,,null,,,,
null,"<img src=""stim_listB/fight5.gif""style=""height:400px;""></stim_listB>",,html-keyboard-response,385,2057784,0.0-19.0-1.15,67659,List1B,white,man,,,,null,,,,
null,is fighting,,html-keyboard-response,386,2059786,0.0-19.0-2.15,67659,List1B,white,man,,,,null,,,,
8484,,,survey-text,387,2068270,0.0-19.0-3.15,67659,List1B,white,man,,,,,"{""Q0"":""mike is fighting with dave""}","<img src=""stim_listB/fight5.gif""style=""height:400px;""></stim_listB>",is fighting,
null,"<div style=""font-size:60px;"">+</div>",,html-keyboard-response,388,2068781,0.0-19.0-0.16,67659,List1B,white,man,,,,null,,,,
null,"<img src=""stim_listB/talk7.gif""style=""height:400px;""></stim_listB>",,html-keyboard-response,389,2070783,0.0-19.0-1.16,67659,List1B,white,man,,,,null,,,,
null,is talking to,,html-keyboard-response,390,2072784,0.0-19.0-2.16,67659,List1B,white,man,,,,null,,,,
10159,,,survey-text,391,2082943,0.0-19.0-3.16,67659,List1B,white,man,,,,,"{""Q0"":""jane is talking to beth""}","<img src=""stim_listB/talk7.gif""style=""height:400px;""></stim_listB>",is talking to,
null,"<div style=""font-size:60px;"">+</div>",,html-keyboard-response,392,2083450,0.0-19.0-0.17,67659,List1B,white,man,,,,null,,,,
null,"<img src=""stim_listB/marry3.gif""style=""height:400px;""></stim_listB>",,html-keyboard-response,393,2085456,0.0-19.0-1.17,67659,List1B,white,man,,,,null,,,,
null,is marrying,,html-keyboard-response,394,2087458,0.0-19.0-2.17,67659,List1B,white,man,,,,null,,,,
8877,,,survey-text,395,2096335,0.0-19.0-3.17,67659,List1B,white,man,,,,,"{""Q0"":""ruth is marrying dave""}","<img src=""stim_listB/marry3.gif""style=""height:400px;""></stim_listB>",is marrying,
null,"<div style=""font-size:60px;"">+</div>",,html-keyboard-response,396,2096847,0.0-19.0-0.18,67659,List1B,white,man,,,,null,,,,
null,"<img src=""stim_listB/talk4.gif""style=""height:400px;""></stim_listB>",,html-keyboard-response,397,2098849,0.0-19.0-1.18,67659,List1B,white,man,,,,null,,,,
null,are talking to each other,,html-keyboard-response,398,2100862,0.0-19.0-2.18,67659,List1B,white,man,,,,null,,,,
12772,,,survey-text,399,2113634,0.0-19.0-3.18,67659,List1B,white,man,,,,,"{""Q0"":""dave and ruth are talking to each other""}","<img src=""stim_listB/talk4.gif""style=""height:400px;""></stim_listB>",are talking to each other,
null,"<div style=""font-size:60px;"">+</div>",,html-keyboard-response,400,2114146,0.0-19.0-0.19,67659,List1B,white,man,,,,null,,,,
null,"<img src=""stim_listB/dance7.gif""style=""height:400px;""></stim_listB>",,html-keyboard-response,401,2116147,0.0-19.0-1.19,67659,List1B,white,man,,,,null,,,,
null,is dancing with,,html-keyboard-response,402,2118154,0.0-19.0-2.19,67659,List1B,white,man,,,,null,,,,
10899,,,survey-text,403,2129053,0.0-19.0-3.19,67659,List1B,white,man,,,,,"{""Q0"":""beth is dancing with jane""}","<img src=""stim_listB/dance7.gif""style=""height:400px;""></stim_listB>",is dancing with,
2678,<p>Thank you for completing that task.</p><p>The final part of this session is a short questionnaire.</p><p>Press Continue.</p>,0,html-button-response,404,2131746,0.0-20.0,67659,List1B,white,man,,,,,,,,
43723,,,survey-text,405,2176484,0.0-21.0,67659,List1B,white,man,,,,,"{""Q0"":""70"",""Q1"":""Zulu"",""Q2"":""English"",""Q3"":""United Kingdom"",""Q4"":""White"",""Q5"":""Male""}",,,demographics
8885,,,survey-likert,406,2185432,0.0-22.0,67659,List1B,white,man,,,,,"{""Q0"":4}",,,likert_ESS
12696,,,survey-likert,407,2198136,0.0-23.0,67659,List1B,white,man,,,,,"{""Q0"":3}",,,likert_NSSAL_Q1
3951,,,survey-likert,408,2202103,0.0-24.0,67659,List1B,white,man,,,,,"{""Q0"":3}",,,likert_NSSAL_Q2
7382,,,survey-likert,409,2209503,0.0-25.0,67659,List1B,white,man,,,,,"{""Q0"":4}",,,likert_CGRS_Q1
6882,,,survey-likert,410,2216401,0.0-26.0,67659,List1B,white,man,,,,,"{""Q0"":2}",,,likert_CGRS_Q2
3117,,,survey-likert,411,2219518,0.0-27.0,67659,List1B,white,man,,,,,"{""Q0"":2}",,,likert_CGRS_Q3
5650,,,survey-text,412,2225184,0.0-28.0,67659,List1B,white,man,,,,,"{""Q0"":""ccc""}",,,worker_id
21563,,,external-html,413,2246834,0.0-29.0,67659,List1B,white,man,debrief.html,,,,,,,
