rt,stimulus,button_pressed,trial_type,trial_index,time_elapsed,internal_node_id,subject,list,ppt_race,ppt_gender,url,first_guess,correct,key_press,responses,image_type,phrase_type,test_part
24279,Welcome to the experiment. Press Continue to begin.,0,html-button-response,0,24281,0.0-0.0,68034,List2B,white,man,,,,,,,,
20967,,,external-html,1,46342,0.0-1.0,68034,List2B,white,man,consent.html,,,,,,,
6680,"<p>On the next page, you will see portraits of 8 people and their names.</p><p>Your first task is to take a few minutes to memorise the names of these people.</p><p>You will have to recall their names during the rest of the experiment, so it is</p><p>essential that you try to memorise these people and their names as best as you can.</p><br><p><strong>You will then be tested on your memory of these names and portraits.</strong></p><br><p>The experiment will start after you have completed this memory test.</p><br><p>Ready?</p>",0,html-button-response,2,53023,0.0-2.0,68034,List2B,white,man,,,,,,,,
241894,"<img src='img/portrait_matrix_list2.jpg' style='width:900px;height:500px;''></img><p>If you have memorised all the portraits and names and are ready to start, press Continue.</p><p><strong>Please note: Your memory of these faces will be tested 4 times during this experiment.</strong></p>",0,html-button-response,3,295922,0.0-3.0-0.0,68034,List2B,white,man,,,,,,,,
3999,"<img src=""portrait/WM2.jpg""style=""height:400px;""></img>",7,html-button-response,4,300926,0.0-3.0-1.0,68034,List2B,white,man,,TRUE,7,,,,,
null,CORRECT,,html-keyboard-response,5,302430,0.0-3.0-2.0-0.0,68034,List2B,white,man,,,,null,,,,
3154,"<img src=""portrait/WW2.jpg""style=""height:400px;""></img>",3,html-button-response,6,305586,0.0-3.0-4.0,68034,List2B,white,man,,TRUE,3,,,,,
null,CORRECT,,html-keyboard-response,7,307092,0.0-3.0-5.0-0.0,68034,List2B,white,man,,,,null,,,,
2954,"<img src=""portrait/BW1.jpg""style=""height:400px;""></img>",0,html-button-response,8,310048,0.0-3.0-7.0,68034,List2B,white,man,,TRUE,0,,,,,
null,CORRECT,,html-keyboard-response,9,311551,0.0-3.0-8.0-0.0,68034,List2B,white,man,,,,null,,,,
2247,"<img src=""portrait/BM1.jpg""style=""height:400px;""></img>",4,html-button-response,10,313800,0.0-3.0-10.0,68034,List2B,white,man,,TRUE,4,,,,,
null,CORRECT,,html-keyboard-response,11,315303,0.0-3.0-11.0-0.0,68034,List2B,white,man,,,,null,,,,
1458,"<img src=""portrait/BW2.jpg""style=""height:400px;""></img>",2,html-button-response,12,316763,0.0-3.0-13.0,68034,List2B,white,man,,TRUE,2,,,,,
null,CORRECT,,html-keyboard-response,13,318267,0.0-3.0-14.0-0.0,68034,List2B,white,man,,,,null,,,,
2275,"<img src=""portrait/BM2.jpg""style=""height:400px;""></img>",5,html-button-response,14,320544,0.0-3.0-16.0,68034,List2B,white,man,,TRUE,5,,,,,
null,CORRECT,,html-keyboard-response,15,322048,0.0-3.0-17.0-0.0,68034,List2B,white,man,,,,null,,,,
4080,"<img src=""portrait/WM1.jpg""style=""height:400px;""></img>",6,html-button-response,16,326130,0.0-3.0-19.0,68034,List2B,white,man,,TRUE,6,,,,,
null,CORRECT,,html-keyboard-response,17,327633,0.0-3.0-20.0-0.0,68034,List2B,white,man,,,,null,,,,
3343,"<img src=""portrait/WW1.jpg""style=""height:400px;""></img>",0,html-button-response,18,330977,0.0-3.0-22.0,68034,List2B,white,man,,TRUE,1,,,,,
2179,"<img src=""portrait/WW1.jpg""style=""height:400px;""></img>",1,html-button-response,19,334162,0.0-3.0-24.0-0.0,68034,List2B,white,man,,FALSE,1,,,,,
null,CORRECT,,html-keyboard-response,20,335665,0.0-3.0-24.0-1.0-0.0,68034,List2B,white,man,,,,null,,,,
916,<p>You got 7 out of 8 right first time. Press Continue.</p>,0,html-button-response,21,336583,0.0-3.0-25.0,68034,List2B,white,man,,,,,,,,
1688,"As you did not score 100%, the memory game will repeat. Press Continue.",0,html-button-response,22,339274,0.0-3.0-26.0-0.0,68034,List2B,white,man,,,,,,,,
1990,"<img src='img/portrait_matrix_list2.jpg' style='width:900px;height:500px;''></img><p>If you have memorised all the portraits and names and are ready to start, press Continue.</p><p><strong>Please note: Your memory of these faces will be tested 4 times during this experiment.</strong></p>",0,html-button-response,23,342268,0.0-3.1-0.1,68034,List2B,white,man,,,,,,,,
2643,"<img src=""portrait/WM2.jpg""style=""height:400px;""></img>",7,html-button-response,24,345914,0.0-3.1-1.1,68034,List2B,white,man,,TRUE,7,,,,,
null,CORRECT,,html-keyboard-response,25,347418,0.0-3.1-2.1-0.1,68034,List2B,white,man,,,,null,,,,
2207,"<img src=""portrait/WW2.jpg""style=""height:400px;""></img>",3,html-button-response,26,349627,0.0-3.1-4.1,68034,List2B,white,man,,TRUE,3,,,,,
null,CORRECT,,html-keyboard-response,27,351138,0.0-3.1-5.1-0.1,68034,List2B,white,man,,,,null,,,,
2707,"<img src=""portrait/BW1.jpg""style=""height:400px;""></img>",0,html-button-response,28,353846,0.0-3.1-7.1,68034,List2B,white,man,,TRUE,0,,,,,
null,CORRECT,,html-keyboard-response,29,355349,0.0-3.1-8.1-0.1,68034,List2B,white,man,,,,null,,,,
1901,"<img src=""portrait/BM1.jpg""style=""height:400px;""></img>",4,html-button-response,30,357252,0.0-3.1-10.1,68034,List2B,white,man,,TRUE,4,,,,,
null,CORRECT,,html-keyboard-response,31,358756,0.0-3.1-11.1-0.1,68034,List2B,white,man,,,,null,,,,
2716,"<img src=""portrait/BW2.jpg""style=""height:400px;""></img>",2,html-button-response,32,361474,0.0-3.1-13.1,68034,List2B,white,man,,TRUE,2,,,,,
null,CORRECT,,html-keyboard-response,33,362976,0.0-3.1-14.1-0.1,68034,List2B,white,man,,,,null,,,,
2622,"<img src=""portrait/BM2.jpg""style=""height:400px;""></img>",5,html-button-response,34,365600,0.0-3.1-16.1,68034,List2B,white,man,,TRUE,5,,,,,
null,CORRECT,,html-keyboard-response,35,367103,0.0-3.1-17.1-0.1,68034,List2B,white,man,,,,null,,,,
2831,"<img src=""portrait/WM1.jpg""style=""height:400px;""></img>",6,html-button-response,36,369935,0.0-3.1-19.1,68034,List2B,white,man,,TRUE,6,,,,,
null,CORRECT,,html-keyboard-response,37,371438,0.0-3.1-20.1-0.1,68034,List2B,white,man,,,,null,,,,
3030,"<img src=""portrait/WW1.jpg""style=""height:400px;""></img>",1,html-button-response,38,374470,0.0-3.1-22.1,68034,List2B,white,man,,TRUE,1,,,,,
null,CORRECT,,html-keyboard-response,39,375972,0.0-3.1-23.1-0.1,68034,List2B,white,man,,,,null,,,,
2185,<p>You got 8 out of 8 right first time. Press Continue.</p>,0,html-button-response,40,378159,0.0-3.1-25.1,68034,List2B,white,man,,,,,,,,
26437,"<p>In this experiment, you will view photographs of the people from the memory game interacting.</p><p>By using the <strong>exact</strong> phrase given <i>after</i> the photograph appears and recalling the correct names of the people in the photographs, form a sentence describing the interaction. You do not need to capitalise names.</p><p>Type your answer in the space provided. Please complete every sentence before moving onto the next trial.</p><p>You will only have a few seconds to memorise each given photograph and phrase before you can respond, so try your best to focus.</p><p>An example is given below. Press 'Continue' when you are ready.</p><img src='img/speaking_example.jpg' style='width:800px;height:460px;''></img>",0,html-button-response,41,405600,0.0-4.0,68034,List2B,white,man,,,,,,,,
1453,"<p>Before the experiment starts, you will watch two example trials. Press 'Continue'.</p>",0,html-button-response,42,408055,0.0-5.0,68034,List2B,white,man,,,,,,,,
null,<img src='img/meet_eg.gif' style='height:400px;''></img>,,html-keyboard-response,43,411059,0.0-6.0,68034,List2B,white,man,,,,null,,,,
null,<p>is meeting</p>,,html-keyboard-response,44,413060,0.0-7.0,68034,List2B,white,man,,,,null,,,,
23756,<p><b>Answer:</b> jane is meeting ruth</p>,0,html-button-response,45,436817,0.0-8.0,68034,List2B,white,man,,,,,,,,
null,<img src='img/look_eg.gif' style='height:400px;''></img>,,html-keyboard-response,46,439823,0.0-9.0,68034,List2B,white,man,,,,null,,,,
null,<p>are looking at each other</p>,,html-keyboard-response,47,441824,0.0-10.0,68034,List2B,white,man,,,,null,,,,
1392,<p><b>Answer:</b> fred and mike are looking at each other</p>,0,html-button-response,48,443218,0.0-11.0,68034,List2B,white,man,,,,,,,,
5256,"<p>Ready to start the experiment?</p><br><p><strong>Remember to describe the picture using a full sentence,</strong></p><p><strong>that combines the names of the people with the <i>exact</i> phrase given.</strong></p><p><strong>To receive full payment you must do this correctly.</strong></p><p><strong> You do not need to capitalise names or use punctuation.</strong></p><br><p>Press 'Continue' to begin.</p>",0,html-button-response,49,449476,0.0-12.0,68034,List2B,white,man,,,,,,,,
null,"<div style=""font-size:60px;"">+</div>",,html-keyboard-response,50,450978,0.0-13.0-0.0,68034,List2B,white,man,,,,null,,,,
null,"<img src=""stim_listB/shout3.gif""style=""height:400px;""></stim_listB>",,html-keyboard-response,51,452981,0.0-13.0-1.0,68034,List2B,white,man,,,,null,,,,
null,is shouting at,,html-keyboard-response,52,454983,0.0-13.0-2.0,68034,List2B,white,man,,,,null,,,,
5103,,,survey-text,53,460087,0.0-13.0-3.0,68034,List2B,white,man,,,,,"{""Q0"":""beth is shouting at fred""}","<img src=""stim_listB/shout3.gif""style=""height:400px;""></stim_listB>",is shouting at,
null,"<div style=""font-size:60px;"">+</div>",,html-keyboard-response,54,460588,0.0-13.0-0.1,68034,List2B,white,man,,,,null,,,,
null,"<img src=""stim_listB/touch4.gif""style=""height:400px;""></stim_listB>",,html-keyboard-response,55,462591,0.0-13.0-1.1,68034,List2B,white,man,,,,null,,,,
null,are touching each other,,html-keyboard-response,56,464597,0.0-13.0-2.1,68034,List2B,white,man,,,,null,,,,
6917,,,survey-text,57,471516,0.0-13.0-3.1,68034,List2B,white,man,,,,,"{""Q0"":""beth and fred are touching each other""}","<img src=""stim_listB/touch4.gif""style=""height:400px;""></stim_listB>",are touching each other,
null,"<div style=""font-size:60px;"">+</div>",,html-keyboard-response,58,472017,0.0-13.0-0.2,68034,List2B,white,man,,,,null,,,,
null,"<img src=""stim_listB/marry1.gif""style=""height:400px;""></stim_listB>",,html-keyboard-response,59,474022,0.0-13.0-1.2,68034,List2B,white,man,,,,null,,,,
null,is marrying,,html-keyboard-response,60,476023,0.0-13.0-2.2,68034,List2B,white,man,,,,null,,,,
4169,,,survey-text,61,480192,0.0-13.0-3.2,68034,List2B,white,man,,,,,"{""Q0"":""dave is marrying ruth""}","<img src=""stim_listB/marry1.gif""style=""height:400px;""></stim_listB>",is marrying,
null,"<div style=""font-size:60px;"">+</div>",,html-keyboard-response,62,480697,0.0-13.0-0.3,68034,List2B,white,man,,,,null,,,,
null,"<img src=""stim_listB/argue1.gif""style=""height:400px;""></stim_listB>",,html-keyboard-response,63,482699,0.0-13.0-1.3,68034,List2B,white,man,,,,null,,,,
null,is arguing with,,html-keyboard-response,64,484700,0.0-13.0-2.3,68034,List2B,white,man,,,,null,,,,
4025,,,survey-text,65,488726,0.0-13.0-3.3,68034,List2B,white,man,,,,,"{""Q0"":""dave is arguing with ruth""}","<img src=""stim_listB/argue1.gif""style=""height:400px;""></stim_listB>",is arguing with,
null,"<div style=""font-size:60px;"">+</div>",,html-keyboard-response,66,489227,0.0-13.0-0.4,68034,List2B,white,man,,,,null,,,,
null,"<img src=""stim_listB/talk2.gif""style=""height:400px;""></stim_listB>",,html-keyboard-response,67,491231,0.0-13.0-1.4,68034,List2B,white,man,,,,null,,,,
null,are talking to each other,,html-keyboard-response,68,493233,0.0-13.0-2.4,68034,List2B,white,man,,,,null,,,,
4672,,,survey-text,69,497906,0.0-13.0-3.4,68034,List2B,white,man,,,,,"{""Q0"":""dave and ruth are talking to each other""}","<img src=""stim_listB/talk2.gif""style=""height:400px;""></stim_listB>",are talking to each other,
null,"<div style=""font-size:60px;"">+</div>",,html-keyboard-response,70,498407,0.0-13.0-0.5,68034,List2B,white,man,,,,null,,,,
null,"<img src=""stim_listB/flirt1.gif""style=""height:400px;""></stim_listB>",,html-keyboard-response,71,500411,0.0-13.0-1.5,68034,List2B,white,man,,,,null,,,,
null,is flirting with,,html-keyboard-response,72,502412,0.0-13.0-2.5,68034,List2B,white,man,,,,null,,,,
4748,,,survey-text,73,507161,0.0-13.0-3.5,68034,List2B,white,man,,,,,"{""Q0"":""luke is flirting with jane""}","<img src=""stim_listB/flirt1.gif""style=""height:400px;""></stim_listB>",is flirting with,
null,"<div style=""font-size:60px;"">+</div>",,html-keyboard-response,74,507664,0.0-13.0-0.6,68034,List2B,white,man,,,,null,,,,
null,"<img src=""stim_listB/marry3.gif""style=""height:400px;""></stim_listB>",,html-keyboard-response,75,509667,0.0-13.0-1.6,68034,List2B,white,man,,,,null,,,,
null,is marrying,,html-keyboard-response,76,511668,0.0-13.0-2.6,68034,List2B,white,man,,,,null,,,,
4019,,,survey-text,77,515688,0.0-13.0-3.6,68034,List2B,white,man,,,,,"{""Q0"":""ruth is marrying mike""}","<img src=""stim_listB/marry3.gif""style=""height:400px;""></stim_listB>",is marrying,
null,"<div style=""font-size:60px;"">+</div>",,html-keyboard-response,78,516190,0.0-13.0-0.7,68034,List2B,white,man,,,,null,,,,
null,"<img src=""stim_listB/fight1.gif""style=""height:400px;""></stim_listB>",,html-keyboard-response,79,518193,0.0-13.0-1.7,68034,List2B,white,man,,,,null,,,,
null,is fighting,,html-keyboard-response,80,520195,0.0-13.0-2.7,68034,List2B,white,man,,,,null,,,,
4218,,,survey-text,81,524414,0.0-13.0-3.7,68034,List2B,white,man,,,,,"{""Q0"":""jane is fighting dave""}","<img src=""stim_listB/fight1.gif""style=""height:400px;""></stim_listB>",is fighting,
null,"<div style=""font-size:60px;"">+</div>",,html-keyboard-response,82,524916,0.0-13.0-0.8,68034,List2B,white,man,,,,null,,,,
null,"<img src=""stim_listB/talk8.gif""style=""height:400px;""></stim_listB>",,html-keyboard-response,83,526922,0.0-13.0-1.8,68034,List2B,white,man,,,,null,,,,
null,are talking to each other,,html-keyboard-response,84,528923,0.0-13.0-2.8,68034,List2B,white,man,,,,null,,,,
5099,,,survey-text,85,534023,0.0-13.0-3.8,68034,List2B,white,man,,,,,"{""Q0"":""jane and beth are talking to each other""}","<img src=""stim_listB/talk8.gif""style=""height:400px;""></stim_listB>",are talking to each other,
null,"<div style=""font-size:60px;"">+</div>",,html-keyboard-response,86,534524,0.0-13.0-0.9,68034,List2B,white,man,,,,null,,,,
null,"<img src=""stim_listB/flirt5.gif""style=""height:400px;""></stim_listB>",,html-keyboard-response,87,536526,0.0-13.0-1.9,68034,List2B,white,man,,,,null,,,,
null,is flirting with,,html-keyboard-response,88,538528,0.0-13.0-2.9,68034,List2B,white,man,,,,null,,,,
4945,,,survey-text,89,543475,0.0-13.0-3.9,68034,List2B,white,man,,,,,"{""Q0"":""mike is flirting with luke""}","<img src=""stim_listB/flirt5.gif""style=""height:400px;""></stim_listB>",is flirting with,
null,"<div style=""font-size:60px;"">+</div>",,html-keyboard-response,90,543976,0.0-13.0-0.10,68034,List2B,white,man,,,,null,,,,
null,"<img src=""stim_listB/kiss3.gif""style=""height:400px;""></stim_listB>",,html-keyboard-response,91,545979,0.0-13.0-1.10,68034,List2B,white,man,,,,null,,,,
null,is kissing,,html-keyboard-response,92,547981,0.0-13.0-2.10,68034,List2B,white,man,,,,null,,,,
3823,,,survey-text,93,551806,0.0-13.0-3.10,68034,List2B,white,man,,,,,"{""Q0"":""beth is kissing fred""}","<img src=""stim_listB/kiss3.gif""style=""height:400px;""></stim_listB>",is kissing,
null,"<div style=""font-size:60px;"">+</div>",,html-keyboard-response,94,552307,0.0-13.0-0.11,68034,List2B,white,man,,,,null,,,,
null,"<img src=""stim_listB/fight2.gif""style=""height:400px;""></stim_listB>",,html-keyboard-response,95,554309,0.0-13.0-1.11,68034,List2B,white,man,,,,null,,,,
null,are fighting each other,,html-keyboard-response,96,556310,0.0-13.0-2.11,68034,List2B,white,man,,,,null,,,,
5349,,,survey-text,97,561661,0.0-13.0-3.11,68034,List2B,white,man,,,,,"{""Q0"":""luke and ruth are fighting each other""}","<img src=""stim_listB/fight2.gif""style=""height:400px;""></stim_listB>",are fighting each other,
null,"<div style=""font-size:60px;"">+</div>",,html-keyboard-response,98,562162,0.0-13.0-0.12,68034,List2B,white,man,,,,null,,,,
null,"<img src=""stim_listB/flirt3.gif""style=""height:400px;""></stim_listB>",,html-keyboard-response,99,564166,0.0-13.0-1.12,68034,List2B,white,man,,,,null,,,,
null,is flirting with,,html-keyboard-response,100,566167,0.0-13.0-2.12,68034,List2B,white,man,,,,null,,,,
3830,,,survey-text,101,569997,0.0-13.0-3.12,68034,List2B,white,man,,,,,"{""Q0"":""kate is flirting with fred""}","<img src=""stim_listB/flirt3.gif""style=""height:400px;""></stim_listB>",is flirting with,
null,"<div style=""font-size:60px;"">+</div>",,html-keyboard-response,102,570499,0.0-13.0-0.13,68034,List2B,white,man,,,,null,,,,
null,"<img src=""stim_listB/dance7.gif""style=""height:400px;""></stim_listB>",,html-keyboard-response,103,572501,0.0-13.0-1.13,68034,List2B,white,man,,,,null,,,,
null,is dancing with,,html-keyboard-response,104,574502,0.0-13.0-2.13,68034,List2B,white,man,,,,null,,,,
3871,,,survey-text,105,578375,0.0-13.0-3.13,68034,List2B,white,man,,,,,"{""Q0"":""kate is dancing with ruth""}","<img src=""stim_listB/dance7.gif""style=""height:400px;""></stim_listB>",is dancing with,
null,"<div style=""font-size:60px;"">+</div>",,html-keyboard-response,106,578876,0.0-13.0-0.14,68034,List2B,white,man,,,,null,,,,
null,"<img src=""stim_listB/marry7.gif""style=""height:400px;""></stim_listB>",,html-keyboard-response,107,580879,0.0-13.0-1.14,68034,List2B,white,man,,,,null,,,,
null,is marrying,,html-keyboard-response,108,582880,0.0-13.0-2.14,68034,List2B,white,man,,,,null,,,,
4214,,,survey-text,109,587095,0.0-13.0-3.14,68034,List2B,white,man,,,,,"{""Q0"":""beth is marrying jane""}","<img src=""stim_listB/marry7.gif""style=""height:400px;""></stim_listB>",is marrying,
null,"<div style=""font-size:60px;"">+</div>",,html-keyboard-response,110,587596,0.0-13.0-0.15,68034,List2B,white,man,,,,null,,,,
null,"<img src=""stim_listB/play5.gif""style=""height:400px;""></stim_listB>",,html-keyboard-response,111,589598,0.0-13.0-1.15,68034,List2B,white,man,,,,null,,,,
null,is playing with,,html-keyboard-response,112,591599,0.0-13.0-2.15,68034,List2B,white,man,,,,null,,,,
4015,,,survey-text,113,595616,0.0-13.0-3.15,68034,List2B,white,man,,,,,"{""Q0"":""mike is playing with dave""}","<img src=""stim_listB/play5.gif""style=""height:400px;""></stim_listB>",is playing with,
null,"<div style=""font-size:60px;"">+</div>",,html-keyboard-response,114,596120,0.0-13.0-0.16,68034,List2B,white,man,,,,null,,,,
null,"<img src=""stim_listB/touch8.gif""style=""height:400px;""></stim_listB>",,html-keyboard-response,115,598121,0.0-13.0-1.16,68034,List2B,white,man,,,,null,,,,
null,are touching each other,,html-keyboard-response,116,600122,0.0-13.0-2.16,68034,List2B,white,man,,,,null,,,,
5649,,,survey-text,117,605772,0.0-13.0-3.16,68034,List2B,white,man,,,,,"{""Q0"":""beth and ruth are touching each other""}","<img src=""stim_listB/touch8.gif""style=""height:400px;""></stim_listB>",are touching each other,
null,"<div style=""font-size:60px;"">+</div>",,html-keyboard-response,118,606274,0.0-13.0-0.17,68034,List2B,white,man,,,,null,,,,
null,"<img src=""stim_listB/fight3.gif""style=""height:400px;""></stim_listB>",,html-keyboard-response,119,608277,0.0-13.0-1.17,68034,List2B,white,man,,,,null,,,,
null,is fighting,,html-keyboard-response,120,610278,0.0-13.0-2.17,68034,List2B,white,man,,,,null,,,,
3999,,,survey-text,121,614278,0.0-13.0-3.17,68034,List2B,white,man,,,,,"{""Q0"":""kate is fighting mike""}","<img src=""stim_listB/fight3.gif""style=""height:400px;""></stim_listB>",is fighting,
null,"<div style=""font-size:60px;"">+</div>",,html-keyboard-response,122,614781,0.0-13.0-0.18,68034,List2B,white,man,,,,null,,,,
null,"<img src=""stim_listB/play3.gif""style=""height:400px;""></stim_listB>",,html-keyboard-response,123,616785,0.0-13.0-1.18,68034,List2B,white,man,,,,null,,,,
null,is playing with,,html-keyboard-response,124,618788,0.0-13.0-2.18,68034,List2B,white,man,,,,null,,,,
4045,,,survey-text,125,622833,0.0-13.0-3.18,68034,List2B,white,man,,,,,"{""Q0"":""kate is playing with mike""}","<img src=""stim_listB/play3.gif""style=""height:400px;""></stim_listB>",is playing with,
null,"<div style=""font-size:60px;"">+</div>",,html-keyboard-response,126,623334,0.0-13.0-0.19,68034,List2B,white,man,,,,null,,,,
null,"<img src=""stim_listB/argue3.gif""style=""height:400px;""></stim_listB>",,html-keyboard-response,127,625337,0.0-13.0-1.19,68034,List2B,white,man,,,,null,,,,
null,is arguing with,,html-keyboard-response,128,627338,0.0-13.0-2.19,68034,List2B,white,man,,,,null,,,,
3830,,,survey-text,129,631168,0.0-13.0-3.19,68034,List2B,white,man,,,,,"{""Q0"":""beth is arguing with mike""}","<img src=""stim_listB/argue3.gif""style=""height:400px;""></stim_listB>",is arguing with,
4358,"<img src='img/portrait_matrix_list2.jpg' style='width:900px;height:500px;''></img><p>If you have memorised all the portraits and names and are ready to start, press Continue.</p><p><strong>Please note: Your memory of these faces will be tested 4 times during this experiment.</strong></p>",0,html-button-response,130,635527,0.0-14.0-0.0,68034,List2B,white,man,,,,,,,,
3278,"<img src=""portrait/WW1.jpg""style=""height:400px;""></img>",1,html-button-response,131,639808,0.0-14.0-1.0,68034,List2B,white,man,,TRUE,1,,,,,
null,CORRECT,,html-keyboard-response,132,641312,0.0-14.0-2.0-0.0,68034,List2B,white,man,,,,null,,,,
1574,"<img src=""portrait/WM2.jpg""style=""height:400px;""></img>",7,html-button-response,133,642888,0.0-14.0-4.0,68034,List2B,white,man,,TRUE,7,,,,,
null,CORRECT,,html-keyboard-response,134,644392,0.0-14.0-5.0-0.0,68034,List2B,white,man,,,,null,,,,
2155,"<img src=""portrait/BW2.jpg""style=""height:400px;""></img>",2,html-button-response,135,646549,0.0-14.0-7.0,68034,List2B,white,man,,TRUE,2,,,,,
null,CORRECT,,html-keyboard-response,136,648057,0.0-14.0-8.0-0.0,68034,List2B,white,man,,,,null,,,,
2528,"<img src=""portrait/WM1.jpg""style=""height:400px;""></img>",6,html-button-response,137,650587,0.0-14.0-10.0,68034,List2B,white,man,,TRUE,6,,,,,
null,CORRECT,,html-keyboard-response,138,652092,0.0-14.0-11.0-0.0,68034,List2B,white,man,,,,null,,,,
1488,"<img src=""portrait/BM2.jpg""style=""height:400px;""></img>",5,html-button-response,139,653582,0.0-14.0-13.0,68034,List2B,white,man,,TRUE,5,,,,,
null,CORRECT,,html-keyboard-response,140,655083,0.0-14.0-14.0-0.0,68034,List2B,white,man,,,,null,,,,
2143,"<img src=""portrait/BW1.jpg""style=""height:400px;""></img>",0,html-button-response,141,657228,0.0-14.0-16.0,68034,List2B,white,man,,TRUE,0,,,,,
null,CORRECT,,html-keyboard-response,142,658733,0.0-14.0-17.0-0.0,68034,List2B,white,man,,,,null,,,,
2130,"<img src=""portrait/WW2.jpg""style=""height:400px;""></img>",3,html-button-response,143,660864,0.0-14.0-19.0,68034,List2B,white,man,,TRUE,3,,,,,
null,CORRECT,,html-keyboard-response,144,662368,0.0-14.0-20.0-0.0,68034,List2B,white,man,,,,null,,,,
2174,"<img src=""portrait/BM1.jpg""style=""height:400px;""></img>",4,html-button-response,145,664543,0.0-14.0-22.0,68034,List2B,white,man,,TRUE,4,,,,,
null,CORRECT,,html-keyboard-response,146,666046,0.0-14.0-23.0-0.0,68034,List2B,white,man,,,,null,,,,
1417,<p>You got 8 out of 8 right first time. Press Continue.</p>,0,html-button-response,147,667464,0.0-14.0-25.0,68034,List2B,white,man,,,,,,,,
null,"<div style=""font-size:60px;"">+</div>",,html-keyboard-response,148,668966,0.0-15.0-0.0,68034,List2B,white,man,,,,null,,,,
null,"<img src=""stim_listB/kiss7.gif""style=""height:400px;""></stim_listB>",,html-keyboard-response,149,670970,0.0-15.0-1.0,68034,List2B,white,man,,,,null,,,,
null,is kissing,,html-keyboard-response,150,672972,0.0-15.0-2.0,68034,List2B,white,man,,,,null,,,,
4446,,,survey-text,151,677419,0.0-15.0-3.0,68034,List2B,white,man,,,,,"{""Q0"":""beth is kissing ruth""}","<img src=""stim_listB/kiss7.gif""style=""height:400px;""></stim_listB>",is kissing,
null,"<div style=""font-size:60px;"">+</div>",,html-keyboard-response,152,677920,0.0-15.0-0.1,68034,List2B,white,man,,,,null,,,,
null,"<img src=""stim_listB/play4.gif""style=""height:400px;""></stim_listB>",,html-keyboard-response,153,679922,0.0-15.0-1.1,68034,List2B,white,man,,,,null,,,,
null,are playing with each other,,html-keyboard-response,154,681923,0.0-15.0-2.1,68034,List2B,white,man,,,,null,,,,
6965,,,survey-text,155,688889,0.0-15.0-3.1,68034,List2B,white,man,,,,,"{""Q0"":""fred and ruth are playing with each other""}","<img src=""stim_listB/play4.gif""style=""height:400px;""></stim_listB>",are playing with each other,
null,"<div style=""font-size:60px;"">+</div>",,html-keyboard-response,156,689391,0.0-15.0-0.2,68034,List2B,white,man,,,,null,,,,
null,"<img src=""stim_listB/marry2.gif""style=""height:400px;""></stim_listB>",,html-keyboard-response,157,691393,0.0-15.0-1.2,68034,List2B,white,man,,,,null,,,,
null,are marrying each other,,html-keyboard-response,158,693396,0.0-15.0-2.2,68034,List2B,white,man,,,,null,,,,
5116,,,survey-text,159,698513,0.0-15.0-3.2,68034,List2B,white,man,,,,,"{""Q0"":""jane and luke are marrying each other""}","<img src=""stim_listB/marry2.gif""style=""height:400px;""></stim_listB>",are marrying each other,
null,"<div style=""font-size:60px;"">+</div>",,html-keyboard-response,160,699017,0.0-15.0-0.3,68034,List2B,white,man,,,,null,,,,
null,"<img src=""stim_listB/play1.gif""style=""height:400px;""></stim_listB>",,html-keyboard-response,161,701019,0.0-15.0-1.3,68034,List2B,white,man,,,,null,,,,
null,is playing with,,html-keyboard-response,162,703020,0.0-15.0-2.3,68034,List2B,white,man,,,,null,,,,
3256,,,survey-text,163,706277,0.0-15.0-3.3,68034,List2B,white,man,,,,,"{""Q0"":""jane is playing with dave""}","<img src=""stim_listB/play1.gif""style=""height:400px;""></stim_listB>",is playing with,
null,"<div style=""font-size:60px;"">+</div>",,html-keyboard-response,164,706782,0.0-15.0-0.4,68034,List2B,white,man,,,,null,,,,
null,"<img src=""stim_listB/touch1.gif""style=""height:400px;""></stim_listB>",,html-keyboard-response,165,708784,0.0-15.0-1.4,68034,List2B,white,man,,,,null,,,,
null,is touching,,html-keyboard-response,166,710786,0.0-15.0-2.4,68034,List2B,white,man,,,,null,,,,
3767,,,survey-text,167,714554,0.0-15.0-3.4,68034,List2B,white,man,,,,,"{""Q0"":""jane is touching dave""}","<img src=""stim_listB/touch1.gif""style=""height:400px;""></stim_listB>",is touching,
null,"<div style=""font-size:60px;"">+</div>",,html-keyboard-response,168,715056,0.0-15.0-0.5,68034,List2B,white,man,,,,null,,,,
null,"<img src=""stim_listB/shout5.gif""style=""height:400px;""></stim_listB>",,html-keyboard-response,169,717058,0.0-15.0-1.5,68034,List2B,white,man,,,,null,,,,
null,is shouting at,,html-keyboard-response,170,719060,0.0-15.0-2.5,68034,List2B,white,man,,,,null,,,,
4218,,,survey-text,171,723279,0.0-15.0-3.5,68034,List2B,white,man,,,,,"{""Q0"":""fred is shouting at luke""}","<img src=""stim_listB/shout5.gif""style=""height:400px;""></stim_listB>",is shouting at,
null,"<div style=""font-size:60px;"">+</div>",,html-keyboard-response,172,723780,0.0-15.0-0.6,68034,List2B,white,man,,,,null,,,,
null,"<img src=""stim_listB/dance3.gif""style=""height:400px;""></stim_listB>",,html-keyboard-response,173,725782,0.0-15.0-1.6,68034,List2B,white,man,,,,null,,,,
null,is dancing with,,html-keyboard-response,174,727784,0.0-15.0-2.6,68034,List2B,white,man,,,,null,,,,
3449,,,survey-text,175,731235,0.0-15.0-3.6,68034,List2B,white,man,,,,,"{""Q0"":""kate is dancing with fred""}","<img src=""stim_listB/dance3.gif""style=""height:400px;""></stim_listB>",is dancing with,
null,"<div style=""font-size:60px;"">+</div>",,html-keyboard-response,176,731737,0.0-15.0-0.7,68034,List2B,white,man,,,,null,,,,
null,"<img src=""stim_listB/shout6.gif""style=""height:400px;""></stim_listB>",,html-keyboard-response,177,733739,0.0-15.0-1.7,68034,List2B,white,man,,,,null,,,,
null,are shouting at each other,,html-keyboard-response,178,735741,0.0-15.0-2.7,68034,List2B,white,man,,,,null,,,,
5366,,,survey-text,179,741107,0.0-15.0-3.7,68034,List2B,white,man,,,,,"{""Q0"":""dave and mike are shouting at each other""}","<img src=""stim_listB/shout6.gif""style=""height:400px;""></stim_listB>",are shouting at each other,
null,"<div style=""font-size:60px;"">+</div>",,html-keyboard-response,180,741609,0.0-15.0-0.8,68034,List2B,white,man,,,,null,,,,
null,"<img src=""stim_listB/talk6.gif""style=""height:400px;""></stim_listB>",,html-keyboard-response,181,743611,0.0-15.0-1.8,68034,List2B,white,man,,,,null,,,,
null,are talking to each other,,html-keyboard-response,182,745613,0.0-15.0-2.8,68034,List2B,white,man,,,,null,,,,
5482,,,survey-text,183,751097,0.0-15.0-3.8,68034,List2B,white,man,,,,,"{""Q0"":""dave and fred are talking to each other""}","<img src=""stim_listB/talk6.gif""style=""height:400px;""></stim_listB>",are talking to each other,
null,"<div style=""font-size:60px;"">+</div>",,html-keyboard-response,184,751599,0.0-15.0-0.9,68034,List2B,white,man,,,,null,,,,
null,"<img src=""stim_listB/shout8.gif""style=""height:400px;""></stim_listB>",,html-keyboard-response,185,753601,0.0-15.0-1.9,68034,List2B,white,man,,,,null,,,,
null,are shouting at each other,,html-keyboard-response,186,755604,0.0-15.0-2.9,68034,List2B,white,man,,,,null,,,,
4745,,,survey-text,187,760351,0.0-15.0-3.9,68034,List2B,white,man,,,,,"{""Q0"":""jane and kate are shouting at each other""}","<img src=""stim_listB/shout8.gif""style=""height:400px;""></stim_listB>",are shouting at each other,
null,"<div style=""font-size:60px;"">+</div>",,html-keyboard-response,188,760853,0.0-15.0-0.10,68034,List2B,white,man,,,,null,,,,
null,"<img src=""stim_listB/kiss6.gif""style=""height:400px;""></stim_listB>",,html-keyboard-response,189,762856,0.0-15.0-1.10,68034,List2B,white,man,,,,null,,,,
null,are kissing each other,,html-keyboard-response,190,764857,0.0-15.0-2.10,68034,List2B,white,man,,,,null,,,,
4503,,,survey-text,191,769362,0.0-15.0-3.10,68034,List2B,white,man,,,,,"{""Q0"":""dave and mike are kissing each other""}","<img src=""stim_listB/kiss6.gif""style=""height:400px;""></stim_listB>",are kissing each other,
null,"<div style=""font-size:60px;"">+</div>",,html-keyboard-response,192,769863,0.0-15.0-0.11,68034,List2B,white,man,,,,null,,,,
null,"<img src=""stim_listB/talk5.gif""style=""height:400px;""></stim_listB>",,html-keyboard-response,193,771865,0.0-15.0-1.11,68034,List2B,white,man,,,,null,,,,
null,is talking to,,html-keyboard-response,194,773867,0.0-15.0-2.11,68034,List2B,white,man,,,,null,,,,
6170,,,survey-text,195,780038,0.0-15.0-3.11,68034,List2B,white,man,,,,,"{""Q0"":""mike is talking to luke""}","<img src=""stim_listB/talk5.gif""style=""height:400px;""></stim_listB>",is talking to,
null,"<div style=""font-size:60px;"">+</div>",,html-keyboard-response,196,780541,0.0-15.0-0.12,68034,List2B,white,man,,,,null,,,,
null,"<img src=""stim_listB/argue8.gif""style=""height:400px;""></stim_listB>",,html-keyboard-response,197,782543,0.0-15.0-1.12,68034,List2B,white,man,,,,null,,,,
null,are arguing with each other,,html-keyboard-response,198,784544,0.0-15.0-2.12,68034,List2B,white,man,,,,null,,,,
7118,,,survey-text,199,791663,0.0-15.0-3.12,68034,List2B,white,man,,,,,"{""Q0"":""ruth and jane are talking to each other""}","<img src=""stim_listB/argue8.gif""style=""height:400px;""></stim_listB>",are arguing with each other,
null,"<div style=""font-size:60px;"">+</div>",,html-keyboard-response,200,792165,0.0-15.0-0.13,68034,List2B,white,man,,,,null,,,,
null,"<img src=""stim_listB/touch6.gif""style=""height:400px;""></stim_listB>",,html-keyboard-response,201,794168,0.0-15.0-1.13,68034,List2B,white,man,,,,null,,,,
null,are touching each other,,html-keyboard-response,202,796170,0.0-15.0-2.13,68034,List2B,white,man,,,,null,,,,
8215,,,survey-text,203,804387,0.0-15.0-3.13,68034,List2B,white,man,,,,,"{""Q0"":""luke and fred are touching each other""}","<img src=""stim_listB/touch6.gif""style=""height:400px;""></stim_listB>",are touching each other,
null,"<div style=""font-size:60px;"">+</div>",,html-keyboard-response,204,804889,0.0-15.0-0.14,68034,List2B,white,man,,,,null,,,,
null,"<img src=""stim_listB/fight8.gif""style=""height:400px;""></stim_listB>",,html-keyboard-response,205,806892,0.0-15.0-1.14,68034,List2B,white,man,,,,null,,,,
null,are fighting each other,,html-keyboard-response,206,808893,0.0-15.0-2.14,68034,List2B,white,man,,,,null,,,,
4994,,,survey-text,207,813888,0.0-15.0-3.14,68034,List2B,white,man,,,,,"{""Q0"":""ruth and beth are fighting each other""}","<img src=""stim_listB/fight8.gif""style=""height:400px;""></stim_listB>",are fighting each other,
null,"<div style=""font-size:60px;"">+</div>",,html-keyboard-response,208,814390,0.0-15.0-0.15,68034,List2B,white,man,,,,null,,,,
null,"<img src=""stim_listB/shout7.gif""style=""height:400px;""></stim_listB>",,html-keyboard-response,209,816393,0.0-15.0-1.15,68034,List2B,white,man,,,,null,,,,
null,is shouting at,,html-keyboard-response,210,818396,0.0-15.0-2.15,68034,List2B,white,man,,,,null,,,,
3936,,,survey-text,211,822333,0.0-15.0-3.15,68034,List2B,white,man,,,,,"{""Q0"":""beth is shouting at ruth""}","<img src=""stim_listB/shout7.gif""style=""height:400px;""></stim_listB>",is shouting at,
null,"<div style=""font-size:60px;"">+</div>",,html-keyboard-response,212,822835,0.0-15.0-0.16,68034,List2B,white,man,,,,null,,,,
null,"<img src=""stim_listB/play7.gif""style=""height:400px;""></stim_listB>",,html-keyboard-response,213,824838,0.0-15.0-1.16,68034,List2B,white,man,,,,null,,,,
null,is playing with,,html-keyboard-response,214,826839,0.0-15.0-2.16,68034,List2B,white,man,,,,null,,,,
3442,,,survey-text,215,830282,0.0-15.0-3.16,68034,List2B,white,man,,,,,"{""Q0"":""jane is playing with kate""}","<img src=""stim_listB/play7.gif""style=""height:400px;""></stim_listB>",is playing with,
null,"<div style=""font-size:60px;"">+</div>",,html-keyboard-response,216,830783,0.0-15.0-0.17,68034,List2B,white,man,,,,null,,,,
null,"<img src=""stim_listB/touch7.gif""style=""height:400px;""></stim_listB>",,html-keyboard-response,217,832786,0.0-15.0-1.17,68034,List2B,white,man,,,,null,,,,
null,is touching,,html-keyboard-response,218,834788,0.0-15.0-2.17,68034,List2B,white,man,,,,null,,,,
3427,,,survey-text,219,838216,0.0-15.0-3.17,68034,List2B,white,man,,,,,"{""Q0"":""jane is touching kate""}","<img src=""stim_listB/touch7.gif""style=""height:400px;""></stim_listB>",is touching,
null,"<div style=""font-size:60px;"">+</div>",,html-keyboard-response,220,838717,0.0-15.0-0.18,68034,List2B,white,man,,,,null,,,,
null,"<img src=""stim_listB/flirt7.gif""style=""height:400px;""></stim_listB>",,html-keyboard-response,221,840719,0.0-15.0-1.18,68034,List2B,white,man,,,,null,,,,
null,is flirting with,,html-keyboard-response,222,842723,0.0-15.0-2.18,68034,List2B,white,man,,,,null,,,,
7113,,,survey-text,223,849838,0.0-15.0-3.18,68034,List2B,white,man,,,,,"{""Q0"":""kate is flirting with ruth""}","<img src=""stim_listB/flirt7.gif""style=""height:400px;""></stim_listB>",is flirting with,
null,"<div style=""font-size:60px;"">+</div>",,html-keyboard-response,224,850339,0.0-15.0-0.19,68034,List2B,white,man,,,,null,,,,
null,"<img src=""stim_listB/marry6.gif""style=""height:400px;""></stim_listB>",,html-keyboard-response,225,852341,0.0-15.0-1.19,68034,List2B,white,man,,,,null,,,,
null,are marrying each other,,html-keyboard-response,226,854342,0.0-15.0-2.19,68034,List2B,white,man,,,,null,,,,
5831,,,survey-text,227,860175,0.0-15.0-3.19,68034,List2B,white,man,,,,,"{""Q0"":""luke and mike are marrying each other""}","<img src=""stim_listB/marry6.gif""style=""height:400px;""></stim_listB>",are marrying each other,
1886,"<img src='img/portrait_matrix_list2.jpg' style='width:900px;height:500px;''></img><p>If you have memorised all the portraits and names and are ready to start, press Continue.</p><p><strong>Please note: Your memory of these faces will be tested 4 times during this experiment.</strong></p>",0,html-button-response,228,862062,0.0-16.0-0.0,68034,List2B,white,man,,,,,,,,
1568,"<img src=""portrait/WM2.jpg""style=""height:400px;""></img>",7,html-button-response,229,864638,0.0-16.0-1.0,68034,List2B,white,man,,TRUE,7,,,,,
null,CORRECT,,html-keyboard-response,230,866142,0.0-16.0-2.0-0.0,68034,List2B,white,man,,,,null,,,,
2655,"<img src=""portrait/BM1.jpg""style=""height:400px;""></img>",4,html-button-response,231,868799,0.0-16.0-4.0,68034,List2B,white,man,,TRUE,4,,,,,
null,CORRECT,,html-keyboard-response,232,870304,0.0-16.0-5.0-0.0,68034,List2B,white,man,,,,null,,,,
2099,"<img src=""portrait/WW2.jpg""style=""height:400px;""></img>",3,html-button-response,233,872406,0.0-16.0-7.0,68034,List2B,white,man,,TRUE,3,,,,,
null,CORRECT,,html-keyboard-response,234,873908,0.0-16.0-8.0-0.0,68034,List2B,white,man,,,,null,,,,
1857,"<img src=""portrait/BM2.jpg""style=""height:400px;""></img>",5,html-button-response,235,875767,0.0-16.0-10.0,68034,List2B,white,man,,TRUE,5,,,,,
null,CORRECT,,html-keyboard-response,236,877277,0.0-16.0-11.0-0.0,68034,List2B,white,man,,,,null,,,,
1971,"<img src=""portrait/BW2.jpg""style=""height:400px;""></img>",2,html-button-response,237,879250,0.0-16.0-13.0,68034,List2B,white,man,,TRUE,2,,,,,
null,CORRECT,,html-keyboard-response,238,880756,0.0-16.0-14.0-0.0,68034,List2B,white,man,,,,null,,,,
3080,"<img src=""portrait/WW1.jpg""style=""height:400px;""></img>",1,html-button-response,239,883838,0.0-16.0-16.0,68034,List2B,white,man,,TRUE,1,,,,,
null,CORRECT,,html-keyboard-response,240,885340,0.0-16.0-17.0-0.0,68034,List2B,white,man,,,,null,,,,
1597,"<img src=""portrait/BW1.jpg""style=""height:400px;""></img>",0,html-button-response,241,886939,0.0-16.0-19.0,68034,List2B,white,man,,TRUE,0,,,,,
null,CORRECT,,html-keyboard-response,242,888441,0.0-16.0-20.0-0.0,68034,List2B,white,man,,,,null,,,,
2972,"<img src=""portrait/WM1.jpg""style=""height:400px;""></img>",6,html-button-response,243,891415,0.0-16.0-22.0,68034,List2B,white,man,,TRUE,6,,,,,
null,CORRECT,,html-keyboard-response,244,892917,0.0-16.0-23.0-0.0,68034,List2B,white,man,,,,null,,,,
829,<p>You got 8 out of 8 right first time. Press Continue.</p>,0,html-button-response,245,893748,0.0-16.0-25.0,68034,List2B,white,man,,,,,,,,
null,"<div style=""font-size:60px;"">+</div>",,html-keyboard-response,246,895252,0.0-17.0-0.0,68034,List2B,white,man,,,,null,,,,
null,"<img src=""stim_listB/marry8.gif""style=""height:400px;""></stim_listB>",,html-keyboard-response,247,897253,0.0-17.0-1.0,68034,List2B,white,man,,,,null,,,,
null,are marrying each other,,html-keyboard-response,248,899256,0.0-17.0-2.0,68034,List2B,white,man,,,,null,,,,
7716,,,survey-text,249,906973,0.0-17.0-3.0,68034,List2B,white,man,,,,,"{""Q0"":""ruth and kate are marrying each other""}","<img src=""stim_listB/marry8.gif""style=""height:400px;""></stim_listB>",are marrying each other,
null,"<div style=""font-size:60px;"">+</div>",,html-keyboard-response,250,907475,0.0-17.0-0.1,68034,List2B,white,man,,,,null,,,,
null,"<img src=""stim_listB/argue6.gif""style=""height:400px;""></stim_listB>",,html-keyboard-response,251,909478,0.0-17.0-1.1,68034,List2B,white,man,,,,null,,,,
null,are arguing with each other,,html-keyboard-response,252,911479,0.0-17.0-2.1,68034,List2B,white,man,,,,null,,,,
7763,,,survey-text,253,919243,0.0-17.0-3.1,68034,List2B,white,man,,,,,"{""Q0"":""luke and mike are arguing with each other""}","<img src=""stim_listB/argue6.gif""style=""height:400px;""></stim_listB>",are arguing with each other,
null,"<div style=""font-size:60px;"">+</div>",,html-keyboard-response,254,919745,0.0-17.0-0.2,68034,List2B,white,man,,,,null,,,,
null,"<img src=""stim_listB/dance4.gif""style=""height:400px;""></stim_listB>",,html-keyboard-response,255,921747,0.0-17.0-1.2,68034,List2B,white,man,,,,null,,,,
null,are dancing with each other,,html-keyboard-response,256,923749,0.0-17.0-2.2,68034,List2B,white,man,,,,null,,,,
5699,,,survey-text,257,929449,0.0-17.0-3.2,68034,List2B,white,man,,,,,"{""Q0"":""mike and beth are dancing with each other""}","<img src=""stim_listB/dance4.gif""style=""height:400px;""></stim_listB>",are dancing with each other,
null,"<div style=""font-size:60px;"">+</div>",,html-keyboard-response,258,929950,0.0-17.0-0.3,68034,List2B,white,man,,,,null,,,,
null,"<img src=""stim_listB/play6.gif""style=""height:400px;""></stim_listB>",,html-keyboard-response,259,931953,0.0-17.0-1.3,68034,List2B,white,man,,,,null,,,,
null,are playing with each other,,html-keyboard-response,260,933954,0.0-17.0-2.3,68034,List2B,white,man,,,,null,,,,
7546,,,survey-text,261,941501,0.0-17.0-3.3,68034,List2B,white,man,,,,,"{""Q0"":""luke and fred are playing with each other""}","<img src=""stim_listB/play6.gif""style=""height:400px;""></stim_listB>",are playing with each other,
null,"<div style=""font-size:60px;"">+</div>",,html-keyboard-response,262,942007,0.0-17.0-0.4,68034,List2B,white,man,,,,null,,,,
null,"<img src=""stim_listB/fight5.gif""style=""height:400px;""></stim_listB>",,html-keyboard-response,263,944010,0.0-17.0-1.4,68034,List2B,white,man,,,,null,,,,
null,is fighting,,html-keyboard-response,264,946011,0.0-17.0-2.4,68034,List2B,white,man,,,,null,,,,
3415,,,survey-text,265,949427,0.0-17.0-3.4,68034,List2B,white,man,,,,,"{""Q0"":""dave is fighting mike""}","<img src=""stim_listB/fight5.gif""style=""height:400px;""></stim_listB>",is fighting,
null,"<div style=""font-size:60px;"">+</div>",,html-keyboard-response,266,949929,0.0-17.0-0.5,68034,List2B,white,man,,,,null,,,,
null,"<img src=""stim_listB/kiss5.gif""style=""height:400px;""></stim_listB>",,html-keyboard-response,267,951932,0.0-17.0-1.5,68034,List2B,white,man,,,,null,,,,
null,is kissing,,html-keyboard-response,268,953934,0.0-17.0-2.5,68034,List2B,white,man,,,,null,,,,
3512,,,survey-text,269,957446,0.0-17.0-3.5,68034,List2B,white,man,,,,,"{""Q0"":""fred is kissing luke""}","<img src=""stim_listB/kiss5.gif""style=""height:400px;""></stim_listB>",is kissing,
null,"<div style=""font-size:60px;"">+</div>",,html-keyboard-response,270,957952,0.0-17.0-0.6,68034,List2B,white,man,,,,null,,,,
null,"<img src=""stim_listB/touch2.gif""style=""height:400px;""></stim_listB>",,html-keyboard-response,271,959954,0.0-17.0-1.6,68034,List2B,white,man,,,,null,,,,
null,are touching each other,,html-keyboard-response,272,961956,0.0-17.0-2.6,68034,List2B,white,man,,,,null,,,,
5157,,,survey-text,273,967114,0.0-17.0-3.6,68034,List2B,white,man,,,,,"{""Q0"":""luke and ruth are touching each other""}","<img src=""stim_listB/touch2.gif""style=""height:400px;""></stim_listB>",are touching each other,
null,"<div style=""font-size:60px;"">+</div>",,html-keyboard-response,274,967617,0.0-17.0-0.7,68034,List2B,white,man,,,,null,,,,
null,"<img src=""stim_listB/dance2.gif""style=""height:400px;""></stim_listB>",,html-keyboard-response,275,969620,0.0-17.0-1.7,68034,List2B,white,man,,,,null,,,,
null,are dancing with each other,,html-keyboard-response,276,971621,0.0-17.0-2.7,68034,List2B,white,man,,,,null,,,,
5333,,,survey-text,277,976956,0.0-17.0-3.7,68034,List2B,white,man,,,,,"{""Q0"":""dave and jane are dancing with each other""}","<img src=""stim_listB/dance2.gif""style=""height:400px;""></stim_listB>",are dancing with each other,
null,"<div style=""font-size:60px;"">+</div>",,html-keyboard-response,278,977457,0.0-17.0-0.8,68034,List2B,white,man,,,,null,,,,
null,"<img src=""stim_listB/argue5.gif""style=""height:400px;""></stim_listB>",,html-keyboard-response,279,979460,0.0-17.0-1.8,68034,List2B,white,man,,,,null,,,,
null,is arguing with,,html-keyboard-response,280,981461,0.0-17.0-2.8,68034,List2B,white,man,,,,null,,,,
5987,,,survey-text,281,987449,0.0-17.0-3.8,68034,List2B,white,man,,,,,"{""Q0"":""fred is arguing with dave""}","<img src=""stim_listB/argue5.gif""style=""height:400px;""></stim_listB>",is arguing with,
null,"<div style=""font-size:60px;"">+</div>",,html-keyboard-response,282,987954,0.0-17.0-0.9,68034,List2B,white,man,,,,null,,,,
null,"<img src=""stim_listB/dance5.gif""style=""height:400px;""></stim_listB>",,html-keyboard-response,283,989957,0.0-17.0-1.9,68034,List2B,white,man,,,,null,,,,
null,is dancing with,,html-keyboard-response,284,991959,0.0-17.0-2.9,68034,List2B,white,man,,,,null,,,,
3697,,,survey-text,285,995657,0.0-17.0-3.9,68034,List2B,white,man,,,,,"{""Q0"":""mike is dancing with luke""}","<img src=""stim_listB/dance5.gif""style=""height:400px;""></stim_listB>",is dancing with,
null,"<div style=""font-size:60px;"">+</div>",,html-keyboard-response,286,996162,0.0-17.0-0.10,68034,List2B,white,man,,,,null,,,,
null,"<img src=""stim_listB/argue2.gif""style=""height:400px;""></stim_listB>",,html-keyboard-response,287,998164,0.0-17.0-1.10,68034,List2B,white,man,,,,null,,,,
null,are arguing with each other,,html-keyboard-response,288,1000167,0.0-17.0-2.10,68034,List2B,white,man,,,,null,,,,
6465,,,survey-text,289,1006633,0.0-17.0-3.10,68034,List2B,white,man,,,,,"{""Q0"":""luke and jane are arguing with each other""}","<img src=""stim_listB/argue2.gif""style=""height:400px;""></stim_listB>",are arguing with each other,
null,"<div style=""font-size:60px;"">+</div>",,html-keyboard-response,290,1007134,0.0-17.0-0.11,68034,List2B,white,man,,,,null,,,,
null,"<img src=""stim_listB/flirt8.gif""style=""height:400px;""></stim_listB>",,html-keyboard-response,291,1009136,0.0-17.0-1.11,68034,List2B,white,man,,,,null,,,,
null,are flirting with each other,,html-keyboard-response,292,1011137,0.0-17.0-2.11,68034,List2B,white,man,,,,null,,,,
5911,,,survey-text,293,1017049,0.0-17.0-3.11,68034,List2B,white,man,,,,,"{""Q0"":""jane and beth are flirting with each other""}","<img src=""stim_listB/flirt8.gif""style=""height:400px;""></stim_listB>",are flirting with each other,
null,"<div style=""font-size:60px;"">+</div>",,html-keyboard-response,294,1017555,0.0-17.0-0.12,68034,List2B,white,man,,,,null,,,,
null,"<img src=""stim_listB/kiss1.gif""style=""height:400px;""></stim_listB>",,html-keyboard-response,295,1019557,0.0-17.0-1.12,68034,List2B,white,man,,,,null,,,,
null,is kissing,,html-keyboard-response,296,1021560,0.0-17.0-2.12,68034,List2B,white,man,,,,null,,,,
3597,,,survey-text,297,1025158,0.0-17.0-3.12,68034,List2B,white,man,,,,,"{""Q0"":""luke is kissing ruth""}","<img src=""stim_listB/kiss1.gif""style=""height:400px;""></stim_listB>",is kissing,
null,"<div style=""font-size:60px;"">+</div>",,html-keyboard-response,298,1025660,0.0-17.0-0.13,68034,List2B,white,man,,,,null,,,,
null,"<img src=""stim_listB/argue7.gif""style=""height:400px;""></stim_listB>",,html-keyboard-response,299,1027662,0.0-17.0-1.13,68034,List2B,white,man,,,,null,,,,
null,is arguing with,,html-keyboard-response,300,1029664,0.0-17.0-2.13,68034,List2B,white,man,,,,null,,,,
3638,,,survey-text,301,1033303,0.0-17.0-3.13,68034,List2B,white,man,,,,,"{""Q0"":""beth is arguing with jane""}","<img src=""stim_listB/argue7.gif""style=""height:400px;""></stim_listB>",is arguing with,
null,"<div style=""font-size:60px;"">+</div>",,html-keyboard-response,302,1033805,0.0-17.0-0.14,68034,List2B,white,man,,,,null,,,,
null,"<img src=""stim_listB/kiss2.gif""style=""height:400px;""></stim_listB>",,html-keyboard-response,303,1035807,0.0-17.0-1.14,68034,List2B,white,man,,,,null,,,,
null,are kissing each other,,html-keyboard-response,304,1037809,0.0-17.0-2.14,68034,List2B,white,man,,,,null,,,,
6508,,,survey-text,305,1044318,0.0-17.0-3.14,68034,List2B,white,man,,,,,"{""Q0"":""dave and jane are kissing each other""}","<img src=""stim_listB/kiss2.gif""style=""height:400px;""></stim_listB>",are kissing each other,
null,"<div style=""font-size:60px;"">+</div>",,html-keyboard-response,306,1044825,0.0-17.0-0.15,68034,List2B,white,man,,,,null,,,,
null,"<img src=""stim_listB/dance8.gif""style=""height:400px;""></stim_listB>",,html-keyboard-response,307,1046827,0.0-17.0-1.15,68034,List2B,white,man,,,,null,,,,
null,are dancing with each other,,html-keyboard-response,308,1048828,0.0-17.0-2.15,68034,List2B,white,man,,,,null,,,,
6497,,,survey-text,309,1055326,0.0-17.0-3.15,68034,List2B,white,man,,,,,"{""Q0"":""jane and beth are dancing with each other""}","<img src=""stim_listB/dance8.gif""style=""height:400px;""></stim_listB>",are dancing with each other,
null,"<div style=""font-size:60px;"">+</div>",,html-keyboard-response,310,1055828,0.0-17.0-0.16,68034,List2B,white,man,,,,null,,,,
null,"<img src=""stim_listB/shout1.gif""style=""height:400px;""></stim_listB>",,html-keyboard-response,311,1057830,0.0-17.0-1.16,68034,List2B,white,man,,,,null,,,,
null,is shouting at,,html-keyboard-response,312,1059832,0.0-17.0-2.16,68034,List2B,white,man,,,,null,,,,
3773,,,survey-text,313,1063606,0.0-17.0-3.16,68034,List2B,white,man,,,,,"{""Q0"":""ruth is shouting at luke""}","<img src=""stim_listB/shout1.gif""style=""height:400px;""></stim_listB>",is shouting at,
null,"<div style=""font-size:60px;"">+</div>",,html-keyboard-response,314,1064108,0.0-17.0-0.17,68034,List2B,white,man,,,,null,,,,
null,"<img src=""stim_listB/flirt6.gif""style=""height:400px;""></stim_listB>",,html-keyboard-response,315,1066111,0.0-17.0-1.17,68034,List2B,white,man,,,,null,,,,
null,are flirting with each other,,html-keyboard-response,316,1068113,0.0-17.0-2.17,68034,List2B,white,man,,,,null,,,,
6104,,,survey-text,317,1074218,0.0-17.0-3.17,68034,List2B,white,man,,,,,"{""Q0"":""dave and fred are flirting with each other""}","<img src=""stim_listB/flirt6.gif""style=""height:400px;""></stim_listB>",are flirting with each other,
null,"<div style=""font-size:60px;"">+</div>",,html-keyboard-response,318,1074720,0.0-17.0-0.18,68034,List2B,white,man,,,,null,,,,
null,"<img src=""stim_listB/flirt2.gif""style=""height:400px;""></stim_listB>",,html-keyboard-response,319,1076722,0.0-17.0-1.18,68034,List2B,white,man,,,,null,,,,
null,are flirting with each other,,html-keyboard-response,320,1078723,0.0-17.0-2.18,68034,List2B,white,man,,,,null,,,,
5877,,,survey-text,321,1084602,0.0-17.0-3.18,68034,List2B,white,man,,,,,"{""Q0"":""dave and ruth are flirting with each other""}","<img src=""stim_listB/flirt2.gif""style=""height:400px;""></stim_listB>",are flirting with each other,
null,"<div style=""font-size:60px;"">+</div>",,html-keyboard-response,322,1085104,0.0-17.0-0.19,68034,List2B,white,man,,,,null,,,,
null,"<img src=""stim_listB/shout2.gif""style=""height:400px;""></stim_listB>",,html-keyboard-response,323,1087107,0.0-17.0-1.19,68034,List2B,white,man,,,,null,,,,
null,are shouting at each other,,html-keyboard-response,324,1089111,0.0-17.0-2.19,68034,List2B,white,man,,,,null,,,,
5230,,,survey-text,325,1094342,0.0-17.0-3.19,68034,List2B,white,man,,,,,"{""Q0"":""dave and jane are shouting at each other""}","<img src=""stim_listB/shout2.gif""style=""height:400px;""></stim_listB>",are shouting at each other,
1545,"<img src='img/portrait_matrix_list2.jpg' style='width:900px;height:500px;''></img><p>If you have memorised all the portraits and names and are ready to start, press Continue.</p><p><strong>Please note: Your memory of these faces will be tested 4 times during this experiment.</strong></p>",0,html-button-response,326,1095889,0.0-18.0-0.0,68034,List2B,white,man,,,,,,,,
2561,"<img src=""portrait/BW1.jpg""style=""height:400px;""></img>",0,html-button-response,327,1099455,0.0-18.0-1.0,68034,List2B,white,man,,TRUE,0,,,,,
null,CORRECT,,html-keyboard-response,328,1100958,0.0-18.0-2.0-0.0,68034,List2B,white,man,,,,null,,,,
2141,"<img src=""portrait/WW1.jpg""style=""height:400px;""></img>",1,html-button-response,329,1103101,0.0-18.0-4.0,68034,List2B,white,man,,TRUE,1,,,,,
null,CORRECT,,html-keyboard-response,330,1104609,0.0-18.0-5.0-0.0,68034,List2B,white,man,,,,null,,,,
3222,"<img src=""portrait/WM1.jpg""style=""height:400px;""></img>",6,html-button-response,331,1107832,0.0-18.0-7.0,68034,List2B,white,man,,TRUE,6,,,,,
null,CORRECT,,html-keyboard-response,332,1109338,0.0-18.0-8.0-0.0,68034,List2B,white,man,,,,null,,,,
2620,"<img src=""portrait/BW2.jpg""style=""height:400px;""></img>",2,html-button-response,333,1111961,0.0-18.0-10.0,68034,List2B,white,man,,TRUE,2,,,,,
null,CORRECT,,html-keyboard-response,334,1113465,0.0-18.0-11.0-0.0,68034,List2B,white,man,,,,null,,,,
1570,"<img src=""portrait/BM2.jpg""style=""height:400px;""></img>",5,html-button-response,335,1115036,0.0-18.0-13.0,68034,List2B,white,man,,TRUE,5,,,,,
null,CORRECT,,html-keyboard-response,336,1116539,0.0-18.0-14.0-0.0,68034,List2B,white,man,,,,null,,,,
1717,"<img src=""portrait/WW2.jpg""style=""height:400px;""></img>",3,html-button-response,337,1118258,0.0-18.0-16.0,68034,List2B,white,man,,TRUE,3,,,,,
null,CORRECT,,html-keyboard-response,338,1119760,0.0-18.0-17.0-0.0,68034,List2B,white,man,,,,null,,,,
2548,"<img src=""portrait/BM1.jpg""style=""height:400px;""></img>",4,html-button-response,339,1122310,0.0-18.0-19.0,68034,List2B,white,man,,TRUE,4,,,,,
null,CORRECT,,html-keyboard-response,340,1123813,0.0-18.0-20.0-0.0,68034,List2B,white,man,,,,null,,,,
2990,"<img src=""portrait/WM2.jpg""style=""height:400px;""></img>",7,html-button-response,341,1126805,0.0-18.0-22.0,68034,List2B,white,man,,TRUE,7,,,,,
null,CORRECT,,html-keyboard-response,342,1128309,0.0-18.0-23.0-0.0,68034,List2B,white,man,,,,null,,,,
1081,<p>You got 8 out of 8 right first time. Press Continue.</p>,0,html-button-response,343,1129391,0.0-18.0-25.0,68034,List2B,white,man,,,,,,,,
null,"<div style=""font-size:60px;"">+</div>",,html-keyboard-response,344,1130896,0.0-19.0-0.0,68034,List2B,white,man,,,,null,,,,
null,"<img src=""stim_listB/touch5.gif""style=""height:400px;""></stim_listB>",,html-keyboard-response,345,1132898,0.0-19.0-1.0,68034,List2B,white,man,,,,null,,,,
null,is touching,,html-keyboard-response,346,1134899,0.0-19.0-2.0,68034,List2B,white,man,,,,null,,,,
4039,,,survey-text,347,1138940,0.0-19.0-3.0,68034,List2B,white,man,,,,,"{""Q0"":""mike is touching dave""}","<img src=""stim_listB/touch5.gif""style=""height:400px;""></stim_listB>",is touching,
null,"<div style=""font-size:60px;"">+</div>",,html-keyboard-response,348,1139441,0.0-19.0-0.1,68034,List2B,white,man,,,,null,,,,
null,"<img src=""stim_listB/talk7.gif""style=""height:400px;""></stim_listB>",,html-keyboard-response,349,1141443,0.0-19.0-1.1,68034,List2B,white,man,,,,null,,,,
null,is talking to,,html-keyboard-response,350,1143445,0.0-19.0-2.1,68034,List2B,white,man,,,,null,,,,
3970,,,survey-text,351,1147416,0.0-19.0-3.1,68034,List2B,white,man,,,,,"{""Q0"":""kate is talking to ruth""}","<img src=""stim_listB/talk7.gif""style=""height:400px;""></stim_listB>",is talking to,
null,"<div style=""font-size:60px;"">+</div>",,html-keyboard-response,352,1147920,0.0-19.0-0.2,68034,List2B,white,man,,,,null,,,,
null,"<img src=""stim_listB/dance6.gif""style=""height:400px;""></stim_listB>",,html-keyboard-response,353,1149923,0.0-19.0-1.2,68034,List2B,white,man,,,,null,,,,
null,are dancing with each other,,html-keyboard-response,354,1151925,0.0-19.0-2.2,68034,List2B,white,man,,,,null,,,,
4899,,,survey-text,355,1156825,0.0-19.0-3.2,68034,List2B,white,man,,,,,"{""Q0"":""dave and fred are dancing with each other""}","<img src=""stim_listB/dance6.gif""style=""height:400px;""></stim_listB>",are dancing with each other,
null,"<div style=""font-size:60px;"">+</div>",,html-keyboard-response,356,1157327,0.0-19.0-0.3,68034,List2B,white,man,,,,null,,,,
null,"<img src=""stim_listB/argue4.gif""style=""height:400px;""></stim_listB>",,html-keyboard-response,357,1159329,0.0-19.0-1.3,68034,List2B,white,man,,,,null,,,,
null,are arguing with each other,,html-keyboard-response,358,1161331,0.0-19.0-2.3,68034,List2B,white,man,,,,null,,,,
5762,,,survey-text,359,1167095,0.0-19.0-3.3,68034,List2B,white,man,,,,,"{""Q0"":""fred and kate are arguing with each other""}","<img src=""stim_listB/argue4.gif""style=""height:400px;""></stim_listB>",are arguing with each other,
null,"<div style=""font-size:60px;"">+</div>",,html-keyboard-response,360,1167597,0.0-19.0-0.4,68034,List2B,white,man,,,,null,,,,
null,"<img src=""stim_listB/play2.gif""style=""height:400px;""></stim_listB>",,html-keyboard-response,361,1169600,0.0-19.0-1.4,68034,List2B,white,man,,,,null,,,,
null,are playing with each other,,html-keyboard-response,362,1171603,0.0-19.0-2.4,68034,List2B,white,man,,,,null,,,,
5686,,,survey-text,363,1177289,0.0-19.0-3.4,68034,List2B,white,man,,,,,"{""Q0"":""luke and ruth are playing with each other""}","<img src=""stim_listB/play2.gif""style=""height:400px;""></stim_listB>",are playing with each other,
null,"<div style=""font-size:60px;"">+</div>",,html-keyboard-response,364,1177790,0.0-19.0-0.5,68034,List2B,white,man,,,,null,,,,
null,"<img src=""stim_listB/touch3.gif""style=""height:400px;""></stim_listB>",,html-keyboard-response,365,1179793,0.0-19.0-1.5,68034,List2B,white,man,,,,null,,,,
null,is touching,,html-keyboard-response,366,1181795,0.0-19.0-2.5,68034,List2B,white,man,,,,null,,,,
4945,,,survey-text,367,1186741,0.0-19.0-3.5,68034,List2B,white,man,,,,,"{""Q0"":""kate is touching mike""}","<img src=""stim_listB/touch3.gif""style=""height:400px;""></stim_listB>",is touching,
null,"<div style=""font-size:60px;"">+</div>",,html-keyboard-response,368,1187246,0.0-19.0-0.6,68034,List2B,white,man,,,,null,,,,
null,"<img src=""stim_listB/fight7.gif""style=""height:400px;""></stim_listB>",,html-keyboard-response,369,1189249,0.0-19.0-1.6,68034,List2B,white,man,,,,null,,,,
null,is fighting,,html-keyboard-response,370,1191250,0.0-19.0-2.6,68034,List2B,white,man,,,,null,,,,
4447,,,survey-text,371,1195698,0.0-19.0-3.6,68034,List2B,white,man,,,,,"{""Q0"":""kate is fighting jane""}","<img src=""stim_listB/fight7.gif""style=""height:400px;""></stim_listB>",is fighting,
null,"<div style=""font-size:60px;"">+</div>",,html-keyboard-response,372,1196199,0.0-19.0-0.7,68034,List2B,white,man,,,,null,,,,
null,"<img src=""stim_listB/shout4.gif""style=""height:400px;""></stim_listB>",,html-keyboard-response,373,1198202,0.0-19.0-1.7,68034,List2B,white,man,,,,null,,,,
null,are shouting at each other,,html-keyboard-response,374,1200204,0.0-19.0-2.7,68034,List2B,white,man,,,,null,,,,
5505,,,survey-text,375,1205711,0.0-19.0-3.7,68034,List2B,white,man,,,,,"{""Q0"":""mike and kate are shouting at each other""}","<img src=""stim_listB/shout4.gif""style=""height:400px;""></stim_listB>",are shouting at each other,
null,"<div style=""font-size:60px;"">+</div>",,html-keyboard-response,376,1206214,0.0-19.0-0.8,68034,List2B,white,man,,,,null,,,,
null,"<img src=""stim_listB/fight6.gif""style=""height:400px;""></stim_listB>",,html-keyboard-response,377,1208216,0.0-19.0-1.8,68034,List2B,white,man,,,,null,,,,
null,are fighting each other,,html-keyboard-response,378,1210218,0.0-19.0-2.8,68034,List2B,white,man,,,,null,,,,
7092,,,survey-text,379,1217312,0.0-19.0-3.8,68034,List2B,white,man,,,,,"{""Q0"":""luke and fred are fighting each other""}","<img src=""stim_listB/fight6.gif""style=""height:400px;""></stim_listB>",are fighting each other,
null,"<div style=""font-size:60px;"">+</div>",,html-keyboard-response,380,1217816,0.0-19.0-0.9,68034,List2B,white,man,,,,null,,,,
null,"<img src=""stim_listB/talk3.gif""style=""height:400px;""></stim_listB>",,html-keyboard-response,381,1219818,0.0-19.0-1.9,68034,List2B,white,man,,,,null,,,,
null,is talking to,,html-keyboard-response,382,1221820,0.0-19.0-2.9,68034,List2B,white,man,,,,null,,,,
3520,,,survey-text,383,1225342,0.0-19.0-3.9,68034,List2B,white,man,,,,,"{""Q0"":""kate is talking to fred""}","<img src=""stim_listB/talk3.gif""style=""height:400px;""></stim_listB>",is talking to,
null,"<div style=""font-size:60px;"">+</div>",,html-keyboard-response,384,1225844,0.0-19.0-0.10,68034,List2B,white,man,,,,null,,,,
null,"<img src=""stim_listB/kiss8.gif""style=""height:400px;""></stim_listB>",,html-keyboard-response,385,1227848,0.0-19.0-1.10,68034,List2B,white,man,,,,null,,,,
null,are kissing each other,,html-keyboard-response,386,1229851,0.0-19.0-2.10,68034,List2B,white,man,,,,null,,,,
377,,,survey-text,387,1230229,0.0-19.0-3.10,68034,List2B,white,man,,,,,"{""Q0"":""""}","<img src=""stim_listB/kiss8.gif""style=""height:400px;""></stim_listB>",are kissing each other,
null,"<div style=""font-size:60px;"">+</div>",,html-keyboard-response,388,1230729,0.0-19.0-0.11,68034,List2B,white,man,,,,null,,,,
null,"<img src=""stim_listB/kiss4.gif""style=""height:400px;""></stim_listB>",,html-keyboard-response,389,1232731,0.0-19.0-1.11,68034,List2B,white,man,,,,null,,,,
null,are kissing each other,,html-keyboard-response,390,1234735,0.0-19.0-2.11,68034,List2B,white,man,,,,null,,,,
6085,,,survey-text,391,1240822,0.0-19.0-3.11,68034,List2B,white,man,,,,,"{""Q0"":""mike and kate are kissing each other""}","<img src=""stim_listB/kiss4.gif""style=""height:400px;""></stim_listB>",are kissing each other,
null,"<div style=""font-size:60px;"">+</div>",,html-keyboard-response,392,1241324,0.0-19.0-0.12,68034,List2B,white,man,,,,null,,,,
null,"<img src=""stim_listB/marry4.gif""style=""height:400px;""></stim_listB>",,html-keyboard-response,393,1243328,0.0-19.0-1.12,68034,List2B,white,man,,,,null,,,,
null,are marrying each other,,html-keyboard-response,394,1245329,0.0-19.0-2.12,68034,List2B,white,man,,,,null,,,,
5354,,,survey-text,395,1250685,0.0-19.0-3.12,68034,List2B,white,man,,,,,"{""Q0"":""fred and kate are marrying each other""}","<img src=""stim_listB/marry4.gif""style=""height:400px;""></stim_listB>",are marrying each other,
null,"<div style=""font-size:60px;"">+</div>",,html-keyboard-response,396,1251186,0.0-19.0-0.13,68034,List2B,white,man,,,,null,,,,
null,"<img src=""stim_listB/dance1.gif""style=""height:400px;""></stim_listB>",,html-keyboard-response,397,1253189,0.0-19.0-1.13,68034,List2B,white,man,,,,null,,,,
null,is dancing with,,html-keyboard-response,398,1255192,0.0-19.0-2.13,68034,List2B,white,man,,,,null,,,,
3871,,,survey-text,399,1259064,0.0-19.0-3.13,68034,List2B,white,man,,,,,"{""Q0"":""jane is dancing with luke""}","<img src=""stim_listB/dance1.gif""style=""height:400px;""></stim_listB>",is dancing with,
null,"<div style=""font-size:60px;"">+</div>",,html-keyboard-response,400,1259566,0.0-19.0-0.14,68034,List2B,white,man,,,,null,,,,
null,"<img src=""stim_listB/marry5.gif""style=""height:400px;""></stim_listB>",,html-keyboard-response,401,1261569,0.0-19.0-1.14,68034,List2B,white,man,,,,null,,,,
null,is marrying,,html-keyboard-response,402,1263570,0.0-19.0-2.14,68034,List2B,white,man,,,,null,,,,
3520,,,survey-text,403,1267091,0.0-19.0-3.14,68034,List2B,white,man,,,,,"{""Q0"":""fred is marrying dave""}","<img src=""stim_listB/marry5.gif""style=""height:400px;""></stim_listB>",is marrying,
null,"<div style=""font-size:60px;"">+</div>",,html-keyboard-response,404,1267594,0.0-19.0-0.15,68034,List2B,white,man,,,,null,,,,
null,"<img src=""stim_listB/fight4.gif""style=""height:400px;""></stim_listB>",,html-keyboard-response,405,1269598,0.0-19.0-1.15,68034,List2B,white,man,,,,null,,,,
null,are fighting each other,,html-keyboard-response,406,1271599,0.0-19.0-2.15,68034,List2B,white,man,,,,null,,,,
5236,,,survey-text,407,1276836,0.0-19.0-3.15,68034,List2B,white,man,,,,,"{""Q0"":""fred and beth are fighting each other""}","<img src=""stim_listB/fight4.gif""style=""height:400px;""></stim_listB>",are fighting each other,
null,"<div style=""font-size:60px;"">+</div>",,html-keyboard-response,408,1277338,0.0-19.0-0.16,68034,List2B,white,man,,,,null,,,,
null,"<img src=""stim_listB/talk1.gif""style=""height:400px;""></stim_listB>",,html-keyboard-response,409,1279340,0.0-19.0-1.16,68034,List2B,white,man,,,,null,,,,
null,is talking to,,html-keyboard-response,410,1281342,0.0-19.0-2.16,68034,List2B,white,man,,,,null,,,,
4344,,,survey-text,411,1285686,0.0-19.0-3.16,68034,List2B,white,man,,,,,"{""Q0"":""jane is talking to luke""}","<img src=""stim_listB/talk1.gif""style=""height:400px;""></stim_listB>",is talking to,
null,"<div style=""font-size:60px;"">+</div>",,html-keyboard-response,412,1286188,0.0-19.0-0.17,68034,List2B,white,man,,,,null,,,,
null,"<img src=""stim_listB/play8.gif""style=""height:400px;""></stim_listB>",,html-keyboard-response,413,1288191,0.0-19.0-1.17,68034,List2B,white,man,,,,null,,,,
null,are playing with each other,,html-keyboard-response,414,1290193,0.0-19.0-2.17,68034,List2B,white,man,,,,null,,,,
7405,,,survey-text,415,1297599,0.0-19.0-3.17,68034,List2B,white,man,,,,,"{""Q0"":""ruth and beth are playing with each other""}","<img src=""stim_listB/play8.gif""style=""height:400px;""></stim_listB>",are playing with each other,
null,"<div style=""font-size:60px;"">+</div>",,html-keyboard-response,416,1298104,0.0-19.0-0.18,68034,List2B,white,man,,,,null,,,,
null,"<img src=""stim_listB/talk4.gif""style=""height:400px;""></stim_listB>",,html-keyboard-response,417,1300106,0.0-19.0-1.18,68034,List2B,white,man,,,,null,,,,
null,are talking to each other,,html-keyboard-response,418,1302108,0.0-19.0-2.18,68034,List2B,white,man,,,,null,,,,
6849,,,survey-text,419,1308958,0.0-19.0-3.18,68034,List2B,white,man,,,,,"{""Q0"":""mike and beth are talking to each other""}","<img src=""stim_listB/talk4.gif""style=""height:400px;""></stim_listB>",are talking to each other,
null,"<div style=""font-size:60px;"">+</div>",,html-keyboard-response,420,1309460,0.0-19.0-0.19,68034,List2B,white,man,,,,null,,,,
null,"<img src=""stim_listB/flirt4.gif""style=""height:400px;""></stim_listB>",,html-keyboard-response,421,1311464,0.0-19.0-1.19,68034,List2B,white,man,,,,null,,,,
null,are flirting with each other,,html-keyboard-response,422,1313466,0.0-19.0-2.19,68034,List2B,white,man,,,,null,,,,
7071,,,survey-text,423,1320539,0.0-19.0-3.19,68034,List2B,white,man,,,,,"{""Q0"":""mike and beth are flirting with each other""}","<img src=""stim_listB/flirt4.gif""style=""height:400px;""></stim_listB>",are flirting with each other,
1985,<p>Thank you for completing that task.</p><p>The final part of this session is a short questionnaire.</p><p>Press Continue.</p>,0,html-button-response,424,1322525,0.0-20.0,68034,List2B,white,man,,,,,,,,
19683,,,survey-text,425,1343211,0.0-21.0,68034,List2B,white,man,,,,,"{""Q0"":""34"",""Q1"":""English"",""Q2"":""English"",""Q3"":""Ireland"",""Q4"":""White"",""Q5"":""Male""}",,,demographics
4560,,,survey-likert,426,1347773,0.0-22.0,68034,List2B,white,man,,,,,"{""Q0"":4}",,,likert_ESS
4002,,,survey-likert,427,1351777,0.0-23.0,68034,List2B,white,man,,,,,"{""Q0"":4}",,,likert_NSSAL_Q1
1902,,,survey-likert,428,1353680,0.0-24.0,68034,List2B,white,man,,,,,"{""Q0"":4}",,,likert_NSSAL_Q2
3940,,,survey-likert,429,1357621,0.0-25.0,68034,List2B,white,man,,,,,"{""Q0"":4}",,,likert_CGRS_Q1
2866,,,survey-likert,430,1360488,0.0-26.0,68034,List2B,white,man,,,,,"{""Q0"":3}",,,likert_CGRS_Q2
4044,,,survey-likert,431,1364533,0.0-27.0,68034,List2B,white,man,,,,,"{""Q0"":3}",,,likert_CGRS_Q3
35200,,,survey-text,432,1399735,0.0-28.0,68034,List2B,white,man,,,,,"{""Q0"":""ccc""}",,,worker_id
10472,,,external-html,433,1410325,0.0-29.0,68034,List2B,white,man,debrief.html,,,,,,,
