rt,stimulus,button_pressed,trial_type,trial_index,time_elapsed,internal_node_id,subject,list,ppt_race,ppt_gender,url,first_guess,correct,key_press,responses,image_type,phrase_type,test_part
198763,Welcome to the experiment. Press Continue to begin.,0,html-button-response,0,198788,0.0-0.0,68918,List2B,black,woman,,,,,,,,
7202,,,external-html,1,207403,0.0-1.0,68918,List2B,black,woman,consent.html,,,,,,,
151592,"<p>On the next page, you will see portraits of 8 people and their names.</p><p>Your first task is to take a few minutes to memorise the names of these people.</p><p>You will have to recall their names during the rest of the experiment, so it is</p><p>essential that you try to memorise these people and their names as best as you can.</p><br><p><strong>You will then be tested on your memory of these names and portraits.</strong></p><br><p>The experiment will start after you have completed this memory test.</p><br><p>Ready?</p>",0,html-button-response,2,359000,0.0-2.0,68918,List2B,black,woman,,,,,,,,
73390,"<img src='img/portrait_matrix_list2.jpg' style='width:900px;height:500px;''></img><p>If you have memorised all the portraits and names and are ready to start, press Continue.</p><p><strong>Please note: Your memory of these faces will be tested 4 times during this experiment.</strong></p>",0,html-button-response,3,433401,0.0-3.0-0.0,68918,List2B,black,woman,,,,,,,,
4100,"<img src=""portrait/WM1.jpg""style=""height:400px;""></img>",6,html-button-response,4,438505,0.0-3.0-1.0,68918,List2B,black,woman,,TRUE,6,,,,,
null,CORRECT,,html-keyboard-response,5,440010,0.0-3.0-2.0-0.0,68918,List2B,black,woman,,,,null,,,,
4919,"<img src=""portrait/BW2.jpg""style=""height:400px;""></img>",1,html-button-response,6,444933,0.0-3.0-4.0,68918,List2B,black,woman,,TRUE,2,,,,,
5461,"<img src=""portrait/BW2.jpg""style=""height:400px;""></img>",2,html-button-response,7,451398,0.0-3.0-6.0-0.0,68918,List2B,black,woman,,FALSE,2,,,,,
null,CORRECT,,html-keyboard-response,8,452912,0.0-3.0-6.0-1.0-0.0,68918,List2B,black,woman,,,,null,,,,
6166,"<img src=""portrait/WW2.jpg""style=""height:400px;""></img>",0,html-button-response,9,459081,0.0-3.0-7.0,68918,List2B,black,woman,,TRUE,3,,,,,
1751,"<img src=""portrait/WW2.jpg""style=""height:400px;""></img>",3,html-button-response,10,461844,0.0-3.0-9.0-0.0,68918,List2B,black,woman,,FALSE,3,,,,,
null,CORRECT,,html-keyboard-response,11,463347,0.0-3.0-9.0-1.0-0.0,68918,List2B,black,woman,,,,null,,,,
4073,"<img src=""portrait/WM2.jpg""style=""height:400px;""></img>",7,html-button-response,12,467422,0.0-3.0-10.0,68918,List2B,black,woman,,TRUE,7,,,,,
null,CORRECT,,html-keyboard-response,13,468924,0.0-3.0-11.0-0.0,68918,List2B,black,woman,,,,null,,,,
4864,"<img src=""portrait/BM2.jpg""style=""height:400px;""></img>",5,html-button-response,14,473792,0.0-3.0-13.0,68918,List2B,black,woman,,TRUE,5,,,,,
null,CORRECT,,html-keyboard-response,15,475296,0.0-3.0-14.0-0.0,68918,List2B,black,woman,,,,null,,,,
4958,"<img src=""portrait/BW1.jpg""style=""height:400px;""></img>",2,html-button-response,16,480261,0.0-3.0-16.0,68918,List2B,black,woman,,TRUE,0,,,,,
1028,"<img src=""portrait/BW1.jpg""style=""height:400px;""></img>",0,html-button-response,17,482292,0.0-3.0-18.0-0.0,68918,List2B,black,woman,,FALSE,0,,,,,
null,CORRECT,,html-keyboard-response,18,483795,0.0-3.0-18.0-1.0-0.0,68918,List2B,black,woman,,,,null,,,,
4797,"<img src=""portrait/WW1.jpg""style=""height:400px;""></img>",1,html-button-response,19,488595,0.0-3.0-19.0,68918,List2B,black,woman,,TRUE,1,,,,,
null,CORRECT,,html-keyboard-response,20,490097,0.0-3.0-20.0-0.0,68918,List2B,black,woman,,,,null,,,,
7344,"<img src=""portrait/BM1.jpg""style=""height:400px;""></img>",4,html-button-response,21,497445,0.0-3.0-22.0,68918,List2B,black,woman,,TRUE,4,,,,,
null,CORRECT,,html-keyboard-response,22,498947,0.0-3.0-23.0-0.0,68918,List2B,black,woman,,,,null,,,,
2884,<p>You got 5 out of 8 right first time. Press Continue.</p>,0,html-button-response,23,501834,0.0-3.0-25.0,68918,List2B,black,woman,,,,,,,,
2680,"As you did not score 100%, the memory game will repeat. Press Continue.",0,html-button-response,24,505525,0.0-3.0-26.0-0.0,68918,List2B,black,woman,,,,,,,,
14946,"<img src='img/portrait_matrix_list2.jpg' style='width:900px;height:500px;''></img><p>If you have memorised all the portraits and names and are ready to start, press Continue.</p><p><strong>Please note: Your memory of these faces will be tested 4 times during this experiment.</strong></p>",0,html-button-response,25,521477,0.0-3.1-0.1,68918,List2B,black,woman,,,,,,,,
3928,"<img src=""portrait/WM1.jpg""style=""height:400px;""></img>",6,html-button-response,26,526411,0.0-3.1-1.1,68918,List2B,black,woman,,TRUE,6,,,,,
null,CORRECT,,html-keyboard-response,27,527918,0.0-3.1-2.1-0.1,68918,List2B,black,woman,,,,null,,,,
2334,"<img src=""portrait/BW2.jpg""style=""height:400px;""></img>",0,html-button-response,28,530255,0.0-3.1-4.1,68918,List2B,black,woman,,TRUE,2,,,,,
1950,"<img src=""portrait/BW2.jpg""style=""height:400px;""></img>",2,html-button-response,29,533209,0.0-3.1-6.1-0.1,68918,List2B,black,woman,,FALSE,2,,,,,
null,CORRECT,,html-keyboard-response,30,534715,0.0-3.1-6.1-1.1-0.1,68918,List2B,black,woman,,,,null,,,,
2881,"<img src=""portrait/WW2.jpg""style=""height:400px;""></img>",3,html-button-response,31,537602,0.0-3.1-7.1,68918,List2B,black,woman,,TRUE,3,,,,,
null,CORRECT,,html-keyboard-response,32,539105,0.0-3.1-8.1-0.1,68918,List2B,black,woman,,,,null,,,,
3644,"<img src=""portrait/WM2.jpg""style=""height:400px;""></img>",7,html-button-response,33,542753,0.0-3.1-10.1,68918,List2B,black,woman,,TRUE,7,,,,,
null,CORRECT,,html-keyboard-response,34,544255,0.0-3.1-11.1-0.1,68918,List2B,black,woman,,,,null,,,,
2901,"<img src=""portrait/BM2.jpg""style=""height:400px;""></img>",5,html-button-response,35,547160,0.0-3.1-13.1,68918,List2B,black,woman,,TRUE,5,,,,,
null,CORRECT,,html-keyboard-response,36,548664,0.0-3.1-14.1-0.1,68918,List2B,black,woman,,,,null,,,,
2448,"<img src=""portrait/BW1.jpg""style=""height:400px;""></img>",0,html-button-response,37,551116,0.0-3.1-16.1,68918,List2B,black,woman,,TRUE,0,,,,,
null,CORRECT,,html-keyboard-response,38,552618,0.0-3.1-17.1-0.1,68918,List2B,black,woman,,,,null,,,,
3619,"<img src=""portrait/WW1.jpg""style=""height:400px;""></img>",1,html-button-response,39,556242,0.0-3.1-19.1,68918,List2B,black,woman,,TRUE,1,,,,,
null,CORRECT,,html-keyboard-response,40,557746,0.0-3.1-20.1-0.1,68918,List2B,black,woman,,,,null,,,,
2729,"<img src=""portrait/BM1.jpg""style=""height:400px;""></img>",4,html-button-response,41,560478,0.0-3.1-22.1,68918,List2B,black,woman,,TRUE,4,,,,,
null,CORRECT,,html-keyboard-response,42,561985,0.0-3.1-23.1-0.1,68918,List2B,black,woman,,,,null,,,,
1300,<p>You got 7 out of 8 right first time. Press Continue.</p>,0,html-button-response,43,563289,0.0-3.1-25.1,68918,List2B,black,woman,,,,,,,,
1301,"As you did not score 100%, the memory game will repeat. Press Continue.",0,html-button-response,44,565604,0.0-3.1-26.1-0.1,68918,List2B,black,woman,,,,,,,,
8221,"<img src='img/portrait_matrix_list2.jpg' style='width:900px;height:500px;''></img><p>If you have memorised all the portraits and names and are ready to start, press Continue.</p><p><strong>Please note: Your memory of these faces will be tested 4 times during this experiment.</strong></p>",0,html-button-response,45,574829,0.0-3.2-0.2,68918,List2B,black,woman,,,,,,,,
3252,"<img src=""portrait/WM1.jpg""style=""height:400px;""></img>",6,html-button-response,46,579084,0.0-3.2-1.2,68918,List2B,black,woman,,TRUE,6,,,,,
null,CORRECT,,html-keyboard-response,47,580586,0.0-3.2-2.2-0.2,68918,List2B,black,woman,,,,null,,,,
3256,"<img src=""portrait/BW2.jpg""style=""height:400px;""></img>",2,html-button-response,48,583846,0.0-3.2-4.2,68918,List2B,black,woman,,TRUE,2,,,,,
null,CORRECT,,html-keyboard-response,49,585347,0.0-3.2-5.2-0.2,68918,List2B,black,woman,,,,null,,,,
2988,"<img src=""portrait/WW2.jpg""style=""height:400px;""></img>",3,html-button-response,50,588338,0.0-3.2-7.2,68918,List2B,black,woman,,TRUE,3,,,,,
null,CORRECT,,html-keyboard-response,51,589846,0.0-3.2-8.2-0.2,68918,List2B,black,woman,,,,null,,,,
3006,"<img src=""portrait/WM2.jpg""style=""height:400px;""></img>",7,html-button-response,52,592856,0.0-3.2-10.2,68918,List2B,black,woman,,TRUE,7,,,,,
null,CORRECT,,html-keyboard-response,53,594367,0.0-3.2-11.2-0.2,68918,List2B,black,woman,,,,null,,,,
1898,"<img src=""portrait/BM2.jpg""style=""height:400px;""></img>",5,html-button-response,54,596279,0.0-3.2-13.2,68918,List2B,black,woman,,TRUE,5,,,,,
null,CORRECT,,html-keyboard-response,55,597785,0.0-3.2-14.2-0.2,68918,List2B,black,woman,,,,null,,,,
1858,"<img src=""portrait/BW1.jpg""style=""height:400px;""></img>",0,html-button-response,56,599649,0.0-3.2-16.2,68918,List2B,black,woman,,TRUE,0,,,,,
null,CORRECT,,html-keyboard-response,57,601150,0.0-3.2-17.2-0.2,68918,List2B,black,woman,,,,null,,,,
3746,"<img src=""portrait/WW1.jpg""style=""height:400px;""></img>",1,html-button-response,58,604900,0.0-3.2-19.2,68918,List2B,black,woman,,TRUE,1,,,,,
null,CORRECT,,html-keyboard-response,59,606402,0.0-3.2-20.2-0.2,68918,List2B,black,woman,,,,null,,,,
2459,"<img src=""portrait/BM1.jpg""style=""height:400px;""></img>",4,html-button-response,60,608866,0.0-3.2-22.2,68918,List2B,black,woman,,TRUE,4,,,,,
null,CORRECT,,html-keyboard-response,61,610369,0.0-3.2-23.2-0.2,68918,List2B,black,woman,,,,null,,,,
1743,<p>You got 8 out of 8 right first time. Press Continue.</p>,0,html-button-response,62,612114,0.0-3.2-25.2,68918,List2B,black,woman,,,,,,,,
107885,"<p>In this experiment, you will view photographs of the people from the memory game interacting.</p><p>By using the <strong>exact</strong> phrase given <i>after</i> the photograph appears and recalling the correct names of the people in the photographs, form a sentence describing the interaction. You do not need to capitalise names.</p><p>Type your answer in the space provided. Please complete every sentence before moving onto the next trial.</p><p>You will only have a few seconds to memorise each given photograph and phrase before you can respond, so try your best to focus.</p><p>An example is given below. Press 'Continue' when you are ready.</p><img src='img/speaking_example.jpg' style='width:800px;height:460px;''></img>",0,html-button-response,63,721003,0.0-4.0,68918,List2B,black,woman,,,,,,,,
2638,"<p>Before the experiment starts, you will watch two example trials. Press 'Continue'.</p>",0,html-button-response,64,724643,0.0-5.0,68918,List2B,black,woman,,,,,,,,
null,<img src='img/meet_eg.gif' style='height:400px;''></img>,,html-keyboard-response,65,727646,0.0-6.0,68918,List2B,black,woman,,,,null,,,,
null,<p>is meeting</p>,,html-keyboard-response,66,730194,0.0-7.0,68918,List2B,black,woman,,,,null,,,,
2005,<p><b>Answer:</b> jane is meeting ruth</p>,0,html-button-response,67,732201,0.0-8.0,68918,List2B,black,woman,,,,,,,,
null,<img src='img/look_eg.gif' style='height:400px;''></img>,,html-keyboard-response,68,735203,0.0-9.0,68918,List2B,black,woman,,,,null,,,,
null,<p>are looking at each other</p>,,html-keyboard-response,69,737204,0.0-10.0,68918,List2B,black,woman,,,,null,,,,
1281,<p><b>Answer:</b> fred and mike are looking at each other</p>,0,html-button-response,70,738487,0.0-11.0,68918,List2B,black,woman,,,,,,,,
8810,"<p>Ready to start the experiment?</p><br><p><strong>Remember to describe the picture using a full sentence,</strong></p><p><strong>that combines the names of the people with the <i>exact</i> phrase given.</strong></p><p><strong>To receive full payment you must do this correctly.</strong></p><p><strong> You do not need to capitalise names or use punctuation.</strong></p><br><p>Press 'Continue' to begin.</p>",0,html-button-response,71,748300,0.0-12.0,68918,List2B,black,woman,,,,,,,,
null,"<div style=""font-size:60px;"">+</div>",,html-keyboard-response,72,749802,0.0-13.0-0.0,68918,List2B,black,woman,,,,null,,,,
null,"<img src=""stim_listB/flirt5.gif""style=""height:400px;""></stim_listB>",,html-keyboard-response,73,751805,0.0-13.0-1.0,68918,List2B,black,woman,,,,null,,,,
null,is flirting with,,html-keyboard-response,74,753806,0.0-13.0-2.0,68918,List2B,black,woman,,,,null,,,,
9176,,,survey-text,75,762985,0.0-13.0-3.0,68918,List2B,black,woman,,,,,"{""Q0"":""mike is flirting with luke""}","<img src=""stim_listB/flirt5.gif""style=""height:400px;""></stim_listB>",is flirting with,
null,"<div style=""font-size:60px;"">+</div>",,html-keyboard-response,76,763488,0.0-13.0-0.1,68918,List2B,black,woman,,,,null,,,,
null,"<img src=""stim_listB/fight3.gif""style=""height:400px;""></stim_listB>",,html-keyboard-response,77,765492,0.0-13.0-1.1,68918,List2B,black,woman,,,,null,,,,
null,is fighting,,html-keyboard-response,78,767493,0.0-13.0-2.1,68918,List2B,black,woman,,,,null,,,,
13358,,,survey-text,79,780853,0.0-13.0-3.1,68918,List2B,black,woman,,,,,"{""Q0"":""mike is boxing kate""}","<img src=""stim_listB/fight3.gif""style=""height:400px;""></stim_listB>",is fighting,
null,"<div style=""font-size:60px;"">+</div>",,html-keyboard-response,80,781355,0.0-13.0-0.2,68918,List2B,black,woman,,,,null,,,,
null,"<img src=""stim_listB/flirt8.gif""style=""height:400px;""></stim_listB>",,html-keyboard-response,81,783555,0.0-13.0-1.2,68918,List2B,black,woman,,,,null,,,,
null,are flirting with each other,,html-keyboard-response,82,785557,0.0-13.0-2.2,68918,List2B,black,woman,,,,null,,,,
23445,,,survey-text,83,809005,0.0-13.0-3.2,68918,List2B,black,woman,,,,,"{""Q0"":""jane and kate are flirting with each other""}","<img src=""stim_listB/flirt8.gif""style=""height:400px;""></stim_listB>",are flirting with each other,
null,"<div style=""font-size:60px;"">+</div>",,html-keyboard-response,84,809507,0.0-13.0-0.3,68918,List2B,black,woman,,,,null,,,,
null,"<img src=""stim_listB/kiss7.gif""style=""height:400px;""></stim_listB>",,html-keyboard-response,85,811509,0.0-13.0-1.3,68918,List2B,black,woman,,,,null,,,,
null,is kissing,,html-keyboard-response,86,813510,0.0-13.0-2.3,68918,List2B,black,woman,,,,null,,,,
9067,,,survey-text,87,822579,0.0-13.0-3.3,68918,List2B,black,woman,,,,,"{""Q0"":""beth is kissing ruth""}","<img src=""stim_listB/kiss7.gif""style=""height:400px;""></stim_listB>",is kissing,
null,"<div style=""font-size:60px;"">+</div>",,html-keyboard-response,88,823081,0.0-13.0-0.4,68918,List2B,black,woman,,,,null,,,,
null,"<img src=""stim_listB/talk8.gif""style=""height:400px;""></stim_listB>",,html-keyboard-response,89,825084,0.0-13.0-1.4,68918,List2B,black,woman,,,,null,,,,
null,are talking to each other,,html-keyboard-response,90,827085,0.0-13.0-2.4,68918,List2B,black,woman,,,,null,,,,
17366,,,survey-text,91,844453,0.0-13.0-3.4,68918,List2B,black,woman,,,,,"{""Q0"":""kate and jane are talking to each other""}","<img src=""stim_listB/talk8.gif""style=""height:400px;""></stim_listB>",are talking to each other,
null,"<div style=""font-size:60px;"">+</div>",,html-keyboard-response,92,844956,0.0-13.0-0.5,68918,List2B,black,woman,,,,null,,,,
null,"<img src=""stim_listB/shout4.gif""style=""height:400px;""></stim_listB>",,html-keyboard-response,93,846958,0.0-13.0-1.5,68918,List2B,black,woman,,,,null,,,,
null,are shouting at each other,,html-keyboard-response,94,848977,0.0-13.0-2.5,68918,List2B,black,woman,,,,null,,,,
14402,,,survey-text,95,863381,0.0-13.0-3.5,68918,List2B,black,woman,,,,,"{""Q0"":""mike and kate are shouting at each other""}","<img src=""stim_listB/shout4.gif""style=""height:400px;""></stim_listB>",are shouting at each other,
null,"<div style=""font-size:60px;"">+</div>",,html-keyboard-response,96,863884,0.0-13.0-0.6,68918,List2B,black,woman,,,,null,,,,
null,"<img src=""stim_listB/shout1.gif""style=""height:400px;""></stim_listB>",,html-keyboard-response,97,865892,0.0-13.0-1.6,68918,List2B,black,woman,,,,null,,,,
null,is shouting at,,html-keyboard-response,98,867894,0.0-13.0-2.6,68918,List2B,black,woman,,,,null,,,,
12612,,,survey-text,99,880509,0.0-13.0-3.6,68918,List2B,black,woman,,,,,"{""Q0"":""luke is shout at ruth""}","<img src=""stim_listB/shout1.gif""style=""height:400px;""></stim_listB>",is shouting at,
null,"<div style=""font-size:60px;"">+</div>",,html-keyboard-response,100,881010,0.0-13.0-0.7,68918,List2B,black,woman,,,,null,,,,
null,"<img src=""stim_listB/play7.gif""style=""height:400px;""></stim_listB>",,html-keyboard-response,101,883013,0.0-13.0-1.7,68918,List2B,black,woman,,,,null,,,,
null,is playing with,,html-keyboard-response,102,885014,0.0-13.0-2.7,68918,List2B,black,woman,,,,null,,,,
8294,,,survey-text,103,893310,0.0-13.0-3.7,68918,List2B,black,woman,,,,,"{""Q0"":""kate is playing with jane""}","<img src=""stim_listB/play7.gif""style=""height:400px;""></stim_listB>",is playing with,
null,"<div style=""font-size:60px;"">+</div>",,html-keyboard-response,104,893813,0.0-13.0-0.8,68918,List2B,black,woman,,,,null,,,,
null,"<img src=""stim_listB/marry3.gif""style=""height:400px;""></stim_listB>",,html-keyboard-response,105,895815,0.0-13.0-1.8,68918,List2B,black,woman,,,,null,,,,
null,is marrying,,html-keyboard-response,106,897817,0.0-13.0-2.8,68918,List2B,black,woman,,,,null,,,,
8924,,,survey-text,107,906742,0.0-13.0-3.8,68918,List2B,black,woman,,,,,"{""Q0"":""mike is marrying beth""}","<img src=""stim_listB/marry3.gif""style=""height:400px;""></stim_listB>",is marrying,
null,"<div style=""font-size:60px;"">+</div>",,html-keyboard-response,108,907244,0.0-13.0-0.9,68918,List2B,black,woman,,,,null,,,,
null,"<img src=""stim_listB/shout8.gif""style=""height:400px;""></stim_listB>",,html-keyboard-response,109,909247,0.0-13.0-1.9,68918,List2B,black,woman,,,,null,,,,
null,are shouting at each other,,html-keyboard-response,110,911248,0.0-13.0-2.9,68918,List2B,black,woman,,,,null,,,,
24119,,,survey-text,111,935370,0.0-13.0-3.9,68918,List2B,black,woman,,,,,"{""Q0"":""jane and kate are shouting at each other""}","<img src=""stim_listB/shout8.gif""style=""height:400px;""></stim_listB>",are shouting at each other,
null,"<div style=""font-size:60px;"">+</div>",,html-keyboard-response,112,935871,0.0-13.0-0.10,68918,List2B,black,woman,,,,null,,,,
null,"<img src=""stim_listB/argue1.gif""style=""height:400px;""></stim_listB>",,html-keyboard-response,113,937874,0.0-13.0-1.10,68918,List2B,black,woman,,,,null,,,,
null,is arguing with,,html-keyboard-response,114,940553,0.0-13.0-2.10,68918,List2B,black,woman,,,,null,,,,
14498,,,survey-text,115,955057,0.0-13.0-3.10,68918,List2B,black,woman,,,,,"{""Q0"":""ruth is arguing with dave""}","<img src=""stim_listB/argue1.gif""style=""height:400px;""></stim_listB>",is arguing with,
null,"<div style=""font-size:60px;"">+</div>",,html-keyboard-response,116,955559,0.0-13.0-0.11,68918,List2B,black,woman,,,,null,,,,
null,"<img src=""stim_listB/fight8.gif""style=""height:400px;""></stim_listB>",,html-keyboard-response,117,957564,0.0-13.0-1.11,68918,List2B,black,woman,,,,null,,,,
null,are fighting each other,,html-keyboard-response,118,959566,0.0-13.0-2.11,68918,List2B,black,woman,,,,null,,,,
11339,,,survey-text,119,970907,0.0-13.0-3.11,68918,List2B,black,woman,,,,,"{""Q0"":""beth and ruth are fighting each other""}","<img src=""stim_listB/fight8.gif""style=""height:400px;""></stim_listB>",are fighting each other,
null,"<div style=""font-size:60px;"">+</div>",,html-keyboard-response,120,971410,0.0-13.0-0.12,68918,List2B,black,woman,,,,null,,,,
null,"<img src=""stim_listB/touch7.gif""style=""height:400px;""></stim_listB>",,html-keyboard-response,121,973413,0.0-13.0-1.12,68918,List2B,black,woman,,,,null,,,,
null,is touching,,html-keyboard-response,122,975551,0.0-13.0-2.12,68918,List2B,black,woman,,,,null,,,,
7975,,,survey-text,123,983528,0.0-13.0-3.12,68918,List2B,black,woman,,,,,"{""Q0"":""jane and kate are friends""}","<img src=""stim_listB/touch7.gif""style=""height:400px;""></stim_listB>",is touching,
null,"<div style=""font-size:60px;"">+</div>",,html-keyboard-response,124,984029,0.0-13.0-0.13,68918,List2B,black,woman,,,,null,,,,
null,"<img src=""stim_listB/dance7.gif""style=""height:400px;""></stim_listB>",,html-keyboard-response,125,986032,0.0-13.0-1.13,68918,List2B,black,woman,,,,null,,,,
null,is dancing with,,html-keyboard-response,126,988554,0.0-13.0-2.13,68918,List2B,black,woman,,,,null,,,,
18699,,,survey-text,127,1007258,0.0-13.0-3.13,68918,List2B,black,woman,,,,,"{""Q0"":""kate is dancing with ruth""}","<img src=""stim_listB/dance7.gif""style=""height:400px;""></stim_listB>",is dancing with,
null,"<div style=""font-size:60px;"">+</div>",,html-keyboard-response,128,1007760,0.0-13.0-0.14,68918,List2B,black,woman,,,,null,,,,
null,"<img src=""stim_listB/talk5.gif""style=""height:400px;""></stim_listB>",,html-keyboard-response,129,1009762,0.0-13.0-1.14,68918,List2B,black,woman,,,,null,,,,
null,is talking to,,html-keyboard-response,130,1012450,0.0-13.0-2.14,68918,List2B,black,woman,,,,null,,,,
7286,,,survey-text,131,1019739,0.0-13.0-3.14,68918,List2B,black,woman,,,,,"{""Q0"":""mike is talking to luke""}","<img src=""stim_listB/talk5.gif""style=""height:400px;""></stim_listB>",is talking to,
null,"<div style=""font-size:60px;"">+</div>",,html-keyboard-response,132,1020241,0.0-13.0-0.15,68918,List2B,black,woman,,,,null,,,,
null,"<img src=""stim_listB/kiss8.gif""style=""height:400px;""></stim_listB>",,html-keyboard-response,133,1022243,0.0-13.0-1.15,68918,List2B,black,woman,,,,null,,,,
null,are kissing each other,,html-keyboard-response,134,1024247,0.0-13.0-2.15,68918,List2B,black,woman,,,,null,,,,
13470,,,survey-text,135,1037719,0.0-13.0-3.15,68918,List2B,black,woman,,,,,"{""Q0"":""kate and jane are kissing each other""}","<img src=""stim_listB/kiss8.gif""style=""height:400px;""></stim_listB>",are kissing each other,
null,"<div style=""font-size:60px;"">+</div>",,html-keyboard-response,136,1038221,0.0-13.0-0.16,68918,List2B,black,woman,,,,null,,,,
null,"<img src=""stim_listB/dance4.gif""style=""height:400px;""></stim_listB>",,html-keyboard-response,137,1040223,0.0-13.0-1.16,68918,List2B,black,woman,,,,null,,,,
null,are dancing with each other,,html-keyboard-response,138,1042552,0.0-13.0-2.16,68918,List2B,black,woman,,,,null,,,,
9557,,,survey-text,139,1052111,0.0-13.0-3.16,68918,List2B,black,woman,,,,,"{""Q0"":""mike and beth are dancing with each other""}","<img src=""stim_listB/dance4.gif""style=""height:400px;""></stim_listB>",are dancing with each other,
null,"<div style=""font-size:60px;"">+</div>",,html-keyboard-response,140,1052613,0.0-13.0-0.17,68918,List2B,black,woman,,,,null,,,,
null,"<img src=""stim_listB/talk1.gif""style=""height:400px;""></stim_listB>",,html-keyboard-response,141,1054616,0.0-13.0-1.17,68918,List2B,black,woman,,,,null,,,,
null,is talking to,,html-keyboard-response,142,1057494,0.0-13.0-2.17,68918,List2B,black,woman,,,,null,,,,
7987,,,survey-text,143,1065483,0.0-13.0-3.17,68918,List2B,black,woman,,,,,"{""Q0"":""luke is talking to jane""}","<img src=""stim_listB/talk1.gif""style=""height:400px;""></stim_listB>",is talking to,
null,"<div style=""font-size:60px;"">+</div>",,html-keyboard-response,144,1065985,0.0-13.0-0.18,68918,List2B,black,woman,,,,null,,,,
null,"<img src=""stim_listB/marry8.gif""style=""height:400px;""></stim_listB>",,html-keyboard-response,145,1067987,0.0-13.0-1.18,68918,List2B,black,woman,,,,null,,,,
null,are marrying each other,,html-keyboard-response,146,1070551,0.0-13.0-2.18,68918,List2B,black,woman,,,,null,,,,
15312,,,survey-text,147,1085866,0.0-13.0-3.18,68918,List2B,black,woman,,,,,"{""Q0"":""ruth and kate are marrying each other""}","<img src=""stim_listB/marry8.gif""style=""height:400px;""></stim_listB>",are marrying each other,
null,"<div style=""font-size:60px;"">+</div>",,html-keyboard-response,148,1086367,0.0-13.0-0.19,68918,List2B,black,woman,,,,null,,,,
null,"<img src=""stim_listB/touch8.gif""style=""height:400px;""></stim_listB>",,html-keyboard-response,149,1088370,0.0-13.0-1.19,68918,List2B,black,woman,,,,null,,,,
null,are touching each other,,html-keyboard-response,150,1090552,0.0-13.0-2.19,68918,List2B,black,woman,,,,null,,,,
11923,,,survey-text,151,1102477,0.0-13.0-3.19,68918,List2B,black,woman,,,,,"{""Q0"":""beth and ruth are touching each other""}","<img src=""stim_listB/touch8.gif""style=""height:400px;""></stim_listB>",are touching each other,
3519,"<img src='img/portrait_matrix_list2.jpg' style='width:900px;height:500px;''></img><p>If you have memorised all the portraits and names and are ready to start, press Continue.</p><p><strong>Please note: Your memory of these faces will be tested 4 times during this experiment.</strong></p>",0,html-button-response,152,1105998,0.0-14.0-0.0,68918,List2B,black,woman,,,,,,,,
2600,"<img src=""portrait/WW1.jpg""style=""height:400px;""></img>",1,html-button-response,153,1109602,0.0-14.0-1.0,68918,List2B,black,woman,,TRUE,1,,,,,
null,CORRECT,,html-keyboard-response,154,1111105,0.0-14.0-2.0-0.0,68918,List2B,black,woman,,,,null,,,,
2736,"<img src=""portrait/WM2.jpg""style=""height:400px;""></img>",7,html-button-response,155,1113851,0.0-14.0-4.0,68918,List2B,black,woman,,TRUE,7,,,,,
null,CORRECT,,html-keyboard-response,156,1115358,0.0-14.0-5.0-0.0,68918,List2B,black,woman,,,,null,,,,
2435,"<img src=""portrait/WW2.jpg""style=""height:400px;""></img>",3,html-button-response,157,1117805,0.0-14.0-7.0,68918,List2B,black,woman,,TRUE,3,,,,,
null,CORRECT,,html-keyboard-response,158,1119307,0.0-14.0-8.0-0.0,68918,List2B,black,woman,,,,null,,,,
2137,"<img src=""portrait/BM2.jpg""style=""height:400px;""></img>",5,html-button-response,159,1121448,0.0-14.0-10.0,68918,List2B,black,woman,,TRUE,5,,,,,
null,CORRECT,,html-keyboard-response,160,1122950,0.0-14.0-11.0-0.0,68918,List2B,black,woman,,,,null,,,,
2353,"<img src=""portrait/BW1.jpg""style=""height:400px;""></img>",0,html-button-response,161,1125305,0.0-14.0-13.0,68918,List2B,black,woman,,TRUE,0,,,,,
null,CORRECT,,html-keyboard-response,162,1126807,0.0-14.0-14.0-0.0,68918,List2B,black,woman,,,,null,,,,
2157,"<img src=""portrait/WM1.jpg""style=""height:400px;""></img>",6,html-button-response,163,1128969,0.0-14.0-16.0,68918,List2B,black,woman,,TRUE,6,,,,,
null,CORRECT,,html-keyboard-response,164,1130471,0.0-14.0-17.0-0.0,68918,List2B,black,woman,,,,null,,,,
2807,"<img src=""portrait/BM1.jpg""style=""height:400px;""></img>",4,html-button-response,165,1133283,0.0-14.0-19.0,68918,List2B,black,woman,,TRUE,4,,,,,
null,CORRECT,,html-keyboard-response,166,1134784,0.0-14.0-20.0-0.0,68918,List2B,black,woman,,,,null,,,,
2759,"<img src=""portrait/BW2.jpg""style=""height:400px;""></img>",2,html-button-response,167,1137547,0.0-14.0-22.0,68918,List2B,black,woman,,TRUE,2,,,,,
null,CORRECT,,html-keyboard-response,168,1139049,0.0-14.0-23.0-0.0,68918,List2B,black,woman,,,,null,,,,
1549,<p>You got 8 out of 8 right first time. Press Continue.</p>,0,html-button-response,169,1140600,0.0-14.0-25.0,68918,List2B,black,woman,,,,,,,,
null,"<div style=""font-size:60px;"">+</div>",,html-keyboard-response,170,1142103,0.0-15.0-0.0,68918,List2B,black,woman,,,,null,,,,
null,"<img src=""stim_listB/kiss4.gif""style=""height:400px;""></stim_listB>",,html-keyboard-response,171,1144106,0.0-15.0-1.0,68918,List2B,black,woman,,,,null,,,,
null,are kissing each other,,html-keyboard-response,172,1146553,0.0-15.0-2.0,68918,List2B,black,woman,,,,null,,,,
13095,,,survey-text,173,1159652,0.0-15.0-3.0,68918,List2B,black,woman,,,,,"{""Q0"":""kate and mike are kissing each other""}","<img src=""stim_listB/kiss4.gif""style=""height:400px;""></stim_listB>",are kissing each other,
null,"<div style=""font-size:60px;"">+</div>",,html-keyboard-response,174,1160153,0.0-15.0-0.1,68918,List2B,black,woman,,,,null,,,,
null,"<img src=""stim_listB/dance2.gif""style=""height:400px;""></stim_listB>",,html-keyboard-response,175,1162156,0.0-15.0-1.1,68918,List2B,black,woman,,,,null,,,,
null,are dancing with each other,,html-keyboard-response,176,1164410,0.0-15.0-2.1,68918,List2B,black,woman,,,,null,,,,
8988,,,survey-text,177,1173401,0.0-15.0-3.1,68918,List2B,black,woman,,,,,"{""Q0"":""dave and ruth are dancing with each other""}","<img src=""stim_listB/dance2.gif""style=""height:400px;""></stim_listB>",are dancing with each other,
null,"<div style=""font-size:60px;"">+</div>",,html-keyboard-response,178,1173902,0.0-15.0-0.2,68918,List2B,black,woman,,,,null,,,,
null,"<img src=""stim_listB/play8.gif""style=""height:400px;""></stim_listB>",,html-keyboard-response,179,1175905,0.0-15.0-1.2,68918,List2B,black,woman,,,,null,,,,
null,are playing with each other,,html-keyboard-response,180,1178389,0.0-15.0-2.2,68918,List2B,black,woman,,,,null,,,,
9650,,,survey-text,181,1188041,0.0-15.0-3.2,68918,List2B,black,woman,,,,,"{""Q0"":""ruth and beth are playing with each other""}","<img src=""stim_listB/play8.gif""style=""height:400px;""></stim_listB>",are playing with each other,
null,"<div style=""font-size:60px;"">+</div>",,html-keyboard-response,182,1188543,0.0-15.0-0.3,68918,List2B,black,woman,,,,null,,,,
null,"<img src=""stim_listB/fight5.gif""style=""height:400px;""></stim_listB>",,html-keyboard-response,183,1190546,0.0-15.0-1.3,68918,List2B,black,woman,,,,null,,,,
null,is fighting,,html-keyboard-response,184,1192551,0.0-15.0-2.3,68918,List2B,black,woman,,,,null,,,,
9747,,,survey-text,185,1202300,0.0-15.0-3.3,68918,List2B,black,woman,,,,,"{""Q0"":""dave is fighting mike""}","<img src=""stim_listB/fight5.gif""style=""height:400px;""></stim_listB>",is fighting,
null,"<div style=""font-size:60px;"">+</div>",,html-keyboard-response,186,1202803,0.0-15.0-0.4,68918,List2B,black,woman,,,,null,,,,
null,"<img src=""stim_listB/kiss2.gif""style=""height:400px;""></stim_listB>",,html-keyboard-response,187,1204805,0.0-15.0-1.4,68918,List2B,black,woman,,,,null,,,,
null,are kissing each other,,html-keyboard-response,188,1207551,0.0-15.0-2.4,68918,List2B,black,woman,,,,null,,,,
9051,,,survey-text,189,1216603,0.0-15.0-3.4,68918,List2B,black,woman,,,,,"{""Q0"":""jane and dave are kissing each other""}","<img src=""stim_listB/kiss2.gif""style=""height:400px;""></stim_listB>",are kissing each other,
null,"<div style=""font-size:60px;"">+</div>",,html-keyboard-response,190,1217106,0.0-15.0-0.5,68918,List2B,black,woman,,,,null,,,,
null,"<img src=""stim_listB/dance8.gif""style=""height:400px;""></stim_listB>",,html-keyboard-response,191,1219109,0.0-15.0-1.5,68918,List2B,black,woman,,,,null,,,,
null,are dancing with each other,,html-keyboard-response,192,1221553,0.0-15.0-2.5,68918,List2B,black,woman,,,,null,,,,
10781,,,survey-text,193,1232335,0.0-15.0-3.5,68918,List2B,black,woman,,,,,"{""Q0"":""jane and beth are dancing with each other""}","<img src=""stim_listB/dance8.gif""style=""height:400px;""></stim_listB>",are dancing with each other,
null,"<div style=""font-size:60px;"">+</div>",,html-keyboard-response,194,1232837,0.0-15.0-0.6,68918,List2B,black,woman,,,,null,,,,
null,"<img src=""stim_listB/flirt2.gif""style=""height:400px;""></stim_listB>",,html-keyboard-response,195,1234839,0.0-15.0-1.6,68918,List2B,black,woman,,,,null,,,,
null,are flirting with each other,,html-keyboard-response,196,1237551,0.0-15.0-2.6,68918,List2B,black,woman,,,,null,,,,
25484,,,survey-text,197,1263038,0.0-15.0-3.6,68918,List2B,black,woman,,,,,"{""Q0"":""dave and ruth are flirting with each other""}","<img src=""stim_listB/flirt2.gif""style=""height:400px;""></stim_listB>",are flirting with each other,
null,"<div style=""font-size:60px;"">+</div>",,html-keyboard-response,198,1263540,0.0-15.0-0.7,68918,List2B,black,woman,,,,null,,,,
null,"<img src=""stim_listB/argue8.gif""style=""height:400px;""></stim_listB>",,html-keyboard-response,199,1265542,0.0-15.0-1.7,68918,List2B,black,woman,,,,null,,,,
null,are arguing with each other,,html-keyboard-response,200,1267551,0.0-15.0-2.7,68918,List2B,black,woman,,,,null,,,,
9979,,,survey-text,201,1277532,0.0-15.0-3.7,68918,List2B,black,woman,,,,,"{""Q0"":""kate and ruth are arguing with each other""}","<img src=""stim_listB/argue8.gif""style=""height:400px;""></stim_listB>",are arguing with each other,
null,"<div style=""font-size:60px;"">+</div>",,html-keyboard-response,202,1278034,0.0-15.0-0.8,68918,List2B,black,woman,,,,null,,,,
null,"<img src=""stim_listB/fight1.gif""style=""height:400px;""></stim_listB>",,html-keyboard-response,203,1280036,0.0-15.0-1.8,68918,List2B,black,woman,,,,null,,,,
null,is fighting,,html-keyboard-response,204,1282248,0.0-15.0-2.8,68918,List2B,black,woman,,,,null,,,,
10979,,,survey-text,205,1293229,0.0-15.0-3.8,68918,List2B,black,woman,,,,,"{""Q0"":""dave is fighting jane""}","<img src=""stim_listB/fight1.gif""style=""height:400px;""></stim_listB>",is fighting,
null,"<div style=""font-size:60px;"">+</div>",,html-keyboard-response,206,1293730,0.0-15.0-0.9,68918,List2B,black,woman,,,,null,,,,
null,"<img src=""stim_listB/touch4.gif""style=""height:400px;""></stim_listB>",,html-keyboard-response,207,1295733,0.0-15.0-1.9,68918,List2B,black,woman,,,,null,,,,
null,are touching each other,,html-keyboard-response,208,1298551,0.0-15.0-2.9,68918,List2B,black,woman,,,,null,,,,
7705,,,survey-text,209,1306258,0.0-15.0-3.9,68918,List2B,black,woman,,,,,"{""Q0"":""beth and fred are fighting each other""}","<img src=""stim_listB/touch4.gif""style=""height:400px;""></stim_listB>",are touching each other,
null,"<div style=""font-size:60px;"">+</div>",,html-keyboard-response,210,1306760,0.0-15.0-0.10,68918,List2B,black,woman,,,,null,,,,
null,"<img src=""stim_listB/shout6.gif""style=""height:400px;""></stim_listB>",,html-keyboard-response,211,1308763,0.0-15.0-1.10,68918,List2B,black,woman,,,,null,,,,
null,are shouting at each other,,html-keyboard-response,212,1310924,0.0-15.0-2.10,68918,List2B,black,woman,,,,null,,,,
10050,,,survey-text,213,1320977,0.0-15.0-3.10,68918,List2B,black,woman,,,,,"{""Q0"":""dave and mike are shouting at each other""}","<img src=""stim_listB/shout6.gif""style=""height:400px;""></stim_listB>",are shouting at each other,
null,"<div style=""font-size:60px;"">+</div>",,html-keyboard-response,214,1321479,0.0-15.0-0.11,68918,List2B,black,woman,,,,null,,,,
null,"<img src=""stim_listB/shout5.gif""style=""height:400px;""></stim_listB>",,html-keyboard-response,215,1323481,0.0-15.0-1.11,68918,List2B,black,woman,,,,null,,,,
null,is shouting at,,html-keyboard-response,216,1325551,0.0-15.0-2.11,68918,List2B,black,woman,,,,null,,,,
6541,,,survey-text,217,1332094,0.0-15.0-3.11,68918,List2B,black,woman,,,,,"{""Q0"":""luke is shouting at fred""}","<img src=""stim_listB/shout5.gif""style=""height:400px;""></stim_listB>",is shouting at,
null,"<div style=""font-size:60px;"">+</div>",,html-keyboard-response,218,1332596,0.0-15.0-0.12,68918,List2B,black,woman,,,,null,,,,
null,"<img src=""stim_listB/argue5.gif""style=""height:400px;""></stim_listB>",,html-keyboard-response,219,1334599,0.0-15.0-1.12,68918,List2B,black,woman,,,,null,,,,
null,is arguing with,,html-keyboard-response,220,1336600,0.0-15.0-2.12,68918,List2B,black,woman,,,,null,,,,
6187,,,survey-text,221,1342790,0.0-15.0-3.12,68918,List2B,black,woman,,,,,"{""Q0"":""fred is arguing with dave""}","<img src=""stim_listB/argue5.gif""style=""height:400px;""></stim_listB>",is arguing with,
null,"<div style=""font-size:60px;"">+</div>",,html-keyboard-response,222,1343292,0.0-15.0-0.13,68918,List2B,black,woman,,,,null,,,,
null,"<img src=""stim_listB/flirt7.gif""style=""height:400px;""></stim_listB>",,html-keyboard-response,223,1345294,0.0-15.0-1.13,68918,List2B,black,woman,,,,null,,,,
null,is flirting with,,html-keyboard-response,224,1347551,0.0-15.0-2.13,68918,List2B,black,woman,,,,null,,,,
7726,,,survey-text,225,1355279,0.0-15.0-3.13,68918,List2B,black,woman,,,,,"{""Q0"":""kate is flirting with ruth""}","<img src=""stim_listB/flirt7.gif""style=""height:400px;""></stim_listB>",is flirting with,
null,"<div style=""font-size:60px;"">+</div>",,html-keyboard-response,226,1355782,0.0-15.0-0.14,68918,List2B,black,woman,,,,null,,,,
null,"<img src=""stim_listB/play6.gif""style=""height:400px;""></stim_listB>",,html-keyboard-response,227,1357784,0.0-15.0-1.14,68918,List2B,black,woman,,,,null,,,,
null,are playing with each other,,html-keyboard-response,228,1360551,0.0-15.0-2.14,68918,List2B,black,woman,,,,null,,,,
8619,,,survey-text,229,1369172,0.0-15.0-3.14,68918,List2B,black,woman,,,,,"{""Q0"":""luke and fred are playing with each other""}","<img src=""stim_listB/play6.gif""style=""height:400px;""></stim_listB>",are playing with each other,
null,"<div style=""font-size:60px;"">+</div>",,html-keyboard-response,230,1369674,0.0-15.0-0.15,68918,List2B,black,woman,,,,null,,,,
null,"<img src=""stim_listB/argue2.gif""style=""height:400px;""></stim_listB>",,html-keyboard-response,231,1371676,0.0-15.0-1.15,68918,List2B,black,woman,,,,null,,,,
null,are arguing with each other,,html-keyboard-response,232,1374552,0.0-15.0-2.15,68918,List2B,black,woman,,,,null,,,,
11105,,,survey-text,233,1385659,0.0-15.0-3.15,68918,List2B,black,woman,,,,,"{""Q0"":""dave and jane are arguing with each other""}","<img src=""stim_listB/argue2.gif""style=""height:400px;""></stim_listB>",are arguing with each other,
null,"<div style=""font-size:60px;"">+</div>",,html-keyboard-response,234,1386161,0.0-15.0-0.16,68918,List2B,black,woman,,,,null,,,,
null,"<img src=""stim_listB/kiss1.gif""style=""height:400px;""></stim_listB>",,html-keyboard-response,235,1388168,0.0-15.0-1.16,68918,List2B,black,woman,,,,null,,,,
null,is kissing,,html-keyboard-response,236,1390333,0.0-15.0-2.16,68918,List2B,black,woman,,,,null,,,,
24010,,,survey-text,237,1414346,0.0-15.0-3.16,68918,List2B,black,woman,,,,,"{""Q0"":""luke is kissing ruth""}","<img src=""stim_listB/kiss1.gif""style=""height:400px;""></stim_listB>",is kissing,
null,"<div style=""font-size:60px;"">+</div>",,html-keyboard-response,238,1414848,0.0-15.0-0.17,68918,List2B,black,woman,,,,null,,,,
null,"<img src=""stim_listB/talk4.gif""style=""height:400px;""></stim_listB>",,html-keyboard-response,239,1416851,0.0-15.0-1.17,68918,List2B,black,woman,,,,null,,,,
null,are talking to each other,,html-keyboard-response,240,1419551,0.0-15.0-2.17,68918,List2B,black,woman,,,,null,,,,
8415,,,survey-text,241,1427968,0.0-15.0-3.17,68918,List2B,black,woman,,,,,"{""Q0"":""mike and beth are talking to each other""}","<img src=""stim_listB/talk4.gif""style=""height:400px;""></stim_listB>",are talking to each other,
null,"<div style=""font-size:60px;"">+</div>",,html-keyboard-response,242,1428470,0.0-15.0-0.18,68918,List2B,black,woman,,,,null,,,,
null,"<img src=""stim_listB/marry1.gif""style=""height:400px;""></stim_listB>",,html-keyboard-response,243,1430473,0.0-15.0-1.18,68918,List2B,black,woman,,,,null,,,,
null,is marrying,,html-keyboard-response,244,1432551,0.0-15.0-2.18,68918,List2B,black,woman,,,,null,,,,
7561,,,survey-text,245,1440114,0.0-15.0-3.18,68918,List2B,black,woman,,,,,"{""Q0"":""dave is marrying ruth""}","<img src=""stim_listB/marry1.gif""style=""height:400px;""></stim_listB>",is marrying,
null,"<div style=""font-size:60px;"">+</div>",,html-keyboard-response,246,1440616,0.0-15.0-0.19,68918,List2B,black,woman,,,,null,,,,
null,"<img src=""stim_listB/touch3.gif""style=""height:400px;""></stim_listB>",,html-keyboard-response,247,1442620,0.0-15.0-1.19,68918,List2B,black,woman,,,,null,,,,
null,is touching,,html-keyboard-response,248,1444621,0.0-15.0-2.19,68918,List2B,black,woman,,,,null,,,,
9668,,,survey-text,249,1454291,0.0-15.0-3.19,68918,List2B,black,woman,,,,,"{""Q0"":""mike is touching kate""}","<img src=""stim_listB/touch3.gif""style=""height:400px;""></stim_listB>",is touching,
2493,"<img src='img/portrait_matrix_list2.jpg' style='width:900px;height:500px;''></img><p>If you have memorised all the portraits and names and are ready to start, press Continue.</p><p><strong>Please note: Your memory of these faces will be tested 4 times during this experiment.</strong></p>",0,html-button-response,250,1456787,0.0-16.0-0.0,68918,List2B,black,woman,,,,,,,,
3895,"<img src=""portrait/BW2.jpg""style=""height:400px;""></img>",2,html-button-response,251,1461686,0.0-16.0-1.0,68918,List2B,black,woman,,TRUE,2,,,,,
null,CORRECT,,html-keyboard-response,252,1463189,0.0-16.0-2.0-0.0,68918,List2B,black,woman,,,,null,,,,
2379,"<img src=""portrait/BW1.jpg""style=""height:400px;""></img>",0,html-button-response,253,1465571,0.0-16.0-4.0,68918,List2B,black,woman,,TRUE,0,,,,,
null,CORRECT,,html-keyboard-response,254,1467073,0.0-16.0-5.0-0.0,68918,List2B,black,woman,,,,null,,,,
2534,"<img src=""portrait/WW1.jpg""style=""height:400px;""></img>",3,html-button-response,255,1469610,0.0-16.0-7.0,68918,List2B,black,woman,,TRUE,1,,,,,
1867,"<img src=""portrait/WW1.jpg""style=""height:400px;""></img>",1,html-button-response,256,1472481,0.0-16.0-9.0-0.0,68918,List2B,black,woman,,FALSE,1,,,,,
null,CORRECT,,html-keyboard-response,257,1473984,0.0-16.0-9.0-1.0-0.0,68918,List2B,black,woman,,,,null,,,,
1883,"<img src=""portrait/BM2.jpg""style=""height:400px;""></img>",5,html-button-response,258,1475870,0.0-16.0-10.0,68918,List2B,black,woman,,TRUE,5,,,,,
null,CORRECT,,html-keyboard-response,259,1477372,0.0-16.0-11.0-0.0,68918,List2B,black,woman,,,,null,,,,
1112,"<img src=""portrait/WM2.jpg""style=""height:400px;""></img>",7,html-button-response,260,1478488,0.0-16.0-13.0,68918,List2B,black,woman,,TRUE,7,,,,,
null,CORRECT,,html-keyboard-response,261,1479990,0.0-16.0-14.0-0.0,68918,List2B,black,woman,,,,null,,,,
3556,"<img src=""portrait/WW2.jpg""style=""height:400px;""></img>",3,html-button-response,262,1483549,0.0-16.0-16.0,68918,List2B,black,woman,,TRUE,3,,,,,
null,CORRECT,,html-keyboard-response,263,1485057,0.0-16.0-17.0-0.0,68918,List2B,black,woman,,,,null,,,,
1854,"<img src=""portrait/WM1.jpg""style=""height:400px;""></img>",6,html-button-response,264,1486914,0.0-16.0-19.0,68918,List2B,black,woman,,TRUE,6,,,,,
null,CORRECT,,html-keyboard-response,265,1488417,0.0-16.0-20.0-0.0,68918,List2B,black,woman,,,,null,,,,
1556,"<img src=""portrait/BM1.jpg""style=""height:400px;""></img>",4,html-button-response,266,1489977,0.0-16.0-22.0,68918,List2B,black,woman,,TRUE,4,,,,,
null,CORRECT,,html-keyboard-response,267,1491479,0.0-16.0-23.0-0.0,68918,List2B,black,woman,,,,null,,,,
1869,<p>You got 7 out of 8 right first time. Press Continue.</p>,0,html-button-response,268,1493350,0.0-16.0-25.0,68918,List2B,black,woman,,,,,,,,
978,"As you did not score 100%, the memory game will repeat. Press Continue.",0,html-button-response,269,1495331,0.0-16.0-26.0-0.0,68918,List2B,black,woman,,,,,,,,
3014,"<img src='img/portrait_matrix_list2.jpg' style='width:900px;height:500px;''></img><p>If you have memorised all the portraits and names and are ready to start, press Continue.</p><p><strong>Please note: Your memory of these faces will be tested 4 times during this experiment.</strong></p>",0,html-button-response,270,1499349,0.0-16.1-0.1,68918,List2B,black,woman,,,,,,,,
2641,"<img src=""portrait/BW2.jpg""style=""height:400px;""></img>",2,html-button-response,271,1502993,0.0-16.1-1.1,68918,List2B,black,woman,,TRUE,2,,,,,
null,CORRECT,,html-keyboard-response,272,1504496,0.0-16.1-2.1-0.1,68918,List2B,black,woman,,,,null,,,,
2135,"<img src=""portrait/BW1.jpg""style=""height:400px;""></img>",0,html-button-response,273,1506635,0.0-16.1-4.1,68918,List2B,black,woman,,TRUE,0,,,,,
null,CORRECT,,html-keyboard-response,274,1508139,0.0-16.1-5.1-0.1,68918,List2B,black,woman,,,,null,,,,
2685,"<img src=""portrait/WW1.jpg""style=""height:400px;""></img>",1,html-button-response,275,1510836,0.0-16.1-7.1,68918,List2B,black,woman,,TRUE,1,,,,,
null,CORRECT,,html-keyboard-response,276,1512339,0.0-16.1-8.1-0.1,68918,List2B,black,woman,,,,null,,,,
2022,"<img src=""portrait/BM2.jpg""style=""height:400px;""></img>",5,html-button-response,277,1514364,0.0-16.1-10.1,68918,List2B,black,woman,,TRUE,5,,,,,
null,CORRECT,,html-keyboard-response,278,1515877,0.0-16.1-11.1-0.1,68918,List2B,black,woman,,,,null,,,,
3334,"<img src=""portrait/WM2.jpg""style=""height:400px;""></img>",7,html-button-response,279,1519226,0.0-16.1-13.1,68918,List2B,black,woman,,TRUE,7,,,,,
null,CORRECT,,html-keyboard-response,280,1520736,0.0-16.1-14.1-0.1,68918,List2B,black,woman,,,,null,,,,
2801,"<img src=""portrait/WW2.jpg""style=""height:400px;""></img>",3,html-button-response,281,1523541,0.0-16.1-16.1,68918,List2B,black,woman,,TRUE,3,,,,,
null,CORRECT,,html-keyboard-response,282,1525044,0.0-16.1-17.1-0.1,68918,List2B,black,woman,,,,null,,,,
3045,"<img src=""portrait/WM1.jpg""style=""height:400px;""></img>",6,html-button-response,283,1528093,0.0-16.1-19.1,68918,List2B,black,woman,,TRUE,6,,,,,
null,CORRECT,,html-keyboard-response,284,1529594,0.0-16.1-20.1-0.1,68918,List2B,black,woman,,,,null,,,,
2555,"<img src=""portrait/BM1.jpg""style=""height:400px;""></img>",4,html-button-response,285,1532153,0.0-16.1-22.1,68918,List2B,black,woman,,TRUE,4,,,,,
null,CORRECT,,html-keyboard-response,286,1533655,0.0-16.1-23.1-0.1,68918,List2B,black,woman,,,,null,,,,
1250,<p>You got 8 out of 8 right first time. Press Continue.</p>,0,html-button-response,287,1534908,0.0-16.1-25.1,68918,List2B,black,woman,,,,,,,,
null,"<div style=""font-size:60px;"">+</div>",,html-keyboard-response,288,1536411,0.0-17.0-0.0,68918,List2B,black,woman,,,,null,,,,
null,"<img src=""stim_listB/shout7.gif""style=""height:400px;""></stim_listB>",,html-keyboard-response,289,1538414,0.0-17.0-1.0,68918,List2B,black,woman,,,,null,,,,
null,is shouting at,,html-keyboard-response,290,1540415,0.0-17.0-2.0,68918,List2B,black,woman,,,,null,,,,
5817,,,survey-text,291,1546235,0.0-17.0-3.0,68918,List2B,black,woman,,,,,"{""Q0"":""beth is shouting at ruth""}","<img src=""stim_listB/shout7.gif""style=""height:400px;""></stim_listB>",is shouting at,
null,"<div style=""font-size:60px;"">+</div>",,html-keyboard-response,292,1546736,0.0-17.0-0.1,68918,List2B,black,woman,,,,null,,,,
null,"<img src=""stim_listB/talk2.gif""style=""height:400px;""></stim_listB>",,html-keyboard-response,293,1548740,0.0-17.0-1.1,68918,List2B,black,woman,,,,null,,,,
null,are talking to each other,,html-keyboard-response,294,1550742,0.0-17.0-2.1,68918,List2B,black,woman,,,,null,,,,
10915,,,survey-text,295,1561664,0.0-17.0-3.1,68918,List2B,black,woman,,,,,"{""Q0"":""dave and ruth are talking to each other""}","<img src=""stim_listB/talk2.gif""style=""height:400px;""></stim_listB>",are talking to each other,
null,"<div style=""font-size:60px;"">+</div>",,html-keyboard-response,296,1562167,0.0-17.0-0.2,68918,List2B,black,woman,,,,null,,,,
null,"<img src=""stim_listB/marry2.gif""style=""height:400px;""></stim_listB>",,html-keyboard-response,297,1564170,0.0-17.0-1.2,68918,List2B,black,woman,,,,null,,,,
null,are marrying each other,,html-keyboard-response,298,1566552,0.0-17.0-2.2,68918,List2B,black,woman,,,,null,,,,
11264,,,survey-text,299,1577818,0.0-17.0-3.2,68918,List2B,black,woman,,,,,"{""Q0"":""dave and ruth are marrying each other""}","<img src=""stim_listB/marry2.gif""style=""height:400px;""></stim_listB>",are marrying each other,
null,"<div style=""font-size:60px;"">+</div>",,html-keyboard-response,300,1578323,0.0-17.0-0.3,68918,List2B,black,woman,,,,null,,,,
null,"<img src=""stim_listB/fight4.gif""style=""height:400px;""></stim_listB>",,html-keyboard-response,301,1580328,0.0-17.0-1.3,68918,List2B,black,woman,,,,null,,,,
null,are fighting each other,,html-keyboard-response,302,1582551,0.0-17.0-2.3,68918,List2B,black,woman,,,,null,,,,
20402,,,survey-text,303,1602954,0.0-17.0-3.3,68918,List2B,black,woman,,,,,"{""Q0"":""fred and beth are fighting each other""}","<img src=""stim_listB/fight4.gif""style=""height:400px;""></stim_listB>",are fighting each other,
null,"<div style=""font-size:60px;"">+</div>",,html-keyboard-response,304,1603456,0.0-17.0-0.4,68918,List2B,black,woman,,,,null,,,,
null,"<img src=""stim_listB/flirt4.gif""style=""height:400px;""></stim_listB>",,html-keyboard-response,305,1605458,0.0-17.0-1.4,68918,List2B,black,woman,,,,null,,,,
null,are flirting with each other,,html-keyboard-response,306,1607552,0.0-17.0-2.4,68918,List2B,black,woman,,,,null,,,,
9593,,,survey-text,307,1617147,0.0-17.0-3.4,68918,List2B,black,woman,,,,,"{""Q0"":""mike and beth are flirting with each other""}","<img src=""stim_listB/flirt4.gif""style=""height:400px;""></stim_listB>",are flirting with each other,
null,"<div style=""font-size:60px;"">+</div>",,html-keyboard-response,308,1617649,0.0-17.0-0.5,68918,List2B,black,woman,,,,null,,,,
null,"<img src=""stim_listB/talk7.gif""style=""height:400px;""></stim_listB>",,html-keyboard-response,309,1619652,0.0-17.0-1.5,68918,List2B,black,woman,,,,null,,,,
null,is talking to,,html-keyboard-response,310,1621908,0.0-17.0-2.5,68918,List2B,black,woman,,,,null,,,,
10588,,,survey-text,311,1632499,0.0-17.0-3.5,68918,List2B,black,woman,,,,,"{""Q0"":""ruth is talking to kate""}","<img src=""stim_listB/talk7.gif""style=""height:400px;""></stim_listB>",is talking to,
null,"<div style=""font-size:60px;"">+</div>",,html-keyboard-response,312,1633001,0.0-17.0-0.6,68918,List2B,black,woman,,,,null,,,,
null,"<img src=""stim_listB/flirt6.gif""style=""height:400px;""></stim_listB>",,html-keyboard-response,313,1635005,0.0-17.0-1.6,68918,List2B,black,woman,,,,null,,,,
null,are flirting with each other,,html-keyboard-response,314,1637009,0.0-17.0-2.6,68918,List2B,black,woman,,,,null,,,,
12426,,,survey-text,315,1649437,0.0-17.0-3.6,68918,List2B,black,woman,,,,,"{""Q0"":""fred and dave are flirting with each other""}","<img src=""stim_listB/flirt6.gif""style=""height:400px;""></stim_listB>",are flirting with each other,
null,"<div style=""font-size:60px;"">+</div>",,html-keyboard-response,316,1649941,0.0-17.0-0.7,68918,List2B,black,woman,,,,null,,,,
null,"<img src=""stim_listB/shout3.gif""style=""height:400px;""></stim_listB>",,html-keyboard-response,317,1651944,0.0-17.0-1.7,68918,List2B,black,woman,,,,null,,,,
null,is shouting at,,html-keyboard-response,318,1653945,0.0-17.0-2.7,68918,List2B,black,woman,,,,null,,,,
8536,,,survey-text,319,1662484,0.0-17.0-3.7,68918,List2B,black,woman,,,,,"{""Q0"":""beth is shouting at fred""}","<img src=""stim_listB/shout3.gif""style=""height:400px;""></stim_listB>",is shouting at,
null,"<div style=""font-size:60px;"">+</div>",,html-keyboard-response,320,1662987,0.0-17.0-0.8,68918,List2B,black,woman,,,,null,,,,
null,"<img src=""stim_listB/dance1.gif""style=""height:400px;""></stim_listB>",,html-keyboard-response,321,1664991,0.0-17.0-1.8,68918,List2B,black,woman,,,,null,,,,
null,is dancing with,,html-keyboard-response,322,1667399,0.0-17.0-2.8,68918,List2B,black,woman,,,,null,,,,
6297,,,survey-text,323,1673698,0.0-17.0-3.8,68918,List2B,black,woman,,,,,"{""Q0"":""luke is dancing with jane""}","<img src=""stim_listB/dance1.gif""style=""height:400px;""></stim_listB>",is dancing with,
null,"<div style=""font-size:60px;"">+</div>",,html-keyboard-response,324,1674200,0.0-17.0-0.9,68918,List2B,black,woman,,,,null,,,,
null,"<img src=""stim_listB/fight2.gif""style=""height:400px;""></stim_listB>",,html-keyboard-response,325,1676202,0.0-17.0-1.9,68918,List2B,black,woman,,,,null,,,,
null,are fighting each other,,html-keyboard-response,326,1678559,0.0-17.0-2.9,68918,List2B,black,woman,,,,null,,,,
21724,,,survey-text,327,1700287,0.0-17.0-3.9,68918,List2B,black,woman,,,,,"{""Q0"":""luke and ruth are fighting with each other""}","<img src=""stim_listB/fight2.gif""style=""height:400px;""></stim_listB>",are fighting each other,
null,"<div style=""font-size:60px;"">+</div>",,html-keyboard-response,328,1700788,0.0-17.0-0.10,68918,List2B,black,woman,,,,null,,,,
null,"<img src=""stim_listB/argue7.gif""style=""height:400px;""></stim_listB>",,html-keyboard-response,329,1702792,0.0-17.0-1.10,68918,List2B,black,woman,,,,null,,,,
null,is arguing with,,html-keyboard-response,330,1705555,0.0-17.0-2.10,68918,List2B,black,woman,,,,null,,,,
10619,,,survey-text,331,1716177,0.0-17.0-3.10,68918,List2B,black,woman,,,,,"{""Q0"":""jane and beth are fighting with each other""}","<img src=""stim_listB/argue7.gif""style=""height:400px;""></stim_listB>",is arguing with,
null,"<div style=""font-size:60px;"">+</div>",,html-keyboard-response,332,1716680,0.0-17.0-0.11,68918,List2B,black,woman,,,,null,,,,
null,"<img src=""stim_listB/play2.gif""style=""height:400px;""></stim_listB>",,html-keyboard-response,333,1718683,0.0-17.0-1.11,68918,List2B,black,woman,,,,null,,,,
null,are playing with each other,,html-keyboard-response,334,1721025,0.0-17.0-2.11,68918,List2B,black,woman,,,,null,,,,
10090,,,survey-text,335,1731117,0.0-17.0-3.11,68918,List2B,black,woman,,,,,"{""Q0"":""luke and ruth are playing with each other""}","<img src=""stim_listB/play2.gif""style=""height:400px;""></stim_listB>",are playing with each other,
null,"<div style=""font-size:60px;"">+</div>",,html-keyboard-response,336,1731619,0.0-17.0-0.12,68918,List2B,black,woman,,,,null,,,,
null,"<img src=""stim_listB/play5.gif""style=""height:400px;""></stim_listB>",,html-keyboard-response,337,1733622,0.0-17.0-1.12,68918,List2B,black,woman,,,,null,,,,
null,is playing with,,html-keyboard-response,338,1736397,0.0-17.0-2.12,68918,List2B,black,woman,,,,null,,,,
6163,,,survey-text,339,1742562,0.0-17.0-3.12,68918,List2B,black,woman,,,,,"{""Q0"":""mike is playing with dave""}","<img src=""stim_listB/play5.gif""style=""height:400px;""></stim_listB>",is playing with,
null,"<div style=""font-size:60px;"">+</div>",,html-keyboard-response,340,1743064,0.0-17.0-0.13,68918,List2B,black,woman,,,,null,,,,
null,"<img src=""stim_listB/argue3.gif""style=""height:400px;""></stim_listB>",,html-keyboard-response,341,1745067,0.0-17.0-1.13,68918,List2B,black,woman,,,,null,,,,
null,is arguing with,,html-keyboard-response,342,1747551,0.0-17.0-2.13,68918,List2B,black,woman,,,,null,,,,
9738,,,survey-text,343,1757291,0.0-17.0-3.13,68918,List2B,black,woman,,,,,"{""Q0"":""beth is arguing with mike""}","<img src=""stim_listB/argue3.gif""style=""height:400px;""></stim_listB>",is arguing with,
null,"<div style=""font-size:60px;"">+</div>",,html-keyboard-response,344,1757793,0.0-17.0-0.14,68918,List2B,black,woman,,,,null,,,,
null,"<img src=""stim_listB/touch6.gif""style=""height:400px;""></stim_listB>",,html-keyboard-response,345,1759795,0.0-17.0-1.14,68918,List2B,black,woman,,,,null,,,,
null,are touching each other,,html-keyboard-response,346,1761800,0.0-17.0-2.14,68918,List2B,black,woman,,,,null,,,,
6531,,,survey-text,347,1768333,0.0-17.0-3.14,68918,List2B,black,woman,,,,,"{""Q0"":""luke and fred are touching each other""}","<img src=""stim_listB/touch6.gif""style=""height:400px;""></stim_listB>",are touching each other,
null,"<div style=""font-size:60px;"">+</div>",,html-keyboard-response,348,1768835,0.0-17.0-0.15,68918,List2B,black,woman,,,,null,,,,
null,"<img src=""stim_listB/dance6.gif""style=""height:400px;""></stim_listB>",,html-keyboard-response,349,1771552,0.0-17.0-1.15,68918,List2B,black,woman,,,,null,,,,
null,are dancing with each other,,html-keyboard-response,350,1773554,0.0-17.0-2.15,68918,List2B,black,woman,,,,null,,,,
8242,,,survey-text,351,1781798,0.0-17.0-3.15,68918,List2B,black,woman,,,,,"{""Q0"":""fred and dave are dancing with each other""}","<img src=""stim_listB/dance6.gif""style=""height:400px;""></stim_listB>",are dancing with each other,
null,"<div style=""font-size:60px;"">+</div>",,html-keyboard-response,352,1782299,0.0-17.0-0.16,68918,List2B,black,woman,,,,null,,,,
null,"<img src=""stim_listB/touch1.gif""style=""height:400px;""></stim_listB>",,html-keyboard-response,353,1784302,0.0-17.0-1.16,68918,List2B,black,woman,,,,null,,,,
null,is touching,,html-keyboard-response,354,1786551,0.0-17.0-2.16,68918,List2B,black,woman,,,,null,,,,
10297,,,survey-text,355,1796850,0.0-17.0-3.16,68918,List2B,black,woman,,,,,"{""Q0"":""dave is touch with jane""}","<img src=""stim_listB/touch1.gif""style=""height:400px;""></stim_listB>",is touching,
null,"<div style=""font-size:60px;"">+</div>",,html-keyboard-response,356,1797352,0.0-17.0-0.17,68918,List2B,black,woman,,,,null,,,,
null,"<img src=""stim_listB/play4.gif""style=""height:400px;""></stim_listB>",,html-keyboard-response,357,1799354,0.0-17.0-1.17,68918,List2B,black,woman,,,,null,,,,
null,are playing with each other,,html-keyboard-response,358,1801554,0.0-17.0-2.17,68918,List2B,black,woman,,,,null,,,,
13169,,,survey-text,359,1814724,0.0-17.0-3.17,68918,List2B,black,woman,,,,,"{""Q0"":""beth and fred are playing with each other""}","<img src=""stim_listB/play4.gif""style=""height:400px;""></stim_listB>",are playing with each other,
null,"<div style=""font-size:60px;"">+</div>",,html-keyboard-response,360,1815225,0.0-17.0-0.18,68918,List2B,black,woman,,,,null,,,,
null,"<img src=""stim_listB/marry7.gif""style=""height:400px;""></stim_listB>",,html-keyboard-response,361,1817229,0.0-17.0-1.18,68918,List2B,black,woman,,,,null,,,,
null,is marrying,,html-keyboard-response,362,1819555,0.0-17.0-2.18,68918,List2B,black,woman,,,,null,,,,
9771,,,survey-text,363,1829329,0.0-17.0-3.18,68918,List2B,black,woman,,,,,"{""Q0"":""beth is marrying dave""}","<img src=""stim_listB/marry7.gif""style=""height:400px;""></stim_listB>",is marrying,
null,"<div style=""font-size:60px;"">+</div>",,html-keyboard-response,364,1829831,0.0-17.0-0.19,68918,List2B,black,woman,,,,null,,,,
null,"<img src=""stim_listB/flirt3.gif""style=""height:400px;""></stim_listB>",,html-keyboard-response,365,1831834,0.0-17.0-1.19,68918,List2B,black,woman,,,,null,,,,
null,is flirting with,,html-keyboard-response,366,1833835,0.0-17.0-2.19,68918,List2B,black,woman,,,,null,,,,
9157,,,survey-text,367,1842994,0.0-17.0-3.19,68918,List2B,black,woman,,,,,"{""Q0"":""fred is flirting with kate""}","<img src=""stim_listB/flirt3.gif""style=""height:400px;""></stim_listB>",is flirting with,
1942,"<img src='img/portrait_matrix_list2.jpg' style='width:900px;height:500px;''></img><p>If you have memorised all the portraits and names and are ready to start, press Continue.</p><p><strong>Please note: Your memory of these faces will be tested 4 times during this experiment.</strong></p>",0,html-button-response,368,1844938,0.0-18.0-0.0,68918,List2B,black,woman,,,,,,,,
2675,"<img src=""portrait/WW1.jpg""style=""height:400px;""></img>",1,html-button-response,369,1848618,0.0-18.0-1.0,68918,List2B,black,woman,,TRUE,1,,,,,
null,CORRECT,,html-keyboard-response,370,1850130,0.0-18.0-2.0-0.0,68918,List2B,black,woman,,,,null,,,,
3061,"<img src=""portrait/WM2.jpg""style=""height:400px;""></img>",7,html-button-response,371,1853200,0.0-18.0-4.0,68918,List2B,black,woman,,TRUE,7,,,,,
null,CORRECT,,html-keyboard-response,372,1854704,0.0-18.0-5.0-0.0,68918,List2B,black,woman,,,,null,,,,
2936,"<img src=""portrait/BW1.jpg""style=""height:400px;""></img>",0,html-button-response,373,1857643,0.0-18.0-7.0,68918,List2B,black,woman,,TRUE,0,,,,,
null,CORRECT,,html-keyboard-response,374,1859146,0.0-18.0-8.0-0.0,68918,List2B,black,woman,,,,null,,,,
2367,"<img src=""portrait/BW2.jpg""style=""height:400px;""></img>",2,html-button-response,375,1861517,0.0-18.0-10.0,68918,List2B,black,woman,,TRUE,2,,,,,
null,CORRECT,,html-keyboard-response,376,1863019,0.0-18.0-11.0-0.0,68918,List2B,black,woman,,,,null,,,,
2516,"<img src=""portrait/WW2.jpg""style=""height:400px;""></img>",3,html-button-response,377,1865539,0.0-18.0-13.0,68918,List2B,black,woman,,TRUE,3,,,,,
null,CORRECT,,html-keyboard-response,378,1867041,0.0-18.0-14.0-0.0,68918,List2B,black,woman,,,,null,,,,
2349,"<img src=""portrait/BM1.jpg""style=""height:400px;""></img>",4,html-button-response,379,1869393,0.0-18.0-16.0,68918,List2B,black,woman,,TRUE,4,,,,,
null,CORRECT,,html-keyboard-response,380,1870901,0.0-18.0-17.0-0.0,68918,List2B,black,woman,,,,null,,,,
2942,"<img src=""portrait/WM1.jpg""style=""height:400px;""></img>",6,html-button-response,381,1873846,0.0-18.0-19.0,68918,List2B,black,woman,,TRUE,6,,,,,
null,CORRECT,,html-keyboard-response,382,1875350,0.0-18.0-20.0-0.0,68918,List2B,black,woman,,,,null,,,,
2362,"<img src=""portrait/BM2.jpg""style=""height:400px;""></img>",5,html-button-response,383,1877721,0.0-18.0-22.0,68918,List2B,black,woman,,TRUE,5,,,,,
null,CORRECT,,html-keyboard-response,384,1879224,0.0-18.0-23.0-0.0,68918,List2B,black,woman,,,,null,,,,
1361,<p>You got 8 out of 8 right first time. Press Continue.</p>,0,html-button-response,385,1880590,0.0-18.0-25.0,68918,List2B,black,woman,,,,,,,,
null,"<div style=""font-size:60px;"">+</div>",,html-keyboard-response,386,1882093,0.0-19.0-0.0,68918,List2B,black,woman,,,,null,,,,
null,"<img src=""stim_listB/fight6.gif""style=""height:400px;""></stim_listB>",,html-keyboard-response,387,1884095,0.0-19.0-1.0,68918,List2B,black,woman,,,,null,,,,
null,are fighting each other,,html-keyboard-response,388,1886097,0.0-19.0-2.0,68918,List2B,black,woman,,,,null,,,,
9088,,,survey-text,389,1895188,0.0-19.0-3.0,68918,List2B,black,woman,,,,,"{""Q0"":""fred and luke are fighting with each other""}","<img src=""stim_listB/fight6.gif""style=""height:400px;""></stim_listB>",are fighting each other,
null,"<div style=""font-size:60px;"">+</div>",,html-keyboard-response,390,1895690,0.0-19.0-0.1,68918,List2B,black,woman,,,,null,,,,
null,"<img src=""stim_listB/kiss6.gif""style=""height:400px;""></stim_listB>",,html-keyboard-response,391,1897692,0.0-19.0-1.1,68918,List2B,black,woman,,,,null,,,,
null,are kissing each other,,html-keyboard-response,392,1900553,0.0-19.0-2.1,68918,List2B,black,woman,,,,null,,,,
8924,,,survey-text,393,1909479,0.0-19.0-3.1,68918,List2B,black,woman,,,,,"{""Q0"":""mike and dave are kissing with each other""}","<img src=""stim_listB/kiss6.gif""style=""height:400px;""></stim_listB>",are kissing each other,
null,"<div style=""font-size:60px;"">+</div>",,html-keyboard-response,394,1909983,0.0-19.0-0.2,68918,List2B,black,woman,,,,null,,,,
null,"<img src=""stim_listB/fight7.gif""style=""height:400px;""></stim_listB>",,html-keyboard-response,395,1911986,0.0-19.0-1.2,68918,List2B,black,woman,,,,null,,,,
null,is fighting,,html-keyboard-response,396,1914247,0.0-19.0-2.2,68918,List2B,black,woman,,,,null,,,,
6864,,,survey-text,397,1921114,0.0-19.0-3.2,68918,List2B,black,woman,,,,,"{""Q0"":""jane is fighting with kate""}","<img src=""stim_listB/fight7.gif""style=""height:400px;""></stim_listB>",is fighting,
null,"<div style=""font-size:60px;"">+</div>",,html-keyboard-response,398,1921615,0.0-19.0-0.3,68918,List2B,black,woman,,,,null,,,,
null,"<img src=""stim_listB/talk6.gif""style=""height:400px;""></stim_listB>",,html-keyboard-response,399,1923618,0.0-19.0-1.3,68918,List2B,black,woman,,,,null,,,,
null,are talking to each other,,html-keyboard-response,400,1925619,0.0-19.0-2.3,68918,List2B,black,woman,,,,null,,,,
8783,,,survey-text,401,1934404,0.0-19.0-3.3,68918,List2B,black,woman,,,,,"{""Q0"":""fred and dave are talking with each other""}","<img src=""stim_listB/talk6.gif""style=""height:400px;""></stim_listB>",are talking to each other,
null,"<div style=""font-size:60px;"">+</div>",,html-keyboard-response,402,1934906,0.0-19.0-0.4,68918,List2B,black,woman,,,,null,,,,
null,"<img src=""stim_listB/argue6.gif""style=""height:400px;""></stim_listB>",,html-keyboard-response,403,1936909,0.0-19.0-1.4,68918,List2B,black,woman,,,,null,,,,
null,are arguing with each other,,html-keyboard-response,404,1939385,0.0-19.0-2.4,68918,List2B,black,woman,,,,null,,,,
10780,,,survey-text,405,1950167,0.0-19.0-3.4,68918,List2B,black,woman,,,,,"{""Q0"":""luke and mike are arguing with each other""}","<img src=""stim_listB/argue6.gif""style=""height:400px;""></stim_listB>",are arguing with each other,
null,"<div style=""font-size:60px;"">+</div>",,html-keyboard-response,406,1950669,0.0-19.0-0.5,68918,List2B,black,woman,,,,null,,,,
null,"<img src=""stim_listB/dance5.gif""style=""height:400px;""></stim_listB>",,html-keyboard-response,407,1952671,0.0-19.0-1.5,68918,List2B,black,woman,,,,null,,,,
null,is dancing with,,html-keyboard-response,408,1954673,0.0-19.0-2.5,68918,List2B,black,woman,,,,null,,,,
6765,,,survey-text,409,1961440,0.0-19.0-3.5,68918,List2B,black,woman,,,,,"{""Q0"":""luke is dancing with mike""}","<img src=""stim_listB/dance5.gif""style=""height:400px;""></stim_listB>",is dancing with,
null,"<div style=""font-size:60px;"">+</div>",,html-keyboard-response,410,1961942,0.0-19.0-0.6,68918,List2B,black,woman,,,,null,,,,
null,"<img src=""stim_listB/dance3.gif""style=""height:400px;""></stim_listB>",,html-keyboard-response,411,1963945,0.0-19.0-1.6,68918,List2B,black,woman,,,,null,,,,
null,is dancing with,,html-keyboard-response,412,1965946,0.0-19.0-2.6,68918,List2B,black,woman,,,,null,,,,
10601,,,survey-text,413,1976549,0.0-19.0-3.6,68918,List2B,black,woman,,,,,"{""Q0"":""fred is dancing with kate""}","<img src=""stim_listB/dance3.gif""style=""height:400px;""></stim_listB>",is dancing with,
null,"<div style=""font-size:60px;"">+</div>",,html-keyboard-response,414,1977051,0.0-19.0-0.7,68918,List2B,black,woman,,,,null,,,,
null,"<img src=""stim_listB/kiss5.gif""style=""height:400px;""></stim_listB>",,html-keyboard-response,415,1979054,0.0-19.0-1.7,68918,List2B,black,woman,,,,null,,,,
null,is kissing,,html-keyboard-response,416,1981560,0.0-19.0-2.7,68918,List2B,black,woman,,,,null,,,,
8320,,,survey-text,417,1989883,0.0-19.0-3.7,68918,List2B,black,woman,,,,,"{""Q0"":""luke is kissing fred""}","<img src=""stim_listB/kiss5.gif""style=""height:400px;""></stim_listB>",is kissing,
null,"<div style=""font-size:60px;"">+</div>",,html-keyboard-response,418,1990384,0.0-19.0-0.8,68918,List2B,black,woman,,,,null,,,,
null,"<img src=""stim_listB/flirt1.gif""style=""height:400px;""></stim_listB>",,html-keyboard-response,419,1992387,0.0-19.0-1.8,68918,List2B,black,woman,,,,null,,,,
null,is flirting with,,html-keyboard-response,420,1994555,0.0-19.0-2.8,68918,List2B,black,woman,,,,null,,,,
8283,,,survey-text,421,2002840,0.0-19.0-3.8,68918,List2B,black,woman,,,,,"{""Q0"":""jane is flirting with luke""}","<img src=""stim_listB/flirt1.gif""style=""height:400px;""></stim_listB>",is flirting with,
null,"<div style=""font-size:60px;"">+</div>",,html-keyboard-response,422,2003342,0.0-19.0-0.9,68918,List2B,black,woman,,,,null,,,,
null,"<img src=""stim_listB/shout2.gif""style=""height:400px;""></stim_listB>",,html-keyboard-response,423,2005345,0.0-19.0-1.9,68918,List2B,black,woman,,,,null,,,,
null,are shouting at each other,,html-keyboard-response,424,2007552,0.0-19.0-2.9,68918,List2B,black,woman,,,,null,,,,
5877,,,survey-text,425,2013431,0.0-19.0-3.9,68918,List2B,black,woman,,,,,"{""Q0"":""jane is shouting at dave""}","<img src=""stim_listB/shout2.gif""style=""height:400px;""></stim_listB>",are shouting at each other,
null,"<div style=""font-size:60px;"">+</div>",,html-keyboard-response,426,2013933,0.0-19.0-0.10,68918,List2B,black,woman,,,,null,,,,
null,"<img src=""stim_listB/marry6.gif""style=""height:400px;""></stim_listB>",,html-keyboard-response,427,2015936,0.0-19.0-1.10,68918,List2B,black,woman,,,,null,,,,
null,are marrying each other,,html-keyboard-response,428,2017937,0.0-19.0-2.10,68918,List2B,black,woman,,,,null,,,,
8531,,,survey-text,429,2026475,0.0-19.0-3.10,68918,List2B,black,woman,,,,,"{""Q0"":""mike and luke are marrying each other""}","<img src=""stim_listB/marry6.gif""style=""height:400px;""></stim_listB>",are marrying each other,
null,"<div style=""font-size:60px;"">+</div>",,html-keyboard-response,430,2026977,0.0-19.0-0.11,68918,List2B,black,woman,,,,null,,,,
null,"<img src=""stim_listB/touch2.gif""style=""height:400px;""></stim_listB>",,html-keyboard-response,431,2028980,0.0-19.0-1.11,68918,List2B,black,woman,,,,null,,,,
null,are touching each other,,html-keyboard-response,432,2031354,0.0-19.0-2.11,68918,List2B,black,woman,,,,null,,,,
9338,,,survey-text,433,2040694,0.0-19.0-3.11,68918,List2B,black,woman,,,,,"{""Q0"":""luke and ruth are touching each other""}","<img src=""stim_listB/touch2.gif""style=""height:400px;""></stim_listB>",are touching each other,
null,"<div style=""font-size:60px;"">+</div>",,html-keyboard-response,434,2041196,0.0-19.0-0.12,68918,List2B,black,woman,,,,null,,,,
null,"<img src=""stim_listB/kiss3.gif""style=""height:400px;""></stim_listB>",,html-keyboard-response,435,2043199,0.0-19.0-1.12,68918,List2B,black,woman,,,,null,,,,
null,is kissing,,html-keyboard-response,436,2045433,0.0-19.0-2.12,68918,List2B,black,woman,,,,null,,,,
5695,,,survey-text,437,2051131,0.0-19.0-3.12,68918,List2B,black,woman,,,,,"{""Q0"":""beth is kissing fred""}","<img src=""stim_listB/kiss3.gif""style=""height:400px;""></stim_listB>",is kissing,
null,"<div style=""font-size:60px;"">+</div>",,html-keyboard-response,438,2051633,0.0-19.0-0.13,68918,List2B,black,woman,,,,null,,,,
null,"<img src=""stim_listB/play1.gif""style=""height:400px;""></stim_listB>",,html-keyboard-response,439,2053636,0.0-19.0-1.13,68918,List2B,black,woman,,,,null,,,,
null,is playing with,,html-keyboard-response,440,2056553,0.0-19.0-2.13,68918,List2B,black,woman,,,,null,,,,
6214,,,survey-text,441,2062769,0.0-19.0-3.13,68918,List2B,black,woman,,,,,"{""Q0"":""dave is playing with jane""}","<img src=""stim_listB/play1.gif""style=""height:400px;""></stim_listB>",is playing with,
null,"<div style=""font-size:60px;"">+</div>",,html-keyboard-response,442,2063271,0.0-19.0-0.14,68918,List2B,black,woman,,,,null,,,,
null,"<img src=""stim_listB/talk3.gif""style=""height:400px;""></stim_listB>",,html-keyboard-response,443,2065274,0.0-19.0-1.14,68918,List2B,black,woman,,,,null,,,,
null,is talking to,,html-keyboard-response,444,2067276,0.0-19.0-2.14,68918,List2B,black,woman,,,,null,,,,
4868,,,survey-text,445,2072145,0.0-19.0-3.14,68918,List2B,black,woman,,,,,"{""Q0"":""fred is talking to kate""}","<img src=""stim_listB/talk3.gif""style=""height:400px;""></stim_listB>",is talking to,
null,"<div style=""font-size:60px;"">+</div>",,html-keyboard-response,446,2072647,0.0-19.0-0.15,68918,List2B,black,woman,,,,null,,,,
null,"<img src=""stim_listB/touch5.gif""style=""height:400px;""></stim_listB>",,html-keyboard-response,447,2074649,0.0-19.0-1.15,68918,List2B,black,woman,,,,null,,,,
null,is touching,,html-keyboard-response,448,2076651,0.0-19.0-2.15,68918,List2B,black,woman,,,,null,,,,
5136,,,survey-text,449,2081789,0.0-19.0-3.15,68918,List2B,black,woman,,,,,"{""Q0"":""mike is touching dave""}","<img src=""stim_listB/touch5.gif""style=""height:400px;""></stim_listB>",is touching,
null,"<div style=""font-size:60px;"">+</div>",,html-keyboard-response,450,2082291,0.0-19.0-0.16,68918,List2B,black,woman,,,,null,,,,
null,"<img src=""stim_listB/marry5.gif""style=""height:400px;""></stim_listB>",,html-keyboard-response,451,2084293,0.0-19.0-1.16,68918,List2B,black,woman,,,,null,,,,
null,is marrying,,html-keyboard-response,452,2086294,0.0-19.0-2.16,68918,List2B,black,woman,,,,null,,,,
4341,,,survey-text,453,2090637,0.0-19.0-3.16,68918,List2B,black,woman,,,,,"{""Q0"":""dave is marrying fred""}","<img src=""stim_listB/marry5.gif""style=""height:400px;""></stim_listB>",is marrying,
null,"<div style=""font-size:60px;"">+</div>",,html-keyboard-response,454,2091141,0.0-19.0-0.17,68918,List2B,black,woman,,,,null,,,,
null,"<img src=""stim_listB/play3.gif""style=""height:400px;""></stim_listB>",,html-keyboard-response,455,2093145,0.0-19.0-1.17,68918,List2B,black,woman,,,,null,,,,
null,is playing with,,html-keyboard-response,456,2095148,0.0-19.0-2.17,68918,List2B,black,woman,,,,null,,,,
6982,,,survey-text,457,2102132,0.0-19.0-3.17,68918,List2B,black,woman,,,,,"{""Q0"":""mike is playing with kate""}","<img src=""stim_listB/play3.gif""style=""height:400px;""></stim_listB>",is playing with,
null,"<div style=""font-size:60px;"">+</div>",,html-keyboard-response,458,2102634,0.0-19.0-0.18,68918,List2B,black,woman,,,,null,,,,
null,"<img src=""stim_listB/marry4.gif""style=""height:400px;""></stim_listB>",,html-keyboard-response,459,2104637,0.0-19.0-1.18,68918,List2B,black,woman,,,,null,,,,
null,are marrying each other,,html-keyboard-response,460,2106638,0.0-19.0-2.18,68918,List2B,black,woman,,,,null,,,,
10735,,,survey-text,461,2117375,0.0-19.0-3.18,68918,List2B,black,woman,,,,,"{""Q0"":""kate is marrying with fred""}","<img src=""stim_listB/marry4.gif""style=""height:400px;""></stim_listB>",are marrying each other,
null,"<div style=""font-size:60px;"">+</div>",,html-keyboard-response,462,2117876,0.0-19.0-0.19,68918,List2B,black,woman,,,,null,,,,
null,"<img src=""stim_listB/argue4.gif""style=""height:400px;""></stim_listB>",,html-keyboard-response,463,2119880,0.0-19.0-1.19,68918,List2B,black,woman,,,,null,,,,
null,are arguing with each other,,html-keyboard-response,464,2122109,0.0-19.0-2.19,68918,List2B,black,woman,,,,null,,,,
12436,,,survey-text,465,2134548,0.0-19.0-3.19,68918,List2B,black,woman,,,,,"{""Q0"":""fred and kate are arguing with each other""}","<img src=""stim_listB/argue4.gif""style=""height:400px;""></stim_listB>",are arguing with each other,
2253,<p>Thank you for completing that task.</p><p>The final part of this session is a short questionnaire.</p><p>Press Continue.</p>,0,html-button-response,466,2136804,0.0-20.0,68918,List2B,black,woman,,,,,,,,
25785,,,survey-text,467,2163593,0.0-21.0,68918,List2B,black,woman,,,,,"{""Q0"":""35"",""Q1"":""english"",""Q2"":""english"",""Q3"":""usa"",""Q4"":""black"",""Q5"":""female""}",,,demographics
6787,,,survey-likert,468,2170388,0.0-22.0,68918,List2B,black,woman,,,,,"{""Q0"":3}",,,likert_ESS
7818,,,survey-likert,469,2178212,0.0-23.0,68918,List2B,black,woman,,,,,"{""Q0"":4}",,,likert_NSSAL_Q1
5525,,,survey-likert,470,2183742,0.0-24.0,68918,List2B,black,woman,,,,,"{""Q0"":4}",,,likert_NSSAL_Q2
5583,,,survey-likert,471,2189331,0.0-25.0,68918,List2B,black,woman,,,,,"{""Q0"":4}",,,likert_CGRS_Q1
3821,,,survey-likert,472,2193156,0.0-26.0,68918,List2B,black,woman,,,,,"{""Q0"":4}",,,likert_CGRS_Q2
2416,,,survey-likert,473,2195577,0.0-27.0,68918,List2B,black,woman,,,,,"{""Q0"":4}",,,likert_CGRS_Q3
11854,,,survey-text,474,2207435,0.0-28.0,68918,List2B,black,woman,,,,,"{""Q0"":""ccc""}",,,worker_id
2475,,,external-html,475,2210535,0.0-29.0,68918,List2B,black,woman,debrief.html,,,,,,,
