rt,stimulus,button_pressed,trial_type,trial_index,time_elapsed,internal_node_id,subject,list,ppt_race,ppt_gender,url,first_guess,correct,key_press,responses,image_type,phrase_type,test_part
377773,Welcome to the experiment. Press Continue to begin.,0,html-button-response,0,377778,0.0-0.0,69314,List2A,black,woman,,,,,,,,
17923,,,external-html,1,396754,0.0-1.0,69314,List2A,black,woman,consent.html,,,,,,,
52949,"<p>On the next page, you will see portraits of 8 people and their names.</p><p>Your first task is to take a few minutes to memorise the names of these people.</p><p>You will have to recall their names during the rest of the experiment, so it is</p><p>essential that you try to memorise these people and their names as best as you can.</p><br><p><strong>You will then be tested on your memory of these names and portraits.</strong></p><br><p>The experiment will start after you have completed this memory test.</p><br><p>Ready?</p>",0,html-button-response,2,449705,0.0-2.0,69314,List2A,black,woman,,,,,,,,
29140,"<img src='img/portrait_matrix_list2.jpg' style='width:900px;height:500px;''></img><p>If you have memorised all the portraits and names and are ready to start, press Continue.</p><p><strong>Please note: Your memory of these faces will be tested 4 times during this experiment.</strong></p>",0,html-button-response,3,479849,0.0-3.0-0.0,69314,List2A,black,woman,,,,,,,,
7478,"<img src=""portrait/WM1.jpg""style=""height:400px;""></img>",6,html-button-response,4,488330,0.0-3.0-1.0,69314,List2A,black,woman,,TRUE,6,,,,,
null,CORRECT,,html-keyboard-response,5,489849,0.0-3.0-2.0-0.0,69314,List2A,black,woman,,,,null,,,,
6664,"<img src=""portrait/BW2.jpg""style=""height:400px;""></img>",2,html-button-response,6,496513,0.0-3.0-4.0,69314,List2A,black,woman,,TRUE,2,,,,,
null,CORRECT,,html-keyboard-response,7,498017,0.0-3.0-5.0-0.0,69314,List2A,black,woman,,,,null,,,,
10791,"<img src=""portrait/BM2.jpg""style=""height:400px;""></img>",5,html-button-response,8,508809,0.0-3.0-7.0,69314,List2A,black,woman,,TRUE,5,,,,,
null,CORRECT,,html-keyboard-response,9,510312,0.0-3.0-8.0-0.0,69314,List2A,black,woman,,,,null,,,,
6945,"<img src=""portrait/WW2.jpg""style=""height:400px;""></img>",3,html-button-response,10,517257,0.0-3.0-10.0,69314,List2A,black,woman,,TRUE,3,,,,,
null,CORRECT,,html-keyboard-response,11,518761,0.0-3.0-11.0-0.0,69314,List2A,black,woman,,,,null,,,,
12999,"<img src=""portrait/BW1.jpg""style=""height:400px;""></img>",0,html-button-response,12,531761,0.0-3.0-13.0,69314,List2A,black,woman,,TRUE,0,,,,,
null,CORRECT,,html-keyboard-response,13,533262,0.0-3.0-14.0-0.0,69314,List2A,black,woman,,,,null,,,,
5050,"<img src=""portrait/WW1.jpg""style=""height:400px;""></img>",1,html-button-response,14,538313,0.0-3.0-16.0,69314,List2A,black,woman,,TRUE,1,,,,,
null,CORRECT,,html-keyboard-response,15,539817,0.0-3.0-17.0-0.0,69314,List2A,black,woman,,,,null,,,,
6528,"<img src=""portrait/BM1.jpg""style=""height:400px;""></img>",4,html-button-response,16,546345,0.0-3.0-19.0,69314,List2A,black,woman,,TRUE,4,,,,,
null,CORRECT,,html-keyboard-response,17,547847,0.0-3.0-20.0-0.0,69314,List2A,black,woman,,,,null,,,,
22658,"<img src=""portrait/WM2.jpg""style=""height:400px;""></img>",7,html-button-response,18,570506,0.0-3.0-22.0,69314,List2A,black,woman,,TRUE,7,,,,,
null,CORRECT,,html-keyboard-response,19,572008,0.0-3.0-23.0-0.0,69314,List2A,black,woman,,,,null,,,,
2304,<p>You got 8 out of 8 right first time. Press Continue.</p>,0,html-button-response,20,574313,0.0-3.0-25.0,69314,List2A,black,woman,,,,,,,,
15908,"<p>In this experiment, you will view photographs of the people from the memory game interacting.</p><p>By using the <strong>exact</strong> phrase given <i>after</i> the photograph appears and recalling the correct names of the people in the photographs, form a sentence describing the interaction. You do not need to capitalise names.</p><p>Type your answer in the space provided. Please complete every sentence before moving onto the next trial.</p><p>You will only have a few seconds to memorise each given photograph and phrase before you can respond, so try your best to focus.</p><p>An example is given below. Press 'Continue' when you are ready.</p><img src='img/speaking_example.jpg' style='width:800px;height:460px;''></img>",0,html-button-response,21,591226,0.0-4.0,69314,List2A,black,woman,,,,,,,,
1798,"<p>Before the experiment starts, you will watch two example trials. Press 'Continue'.</p>",0,html-button-response,22,594025,0.0-5.0,69314,List2A,black,woman,,,,,,,,
null,<img src='img/meet_eg.gif' style='height:400px;''></img>,,html-keyboard-response,23,597028,0.0-6.0,69314,List2A,black,woman,,,,null,,,,
null,<p>is meeting</p>,,html-keyboard-response,24,599030,0.0-7.0,69314,List2A,black,woman,,,,null,,,,
3907,<p><b>Answer:</b> jane is meeting ruth</p>,0,html-button-response,25,602937,0.0-8.0,69314,List2A,black,woman,,,,,,,,
null,<img src='img/look_eg.gif' style='height:400px;''></img>,,html-keyboard-response,26,605942,0.0-9.0,69314,List2A,black,woman,,,,null,,,,
null,<p>are looking at each other</p>,,html-keyboard-response,27,607943,0.0-10.0,69314,List2A,black,woman,,,,null,,,,
2602,<p><b>Answer:</b> fred and mike are looking at each other</p>,0,html-button-response,28,610545,0.0-11.0,69314,List2A,black,woman,,,,,,,,
37214,"<p>Ready to start the experiment?</p><br><p><strong>Remember to describe the picture using a full sentence,</strong></p><p><strong>that combines the names of the people with the <i>exact</i> phrase given.</strong></p><p><strong>To receive full payment you must do this correctly.</strong></p><p><strong> You do not need to capitalise names or use punctuation.</strong></p><br><p>Press 'Continue' to begin.</p>",0,html-button-response,29,648762,0.0-12.0,69314,List2A,black,woman,,,,,,,,
null,"<div style=""font-size:60px;"">+</div>",,html-keyboard-response,30,650264,0.0-13.0-0.0,69314,List2A,black,woman,,,,null,,,,
null,"<img src=""stim_listA/play5.gif""style=""height:400px;""></stim_listA>",,html-keyboard-response,31,652266,0.0-13.0-1.0,69314,List2A,black,woman,,,,null,,,,
null,is playing with,,html-keyboard-response,32,654272,0.0-13.0-2.0,69314,List2A,black,woman,,,,null,,,,
18873,,,survey-text,33,673146,0.0-13.0-3.0,69314,List2A,black,woman,,,,,"{""Q0"":""dave is meeting with mike""}","<img src=""stim_listA/play5.gif""style=""height:400px;""></stim_listA>",is playing with,
null,"<div style=""font-size:60px;"">+</div>",,html-keyboard-response,34,673648,0.0-13.0-0.1,69314,List2A,black,woman,,,,null,,,,
null,"<img src=""stim_listA/dance8.gif""style=""height:400px;""></stim_listA>",,html-keyboard-response,35,675650,0.0-13.0-1.1,69314,List2A,black,woman,,,,null,,,,
null,are dancing with each other,,html-keyboard-response,36,677651,0.0-13.0-2.1,69314,List2A,black,woman,,,,null,,,,
12246,,,survey-text,37,689898,0.0-13.0-3.1,69314,List2A,black,woman,,,,,"{""Q0"":""beth is dancing with jane""}","<img src=""stim_listA/dance8.gif""style=""height:400px;""></stim_listA>",are dancing with each other,
null,"<div style=""font-size:60px;"">+</div>",,html-keyboard-response,38,690399,0.0-13.0-0.2,69314,List2A,black,woman,,,,null,,,,
null,"<img src=""stim_listA/marry6.gif""style=""height:400px;""></stim_listA>",,html-keyboard-response,39,692401,0.0-13.0-1.2,69314,List2A,black,woman,,,,null,,,,
null,are marrying each other,,html-keyboard-response,40,694402,0.0-13.0-2.2,69314,List2A,black,woman,,,,null,,,,
21710,,,survey-text,41,716114,0.0-13.0-3.2,69314,List2A,black,woman,,,,,"{""Q0"":""luke and mike are pleading with eachother""}","<img src=""stim_listA/marry6.gif""style=""height:400px;""></stim_listA>",are marrying each other,
null,"<div style=""font-size:60px;"">+</div>",,html-keyboard-response,42,716615,0.0-13.0-0.3,69314,List2A,black,woman,,,,null,,,,
null,"<img src=""stim_listA/flirt5.gif""style=""height:400px;""></stim_listA>",,html-keyboard-response,43,718618,0.0-13.0-1.3,69314,List2A,black,woman,,,,null,,,,
null,is flirting with,,html-keyboard-response,44,720619,0.0-13.0-2.3,69314,List2A,black,woman,,,,null,,,,
11982,,,survey-text,45,732601,0.0-13.0-3.3,69314,List2A,black,woman,,,,,"{""Q0"":""luke is flirting with mike""}","<img src=""stim_listA/flirt5.gif""style=""height:400px;""></stim_listA>",is flirting with,
null,"<div style=""font-size:60px;"">+</div>",,html-keyboard-response,46,733103,0.0-13.0-0.4,69314,List2A,black,woman,,,,null,,,,
null,"<img src=""stim_listA/dance3.gif""style=""height:400px;""></stim_listA>",,html-keyboard-response,47,735105,0.0-13.0-1.4,69314,List2A,black,woman,,,,null,,,,
null,is dancing with,,html-keyboard-response,48,737107,0.0-13.0-2.4,69314,List2A,black,woman,,,,null,,,,
8142,,,survey-text,49,745250,0.0-13.0-3.4,69314,List2A,black,woman,,,,,"{""Q0"":""fred is dancing with kate""}","<img src=""stim_listA/dance3.gif""style=""height:400px;""></stim_listA>",is dancing with,
null,"<div style=""font-size:60px;"">+</div>",,html-keyboard-response,50,745755,0.0-13.0-0.5,69314,List2A,black,woman,,,,null,,,,
null,"<img src=""stim_listA/fight5.gif""style=""height:400px;""></stim_listA>",,html-keyboard-response,51,747757,0.0-13.0-1.5,69314,List2A,black,woman,,,,null,,,,
null,is fighting,,html-keyboard-response,52,749759,0.0-13.0-2.5,69314,List2A,black,woman,,,,null,,,,
12274,,,survey-text,53,762034,0.0-13.0-3.5,69314,List2A,black,woman,,,,,"{""Q0"":""dave is fighting with mike""}","<img src=""stim_listA/fight5.gif""style=""height:400px;""></stim_listA>",is fighting,
null,"<div style=""font-size:60px;"">+</div>",,html-keyboard-response,54,762536,0.0-13.0-0.6,69314,List2A,black,woman,,,,null,,,,
null,"<img src=""stim_listA/talk7.gif""style=""height:400px;""></stim_listA>",,html-keyboard-response,55,764538,0.0-13.0-1.6,69314,List2A,black,woman,,,,null,,,,
null,is talking to,,html-keyboard-response,56,766539,0.0-13.0-2.6,69314,List2A,black,woman,,,,null,,,,
8958,,,survey-text,57,775497,0.0-13.0-3.6,69314,List2A,black,woman,,,,,"{""Q0"":""jane is talking to kate""}","<img src=""stim_listA/talk7.gif""style=""height:400px;""></stim_listA>",is talking to,
null,"<div style=""font-size:60px;"">+</div>",,html-keyboard-response,58,775999,0.0-13.0-0.7,69314,List2A,black,woman,,,,null,,,,
null,"<img src=""stim_listA/marry5.gif""style=""height:400px;""></stim_listA>",,html-keyboard-response,59,778000,0.0-13.0-1.7,69314,List2A,black,woman,,,,null,,,,
null,is marrying,,html-keyboard-response,60,780002,0.0-13.0-2.7,69314,List2A,black,woman,,,,null,,,,
10462,,,survey-text,61,790466,0.0-13.0-3.7,69314,List2A,black,woman,,,,,"{""Q0"":""dave is marrying fred""}","<img src=""stim_listA/marry5.gif""style=""height:400px;""></stim_listA>",is marrying,
null,"<div style=""font-size:60px;"">+</div>",,html-keyboard-response,62,790967,0.0-13.0-0.8,69314,List2A,black,woman,,,,null,,,,
null,"<img src=""stim_listA/play3.gif""style=""height:400px;""></stim_listA>",,html-keyboard-response,63,792970,0.0-13.0-1.8,69314,List2A,black,woman,,,,null,,,,
null,is playing with,,html-keyboard-response,64,794971,0.0-13.0-2.8,69314,List2A,black,woman,,,,null,,,,
7719,,,survey-text,65,802690,0.0-13.0-3.8,69314,List2A,black,woman,,,,,"{""Q0"":""mike is playing with kate""}","<img src=""stim_listA/play3.gif""style=""height:400px;""></stim_listA>",is playing with,
null,"<div style=""font-size:60px;"">+</div>",,html-keyboard-response,66,803193,0.0-13.0-0.9,69314,List2A,black,woman,,,,null,,,,
null,"<img src=""stim_listA/kiss5.gif""style=""height:400px;""></stim_listA>",,html-keyboard-response,67,805195,0.0-13.0-1.9,69314,List2A,black,woman,,,,null,,,,
null,is kissing,,html-keyboard-response,68,807196,0.0-13.0-2.9,69314,List2A,black,woman,,,,null,,,,
8124,,,survey-text,69,815322,0.0-13.0-3.9,69314,List2A,black,woman,,,,,"{""Q0"":""luke is kissing fred""}","<img src=""stim_listA/kiss5.gif""style=""height:400px;""></stim_listA>",is kissing,
null,"<div style=""font-size:60px;"">+</div>",,html-keyboard-response,70,815823,0.0-13.0-0.10,69314,List2A,black,woman,,,,null,,,,
null,"<img src=""stim_listA/dance1.gif""style=""height:400px;""></stim_listA>",,html-keyboard-response,71,817825,0.0-13.0-1.10,69314,List2A,black,woman,,,,null,,,,
null,is dancing with,,html-keyboard-response,72,819829,0.0-13.0-2.10,69314,List2A,black,woman,,,,null,,,,
8452,,,survey-text,73,828281,0.0-13.0-3.10,69314,List2A,black,woman,,,,,"{""Q0"":""luke is dancing with jane""}","<img src=""stim_listA/dance1.gif""style=""height:400px;""></stim_listA>",is dancing with,
null,"<div style=""font-size:60px;"">+</div>",,html-keyboard-response,74,828783,0.0-13.0-0.11,69314,List2A,black,woman,,,,null,,,,
null,"<img src=""stim_listA/talk6.gif""style=""height:400px;""></stim_listA>",,html-keyboard-response,75,830785,0.0-13.0-1.11,69314,List2A,black,woman,,,,null,,,,
null,are talking to each other,,html-keyboard-response,76,832786,0.0-13.0-2.11,69314,List2A,black,woman,,,,null,,,,
11527,,,survey-text,77,844314,0.0-13.0-3.11,69314,List2A,black,woman,,,,,"{""Q0"":""dave and fred are talking to each other""}","<img src=""stim_listA/talk6.gif""style=""height:400px;""></stim_listA>",are talking to each other,
null,"<div style=""font-size:60px;"">+</div>",,html-keyboard-response,78,844815,0.0-13.0-0.12,69314,List2A,black,woman,,,,null,,,,
null,"<img src=""stim_listA/flirt8.gif""style=""height:400px;""></stim_listA>",,html-keyboard-response,79,846817,0.0-13.0-1.12,69314,List2A,black,woman,,,,null,,,,
null,are flirting with each other,,html-keyboard-response,80,848823,0.0-13.0-2.12,69314,List2A,black,woman,,,,null,,,,
14105,,,survey-text,81,862929,0.0-13.0-3.12,69314,List2A,black,woman,,,,,"{""Q0"":""beth and ruth are flirting with eachother""}","<img src=""stim_listA/flirt8.gif""style=""height:400px;""></stim_listA>",are flirting with each other,
null,"<div style=""font-size:60px;"">+</div>",,html-keyboard-response,82,863431,0.0-13.0-0.13,69314,List2A,black,woman,,,,null,,,,
null,"<img src=""stim_listA/marry7.gif""style=""height:400px;""></stim_listA>",,html-keyboard-response,83,865432,0.0-13.0-1.13,69314,List2A,black,woman,,,,null,,,,
null,is marrying,,html-keyboard-response,84,867433,0.0-13.0-2.13,69314,List2A,black,woman,,,,null,,,,
7295,,,survey-text,85,874729,0.0-13.0-3.13,69314,List2A,black,woman,,,,,"{""Q0"":""beth is marrying jane""}","<img src=""stim_listA/marry7.gif""style=""height:400px;""></stim_listA>",is marrying,
null,"<div style=""font-size:60px;"">+</div>",,html-keyboard-response,86,875231,0.0-13.0-0.14,69314,List2A,black,woman,,,,null,,,,
null,"<img src=""stim_listA/kiss4.gif""style=""height:400px;""></stim_listA>",,html-keyboard-response,87,877233,0.0-13.0-1.14,69314,List2A,black,woman,,,,null,,,,
null,are kissing each other,,html-keyboard-response,88,879234,0.0-13.0-2.14,69314,List2A,black,woman,,,,null,,,,
11712,,,survey-text,89,890946,0.0-13.0-3.14,69314,List2A,black,woman,,,,,"{""Q0"":""mike and kate are kissing each other""}","<img src=""stim_listA/kiss4.gif""style=""height:400px;""></stim_listA>",are kissing each other,
null,"<div style=""font-size:60px;"">+</div>",,html-keyboard-response,90,891448,0.0-13.0-0.15,69314,List2A,black,woman,,,,null,,,,
null,"<img src=""stim_listA/fight4.gif""style=""height:400px;""></stim_listA>",,html-keyboard-response,91,893449,0.0-13.0-1.15,69314,List2A,black,woman,,,,null,,,,
null,are fighting each other,,html-keyboard-response,92,895451,0.0-13.0-2.15,69314,List2A,black,woman,,,,null,,,,
8407,,,survey-text,93,903858,0.0-13.0-3.15,69314,List2A,black,woman,,,,,"{""Q0"":""beth and fred are fighting eachother""}","<img src=""stim_listA/fight4.gif""style=""height:400px;""></stim_listA>",are fighting each other,
null,"<div style=""font-size:60px;"">+</div>",,html-keyboard-response,94,904359,0.0-13.0-0.16,69314,List2A,black,woman,,,,null,,,,
null,"<img src=""stim_listA/play2.gif""style=""height:400px;""></stim_listA>",,html-keyboard-response,95,906361,0.0-13.0-1.16,69314,List2A,black,woman,,,,null,,,,
null,are playing with each other,,html-keyboard-response,96,908366,0.0-13.0-2.16,69314,List2A,black,woman,,,,null,,,,
9516,,,survey-text,97,917882,0.0-13.0-3.16,69314,List2A,black,woman,,,,,"{""Q0"":""ruth and beth are playing with eachother""}","<img src=""stim_listA/play2.gif""style=""height:400px;""></stim_listA>",are playing with each other,
null,"<div style=""font-size:60px;"">+</div>",,html-keyboard-response,98,918393,0.0-13.0-0.17,69314,List2A,black,woman,,,,null,,,,
null,"<img src=""stim_listA/argue4.gif""style=""height:400px;""></stim_listA>",,html-keyboard-response,99,920395,0.0-13.0-1.17,69314,List2A,black,woman,,,,null,,,,
null,are arguing with each other,,html-keyboard-response,100,922396,0.0-13.0-2.17,69314,List2A,black,woman,,,,null,,,,
10133,,,survey-text,101,932530,0.0-13.0-3.17,69314,List2A,black,woman,,,,,"{""Q0"":""fred and kate are arguing with each other""}","<img src=""stim_listA/argue4.gif""style=""height:400px;""></stim_listA>",are arguing with each other,
null,"<div style=""font-size:60px;"">+</div>",,html-keyboard-response,102,933032,0.0-13.0-0.18,69314,List2A,black,woman,,,,null,,,,
null,"<img src=""stim_listA/dance2.gif""style=""height:400px;""></stim_listA>",,html-keyboard-response,103,935033,0.0-13.0-1.18,69314,List2A,black,woman,,,,null,,,,
null,are dancing with each other,,html-keyboard-response,104,937035,0.0-13.0-2.18,69314,List2A,black,woman,,,,null,,,,
13935,,,survey-text,105,950970,0.0-13.0-3.18,69314,List2A,black,woman,,,,,"{""Q0"":""dave and ruth are dancing with eachother""}","<img src=""stim_listA/dance2.gif""style=""height:400px;""></stim_listA>",are dancing with each other,
null,"<div style=""font-size:60px;"">+</div>",,html-keyboard-response,106,951472,0.0-13.0-0.19,69314,List2A,black,woman,,,,null,,,,
null,"<img src=""stim_listA/talk4.gif""style=""height:400px;""></stim_listA>",,html-keyboard-response,107,953474,0.0-13.0-1.19,69314,List2A,black,woman,,,,null,,,,
null,are talking to each other,,html-keyboard-response,108,955475,0.0-13.0-2.19,69314,List2A,black,woman,,,,null,,,,
10519,,,survey-text,109,965994,0.0-13.0-3.19,69314,List2A,black,woman,,,,,"{""Q0"":""mike and beth are talking to each other""}","<img src=""stim_listA/talk4.gif""style=""height:400px;""></stim_listA>",are talking to each other,
7079,"<img src='img/portrait_matrix_list2.jpg' style='width:900px;height:500px;''></img><p>If you have memorised all the portraits and names and are ready to start, press Continue.</p><p><strong>Please note: Your memory of these faces will be tested 4 times during this experiment.</strong></p>",0,html-button-response,110,973075,0.0-14.0-0.0,69314,List2A,black,woman,,,,,,,,
6622,"<img src=""portrait/BW1.jpg""style=""height:400px;""></img>",0,html-button-response,111,980698,0.0-14.0-1.0,69314,List2A,black,woman,,TRUE,0,,,,,
null,CORRECT,,html-keyboard-response,112,982202,0.0-14.0-2.0-0.0,69314,List2A,black,woman,,,,null,,,,
3400,"<img src=""portrait/BM2.jpg""style=""height:400px;""></img>",5,html-button-response,113,985602,0.0-14.0-4.0,69314,List2A,black,woman,,TRUE,5,,,,,
null,CORRECT,,html-keyboard-response,114,987106,0.0-14.0-5.0-0.0,69314,List2A,black,woman,,,,null,,,,
3056,"<img src=""portrait/BW2.jpg""style=""height:400px;""></img>",2,html-button-response,115,990162,0.0-14.0-7.0,69314,List2A,black,woman,,TRUE,2,,,,,
null,CORRECT,,html-keyboard-response,116,991666,0.0-14.0-8.0-0.0,69314,List2A,black,woman,,,,null,,,,
4264,"<img src=""portrait/WM2.jpg""style=""height:400px;""></img>",7,html-button-response,117,995931,0.0-14.0-10.0,69314,List2A,black,woman,,TRUE,7,,,,,
null,CORRECT,,html-keyboard-response,118,997432,0.0-14.0-11.0-0.0,69314,List2A,black,woman,,,,null,,,,
2697,"<img src=""portrait/WW1.jpg""style=""height:400px;""></img>",1,html-button-response,119,1000131,0.0-14.0-13.0,69314,List2A,black,woman,,TRUE,1,,,,,
null,CORRECT,,html-keyboard-response,120,1001634,0.0-14.0-14.0-0.0,69314,List2A,black,woman,,,,null,,,,
2864,"<img src=""portrait/WW2.jpg""style=""height:400px;""></img>",3,html-button-response,121,1004499,0.0-14.0-16.0,69314,List2A,black,woman,,TRUE,3,,,,,
null,CORRECT,,html-keyboard-response,122,1006002,0.0-14.0-17.0-0.0,69314,List2A,black,woman,,,,null,,,,
2583,"<img src=""portrait/BM1.jpg""style=""height:400px;""></img>",4,html-button-response,123,1008587,0.0-14.0-19.0,69314,List2A,black,woman,,TRUE,4,,,,,
null,CORRECT,,html-keyboard-response,124,1010089,0.0-14.0-20.0-0.0,69314,List2A,black,woman,,,,null,,,,
3377,"<img src=""portrait/WM1.jpg""style=""height:400px;""></img>",6,html-button-response,125,1013467,0.0-14.0-22.0,69314,List2A,black,woman,,TRUE,6,,,,,
null,CORRECT,,html-keyboard-response,126,1014969,0.0-14.0-23.0-0.0,69314,List2A,black,woman,,,,null,,,,
1712,<p>You got 8 out of 8 right first time. Press Continue.</p>,0,html-button-response,127,1016682,0.0-14.0-25.0,69314,List2A,black,woman,,,,,,,,
null,"<div style=""font-size:60px;"">+</div>",,html-keyboard-response,128,1018185,0.0-15.0-0.0,69314,List2A,black,woman,,,,null,,,,
null,"<img src=""stim_listA/talk5.gif""style=""height:400px;""></stim_listA>",,html-keyboard-response,129,1020187,0.0-15.0-1.0,69314,List2A,black,woman,,,,null,,,,
null,is talking to,,html-keyboard-response,130,1022188,0.0-15.0-2.0,69314,List2A,black,woman,,,,null,,,,
25172,,,survey-text,131,1047362,0.0-15.0-3.0,69314,List2A,black,woman,,,,,"{""Q0"":""luke is talking to mike""}","<img src=""stim_listA/talk5.gif""style=""height:400px;""></stim_listA>",is talking to,
null,"<div style=""font-size:60px;"">+</div>",,html-keyboard-response,132,1047864,0.0-15.0-0.1,69314,List2A,black,woman,,,,null,,,,
null,"<img src=""stim_listA/kiss7.gif""style=""height:400px;""></stim_listA>",,html-keyboard-response,133,1049865,0.0-15.0-1.1,69314,List2A,black,woman,,,,null,,,,
null,is kissing,,html-keyboard-response,134,1051866,0.0-15.0-2.1,69314,List2A,black,woman,,,,null,,,,
15984,,,survey-text,135,1067851,0.0-15.0-3.1,69314,List2A,black,woman,,,,,"{""Q0"":""beth is kissing ruth""}","<img src=""stim_listA/kiss7.gif""style=""height:400px;""></stim_listA>",is kissing,
null,"<div style=""font-size:60px;"">+</div>",,html-keyboard-response,136,1068352,0.0-15.0-0.2,69314,List2A,black,woman,,,,null,,,,
null,"<img src=""stim_listA/argue8.gif""style=""height:400px;""></stim_listA>",,html-keyboard-response,137,1070353,0.0-15.0-1.2,69314,List2A,black,woman,,,,null,,,,
null,are arguing with each other,,html-keyboard-response,138,1072355,0.0-15.0-2.2,69314,List2A,black,woman,,,,null,,,,
14902,,,survey-text,139,1087259,0.0-15.0-3.2,69314,List2A,black,woman,,,,,"{""Q0"":""ruth and kate are arguing with each other""}","<img src=""stim_listA/argue8.gif""style=""height:400px;""></stim_listA>",are arguing with each other,
null,"<div style=""font-size:60px;"">+</div>",,html-keyboard-response,140,1087761,0.0-15.0-0.3,69314,List2A,black,woman,,,,null,,,,
null,"<img src=""stim_listA/touch3.gif""style=""height:400px;""></stim_listA>",,html-keyboard-response,141,1089763,0.0-15.0-1.3,69314,List2A,black,woman,,,,null,,,,
null,is touching,,html-keyboard-response,142,1091767,0.0-15.0-2.3,69314,List2A,black,woman,,,,null,,,,
7363,,,survey-text,143,1099131,0.0-15.0-3.3,69314,List2A,black,woman,,,,,"{""Q0"":""kate is touching mike""}","<img src=""stim_listA/touch3.gif""style=""height:400px;""></stim_listA>",is touching,
null,"<div style=""font-size:60px;"">+</div>",,html-keyboard-response,144,1099632,0.0-15.0-0.4,69314,List2A,black,woman,,,,null,,,,
null,"<img src=""stim_listA/flirt2.gif""style=""height:400px;""></stim_listA>",,html-keyboard-response,145,1101635,0.0-15.0-1.4,69314,List2A,black,woman,,,,null,,,,
null,are flirting with each other,,html-keyboard-response,146,1103636,0.0-15.0-2.4,69314,List2A,black,woman,,,,null,,,,
33685,,,survey-text,147,1137322,0.0-15.0-3.4,69314,List2A,black,woman,,,,,"{""Q0"":""ruth and mike are flirting with each other""}","<img src=""stim_listA/flirt2.gif""style=""height:400px;""></stim_listA>",are flirting with each other,
null,"<div style=""font-size:60px;"">+</div>",,html-keyboard-response,148,1137824,0.0-15.0-0.5,69314,List2A,black,woman,,,,null,,,,
null,"<img src=""stim_listA/kiss8.gif""style=""height:400px;""></stim_listA>",,html-keyboard-response,149,1139826,0.0-15.0-1.5,69314,List2A,black,woman,,,,null,,,,
null,are kissing each other,,html-keyboard-response,150,1141827,0.0-15.0-2.5,69314,List2A,black,woman,,,,null,,,,
8975,,,survey-text,151,1150802,0.0-15.0-3.5,69314,List2A,black,woman,,,,,"{""Q0"":""jane and kate are kissing each other""}","<img src=""stim_listA/kiss8.gif""style=""height:400px;""></stim_listA>",are kissing each other,
null,"<div style=""font-size:60px;"">+</div>",,html-keyboard-response,152,1151304,0.0-15.0-0.6,69314,List2A,black,woman,,,,null,,,,
null,"<img src=""stim_listA/touch8.gif""style=""height:400px;""></stim_listA>",,html-keyboard-response,153,1153305,0.0-15.0-1.6,69314,List2A,black,woman,,,,null,,,,
null,are touching each other,,html-keyboard-response,154,1155306,0.0-15.0-2.6,69314,List2A,black,woman,,,,null,,,,
16392,,,survey-text,155,1171699,0.0-15.0-3.6,69314,List2A,black,woman,,,,,"{""Q0"":""beth and ruth are touching each other""}","<img src=""stim_listA/touch8.gif""style=""height:400px;""></stim_listA>",are touching each other,
null,"<div style=""font-size:60px;"">+</div>",,html-keyboard-response,156,1172201,0.0-15.0-0.7,69314,List2A,black,woman,,,,null,,,,
null,"<img src=""stim_listA/dance4.gif""style=""height:400px;""></stim_listA>",,html-keyboard-response,157,1174203,0.0-15.0-1.7,69314,List2A,black,woman,,,,null,,,,
null,are dancing with each other,,html-keyboard-response,158,1176205,0.0-15.0-2.7,69314,List2A,black,woman,,,,null,,,,
40349,,,survey-text,159,1216555,0.0-15.0-3.7,69314,List2A,black,woman,,,,,"{""Q0"":""beth and mike are dancing with each other""}","<img src=""stim_listA/dance4.gif""style=""height:400px;""></stim_listA>",are dancing with each other,
null,"<div style=""font-size:60px;"">+</div>",,html-keyboard-response,160,1217057,0.0-15.0-0.8,69314,List2A,black,woman,,,,null,,,,
null,"<img src=""stim_listA/argue3.gif""style=""height:400px;""></stim_listA>",,html-keyboard-response,161,1219058,0.0-15.0-1.8,69314,List2A,black,woman,,,,null,,,,
null,is arguing with,,html-keyboard-response,162,1221059,0.0-15.0-2.8,69314,List2A,black,woman,,,,null,,,,
8663,,,survey-text,163,1229723,0.0-15.0-3.8,69314,List2A,black,woman,,,,,"{""Q0"":""beth is arguing with mike""}","<img src=""stim_listA/argue3.gif""style=""height:400px;""></stim_listA>",is arguing with,
null,"<div style=""font-size:60px;"">+</div>",,html-keyboard-response,164,1230225,0.0-15.0-0.9,69314,List2A,black,woman,,,,null,,,,
null,"<img src=""stim_listA/marry3.gif""style=""height:400px;""></stim_listA>",,html-keyboard-response,165,1232226,0.0-15.0-1.9,69314,List2A,black,woman,,,,null,,,,
null,is marrying,,html-keyboard-response,166,1234227,0.0-15.0-2.9,69314,List2A,black,woman,,,,null,,,,
10815,,,survey-text,167,1245043,0.0-15.0-3.9,69314,List2A,black,woman,,,,,"{""Q0"":""beth is marrying mike""}","<img src=""stim_listA/marry3.gif""style=""height:400px;""></stim_listA>",is marrying,
null,"<div style=""font-size:60px;"">+</div>",,html-keyboard-response,168,1245544,0.0-15.0-0.10,69314,List2A,black,woman,,,,null,,,,
null,"<img src=""stim_listA/flirt7.gif""style=""height:400px;""></stim_listA>",,html-keyboard-response,169,1247545,0.0-15.0-1.10,69314,List2A,black,woman,,,,null,,,,
null,is flirting with,,html-keyboard-response,170,1249547,0.0-15.0-2.10,69314,List2A,black,woman,,,,null,,,,
10992,,,survey-text,171,1260539,0.0-15.0-3.10,69314,List2A,black,woman,,,,,"{""Q0"":""ruth is flirting with kate""}","<img src=""stim_listA/flirt7.gif""style=""height:400px;""></stim_listA>",is flirting with,
null,"<div style=""font-size:60px;"">+</div>",,html-keyboard-response,172,1261042,0.0-15.0-0.11,69314,List2A,black,woman,,,,null,,,,
null,"<img src=""stim_listA/kiss1.gif""style=""height:400px;""></stim_listA>",,html-keyboard-response,173,1263044,0.0-15.0-1.11,69314,List2A,black,woman,,,,null,,,,
null,is kissing,,html-keyboard-response,174,1265044,0.0-15.0-2.11,69314,List2A,black,woman,,,,null,,,,
7710,,,survey-text,175,1272755,0.0-15.0-3.11,69314,List2A,black,woman,,,,,"{""Q0"":""luke is kissing ruth""}","<img src=""stim_listA/kiss1.gif""style=""height:400px;""></stim_listA>",is kissing,
null,"<div style=""font-size:60px;"">+</div>",,html-keyboard-response,176,1273256,0.0-15.0-0.12,69314,List2A,black,woman,,,,null,,,,
null,"<img src=""stim_listA/flirt4.gif""style=""height:400px;""></stim_listA>",,html-keyboard-response,177,1275258,0.0-15.0-1.12,69314,List2A,black,woman,,,,null,,,,
null,are flirting with each other,,html-keyboard-response,178,1277260,0.0-15.0-2.12,69314,List2A,black,woman,,,,null,,,,
9159,,,survey-text,179,1286419,0.0-15.0-3.12,69314,List2A,black,woman,,,,,"{""Q0"":""beth and mike are flirting with each other""}","<img src=""stim_listA/flirt4.gif""style=""height:400px;""></stim_listA>",are flirting with each other,
null,"<div style=""font-size:60px;"">+</div>",,html-keyboard-response,180,1286920,0.0-15.0-0.13,69314,List2A,black,woman,,,,null,,,,
null,"<img src=""stim_listA/flirt3.gif""style=""height:400px;""></stim_listA>",,html-keyboard-response,181,1288922,0.0-15.0-1.13,69314,List2A,black,woman,,,,null,,,,
null,is flirting with,,html-keyboard-response,182,1290924,0.0-15.0-2.13,69314,List2A,black,woman,,,,null,,,,
11071,,,survey-text,183,1301996,0.0-15.0-3.13,69314,List2A,black,woman,,,,,"{""Q0"":""kate is flirting with fred""}","<img src=""stim_listA/flirt3.gif""style=""height:400px;""></stim_listA>",is flirting with,
null,"<div style=""font-size:60px;"">+</div>",,html-keyboard-response,184,1302497,0.0-15.0-0.14,69314,List2A,black,woman,,,,null,,,,
null,"<img src=""stim_listA/touch6.gif""style=""height:400px;""></stim_listA>",,html-keyboard-response,185,1304500,0.0-15.0-1.14,69314,List2A,black,woman,,,,null,,,,
null,are touching each other,,html-keyboard-response,186,1306502,0.0-15.0-2.14,69314,List2A,black,woman,,,,null,,,,
8061,,,survey-text,187,1314563,0.0-15.0-3.14,69314,List2A,black,woman,,,,,"{""Q0"":""fred and luke are touching each other""}","<img src=""stim_listA/touch6.gif""style=""height:400px;""></stim_listA>",are touching each other,
null,"<div style=""font-size:60px;"">+</div>",,html-keyboard-response,188,1315065,0.0-15.0-0.15,69314,List2A,black,woman,,,,null,,,,
null,"<img src=""stim_listA/kiss3.gif""style=""height:400px;""></stim_listA>",,html-keyboard-response,189,1317067,0.0-15.0-1.15,69314,List2A,black,woman,,,,null,,,,
null,is kissing,,html-keyboard-response,190,1319069,0.0-15.0-2.15,69314,List2A,black,woman,,,,null,,,,
9211,,,survey-text,191,1328284,0.0-15.0-3.15,69314,List2A,black,woman,,,,,"{""Q0"":""fred is kissing beth""}","<img src=""stim_listA/kiss3.gif""style=""height:400px;""></stim_listA>",is kissing,
null,"<div style=""font-size:60px;"">+</div>",,html-keyboard-response,192,1328786,0.0-15.0-0.16,69314,List2A,black,woman,,,,null,,,,
null,"<img src=""stim_listA/talk2.gif""style=""height:400px;""></stim_listA>",,html-keyboard-response,193,1330787,0.0-15.0-1.16,69314,List2A,black,woman,,,,null,,,,
null,are talking to each other,,html-keyboard-response,194,1332788,0.0-15.0-2.16,69314,List2A,black,woman,,,,null,,,,
9680,,,survey-text,195,1342468,0.0-15.0-3.16,69314,List2A,black,woman,,,,,"{""Q0"":""ruth and fred are talking to each other""}","<img src=""stim_listA/talk2.gif""style=""height:400px;""></stim_listA>",are talking to each other,
null,"<div style=""font-size:60px;"">+</div>",,html-keyboard-response,196,1342969,0.0-15.0-0.17,69314,List2A,black,woman,,,,null,,,,
null,"<img src=""stim_listA/dance5.gif""style=""height:400px;""></stim_listA>",,html-keyboard-response,197,1344972,0.0-15.0-1.17,69314,List2A,black,woman,,,,null,,,,
null,is dancing with,,html-keyboard-response,198,1346973,0.0-15.0-2.17,69314,List2A,black,woman,,,,null,,,,
7630,,,survey-text,199,1354604,0.0-15.0-3.17,69314,List2A,black,woman,,,,,"{""Q0"":""luke is dancing with mike""}","<img src=""stim_listA/dance5.gif""style=""height:400px;""></stim_listA>",is dancing with,
null,"<div style=""font-size:60px;"">+</div>",,html-keyboard-response,200,1355105,0.0-15.0-0.18,69314,List2A,black,woman,,,,null,,,,
null,"<img src=""stim_listA/shout8.gif""style=""height:400px;""></stim_listA>",,html-keyboard-response,201,1357107,0.0-15.0-1.18,69314,List2A,black,woman,,,,null,,,,
null,are shouting at each other,,html-keyboard-response,202,1359110,0.0-15.0-2.18,69314,List2A,black,woman,,,,null,,,,
10773,,,survey-text,203,1369884,0.0-15.0-3.18,69314,List2A,black,woman,,,,,"{""Q0"":""jane and kate are shouting at eachother""}","<img src=""stim_listA/shout8.gif""style=""height:400px;""></stim_listA>",are shouting at each other,
null,"<div style=""font-size:60px;"">+</div>",,html-keyboard-response,204,1370385,0.0-15.0-0.19,69314,List2A,black,woman,,,,null,,,,
null,"<img src=""stim_listA/marry8.gif""style=""height:400px;""></stim_listA>",,html-keyboard-response,205,1372387,0.0-15.0-1.19,69314,List2A,black,woman,,,,null,,,,
null,are marrying each other,,html-keyboard-response,206,1374389,0.0-15.0-2.19,69314,List2A,black,woman,,,,null,,,,
8765,,,survey-text,207,1383155,0.0-15.0-3.19,69314,List2A,black,woman,,,,,"{""Q0"":""kate and ruth are marrying each other""}","<img src=""stim_listA/marry8.gif""style=""height:400px;""></stim_listA>",are marrying each other,
2079,"<img src='img/portrait_matrix_list2.jpg' style='width:900px;height:500px;''></img><p>If you have memorised all the portraits and names and are ready to start, press Continue.</p><p><strong>Please note: Your memory of these faces will be tested 4 times during this experiment.</strong></p>",0,html-button-response,208,1385235,0.0-16.0-0.0,69314,List2A,black,woman,,,,,,,,
3222,"<img src=""portrait/BW1.jpg""style=""height:400px;""></img>",0,html-button-response,209,1389460,0.0-16.0-1.0,69314,List2A,black,woman,,TRUE,0,,,,,
null,CORRECT,,html-keyboard-response,210,1390970,0.0-16.0-2.0-0.0,69314,List2A,black,woman,,,,null,,,,
3024,"<img src=""portrait/BM2.jpg""style=""height:400px;""></img>",5,html-button-response,211,1393996,0.0-16.0-4.0,69314,List2A,black,woman,,TRUE,5,,,,,
null,CORRECT,,html-keyboard-response,212,1395498,0.0-16.0-5.0-0.0,69314,List2A,black,woman,,,,null,,,,
4073,"<img src=""portrait/WM2.jpg""style=""height:400px;""></img>",7,html-button-response,213,1399572,0.0-16.0-7.0,69314,List2A,black,woman,,TRUE,7,,,,,
null,CORRECT,,html-keyboard-response,214,1401097,0.0-16.0-8.0-0.0,69314,List2A,black,woman,,,,null,,,,
120652,"<img src=""portrait/BM1.jpg""style=""height:400px;""></img>",4,html-button-response,215,1521751,0.0-16.0-10.0,69314,List2A,black,woman,,TRUE,4,,,,,
null,CORRECT,,html-keyboard-response,216,1523253,0.0-16.0-11.0-0.0,69314,List2A,black,woman,,,,null,,,,
4551,"<img src=""portrait/WM1.jpg""style=""height:400px;""></img>",6,html-button-response,217,1527805,0.0-16.0-13.0,69314,List2A,black,woman,,TRUE,6,,,,,
null,CORRECT,,html-keyboard-response,218,1529311,0.0-16.0-14.0-0.0,69314,List2A,black,woman,,,,null,,,,
3752,"<img src=""portrait/WW1.jpg""style=""height:400px;""></img>",1,html-button-response,219,1533064,0.0-16.0-16.0,69314,List2A,black,woman,,TRUE,1,,,,,
null,CORRECT,,html-keyboard-response,220,1534571,0.0-16.0-17.0-0.0,69314,List2A,black,woman,,,,null,,,,
3091,"<img src=""portrait/WW2.jpg""style=""height:400px;""></img>",3,html-button-response,221,1537663,0.0-16.0-19.0,69314,List2A,black,woman,,TRUE,3,,,,,
null,CORRECT,,html-keyboard-response,222,1539168,0.0-16.0-20.0-0.0,69314,List2A,black,woman,,,,null,,,,
3355,"<img src=""portrait/BW2.jpg""style=""height:400px;""></img>",2,html-button-response,223,1542524,0.0-16.0-22.0,69314,List2A,black,woman,,TRUE,2,,,,,
null,CORRECT,,html-keyboard-response,224,1544027,0.0-16.0-23.0-0.0,69314,List2A,black,woman,,,,null,,,,
1732,<p>You got 8 out of 8 right first time. Press Continue.</p>,0,html-button-response,225,1545761,0.0-16.0-25.0,69314,List2A,black,woman,,,,,,,,
null,"<div style=""font-size:60px;"">+</div>",,html-keyboard-response,226,1547266,0.0-17.0-0.0,69314,List2A,black,woman,,,,null,,,,
null,"<img src=""stim_listA/play7.gif""style=""height:400px;""></stim_listA>",,html-keyboard-response,227,1549270,0.0-17.0-1.0,69314,List2A,black,woman,,,,null,,,,
null,is playing with,,html-keyboard-response,228,1551274,0.0-17.0-2.0,69314,List2A,black,woman,,,,null,,,,
9138,,,survey-text,229,1560413,0.0-17.0-3.0,69314,List2A,black,woman,,,,,"{""Q0"":""kate is playing with jane""}","<img src=""stim_listA/play7.gif""style=""height:400px;""></stim_listA>",is playing with,
null,"<div style=""font-size:60px;"">+</div>",,html-keyboard-response,230,1560919,0.0-17.0-0.1,69314,List2A,black,woman,,,,null,,,,
null,"<img src=""stim_listA/talk3.gif""style=""height:400px;""></stim_listA>",,html-keyboard-response,231,1562922,0.0-17.0-1.1,69314,List2A,black,woman,,,,null,,,,
null,is talking to,,html-keyboard-response,232,1564924,0.0-17.0-2.1,69314,List2A,black,woman,,,,null,,,,
8450,,,survey-text,233,1573376,0.0-17.0-3.1,69314,List2A,black,woman,,,,,"{""Q0"":""kate is talking to fred""}","<img src=""stim_listA/talk3.gif""style=""height:400px;""></stim_listA>",is talking to,
null,"<div style=""font-size:60px;"">+</div>",,html-keyboard-response,234,1573881,0.0-17.0-0.2,69314,List2A,black,woman,,,,null,,,,
null,"<img src=""stim_listA/argue6.gif""style=""height:400px;""></stim_listA>",,html-keyboard-response,235,1575885,0.0-17.0-1.2,69314,List2A,black,woman,,,,null,,,,
null,are arguing with each other,,html-keyboard-response,236,1577887,0.0-17.0-2.2,69314,List2A,black,woman,,,,null,,,,
8204,,,survey-text,237,1586091,0.0-17.0-3.2,69314,List2A,black,woman,,,,,"{""Q0"":""luke and mike are arguing with each other""}","<img src=""stim_listA/argue6.gif""style=""height:400px;""></stim_listA>",are arguing with each other,
null,"<div style=""font-size:60px;"">+</div>",,html-keyboard-response,238,1586593,0.0-17.0-0.3,69314,List2A,black,woman,,,,null,,,,
null,"<img src=""stim_listA/dance6.gif""style=""height:400px;""></stim_listA>",,html-keyboard-response,239,1588594,0.0-17.0-1.3,69314,List2A,black,woman,,,,null,,,,
null,are dancing with each other,,html-keyboard-response,240,1590599,0.0-17.0-2.3,69314,List2A,black,woman,,,,null,,,,
9476,,,survey-text,241,1600075,0.0-17.0-3.3,69314,List2A,black,woman,,,,,"{""Q0"":""fred and dave are dancing with each other""}","<img src=""stim_listA/dance6.gif""style=""height:400px;""></stim_listA>",are dancing with each other,
null,"<div style=""font-size:60px;"">+</div>",,html-keyboard-response,242,1600580,0.0-17.0-0.4,69314,List2A,black,woman,,,,null,,,,
null,"<img src=""stim_listA/marry4.gif""style=""height:400px;""></stim_listA>",,html-keyboard-response,243,1602582,0.0-17.0-1.4,69314,List2A,black,woman,,,,null,,,,
null,are marrying each other,,html-keyboard-response,244,1604584,0.0-17.0-2.4,69314,List2A,black,woman,,,,null,,,,
6969,,,survey-text,245,1611555,0.0-17.0-3.4,69314,List2A,black,woman,,,,,"{""Q0"":""fred and kate are marrying each other""}","<img src=""stim_listA/marry4.gif""style=""height:400px;""></stim_listA>",are marrying each other,
null,"<div style=""font-size:60px;"">+</div>",,html-keyboard-response,246,1612060,0.0-17.0-0.5,69314,List2A,black,woman,,,,null,,,,
null,"<img src=""stim_listA/touch5.gif""style=""height:400px;""></stim_listA>",,html-keyboard-response,247,1614065,0.0-17.0-1.5,69314,List2A,black,woman,,,,null,,,,
null,is touching,,html-keyboard-response,248,1616068,0.0-17.0-2.5,69314,List2A,black,woman,,,,null,,,,
5564,,,survey-text,249,1621633,0.0-17.0-3.5,69314,List2A,black,woman,,,,,"{""Q0"":""dave is touching mike""}","<img src=""stim_listA/touch5.gif""style=""height:400px;""></stim_listA>",is touching,
null,"<div style=""font-size:60px;"">+</div>",,html-keyboard-response,250,1622136,0.0-17.0-0.6,69314,List2A,black,woman,,,,null,,,,
null,"<img src=""stim_listA/play6.gif""style=""height:400px;""></stim_listA>",,html-keyboard-response,251,1624142,0.0-17.0-1.6,69314,List2A,black,woman,,,,null,,,,
null,are playing with each other,,html-keyboard-response,252,1626146,0.0-17.0-2.6,69314,List2A,black,woman,,,,null,,,,
8314,,,survey-text,253,1634461,0.0-17.0-3.6,69314,List2A,black,woman,,,,,"{""Q0"":""luke and fred are playing with each other""}","<img src=""stim_listA/play6.gif""style=""height:400px;""></stim_listA>",are playing with each other,
null,"<div style=""font-size:60px;"">+</div>",,html-keyboard-response,254,1634964,0.0-17.0-0.7,69314,List2A,black,woman,,,,null,,,,
null,"<img src=""stim_listA/fight3.gif""style=""height:400px;""></stim_listA>",,html-keyboard-response,255,1636966,0.0-17.0-1.7,69314,List2A,black,woman,,,,null,,,,
null,is fighting,,html-keyboard-response,256,1638968,0.0-17.0-2.7,69314,List2A,black,woman,,,,null,,,,
8762,,,survey-text,257,1647732,0.0-17.0-3.7,69314,List2A,black,woman,,,,,"{""Q0"":""mike is fighting kate""}","<img src=""stim_listA/fight3.gif""style=""height:400px;""></stim_listA>",is fighting,
null,"<div style=""font-size:60px;"">+</div>",,html-keyboard-response,258,1648233,0.0-17.0-0.8,69314,List2A,black,woman,,,,null,,,,
null,"<img src=""stim_listA/touch2.gif""style=""height:400px;""></stim_listA>",,html-keyboard-response,259,1650238,0.0-17.0-1.8,69314,List2A,black,woman,,,,null,,,,
null,are touching each other,,html-keyboard-response,260,1652243,0.0-17.0-2.8,69314,List2A,black,woman,,,,null,,,,
9172,,,survey-text,261,1661417,0.0-17.0-3.8,69314,List2A,black,woman,,,,,"{""Q0"":""luke and ruth are touching each other""}","<img src=""stim_listA/touch2.gif""style=""height:400px;""></stim_listA>",are touching each other,
null,"<div style=""font-size:60px;"">+</div>",,html-keyboard-response,262,1661919,0.0-17.0-0.9,69314,List2A,black,woman,,,,null,,,,
null,"<img src=""stim_listA/shout4.gif""style=""height:400px;""></stim_listA>",,html-keyboard-response,263,1663922,0.0-17.0-1.9,69314,List2A,black,woman,,,,null,,,,
null,are shouting at each other,,html-keyboard-response,264,1665925,0.0-17.0-2.9,69314,List2A,black,woman,,,,null,,,,
12389,,,survey-text,265,1678316,0.0-17.0-3.9,69314,List2A,black,woman,,,,,"{""Q0"":""mike and kate are fighting at each other""}","<img src=""stim_listA/shout4.gif""style=""height:400px;""></stim_listA>",are shouting at each other,
null,"<div style=""font-size:60px;"">+</div>",,html-keyboard-response,266,1678818,0.0-17.0-0.10,69314,List2A,black,woman,,,,null,,,,
null,"<img src=""stim_listA/touch1.gif""style=""height:400px;""></stim_listA>",,html-keyboard-response,267,1680821,0.0-17.0-1.10,69314,List2A,black,woman,,,,null,,,,
null,is touching,,html-keyboard-response,268,1682824,0.0-17.0-2.10,69314,List2A,black,woman,,,,null,,,,
7323,,,survey-text,269,1690149,0.0-17.0-3.10,69314,List2A,black,woman,,,,,"{""Q0"":""dave is touching jane""}","<img src=""stim_listA/touch1.gif""style=""height:400px;""></stim_listA>",is touching,
null,"<div style=""font-size:60px;"">+</div>",,html-keyboard-response,270,1690654,0.0-17.0-0.11,69314,List2A,black,woman,,,,null,,,,
null,"<img src=""stim_listA/flirt1.gif""style=""height:400px;""></stim_listA>",,html-keyboard-response,271,1692658,0.0-17.0-1.11,69314,List2A,black,woman,,,,null,,,,
null,is flirting with,,html-keyboard-response,272,1694659,0.0-17.0-2.11,69314,List2A,black,woman,,,,null,,,,
8167,,,survey-text,273,1702827,0.0-17.0-3.11,69314,List2A,black,woman,,,,,"{""Q0"":""luke is flirting with jane""}","<img src=""stim_listA/flirt1.gif""style=""height:400px;""></stim_listA>",is flirting with,
null,"<div style=""font-size:60px;"">+</div>",,html-keyboard-response,274,1703330,0.0-17.0-0.12,69314,List2A,black,woman,,,,null,,,,
null,"<img src=""stim_listA/kiss2.gif""style=""height:400px;""></stim_listA>",,html-keyboard-response,275,1705332,0.0-17.0-1.12,69314,List2A,black,woman,,,,null,,,,
null,are kissing each other,,html-keyboard-response,276,1707332,0.0-17.0-2.12,69314,List2A,black,woman,,,,null,,,,
7609,,,survey-text,277,1714943,0.0-17.0-3.12,69314,List2A,black,woman,,,,,"{""Q0"":""dave and jane are kissing each other""}","<img src=""stim_listA/kiss2.gif""style=""height:400px;""></stim_listA>",are kissing each other,
null,"<div style=""font-size:60px;"">+</div>",,html-keyboard-response,278,1715444,0.0-17.0-0.13,69314,List2A,black,woman,,,,null,,,,
null,"<img src=""stim_listA/play1.gif""style=""height:400px;""></stim_listA>",,html-keyboard-response,279,1717446,0.0-17.0-1.13,69314,List2A,black,woman,,,,null,,,,
null,is playing with,,html-keyboard-response,280,1719448,0.0-17.0-2.13,69314,List2A,black,woman,,,,null,,,,
6022,,,survey-text,281,1725472,0.0-17.0-3.13,69314,List2A,black,woman,,,,,"{""Q0"":""dave is playing with jane""}","<img src=""stim_listA/play1.gif""style=""height:400px;""></stim_listA>",is playing with,
null,"<div style=""font-size:60px;"">+</div>",,html-keyboard-response,282,1725978,0.0-17.0-0.14,69314,List2A,black,woman,,,,null,,,,
null,"<img src=""stim_listA/kiss6.gif""style=""height:400px;""></stim_listA>",,html-keyboard-response,283,1727981,0.0-17.0-1.14,69314,List2A,black,woman,,,,null,,,,
null,are kissing each other,,html-keyboard-response,284,1729985,0.0-17.0-2.14,69314,List2A,black,woman,,,,null,,,,
6194,,,survey-text,285,1736180,0.0-17.0-3.14,69314,List2A,black,woman,,,,,"{""Q0"":""dave and mike are kissing each other""}","<img src=""stim_listA/kiss6.gif""style=""height:400px;""></stim_listA>",are kissing each other,
null,"<div style=""font-size:60px;"">+</div>",,html-keyboard-response,286,1736684,0.0-17.0-0.15,69314,List2A,black,woman,,,,null,,,,
null,"<img src=""stim_listA/fight7.gif""style=""height:400px;""></stim_listA>",,html-keyboard-response,287,1738686,0.0-17.0-1.15,69314,List2A,black,woman,,,,null,,,,
null,is fighting,,html-keyboard-response,288,1740691,0.0-17.0-2.15,69314,List2A,black,woman,,,,null,,,,
6754,,,survey-text,289,1747452,0.0-17.0-3.15,69314,List2A,black,woman,,,,,"{""Q0"":""jane is fighting kate""}","<img src=""stim_listA/fight7.gif""style=""height:400px;""></stim_listA>",is fighting,
null,"<div style=""font-size:60px;"">+</div>",,html-keyboard-response,290,1747954,0.0-17.0-0.16,69314,List2A,black,woman,,,,null,,,,
null,"<img src=""stim_listA/talk1.gif""style=""height:400px;""></stim_listA>",,html-keyboard-response,291,1749955,0.0-17.0-1.16,69314,List2A,black,woman,,,,null,,,,
null,is talking to,,html-keyboard-response,292,1751957,0.0-17.0-2.16,69314,List2A,black,woman,,,,null,,,,
8769,,,survey-text,293,1760728,0.0-17.0-3.16,69314,List2A,black,woman,,,,,"{""Q0"":""luke is talking to jane""}","<img src=""stim_listA/talk1.gif""style=""height:400px;""></stim_listA>",is talking to,
null,"<div style=""font-size:60px;"">+</div>",,html-keyboard-response,294,1761231,0.0-17.0-0.17,69314,List2A,black,woman,,,,null,,,,
null,"<img src=""stim_listA/shout1.gif""style=""height:400px;""></stim_listA>",,html-keyboard-response,295,1763236,0.0-17.0-1.17,69314,List2A,black,woman,,,,null,,,,
null,is shouting at,,html-keyboard-response,296,1765240,0.0-17.0-2.17,69314,List2A,black,woman,,,,null,,,,
17043,,,survey-text,297,1782284,0.0-17.0-3.17,69314,List2A,black,woman,,,,,"{""Q0"":""luke is shouting at ruth ""}","<img src=""stim_listA/shout1.gif""style=""height:400px;""></stim_listA>",is shouting at,
null,"<div style=""font-size:60px;"">+</div>",,html-keyboard-response,298,1782786,0.0-17.0-0.18,69314,List2A,black,woman,,,,null,,,,
null,"<img src=""stim_listA/touch7.gif""style=""height:400px;""></stim_listA>",,html-keyboard-response,299,1784791,0.0-17.0-1.18,69314,List2A,black,woman,,,,null,,,,
null,is touching,,html-keyboard-response,300,1786794,0.0-17.0-2.18,69314,List2A,black,woman,,,,null,,,,
5323,,,survey-text,301,1792118,0.0-17.0-3.18,69314,List2A,black,woman,,,,,"{""Q0"":""kate is touching jane""}","<img src=""stim_listA/touch7.gif""style=""height:400px;""></stim_listA>",is touching,
null,"<div style=""font-size:60px;"">+</div>",,html-keyboard-response,302,1792620,0.0-17.0-0.19,69314,List2A,black,woman,,,,null,,,,
null,"<img src=""stim_listA/shout2.gif""style=""height:400px;""></stim_listA>",,html-keyboard-response,303,1794625,0.0-17.0-1.19,69314,List2A,black,woman,,,,null,,,,
null,are shouting at each other,,html-keyboard-response,304,1796627,0.0-17.0-2.19,69314,List2A,black,woman,,,,null,,,,
9975,,,survey-text,305,1806603,0.0-17.0-3.19,69314,List2A,black,woman,,,,,"{""Q0"":""jane and dave are shouting at each other""}","<img src=""stim_listA/shout2.gif""style=""height:400px;""></stim_listA>",are shouting at each other,
3524,"<img src='img/portrait_matrix_list2.jpg' style='width:900px;height:500px;''></img><p>If you have memorised all the portraits and names and are ready to start, press Continue.</p><p><strong>Please note: Your memory of these faces will be tested 4 times during this experiment.</strong></p>",0,html-button-response,306,1810129,0.0-18.0-0.0,69314,List2A,black,woman,,,,,,,,
4069,"<img src=""portrait/BW2.jpg""style=""height:400px;""></img>",2,html-button-response,307,1815201,0.0-18.0-1.0,69314,List2A,black,woman,,TRUE,2,,,,,
null,CORRECT,,html-keyboard-response,308,1816705,0.0-18.0-2.0-0.0,69314,List2A,black,woman,,,,null,,,,
2375,"<img src=""portrait/WM2.jpg""style=""height:400px;""></img>",7,html-button-response,309,1819082,0.0-18.0-4.0,69314,List2A,black,woman,,TRUE,7,,,,,
null,CORRECT,,html-keyboard-response,310,1820589,0.0-18.0-5.0-0.0,69314,List2A,black,woman,,,,null,,,,
5110,"<img src=""portrait/BM1.jpg""style=""height:400px;""></img>",4,html-button-response,311,1825701,0.0-18.0-7.0,69314,List2A,black,woman,,TRUE,4,,,,,
null,CORRECT,,html-keyboard-response,312,1827204,0.0-18.0-8.0-0.0,69314,List2A,black,woman,,,,null,,,,
6206,"<img src=""portrait/WW1.jpg""style=""height:400px;""></img>",1,html-button-response,313,1833412,0.0-18.0-10.0,69314,List2A,black,woman,,TRUE,1,,,,,
null,CORRECT,,html-keyboard-response,314,1834917,0.0-18.0-11.0-0.0,69314,List2A,black,woman,,,,null,,,,
1898,"<img src=""portrait/BM2.jpg""style=""height:400px;""></img>",5,html-button-response,315,1836817,0.0-18.0-13.0,69314,List2A,black,woman,,TRUE,5,,,,,
null,CORRECT,,html-keyboard-response,316,1838324,0.0-18.0-14.0-0.0,69314,List2A,black,woman,,,,null,,,,
2526,"<img src=""portrait/WW2.jpg""style=""height:400px;""></img>",3,html-button-response,317,1840852,0.0-18.0-16.0,69314,List2A,black,woman,,TRUE,3,,,,,
null,CORRECT,,html-keyboard-response,318,1842360,0.0-18.0-17.0-0.0,69314,List2A,black,woman,,,,null,,,,
3919,"<img src=""portrait/BW1.jpg""style=""height:400px;""></img>",0,html-button-response,319,1846281,0.0-18.0-19.0,69314,List2A,black,woman,,TRUE,0,,,,,
null,CORRECT,,html-keyboard-response,320,1847788,0.0-18.0-20.0-0.0,69314,List2A,black,woman,,,,null,,,,
3890,"<img src=""portrait/WM1.jpg""style=""height:400px;""></img>",6,html-button-response,321,1851679,0.0-18.0-22.0,69314,List2A,black,woman,,TRUE,6,,,,,
null,CORRECT,,html-keyboard-response,322,1853183,0.0-18.0-23.0-0.0,69314,List2A,black,woman,,,,null,,,,
1516,<p>You got 8 out of 8 right first time. Press Continue.</p>,0,html-button-response,323,1854700,0.0-18.0-25.0,69314,List2A,black,woman,,,,,,,,
null,"<div style=""font-size:60px;"">+</div>",,html-keyboard-response,324,1856203,0.0-19.0-0.0,69314,List2A,black,woman,,,,null,,,,
null,"<img src=""stim_listA/dance7.gif""style=""height:400px;""></stim_listA>",,html-keyboard-response,325,1858206,0.0-19.0-1.0,69314,List2A,black,woman,,,,null,,,,
null,is dancing with,,html-keyboard-response,326,1860210,0.0-19.0-2.0,69314,List2A,black,woman,,,,null,,,,
22207,,,survey-text,327,1882418,0.0-19.0-3.0,69314,List2A,black,woman,,,,,"{""Q0"":""ruth is dancing with kate""}","<img src=""stim_listA/dance7.gif""style=""height:400px;""></stim_listA>",is dancing with,
null,"<div style=""font-size:60px;"">+</div>",,html-keyboard-response,328,1882920,0.0-19.0-0.1,69314,List2A,black,woman,,,,null,,,,
null,"<img src=""stim_listA/argue7.gif""style=""height:400px;""></stim_listA>",,html-keyboard-response,329,1884924,0.0-19.0-1.1,69314,List2A,black,woman,,,,null,,,,
null,is arguing with,,html-keyboard-response,330,1886926,0.0-19.0-2.1,69314,List2A,black,woman,,,,null,,,,
5849,,,survey-text,331,1892776,0.0-19.0-3.1,69314,List2A,black,woman,,,,,"{""Q0"":""beth is arguing with jane""}","<img src=""stim_listA/argue7.gif""style=""height:400px;""></stim_listA>",is arguing with,
null,"<div style=""font-size:60px;"">+</div>",,html-keyboard-response,332,1893279,0.0-19.0-0.2,69314,List2A,black,woman,,,,null,,,,
null,"<img src=""stim_listA/fight1.gif""style=""height:400px;""></stim_listA>",,html-keyboard-response,333,1895280,0.0-19.0-1.2,69314,List2A,black,woman,,,,null,,,,
null,is fighting,,html-keyboard-response,334,1897283,0.0-19.0-2.2,69314,List2A,black,woman,,,,null,,,,
8141,,,survey-text,335,1905426,0.0-19.0-3.2,69314,List2A,black,woman,,,,,"{""Q0"":""jane is fighting with dave""}","<img src=""stim_listA/fight1.gif""style=""height:400px;""></stim_listA>",is fighting,
null,"<div style=""font-size:60px;"">+</div>",,html-keyboard-response,336,1905928,0.0-19.0-0.3,69314,List2A,black,woman,,,,null,,,,
null,"<img src=""stim_listA/fight8.gif""style=""height:400px;""></stim_listA>",,html-keyboard-response,337,1907930,0.0-19.0-1.3,69314,List2A,black,woman,,,,null,,,,
null,are fighting each other,,html-keyboard-response,338,1909932,0.0-19.0-2.3,69314,List2A,black,woman,,,,null,,,,
16370,,,survey-text,339,1926304,0.0-19.0-3.3,69314,List2A,black,woman,,,,,"{""Q0"":""ruth and beth are fighting each other""}","<img src=""stim_listA/fight8.gif""style=""height:400px;""></stim_listA>",are fighting each other,
null,"<div style=""font-size:60px;"">+</div>",,html-keyboard-response,340,1926808,0.0-19.0-0.4,69314,List2A,black,woman,,,,null,,,,
null,"<img src=""stim_listA/marry2.gif""style=""height:400px;""></stim_listA>",,html-keyboard-response,341,1928811,0.0-19.0-1.4,69314,List2A,black,woman,,,,null,,,,
null,are marrying each other,,html-keyboard-response,342,1930812,0.0-19.0-2.4,69314,List2A,black,woman,,,,null,,,,
6702,,,survey-text,343,1937515,0.0-19.0-3.4,69314,List2A,black,woman,,,,,"{""Q0"":""luke and jane are marrying each other""}","<img src=""stim_listA/marry2.gif""style=""height:400px;""></stim_listA>",are marrying each other,
null,"<div style=""font-size:60px;"">+</div>",,html-keyboard-response,344,1938018,0.0-19.0-0.5,69314,List2A,black,woman,,,,null,,,,
null,"<img src=""stim_listA/shout5.gif""style=""height:400px;""></stim_listA>",,html-keyboard-response,345,1940020,0.0-19.0-1.5,69314,List2A,black,woman,,,,null,,,,
null,is shouting at,,html-keyboard-response,346,1942022,0.0-19.0-2.5,69314,List2A,black,woman,,,,null,,,,
7561,,,survey-text,347,1949584,0.0-19.0-3.5,69314,List2A,black,woman,,,,,"{""Q0"":""luke is shouting at fred""}","<img src=""stim_listA/shout5.gif""style=""height:400px;""></stim_listA>",is shouting at,
null,"<div style=""font-size:60px;"">+</div>",,html-keyboard-response,348,1950087,0.0-19.0-0.6,69314,List2A,black,woman,,,,null,,,,
null,"<img src=""stim_listA/talk8.gif""style=""height:400px;""></stim_listA>",,html-keyboard-response,349,1952091,0.0-19.0-1.6,69314,List2A,black,woman,,,,null,,,,
null,are talking to each other,,html-keyboard-response,350,1954094,0.0-19.0-2.6,69314,List2A,black,woman,,,,null,,,,
7246,,,survey-text,351,1961342,0.0-19.0-3.6,69314,List2A,black,woman,,,,,"{""Q0"":""beth and jane are talking to each other""}","<img src=""stim_listA/talk8.gif""style=""height:400px;""></stim_listA>",are talking to each other,
null,"<div style=""font-size:60px;"">+</div>",,html-keyboard-response,352,1961843,0.0-19.0-0.7,69314,List2A,black,woman,,,,null,,,,
null,"<img src=""stim_listA/play4.gif""style=""height:400px;""></stim_listA>",,html-keyboard-response,353,1963849,0.0-19.0-1.7,69314,List2A,black,woman,,,,null,,,,
null,are playing with each other,,html-keyboard-response,354,1965851,0.0-19.0-2.7,69314,List2A,black,woman,,,,null,,,,
8023,,,survey-text,355,1973876,0.0-19.0-3.7,69314,List2A,black,woman,,,,,"{""Q0"":""beth and fred are playing with each other""}","<img src=""stim_listA/play4.gif""style=""height:400px;""></stim_listA>",are playing with each other,
null,"<div style=""font-size:60px;"">+</div>",,html-keyboard-response,356,1974384,0.0-19.0-0.8,69314,List2A,black,woman,,,,null,,,,
null,"<img src=""stim_listA/flirt6.gif""style=""height:400px;""></stim_listA>",,html-keyboard-response,357,1976387,0.0-19.0-1.8,69314,List2A,black,woman,,,,null,,,,
null,are flirting with each other,,html-keyboard-response,358,1978391,0.0-19.0-2.8,69314,List2A,black,woman,,,,null,,,,
17214,,,survey-text,359,1995606,0.0-19.0-3.8,69314,List2A,black,woman,,,,,"{""Q0"":""fred and dave are flirting with each other""}","<img src=""stim_listA/flirt6.gif""style=""height:400px;""></stim_listA>",are flirting with each other,
null,"<div style=""font-size:60px;"">+</div>",,html-keyboard-response,360,1996108,0.0-19.0-0.9,69314,List2A,black,woman,,,,null,,,,
null,"<img src=""stim_listA/fight2.gif""style=""height:400px;""></stim_listA>",,html-keyboard-response,361,1998110,0.0-19.0-1.9,69314,List2A,black,woman,,,,null,,,,
null,are fighting each other,,html-keyboard-response,362,2000114,0.0-19.0-2.9,69314,List2A,black,woman,,,,null,,,,
10402,,,survey-text,363,2010518,0.0-19.0-3.9,69314,List2A,black,woman,,,,,"{""Q0"":""jane and luke are fighting each other ""}","<img src=""stim_listA/fight2.gif""style=""height:400px;""></stim_listA>",are fighting each other,
null,"<div style=""font-size:60px;"">+</div>",,html-keyboard-response,364,2011022,0.0-19.0-0.10,69314,List2A,black,woman,,,,null,,,,
null,"<img src=""stim_listA/marry1.gif""style=""height:400px;""></stim_listA>",,html-keyboard-response,365,2013028,0.0-19.0-1.10,69314,List2A,black,woman,,,,null,,,,
null,is marrying,,html-keyboard-response,366,2015029,0.0-19.0-2.10,69314,List2A,black,woman,,,,null,,,,
6159,,,survey-text,367,2021190,0.0-19.0-3.10,69314,List2A,black,woman,,,,,"{""Q0"":""ruth is marrying luke""}","<img src=""stim_listA/marry1.gif""style=""height:400px;""></stim_listA>",is marrying,
null,"<div style=""font-size:60px;"">+</div>",,html-keyboard-response,368,2021692,0.0-19.0-0.11,69314,List2A,black,woman,,,,null,,,,
null,"<img src=""stim_listA/argue2.gif""style=""height:400px;""></stim_listA>",,html-keyboard-response,369,2023697,0.0-19.0-1.11,69314,List2A,black,woman,,,,null,,,,
null,are arguing with each other,,html-keyboard-response,370,2025700,0.0-19.0-2.11,69314,List2A,black,woman,,,,null,,,,
22357,,,survey-text,371,2048058,0.0-19.0-3.11,69314,List2A,black,woman,,,,,"{""Q0"":""jane and luke are arguing with each other""}","<img src=""stim_listA/argue2.gif""style=""height:400px;""></stim_listA>",are arguing with each other,
null,"<div style=""font-size:60px;"">+</div>",,html-keyboard-response,372,2048561,0.0-19.0-0.12,69314,List2A,black,woman,,,,null,,,,
null,"<img src=""stim_listA/fight6.gif""style=""height:400px;""></stim_listA>",,html-keyboard-response,373,2050563,0.0-19.0-1.12,69314,List2A,black,woman,,,,null,,,,
null,are fighting each other,,html-keyboard-response,374,2052565,0.0-19.0-2.12,69314,List2A,black,woman,,,,null,,,,
7937,,,survey-text,375,2060504,0.0-19.0-3.12,69314,List2A,black,woman,,,,,"{""Q0"":""fred and luke are fighting each other""}","<img src=""stim_listA/fight6.gif""style=""height:400px;""></stim_listA>",are fighting each other,
null,"<div style=""font-size:60px;"">+</div>",,html-keyboard-response,376,2061008,0.0-19.0-0.13,69314,List2A,black,woman,,,,null,,,,
null,"<img src=""stim_listA/shout3.gif""style=""height:400px;""></stim_listA>",,html-keyboard-response,377,2063011,0.0-19.0-1.13,69314,List2A,black,woman,,,,null,,,,
null,is shouting at,,html-keyboard-response,378,2065012,0.0-19.0-2.13,69314,List2A,black,woman,,,,null,,,,
8165,,,survey-text,379,2073179,0.0-19.0-3.13,69314,List2A,black,woman,,,,,"{""Q0"":""fred is shouting at beth""}","<img src=""stim_listA/shout3.gif""style=""height:400px;""></stim_listA>",is shouting at,
null,"<div style=""font-size:60px;"">+</div>",,html-keyboard-response,380,2073681,0.0-19.0-0.14,69314,List2A,black,woman,,,,null,,,,
null,"<img src=""stim_listA/touch4.gif""style=""height:400px;""></stim_listA>",,html-keyboard-response,381,2075685,0.0-19.0-1.14,69314,List2A,black,woman,,,,null,,,,
null,are touching each other,,html-keyboard-response,382,2077688,0.0-19.0-2.14,69314,List2A,black,woman,,,,null,,,,
8690,,,survey-text,383,2086378,0.0-19.0-3.14,69314,List2A,black,woman,,,,,"{""Q0"":""fred and beth are holding each other""}","<img src=""stim_listA/touch4.gif""style=""height:400px;""></stim_listA>",are touching each other,
null,"<div style=""font-size:60px;"">+</div>",,html-keyboard-response,384,2086880,0.0-19.0-0.15,69314,List2A,black,woman,,,,null,,,,
null,"<img src=""stim_listA/play8.gif""style=""height:400px;""></stim_listA>",,html-keyboard-response,385,2088883,0.0-19.0-1.15,69314,List2A,black,woman,,,,null,,,,
null,are playing with each other,,html-keyboard-response,386,2090885,0.0-19.0-2.15,69314,List2A,black,woman,,,,null,,,,
14101,,,survey-text,387,2104988,0.0-19.0-3.15,69314,List2A,black,woman,,,,,"{""Q0"":""beth and ruth are playing with each other""}","<img src=""stim_listA/play8.gif""style=""height:400px;""></stim_listA>",are playing with each other,
null,"<div style=""font-size:60px;"">+</div>",,html-keyboard-response,388,2105492,0.0-19.0-0.16,69314,List2A,black,woman,,,,null,,,,
null,"<img src=""stim_listA/argue1.gif""style=""height:400px;""></stim_listA>",,html-keyboard-response,389,2107493,0.0-19.0-1.16,69314,List2A,black,woman,,,,null,,,,
null,is arguing with,,html-keyboard-response,390,2109499,0.0-19.0-2.16,69314,List2A,black,woman,,,,null,,,,
7111,,,survey-text,391,2116611,0.0-19.0-3.16,69314,List2A,black,woman,,,,,"{""Q0"":""dave is arguing with ruth""}","<img src=""stim_listA/argue1.gif""style=""height:400px;""></stim_listA>",is arguing with,
null,"<div style=""font-size:60px;"">+</div>",,html-keyboard-response,392,2117116,0.0-19.0-0.17,69314,List2A,black,woman,,,,null,,,,
null,"<img src=""stim_listA/shout6.gif""style=""height:400px;""></stim_listA>",,html-keyboard-response,393,2119119,0.0-19.0-1.17,69314,List2A,black,woman,,,,null,,,,
null,are shouting at each other,,html-keyboard-response,394,2121121,0.0-19.0-2.17,69314,List2A,black,woman,,,,null,,,,
7505,,,survey-text,395,2128626,0.0-19.0-3.17,69314,List2A,black,woman,,,,,"{""Q0"":""dave and mike are shouting at each other""}","<img src=""stim_listA/shout6.gif""style=""height:400px;""></stim_listA>",are shouting at each other,
null,"<div style=""font-size:60px;"">+</div>",,html-keyboard-response,396,2129128,0.0-19.0-0.18,69314,List2A,black,woman,,,,null,,,,
null,"<img src=""stim_listA/argue5.gif""style=""height:400px;""></stim_listA>",,html-keyboard-response,397,2131133,0.0-19.0-1.18,69314,List2A,black,woman,,,,null,,,,
null,is arguing with,,html-keyboard-response,398,2133135,0.0-19.0-2.18,69314,List2A,black,woman,,,,null,,,,
8372,,,survey-text,399,2141508,0.0-19.0-3.18,69314,List2A,black,woman,,,,,"{""Q0"":""dave is arguing with fred""}","<img src=""stim_listA/argue5.gif""style=""height:400px;""></stim_listA>",is arguing with,
null,"<div style=""font-size:60px;"">+</div>",,html-keyboard-response,400,2142011,0.0-19.0-0.19,69314,List2A,black,woman,,,,null,,,,
null,"<img src=""stim_listA/shout7.gif""style=""height:400px;""></stim_listA>",,html-keyboard-response,401,2144014,0.0-19.0-1.19,69314,List2A,black,woman,,,,null,,,,
null,is shouting at,,html-keyboard-response,402,2146018,0.0-19.0-2.19,69314,List2A,black,woman,,,,null,,,,
7072,,,survey-text,403,2153092,0.0-19.0-3.19,69314,List2A,black,woman,,,,,"{""Q0"":""ruth is shouting at beth""}","<img src=""stim_listA/shout7.gif""style=""height:400px;""></stim_listA>",is shouting at,
1783,<p>Thank you for completing that task.</p><p>The final part of this session is a short questionnaire.</p><p>Press Continue.</p>,0,html-button-response,404,2154876,0.0-20.0,69314,List2A,black,woman,,,,,,,,
20128,,,survey-text,405,2176007,0.0-21.0,69314,List2A,black,woman,,,,,"{""Q0"":""35"",""Q1"":""English"",""Q2"":""English"",""Q3"":""United Kingdom"",""Q4"":""Black African"",""Q5"":""Female""}",,,demographics
8488,,,survey-likert,406,2184498,0.0-22.0,69314,List2A,black,woman,,,,,"{""Q0"":4}",,,likert_ESS
7022,,,survey-likert,407,2191536,0.0-23.0,69314,List2A,black,woman,,,,,"{""Q0"":5}",,,likert_NSSAL_Q1
2368,,,survey-likert,408,2193922,0.0-24.0,69314,List2A,black,woman,,,,,"{""Q0"":5}",,,likert_NSSAL_Q2
5622,,,survey-likert,409,2199561,0.0-25.0,69314,List2A,black,woman,,,,,"{""Q0"":4}",,,likert_CGRS_Q1
2772,,,survey-likert,410,2202350,0.0-26.0,69314,List2A,black,woman,,,,,"{""Q0"":4}",,,likert_CGRS_Q2
3180,,,survey-likert,411,2205550,0.0-27.0,69314,List2A,black,woman,,,,,"{""Q0"":4}",,,likert_CGRS_Q3
12743,,,survey-text,412,2218310,0.0-28.0,69314,List2A,black,woman,,,,,"{""Q0"":""ccc""}",,,worker_id
15465,,,external-html,413,2233828,0.0-29.0,69314,List2A,black,woman,debrief.html,,,,,,,
