rt,stimulus,button_pressed,trial_type,trial_index,time_elapsed,internal_node_id,subject,list,ppt_race,ppt_gender,url,first_guess,correct,key_press,responses,image_type,phrase_type,test_part
8730,Welcome to the experiment. Press Continue to begin.,0,html-button-response,0,8755,0.0-0.0,70009,List1B,black,man,,,,,,,,
140102,,,external-html,1,150020,0.0-1.0,70009,List1B,black,man,consent.html,,,,,,,
64131,"<p>On the next page, you will see portraits of 8 people and their names.</p><p>Your first task is to take a few minutes to memorise the names of these people.</p><p>You will have to recall their names during the rest of the experiment, so it is</p><p>essential that you try to memorise these people and their names as best as you can.</p><br><p><strong>You will then be tested on your memory of these names and portraits.</strong></p><br><p>The experiment will start after you have completed this memory test.</p><br><p>Ready?</p>",0,html-button-response,2,214163,0.0-2.0,70009,List1B,black,man,,,,,,,,
63401,"<img src='img/portrait_matrix_list1.jpg' style='width:900px;height:500px;''></img><p>If you have memorised all the portraits and names and are ready to start, press Continue.</p><p><strong>Please note: Your memory of these faces will be tested 4 times during this experiment.</strong></p>",0,html-button-response,3,278586,0.0-3.0-0.0,70009,List1B,black,man,,,,,,,,
3298,"<img src=""portrait/WM1.jpg""style=""height:400px;""></img>",6,html-button-response,4,282921,0.0-3.0-1.0,70009,List1B,black,man,,TRUE,6,,,,,
null,CORRECT,,html-keyboard-response,5,284462,0.0-3.0-2.0-0.0,70009,List1B,black,man,,,,null,,,,
2257,"<img src=""portrait/WM2.jpg""style=""height:400px;""></img>",7,html-button-response,6,286740,0.0-3.0-4.0,70009,List1B,black,man,,TRUE,7,,,,,
null,CORRECT,,html-keyboard-response,7,288260,0.0-3.0-5.0-0.0,70009,List1B,black,man,,,,null,,,,
2717,"<img src=""portrait/BM1.jpg""style=""height:400px;""></img>",4,html-button-response,8,290983,0.0-3.0-7.0,70009,List1B,black,man,,TRUE,4,,,,,
null,CORRECT,,html-keyboard-response,9,292515,0.0-3.0-8.0-0.0,70009,List1B,black,man,,,,null,,,,
10718,"<img src=""portrait/BW2.jpg""style=""height:400px;""></img>",2,html-button-response,10,303240,0.0-3.0-10.0,70009,List1B,black,man,,TRUE,2,,,,,
null,CORRECT,,html-keyboard-response,11,304771,0.0-3.0-11.0-0.0,70009,List1B,black,man,,,,null,,,,
2601,"<img src=""portrait/WW1.jpg""style=""height:400px;""></img>",1,html-button-response,12,307386,0.0-3.0-13.0,70009,List1B,black,man,,TRUE,1,,,,,
null,CORRECT,,html-keyboard-response,13,308901,0.0-3.0-14.0-0.0,70009,List1B,black,man,,,,null,,,,
2649,"<img src=""portrait/WW2.jpg""style=""height:400px;""></img>",3,html-button-response,14,311563,0.0-3.0-16.0,70009,List1B,black,man,,TRUE,3,,,,,
null,CORRECT,,html-keyboard-response,15,313082,0.0-3.0-17.0-0.0,70009,List1B,black,man,,,,null,,,,
2722,"<img src=""portrait/BM2.jpg""style=""height:400px;""></img>",5,html-button-response,16,315821,0.0-3.0-19.0,70009,List1B,black,man,,TRUE,5,,,,,
null,CORRECT,,html-keyboard-response,17,317359,0.0-3.0-20.0-0.0,70009,List1B,black,man,,,,null,,,,
2629,"<img src=""portrait/BW1.jpg""style=""height:400px;""></img>",0,html-button-response,18,320003,0.0-3.0-22.0,70009,List1B,black,man,,TRUE,0,,,,,
null,CORRECT,,html-keyboard-response,19,321523,0.0-3.0-23.0-0.0,70009,List1B,black,man,,,,null,,,,
3030,<p>You got 8 out of 8 right first time. Press Continue.</p>,0,html-button-response,20,324567,0.0-3.0-25.0,70009,List1B,black,man,,,,,,,,
18455,"<p>In this experiment, you will view photographs of the people from the memory game interacting.</p><p>By using the <strong>exact</strong> phrase given <i>after</i> the photograph appears and recalling the correct names of the people in the photographs, form a sentence describing the interaction. You do not need to capitalise names.</p><p>Type your answer in the space provided. Please complete every sentence before moving onto the next trial.</p><p>You will only have a few seconds to memorise each given photograph and phrase before you can respond, so try your best to focus.</p><p>An example is given below. Press 'Continue' when you are ready.</p><img src='img/speaking_example.jpg' style='width:800px;height:460px;''></img>",0,html-button-response,21,344046,0.0-4.0,70009,List1B,black,man,,,,,,,,
2596,"<p>Before the experiment starts, you will watch two example trials. Press 'Continue'.</p>",0,html-button-response,22,347656,0.0-5.0,70009,List1B,black,man,,,,,,,,
null,<img src='img/meet_eg.gif' style='height:400px;''></img>,,html-keyboard-response,23,350673,0.0-6.0,70009,List1B,black,man,,,,null,,,,
null,<p>is meeting</p>,,html-keyboard-response,24,352688,0.0-7.0,70009,List1B,black,man,,,,null,,,,
3247,<p><b>Answer:</b> kate is meeting beth</p>,0,html-button-response,25,355945,0.0-8.0,70009,List1B,black,man,,,,,,,,
null,<img src='img/look_eg.gif' style='height:400px;''></img>,,html-keyboard-response,26,358969,0.0-9.0,70009,List1B,black,man,,,,null,,,,
null,<p>are looking at each other</p>,,html-keyboard-response,27,360996,0.0-10.0,70009,List1B,black,man,,,,null,,,,
2705,<p><b>Answer:</b> luke and dave are looking at each other</p>,0,html-button-response,28,363711,0.0-11.0,70009,List1B,black,man,,,,,,,,
10556,"<p>Ready to start the experiment?</p><br><p><strong>Remember to describe the picture using a full sentence,</strong></p><p><strong>that combines the names of the people with the <i>exact</i> phrase given.</strong></p><p><strong>To receive full payment you must do this correctly.</strong></p><p><strong> You do not need to capitalise names or use punctuation.</strong></p><br><p>Press 'Continue' to begin.</p>",0,html-button-response,29,375294,0.0-12.0,70009,List1B,black,man,,,,,,,,
null,"<div style=""font-size:60px;"">+</div>",,html-keyboard-response,30,376813,0.0-13.0-0.0,70009,List1B,black,man,,,,null,,,,
null,"<img src=""stim_listB/fight1.gif""style=""height:400px;""></stim_listB>",,html-keyboard-response,31,378826,0.0-13.0-1.0,70009,List1B,black,man,,,,null,,,,
null,is fighting,,html-keyboard-response,32,380833,0.0-13.0-2.0,70009,List1B,black,man,,,,null,,,,
16657,,,survey-text,33,397499,0.0-13.0-3.0,70009,List1B,black,man,,,,,"{""Q0"":""kate is fighting mike""}","<img src=""stim_listB/fight1.gif""style=""height:400px;""></stim_listB>",is fighting,
null,"<div style=""font-size:60px;"">+</div>",,html-keyboard-response,34,398031,0.0-13.0-0.1,70009,List1B,black,man,,,,null,,,,
null,"<img src=""stim_listB/touch8.gif""style=""height:400px;""></stim_listB>",,html-keyboard-response,35,400040,0.0-13.0-1.1,70009,List1B,black,man,,,,null,,,,
null,are touching each other,,html-keyboard-response,36,402052,0.0-13.0-2.1,70009,List1B,black,man,,,,null,,,,
28007,,,survey-text,37,430067,0.0-13.0-3.1,70009,List1B,black,man,,,,,"{""Q0"":""beth and ruth are touching each other""}","<img src=""stim_listB/touch8.gif""style=""height:400px;""></stim_listB>",are touching each other,
null,"<div style=""font-size:60px;"">+</div>",,html-keyboard-response,38,430583,0.0-13.0-0.2,70009,List1B,black,man,,,,null,,,,
null,"<img src=""stim_listB/flirt5.gif""style=""height:400px;""></stim_listB>",,html-keyboard-response,39,432594,0.0-13.0-1.2,70009,List1B,black,man,,,,null,,,,
null,is flirting with,,html-keyboard-response,40,434604,0.0-13.0-2.2,70009,List1B,black,man,,,,null,,,,
21745,,,survey-text,41,456362,0.0-13.0-3.2,70009,List1B,black,man,,,,,"{""Q0"":""dave is flirting with fred""}","<img src=""stim_listB/flirt5.gif""style=""height:400px;""></stim_listB>",is flirting with,
null,"<div style=""font-size:60px;"">+</div>",,html-keyboard-response,42,456874,0.0-13.0-0.3,70009,List1B,black,man,,,,null,,,,
null,"<img src=""stim_listB/flirt3.gif""style=""height:400px;""></stim_listB>",,html-keyboard-response,43,458891,0.0-13.0-1.3,70009,List1B,black,man,,,,null,,,,
null,is flirting with,,html-keyboard-response,44,460908,0.0-13.0-2.3,70009,List1B,black,man,,,,null,,,,
14089,,,survey-text,45,475002,0.0-13.0-3.3,70009,List1B,black,man,,,,,"{""Q0"":""luke is flirting with jane""}","<img src=""stim_listB/flirt3.gif""style=""height:400px;""></stim_listB>",is flirting with,
null,"<div style=""font-size:60px;"">+</div>",,html-keyboard-response,46,475515,0.0-13.0-0.4,70009,List1B,black,man,,,,null,,,,
null,"<img src=""stim_listB/argue7.gif""style=""height:400px;""></stim_listB>",,html-keyboard-response,47,477526,0.0-13.0-1.4,70009,List1B,black,man,,,,null,,,,
null,is arguing with,,html-keyboard-response,48,479547,0.0-13.0-2.4,70009,List1B,black,man,,,,null,,,,
15227,,,survey-text,49,494781,0.0-13.0-3.4,70009,List1B,black,man,,,,,"{""Q0"":""ruth is arguing with kate""}","<img src=""stim_listB/argue7.gif""style=""height:400px;""></stim_listB>",is arguing with,
null,"<div style=""font-size:60px;"">+</div>",,html-keyboard-response,50,495300,0.0-13.0-0.5,70009,List1B,black,man,,,,null,,,,
null,"<img src=""stim_listB/kiss5.gif""style=""height:400px;""></stim_listB>",,html-keyboard-response,51,497333,0.0-13.0-1.5,70009,List1B,black,man,,,,null,,,,
null,is kissing,,html-keyboard-response,52,499351,0.0-13.0-2.5,70009,List1B,black,man,,,,null,,,,
13600,,,survey-text,53,512961,0.0-13.0-3.5,70009,List1B,black,man,,,,,"{""Q0"":""fred is kissing luke""}","<img src=""stim_listB/kiss5.gif""style=""height:400px;""></stim_listB>",is kissing,
null,"<div style=""font-size:60px;"">+</div>",,html-keyboard-response,54,513467,0.0-13.0-0.6,70009,List1B,black,man,,,,null,,,,
null,"<img src=""stim_listB/talk5.gif""style=""height:400px;""></stim_listB>",,html-keyboard-response,55,515484,0.0-13.0-1.6,70009,List1B,black,man,,,,null,,,,
null,is talking to,,html-keyboard-response,56,517492,0.0-13.0-2.6,70009,List1B,black,man,,,,null,,,,
11688,,,survey-text,57,529188,0.0-13.0-3.6,70009,List1B,black,man,,,,,"{""Q0"":""dave is talking to fred""}","<img src=""stim_listB/talk5.gif""style=""height:400px;""></stim_listB>",is talking to,
null,"<div style=""font-size:60px;"">+</div>",,html-keyboard-response,58,529706,0.0-13.0-0.7,70009,List1B,black,man,,,,null,,,,
null,"<img src=""stim_listB/kiss1.gif""style=""height:400px;""></stim_listB>",,html-keyboard-response,59,531716,0.0-13.0-1.7,70009,List1B,black,man,,,,null,,,,
null,is kissing,,html-keyboard-response,60,533730,0.0-13.0-2.7,70009,List1B,black,man,,,,null,,,,
10260,,,survey-text,61,543995,0.0-13.0-3.7,70009,List1B,black,man,,,,,"{""Q0"":""beth is kissing fred""}","<img src=""stim_listB/kiss1.gif""style=""height:400px;""></stim_listB>",is kissing,
null,"<div style=""font-size:60px;"">+</div>",,html-keyboard-response,62,544515,0.0-13.0-0.8,70009,List1B,black,man,,,,null,,,,
null,"<img src=""stim_listB/flirt7.gif""style=""height:400px;""></stim_listB>",,html-keyboard-response,63,546525,0.0-13.0-1.8,70009,List1B,black,man,,,,null,,,,
null,is flirting with,,html-keyboard-response,64,548548,0.0-13.0-2.8,70009,List1B,black,man,,,,null,,,,
13482,,,survey-text,65,562038,0.0-13.0-3.8,70009,List1B,black,man,,,,,"{""Q0"":""beth is flirting with jane""}","<img src=""stim_listB/flirt7.gif""style=""height:400px;""></stim_listB>",is flirting with,
null,"<div style=""font-size:60px;"">+</div>",,html-keyboard-response,66,562570,0.0-13.0-0.9,70009,List1B,black,man,,,,null,,,,
null,"<img src=""stim_listB/dance8.gif""style=""height:400px;""></stim_listB>",,html-keyboard-response,67,564586,0.0-13.0-1.9,70009,List1B,black,man,,,,null,,,,
null,are dancing with each other,,html-keyboard-response,68,566606,0.0-13.0-2.9,70009,List1B,black,man,,,,null,,,,
18210,,,survey-text,69,584825,0.0-13.0-3.9,70009,List1B,black,man,,,,,"{""Q0"":""kate and ruth are dancing wuth each other""}","<img src=""stim_listB/dance8.gif""style=""height:400px;""></stim_listB>",are dancing with each other,
null,"<div style=""font-size:60px;"">+</div>",,html-keyboard-response,70,585337,0.0-13.0-0.10,70009,List1B,black,man,,,,null,,,,
null,"<img src=""stim_listB/marry1.gif""style=""height:400px;""></stim_listB>",,html-keyboard-response,71,587352,0.0-13.0-1.10,70009,List1B,black,man,,,,null,,,,
null,is marrying,,html-keyboard-response,72,589360,0.0-13.0-2.10,70009,List1B,black,man,,,,null,,,,
15194,,,survey-text,73,604561,0.0-13.0-3.10,70009,List1B,black,man,,,,,"{""Q0"":""mike is marrying beth""}","<img src=""stim_listB/marry1.gif""style=""height:400px;""></stim_listB>",is marrying,
null,"<div style=""font-size:60px;"">+</div>",,html-keyboard-response,74,605068,0.0-13.0-0.11,70009,List1B,black,man,,,,null,,,,
null,"<img src=""stim_listB/play4.gif""style=""height:400px;""></stim_listB>",,html-keyboard-response,75,607079,0.0-13.0-1.11,70009,List1B,black,man,,,,null,,,,
null,are playing with each other,,html-keyboard-response,76,609098,0.0-13.0-2.11,70009,List1B,black,man,,,,null,,,,
17823,,,survey-text,77,626927,0.0-13.0-3.11,70009,List1B,black,man,,,,,"{""Q0"":""luke and ruth are playing with each other""}","<img src=""stim_listB/play4.gif""style=""height:400px;""></stim_listB>",are playing with each other,
null,"<div style=""font-size:60px;"">+</div>",,html-keyboard-response,78,627434,0.0-13.0-0.12,70009,List1B,black,man,,,,null,,,,
null,"<img src=""stim_listB/dance3.gif""style=""height:400px;""></stim_listB>",,html-keyboard-response,79,629451,0.0-13.0-1.12,70009,List1B,black,man,,,,null,,,,
null,is dancing with,,html-keyboard-response,80,631464,0.0-13.0-2.12,70009,List1B,black,man,,,,null,,,,
13240,,,survey-text,81,644711,0.0-13.0-3.12,70009,List1B,black,man,,,,,"{""Q0"":""jane is dancing with luke""}","<img src=""stim_listB/dance3.gif""style=""height:400px;""></stim_listB>",is dancing with,
null,"<div style=""font-size:60px;"">+</div>",,html-keyboard-response,82,645229,0.0-13.0-0.13,70009,List1B,black,man,,,,null,,,,
null,"<img src=""stim_listB/fight2.gif""style=""height:400px;""></stim_listB>",,html-keyboard-response,83,647241,0.0-13.0-1.13,70009,List1B,black,man,,,,null,,,,
null,are fighting each other,,html-keyboard-response,84,649254,0.0-13.0-2.13,70009,List1B,black,man,,,,null,,,,
21917,,,survey-text,85,671178,0.0-13.0-3.13,70009,List1B,black,man,,,,,"{""Q0"":""fred and beth are fighting each other""}","<img src=""stim_listB/fight2.gif""style=""height:400px;""></stim_listB>",are fighting each other,
null,"<div style=""font-size:60px;"">+</div>",,html-keyboard-response,86,671688,0.0-13.0-0.14,70009,List1B,black,man,,,,null,,,,
null,"<img src=""stim_listB/touch4.gif""style=""height:400px;""></stim_listB>",,html-keyboard-response,87,673696,0.0-13.0-1.14,70009,List1B,black,man,,,,null,,,,
null,are touching each other,,html-keyboard-response,88,675706,0.0-13.0-2.14,70009,List1B,black,man,,,,null,,,,
17030,,,survey-text,89,692742,0.0-13.0-3.14,70009,List1B,black,man,,,,,"{""Q0"":""luke and ruth are touching each other""}","<img src=""stim_listB/touch4.gif""style=""height:400px;""></stim_listB>",are touching each other,
null,"<div style=""font-size:60px;"">+</div>",,html-keyboard-response,90,693254,0.0-13.0-0.15,70009,List1B,black,man,,,,null,,,,
null,"<img src=""stim_listB/flirt8.gif""style=""height:400px;""></stim_listB>",,html-keyboard-response,91,695263,0.0-13.0-1.15,70009,List1B,black,man,,,,null,,,,
null,are flirting with each other,,html-keyboard-response,92,697281,0.0-13.0-2.15,70009,List1B,black,man,,,,null,,,,
17222,,,survey-text,93,714510,0.0-13.0-3.15,70009,List1B,black,man,,,,,"{""Q0"":""kate and ruth are flirting with each other""}","<img src=""stim_listB/flirt8.gif""style=""height:400px;""></stim_listB>",are flirting with each other,
null,"<div style=""font-size:60px;"">+</div>",,html-keyboard-response,94,715018,0.0-13.0-0.16,70009,List1B,black,man,,,,null,,,,
null,"<img src=""stim_listB/argue3.gif""style=""height:400px;""></stim_listB>",,html-keyboard-response,95,717044,0.0-13.0-1.16,70009,List1B,black,man,,,,null,,,,
null,is arguing with,,html-keyboard-response,96,719051,0.0-13.0-2.16,70009,List1B,black,man,,,,null,,,,
15004,,,survey-text,97,734063,0.0-13.0-3.16,70009,List1B,black,man,,,,,"{""Q0"":""dave is arguing with ruth""}","<img src=""stim_listB/argue3.gif""style=""height:400px;""></stim_listB>",is arguing with,
null,"<div style=""font-size:60px;"">+</div>",,html-keyboard-response,98,734583,0.0-13.0-0.17,70009,List1B,black,man,,,,null,,,,
null,"<img src=""stim_listB/talk6.gif""style=""height:400px;""></stim_listB>",,html-keyboard-response,99,736600,0.0-13.0-1.17,70009,List1B,black,man,,,,null,,,,
null,are talking to each other,,html-keyboard-response,100,738612,0.0-13.0-2.17,70009,List1B,black,man,,,,null,,,,
29432,,,survey-text,101,768055,0.0-13.0-3.17,70009,List1B,black,man,,,,,"{""Q0"":""mike and luke are talking with each other""}","<img src=""stim_listB/talk6.gif""style=""height:400px;""></stim_listB>",are talking to each other,
null,"<div style=""font-size:60px;"">+</div>",,html-keyboard-response,102,768579,0.0-13.0-0.18,70009,List1B,black,man,,,,null,,,,
null,"<img src=""stim_listB/play2.gif""style=""height:400px;""></stim_listB>",,html-keyboard-response,103,770590,0.0-13.0-1.18,70009,List1B,black,man,,,,null,,,,
null,are playing with each other,,html-keyboard-response,104,772599,0.0-13.0-2.18,70009,List1B,black,man,,,,null,,,,
22044,,,survey-text,105,794655,0.0-13.0-3.18,70009,List1B,black,man,,,,,"{""Q0"":""fred and beth are playing with each other""}","<img src=""stim_listB/play2.gif""style=""height:400px;""></stim_listB>",are playing with each other,
null,"<div style=""font-size:60px;"">+</div>",,html-keyboard-response,106,795163,0.0-13.0-0.19,70009,List1B,black,man,,,,null,,,,
null,"<img src=""stim_listB/play6.gif""style=""height:400px;""></stim_listB>",,html-keyboard-response,107,797177,0.0-13.0-1.19,70009,List1B,black,man,,,,null,,,,
null,are playing with each other,,html-keyboard-response,108,799182,0.0-13.0-2.19,70009,List1B,black,man,,,,null,,,,
31236,,,survey-text,109,830425,0.0-13.0-3.19,70009,List1B,black,man,,,,,"{""Q0"":""luke and fred are playing with each other""}","<img src=""stim_listB/play6.gif""style=""height:400px;""></stim_listB>",are playing with each other,
5855,"<img src='img/portrait_matrix_list1.jpg' style='width:900px;height:500px;''></img><p>If you have memorised all the portraits and names and are ready to start, press Continue.</p><p><strong>Please note: Your memory of these faces will be tested 4 times during this experiment.</strong></p>",0,html-button-response,110,836291,0.0-14.0-0.0,70009,List1B,black,man,,,,,,,,
2044,"<img src=""portrait/BM2.jpg""style=""height:400px;""></img>",5,html-button-response,111,839361,0.0-14.0-1.0,70009,List1B,black,man,,TRUE,5,,,,,
null,CORRECT,,html-keyboard-response,112,840886,0.0-14.0-2.0-0.0,70009,List1B,black,man,,,,null,,,,
3022,"<img src=""portrait/WW1.jpg""style=""height:400px;""></img>",1,html-button-response,113,843922,0.0-14.0-4.0,70009,List1B,black,man,,TRUE,1,,,,,
null,CORRECT,,html-keyboard-response,114,845431,0.0-14.0-5.0-0.0,70009,List1B,black,man,,,,null,,,,
1843,"<img src=""portrait/WW2.jpg""style=""height:400px;""></img>",3,html-button-response,115,847290,0.0-14.0-7.0,70009,List1B,black,man,,TRUE,3,,,,,
null,CORRECT,,html-keyboard-response,116,848797,0.0-14.0-8.0-0.0,70009,List1B,black,man,,,,null,,,,
2310,"<img src=""portrait/BW2.jpg""style=""height:400px;""></img>",2,html-button-response,117,851123,0.0-14.0-10.0,70009,List1B,black,man,,TRUE,2,,,,,
null,CORRECT,,html-keyboard-response,118,852641,0.0-14.0-11.0-0.0,70009,List1B,black,man,,,,null,,,,
2016,"<img src=""portrait/BM1.jpg""style=""height:400px;""></img>",4,html-button-response,119,854673,0.0-14.0-13.0,70009,List1B,black,man,,TRUE,4,,,,,
null,CORRECT,,html-keyboard-response,120,856191,0.0-14.0-14.0-0.0,70009,List1B,black,man,,,,null,,,,
2550,"<img src=""portrait/BW1.jpg""style=""height:400px;""></img>",0,html-button-response,121,858756,0.0-14.0-16.0,70009,List1B,black,man,,TRUE,0,,,,,
null,CORRECT,,html-keyboard-response,122,860266,0.0-14.0-17.0-0.0,70009,List1B,black,man,,,,null,,,,
2124,"<img src=""portrait/WM2.jpg""style=""height:400px;""></img>",7,html-button-response,123,862407,0.0-14.0-19.0,70009,List1B,black,man,,TRUE,7,,,,,
null,CORRECT,,html-keyboard-response,124,863919,0.0-14.0-20.0-0.0,70009,List1B,black,man,,,,null,,,,
2171,"<img src=""portrait/WM1.jpg""style=""height:400px;""></img>",6,html-button-response,125,866110,0.0-14.0-22.0,70009,List1B,black,man,,TRUE,6,,,,,
null,CORRECT,,html-keyboard-response,126,867627,0.0-14.0-23.0-0.0,70009,List1B,black,man,,,,null,,,,
2130,<p>You got 8 out of 8 right first time. Press Continue.</p>,0,html-button-response,127,869766,0.0-14.0-25.0,70009,List1B,black,man,,,,,,,,
null,"<div style=""font-size:60px;"">+</div>",,html-keyboard-response,128,871290,0.0-15.0-0.0,70009,List1B,black,man,,,,null,,,,
null,"<img src=""stim_listB/kiss6.gif""style=""height:400px;""></stim_listB>",,html-keyboard-response,129,873299,0.0-15.0-1.0,70009,List1B,black,man,,,,null,,,,
null,are kissing each other,,html-keyboard-response,130,875316,0.0-15.0-2.0,70009,List1B,black,man,,,,null,,,,
14367,,,survey-text,131,889690,0.0-15.0-3.0,70009,List1B,black,man,,,,,"{""Q0"":""mike and dave are kissing each other""}","<img src=""stim_listB/kiss6.gif""style=""height:400px;""></stim_listB>",are kissing each other,
null,"<div style=""font-size:60px;"">+</div>",,html-keyboard-response,132,890210,0.0-15.0-0.1,70009,List1B,black,man,,,,null,,,,
null,"<img src=""stim_listB/shout6.gif""style=""height:400px;""></stim_listB>",,html-keyboard-response,133,892234,0.0-15.0-1.1,70009,List1B,black,man,,,,null,,,,
null,are shouting at each other,,html-keyboard-response,134,894244,0.0-15.0-2.1,70009,List1B,black,man,,,,null,,,,
15553,,,survey-text,135,909807,0.0-15.0-3.1,70009,List1B,black,man,,,,,"{""Q0"":""mike and dave are arguing with each other""}","<img src=""stim_listB/shout6.gif""style=""height:400px;""></stim_listB>",are shouting at each other,
null,"<div style=""font-size:60px;"">+</div>",,html-keyboard-response,136,910322,0.0-15.0-0.2,70009,List1B,black,man,,,,null,,,,
null,"<img src=""stim_listB/argue1.gif""style=""height:400px;""></stim_listB>",,html-keyboard-response,137,912338,0.0-15.0-1.2,70009,List1B,black,man,,,,null,,,,
null,is arguing with,,html-keyboard-response,138,914347,0.0-15.0-2.2,70009,List1B,black,man,,,,null,,,,
16589,,,survey-text,139,930944,0.0-15.0-3.2,70009,List1B,black,man,,,,,"{""Q0"":""beth is arguing with mike""}","<img src=""stim_listB/argue1.gif""style=""height:400px;""></stim_listB>",is arguing with,
null,"<div style=""font-size:60px;"">+</div>",,html-keyboard-response,140,931456,0.0-15.0-0.3,70009,List1B,black,man,,,,null,,,,
null,"<img src=""stim_listB/touch5.gif""style=""height:400px;""></stim_listB>",,html-keyboard-response,141,933471,0.0-15.0-1.3,70009,List1B,black,man,,,,null,,,,
null,is touching,,html-keyboard-response,142,935493,0.0-15.0-2.3,70009,List1B,black,man,,,,null,,,,
11969,,,survey-text,143,947469,0.0-15.0-3.3,70009,List1B,black,man,,,,,"{""Q0"":""dave is touching mike""}","<img src=""stim_listB/touch5.gif""style=""height:400px;""></stim_listB>",is touching,
null,"<div style=""font-size:60px;"">+</div>",,html-keyboard-response,144,947991,0.0-15.0-0.4,70009,List1B,black,man,,,,null,,,,
null,"<img src=""stim_listB/flirt2.gif""style=""height:400px;""></stim_listB>",,html-keyboard-response,145,950000,0.0-15.0-1.4,70009,List1B,black,man,,,,null,,,,
null,are flirting with each other,,html-keyboard-response,146,952007,0.0-15.0-2.4,70009,List1B,black,man,,,,null,,,,
15920,,,survey-text,147,967938,0.0-15.0-3.4,70009,List1B,black,man,,,,,"{""Q0"":""beth and mike are flirting with each other""}","<img src=""stim_listB/flirt2.gif""style=""height:400px;""></stim_listB>",are flirting with each other,
null,"<div style=""font-size:60px;"">+</div>",,html-keyboard-response,148,968460,0.0-15.0-0.5,70009,List1B,black,man,,,,null,,,,
null,"<img src=""stim_listB/fight5.gif""style=""height:400px;""></stim_listB>",,html-keyboard-response,149,970470,0.0-15.0-1.5,70009,List1B,black,man,,,,null,,,,
null,is fighting,,html-keyboard-response,150,972484,0.0-15.0-2.5,70009,List1B,black,man,,,,null,,,,
10608,,,survey-text,151,983100,0.0-15.0-3.5,70009,List1B,black,man,,,,,"{""Q0"":""dave is fighting mike""}","<img src=""stim_listB/fight5.gif""style=""height:400px;""></stim_listB>",is fighting,
null,"<div style=""font-size:60px;"">+</div>",,html-keyboard-response,152,983611,0.0-15.0-0.6,70009,List1B,black,man,,,,null,,,,
null,"<img src=""stim_listB/touch1.gif""style=""height:400px;""></stim_listB>",,html-keyboard-response,153,985625,0.0-15.0-1.6,70009,List1B,black,man,,,,null,,,,
null,is touching,,html-keyboard-response,154,987648,0.0-15.0-2.6,70009,List1B,black,man,,,,null,,,,
11158,,,survey-text,155,998811,0.0-15.0-3.6,70009,List1B,black,man,,,,,"{""Q0"":""kate is touching mike""}","<img src=""stim_listB/touch1.gif""style=""height:400px;""></stim_listB>",is touching,
null,"<div style=""font-size:60px;"">+</div>",,html-keyboard-response,156,999316,0.0-15.0-0.7,70009,List1B,black,man,,,,null,,,,
null,"<img src=""stim_listB/fight7.gif""style=""height:400px;""></stim_listB>",,html-keyboard-response,157,1001329,0.0-15.0-1.7,70009,List1B,black,man,,,,null,,,,
null,is fighting,,html-keyboard-response,158,1003340,0.0-15.0-2.7,70009,List1B,black,man,,,,null,,,,
19833,,,survey-text,159,1023181,0.0-15.0-3.7,70009,List1B,black,man,,,,,"{""Q0"":""kate is fighting jane""}","<img src=""stim_listB/fight7.gif""style=""height:400px;""></stim_listB>",is fighting,
null,"<div style=""font-size:60px;"">+</div>",,html-keyboard-response,160,1023692,0.0-15.0-0.8,70009,List1B,black,man,,,,null,,,,
null,"<img src=""stim_listB/dance1.gif""style=""height:400px;""></stim_listB>",,html-keyboard-response,161,1025703,0.0-15.0-1.8,70009,List1B,black,man,,,,null,,,,
null,is dancing with,,html-keyboard-response,162,1027711,0.0-15.0-2.8,70009,List1B,black,man,,,,null,,,,
13479,,,survey-text,163,1041201,0.0-15.0-3.8,70009,List1B,black,man,,,,,"{""Q0"":""fred is dancing with kate""}","<img src=""stim_listB/dance1.gif""style=""height:400px;""></stim_listB>",is dancing with,
null,"<div style=""font-size:60px;"">+</div>",,html-keyboard-response,164,1041708,0.0-15.0-0.9,70009,List1B,black,man,,,,null,,,,
null,"<img src=""stim_listB/shout2.gif""style=""height:400px;""></stim_listB>",,html-keyboard-response,165,1043728,0.0-15.0-1.9,70009,List1B,black,man,,,,null,,,,
null,are shouting at each other,,html-keyboard-response,166,1045735,0.0-15.0-2.9,70009,List1B,black,man,,,,null,,,,
18056,,,survey-text,167,1063803,0.0-15.0-3.9,70009,List1B,black,man,,,,,"{""Q0"":""mike and kate are shouting at each other""}","<img src=""stim_listB/shout2.gif""style=""height:400px;""></stim_listB>",are shouting at each other,
null,"<div style=""font-size:60px;"">+</div>",,html-keyboard-response,168,1064315,0.0-15.0-0.10,70009,List1B,black,man,,,,null,,,,
null,"<img src=""stim_listB/argue2.gif""style=""height:400px;""></stim_listB>",,html-keyboard-response,169,1066323,0.0-15.0-1.10,70009,List1B,black,man,,,,null,,,,
null,are arguing with each other,,html-keyboard-response,170,1068342,0.0-15.0-2.10,70009,List1B,black,man,,,,null,,,,
28836,,,survey-text,171,1097184,0.0-15.0-3.10,70009,List1B,black,man,,,,,"{""Q0"":""fred and mike are arguing with each other""}","<img src=""stim_listB/argue2.gif""style=""height:400px;""></stim_listB>",are arguing with each other,
null,"<div style=""font-size:60px;"">+</div>",,html-keyboard-response,172,1097696,0.0-15.0-0.11,70009,List1B,black,man,,,,null,,,,
null,"<img src=""stim_listB/dance4.gif""style=""height:400px;""></stim_listB>",,html-keyboard-response,173,1099705,0.0-15.0-1.11,70009,List1B,black,man,,,,null,,,,
null,are dancing with each other,,html-keyboard-response,174,1101724,0.0-15.0-2.11,70009,List1B,black,man,,,,null,,,,
17439,,,survey-text,175,1119172,0.0-15.0-3.11,70009,List1B,black,man,,,,,"{""Q0"":""dave and ruth are dancing with each other""}","<img src=""stim_listB/dance4.gif""style=""height:400px;""></stim_listB>",are dancing with each other,
null,"<div style=""font-size:60px;"">+</div>",,html-keyboard-response,176,1119685,0.0-15.0-0.12,70009,List1B,black,man,,,,null,,,,
null,"<img src=""stim_listB/flirt4.gif""style=""height:400px;""></stim_listB>",,html-keyboard-response,177,1121700,0.0-15.0-1.12,70009,List1B,black,man,,,,null,,,,
null,are flirting with each other,,html-keyboard-response,178,1123717,0.0-15.0-2.12,70009,List1B,black,man,,,,null,,,,
16645,,,survey-text,179,1140369,0.0-15.0-3.12,70009,List1B,black,man,,,,,"{""Q0"":""dave and ruth are flirting with each other""}","<img src=""stim_listB/flirt4.gif""style=""height:400px;""></stim_listB>",are flirting with each other,
null,"<div style=""font-size:60px;"">+</div>",,html-keyboard-response,180,1140888,0.0-15.0-0.13,70009,List1B,black,man,,,,null,,,,
null,"<img src=""stim_listB/shout5.gif""style=""height:400px;""></stim_listB>",,html-keyboard-response,181,1142918,0.0-15.0-1.13,70009,List1B,black,man,,,,null,,,,
null,is shouting at,,html-keyboard-response,182,1144937,0.0-15.0-2.13,70009,List1B,black,man,,,,null,,,,
10233,,,survey-text,183,1155180,0.0-15.0-3.13,70009,List1B,black,man,,,,,"{""Q0"":""luke is shouting at fred""}","<img src=""stim_listB/shout5.gif""style=""height:400px;""></stim_listB>",is shouting at,
null,"<div style=""font-size:60px;"">+</div>",,html-keyboard-response,184,1155689,0.0-15.0-0.14,70009,List1B,black,man,,,,null,,,,
null,"<img src=""stim_listB/play1.gif""style=""height:400px;""></stim_listB>",,html-keyboard-response,185,1157715,0.0-15.0-1.14,70009,List1B,black,man,,,,null,,,,
null,is playing with,,html-keyboard-response,186,1159731,0.0-15.0-2.14,70009,List1B,black,man,,,,null,,,,
12435,,,survey-text,187,1172174,0.0-15.0-3.14,70009,List1B,black,man,,,,,"{""Q0"":""mike is playing with kate""}","<img src=""stim_listB/play1.gif""style=""height:400px;""></stim_listB>",is playing with,
null,"<div style=""font-size:60px;"">+</div>",,html-keyboard-response,188,1172682,0.0-15.0-0.15,70009,List1B,black,man,,,,null,,,,
null,"<img src=""stim_listB/dance6.gif""style=""height:400px;""></stim_listB>",,html-keyboard-response,189,1174699,0.0-15.0-1.15,70009,List1B,black,man,,,,null,,,,
null,are dancing with each other,,html-keyboard-response,190,1176721,0.0-15.0-2.15,70009,List1B,black,man,,,,null,,,,
18409,,,survey-text,191,1195138,0.0-15.0-3.15,70009,List1B,black,man,,,,,"{""Q0"":""mike and luke are dancing with each other""}","<img src=""stim_listB/dance6.gif""style=""height:400px;""></stim_listB>",are dancing with each other,
null,"<div style=""font-size:60px;"">+</div>",,html-keyboard-response,192,1195648,0.0-15.0-0.16,70009,List1B,black,man,,,,null,,,,
null,"<img src=""stim_listB/talk3.gif""style=""height:400px;""></stim_listB>",,html-keyboard-response,193,1197658,0.0-15.0-1.16,70009,List1B,black,man,,,,null,,,,
null,is talking to,,html-keyboard-response,194,1199668,0.0-15.0-2.16,70009,List1B,black,man,,,,null,,,,
12516,,,survey-text,195,1212192,0.0-15.0-3.16,70009,List1B,black,man,,,,,"{""Q0"":""kate is talking to luke""}","<img src=""stim_listB/talk3.gif""style=""height:400px;""></stim_listB>",is talking to,
null,"<div style=""font-size:60px;"">+</div>",,html-keyboard-response,196,1212700,0.0-15.0-0.17,70009,List1B,black,man,,,,null,,,,
null,"<img src=""stim_listB/talk4.gif""style=""height:400px;""></stim_listB>",,html-keyboard-response,197,1214721,0.0-15.0-1.17,70009,List1B,black,man,,,,null,,,,
null,are talking to each other,,html-keyboard-response,198,1216735,0.0-15.0-2.17,70009,List1B,black,man,,,,null,,,,
20645,,,survey-text,199,1237387,0.0-15.0-3.17,70009,List1B,black,man,,,,,"{""Q0"":""dave and ruth are talking to each other""}","<img src=""stim_listB/talk4.gif""style=""height:400px;""></stim_listB>",are talking to each other,
null,"<div style=""font-size:60px;"">+</div>",,html-keyboard-response,200,1237901,0.0-15.0-0.18,70009,List1B,black,man,,,,null,,,,
null,"<img src=""stim_listB/flirt1.gif""style=""height:400px;""></stim_listB>",,html-keyboard-response,201,1239915,0.0-15.0-1.18,70009,List1B,black,man,,,,null,,,,
null,is flirting with,,html-keyboard-response,202,1241921,0.0-15.0-2.18,70009,List1B,black,man,,,,null,,,,
13524,,,survey-text,203,1255452,0.0-15.0-3.18,70009,List1B,black,man,,,,,"{""Q0"":""fred is flirting with kate""}","<img src=""stim_listB/flirt1.gif""style=""height:400px;""></stim_listB>",is flirting with,
null,"<div style=""font-size:60px;"">+</div>",,html-keyboard-response,204,1255975,0.0-15.0-0.19,70009,List1B,black,man,,,,null,,,,
null,"<img src=""stim_listB/touch3.gif""style=""height:400px;""></stim_listB>",,html-keyboard-response,205,1257992,0.0-15.0-1.19,70009,List1B,black,man,,,,null,,,,
null,is touching,,html-keyboard-response,206,1260013,0.0-15.0-2.19,70009,List1B,black,man,,,,null,,,,
13777,,,survey-text,207,1273799,0.0-15.0-3.19,70009,List1B,black,man,,,,,"{""Q0"":""jane is touching dave""}","<img src=""stim_listB/touch3.gif""style=""height:400px;""></stim_listB>",is touching,
2415,"<img src='img/portrait_matrix_list1.jpg' style='width:900px;height:500px;''></img><p>If you have memorised all the portraits and names and are ready to start, press Continue.</p><p><strong>Please note: Your memory of these faces will be tested 4 times during this experiment.</strong></p>",0,html-button-response,208,1276223,0.0-16.0-0.0,70009,List1B,black,man,,,,,,,,
2103,"<img src=""portrait/BM1.jpg""style=""height:400px;""></img>",4,html-button-response,209,1279358,0.0-16.0-1.0,70009,List1B,black,man,,TRUE,4,,,,,
null,CORRECT,,html-keyboard-response,210,1280881,0.0-16.0-2.0-0.0,70009,List1B,black,man,,,,null,,,,
5320,"<img src=""portrait/BW1.jpg""style=""height:400px;""></img>",0,html-button-response,211,1286217,0.0-16.0-4.0,70009,List1B,black,man,,TRUE,0,,,,,
null,CORRECT,,html-keyboard-response,212,1287736,0.0-16.0-5.0-0.0,70009,List1B,black,man,,,,null,,,,
2209,"<img src=""portrait/WM1.jpg""style=""height:400px;""></img>",6,html-button-response,213,1289960,0.0-16.0-7.0,70009,List1B,black,man,,TRUE,6,,,,,
null,CORRECT,,html-keyboard-response,214,1291493,0.0-16.0-8.0-0.0,70009,List1B,black,man,,,,null,,,,
2184,"<img src=""portrait/WM2.jpg""style=""height:400px;""></img>",7,html-button-response,215,1293691,0.0-16.0-10.0,70009,List1B,black,man,,TRUE,7,,,,,
null,CORRECT,,html-keyboard-response,216,1295225,0.0-16.0-11.0-0.0,70009,List1B,black,man,,,,null,,,,
2065,"<img src=""portrait/WW1.jpg""style=""height:400px;""></img>",1,html-button-response,217,1297304,0.0-16.0-13.0,70009,List1B,black,man,,TRUE,1,,,,,
null,CORRECT,,html-keyboard-response,218,1298821,0.0-16.0-14.0-0.0,70009,List1B,black,man,,,,null,,,,
2145,"<img src=""portrait/BW2.jpg""style=""height:400px;""></img>",2,html-button-response,219,1300973,0.0-16.0-16.0,70009,List1B,black,man,,TRUE,2,,,,,
null,CORRECT,,html-keyboard-response,220,1302487,0.0-16.0-17.0-0.0,70009,List1B,black,man,,,,null,,,,
3205,"<img src=""portrait/BM2.jpg""style=""height:400px;""></img>",5,html-button-response,221,1305709,0.0-16.0-19.0,70009,List1B,black,man,,TRUE,5,,,,,
null,CORRECT,,html-keyboard-response,222,1307245,0.0-16.0-20.0-0.0,70009,List1B,black,man,,,,null,,,,
2559,"<img src=""portrait/WW2.jpg""style=""height:400px;""></img>",3,html-button-response,223,1309820,0.0-16.0-22.0,70009,List1B,black,man,,TRUE,3,,,,,
null,CORRECT,,html-keyboard-response,224,1311334,0.0-16.0-23.0-0.0,70009,List1B,black,man,,,,null,,,,
1886,<p>You got 8 out of 8 right first time. Press Continue.</p>,0,html-button-response,225,1313231,0.0-16.0-25.0,70009,List1B,black,man,,,,,,,,
null,"<div style=""font-size:60px;"">+</div>",,html-keyboard-response,226,1314762,0.0-17.0-0.0,70009,List1B,black,man,,,,null,,,,
null,"<img src=""stim_listB/shout1.gif""style=""height:400px;""></stim_listB>",,html-keyboard-response,227,1316780,0.0-17.0-1.0,70009,List1B,black,man,,,,null,,,,
null,is shouting at,,html-keyboard-response,228,1318794,0.0-17.0-2.0,70009,List1B,black,man,,,,null,,,,
13125,,,survey-text,229,1331928,0.0-17.0-3.0,70009,List1B,black,man,,,,,"{""Q0"":""fred is shouting at beth""}","<img src=""stim_listB/shout1.gif""style=""height:400px;""></stim_listB>",is shouting at,
null,"<div style=""font-size:60px;"">+</div>",,html-keyboard-response,230,1332439,0.0-17.0-0.1,70009,List1B,black,man,,,,null,,,,
null,"<img src=""stim_listB/fight3.gif""style=""height:400px;""></stim_listB>",,html-keyboard-response,231,1334450,0.0-17.0-1.1,70009,List1B,black,man,,,,null,,,,
null,is fighting,,html-keyboard-response,232,1336471,0.0-17.0-2.1,70009,List1B,black,man,,,,null,,,,
12821,,,survey-text,233,1349302,0.0-17.0-3.1,70009,List1B,black,man,,,,,"{""Q0"":""dave is fighting with jane""}","<img src=""stim_listB/fight3.gif""style=""height:400px;""></stim_listB>",is fighting,
null,"<div style=""font-size:60px;"">+</div>",,html-keyboard-response,234,1349818,0.0-17.0-0.2,70009,List1B,black,man,,,,null,,,,
null,"<img src=""stim_listB/kiss7.gif""style=""height:400px;""></stim_listB>",,html-keyboard-response,235,1351828,0.0-17.0-1.2,70009,List1B,black,man,,,,null,,,,
null,is kissing,,html-keyboard-response,236,1353847,0.0-17.0-2.2,70009,List1B,black,man,,,,null,,,,
10703,,,survey-text,237,1364557,0.0-17.0-3.2,70009,List1B,black,man,,,,,"{""Q0"":""ruth is kissing beth""}","<img src=""stim_listB/kiss7.gif""style=""height:400px;""></stim_listB>",is kissing,
null,"<div style=""font-size:60px;"">+</div>",,html-keyboard-response,238,1365076,0.0-17.0-0.3,70009,List1B,black,man,,,,null,,,,
null,"<img src=""stim_listB/touch7.gif""style=""height:400px;""></stim_listB>",,html-keyboard-response,239,1367086,0.0-17.0-1.3,70009,List1B,black,man,,,,null,,,,
null,is touching,,html-keyboard-response,240,1369093,0.0-17.0-2.3,70009,List1B,black,man,,,,null,,,,
11694,,,survey-text,241,1380796,0.0-17.0-3.3,70009,List1B,black,man,,,,,"{""Q0"":""jane is touching kate""}","<img src=""stim_listB/touch7.gif""style=""height:400px;""></stim_listB>",is touching,
null,"<div style=""font-size:60px;"">+</div>",,html-keyboard-response,242,1381305,0.0-17.0-0.4,70009,List1B,black,man,,,,null,,,,
null,"<img src=""stim_listB/kiss8.gif""style=""height:400px;""></stim_listB>",,html-keyboard-response,243,1383315,0.0-17.0-1.4,70009,List1B,black,man,,,,null,,,,
null,are kissing each other,,html-keyboard-response,244,1385329,0.0-17.0-2.4,70009,List1B,black,man,,,,null,,,,
21580,,,survey-text,245,1406914,0.0-17.0-3.4,70009,List1B,black,man,,,,,"{""Q0"":""kate and jane are kissing each other""}","<img src=""stim_listB/kiss8.gif""style=""height:400px;""></stim_listB>",are kissing each other,
null,"<div style=""font-size:60px;"">+</div>",,html-keyboard-response,246,1407419,0.0-17.0-0.5,70009,List1B,black,man,,,,null,,,,
null,"<img src=""stim_listB/play3.gif""style=""height:400px;""></stim_listB>",,html-keyboard-response,247,1409441,0.0-17.0-1.5,70009,List1B,black,man,,,,null,,,,
null,is playing with,,html-keyboard-response,248,1411448,0.0-17.0-2.5,70009,List1B,black,man,,,,null,,,,
17882,,,survey-text,249,1429337,0.0-17.0-3.5,70009,List1B,black,man,,,,,"{""Q0"":""dave is playing with jane ""}","<img src=""stim_listB/play3.gif""style=""height:400px;""></stim_listB>",is playing with,
null,"<div style=""font-size:60px;"">+</div>",,html-keyboard-response,250,1429847,0.0-17.0-0.6,70009,List1B,black,man,,,,null,,,,
null,"<img src=""stim_listB/play5.gif""style=""height:400px;""></stim_listB>",,html-keyboard-response,251,1431861,0.0-17.0-1.6,70009,List1B,black,man,,,,null,,,,
null,is playing with,,html-keyboard-response,252,1433877,0.0-17.0-2.6,70009,List1B,black,man,,,,null,,,,
12974,,,survey-text,253,1446857,0.0-17.0-3.6,70009,List1B,black,man,,,,,"{""Q0"":""dave is playing with mike""}","<img src=""stim_listB/play5.gif""style=""height:400px;""></stim_listB>",is playing with,
null,"<div style=""font-size:60px;"">+</div>",,html-keyboard-response,254,1447371,0.0-17.0-0.7,70009,List1B,black,man,,,,null,,,,
null,"<img src=""stim_listB/fight8.gif""style=""height:400px;""></stim_listB>",,html-keyboard-response,255,1449389,0.0-17.0-1.7,70009,List1B,black,man,,,,null,,,,
null,are fighting each other,,html-keyboard-response,256,1451405,0.0-17.0-2.7,70009,List1B,black,man,,,,null,,,,
17460,,,survey-text,257,1468874,0.0-17.0-3.7,70009,List1B,black,man,,,,,"{""Q0"":""beth and ruth are fighting each other""}","<img src=""stim_listB/fight8.gif""style=""height:400px;""></stim_listB>",are fighting each other,
null,"<div style=""font-size:60px;"">+</div>",,html-keyboard-response,258,1469384,0.0-17.0-0.8,70009,List1B,black,man,,,,null,,,,
null,"<img src=""stim_listB/dance7.gif""style=""height:400px;""></stim_listB>",,html-keyboard-response,259,1471395,0.0-17.0-1.8,70009,List1B,black,man,,,,null,,,,
null,is dancing with,,html-keyboard-response,260,1473412,0.0-17.0-2.8,70009,List1B,black,man,,,,null,,,,
12979,,,survey-text,261,1486397,0.0-17.0-3.8,70009,List1B,black,man,,,,,"{""Q0"":""jane is dancing with beth""}","<img src=""stim_listB/dance7.gif""style=""height:400px;""></stim_listB>",is dancing with,
null,"<div style=""font-size:60px;"">+</div>",,html-keyboard-response,262,1486904,0.0-17.0-0.9,70009,List1B,black,man,,,,null,,,,
null,"<img src=""stim_listB/marry7.gif""style=""height:400px;""></stim_listB>",,html-keyboard-response,263,1488923,0.0-17.0-1.9,70009,List1B,black,man,,,,null,,,,
null,is marrying,,html-keyboard-response,264,1490937,0.0-17.0-2.9,70009,List1B,black,man,,,,null,,,,
10584,,,survey-text,265,1501532,0.0-17.0-3.9,70009,List1B,black,man,,,,,"{""Q0"":""kate is marrying ruth""}","<img src=""stim_listB/marry7.gif""style=""height:400px;""></stim_listB>",is marrying,
null,"<div style=""font-size:60px;"">+</div>",,html-keyboard-response,266,1502055,0.0-17.0-0.10,70009,List1B,black,man,,,,null,,,,
null,"<img src=""stim_listB/shout8.gif""style=""height:400px;""></stim_listB>",,html-keyboard-response,267,1504067,0.0-17.0-1.10,70009,List1B,black,man,,,,null,,,,
null,are shouting at each other,,html-keyboard-response,268,1506074,0.0-17.0-2.10,70009,List1B,black,man,,,,null,,,,
54526,,,survey-text,269,1560610,0.0-17.0-3.10,70009,List1B,black,man,,,,,"{""Q0"":""ruth and beth are shouting at each other""}","<img src=""stim_listB/shout8.gif""style=""height:400px;""></stim_listB>",are shouting at each other,
null,"<div style=""font-size:60px;"">+</div>",,html-keyboard-response,270,1561125,0.0-17.0-0.11,70009,List1B,black,man,,,,null,,,,
null,"<img src=""stim_listB/marry6.gif""style=""height:400px;""></stim_listB>",,html-keyboard-response,271,1563134,0.0-17.0-1.11,70009,List1B,black,man,,,,null,,,,
null,are marrying each other,,html-keyboard-response,272,1565148,0.0-17.0-2.11,70009,List1B,black,man,,,,null,,,,
14478,,,survey-text,273,1579633,0.0-17.0-3.11,70009,List1B,black,man,,,,,"{""Q0"":""dave and fred are marrying each other""}","<img src=""stim_listB/marry6.gif""style=""height:400px;""></stim_listB>",are marrying each other,
null,"<div style=""font-size:60px;"">+</div>",,html-keyboard-response,274,1580146,0.0-17.0-0.12,70009,List1B,black,man,,,,null,,,,
null,"<img src=""stim_listB/argue6.gif""style=""height:400px;""></stim_listB>",,html-keyboard-response,275,1582156,0.0-17.0-1.12,70009,List1B,black,man,,,,null,,,,
null,are arguing with each other,,html-keyboard-response,276,1584176,0.0-17.0-2.12,70009,List1B,black,man,,,,null,,,,
23122,,,survey-text,277,1607308,0.0-17.0-3.12,70009,List1B,black,man,,,,,"{""Q0"":""mike and ruth are shouting at each other""}","<img src=""stim_listB/argue6.gif""style=""height:400px;""></stim_listB>",are arguing with each other,
null,"<div style=""font-size:60px;"">+</div>",,html-keyboard-response,278,1607817,0.0-17.0-0.13,70009,List1B,black,man,,,,null,,,,
null,"<img src=""stim_listB/marry5.gif""style=""height:400px;""></stim_listB>",,html-keyboard-response,279,1609828,0.0-17.0-1.13,70009,List1B,black,man,,,,null,,,,
null,is marrying,,html-keyboard-response,280,1611836,0.0-17.0-2.13,70009,List1B,black,man,,,,null,,,,
8962,,,survey-text,281,1620810,0.0-17.0-3.13,70009,List1B,black,man,,,,,"{""Q0"":""mike is marrying luke""}","<img src=""stim_listB/marry5.gif""style=""height:400px;""></stim_listB>",is marrying,
null,"<div style=""font-size:60px;"">+</div>",,html-keyboard-response,282,1621328,0.0-17.0-0.14,70009,List1B,black,man,,,,null,,,,
null,"<img src=""stim_listB/kiss2.gif""style=""height:400px;""></stim_listB>",,html-keyboard-response,283,1623335,0.0-17.0-1.14,70009,List1B,black,man,,,,null,,,,
null,are kissing each other,,html-keyboard-response,284,1625345,0.0-17.0-2.14,70009,List1B,black,man,,,,null,,,,
13648,,,survey-text,285,1639000,0.0-17.0-3.14,70009,List1B,black,man,,,,,"{""Q0"":""mike and kate are kissing each other""}","<img src=""stim_listB/kiss2.gif""style=""height:400px;""></stim_listB>",are kissing each other,
null,"<div style=""font-size:60px;"">+</div>",,html-keyboard-response,286,1639516,0.0-17.0-0.15,70009,List1B,black,man,,,,null,,,,
null,"<img src=""stim_listB/argue4.gif""style=""height:400px;""></stim_listB>",,html-keyboard-response,287,1641536,0.0-17.0-1.15,70009,List1B,black,man,,,,null,,,,
null,are arguing with each other,,html-keyboard-response,288,1643555,0.0-17.0-2.15,70009,List1B,black,man,,,,null,,,,
26564,,,survey-text,289,1670126,0.0-17.0-3.15,70009,List1B,black,man,,,,,"{""Q0"":""luke and jane are arguing with each other""}","<img src=""stim_listB/argue4.gif""style=""height:400px;""></stim_listB>",are arguing with each other,
null,"<div style=""font-size:60px;"">+</div>",,html-keyboard-response,290,1670634,0.0-17.0-0.16,70009,List1B,black,man,,,,null,,,,
null,"<img src=""stim_listB/touch6.gif""style=""height:400px;""></stim_listB>",,html-keyboard-response,291,1672653,0.0-17.0-1.16,70009,List1B,black,man,,,,null,,,,
null,are touching each other,,html-keyboard-response,292,1674667,0.0-17.0-2.16,70009,List1B,black,man,,,,null,,,,
16476,,,survey-text,293,1691151,0.0-17.0-3.16,70009,List1B,black,man,,,,,"{""Q0"":""fred and luke are touching each other""}","<img src=""stim_listB/touch6.gif""style=""height:400px;""></stim_listB>",are touching each other,
null,"<div style=""font-size:60px;"">+</div>",,html-keyboard-response,294,1691677,0.0-17.0-0.17,70009,List1B,black,man,,,,null,,,,
null,"<img src=""stim_listB/marry4.gif""style=""height:400px;""></stim_listB>",,html-keyboard-response,295,1693687,0.0-17.0-1.17,70009,List1B,black,man,,,,null,,,,
null,are marrying each other,,html-keyboard-response,296,1695699,0.0-17.0-2.17,70009,List1B,black,man,,,,null,,,,
18124,,,survey-text,297,1713831,0.0-17.0-3.17,70009,List1B,black,man,,,,,"{""Q0"":""luke and jane are marrying each other""}","<img src=""stim_listB/marry4.gif""style=""height:400px;""></stim_listB>",are marrying each other,
null,"<div style=""font-size:60px;"">+</div>",,html-keyboard-response,298,1714342,0.0-17.0-0.18,70009,List1B,black,man,,,,null,,,,
null,"<img src=""stim_listB/talk8.gif""style=""height:400px;""></stim_listB>",,html-keyboard-response,299,1716358,0.0-17.0-1.18,70009,List1B,black,man,,,,null,,,,
null,are talking to each other,,html-keyboard-response,300,1718376,0.0-17.0-2.18,70009,List1B,black,man,,,,null,,,,
15457,,,survey-text,301,1733842,0.0-17.0-3.18,70009,List1B,black,man,,,,,"{""Q0"":""kate and ruth are talking with each other""}","<img src=""stim_listB/talk8.gif""style=""height:400px;""></stim_listB>",are talking to each other,
null,"<div style=""font-size:60px;"">+</div>",,html-keyboard-response,302,1734353,0.0-17.0-0.19,70009,List1B,black,man,,,,null,,,,
null,"<img src=""stim_listB/dance5.gif""style=""height:400px;""></stim_listB>",,html-keyboard-response,303,1736362,0.0-17.0-1.19,70009,List1B,black,man,,,,null,,,,
null,is dancing with,,html-keyboard-response,304,1738377,0.0-17.0-2.19,70009,List1B,black,man,,,,null,,,,
14705,,,survey-text,305,1753092,0.0-17.0-3.19,70009,List1B,black,man,,,,,"{""Q0"":""luke is dancing with mike""}","<img src=""stim_listB/dance5.gif""style=""height:400px;""></stim_listB>",is dancing with,
3415,"<img src='img/portrait_matrix_list1.jpg' style='width:900px;height:500px;''></img><p>If you have memorised all the portraits and names and are ready to start, press Continue.</p><p><strong>Please note: Your memory of these faces will be tested 4 times during this experiment.</strong></p>",0,html-button-response,306,1756516,0.0-18.0-0.0,70009,List1B,black,man,,,,,,,,
2459,"<img src=""portrait/WW1.jpg""style=""height:400px;""></img>",1,html-button-response,307,1759993,0.0-18.0-1.0,70009,List1B,black,man,,TRUE,1,,,,,
null,CORRECT,,html-keyboard-response,308,1761506,0.0-18.0-2.0-0.0,70009,List1B,black,man,,,,null,,,,
2445,"<img src=""portrait/BM1.jpg""style=""height:400px;""></img>",4,html-button-response,309,1763964,0.0-18.0-4.0,70009,List1B,black,man,,TRUE,4,,,,,
null,CORRECT,,html-keyboard-response,310,1765478,0.0-18.0-5.0-0.0,70009,List1B,black,man,,,,null,,,,
2333,"<img src=""portrait/WM1.jpg""style=""height:400px;""></img>",6,html-button-response,311,1767827,0.0-18.0-7.0,70009,List1B,black,man,,TRUE,6,,,,,
null,CORRECT,,html-keyboard-response,312,1769356,0.0-18.0-8.0-0.0,70009,List1B,black,man,,,,null,,,,
2354,"<img src=""portrait/BW2.jpg""style=""height:400px;""></img>",2,html-button-response,313,1771725,0.0-18.0-10.0,70009,List1B,black,man,,TRUE,2,,,,,
null,CORRECT,,html-keyboard-response,314,1773256,0.0-18.0-11.0-0.0,70009,List1B,black,man,,,,null,,,,
2738,"<img src=""portrait/WM2.jpg""style=""height:400px;""></img>",7,html-button-response,315,1776011,0.0-18.0-13.0,70009,List1B,black,man,,TRUE,7,,,,,
null,CORRECT,,html-keyboard-response,316,1777527,0.0-18.0-14.0-0.0,70009,List1B,black,man,,,,null,,,,
2582,"<img src=""portrait/BM2.jpg""style=""height:400px;""></img>",5,html-button-response,317,1780126,0.0-18.0-16.0,70009,List1B,black,man,,TRUE,5,,,,,
null,CORRECT,,html-keyboard-response,318,1781650,0.0-18.0-17.0-0.0,70009,List1B,black,man,,,,null,,,,
3661,"<img src=""portrait/BW1.jpg""style=""height:400px;""></img>",0,html-button-response,319,1785326,0.0-18.0-19.0,70009,List1B,black,man,,TRUE,0,,,,,
null,CORRECT,,html-keyboard-response,320,1786845,0.0-18.0-20.0-0.0,70009,List1B,black,man,,,,null,,,,
2464,"<img src=""portrait/WW2.jpg""style=""height:400px;""></img>",3,html-button-response,321,1789325,0.0-18.0-22.0,70009,List1B,black,man,,TRUE,3,,,,,
null,CORRECT,,html-keyboard-response,322,1790850,0.0-18.0-23.0-0.0,70009,List1B,black,man,,,,null,,,,
2139,<p>You got 8 out of 8 right first time. Press Continue.</p>,0,html-button-response,323,1793000,0.0-18.0-25.0,70009,List1B,black,man,,,,,,,,
null,"<div style=""font-size:60px;"">+</div>",,html-keyboard-response,324,1794537,0.0-19.0-0.0,70009,List1B,black,man,,,,null,,,,
null,"<img src=""stim_listB/argue5.gif""style=""height:400px;""></stim_listB>",,html-keyboard-response,325,1796549,0.0-19.0-1.0,70009,List1B,black,man,,,,null,,,,
null,is arguing with,,html-keyboard-response,326,1798559,0.0-19.0-2.0,70009,List1B,black,man,,,,null,,,,
14779,,,survey-text,327,1813342,0.0-19.0-3.0,70009,List1B,black,man,,,,,"{""Q0"":""luke is arguing with dave""}","<img src=""stim_listB/argue5.gif""style=""height:400px;""></stim_listB>",is arguing with,
null,"<div style=""font-size:60px;"">+</div>",,html-keyboard-response,328,1813854,0.0-19.0-0.1,70009,List1B,black,man,,,,null,,,,
null,"<img src=""stim_listB/shout4.gif""style=""height:400px;""></stim_listB>",,html-keyboard-response,329,1815864,0.0-19.0-1.1,70009,List1B,black,man,,,,null,,,,
null,are shouting at each other,,html-keyboard-response,330,1817875,0.0-19.0-2.1,70009,List1B,black,man,,,,null,,,,
18796,,,survey-text,331,1836677,0.0-19.0-3.1,70009,List1B,black,man,,,,,"{""Q0"":""dave and jane are shouting at each other""}","<img src=""stim_listB/shout4.gif""style=""height:400px;""></stim_listB>",are shouting at each other,
null,"<div style=""font-size:60px;"">+</div>",,html-keyboard-response,332,1837185,0.0-19.0-0.2,70009,List1B,black,man,,,,null,,,,
null,"<img src=""stim_listB/talk7.gif""style=""height:400px;""></stim_listB>",,html-keyboard-response,333,1839202,0.0-19.0-1.2,70009,List1B,black,man,,,,null,,,,
null,is talking to,,html-keyboard-response,334,1841226,0.0-19.0-2.2,70009,List1B,black,man,,,,null,,,,
9054,,,survey-text,335,1850291,0.0-19.0-3.2,70009,List1B,black,man,,,,,"{""Q0"":""beth is talking jane""}","<img src=""stim_listB/talk7.gif""style=""height:400px;""></stim_listB>",is talking to,
null,"<div style=""font-size:60px;"">+</div>",,html-keyboard-response,336,1850797,0.0-19.0-0.3,70009,List1B,black,man,,,,null,,,,
null,"<img src=""stim_listB/fight6.gif""style=""height:400px;""></stim_listB>",,html-keyboard-response,337,1852813,0.0-19.0-1.3,70009,List1B,black,man,,,,null,,,,
null,are fighting each other,,html-keyboard-response,338,1854831,0.0-19.0-2.3,70009,List1B,black,man,,,,null,,,,
16632,,,survey-text,339,1871474,0.0-19.0-3.3,70009,List1B,black,man,,,,,"{""Q0"":""fred and luke are fighting each other""}","<img src=""stim_listB/fight6.gif""style=""height:400px;""></stim_listB>",are fighting each other,
null,"<div style=""font-size:60px;"">+</div>",,html-keyboard-response,340,1871982,0.0-19.0-0.4,70009,List1B,black,man,,,,null,,,,
null,"<img src=""stim_listB/talk2.gif""style=""height:400px;""></stim_listB>",,html-keyboard-response,341,1874006,0.0-19.0-1.4,70009,List1B,black,man,,,,null,,,,
null,are talking to each other,,html-keyboard-response,342,1876020,0.0-19.0-2.4,70009,List1B,black,man,,,,null,,,,
28735,,,survey-text,343,1904763,0.0-19.0-3.4,70009,List1B,black,man,,,,,"{""Q0"":""beth and jane are talking to each other""}","<img src=""stim_listB/talk2.gif""style=""height:400px;""></stim_listB>",are talking to each other,
null,"<div style=""font-size:60px;"">+</div>",,html-keyboard-response,344,1905276,0.0-19.0-0.5,70009,List1B,black,man,,,,null,,,,
null,"<img src=""stim_listB/fight4.gif""style=""height:400px;""></stim_listB>",,html-keyboard-response,345,1907285,0.0-19.0-1.5,70009,List1B,black,man,,,,null,,,,
null,are fighting each other,,html-keyboard-response,346,1909291,0.0-19.0-2.5,70009,List1B,black,man,,,,null,,,,
15532,,,survey-text,347,1924830,0.0-19.0-3.5,70009,List1B,black,man,,,,,"{""Q0"":""luke and ruth are fighting each other""}","<img src=""stim_listB/fight4.gif""style=""height:400px;""></stim_listB>",are fighting each other,
null,"<div style=""font-size:60px;"">+</div>",,html-keyboard-response,348,1925339,0.0-19.0-0.6,70009,List1B,black,man,,,,null,,,,
null,"<img src=""stim_listB/play8.gif""style=""height:400px;""></stim_listB>",,html-keyboard-response,349,1927349,0.0-19.0-1.6,70009,List1B,black,man,,,,null,,,,
null,are playing with each other,,html-keyboard-response,350,1929363,0.0-19.0-2.6,70009,List1B,black,man,,,,null,,,,
14832,,,survey-text,351,1944205,0.0-19.0-3.6,70009,List1B,black,man,,,,,"{""Q0"":""ruth and beth are playing with each other""}","<img src=""stim_listB/play8.gif""style=""height:400px;""></stim_listB>",are playing with each other,
null,"<div style=""font-size:60px;"">+</div>",,html-keyboard-response,352,1944712,0.0-19.0-0.7,70009,List1B,black,man,,,,null,,,,
null,"<img src=""stim_listB/marry8.gif""style=""height:400px;""></stim_listB>",,html-keyboard-response,353,1946731,0.0-19.0-1.7,70009,List1B,black,man,,,,null,,,,
null,are marrying each other,,html-keyboard-response,354,1948748,0.0-19.0-2.7,70009,List1B,black,man,,,,null,,,,
13661,,,survey-text,355,1962421,0.0-19.0-3.7,70009,List1B,black,man,,,,,"{""Q0"":""jane and beth are marrying each other""}","<img src=""stim_listB/marry8.gif""style=""height:400px;""></stim_listB>",are marrying each other,
null,"<div style=""font-size:60px;"">+</div>",,html-keyboard-response,356,1962930,0.0-19.0-0.8,70009,List1B,black,man,,,,null,,,,
null,"<img src=""stim_listB/argue8.gif""style=""height:400px;""></stim_listB>",,html-keyboard-response,357,1964940,0.0-19.0-1.8,70009,List1B,black,man,,,,null,,,,
null,are arguing with each other,,html-keyboard-response,358,1966961,0.0-19.0-2.8,70009,List1B,black,man,,,,null,,,,
14647,,,survey-text,359,1981615,0.0-19.0-3.8,70009,List1B,black,man,,,,,"{""Q0"":""beth and jane are arguing with each other""}","<img src=""stim_listB/argue8.gif""style=""height:400px;""></stim_listB>",are arguing with each other,
null,"<div style=""font-size:60px;"">+</div>",,html-keyboard-response,360,1982140,0.0-19.0-0.9,70009,List1B,black,man,,,,null,,,,
null,"<img src=""stim_listB/marry2.gif""style=""height:400px;""></stim_listB>",,html-keyboard-response,361,1984150,0.0-19.0-1.9,70009,List1B,black,man,,,,null,,,,
null,are marrying each other,,html-keyboard-response,362,1986172,0.0-19.0-2.9,70009,List1B,black,man,,,,null,,,,
18322,,,survey-text,363,2004501,0.0-19.0-3.9,70009,List1B,black,man,,,,,"{""Q0"":""fred and kate are marrying each other""}","<img src=""stim_listB/marry2.gif""style=""height:400px;""></stim_listB>",are marrying each other,
null,"<div style=""font-size:60px;"">+</div>",,html-keyboard-response,364,2005021,0.0-19.0-0.10,70009,List1B,black,man,,,,null,,,,
null,"<img src=""stim_listB/kiss3.gif""style=""height:400px;""></stim_listB>",,html-keyboard-response,365,2007034,0.0-19.0-1.10,70009,List1B,black,man,,,,null,,,,
null,is kissing,,html-keyboard-response,366,2009042,0.0-19.0-2.10,70009,List1B,black,man,,,,null,,,,
12787,,,survey-text,367,2021836,0.0-19.0-3.10,70009,List1B,black,man,,,,,"{""Q0"":""luke is kissing ruth""}","<img src=""stim_listB/kiss3.gif""style=""height:400px;""></stim_listB>",is kissing,
null,"<div style=""font-size:60px;"">+</div>",,html-keyboard-response,368,2022344,0.0-19.0-0.11,70009,List1B,black,man,,,,null,,,,
null,"<img src=""stim_listB/talk1.gif""style=""height:400px;""></stim_listB>",,html-keyboard-response,369,2024355,0.0-19.0-1.11,70009,List1B,black,man,,,,null,,,,
null,is talking to,,html-keyboard-response,370,2026366,0.0-19.0-2.11,70009,List1B,black,man,,,,null,,,,
10524,,,survey-text,371,2036900,0.0-19.0-3.11,70009,List1B,black,man,,,,,"{""Q0"":""kate is talking to fred""}","<img src=""stim_listB/talk1.gif""style=""height:400px;""></stim_listB>",is talking to,
null,"<div style=""font-size:60px;"">+</div>",,html-keyboard-response,372,2037407,0.0-19.0-0.12,70009,List1B,black,man,,,,null,,,,
null,"<img src=""stim_listB/dance2.gif""style=""height:400px;""></stim_listB>",,html-keyboard-response,373,2039410,0.0-19.0-1.12,70009,List1B,black,man,,,,null,,,,
null,are dancing with each other,,html-keyboard-response,374,2041431,0.0-19.0-2.12,70009,List1B,black,man,,,,null,,,,
16008,,,survey-text,375,2057449,0.0-19.0-3.12,70009,List1B,black,man,,,,,"{""Q0"":""beth and mike are dancing with each other""}","<img src=""stim_listB/dance2.gif""style=""height:400px;""></stim_listB>",are dancing with each other,
null,"<div style=""font-size:60px;"">+</div>",,html-keyboard-response,376,2057961,0.0-19.0-0.13,70009,List1B,black,man,,,,null,,,,
null,"<img src=""stim_listB/shout3.gif""style=""height:400px;""></stim_listB>",,html-keyboard-response,377,2059977,0.0-19.0-1.13,70009,List1B,black,man,,,,null,,,,
null,is shouting at,,html-keyboard-response,378,2061998,0.0-19.0-2.13,70009,List1B,black,man,,,,null,,,,
11810,,,survey-text,379,2073819,0.0-19.0-3.13,70009,List1B,black,man,,,,,"{""Q0"":""luke is shouting at ruth""}","<img src=""stim_listB/shout3.gif""style=""height:400px;""></stim_listB>",is shouting at,
null,"<div style=""font-size:60px;"">+</div>",,html-keyboard-response,380,2074332,0.0-19.0-0.14,70009,List1B,black,man,,,,null,,,,
null,"<img src=""stim_listB/touch2.gif""style=""height:400px;""></stim_listB>",,html-keyboard-response,381,2076347,0.0-19.0-1.14,70009,List1B,black,man,,,,null,,,,
null,are touching each other,,html-keyboard-response,382,2078357,0.0-19.0-2.14,70009,List1B,black,man,,,,null,,,,
16214,,,survey-text,383,2094578,0.0-19.0-3.14,70009,List1B,black,man,,,,,"{""Q0"":""fred and beth are touching each other""}","<img src=""stim_listB/touch2.gif""style=""height:400px;""></stim_listB>",are touching each other,
null,"<div style=""font-size:60px;"">+</div>",,html-keyboard-response,384,2095089,0.0-19.0-0.15,70009,List1B,black,man,,,,null,,,,
null,"<img src=""stim_listB/flirt6.gif""style=""height:400px;""></stim_listB>",,html-keyboard-response,385,2097100,0.0-19.0-1.15,70009,List1B,black,man,,,,null,,,,
null,are flirting with each other,,html-keyboard-response,386,2099124,0.0-19.0-2.15,70009,List1B,black,man,,,,null,,,,
17082,,,survey-text,387,2116215,0.0-19.0-3.15,70009,List1B,black,man,,,,,"{""Q0"":""mike and luke are flirting with each other""}","<img src=""stim_listB/flirt6.gif""style=""height:400px;""></stim_listB>",are flirting with each other,
null,"<div style=""font-size:60px;"">+</div>",,html-keyboard-response,388,2116724,0.0-19.0-0.16,70009,List1B,black,man,,,,null,,,,
null,"<img src=""stim_listB/marry3.gif""style=""height:400px;""></stim_listB>",,html-keyboard-response,389,2118736,0.0-19.0-1.16,70009,List1B,black,man,,,,null,,,,
null,is marrying,,html-keyboard-response,390,2120742,0.0-19.0-2.16,70009,List1B,black,man,,,,null,,,,
9117,,,survey-text,391,2129864,0.0-19.0-3.16,70009,List1B,black,man,,,,,"{""Q0"":""ruth is marrying dave""}","<img src=""stim_listB/marry3.gif""style=""height:400px;""></stim_listB>",is marrying,
null,"<div style=""font-size:60px;"">+</div>",,html-keyboard-response,392,2130374,0.0-19.0-0.17,70009,List1B,black,man,,,,null,,,,
null,"<img src=""stim_listB/play7.gif""style=""height:400px;""></stim_listB>",,html-keyboard-response,393,2132392,0.0-19.0-1.17,70009,List1B,black,man,,,,null,,,,
null,is playing with,,html-keyboard-response,394,2134410,0.0-19.0-2.17,70009,List1B,black,man,,,,null,,,,
14367,,,survey-text,395,2148789,0.0-19.0-3.17,70009,List1B,black,man,,,,,"{""Q0"":""kate is playing with jane""}","<img src=""stim_listB/play7.gif""style=""height:400px;""></stim_listB>",is playing with,
null,"<div style=""font-size:60px;"">+</div>",,html-keyboard-response,396,2149299,0.0-19.0-0.18,70009,List1B,black,man,,,,null,,,,
null,"<img src=""stim_listB/shout7.gif""style=""height:400px;""></stim_listB>",,html-keyboard-response,397,2151313,0.0-19.0-1.18,70009,List1B,black,man,,,,null,,,,
null,is shouting at,,html-keyboard-response,398,2153340,0.0-19.0-2.18,70009,List1B,black,man,,,,null,,,,
10891,,,survey-text,399,2164240,0.0-19.0-3.18,70009,List1B,black,man,,,,,"{""Q0"":""beth is shouting at ruth""}","<img src=""stim_listB/shout7.gif""style=""height:400px;""></stim_listB>",is shouting at,
null,"<div style=""font-size:60px;"">+</div>",,html-keyboard-response,400,2164763,0.0-19.0-0.19,70009,List1B,black,man,,,,null,,,,
null,"<img src=""stim_listB/kiss4.gif""style=""height:400px;""></stim_listB>",,html-keyboard-response,401,2166773,0.0-19.0-1.19,70009,List1B,black,man,,,,null,,,,
null,are kissing each other,,html-keyboard-response,402,2168781,0.0-19.0-2.19,70009,List1B,black,man,,,,null,,,,
13157,,,survey-text,403,2181948,0.0-19.0-3.19,70009,List1B,black,man,,,,,"{""Q0"":""dave and jane are kissing each other""}","<img src=""stim_listB/kiss4.gif""style=""height:400px;""></stim_listB>",are kissing each other,
2340,<p>Thank you for completing that task.</p><p>The final part of this session is a short questionnaire.</p><p>Press Continue.</p>,0,html-button-response,404,2184305,0.0-20.0,70009,List1B,black,man,,,,,,,,
37499,,,survey-text,405,2222822,0.0-21.0,70009,List1B,black,man,,,,,"{""Q0"":""59"",""Q1"":""Yoruba"",""Q2"":""English"",""Q3"":""Ireland"",""Q4"":""Black"",""Q5"":""Male""}",,,demographics
7771,,,survey-likert,406,2230621,0.0-22.0,70009,List1B,black,man,,,,,"{""Q0"":3}",,,likert_ESS
14624,,,survey-likert,407,2245268,0.0-23.0,70009,List1B,black,man,,,,,"{""Q0"":2}",,,likert_NSSAL_Q1
5938,,,survey-likert,408,2251219,0.0-24.0,70009,List1B,black,man,,,,,"{""Q0"":2}",,,likert_NSSAL_Q2
7071,,,survey-likert,409,2258310,0.0-25.0,70009,List1B,black,man,,,,,"{""Q0"":4}",,,likert_CGRS_Q1
5110,,,survey-likert,410,2263439,0.0-26.0,70009,List1B,black,man,,,,,"{""Q0"":4}",,,likert_CGRS_Q2
4678,,,survey-likert,411,2268132,0.0-27.0,70009,List1B,black,man,,,,,"{""Q0"":4}",,,likert_CGRS_Q3
7662,,,survey-text,412,2275805,0.0-28.0,70009,List1B,black,man,,,,,"{""Q0"":""ccc""}",,,worker_id
31146,,,external-html,413,2307074,0.0-29.0,70009,List1B,black,man,debrief.html,,,,,,,
