rt,stimulus,button_pressed,trial_type,trial_index,time_elapsed,internal_node_id,subject,list,ppt_race,ppt_gender,url,first_guess,correct,key_press,responses,image_type,phrase_type,test_part
2764,Welcome to the experiment. Press Continue to begin.,0,html-button-response,0,2772,0.0-0.0,70048,List2A,black,man,,,,,,,,
99903,,,external-html,1,103950,0.0-1.0,70048,List2A,black,man,consent.html,,,,,,,
37315,"<p>On the next page, you will see portraits of 8 people and their names.</p><p>Your first task is to take a few minutes to memorise the names of these people.</p><p>You will have to recall their names during the rest of the experiment, so it is</p><p>essential that you try to memorise these people and their names as best as you can.</p><br><p><strong>You will then be tested on your memory of these names and portraits.</strong></p><br><p>The experiment will start after you have completed this memory test.</p><br><p>Ready?</p>",0,html-button-response,2,141273,0.0-2.0,70048,List2A,black,man,,,,,,,,
30775,"<img src='img/portrait_matrix_list2.jpg' style='width:900px;height:500px;''></img><p>If you have memorised all the portraits and names and are ready to start, press Continue.</p><p><strong>Please note: Your memory of these faces will be tested 4 times during this experiment.</strong></p>",0,html-button-response,3,173062,0.0-3.0-0.0,70048,List2A,black,man,,,,,,,,
9611,"<img src=""portrait/WW2.jpg""style=""height:400px;""></img>",3,html-button-response,4,183682,0.0-3.0-1.0,70048,List2A,black,man,,TRUE,3,,,,,
null,CORRECT,,html-keyboard-response,5,185190,0.0-3.0-2.0-0.0,70048,List2A,black,man,,,,null,,,,
2853,"<img src=""portrait/WW1.jpg""style=""height:400px;""></img>",1,html-button-response,6,188047,0.0-3.0-4.0,70048,List2A,black,man,,TRUE,1,,,,,
null,CORRECT,,html-keyboard-response,7,189564,0.0-3.0-5.0-0.0,70048,List2A,black,man,,,,null,,,,
5432,"<img src=""portrait/WM1.jpg""style=""height:400px;""></img>",6,html-button-response,8,194999,0.0-3.0-7.0,70048,List2A,black,man,,TRUE,6,,,,,
null,CORRECT,,html-keyboard-response,9,196501,0.0-3.0-8.0-0.0,70048,List2A,black,man,,,,null,,,,
3519,"<img src=""portrait/WM2.jpg""style=""height:400px;""></img>",7,html-button-response,10,200023,0.0-3.0-10.0,70048,List2A,black,man,,TRUE,7,,,,,
null,CORRECT,,html-keyboard-response,11,201539,0.0-3.0-11.0-0.0,70048,List2A,black,man,,,,null,,,,
2832,"<img src=""portrait/BM2.jpg""style=""height:400px;""></img>",5,html-button-response,12,204375,0.0-3.0-13.0,70048,List2A,black,man,,TRUE,5,,,,,
null,CORRECT,,html-keyboard-response,13,205900,0.0-3.0-14.0-0.0,70048,List2A,black,man,,,,null,,,,
2191,"<img src=""portrait/BM1.jpg""style=""height:400px;""></img>",4,html-button-response,14,208095,0.0-3.0-16.0,70048,List2A,black,man,,TRUE,4,,,,,
null,CORRECT,,html-keyboard-response,15,209599,0.0-3.0-17.0-0.0,70048,List2A,black,man,,,,null,,,,
2388,"<img src=""portrait/BW1.jpg""style=""height:400px;""></img>",2,html-button-response,16,211990,0.0-3.0-19.0,70048,List2A,black,man,,TRUE,0,,,,,
7043,"<img src=""portrait/BW1.jpg""style=""height:400px;""></img>",0,html-button-response,17,220038,0.0-3.0-21.0-0.0,70048,List2A,black,man,,FALSE,0,,,,,
null,CORRECT,,html-keyboard-response,18,221549,0.0-3.0-21.0-1.0-0.0,70048,List2A,black,man,,,,null,,,,
2918,"<img src=""portrait/BW2.jpg""style=""height:400px;""></img>",2,html-button-response,19,224470,0.0-3.0-22.0,70048,List2A,black,man,,TRUE,2,,,,,
null,CORRECT,,html-keyboard-response,20,225992,0.0-3.0-23.0-0.0,70048,List2A,black,man,,,,null,,,,
2650,<p>You got 7 out of 8 right first time. Press Continue.</p>,0,html-button-response,21,228646,0.0-3.0-25.0,70048,List2A,black,man,,,,,,,,
3694,"As you did not score 100%, the memory game will repeat. Press Continue.",0,html-button-response,22,233351,0.0-3.0-26.0-0.0,70048,List2A,black,man,,,,,,,,
4788,"<img src='img/portrait_matrix_list2.jpg' style='width:900px;height:500px;''></img><p>If you have memorised all the portraits and names and are ready to start, press Continue.</p><p><strong>Please note: Your memory of these faces will be tested 4 times during this experiment.</strong></p>",0,html-button-response,23,239157,0.0-3.1-0.1,70048,List2A,black,man,,,,,,,,
2966,"<img src=""portrait/WW2.jpg""style=""height:400px;""></img>",3,html-button-response,24,243134,0.0-3.1-1.1,70048,List2A,black,man,,TRUE,3,,,,,
null,CORRECT,,html-keyboard-response,25,244657,0.0-3.1-2.1-0.1,70048,List2A,black,man,,,,null,,,,
2482,"<img src=""portrait/WW1.jpg""style=""height:400px;""></img>",1,html-button-response,26,247142,0.0-3.1-4.1,70048,List2A,black,man,,TRUE,1,,,,,
null,CORRECT,,html-keyboard-response,27,248673,0.0-3.1-5.1-0.1,70048,List2A,black,man,,,,null,,,,
4067,"<img src=""portrait/WM1.jpg""style=""height:400px;""></img>",6,html-button-response,28,252742,0.0-3.1-7.1,70048,List2A,black,man,,TRUE,6,,,,,
null,CORRECT,,html-keyboard-response,29,254258,0.0-3.1-8.1-0.1,70048,List2A,black,man,,,,null,,,,
3857,"<img src=""portrait/WM2.jpg""style=""height:400px;""></img>",7,html-button-response,30,258118,0.0-3.1-10.1,70048,List2A,black,man,,TRUE,7,,,,,
null,CORRECT,,html-keyboard-response,31,259644,0.0-3.1-11.1-0.1,70048,List2A,black,man,,,,null,,,,
2050,"<img src=""portrait/BM2.jpg""style=""height:400px;""></img>",5,html-button-response,32,261696,0.0-3.1-13.1,70048,List2A,black,man,,TRUE,5,,,,,
null,CORRECT,,html-keyboard-response,33,263218,0.0-3.1-14.1-0.1,70048,List2A,black,man,,,,null,,,,
1308,"<img src=""portrait/BM1.jpg""style=""height:400px;""></img>",4,html-button-response,34,264528,0.0-3.1-16.1,70048,List2A,black,man,,TRUE,4,,,,,
null,CORRECT,,html-keyboard-response,35,266039,0.0-3.1-17.1-0.1,70048,List2A,black,man,,,,null,,,,
6622,"<img src=""portrait/BW1.jpg""style=""height:400px;""></img>",0,html-button-response,36,272664,0.0-3.1-19.1,70048,List2A,black,man,,TRUE,0,,,,,
null,CORRECT,,html-keyboard-response,37,274185,0.0-3.1-20.1-0.1,70048,List2A,black,man,,,,null,,,,
1796,"<img src=""portrait/BW2.jpg""style=""height:400px;""></img>",2,html-button-response,38,275984,0.0-3.1-22.1,70048,List2A,black,man,,TRUE,2,,,,,
null,CORRECT,,html-keyboard-response,39,277497,0.0-3.1-23.1-0.1,70048,List2A,black,man,,,,null,,,,
2035,<p>You got 8 out of 8 right first time. Press Continue.</p>,0,html-button-response,40,279535,0.0-3.1-25.1,70048,List2A,black,man,,,,,,,,
22107,"<p>In this experiment, you will view photographs of the people from the memory game interacting.</p><p>By using the <strong>exact</strong> phrase given <i>after</i> the photograph appears and recalling the correct names of the people in the photographs, form a sentence describing the interaction. You do not need to capitalise names.</p><p>Type your answer in the space provided. Please complete every sentence before moving onto the next trial.</p><p>You will only have a few seconds to memorise each given photograph and phrase before you can respond, so try your best to focus.</p><p>An example is given below. Press 'Continue' when you are ready.</p><img src='img/speaking_example.jpg' style='width:800px;height:460px;''></img>",0,html-button-response,41,302647,0.0-4.0,70048,List2A,black,man,,,,,,,,
2959,"<p>Before the experiment starts, you will watch two example trials. Press 'Continue'.</p>",0,html-button-response,42,306615,0.0-5.0,70048,List2A,black,man,,,,,,,,
null,<img src='img/meet_eg.gif' style='height:400px;''></img>,,html-keyboard-response,43,309630,0.0-6.0,70048,List2A,black,man,,,,null,,,,
null,<p>is meeting</p>,,html-keyboard-response,44,311634,0.0-7.0,70048,List2A,black,man,,,,null,,,,
5099,<p><b>Answer:</b> jane is meeting ruth</p>,0,html-button-response,45,316735,0.0-8.0,70048,List2A,black,man,,,,,,,,
null,<img src='img/look_eg.gif' style='height:400px;''></img>,,html-keyboard-response,46,319750,0.0-9.0,70048,List2A,black,man,,,,null,,,,
null,<p>are looking at each other</p>,,html-keyboard-response,47,321769,0.0-10.0,70048,List2A,black,man,,,,null,,,,
2076,<p><b>Answer:</b> fred and mike are looking at each other</p>,0,html-button-response,48,323847,0.0-11.0,70048,List2A,black,man,,,,,,,,
6180,"<p>Ready to start the experiment?</p><br><p><strong>Remember to describe the picture using a full sentence,</strong></p><p><strong>that combines the names of the people with the <i>exact</i> phrase given.</strong></p><p><strong>To receive full payment you must do this correctly.</strong></p><p><strong> You do not need to capitalise names or use punctuation.</strong></p><br><p>Press 'Continue' to begin.</p>",0,html-button-response,49,331030,0.0-12.0,70048,List2A,black,man,,,,,,,,
null,"<div style=""font-size:60px;"">+</div>",,html-keyboard-response,50,332542,0.0-13.0-0.0,70048,List2A,black,man,,,,null,,,,
null,"<img src=""stim_listA/argue3.gif""style=""height:400px;""></stim_listA>",,html-keyboard-response,51,334552,0.0-13.0-1.0,70048,List2A,black,man,,,,null,,,,
null,is arguing with,,html-keyboard-response,52,336568,0.0-13.0-2.0,70048,List2A,black,man,,,,null,,,,
6819,,,survey-text,53,343390,0.0-13.0-3.0,70048,List2A,black,man,,,,,"{""Q0"":""mike""}","<img src=""stim_listA/argue3.gif""style=""height:400px;""></stim_listA>",is arguing with,
null,"<div style=""font-size:60px;"">+</div>",,html-keyboard-response,54,343905,0.0-13.0-0.1,70048,List2A,black,man,,,,null,,,,
null,"<img src=""stim_listA/talk8.gif""style=""height:400px;""></stim_listA>",,html-keyboard-response,55,345907,0.0-13.0-1.1,70048,List2A,black,man,,,,null,,,,
null,are talking to each other,,html-keyboard-response,56,347910,0.0-13.0-2.1,70048,List2A,black,man,,,,null,,,,
14806,,,survey-text,57,362718,0.0-13.0-3.1,70048,List2A,black,man,,,,,"{""Q0"":""jane kate""}","<img src=""stim_listA/talk8.gif""style=""height:400px;""></stim_listA>",are talking to each other,
null,"<div style=""font-size:60px;"">+</div>",,html-keyboard-response,58,363220,0.0-13.0-0.2,70048,List2A,black,man,,,,null,,,,
null,"<img src=""stim_listA/flirt2.gif""style=""height:400px;""></stim_listA>",,html-keyboard-response,59,365239,0.0-13.0-1.2,70048,List2A,black,man,,,,null,,,,
null,are flirting with each other,,html-keyboard-response,60,367242,0.0-13.0-2.2,70048,List2A,black,man,,,,null,,,,
10810,,,survey-text,61,378054,0.0-13.0-3.2,70048,List2A,black,man,,,,,"{""Q0"":""dave ruth""}","<img src=""stim_listA/flirt2.gif""style=""height:400px;""></stim_listA>",are flirting with each other,
null,"<div style=""font-size:60px;"">+</div>",,html-keyboard-response,62,378556,0.0-13.0-0.3,70048,List2A,black,man,,,,null,,,,
null,"<img src=""stim_listA/play1.gif""style=""height:400px;""></stim_listA>",,html-keyboard-response,63,380567,0.0-13.0-1.3,70048,List2A,black,man,,,,null,,,,
null,is playing with,,html-keyboard-response,64,382583,0.0-13.0-2.3,70048,List2A,black,man,,,,null,,,,
19341,,,survey-text,65,401926,0.0-13.0-3.3,70048,List2A,black,man,,,,,"{""Q0"":""jane dave""}","<img src=""stim_listA/play1.gif""style=""height:400px;""></stim_listA>",is playing with,
null,"<div style=""font-size:60px;"">+</div>",,html-keyboard-response,66,402428,0.0-13.0-0.4,70048,List2A,black,man,,,,null,,,,
null,"<img src=""stim_listA/argue2.gif""style=""height:400px;""></stim_listA>",,html-keyboard-response,67,404431,0.0-13.0-1.4,70048,List2A,black,man,,,,null,,,,
null,are arguing with each other,,html-keyboard-response,68,406442,0.0-13.0-2.4,70048,List2A,black,man,,,,null,,,,
22178,,,survey-text,69,428622,0.0-13.0-3.4,70048,List2A,black,man,,,,,"{""Q0"":""luke jane""}","<img src=""stim_listA/argue2.gif""style=""height:400px;""></stim_listA>",are arguing with each other,
null,"<div style=""font-size:60px;"">+</div>",,html-keyboard-response,70,429130,0.0-13.0-0.5,70048,List2A,black,man,,,,null,,,,
null,"<img src=""stim_listA/fight5.gif""style=""height:400px;""></stim_listA>",,html-keyboard-response,71,431133,0.0-13.0-1.5,70048,List2A,black,man,,,,null,,,,
null,is fighting,,html-keyboard-response,72,433136,0.0-13.0-2.5,70048,List2A,black,man,,,,null,,,,
11043,,,survey-text,73,444181,0.0-13.0-3.5,70048,List2A,black,man,,,,,"{""Q0"":""mike dave""}","<img src=""stim_listA/fight5.gif""style=""height:400px;""></stim_listA>",is fighting,
null,"<div style=""font-size:60px;"">+</div>",,html-keyboard-response,74,444684,0.0-13.0-0.6,70048,List2A,black,man,,,,null,,,,
null,"<img src=""stim_listA/marry6.gif""style=""height:400px;""></stim_listA>",,html-keyboard-response,75,446688,0.0-13.0-1.6,70048,List2A,black,man,,,,null,,,,
null,are marrying each other,,html-keyboard-response,76,448700,0.0-13.0-2.6,70048,List2A,black,man,,,,null,,,,
7415,,,survey-text,77,456117,0.0-13.0-3.6,70048,List2A,black,man,,,,,"{""Q0"":""mike luke""}","<img src=""stim_listA/marry6.gif""style=""height:400px;""></stim_listA>",are marrying each other,
null,"<div style=""font-size:60px;"">+</div>",,html-keyboard-response,78,456619,0.0-13.0-0.7,70048,List2A,black,man,,,,null,,,,
null,"<img src=""stim_listA/talk4.gif""style=""height:400px;""></stim_listA>",,html-keyboard-response,79,458623,0.0-13.0-1.7,70048,List2A,black,man,,,,null,,,,
null,are talking to each other,,html-keyboard-response,80,460636,0.0-13.0-2.7,70048,List2A,black,man,,,,null,,,,
9463,,,survey-text,81,470101,0.0-13.0-3.7,70048,List2A,black,man,,,,,"{""Q0"":""mike beth""}","<img src=""stim_listA/talk4.gif""style=""height:400px;""></stim_listA>",are talking to each other,
null,"<div style=""font-size:60px;"">+</div>",,html-keyboard-response,82,470610,0.0-13.0-0.8,70048,List2A,black,man,,,,null,,,,
null,"<img src=""stim_listA/kiss3.gif""style=""height:400px;""></stim_listA>",,html-keyboard-response,83,472614,0.0-13.0-1.8,70048,List2A,black,man,,,,null,,,,
null,is kissing,,html-keyboard-response,84,474621,0.0-13.0-2.8,70048,List2A,black,man,,,,null,,,,
11710,,,survey-text,85,486333,0.0-13.0-3.8,70048,List2A,black,man,,,,,"{""Q0"":""beth fred""}","<img src=""stim_listA/kiss3.gif""style=""height:400px;""></stim_listA>",is kissing,
null,"<div style=""font-size:60px;"">+</div>",,html-keyboard-response,86,486835,0.0-13.0-0.9,70048,List2A,black,man,,,,null,,,,
null,"<img src=""stim_listA/talk3.gif""style=""height:400px;""></stim_listA>",,html-keyboard-response,87,488843,0.0-13.0-1.9,70048,List2A,black,man,,,,null,,,,
null,is talking to,,html-keyboard-response,88,490856,0.0-13.0-2.9,70048,List2A,black,man,,,,null,,,,
6307,,,survey-text,89,497164,0.0-13.0-3.9,70048,List2A,black,man,,,,,"{""Q0"":""fred kate""}","<img src=""stim_listA/talk3.gif""style=""height:400px;""></stim_listA>",is talking to,
null,"<div style=""font-size:60px;"">+</div>",,html-keyboard-response,90,497677,0.0-13.0-0.10,70048,List2A,black,man,,,,null,,,,
null,"<img src=""stim_listA/dance1.gif""style=""height:400px;""></stim_listA>",,html-keyboard-response,91,499680,0.0-13.0-1.10,70048,List2A,black,man,,,,null,,,,
null,is dancing with,,html-keyboard-response,92,501682,0.0-13.0-2.10,70048,List2A,black,man,,,,null,,,,
7555,,,survey-text,93,509239,0.0-13.0-3.10,70048,List2A,black,man,,,,,"{""Q0"":""luke jane""}","<img src=""stim_listA/dance1.gif""style=""height:400px;""></stim_listA>",is dancing with,
null,"<div style=""font-size:60px;"">+</div>",,html-keyboard-response,94,509750,0.0-13.0-0.11,70048,List2A,black,man,,,,null,,,,
null,"<img src=""stim_listA/marry5.gif""style=""height:400px;""></stim_listA>",,html-keyboard-response,95,511753,0.0-13.0-1.11,70048,List2A,black,man,,,,null,,,,
null,is marrying,,html-keyboard-response,96,513755,0.0-13.0-2.11,70048,List2A,black,man,,,,null,,,,
5706,,,survey-text,97,519463,0.0-13.0-3.11,70048,List2A,black,man,,,,,"{""Q0"":""fred dave""}","<img src=""stim_listA/marry5.gif""style=""height:400px;""></stim_listA>",is marrying,
null,"<div style=""font-size:60px;"">+</div>",,html-keyboard-response,98,519979,0.0-13.0-0.12,70048,List2A,black,man,,,,null,,,,
null,"<img src=""stim_listA/play5.gif""style=""height:400px;""></stim_listA>",,html-keyboard-response,99,521982,0.0-13.0-1.12,70048,List2A,black,man,,,,null,,,,
null,is playing with,,html-keyboard-response,100,523994,0.0-13.0-2.12,70048,List2A,black,man,,,,null,,,,
6971,,,survey-text,101,530967,0.0-13.0-3.12,70048,List2A,black,man,,,,,"{""Q0"":""mike dave""}","<img src=""stim_listA/play5.gif""style=""height:400px;""></stim_listA>",is playing with,
null,"<div style=""font-size:60px;"">+</div>",,html-keyboard-response,102,531469,0.0-13.0-0.13,70048,List2A,black,man,,,,null,,,,
null,"<img src=""stim_listA/marry2.gif""style=""height:400px;""></stim_listA>",,html-keyboard-response,103,533472,0.0-13.0-1.13,70048,List2A,black,man,,,,null,,,,
null,are marrying each other,,html-keyboard-response,104,535474,0.0-13.0-2.13,70048,List2A,black,man,,,,null,,,,
9186,,,survey-text,105,544662,0.0-13.0-3.13,70048,List2A,black,man,,,,,"{""Q0"":""luke jane""}","<img src=""stim_listA/marry2.gif""style=""height:400px;""></stim_listA>",are marrying each other,
null,"<div style=""font-size:60px;"">+</div>",,html-keyboard-response,106,545166,0.0-13.0-0.14,70048,List2A,black,man,,,,null,,,,
null,"<img src=""stim_listA/shout6.gif""style=""height:400px;""></stim_listA>",,html-keyboard-response,107,547170,0.0-13.0-1.14,70048,List2A,black,man,,,,null,,,,
null,are shouting at each other,,html-keyboard-response,108,549176,0.0-13.0-2.14,70048,List2A,black,man,,,,null,,,,
5916,,,survey-text,109,555094,0.0-13.0-3.14,70048,List2A,black,man,,,,,"{""Q0"":""mike dave""}","<img src=""stim_listA/shout6.gif""style=""height:400px;""></stim_listA>",are shouting at each other,
null,"<div style=""font-size:60px;"">+</div>",,html-keyboard-response,110,555600,0.0-13.0-0.15,70048,List2A,black,man,,,,null,,,,
null,"<img src=""stim_listA/shout8.gif""style=""height:400px;""></stim_listA>",,html-keyboard-response,111,557617,0.0-13.0-1.15,70048,List2A,black,man,,,,null,,,,
null,are shouting at each other,,html-keyboard-response,112,559631,0.0-13.0-2.15,70048,List2A,black,man,,,,null,,,,
7760,,,survey-text,113,567393,0.0-13.0-3.15,70048,List2A,black,man,,,,,"{""Q0"":""kate jane""}","<img src=""stim_listA/shout8.gif""style=""height:400px;""></stim_listA>",are shouting at each other,
null,"<div style=""font-size:60px;"">+</div>",,html-keyboard-response,114,567902,0.0-13.0-0.16,70048,List2A,black,man,,,,null,,,,
null,"<img src=""stim_listA/dance2.gif""style=""height:400px;""></stim_listA>",,html-keyboard-response,115,569905,0.0-13.0-1.16,70048,List2A,black,man,,,,null,,,,
null,are dancing with each other,,html-keyboard-response,116,571913,0.0-13.0-2.16,70048,List2A,black,man,,,,null,,,,
5174,,,survey-text,117,577089,0.0-13.0-3.16,70048,List2A,black,man,,,,,"{""Q0"":""ruth dave""}","<img src=""stim_listA/dance2.gif""style=""height:400px;""></stim_listA>",are dancing with each other,
null,"<div style=""font-size:60px;"">+</div>",,html-keyboard-response,118,577604,0.0-13.0-0.17,70048,List2A,black,man,,,,null,,,,
null,"<img src=""stim_listA/talk1.gif""style=""height:400px;""></stim_listA>",,html-keyboard-response,119,579622,0.0-13.0-1.17,70048,List2A,black,man,,,,null,,,,
null,is talking to,,html-keyboard-response,120,581630,0.0-13.0-2.17,70048,List2A,black,man,,,,null,,,,
5177,,,survey-text,121,586809,0.0-13.0-3.17,70048,List2A,black,man,,,,,"{""Q0"":""jane luke""}","<img src=""stim_listA/talk1.gif""style=""height:400px;""></stim_listA>",is talking to,
null,"<div style=""font-size:60px;"">+</div>",,html-keyboard-response,122,587320,0.0-13.0-0.18,70048,List2A,black,man,,,,null,,,,
null,"<img src=""stim_listA/shout7.gif""style=""height:400px;""></stim_listA>",,html-keyboard-response,123,589325,0.0-13.0-1.18,70048,List2A,black,man,,,,null,,,,
null,is shouting at,,html-keyboard-response,124,591335,0.0-13.0-2.18,70048,List2A,black,man,,,,null,,,,
6304,,,survey-text,125,597641,0.0-13.0-3.18,70048,List2A,black,man,,,,,"{""Q0"":""beth ruth""}","<img src=""stim_listA/shout7.gif""style=""height:400px;""></stim_listA>",is shouting at,
null,"<div style=""font-size:60px;"">+</div>",,html-keyboard-response,126,598144,0.0-13.0-0.19,70048,List2A,black,man,,,,null,,,,
null,"<img src=""stim_listA/argue8.gif""style=""height:400px;""></stim_listA>",,html-keyboard-response,127,600153,0.0-13.0-1.19,70048,List2A,black,man,,,,null,,,,
null,are arguing with each other,,html-keyboard-response,128,602164,0.0-13.0-2.19,70048,List2A,black,man,,,,null,,,,
12162,,,survey-text,129,614329,0.0-13.0-3.19,70048,List2A,black,man,,,,,"{""Q0"":""ruth beth""}","<img src=""stim_listA/argue8.gif""style=""height:400px;""></stim_listA>",are arguing with each other,
11770,"<img src='img/portrait_matrix_list2.jpg' style='width:900px;height:500px;''></img><p>If you have memorised all the portraits and names and are ready to start, press Continue.</p><p><strong>Please note: Your memory of these faces will be tested 4 times during this experiment.</strong></p>",0,html-button-response,130,626103,0.0-14.0-0.0,70048,List2A,black,man,,,,,,,,
2411,"<img src=""portrait/BM2.jpg""style=""height:400px;""></img>",5,html-button-response,131,629518,0.0-14.0-1.0,70048,List2A,black,man,,TRUE,5,,,,,
null,CORRECT,,html-keyboard-response,132,631022,0.0-14.0-2.0-0.0,70048,List2A,black,man,,,,null,,,,
1933,"<img src=""portrait/WM1.jpg""style=""height:400px;""></img>",6,html-button-response,133,632958,0.0-14.0-4.0,70048,List2A,black,man,,TRUE,6,,,,,
null,CORRECT,,html-keyboard-response,134,634480,0.0-14.0-5.0-0.0,70048,List2A,black,man,,,,null,,,,
1556,"<img src=""portrait/BM1.jpg""style=""height:400px;""></img>",4,html-button-response,135,636038,0.0-14.0-7.0,70048,List2A,black,man,,TRUE,4,,,,,
null,CORRECT,,html-keyboard-response,136,637556,0.0-14.0-8.0-0.0,70048,List2A,black,man,,,,null,,,,
1496,"<img src=""portrait/WW2.jpg""style=""height:400px;""></img>",3,html-button-response,137,639054,0.0-14.0-10.0,70048,List2A,black,man,,TRUE,3,,,,,
null,CORRECT,,html-keyboard-response,138,640557,0.0-14.0-11.0-0.0,70048,List2A,black,man,,,,null,,,,
2879,"<img src=""portrait/WM2.jpg""style=""height:400px;""></img>",7,html-button-response,139,643438,0.0-14.0-13.0,70048,List2A,black,man,,TRUE,7,,,,,
null,CORRECT,,html-keyboard-response,140,644942,0.0-14.0-14.0-0.0,70048,List2A,black,man,,,,null,,,,
5293,"<img src=""portrait/WW1.jpg""style=""height:400px;""></img>",1,html-button-response,141,650238,0.0-14.0-16.0,70048,List2A,black,man,,TRUE,1,,,,,
null,CORRECT,,html-keyboard-response,142,651746,0.0-14.0-17.0-0.0,70048,List2A,black,man,,,,null,,,,
5944,"<img src=""portrait/BW1.jpg""style=""height:400px;""></img>",0,html-button-response,143,657694,0.0-14.0-19.0,70048,List2A,black,man,,TRUE,0,,,,,
null,CORRECT,,html-keyboard-response,144,659203,0.0-14.0-20.0-0.0,70048,List2A,black,man,,,,null,,,,
1511,"<img src=""portrait/BW2.jpg""style=""height:400px;""></img>",2,html-button-response,145,660718,0.0-14.0-22.0,70048,List2A,black,man,,TRUE,2,,,,,
null,CORRECT,,html-keyboard-response,146,662245,0.0-14.0-23.0-0.0,70048,List2A,black,man,,,,null,,,,
1558,<p>You got 8 out of 8 right first time. Press Continue.</p>,0,html-button-response,147,663806,0.0-14.0-25.0,70048,List2A,black,man,,,,,,,,
null,"<div style=""font-size:60px;"">+</div>",,html-keyboard-response,148,665320,0.0-15.0-0.0,70048,List2A,black,man,,,,null,,,,
null,"<img src=""stim_listA/fight6.gif""style=""height:400px;""></stim_listA>",,html-keyboard-response,149,667323,0.0-15.0-1.0,70048,List2A,black,man,,,,null,,,,
null,are fighting each other,,html-keyboard-response,150,669326,0.0-15.0-2.0,70048,List2A,black,man,,,,null,,,,
8013,,,survey-text,151,677341,0.0-15.0-3.0,70048,List2A,black,man,,,,,"{""Q0"":""fred luke""}","<img src=""stim_listA/fight6.gif""style=""height:400px;""></stim_listA>",are fighting each other,
null,"<div style=""font-size:60px;"">+</div>",,html-keyboard-response,152,677854,0.0-15.0-0.1,70048,List2A,black,man,,,,null,,,,
null,"<img src=""stim_listA/kiss6.gif""style=""height:400px;""></stim_listA>",,html-keyboard-response,153,679863,0.0-15.0-1.1,70048,List2A,black,man,,,,null,,,,
null,are kissing each other,,html-keyboard-response,154,681865,0.0-15.0-2.1,70048,List2A,black,man,,,,null,,,,
7662,,,survey-text,155,689528,0.0-15.0-3.1,70048,List2A,black,man,,,,,"{""Q0"":""dave mike""}","<img src=""stim_listA/kiss6.gif""style=""height:400px;""></stim_listA>",are kissing each other,
null,"<div style=""font-size:60px;"">+</div>",,html-keyboard-response,156,690046,0.0-15.0-0.2,70048,List2A,black,man,,,,null,,,,
null,"<img src=""stim_listA/flirt8.gif""style=""height:400px;""></stim_listA>",,html-keyboard-response,157,692050,0.0-15.0-1.2,70048,List2A,black,man,,,,null,,,,
null,are flirting with each other,,html-keyboard-response,158,694052,0.0-15.0-2.2,70048,List2A,black,man,,,,null,,,,
7842,,,survey-text,159,701896,0.0-15.0-3.2,70048,List2A,black,man,,,,,"{""Q0"":""jane beth""}","<img src=""stim_listA/flirt8.gif""style=""height:400px;""></stim_listA>",are flirting with each other,
null,"<div style=""font-size:60px;"">+</div>",,html-keyboard-response,160,702399,0.0-15.0-0.3,70048,List2A,black,man,,,,null,,,,
null,"<img src=""stim_listA/marry8.gif""style=""height:400px;""></stim_listA>",,html-keyboard-response,161,704402,0.0-15.0-1.3,70048,List2A,black,man,,,,null,,,,
null,are marrying each other,,html-keyboard-response,162,706417,0.0-15.0-2.3,70048,List2A,black,man,,,,null,,,,
6245,,,survey-text,163,712664,0.0-15.0-3.3,70048,List2A,black,man,,,,,"{""Q0"":""kate ruth""}","<img src=""stim_listA/marry8.gif""style=""height:400px;""></stim_listA>",are marrying each other,
null,"<div style=""font-size:60px;"">+</div>",,html-keyboard-response,164,713166,0.0-15.0-0.4,70048,List2A,black,man,,,,null,,,,
null,"<img src=""stim_listA/touch2.gif""style=""height:400px;""></stim_listA>",,html-keyboard-response,165,715169,0.0-15.0-1.4,70048,List2A,black,man,,,,null,,,,
null,are touching each other,,html-keyboard-response,166,717171,0.0-15.0-2.4,70048,List2A,black,man,,,,null,,,,
5875,,,survey-text,167,723048,0.0-15.0-3.4,70048,List2A,black,man,,,,,"{""Q0"":""luke ruth""}","<img src=""stim_listA/touch2.gif""style=""height:400px;""></stim_listA>",are touching each other,
null,"<div style=""font-size:60px;"">+</div>",,html-keyboard-response,168,723555,0.0-15.0-0.5,70048,List2A,black,man,,,,null,,,,
null,"<img src=""stim_listA/argue4.gif""style=""height:400px;""></stim_listA>",,html-keyboard-response,169,725559,0.0-15.0-1.5,70048,List2A,black,man,,,,null,,,,
null,are arguing with each other,,html-keyboard-response,170,727561,0.0-15.0-2.5,70048,List2A,black,man,,,,null,,,,
8237,,,survey-text,171,735800,0.0-15.0-3.5,70048,List2A,black,man,,,,,"{""Q0"":""fred kate""}","<img src=""stim_listA/argue4.gif""style=""height:400px;""></stim_listA>",are arguing with each other,
null,"<div style=""font-size:60px;"">+</div>",,html-keyboard-response,172,736307,0.0-15.0-0.6,70048,List2A,black,man,,,,null,,,,
null,"<img src=""stim_listA/marry3.gif""style=""height:400px;""></stim_listA>",,html-keyboard-response,173,738310,0.0-15.0-1.6,70048,List2A,black,man,,,,null,,,,
null,is marrying,,html-keyboard-response,174,740312,0.0-15.0-2.6,70048,List2A,black,man,,,,null,,,,
8076,,,survey-text,175,748390,0.0-15.0-3.6,70048,List2A,black,man,,,,,"{""Q0"":""mike beth""}","<img src=""stim_listA/marry3.gif""style=""height:400px;""></stim_listA>",is marrying,
null,"<div style=""font-size:60px;"">+</div>",,html-keyboard-response,176,748893,0.0-15.0-0.7,70048,List2A,black,man,,,,null,,,,
null,"<img src=""stim_listA/dance5.gif""style=""height:400px;""></stim_listA>",,html-keyboard-response,177,750898,0.0-15.0-1.7,70048,List2A,black,man,,,,null,,,,
null,is dancing with,,html-keyboard-response,178,752900,0.0-15.0-2.7,70048,List2A,black,man,,,,null,,,,
7488,,,survey-text,179,760390,0.0-15.0-3.7,70048,List2A,black,man,,,,,"{""Q0"":""mike luke""}","<img src=""stim_listA/dance5.gif""style=""height:400px;""></stim_listA>",is dancing with,
null,"<div style=""font-size:60px;"">+</div>",,html-keyboard-response,180,760896,0.0-15.0-0.8,70048,List2A,black,man,,,,null,,,,
null,"<img src=""stim_listA/kiss4.gif""style=""height:400px;""></stim_listA>",,html-keyboard-response,181,762914,0.0-15.0-1.8,70048,List2A,black,man,,,,null,,,,
null,are kissing each other,,html-keyboard-response,182,764917,0.0-15.0-2.8,70048,List2A,black,man,,,,null,,,,
5647,,,survey-text,183,770566,0.0-15.0-3.8,70048,List2A,black,man,,,,,"{""Q0"":""mike kate""}","<img src=""stim_listA/kiss4.gif""style=""height:400px;""></stim_listA>",are kissing each other,
null,"<div style=""font-size:60px;"">+</div>",,html-keyboard-response,184,771069,0.0-15.0-0.9,70048,List2A,black,man,,,,null,,,,
null,"<img src=""stim_listA/dance7.gif""style=""height:400px;""></stim_listA>",,html-keyboard-response,185,773072,0.0-15.0-1.9,70048,List2A,black,man,,,,null,,,,
null,is dancing with,,html-keyboard-response,186,775075,0.0-15.0-2.9,70048,List2A,black,man,,,,null,,,,
5481,,,survey-text,187,780558,0.0-15.0-3.9,70048,List2A,black,man,,,,,"{""Q0"":""kate ruth""}","<img src=""stim_listA/dance7.gif""style=""height:400px;""></stim_listA>",is dancing with,
null,"<div style=""font-size:60px;"">+</div>",,html-keyboard-response,188,781060,0.0-15.0-0.10,70048,List2A,black,man,,,,null,,,,
null,"<img src=""stim_listA/marry7.gif""style=""height:400px;""></stim_listA>",,html-keyboard-response,189,783064,0.0-15.0-1.10,70048,List2A,black,man,,,,null,,,,
null,is marrying,,html-keyboard-response,190,785076,0.0-15.0-2.10,70048,List2A,black,man,,,,null,,,,
7312,,,survey-text,191,792390,0.0-15.0-3.10,70048,List2A,black,man,,,,,"{""Q0"":""beth jane""}","<img src=""stim_listA/marry7.gif""style=""height:400px;""></stim_listA>",is marrying,
null,"<div style=""font-size:60px;"">+</div>",,html-keyboard-response,192,792895,0.0-15.0-0.11,70048,List2A,black,man,,,,null,,,,
null,"<img src=""stim_listA/marry1.gif""style=""height:400px;""></stim_listA>",,html-keyboard-response,193,794898,0.0-15.0-1.11,70048,List2A,black,man,,,,null,,,,
null,is marrying,,html-keyboard-response,194,796903,0.0-15.0-2.11,70048,List2A,black,man,,,,null,,,,
4981,,,survey-text,195,801886,0.0-15.0-3.11,70048,List2A,black,man,,,,,"{""Q0"":""dave ruth""}","<img src=""stim_listA/marry1.gif""style=""height:400px;""></stim_listA>",is marrying,
null,"<div style=""font-size:60px;"">+</div>",,html-keyboard-response,196,802389,0.0-15.0-0.12,70048,List2A,black,man,,,,null,,,,
null,"<img src=""stim_listA/dance3.gif""style=""height:400px;""></stim_listA>",,html-keyboard-response,197,804392,0.0-15.0-1.12,70048,List2A,black,man,,,,null,,,,
null,is dancing with,,html-keyboard-response,198,806400,0.0-15.0-2.12,70048,List2A,black,man,,,,null,,,,
7386,,,survey-text,199,813787,0.0-15.0-3.12,70048,List2A,black,man,,,,,"{""Q0"":""fred kate""}","<img src=""stim_listA/dance3.gif""style=""height:400px;""></stim_listA>",is dancing with,
null,"<div style=""font-size:60px;"">+</div>",,html-keyboard-response,200,814290,0.0-15.0-0.13,70048,List2A,black,man,,,,null,,,,
null,"<img src=""stim_listA/flirt3.gif""style=""height:400px;""></stim_listA>",,html-keyboard-response,201,816292,0.0-15.0-1.13,70048,List2A,black,man,,,,null,,,,
null,is flirting with,,html-keyboard-response,202,818296,0.0-15.0-2.13,70048,List2A,black,man,,,,null,,,,
6617,,,survey-text,203,824915,0.0-15.0-3.13,70048,List2A,black,man,,,,,"{""Q0"":""fred kate""}","<img src=""stim_listA/flirt3.gif""style=""height:400px;""></stim_listA>",is flirting with,
null,"<div style=""font-size:60px;"">+</div>",,html-keyboard-response,204,825418,0.0-15.0-0.14,70048,List2A,black,man,,,,null,,,,
null,"<img src=""stim_listA/talk5.gif""style=""height:400px;""></stim_listA>",,html-keyboard-response,205,827428,0.0-15.0-1.14,70048,List2A,black,man,,,,null,,,,
null,is talking to,,html-keyboard-response,206,829430,0.0-15.0-2.14,70048,List2A,black,man,,,,null,,,,
5691,,,survey-text,207,835123,0.0-15.0-3.14,70048,List2A,black,man,,,,,"{""Q0"":""mike luke""}","<img src=""stim_listA/talk5.gif""style=""height:400px;""></stim_listA>",is talking to,
null,"<div style=""font-size:60px;"">+</div>",,html-keyboard-response,208,835626,0.0-15.0-0.15,70048,List2A,black,man,,,,null,,,,
null,"<img src=""stim_listA/argue7.gif""style=""height:400px;""></stim_listA>",,html-keyboard-response,209,837629,0.0-15.0-1.15,70048,List2A,black,man,,,,null,,,,
null,is arguing with,,html-keyboard-response,210,839645,0.0-15.0-2.15,70048,List2A,black,man,,,,null,,,,
35720,,,survey-text,211,875367,0.0-15.0-3.15,70048,List2A,black,man,,,,,"{""Q0"":""kate jane""}","<img src=""stim_listA/argue7.gif""style=""height:400px;""></stim_listA>",is arguing with,
null,"<div style=""font-size:60px;"">+</div>",,html-keyboard-response,212,875876,0.0-15.0-0.16,70048,List2A,black,man,,,,null,,,,
null,"<img src=""stim_listA/flirt6.gif""style=""height:400px;""></stim_listA>",,html-keyboard-response,213,877893,0.0-15.0-1.16,70048,List2A,black,man,,,,null,,,,
null,are flirting with each other,,html-keyboard-response,214,879903,0.0-15.0-2.16,70048,List2A,black,man,,,,null,,,,
8662,,,survey-text,215,888567,0.0-15.0-3.16,70048,List2A,black,man,,,,,"{""Q0"":""fred dave""}","<img src=""stim_listA/flirt6.gif""style=""height:400px;""></stim_listA>",are flirting with each other,
null,"<div style=""font-size:60px;"">+</div>",,html-keyboard-response,216,889079,0.0-15.0-0.17,70048,List2A,black,man,,,,null,,,,
null,"<img src=""stim_listA/touch4.gif""style=""height:400px;""></stim_listA>",,html-keyboard-response,217,891097,0.0-15.0-1.17,70048,List2A,black,man,,,,null,,,,
null,are touching each other,,html-keyboard-response,218,893104,0.0-15.0-2.17,70048,List2A,black,man,,,,null,,,,
7861,,,survey-text,219,900967,0.0-15.0-3.17,70048,List2A,black,man,,,,,"{""Q0"":""fred beth""}","<img src=""stim_listA/touch4.gif""style=""height:400px;""></stim_listA>",are touching each other,
null,"<div style=""font-size:60px;"">+</div>",,html-keyboard-response,220,901470,0.0-15.0-0.18,70048,List2A,black,man,,,,null,,,,
null,"<img src=""stim_listA/fight2.gif""style=""height:400px;""></stim_listA>",,html-keyboard-response,221,903486,0.0-15.0-1.18,70048,List2A,black,man,,,,null,,,,
null,are fighting each other,,html-keyboard-response,222,905489,0.0-15.0-2.18,70048,List2A,black,man,,,,null,,,,
5379,,,survey-text,223,910870,0.0-15.0-3.18,70048,List2A,black,man,,,,,"{""Q0"":""luke ruth""}","<img src=""stim_listA/fight2.gif""style=""height:400px;""></stim_listA>",are fighting each other,
null,"<div style=""font-size:60px;"">+</div>",,html-keyboard-response,224,911373,0.0-15.0-0.19,70048,List2A,black,man,,,,null,,,,
null,"<img src=""stim_listA/argue5.gif""style=""height:400px;""></stim_listA>",,html-keyboard-response,225,913376,0.0-15.0-1.19,70048,List2A,black,man,,,,null,,,,
null,is arguing with,,html-keyboard-response,226,915386,0.0-15.0-2.19,70048,List2A,black,man,,,,null,,,,
4810,,,survey-text,227,920198,0.0-15.0-3.19,70048,List2A,black,man,,,,,"{""Q0"":""fred dave""}","<img src=""stim_listA/argue5.gif""style=""height:400px;""></stim_listA>",is arguing with,
4237,"<img src='img/portrait_matrix_list2.jpg' style='width:900px;height:500px;''></img><p>If you have memorised all the portraits and names and are ready to start, press Continue.</p><p><strong>Please note: Your memory of these faces will be tested 4 times during this experiment.</strong></p>",0,html-button-response,228,924438,0.0-16.0-0.0,70048,List2A,black,man,,,,,,,,
2722,"<img src=""portrait/WM1.jpg""style=""height:400px;""></img>",6,html-button-response,229,928175,0.0-16.0-1.0,70048,List2A,black,man,,TRUE,6,,,,,
null,CORRECT,,html-keyboard-response,230,929690,0.0-16.0-2.0-0.0,70048,List2A,black,man,,,,null,,,,
1761,"<img src=""portrait/WW2.jpg""style=""height:400px;""></img>",3,html-button-response,231,931455,0.0-16.0-4.0,70048,List2A,black,man,,TRUE,3,,,,,
null,CORRECT,,html-keyboard-response,232,932972,0.0-16.0-5.0-0.0,70048,List2A,black,man,,,,null,,,,
3207,"<img src=""portrait/BW1.jpg""style=""height:400px;""></img>",0,html-button-response,233,936182,0.0-16.0-7.0,70048,List2A,black,man,,TRUE,0,,,,,
null,CORRECT,,html-keyboard-response,234,937690,0.0-16.0-8.0-0.0,70048,List2A,black,man,,,,null,,,,
1921,"<img src=""portrait/BW2.jpg""style=""height:400px;""></img>",2,html-button-response,235,939614,0.0-16.0-10.0,70048,List2A,black,man,,TRUE,2,,,,,
null,CORRECT,,html-keyboard-response,236,941124,0.0-16.0-11.0-0.0,70048,List2A,black,man,,,,null,,,,
2455,"<img src=""portrait/WW1.jpg""style=""height:400px;""></img>",1,html-button-response,237,943582,0.0-16.0-13.0,70048,List2A,black,man,,TRUE,1,,,,,
null,CORRECT,,html-keyboard-response,238,945104,0.0-16.0-14.0-0.0,70048,List2A,black,man,,,,null,,,,
1843,"<img src=""portrait/BM1.jpg""style=""height:400px;""></img>",4,html-button-response,239,946950,0.0-16.0-16.0,70048,List2A,black,man,,TRUE,4,,,,,
null,CORRECT,,html-keyboard-response,240,948463,0.0-16.0-17.0-0.0,70048,List2A,black,man,,,,null,,,,
1683,"<img src=""portrait/WM2.jpg""style=""height:400px;""></img>",7,html-button-response,241,950150,0.0-16.0-19.0,70048,List2A,black,man,,TRUE,7,,,,,
null,CORRECT,,html-keyboard-response,242,951654,0.0-16.0-20.0-0.0,70048,List2A,black,man,,,,null,,,,
1685,"<img src=""portrait/BM2.jpg""style=""height:400px;""></img>",5,html-button-response,243,953342,0.0-16.0-22.0,70048,List2A,black,man,,TRUE,5,,,,,
null,CORRECT,,html-keyboard-response,244,954860,0.0-16.0-23.0-0.0,70048,List2A,black,man,,,,null,,,,
1270,<p>You got 8 out of 8 right first time. Press Continue.</p>,0,html-button-response,245,956133,0.0-16.0-25.0,70048,List2A,black,man,,,,,,,,
null,"<div style=""font-size:60px;"">+</div>",,html-keyboard-response,246,957655,0.0-17.0-0.0,70048,List2A,black,man,,,,null,,,,
null,"<img src=""stim_listA/play8.gif""style=""height:400px;""></stim_listA>",,html-keyboard-response,247,959658,0.0-17.0-1.0,70048,List2A,black,man,,,,null,,,,
null,are playing with each other,,html-keyboard-response,248,962214,0.0-17.0-2.0,70048,List2A,black,man,,,,null,,,,
8253,,,survey-text,249,970469,0.0-17.0-3.0,70048,List2A,black,man,,,,,"{""Q0"":""beth ruth""}","<img src=""stim_listA/play8.gif""style=""height:400px;""></stim_listA>",are playing with each other,
null,"<div style=""font-size:60px;"">+</div>",,html-keyboard-response,250,970987,0.0-17.0-0.1,70048,List2A,black,man,,,,null,,,,
null,"<img src=""stim_listA/talk6.gif""style=""height:400px;""></stim_listA>",,html-keyboard-response,251,973006,0.0-17.0-1.1,70048,List2A,black,man,,,,null,,,,
null,are talking to each other,,html-keyboard-response,252,975010,0.0-17.0-2.1,70048,List2A,black,man,,,,null,,,,
8457,,,survey-text,253,983469,0.0-17.0-3.1,70048,List2A,black,man,,,,,"{""Q0"":""fred dave""}","<img src=""stim_listA/talk6.gif""style=""height:400px;""></stim_listA>",are talking to each other,
null,"<div style=""font-size:60px;"">+</div>",,html-keyboard-response,254,983985,0.0-17.0-0.2,70048,List2A,black,man,,,,null,,,,
null,"<img src=""stim_listA/flirt5.gif""style=""height:400px;""></stim_listA>",,html-keyboard-response,255,985988,0.0-17.0-1.2,70048,List2A,black,man,,,,null,,,,
null,is flirting with,,html-keyboard-response,256,987995,0.0-17.0-2.2,70048,List2A,black,man,,,,null,,,,
10837,,,survey-text,257,998834,0.0-17.0-3.2,70048,List2A,black,man,,,,,"{""Q0"":""mike luke""}","<img src=""stim_listA/flirt5.gif""style=""height:400px;""></stim_listA>",is flirting with,
null,"<div style=""font-size:60px;"">+</div>",,html-keyboard-response,258,999336,0.0-17.0-0.3,70048,List2A,black,man,,,,null,,,,
null,"<img src=""stim_listA/shout1.gif""style=""height:400px;""></stim_listA>",,html-keyboard-response,259,1001353,0.0-17.0-1.3,70048,List2A,black,man,,,,null,,,,
null,is shouting at,,html-keyboard-response,260,1003355,0.0-17.0-2.3,70048,List2A,black,man,,,,null,,,,
5797,,,survey-text,261,1009154,0.0-17.0-3.3,70048,List2A,black,man,,,,,"{""Q0"":""ruth luke""}","<img src=""stim_listA/shout1.gif""style=""height:400px;""></stim_listA>",is shouting at,
null,"<div style=""font-size:60px;"">+</div>",,html-keyboard-response,262,1009657,0.0-17.0-0.4,70048,List2A,black,man,,,,null,,,,
null,"<img src=""stim_listA/talk2.gif""style=""height:400px;""></stim_listA>",,html-keyboard-response,263,1011667,0.0-17.0-1.4,70048,List2A,black,man,,,,null,,,,
null,are talking to each other,,html-keyboard-response,264,1013682,0.0-17.0-2.4,70048,List2A,black,man,,,,null,,,,
5838,,,survey-text,265,1019522,0.0-17.0-3.4,70048,List2A,black,man,,,,,"{""Q0"":""dave ruth""}","<img src=""stim_listA/talk2.gif""style=""height:400px;""></stim_listA>",are talking to each other,
null,"<div style=""font-size:60px;"">+</div>",,html-keyboard-response,266,1020025,0.0-17.0-0.5,70048,List2A,black,man,,,,null,,,,
null,"<img src=""stim_listA/kiss1.gif""style=""height:400px;""></stim_listA>",,html-keyboard-response,267,1022027,0.0-17.0-1.5,70048,List2A,black,man,,,,null,,,,
null,is kissing,,html-keyboard-response,268,1024033,0.0-17.0-2.5,70048,List2A,black,man,,,,null,,,,
5567,,,survey-text,269,1029602,0.0-17.0-3.5,70048,List2A,black,man,,,,,"{""Q0"":""luke ruth""}","<img src=""stim_listA/kiss1.gif""style=""height:400px;""></stim_listA>",is kissing,
null,"<div style=""font-size:60px;"">+</div>",,html-keyboard-response,270,1030112,0.0-17.0-0.6,70048,List2A,black,man,,,,null,,,,
null,"<img src=""stim_listA/flirt1.gif""style=""height:400px;""></stim_listA>",,html-keyboard-response,271,1032117,0.0-17.0-1.6,70048,List2A,black,man,,,,null,,,,
null,is flirting with,,html-keyboard-response,272,1034121,0.0-17.0-2.6,70048,List2A,black,man,,,,null,,,,
6039,,,survey-text,273,1040162,0.0-17.0-3.6,70048,List2A,black,man,,,,,"{""Q0"":""luke jane""}","<img src=""stim_listA/flirt1.gif""style=""height:400px;""></stim_listA>",is flirting with,
null,"<div style=""font-size:60px;"">+</div>",,html-keyboard-response,274,1040667,0.0-17.0-0.7,70048,List2A,black,man,,,,null,,,,
null,"<img src=""stim_listA/shout5.gif""style=""height:400px;""></stim_listA>",,html-keyboard-response,275,1042671,0.0-17.0-1.7,70048,List2A,black,man,,,,null,,,,
null,is shouting at,,html-keyboard-response,276,1044677,0.0-17.0-2.7,70048,List2A,black,man,,,,null,,,,
5291,,,survey-text,277,1049970,0.0-17.0-3.7,70048,List2A,black,man,,,,,"{""Q0"":""fred luke""}","<img src=""stim_listA/shout5.gif""style=""height:400px;""></stim_listA>",is shouting at,
null,"<div style=""font-size:60px;"">+</div>",,html-keyboard-response,278,1050473,0.0-17.0-0.8,70048,List2A,black,man,,,,null,,,,
null,"<img src=""stim_listA/dance4.gif""style=""height:400px;""></stim_listA>",,html-keyboard-response,279,1052476,0.0-17.0-1.8,70048,List2A,black,man,,,,null,,,,
null,are dancing with each other,,html-keyboard-response,280,1054483,0.0-17.0-2.8,70048,List2A,black,man,,,,null,,,,
6282,,,survey-text,281,1060766,0.0-17.0-3.8,70048,List2A,black,man,,,,,"{""Q0"":""beth fred""}","<img src=""stim_listA/dance4.gif""style=""height:400px;""></stim_listA>",are dancing with each other,
null,"<div style=""font-size:60px;"">+</div>",,html-keyboard-response,282,1061269,0.0-17.0-0.9,70048,List2A,black,man,,,,null,,,,
null,"<img src=""stim_listA/shout2.gif""style=""height:400px;""></stim_listA>",,html-keyboard-response,283,1063278,0.0-17.0-1.9,70048,List2A,black,man,,,,null,,,,
null,are shouting at each other,,html-keyboard-response,284,1065291,0.0-17.0-2.9,70048,List2A,black,man,,,,null,,,,
5665,,,survey-text,285,1070958,0.0-17.0-3.9,70048,List2A,black,man,,,,,"{""Q0"":""jane dave""}","<img src=""stim_listA/shout2.gif""style=""height:400px;""></stim_listA>",are shouting at each other,
null,"<div style=""font-size:60px;"">+</div>",,html-keyboard-response,286,1071461,0.0-17.0-0.10,70048,List2A,black,man,,,,null,,,,
null,"<img src=""stim_listA/play3.gif""style=""height:400px;""></stim_listA>",,html-keyboard-response,287,1073466,0.0-17.0-1.10,70048,List2A,black,man,,,,null,,,,
null,is playing with,,html-keyboard-response,288,1075481,0.0-17.0-2.10,70048,List2A,black,man,,,,null,,,,
7019,,,survey-text,289,1082502,0.0-17.0-3.10,70048,List2A,black,man,,,,,"{""Q0"":""mike kate""}","<img src=""stim_listA/play3.gif""style=""height:400px;""></stim_listA>",is playing with,
null,"<div style=""font-size:60px;"">+</div>",,html-keyboard-response,290,1083005,0.0-17.0-0.11,70048,List2A,black,man,,,,null,,,,
null,"<img src=""stim_listA/kiss7.gif""style=""height:400px;""></stim_listA>",,html-keyboard-response,291,1085015,0.0-17.0-1.11,70048,List2A,black,man,,,,null,,,,
null,is kissing,,html-keyboard-response,292,1087025,0.0-17.0-2.11,70048,List2A,black,man,,,,null,,,,
5707,,,survey-text,293,1092734,0.0-17.0-3.11,70048,List2A,black,man,,,,,"{""Q0"":""beth ruth""}","<img src=""stim_listA/kiss7.gif""style=""height:400px;""></stim_listA>",is kissing,
null,"<div style=""font-size:60px;"">+</div>",,html-keyboard-response,294,1093237,0.0-17.0-0.12,70048,List2A,black,man,,,,null,,,,
null,"<img src=""stim_listA/fight7.gif""style=""height:400px;""></stim_listA>",,html-keyboard-response,295,1095248,0.0-17.0-1.12,70048,List2A,black,man,,,,null,,,,
null,is fighting,,html-keyboard-response,296,1097264,0.0-17.0-2.12,70048,List2A,black,man,,,,null,,,,
17533,,,survey-text,297,1114799,0.0-17.0-3.12,70048,List2A,black,man,,,,,"{""Q0"":""beth jane""}","<img src=""stim_listA/fight7.gif""style=""height:400px;""></stim_listA>",is fighting,
null,"<div style=""font-size:60px;"">+</div>",,html-keyboard-response,298,1115301,0.0-17.0-0.13,70048,List2A,black,man,,,,null,,,,
null,"<img src=""stim_listA/flirt7.gif""style=""height:400px;""></stim_listA>",,html-keyboard-response,299,1117305,0.0-17.0-1.13,70048,List2A,black,man,,,,null,,,,
null,is flirting with,,html-keyboard-response,300,1119311,0.0-17.0-2.13,70048,List2A,black,man,,,,null,,,,
11582,,,survey-text,301,1130895,0.0-17.0-3.13,70048,List2A,black,man,,,,,"{""Q0"":""ruth kate""}","<img src=""stim_listA/flirt7.gif""style=""height:400px;""></stim_listA>",is flirting with,
null,"<div style=""font-size:60px;"">+</div>",,html-keyboard-response,302,1131402,0.0-17.0-0.14,70048,List2A,black,man,,,,null,,,,
null,"<img src=""stim_listA/dance6.gif""style=""height:400px;""></stim_listA>",,html-keyboard-response,303,1133418,0.0-17.0-1.14,70048,List2A,black,man,,,,null,,,,
null,are dancing with each other,,html-keyboard-response,304,1135420,0.0-17.0-2.14,70048,List2A,black,man,,,,null,,,,
7224,,,survey-text,305,1142646,0.0-17.0-3.14,70048,List2A,black,man,,,,,"{""Q0"":""fred dave""}","<img src=""stim_listA/dance6.gif""style=""height:400px;""></stim_listA>",are dancing with each other,
null,"<div style=""font-size:60px;"">+</div>",,html-keyboard-response,306,1143153,0.0-17.0-0.15,70048,List2A,black,man,,,,null,,,,
null,"<img src=""stim_listA/kiss8.gif""style=""height:400px;""></stim_listA>",,html-keyboard-response,307,1145156,0.0-17.0-1.15,70048,List2A,black,man,,,,null,,,,
null,are kissing each other,,html-keyboard-response,308,1147163,0.0-17.0-2.15,70048,List2A,black,man,,,,null,,,,
5906,,,survey-text,309,1153070,0.0-17.0-3.15,70048,List2A,black,man,,,,,"{""Q0"":""kate jane""}","<img src=""stim_listA/kiss8.gif""style=""height:400px;""></stim_listA>",are kissing each other,
null,"<div style=""font-size:60px;"">+</div>",,html-keyboard-response,310,1153573,0.0-17.0-0.16,70048,List2A,black,man,,,,null,,,,
null,"<img src=""stim_listA/touch8.gif""style=""height:400px;""></stim_listA>",,html-keyboard-response,311,1155577,0.0-17.0-1.16,70048,List2A,black,man,,,,null,,,,
null,are touching each other,,html-keyboard-response,312,1157579,0.0-17.0-2.16,70048,List2A,black,man,,,,null,,,,
5753,,,survey-text,313,1163334,0.0-17.0-3.16,70048,List2A,black,man,,,,,"{""Q0"":""beth ruth""}","<img src=""stim_listA/touch8.gif""style=""height:400px;""></stim_listA>",are touching each other,
null,"<div style=""font-size:60px;"">+</div>",,html-keyboard-response,314,1163837,0.0-17.0-0.17,70048,List2A,black,man,,,,null,,,,
null,"<img src=""stim_listA/play6.gif""style=""height:400px;""></stim_listA>",,html-keyboard-response,315,1165840,0.0-17.0-1.17,70048,List2A,black,man,,,,null,,,,
null,are playing with each other,,html-keyboard-response,316,1167845,0.0-17.0-2.17,70048,List2A,black,man,,,,null,,,,
7975,,,survey-text,317,1175822,0.0-17.0-3.17,70048,List2A,black,man,,,,,"{""Q0"":""fred luke""}","<img src=""stim_listA/play6.gif""style=""height:400px;""></stim_listA>",are playing with each other,
null,"<div style=""font-size:60px;"">+</div>",,html-keyboard-response,318,1176325,0.0-17.0-0.18,70048,List2A,black,man,,,,null,,,,
null,"<img src=""stim_listA/shout4.gif""style=""height:400px;""></stim_listA>",,html-keyboard-response,319,1178328,0.0-17.0-1.18,70048,List2A,black,man,,,,null,,,,
null,are shouting at each other,,html-keyboard-response,320,1180333,0.0-17.0-2.18,70048,List2A,black,man,,,,null,,,,
13933,,,survey-text,321,1194268,0.0-17.0-3.18,70048,List2A,black,man,,,,,"{""Q0"":""mike kate""}","<img src=""stim_listA/shout4.gif""style=""height:400px;""></stim_listA>",are shouting at each other,
null,"<div style=""font-size:60px;"">+</div>",,html-keyboard-response,322,1194775,0.0-17.0-0.19,70048,List2A,black,man,,,,null,,,,
null,"<img src=""stim_listA/shout3.gif""style=""height:400px;""></stim_listA>",,html-keyboard-response,323,1196792,0.0-17.0-1.19,70048,List2A,black,man,,,,null,,,,
null,is shouting at,,html-keyboard-response,324,1198794,0.0-17.0-2.19,70048,List2A,black,man,,,,null,,,,
7961,,,survey-text,325,1206757,0.0-17.0-3.19,70048,List2A,black,man,,,,,"{""Q0"":""beth fred""}","<img src=""stim_listA/shout3.gif""style=""height:400px;""></stim_listA>",is shouting at,
5853,"<img src='img/portrait_matrix_list2.jpg' style='width:900px;height:500px;''></img><p>If you have memorised all the portraits and names and are ready to start, press Continue.</p><p><strong>Please note: Your memory of these faces will be tested 4 times during this experiment.</strong></p>",0,html-button-response,326,1212614,0.0-18.0-0.0,70048,List2A,black,man,,,,,,,,
2394,"<img src=""portrait/BM2.jpg""style=""height:400px;""></img>",5,html-button-response,327,1216014,0.0-18.0-1.0,70048,List2A,black,man,,TRUE,5,,,,,
null,CORRECT,,html-keyboard-response,328,1217522,0.0-18.0-2.0-0.0,70048,List2A,black,man,,,,null,,,,
5833,"<img src=""portrait/BW2.jpg""style=""height:400px;""></img>",2,html-button-response,329,1223358,0.0-18.0-4.0,70048,List2A,black,man,,TRUE,2,,,,,
null,CORRECT,,html-keyboard-response,330,1224877,0.0-18.0-5.0-0.0,70048,List2A,black,man,,,,null,,,,
2486,"<img src=""portrait/BW1.jpg""style=""height:400px;""></img>",0,html-button-response,331,1227366,0.0-18.0-7.0,70048,List2A,black,man,,TRUE,0,,,,,
null,CORRECT,,html-keyboard-response,332,1228870,0.0-18.0-8.0-0.0,70048,List2A,black,man,,,,null,,,,
3381,"<img src=""portrait/BM1.jpg""style=""height:400px;""></img>",4,html-button-response,333,1232254,0.0-18.0-10.0,70048,List2A,black,man,,TRUE,4,,,,,
null,CORRECT,,html-keyboard-response,334,1233770,0.0-18.0-11.0-0.0,70048,List2A,black,man,,,,null,,,,
1528,"<img src=""portrait/WM1.jpg""style=""height:400px;""></img>",6,html-button-response,335,1235302,0.0-18.0-13.0,70048,List2A,black,man,,TRUE,6,,,,,
null,CORRECT,,html-keyboard-response,336,1236830,0.0-18.0-14.0-0.0,70048,List2A,black,man,,,,null,,,,
4334,"<img src=""portrait/WW1.jpg""style=""height:400px;""></img>",1,html-button-response,337,1241167,0.0-18.0-16.0,70048,List2A,black,man,,TRUE,1,,,,,
null,CORRECT,,html-keyboard-response,338,1242670,0.0-18.0-17.0-0.0,70048,List2A,black,man,,,,null,,,,
2245,"<img src=""portrait/WW2.jpg""style=""height:400px;""></img>",3,html-button-response,339,1244918,0.0-18.0-19.0,70048,List2A,black,man,,TRUE,3,,,,,
null,CORRECT,,html-keyboard-response,340,1246425,0.0-18.0-20.0-0.0,70048,List2A,black,man,,,,null,,,,
1619,"<img src=""portrait/WM2.jpg""style=""height:400px;""></img>",7,html-button-response,341,1248046,0.0-18.0-22.0,70048,List2A,black,man,,TRUE,7,,,,,
null,CORRECT,,html-keyboard-response,342,1249550,0.0-18.0-23.0-0.0,70048,List2A,black,man,,,,null,,,,
1270,<p>You got 8 out of 8 right first time. Press Continue.</p>,0,html-button-response,343,1250822,0.0-18.0-25.0,70048,List2A,black,man,,,,,,,,
null,"<div style=""font-size:60px;"">+</div>",,html-keyboard-response,344,1252325,0.0-19.0-0.0,70048,List2A,black,man,,,,null,,,,
null,"<img src=""stim_listA/argue1.gif""style=""height:400px;""></stim_listA>",,html-keyboard-response,345,1254341,0.0-19.0-1.0,70048,List2A,black,man,,,,null,,,,
null,is arguing with,,html-keyboard-response,346,1256343,0.0-19.0-2.0,70048,List2A,black,man,,,,null,,,,
159649,,,survey-text,347,1415994,0.0-19.0-3.0,70048,List2A,black,man,,,,,"{""Q0"":""dave ruth""}","<img src=""stim_listA/argue1.gif""style=""height:400px;""></stim_listA>",is arguing with,
null,"<div style=""font-size:60px;"">+</div>",,html-keyboard-response,348,1416496,0.0-19.0-0.1,70048,List2A,black,man,,,,null,,,,
null,"<img src=""stim_listA/touch3.gif""style=""height:400px;""></stim_listA>",,html-keyboard-response,349,1418500,0.0-19.0-1.1,70048,List2A,black,man,,,,null,,,,
null,is touching,,html-keyboard-response,350,1420502,0.0-19.0-2.1,70048,List2A,black,man,,,,null,,,,
11146,,,survey-text,351,1431650,0.0-19.0-3.1,70048,List2A,black,man,,,,,"{""Q0"":""dave ruth""}","<img src=""stim_listA/touch3.gif""style=""height:400px;""></stim_listA>",is touching,
null,"<div style=""font-size:60px;"">+</div>",,html-keyboard-response,352,1432159,0.0-19.0-0.2,70048,List2A,black,man,,,,null,,,,
null,"<img src=""stim_listA/fight3.gif""style=""height:400px;""></stim_listA>",,html-keyboard-response,353,1434162,0.0-19.0-1.2,70048,List2A,black,man,,,,null,,,,
null,is fighting,,html-keyboard-response,354,1436165,0.0-19.0-2.2,70048,List2A,black,man,,,,null,,,,
10090,,,survey-text,355,1446257,0.0-19.0-3.2,70048,List2A,black,man,,,,,"{""Q0"":""mike kate""}","<img src=""stim_listA/fight3.gif""style=""height:400px;""></stim_listA>",is fighting,
null,"<div style=""font-size:60px;"">+</div>",,html-keyboard-response,356,1446760,0.0-19.0-0.3,70048,List2A,black,man,,,,null,,,,
null,"<img src=""stim_listA/touch1.gif""style=""height:400px;""></stim_listA>",,html-keyboard-response,357,1448763,0.0-19.0-1.3,70048,List2A,black,man,,,,null,,,,
null,is touching,,html-keyboard-response,358,1450770,0.0-19.0-2.3,70048,List2A,black,man,,,,null,,,,
7941,,,survey-text,359,1458713,0.0-19.0-3.3,70048,List2A,black,man,,,,,"{""Q0"":""jane dave""}","<img src=""stim_listA/touch1.gif""style=""height:400px;""></stim_listA>",is touching,
null,"<div style=""font-size:60px;"">+</div>",,html-keyboard-response,360,1459224,0.0-19.0-0.4,70048,List2A,black,man,,,,null,,,,
null,"<img src=""stim_listA/fight8.gif""style=""height:400px;""></stim_listA>",,html-keyboard-response,361,1461241,0.0-19.0-1.4,70048,List2A,black,man,,,,null,,,,
null,are fighting each other,,html-keyboard-response,362,1463248,0.0-19.0-2.4,70048,List2A,black,man,,,,null,,,,
8192,,,survey-text,363,1471441,0.0-19.0-3.4,70048,List2A,black,man,,,,,"{""Q0"":""ruth beth""}","<img src=""stim_listA/fight8.gif""style=""height:400px;""></stim_listA>",are fighting each other,
null,"<div style=""font-size:60px;"">+</div>",,html-keyboard-response,364,1471945,0.0-19.0-0.5,70048,List2A,black,man,,,,null,,,,
null,"<img src=""stim_listA/fight4.gif""style=""height:400px;""></stim_listA>",,html-keyboard-response,365,1473948,0.0-19.0-1.5,70048,List2A,black,man,,,,null,,,,
null,are fighting each other,,html-keyboard-response,366,1475964,0.0-19.0-2.5,70048,List2A,black,man,,,,null,,,,
5096,,,survey-text,367,1481062,0.0-19.0-3.5,70048,List2A,black,man,,,,,"{""Q0"":""fred beth""}","<img src=""stim_listA/fight4.gif""style=""height:400px;""></stim_listA>",are fighting each other,
null,"<div style=""font-size:60px;"">+</div>",,html-keyboard-response,368,1481565,0.0-19.0-0.6,70048,List2A,black,man,,,,null,,,,
null,"<img src=""stim_listA/flirt4.gif""style=""height:400px;""></stim_listA>",,html-keyboard-response,369,1483569,0.0-19.0-1.6,70048,List2A,black,man,,,,null,,,,
null,are flirting with each other,,html-keyboard-response,370,1485571,0.0-19.0-2.6,70048,List2A,black,man,,,,null,,,,
5425,,,survey-text,371,1490998,0.0-19.0-3.6,70048,List2A,black,man,,,,,"{""Q0"":""mike beth""}","<img src=""stim_listA/flirt4.gif""style=""height:400px;""></stim_listA>",are flirting with each other,
null,"<div style=""font-size:60px;"">+</div>",,html-keyboard-response,372,1491501,0.0-19.0-0.7,70048,List2A,black,man,,,,null,,,,
null,"<img src=""stim_listA/play2.gif""style=""height:400px;""></stim_listA>",,html-keyboard-response,373,1493504,0.0-19.0-1.7,70048,List2A,black,man,,,,null,,,,
null,are playing with each other,,html-keyboard-response,374,1495516,0.0-19.0-2.7,70048,List2A,black,man,,,,null,,,,
6880,,,survey-text,375,1502398,0.0-19.0-3.7,70048,List2A,black,man,,,,,"{""Q0"":""luke ruth""}","<img src=""stim_listA/play2.gif""style=""height:400px;""></stim_listA>",are playing with each other,
null,"<div style=""font-size:60px;"">+</div>",,html-keyboard-response,376,1502907,0.0-19.0-0.8,70048,List2A,black,man,,,,null,,,,
null,"<img src=""stim_listA/kiss5.gif""style=""height:400px;""></stim_listA>",,html-keyboard-response,377,1504909,0.0-19.0-1.8,70048,List2A,black,man,,,,null,,,,
null,is kissing,,html-keyboard-response,378,1506921,0.0-19.0-2.8,70048,List2A,black,man,,,,null,,,,
39419,,,survey-text,379,1546342,0.0-19.0-3.8,70048,List2A,black,man,,,,,"{""Q0"":""ruth luke""}","<img src=""stim_listA/kiss5.gif""style=""height:400px;""></stim_listA>",is kissing,
null,"<div style=""font-size:60px;"">+</div>",,html-keyboard-response,380,1546856,0.0-19.0-0.9,70048,List2A,black,man,,,,null,,,,
null,"<img src=""stim_listA/dance8.gif""style=""height:400px;""></stim_listA>",,html-keyboard-response,381,1548861,0.0-19.0-1.9,70048,List2A,black,man,,,,null,,,,
null,are dancing with each other,,html-keyboard-response,382,1550870,0.0-19.0-2.9,70048,List2A,black,man,,,,null,,,,
6118,,,survey-text,383,1556990,0.0-19.0-3.9,70048,List2A,black,man,,,,,"{""Q0"":""beth jane""}","<img src=""stim_listA/dance8.gif""style=""height:400px;""></stim_listA>",are dancing with each other,
null,"<div style=""font-size:60px;"">+</div>",,html-keyboard-response,384,1557501,0.0-19.0-0.10,70048,List2A,black,man,,,,null,,,,
null,"<img src=""stim_listA/kiss2.gif""style=""height:400px;""></stim_listA>",,html-keyboard-response,385,1559520,0.0-19.0-1.10,70048,List2A,black,man,,,,null,,,,
null,are kissing each other,,html-keyboard-response,386,1561523,0.0-19.0-2.10,70048,List2A,black,man,,,,null,,,,
7888,,,survey-text,387,1569414,0.0-19.0-3.10,70048,List2A,black,man,,,,,"{""Q0"":""ruth jane""}","<img src=""stim_listA/kiss2.gif""style=""height:400px;""></stim_listA>",are kissing each other,
null,"<div style=""font-size:60px;"">+</div>",,html-keyboard-response,388,1569922,0.0-19.0-0.11,70048,List2A,black,man,,,,null,,,,
null,"<img src=""stim_listA/touch7.gif""style=""height:400px;""></stim_listA>",,html-keyboard-response,389,1571939,0.0-19.0-1.11,70048,List2A,black,man,,,,null,,,,
null,is touching,,html-keyboard-response,390,1573940,0.0-19.0-2.11,70048,List2A,black,man,,,,null,,,,
5375,,,survey-text,391,1579317,0.0-19.0-3.11,70048,List2A,black,man,,,,,"{""Q0"":""kate jane""}","<img src=""stim_listA/touch7.gif""style=""height:400px;""></stim_listA>",is touching,
null,"<div style=""font-size:60px;"">+</div>",,html-keyboard-response,392,1579829,0.0-19.0-0.12,70048,List2A,black,man,,,,null,,,,
null,"<img src=""stim_listA/marry4.gif""style=""height:400px;""></stim_listA>",,html-keyboard-response,393,1581839,0.0-19.0-1.12,70048,List2A,black,man,,,,null,,,,
null,are marrying each other,,html-keyboard-response,394,1583855,0.0-19.0-2.12,70048,List2A,black,man,,,,null,,,,
12892,,,survey-text,395,1596749,0.0-19.0-3.12,70048,List2A,black,man,,,,,"{""Q0"":""fred kate""}","<img src=""stim_listA/marry4.gif""style=""height:400px;""></stim_listA>",are marrying each other,
null,"<div style=""font-size:60px;"">+</div>",,html-keyboard-response,396,1597255,0.0-19.0-0.13,70048,List2A,black,man,,,,null,,,,
null,"<img src=""stim_listA/argue6.gif""style=""height:400px;""></stim_listA>",,html-keyboard-response,397,1599270,0.0-19.0-1.13,70048,List2A,black,man,,,,null,,,,
null,are arguing with each other,,html-keyboard-response,398,1601283,0.0-19.0-2.13,70048,List2A,black,man,,,,null,,,,
6878,,,survey-text,399,1608163,0.0-19.0-3.13,70048,List2A,black,man,,,,,"{""Q0"":""mike luke""}","<img src=""stim_listA/argue6.gif""style=""height:400px;""></stim_listA>",are arguing with each other,
null,"<div style=""font-size:60px;"">+</div>",,html-keyboard-response,400,1608678,0.0-19.0-0.14,70048,List2A,black,man,,,,null,,,,
null,"<img src=""stim_listA/talk7.gif""style=""height:400px;""></stim_listA>",,html-keyboard-response,401,1610684,0.0-19.0-1.14,70048,List2A,black,man,,,,null,,,,
null,is talking to,,html-keyboard-response,402,1612686,0.0-19.0-2.14,70048,List2A,black,man,,,,null,,,,
15634,,,survey-text,403,1628322,0.0-19.0-3.14,70048,List2A,black,man,,,,,"{""Q0"":""ruth beth""}","<img src=""stim_listA/talk7.gif""style=""height:400px;""></stim_listA>",is talking to,
null,"<div style=""font-size:60px;"">+</div>",,html-keyboard-response,404,1628835,0.0-19.0-0.15,70048,List2A,black,man,,,,null,,,,
null,"<img src=""stim_listA/fight1.gif""style=""height:400px;""></stim_listA>",,html-keyboard-response,405,1630838,0.0-19.0-1.15,70048,List2A,black,man,,,,null,,,,
null,is fighting,,html-keyboard-response,406,1632854,0.0-19.0-2.15,70048,List2A,black,man,,,,null,,,,
4683,,,survey-text,407,1637539,0.0-19.0-3.15,70048,List2A,black,man,,,,,"{""Q0"":""jane dave""}","<img src=""stim_listA/fight1.gif""style=""height:400px;""></stim_listA>",is fighting,
null,"<div style=""font-size:60px;"">+</div>",,html-keyboard-response,408,1638050,0.0-19.0-0.16,70048,List2A,black,man,,,,null,,,,
null,"<img src=""stim_listA/touch6.gif""style=""height:400px;""></stim_listA>",,html-keyboard-response,409,1640066,0.0-19.0-1.16,70048,List2A,black,man,,,,null,,,,
null,are touching each other,,html-keyboard-response,410,1642068,0.0-19.0-2.16,70048,List2A,black,man,,,,null,,,,
4763,,,survey-text,411,1646834,0.0-19.0-3.16,70048,List2A,black,man,,,,,"{""Q0"":""fred luke""}","<img src=""stim_listA/touch6.gif""style=""height:400px;""></stim_listA>",are touching each other,
null,"<div style=""font-size:60px;"">+</div>",,html-keyboard-response,412,1647347,0.0-19.0-0.17,70048,List2A,black,man,,,,null,,,,
null,"<img src=""stim_listA/play4.gif""style=""height:400px;""></stim_listA>",,html-keyboard-response,413,1649361,0.0-19.0-1.17,70048,List2A,black,man,,,,null,,,,
null,are playing with each other,,html-keyboard-response,414,1651377,0.0-19.0-2.17,70048,List2A,black,man,,,,null,,,,
7743,,,survey-text,415,1659122,0.0-19.0-3.17,70048,List2A,black,man,,,,,"{""Q0"":""beth fred""}","<img src=""stim_listA/play4.gif""style=""height:400px;""></stim_listA>",are playing with each other,
null,"<div style=""font-size:60px;"">+</div>",,html-keyboard-response,416,1659625,0.0-19.0-0.18,70048,List2A,black,man,,,,null,,,,
null,"<img src=""stim_listA/touch5.gif""style=""height:400px;""></stim_listA>",,html-keyboard-response,417,1661642,0.0-19.0-1.18,70048,List2A,black,man,,,,null,,,,
null,is touching,,html-keyboard-response,418,1663658,0.0-19.0-2.18,70048,List2A,black,man,,,,null,,,,
15870,,,survey-text,419,1679530,0.0-19.0-3.18,70048,List2A,black,man,,,,,"{""Q0"":""fred luke""}","<img src=""stim_listA/touch5.gif""style=""height:400px;""></stim_listA>",is touching,
null,"<div style=""font-size:60px;"">+</div>",,html-keyboard-response,420,1680041,0.0-19.0-0.19,70048,List2A,black,man,,,,null,,,,
null,"<img src=""stim_listA/play7.gif""style=""height:400px;""></stim_listA>",,html-keyboard-response,421,1682048,0.0-19.0-1.19,70048,List2A,black,man,,,,null,,,,
null,is playing with,,html-keyboard-response,422,1684062,0.0-19.0-2.19,70048,List2A,black,man,,,,null,,,,
8194,,,survey-text,423,1692258,0.0-19.0-3.19,70048,List2A,black,man,,,,,"{""Q0"":""jane kate""}","<img src=""stim_listA/play7.gif""style=""height:400px;""></stim_listA>",is playing with,
3197,<p>Thank you for completing that task.</p><p>The final part of this session is a short questionnaire.</p><p>Press Continue.</p>,0,html-button-response,424,1695459,0.0-20.0,70048,List2A,black,man,,,,,,,,
30662,,,survey-text,425,1727138,0.0-21.0,70048,List2A,black,man,,,,,"{""Q0"":""35"",""Q1"":""English"",""Q2"":""English"",""Q3"":""USA"",""Q4"":""Black"",""Q5"":""Male""}",,,demographics
12047,,,survey-likert,426,1739192,0.0-22.0,70048,List2A,black,man,,,,,"{""Q0"":3}",,,likert_ESS
12482,,,survey-likert,427,1751687,0.0-23.0,70048,List2A,black,man,,,,,"{""Q0"":5}",,,likert_NSSAL_Q1
5843,,,survey-likert,428,1757544,0.0-24.0,70048,List2A,black,man,,,,,"{""Q0"":5}",,,likert_NSSAL_Q2
8492,,,survey-likert,429,1766055,0.0-25.0,70048,List2A,black,man,,,,,"{""Q0"":5}",,,likert_CGRS_Q1
4666,,,survey-likert,430,1770735,0.0-26.0,70048,List2A,black,man,,,,,"{""Q0"":1}",,,likert_CGRS_Q2
11425,,,survey-likert,431,1782175,0.0-27.0,70048,List2A,black,man,,,,,"{""Q0"":1}",,,likert_CGRS_Q3
4089,,,survey-text,432,1786278,0.0-28.0,70048,List2A,black,man,,,,,"{""Q0"":""ccc""}",,,worker_id
14803,,,external-html,433,1801338,0.0-29.0,70048,List2A,black,man,debrief.html,,,,,,,
