rt,stimulus,button_pressed,trial_type,trial_index,time_elapsed,internal_node_id,subject,list,ppt_race,ppt_gender,url,first_guess,correct,key_press,responses,image_type,phrase_type,test_part
2483,Welcome to the experiment. Press Continue to begin.,0,html-button-response,0,2489,0.0-0.0,7017,List2B,white,man,,,,,,,,
49578,,,external-html,1,53165,0.0-1.0,7017,List2B,white,man,consent.html,,,,,,,
29717,"<p>On the next page, you will see portraits of 8 people and their names.</p><p>Your first task is to take a few minutes to memorise the names of these people.</p><p>You will have to recall their names during the rest of the experiment, so it is</p><p>essential that you try to memorise these people and their names as best as you can.</p><br><p><strong>You will then be tested on your memory of these names and portraits.</strong></p><br><p>The experiment will start after you have completed this memory test.</p><br><p>Ready?</p>",0,html-button-response,2,82885,0.0-2.0,7017,List2B,white,man,,,,,,,,
111150,"<img src='img/portrait_matrix_list2.jpg' style='width:900px;height:500px;''></img><p>If you have memorised all the portraits and names and are ready to start, press Continue.</p><p><strong>Please note: Your memory of these faces will be tested 4 times during this experiment.</strong></p>",0,html-button-response,3,195048,0.0-3.0-0.0,7017,List2B,white,man,,,,,,,,
21650,"<img src=""portrait/WW1.jpg""style=""height:400px;""></img>",1,html-button-response,4,217703,0.0-3.0-1.0,7017,List2B,white,man,,TRUE,1,,,,,
null,CORRECT,,html-keyboard-response,5,219254,0.0-3.0-2.0-0.0,7017,List2B,white,man,,,,null,,,,
6269,"<img src=""portrait/WM1.jpg""style=""height:400px;""></img>",6,html-button-response,6,225528,0.0-3.0-4.0,7017,List2B,white,man,,TRUE,6,,,,,
null,CORRECT,,html-keyboard-response,7,227051,0.0-3.0-5.0-0.0,7017,List2B,white,man,,,,null,,,,
8546,"<img src=""portrait/BW2.jpg""style=""height:400px;""></img>",2,html-button-response,8,235600,0.0-3.0-7.0,7017,List2B,white,man,,TRUE,2,,,,,
null,CORRECT,,html-keyboard-response,9,237145,0.0-3.0-8.0-0.0,7017,List2B,white,man,,,,null,,,,
9024,"<img src=""portrait/BW1.jpg""style=""height:400px;""></img>",0,html-button-response,10,246173,0.0-3.0-10.0,7017,List2B,white,man,,TRUE,0,,,,,
null,CORRECT,,html-keyboard-response,11,247708,0.0-3.0-11.0-0.0,7017,List2B,white,man,,,,null,,,,
6536,"<img src=""portrait/WW2.jpg""style=""height:400px;""></img>",3,html-button-response,12,254248,0.0-3.0-13.0,7017,List2B,white,man,,TRUE,3,,,,,
null,CORRECT,,html-keyboard-response,13,255769,0.0-3.0-14.0-0.0,7017,List2B,white,man,,,,null,,,,
7188,"<img src=""portrait/WM2.jpg""style=""height:400px;""></img>",7,html-button-response,14,262961,0.0-3.0-16.0,7017,List2B,white,man,,TRUE,7,,,,,
null,CORRECT,,html-keyboard-response,15,264488,0.0-3.0-17.0-0.0,7017,List2B,white,man,,,,null,,,,
5287,"<img src=""portrait/BM2.jpg""style=""height:400px;""></img>",5,html-button-response,16,269779,0.0-3.0-19.0,7017,List2B,white,man,,TRUE,5,,,,,
null,CORRECT,,html-keyboard-response,17,271316,0.0-3.0-20.0-0.0,7017,List2B,white,man,,,,null,,,,
5108,"<img src=""portrait/BM1.jpg""style=""height:400px;""></img>",4,html-button-response,18,276427,0.0-3.0-22.0,7017,List2B,white,man,,TRUE,4,,,,,
null,CORRECT,,html-keyboard-response,19,277988,0.0-3.0-23.0-0.0,7017,List2B,white,man,,,,null,,,,
2196,<p>You got 8 out of 8 right first time. Press Continue.</p>,0,html-button-response,20,280186,0.0-3.0-25.0,7017,List2B,white,man,,,,,,,,
43916,"<p>In this experiment, you will view photographs of the people from the memory game interacting.</p><p>By using the <strong>exact</strong> phrase given <i>after</i> the photograph appears and recalling the correct names of the people in the photographs, form a sentence describing the interaction. You do not need to capitalise names.</p><p>Type your answer in the space provided. Please complete every sentence before moving onto the next trial.</p><p>You will only have a few seconds to memorise each given photograph and phrase before you can respond, so try your best to focus.</p><p>An example is given below. Press 'Continue' when you are ready.</p><img src='img/speaking_example.jpg' style='width:800px;height:460px;''></img>",0,html-button-response,21,325124,0.0-4.0,7017,List2B,white,man,,,,,,,,
2287,"<p>Before the experiment starts, you will watch two example trials. Press 'Continue'.</p>",0,html-button-response,22,328417,0.0-5.0,7017,List2B,white,man,,,,,,,,
null,<img src='img/meet_eg.gif' style='height:400px;''></img>,,html-keyboard-response,23,331439,0.0-6.0,7017,List2B,white,man,,,,null,,,,
null,<p>is meeting</p>,,html-keyboard-response,24,333439,0.0-7.0,7017,List2B,white,man,,,,null,,,,
2837,<p><b>Answer:</b> jane is meeting ruth</p>,0,html-button-response,25,336279,0.0-8.0,7017,List2B,white,man,,,,,,,,
null,<img src='img/look_eg.gif' style='height:400px;''></img>,,html-keyboard-response,26,339301,0.0-9.0,7017,List2B,white,man,,,,null,,,,
null,<p>are looking at each other</p>,,html-keyboard-response,27,341316,0.0-10.0,7017,List2B,white,man,,,,null,,,,
1695,<p><b>Answer:</b> fred and mike are looking at each other</p>,0,html-button-response,28,343014,0.0-11.0,7017,List2B,white,man,,,,,,,,
3825,"<p>Ready to start the experiment?</p><br><p><strong>Remember to describe the picture using a full sentence,</strong></p><p><strong>that combines the names of the people with the <i>exact</i> phrase given.</strong></p><p><strong>To receive full payment you must do this correctly.</strong></p><p><strong> You do not need to capitalise names or use punctuation.</strong></p><br><p>Press 'Continue' to begin.</p>",0,html-button-response,29,347847,0.0-12.0,7017,List2B,white,man,,,,,,,,
null,"<div style=""font-size:60px;"">+</div>",,html-keyboard-response,30,349393,0.0-13.0-0.0,7017,List2B,white,man,,,,null,,,,
null,"<img src=""stim_listB/dance8.gif""style=""height:400px;""></stim_listB>",,html-keyboard-response,31,351424,0.0-13.0-1.0,7017,List2B,white,man,,,,null,,,,
null,are dancing with each other,,html-keyboard-response,32,353424,0.0-13.0-2.0,7017,List2B,white,man,,,,null,,,,
12460,,,survey-text,33,365888,0.0-13.0-3.0,7017,List2B,white,man,,,,,"{""Q0"":""jane and beth are dancing""}","<img src=""stim_listB/dance8.gif""style=""height:400px;""></stim_listB>",are dancing with each other,
null,"<div style=""font-size:60px;"">+</div>",,html-keyboard-response,34,366394,0.0-13.0-0.1,7017,List2B,white,man,,,,null,,,,
null,"<img src=""stim_listB/touch8.gif""style=""height:400px;""></stim_listB>",,html-keyboard-response,35,368424,0.0-13.0-1.1,7017,List2B,white,man,,,,null,,,,
null,are touching each other,,html-keyboard-response,36,370424,0.0-13.0-2.1,7017,List2B,white,man,,,,null,,,,
26155,,,survey-text,37,396582,0.0-13.0-3.1,7017,List2B,white,man,,,,,"{""Q0"":""ruth and beth are touching each other""}","<img src=""stim_listB/touch8.gif""style=""height:400px;""></stim_listB>",are touching each other,
null,"<div style=""font-size:60px;"">+</div>",,html-keyboard-response,38,397116,0.0-13.0-0.2,7017,List2B,white,man,,,,null,,,,
null,"<img src=""stim_listB/play2.gif""style=""height:400px;""></stim_listB>",,html-keyboard-response,39,399162,0.0-13.0-1.2,7017,List2B,white,man,,,,null,,,,
null,are playing with each other,,html-keyboard-response,40,401163,0.0-13.0-2.2,7017,List2B,white,man,,,,null,,,,
20079,,,survey-text,41,421245,0.0-13.0-3.2,7017,List2B,white,man,,,,,"{""Q0"":""like and ruth are playing cards""}","<img src=""stim_listB/play2.gif""style=""height:400px;""></stim_listB>",are playing with each other,
null,"<div style=""font-size:60px;"">+</div>",,html-keyboard-response,42,421755,0.0-13.0-0.3,7017,List2B,white,man,,,,null,,,,
null,"<img src=""stim_listB/kiss6.gif""style=""height:400px;""></stim_listB>",,html-keyboard-response,43,423787,0.0-13.0-1.3,7017,List2B,white,man,,,,null,,,,
null,are kissing each other,,html-keyboard-response,44,425772,0.0-13.0-2.3,7017,List2B,white,man,,,,null,,,,
30238,,,survey-text,45,456012,0.0-13.0-3.3,7017,List2B,white,man,,,,,"{""Q0"":""mike and fred are kissing each other""}","<img src=""stim_listB/kiss6.gif""style=""height:400px;""></stim_listB>",are kissing each other,
null,"<div style=""font-size:60px;"">+</div>",,html-keyboard-response,46,456538,0.0-13.0-0.4,7017,List2B,white,man,,,,null,,,,
null,"<img src=""stim_listB/talk5.gif""style=""height:400px;""></stim_listB>",,html-keyboard-response,47,458569,0.0-13.0-1.4,7017,List2B,white,man,,,,null,,,,
null,is talking to,,html-keyboard-response,48,460554,0.0-13.0-2.4,7017,List2B,white,man,,,,null,,,,
21569,,,survey-text,49,482126,0.0-13.0-3.4,7017,List2B,white,man,,,,,"{""Q0"":""mike and luke are takling to each other""}","<img src=""stim_listB/talk5.gif""style=""height:400px;""></stim_listB>",is talking to,
null,"<div style=""font-size:60px;"">+</div>",,html-keyboard-response,50,482632,0.0-13.0-0.5,7017,List2B,white,man,,,,null,,,,
null,"<img src=""stim_listB/marry6.gif""style=""height:400px;""></stim_listB>",,html-keyboard-response,51,484663,0.0-13.0-1.5,7017,List2B,white,man,,,,null,,,,
null,are marrying each other,,html-keyboard-response,52,486646,0.0-13.0-2.5,7017,List2B,white,man,,,,null,,,,
21082,,,survey-text,53,507730,0.0-13.0-3.5,7017,List2B,white,man,,,,,"{""Q0"":""mike and luke are marrying each other""}","<img src=""stim_listB/marry6.gif""style=""height:400px;""></stim_listB>",are marrying each other,
null,"<div style=""font-size:60px;"">+</div>",,html-keyboard-response,54,508255,0.0-13.0-0.6,7017,List2B,white,man,,,,null,,,,
null,"<img src=""stim_listB/shout4.gif""style=""height:400px;""></stim_listB>",,html-keyboard-response,55,510271,0.0-13.0-1.6,7017,List2B,white,man,,,,null,,,,
null,are shouting at each other,,html-keyboard-response,56,512287,0.0-13.0-2.6,7017,List2B,white,man,,,,null,,,,
15938,,,survey-text,57,528228,0.0-13.0-3.6,7017,List2B,white,man,,,,,"{""Q0"":""mike and jane are shouting at each other""}","<img src=""stim_listB/shout4.gif""style=""height:400px;""></stim_listB>",are shouting at each other,
null,"<div style=""font-size:60px;"">+</div>",,html-keyboard-response,58,528742,0.0-13.0-0.7,7017,List2B,white,man,,,,null,,,,
null,"<img src=""stim_listB/dance6.gif""style=""height:400px;""></stim_listB>",,html-keyboard-response,59,530757,0.0-13.0-1.7,7017,List2B,white,man,,,,null,,,,
null,are dancing with each other,,html-keyboard-response,60,532758,0.0-13.0-2.7,7017,List2B,white,man,,,,null,,,,
15172,,,survey-text,61,547932,0.0-13.0-3.7,7017,List2B,white,man,,,,,"{""Q0"":""fred and dave are dancing""}","<img src=""stim_listB/dance6.gif""style=""height:400px;""></stim_listB>",are dancing with each other,
null,"<div style=""font-size:60px;"">+</div>",,html-keyboard-response,62,548436,0.0-13.0-0.8,7017,List2B,white,man,,,,null,,,,
null,"<img src=""stim_listB/marry3.gif""style=""height:400px;""></stim_listB>",,html-keyboard-response,63,550461,0.0-13.0-1.8,7017,List2B,white,man,,,,null,,,,
null,is marrying,,html-keyboard-response,64,552458,0.0-13.0-2.8,7017,List2B,white,man,,,,null,,,,
23559,,,survey-text,65,576020,0.0-13.0-3.8,7017,List2B,white,man,,,,,"{""Q0"":""beth is marrying mike""}","<img src=""stim_listB/marry3.gif""style=""height:400px;""></stim_listB>",is marrying,
null,"<div style=""font-size:60px;"">+</div>",,html-keyboard-response,66,576524,0.0-13.0-0.9,7017,List2B,white,man,,,,null,,,,
null,"<img src=""stim_listB/shout7.gif""style=""height:400px;""></stim_listB>",,html-keyboard-response,67,578539,0.0-13.0-1.9,7017,List2B,white,man,,,,null,,,,
null,is shouting at,,html-keyboard-response,68,580555,0.0-13.0-2.9,7017,List2B,white,man,,,,null,,,,
19214,,,survey-text,69,599771,0.0-13.0-3.9,7017,List2B,white,man,,,,,"{""Q0"":""ruth is shouting at beth""}","<img src=""stim_listB/shout7.gif""style=""height:400px;""></stim_listB>",is shouting at,
null,"<div style=""font-size:60px;"">+</div>",,html-keyboard-response,70,600288,0.0-13.0-0.10,7017,List2B,white,man,,,,null,,,,
null,"<img src=""stim_listB/flirt1.gif""style=""height:400px;""></stim_listB>",,html-keyboard-response,71,602318,0.0-13.0-1.10,7017,List2B,white,man,,,,null,,,,
null,is flirting with,,html-keyboard-response,72,604303,0.0-13.0-2.10,7017,List2B,white,man,,,,null,,,,
19508,,,survey-text,73,623814,0.0-13.0-3.10,7017,List2B,white,man,,,,,"{""Q0"":""jane is flerting with luke""}","<img src=""stim_listB/flirt1.gif""style=""height:400px;""></stim_listB>",is flirting with,
null,"<div style=""font-size:60px;"">+</div>",,html-keyboard-response,74,624319,0.0-13.0-0.11,7017,List2B,white,man,,,,null,,,,
null,"<img src=""stim_listB/talk2.gif""style=""height:400px;""></stim_listB>",,html-keyboard-response,75,626335,0.0-13.0-1.11,7017,List2B,white,man,,,,null,,,,
null,are talking to each other,,html-keyboard-response,76,628348,0.0-13.0-2.11,7017,List2B,white,man,,,,null,,,,
24415,,,survey-text,77,652766,0.0-13.0-3.11,7017,List2B,white,man,,,,,"{""Q0"":""ruth and dave are talking to each other""}","<img src=""stim_listB/talk2.gif""style=""height:400px;""></stim_listB>",are talking to each other,
null,"<div style=""font-size:60px;"">+</div>",,html-keyboard-response,78,653271,0.0-13.0-0.12,7017,List2B,white,man,,,,null,,,,
null,"<img src=""stim_listB/dance4.gif""style=""height:400px;""></stim_listB>",,html-keyboard-response,79,655286,0.0-13.0-1.12,7017,List2B,white,man,,,,null,,,,
null,are dancing with each other,,html-keyboard-response,80,657280,0.0-13.0-2.12,7017,List2B,white,man,,,,null,,,,
19257,,,survey-text,81,676541,0.0-13.0-3.12,7017,List2B,white,man,,,,,"{""Q0"":""mike and beth are dancing with each other""}","<img src=""stim_listB/dance4.gif""style=""height:400px;""></stim_listB>",are dancing with each other,
null,"<div style=""font-size:60px;"">+</div>",,html-keyboard-response,82,677056,0.0-13.0-0.13,7017,List2B,white,man,,,,null,,,,
null,"<img src=""stim_listB/argue3.gif""style=""height:400px;""></stim_listB>",,html-keyboard-response,83,679094,0.0-13.0-1.13,7017,List2B,white,man,,,,null,,,,
null,is arguing with,,html-keyboard-response,84,681072,0.0-13.0-2.13,7017,List2B,white,man,,,,null,,,,
13931,,,survey-text,85,695006,0.0-13.0-3.13,7017,List2B,white,man,,,,,"{""Q0"":""mike is arguing with beth""}","<img src=""stim_listB/argue3.gif""style=""height:400px;""></stim_listB>",is arguing with,
null,"<div style=""font-size:60px;"">+</div>",,html-keyboard-response,86,695512,0.0-13.0-0.14,7017,List2B,white,man,,,,null,,,,
null,"<img src=""stim_listB/fight5.gif""style=""height:400px;""></stim_listB>",,html-keyboard-response,87,697542,0.0-13.0-1.14,7017,List2B,white,man,,,,null,,,,
null,is fighting,,html-keyboard-response,88,699541,0.0-13.0-2.14,7017,List2B,white,man,,,,null,,,,
9910,,,survey-text,89,709454,0.0-13.0-3.14,7017,List2B,white,man,,,,,"{""Q0"":""dave is fighting mike""}","<img src=""stim_listB/fight5.gif""style=""height:400px;""></stim_listB>",is fighting,
null,"<div style=""font-size:60px;"">+</div>",,html-keyboard-response,90,709964,0.0-13.0-0.15,7017,List2B,white,man,,,,null,,,,
null,"<img src=""stim_listB/play6.gif""style=""height:400px;""></stim_listB>",,html-keyboard-response,91,711996,0.0-13.0-1.15,7017,List2B,white,man,,,,null,,,,
null,are playing with each other,,html-keyboard-response,92,713994,0.0-13.0-2.15,7017,List2B,white,man,,,,null,,,,
27696,,,survey-text,93,741693,0.0-13.0-3.15,7017,List2B,white,man,,,,,"{""Q0"":""luke and mike are playing with each other""}","<img src=""stim_listB/play6.gif""style=""height:400px;""></stim_listB>",are playing with each other,
null,"<div style=""font-size:60px;"">+</div>",,html-keyboard-response,94,742197,0.0-13.0-0.16,7017,List2B,white,man,,,,null,,,,
null,"<img src=""stim_listB/shout3.gif""style=""height:400px;""></stim_listB>",,html-keyboard-response,95,744228,0.0-13.0-1.16,7017,List2B,white,man,,,,null,,,,
null,is shouting at,,html-keyboard-response,96,746212,0.0-13.0-2.16,7017,List2B,white,man,,,,null,,,,
17908,,,survey-text,97,764123,0.0-13.0-3.16,7017,List2B,white,man,,,,,"{""Q0"":""beth is shouting at fred""}","<img src=""stim_listB/shout3.gif""style=""height:400px;""></stim_listB>",is shouting at,
null,"<div style=""font-size:60px;"">+</div>",,html-keyboard-response,98,764635,0.0-13.0-0.17,7017,List2B,white,man,,,,null,,,,
null,"<img src=""stim_listB/kiss8.gif""style=""height:400px;""></stim_listB>",,html-keyboard-response,99,766649,0.0-13.0-1.17,7017,List2B,white,man,,,,null,,,,
null,are kissing each other,,html-keyboard-response,100,768650,0.0-13.0-2.17,7017,List2B,white,man,,,,null,,,,
26094,,,survey-text,101,794747,0.0-13.0-3.17,7017,List2B,white,man,,,,,"{""Q0"":""jane and kate are kissing each other""}","<img src=""stim_listB/kiss8.gif""style=""height:400px;""></stim_listB>",are kissing each other,
null,"<div style=""font-size:60px;"">+</div>",,html-keyboard-response,102,795261,0.0-13.0-0.18,7017,List2B,white,man,,,,null,,,,
null,"<img src=""stim_listB/kiss2.gif""style=""height:400px;""></stim_listB>",,html-keyboard-response,103,797274,0.0-13.0-1.18,7017,List2B,white,man,,,,null,,,,
null,are kissing each other,,html-keyboard-response,104,799278,0.0-13.0-2.18,7017,List2B,white,man,,,,null,,,,
14561,,,survey-text,105,813842,0.0-13.0-3.18,7017,List2B,white,man,,,,,"{""Q0"":""dave and jane are kissing each other""}","<img src=""stim_listB/kiss2.gif""style=""height:400px;""></stim_listB>",are kissing each other,
null,"<div style=""font-size:60px;"">+</div>",,html-keyboard-response,106,814354,0.0-13.0-0.19,7017,List2B,white,man,,,,null,,,,
null,"<img src=""stim_listB/dance2.gif""style=""height:400px;""></stim_listB>",,html-keyboard-response,107,816385,0.0-13.0-1.19,7017,List2B,white,man,,,,null,,,,
null,are dancing with each other,,html-keyboard-response,108,818385,0.0-13.0-2.19,7017,List2B,white,man,,,,null,,,,
27207,,,survey-text,109,845595,0.0-13.0-3.19,7017,List2B,white,man,,,,,"{""Q0"":""ruth and dave are dancing with each other""}","<img src=""stim_listB/dance2.gif""style=""height:400px;""></stim_listB>",are dancing with each other,
22132,"<img src='img/portrait_matrix_list2.jpg' style='width:900px;height:500px;''></img><p>If you have memorised all the portraits and names and are ready to start, press Continue.</p><p><strong>Please note: Your memory of these faces will be tested 4 times during this experiment.</strong></p>",0,html-button-response,110,867730,0.0-14.0-0.0,7017,List2B,white,man,,,,,,,,
4709,"<img src=""portrait/WW1.jpg""style=""height:400px;""></img>",1,html-button-response,111,873458,0.0-14.0-1.0,7017,List2B,white,man,,TRUE,1,,,,,
null,CORRECT,,html-keyboard-response,112,874996,0.0-14.0-2.0-0.0,7017,List2B,white,man,,,,null,,,,
3898,"<img src=""portrait/WW2.jpg""style=""height:400px;""></img>",3,html-button-response,113,878900,0.0-14.0-4.0,7017,List2B,white,man,,TRUE,3,,,,,
null,CORRECT,,html-keyboard-response,114,880448,0.0-14.0-5.0-0.0,7017,List2B,white,man,,,,null,,,,
1985,"<img src=""portrait/BM1.jpg""style=""height:400px;""></img>",4,html-button-response,115,882438,0.0-14.0-7.0,7017,List2B,white,man,,TRUE,4,,,,,
null,CORRECT,,html-keyboard-response,116,883979,0.0-14.0-8.0-0.0,7017,List2B,white,man,,,,null,,,,
2934,"<img src=""portrait/WM2.jpg""style=""height:400px;""></img>",7,html-button-response,117,886916,0.0-14.0-10.0,7017,List2B,white,man,,TRUE,7,,,,,
null,CORRECT,,html-keyboard-response,118,888465,0.0-14.0-11.0-0.0,7017,List2B,white,man,,,,null,,,,
2584,"<img src=""portrait/WM1.jpg""style=""height:400px;""></img>",6,html-button-response,119,891054,0.0-14.0-13.0,7017,List2B,white,man,,TRUE,6,,,,,
null,CORRECT,,html-keyboard-response,120,892557,0.0-14.0-14.0-0.0,7017,List2B,white,man,,,,null,,,,
5882,"<img src=""portrait/BW2.jpg""style=""height:400px;""></img>",2,html-button-response,121,898446,0.0-14.0-16.0,7017,List2B,white,man,,TRUE,2,,,,,
null,CORRECT,,html-keyboard-response,122,899964,0.0-14.0-17.0-0.0,7017,List2B,white,man,,,,null,,,,
7082,"<img src=""portrait/BW1.jpg""style=""height:400px;""></img>",0,html-button-response,123,907052,0.0-14.0-19.0,7017,List2B,white,man,,TRUE,0,,,,,
null,CORRECT,,html-keyboard-response,124,908605,0.0-14.0-20.0-0.0,7017,List2B,white,man,,,,null,,,,
2432,"<img src=""portrait/BM2.jpg""style=""height:400px;""></img>",5,html-button-response,125,911042,0.0-14.0-22.0,7017,List2B,white,man,,TRUE,5,,,,,
null,CORRECT,,html-keyboard-response,126,912588,0.0-14.0-23.0-0.0,7017,List2B,white,man,,,,null,,,,
1875,<p>You got 8 out of 8 right first time. Press Continue.</p>,0,html-button-response,127,914465,0.0-14.0-25.0,7017,List2B,white,man,,,,,,,,
null,"<div style=""font-size:60px;"">+</div>",,html-keyboard-response,128,915980,0.0-15.0-0.0,7017,List2B,white,man,,,,null,,,,
null,"<img src=""stim_listB/marry7.gif""style=""height:400px;""></stim_listB>",,html-keyboard-response,129,917997,0.0-15.0-1.0,7017,List2B,white,man,,,,null,,,,
null,is marrying,,html-keyboard-response,130,919997,0.0-15.0-2.0,7017,List2B,white,man,,,,null,,,,
20677,,,survey-text,131,940677,0.0-15.0-3.0,7017,List2B,white,man,,,,,"{""Q0"":""jane is marrying beth""}","<img src=""stim_listB/marry7.gif""style=""height:400px;""></stim_listB>",is marrying,
null,"<div style=""font-size:60px;"">+</div>",,html-keyboard-response,132,941181,0.0-15.0-0.1,7017,List2B,white,man,,,,null,,,,
null,"<img src=""stim_listB/talk8.gif""style=""height:400px;""></stim_listB>",,html-keyboard-response,133,943212,0.0-15.0-1.1,7017,List2B,white,man,,,,null,,,,
null,are talking to each other,,html-keyboard-response,134,945213,0.0-15.0-2.1,7017,List2B,white,man,,,,null,,,,
19910,,,survey-text,135,965126,0.0-15.0-3.1,7017,List2B,white,man,,,,,"{""Q0"":""jane and beth are talking to each other""}","<img src=""stim_listB/talk8.gif""style=""height:400px;""></stim_listB>",are talking to each other,
null,"<div style=""font-size:60px;"">+</div>",,html-keyboard-response,136,965635,0.0-15.0-0.2,7017,List2B,white,man,,,,null,,,,
null,"<img src=""stim_listB/marry2.gif""style=""height:400px;""></stim_listB>",,html-keyboard-response,137,967653,0.0-15.0-1.2,7017,List2B,white,man,,,,null,,,,
null,are marrying each other,,html-keyboard-response,138,969667,0.0-15.0-2.2,7017,List2B,white,man,,,,null,,,,
22405,,,survey-text,139,992074,0.0-15.0-3.2,7017,List2B,white,man,,,,,"{""Q0"":""luke and ruth are marrying each other""}","<img src=""stim_listB/marry2.gif""style=""height:400px;""></stim_listB>",are marrying each other,
null,"<div style=""font-size:60px;"">+</div>",,html-keyboard-response,140,992604,0.0-15.0-0.3,7017,List2B,white,man,,,,null,,,,
null,"<img src=""stim_listB/dance3.gif""style=""height:400px;""></stim_listB>",,html-keyboard-response,141,994634,0.0-15.0-1.3,7017,List2B,white,man,,,,null,,,,
null,is dancing with,,html-keyboard-response,142,996635,0.0-15.0-2.3,7017,List2B,white,man,,,,null,,,,
19939,,,survey-text,143,1016579,0.0-15.0-3.3,7017,List2B,white,man,,,,,"{""Q0"":""kate and fred are dancing with each other""}","<img src=""stim_listB/dance3.gif""style=""height:400px;""></stim_listB>",is dancing with,
null,"<div style=""font-size:60px;"">+</div>",,html-keyboard-response,144,1017089,0.0-15.0-0.4,7017,List2B,white,man,,,,null,,,,
null,"<img src=""stim_listB/play7.gif""style=""height:400px;""></stim_listB>",,html-keyboard-response,145,1019118,0.0-15.0-1.4,7017,List2B,white,man,,,,null,,,,
null,is playing with,,html-keyboard-response,146,1021103,0.0-15.0-2.4,7017,List2B,white,man,,,,null,,,,
14719,,,survey-text,147,1035824,0.0-15.0-3.4,7017,List2B,white,man,,,,,"{""Q0"":""jane is playing with kate""}","<img src=""stim_listB/play7.gif""style=""height:400px;""></stim_listB>",is playing with,
null,"<div style=""font-size:60px;"">+</div>",,html-keyboard-response,148,1036355,0.0-15.0-0.5,7017,List2B,white,man,,,,null,,,,
null,"<img src=""stim_listB/flirt3.gif""style=""height:400px;""></stim_listB>",,html-keyboard-response,149,1038385,0.0-15.0-1.5,7017,List2B,white,man,,,,null,,,,
null,is flirting with,,html-keyboard-response,150,1040370,0.0-15.0-2.5,7017,List2B,white,man,,,,null,,,,
19242,,,survey-text,151,1059616,0.0-15.0-3.5,7017,List2B,white,man,,,,,"{""Q0"":""kate is flirting with fred""}","<img src=""stim_listB/flirt3.gif""style=""height:400px;""></stim_listB>",is flirting with,
null,"<div style=""font-size:60px;"">+</div>",,html-keyboard-response,152,1060126,0.0-15.0-0.6,7017,List2B,white,man,,,,null,,,,
null,"<img src=""stim_listB/dance1.gif""style=""height:400px;""></stim_listB>",,html-keyboard-response,153,1062151,0.0-15.0-1.6,7017,List2B,white,man,,,,null,,,,
null,is dancing with,,html-keyboard-response,154,1064151,0.0-15.0-2.6,7017,List2B,white,man,,,,null,,,,
11569,,,survey-text,155,1075722,0.0-15.0-3.6,7017,List2B,white,man,,,,,"{""Q0"":""jane is dancing with luke""}","<img src=""stim_listB/dance1.gif""style=""height:400px;""></stim_listB>",is dancing with,
null,"<div style=""font-size:60px;"">+</div>",,html-keyboard-response,156,1076244,0.0-15.0-0.7,7017,List2B,white,man,,,,null,,,,
null,"<img src=""stim_listB/talk1.gif""style=""height:400px;""></stim_listB>",,html-keyboard-response,157,1078276,0.0-15.0-1.7,7017,List2B,white,man,,,,null,,,,
null,is talking to,,html-keyboard-response,158,1080261,0.0-15.0-2.7,7017,List2B,white,man,,,,null,,,,
14054,,,survey-text,159,1094318,0.0-15.0-3.7,7017,List2B,white,man,,,,,"{""Q0"":""jane is talking with luke""}","<img src=""stim_listB/talk1.gif""style=""height:400px;""></stim_listB>",is talking to,
null,"<div style=""font-size:60px;"">+</div>",,html-keyboard-response,160,1094839,0.0-15.0-0.8,7017,List2B,white,man,,,,null,,,,
null,"<img src=""stim_listB/fight6.gif""style=""height:400px;""></stim_listB>",,html-keyboard-response,161,1096853,0.0-15.0-1.8,7017,List2B,white,man,,,,null,,,,
null,are fighting each other,,html-keyboard-response,162,1098854,0.0-15.0-2.8,7017,List2B,white,man,,,,null,,,,
18159,,,survey-text,163,1117016,0.0-15.0-3.8,7017,List2B,white,man,,,,,"{""Q0"":""luke and fred are fighting with each other""}","<img src=""stim_listB/fight6.gif""style=""height:400px;""></stim_listB>",are fighting each other,
null,"<div style=""font-size:60px;"">+</div>",,html-keyboard-response,164,1117542,0.0-15.0-0.9,7017,List2B,white,man,,,,null,,,,
null,"<img src=""stim_listB/shout1.gif""style=""height:400px;""></stim_listB>",,html-keyboard-response,165,1119556,0.0-15.0-1.9,7017,List2B,white,man,,,,null,,,,
null,is shouting at,,html-keyboard-response,166,1121557,0.0-15.0-2.9,7017,List2B,white,man,,,,null,,,,
14654,,,survey-text,167,1136213,0.0-15.0-3.9,7017,List2B,white,man,,,,,"{""Q0"":""ruth is shouting at luke""}","<img src=""stim_listB/shout1.gif""style=""height:400px;""></stim_listB>",is shouting at,
null,"<div style=""font-size:60px;"">+</div>",,html-keyboard-response,168,1136744,0.0-15.0-0.10,7017,List2B,white,man,,,,null,,,,
null,"<img src=""stim_listB/touch2.gif""style=""height:400px;""></stim_listB>",,html-keyboard-response,169,1138794,0.0-15.0-1.10,7017,List2B,white,man,,,,null,,,,
null,are touching each other,,html-keyboard-response,170,1140791,0.0-15.0-2.10,7017,List2B,white,man,,,,null,,,,
19227,,,survey-text,171,1160021,0.0-15.0-3.10,7017,List2B,white,man,,,,,"{""Q0"":""ruth and luke are touching each other""}","<img src=""stim_listB/touch2.gif""style=""height:400px;""></stim_listB>",are touching each other,
null,"<div style=""font-size:60px;"">+</div>",,html-keyboard-response,172,1160541,0.0-15.0-0.11,7017,List2B,white,man,,,,null,,,,
null,"<img src=""stim_listB/argue1.gif""style=""height:400px;""></stim_listB>",,html-keyboard-response,173,1162557,0.0-15.0-1.11,7017,List2B,white,man,,,,null,,,,
null,is arguing with,,html-keyboard-response,174,1164556,0.0-15.0-2.11,7017,List2B,white,man,,,,null,,,,
15003,,,survey-text,175,1179563,0.0-15.0-3.11,7017,List2B,white,man,,,,,"{""Q0"":""dave is arguing with ruth""}","<img src=""stim_listB/argue1.gif""style=""height:400px;""></stim_listB>",is arguing with,
null,"<div style=""font-size:60px;"">+</div>",,html-keyboard-response,176,1180089,0.0-15.0-0.12,7017,List2B,white,man,,,,null,,,,
null,"<img src=""stim_listB/argue7.gif""style=""height:400px;""></stim_listB>",,html-keyboard-response,177,1182104,0.0-15.0-1.12,7017,List2B,white,man,,,,null,,,,
null,is arguing with,,html-keyboard-response,178,1184106,0.0-15.0-2.12,7017,List2B,white,man,,,,null,,,,
12168,,,survey-text,179,1196277,0.0-15.0-3.12,7017,List2B,white,man,,,,,"{""Q0"":""jane is arguing with beth""}","<img src=""stim_listB/argue7.gif""style=""height:400px;""></stim_listB>",is arguing with,
null,"<div style=""font-size:60px;"">+</div>",,html-keyboard-response,180,1196791,0.0-15.0-0.13,7017,List2B,white,man,,,,null,,,,
null,"<img src=""stim_listB/talk3.gif""style=""height:400px;""></stim_listB>",,html-keyboard-response,181,1198806,0.0-15.0-1.13,7017,List2B,white,man,,,,null,,,,
null,is talking to,,html-keyboard-response,182,1200823,0.0-15.0-2.13,7017,List2B,white,man,,,,null,,,,
11424,,,survey-text,183,1212250,0.0-15.0-3.13,7017,List2B,white,man,,,,,"{""Q0"":""fred is talking to kate""}","<img src=""stim_listB/talk3.gif""style=""height:400px;""></stim_listB>",is talking to,
null,"<div style=""font-size:60px;"">+</div>",,html-keyboard-response,184,1212761,0.0-15.0-0.14,7017,List2B,white,man,,,,null,,,,
null,"<img src=""stim_listB/play8.gif""style=""height:400px;""></stim_listB>",,html-keyboard-response,185,1214791,0.0-15.0-1.14,7017,List2B,white,man,,,,null,,,,
null,are playing with each other,,html-keyboard-response,186,1216774,0.0-15.0-2.14,7017,List2B,white,man,,,,null,,,,
22435,,,survey-text,187,1239211,0.0-15.0-3.14,7017,List2B,white,man,,,,,"{""Q0"":""ruth and beth are playing with each other""}","<img src=""stim_listB/play8.gif""style=""height:400px;""></stim_listB>",are playing with each other,
null,"<div style=""font-size:60px;"">+</div>",,html-keyboard-response,188,1239728,0.0-15.0-0.15,7017,List2B,white,man,,,,null,,,,
null,"<img src=""stim_listB/flirt4.gif""style=""height:400px;""></stim_listB>",,html-keyboard-response,189,1241742,0.0-15.0-1.15,7017,List2B,white,man,,,,null,,,,
null,are flirting with each other,,html-keyboard-response,190,1243743,0.0-15.0-2.15,7017,List2B,white,man,,,,null,,,,
17972,,,survey-text,191,1261718,0.0-15.0-3.15,7017,List2B,white,man,,,,,"{""Q0"":""beth and mike are flirting with each other""}","<img src=""stim_listB/flirt4.gif""style=""height:400px;""></stim_listB>",are flirting with each other,
null,"<div style=""font-size:60px;"">+</div>",,html-keyboard-response,192,1262228,0.0-15.0-0.16,7017,List2B,white,man,,,,null,,,,
null,"<img src=""stim_listB/kiss4.gif""style=""height:400px;""></stim_listB>",,html-keyboard-response,193,1264258,0.0-15.0-1.16,7017,List2B,white,man,,,,null,,,,
null,are kissing each other,,html-keyboard-response,194,1266257,0.0-15.0-2.16,7017,List2B,white,man,,,,null,,,,
17790,,,survey-text,195,1284049,0.0-15.0-3.16,7017,List2B,white,man,,,,,"{""Q0"":""kate and mike are kissing each other""}","<img src=""stim_listB/kiss4.gif""style=""height:400px;""></stim_listB>",are kissing each other,
null,"<div style=""font-size:60px;"">+</div>",,html-keyboard-response,196,1284556,0.0-15.0-0.17,7017,List2B,white,man,,,,null,,,,
null,"<img src=""stim_listB/shout8.gif""style=""height:400px;""></stim_listB>",,html-keyboard-response,197,1286587,0.0-15.0-1.17,7017,List2B,white,man,,,,null,,,,
null,are shouting at each other,,html-keyboard-response,198,1288573,0.0-15.0-2.17,7017,List2B,white,man,,,,null,,,,
14520,,,survey-text,199,1303097,0.0-15.0-3.17,7017,List2B,white,man,,,,,"{""Q0"":""jane and kate are shouting at each other""}","<img src=""stim_listB/shout8.gif""style=""height:400px;""></stim_listB>",are shouting at each other,
null,"<div style=""font-size:60px;"">+</div>",,html-keyboard-response,200,1303633,0.0-15.0-0.18,7017,List2B,white,man,,,,null,,,,
null,"<img src=""stim_listB/kiss7.gif""style=""height:400px;""></stim_listB>",,html-keyboard-response,201,1305648,0.0-15.0-1.18,7017,List2B,white,man,,,,null,,,,
null,is kissing,,html-keyboard-response,202,1307648,0.0-15.0-2.18,7017,List2B,white,man,,,,null,,,,
12345,,,survey-text,203,1319996,0.0-15.0-3.18,7017,List2B,white,man,,,,,"{""Q0"":""ruth is kissing beth""}","<img src=""stim_listB/kiss7.gif""style=""height:400px;""></stim_listB>",is kissing,
null,"<div style=""font-size:60px;"">+</div>",,html-keyboard-response,204,1320508,0.0-15.0-0.19,7017,List2B,white,man,,,,null,,,,
null,"<img src=""stim_listB/dance5.gif""style=""height:400px;""></stim_listB>",,html-keyboard-response,205,1322523,0.0-15.0-1.19,7017,List2B,white,man,,,,null,,,,
null,is dancing with,,html-keyboard-response,206,1324539,0.0-15.0-2.19,7017,List2B,white,man,,,,null,,,,
11518,,,survey-text,207,1336061,0.0-15.0-3.19,7017,List2B,white,man,,,,,"{""Q0"":""luke is dancing with mike""}","<img src=""stim_listB/dance5.gif""style=""height:400px;""></stim_listB>",is dancing with,
10440,"<img src='img/portrait_matrix_list2.jpg' style='width:900px;height:500px;''></img><p>If you have memorised all the portraits and names and are ready to start, press Continue.</p><p><strong>Please note: Your memory of these faces will be tested 4 times during this experiment.</strong></p>",0,html-button-response,208,1346504,0.0-16.0-0.0,7017,List2B,white,man,,,,,,,,
3486,"<img src=""portrait/BW2.jpg""style=""height:400px;""></img>",2,html-button-response,209,1350999,0.0-16.0-1.0,7017,List2B,white,man,,TRUE,2,,,,,
null,CORRECT,,html-keyboard-response,210,1352539,0.0-16.0-2.0-0.0,7017,List2B,white,man,,,,null,,,,
3061,"<img src=""portrait/BW1.jpg""style=""height:400px;""></img>",0,html-button-response,211,1355603,0.0-16.0-4.0,7017,List2B,white,man,,TRUE,0,,,,,
null,CORRECT,,html-keyboard-response,212,1357153,0.0-16.0-5.0-0.0,7017,List2B,white,man,,,,null,,,,
2105,"<img src=""portrait/WM1.jpg""style=""height:400px;""></img>",6,html-button-response,213,1359263,0.0-16.0-7.0,7017,List2B,white,man,,TRUE,6,,,,,
null,CORRECT,,html-keyboard-response,214,1360788,0.0-16.0-8.0-0.0,7017,List2B,white,man,,,,null,,,,
4230,"<img src=""portrait/WW1.jpg""style=""height:400px;""></img>",1,html-button-response,215,1365023,0.0-16.0-10.0,7017,List2B,white,man,,TRUE,1,,,,,
null,CORRECT,,html-keyboard-response,216,1366553,0.0-16.0-11.0-0.0,7017,List2B,white,man,,,,null,,,,
2196,"<img src=""portrait/WM2.jpg""style=""height:400px;""></img>",7,html-button-response,217,1368753,0.0-16.0-13.0,7017,List2B,white,man,,TRUE,7,,,,,
null,CORRECT,,html-keyboard-response,218,1370288,0.0-16.0-14.0-0.0,7017,List2B,white,man,,,,null,,,,
2121,"<img src=""portrait/BM1.jpg""style=""height:400px;""></img>",4,html-button-response,219,1372414,0.0-16.0-16.0,7017,List2B,white,man,,TRUE,4,,,,,
null,CORRECT,,html-keyboard-response,220,1373961,0.0-16.0-17.0-0.0,7017,List2B,white,man,,,,null,,,,
3544,"<img src=""portrait/WW2.jpg""style=""height:400px;""></img>",3,html-button-response,221,1377508,0.0-16.0-19.0,7017,List2B,white,man,,TRUE,3,,,,,
null,CORRECT,,html-keyboard-response,222,1379069,0.0-16.0-20.0-0.0,7017,List2B,white,man,,,,null,,,,
2161,"<img src=""portrait/BM2.jpg""style=""height:400px;""></img>",5,html-button-response,223,1381234,0.0-16.0-22.0,7017,List2B,white,man,,TRUE,5,,,,,
null,CORRECT,,html-keyboard-response,224,1382774,0.0-16.0-23.0-0.0,7017,List2B,white,man,,,,null,,,,
3890,<p>You got 8 out of 8 right first time. Press Continue.</p>,0,html-button-response,225,1386670,0.0-16.0-25.0,7017,List2B,white,man,,,,,,,,
null,"<div style=""font-size:60px;"">+</div>",,html-keyboard-response,226,1388194,0.0-17.0-0.0,7017,List2B,white,man,,,,null,,,,
null,"<img src=""stim_listB/talk7.gif""style=""height:400px;""></stim_listB>",,html-keyboard-response,227,1390210,0.0-17.0-1.0,7017,List2B,white,man,,,,null,,,,
null,is talking to,,html-keyboard-response,228,1392211,0.0-17.0-2.0,7017,List2B,white,man,,,,null,,,,
17158,,,survey-text,229,1409372,0.0-17.0-3.0,7017,List2B,white,man,,,,,"{""Q0"":""kate is talking to ruth""}","<img src=""stim_listB/talk7.gif""style=""height:400px;""></stim_listB>",is talking to,
null,"<div style=""font-size:60px;"">+</div>",,html-keyboard-response,230,1409904,0.0-17.0-0.1,7017,List2B,white,man,,,,null,,,,
null,"<img src=""stim_listB/fight8.gif""style=""height:400px;""></stim_listB>",,html-keyboard-response,231,1411921,0.0-17.0-1.1,7017,List2B,white,man,,,,null,,,,
null,are fighting each other,,html-keyboard-response,232,1413919,0.0-17.0-2.1,7017,List2B,white,man,,,,null,,,,
13931,,,survey-text,233,1427852,0.0-17.0-3.1,7017,List2B,white,man,,,,,"{""Q0"":""beth and ruth are fighting""}","<img src=""stim_listB/fight8.gif""style=""height:400px;""></stim_listB>",are fighting each other,
null,"<div style=""font-size:60px;"">+</div>",,html-keyboard-response,234,1428377,0.0-17.0-0.2,7017,List2B,white,man,,,,null,,,,
null,"<img src=""stim_listB/fight1.gif""style=""height:400px;""></stim_listB>",,html-keyboard-response,235,1430387,0.0-17.0-1.2,7017,List2B,white,man,,,,null,,,,
null,is fighting,,html-keyboard-response,236,1432387,0.0-17.0-2.2,7017,List2B,white,man,,,,null,,,,
11870,,,survey-text,237,1444261,0.0-17.0-3.2,7017,List2B,white,man,,,,,"{""Q0"":""dave is fighting jane""}","<img src=""stim_listB/fight1.gif""style=""height:400px;""></stim_listB>",is fighting,
null,"<div style=""font-size:60px;"">+</div>",,html-keyboard-response,238,1444778,0.0-17.0-0.3,7017,List2B,white,man,,,,null,,,,
null,"<img src=""stim_listB/talk4.gif""style=""height:400px;""></stim_listB>",,html-keyboard-response,239,1446796,0.0-17.0-1.3,7017,List2B,white,man,,,,null,,,,
null,are talking to each other,,html-keyboard-response,240,1448809,0.0-17.0-2.3,7017,List2B,white,man,,,,null,,,,
14276,,,survey-text,241,1463087,0.0-17.0-3.3,7017,List2B,white,man,,,,,"{""Q0"":""beth and mike are talking to each other""}","<img src=""stim_listB/talk4.gif""style=""height:400px;""></stim_listB>",are talking to each other,
null,"<div style=""font-size:60px;"">+</div>",,html-keyboard-response,242,1463608,0.0-17.0-0.4,7017,List2B,white,man,,,,null,,,,
null,"<img src=""stim_listB/argue6.gif""style=""height:400px;""></stim_listB>",,html-keyboard-response,243,1465637,0.0-17.0-1.4,7017,List2B,white,man,,,,null,,,,
null,are arguing with each other,,html-keyboard-response,244,1467637,0.0-17.0-2.4,7017,List2B,white,man,,,,null,,,,
17464,,,survey-text,245,1485104,0.0-17.0-3.4,7017,List2B,white,man,,,,,"{""Q0"":""mike and luke are arguing with each other""}","<img src=""stim_listB/argue6.gif""style=""height:400px;""></stim_listB>",are arguing with each other,
null,"<div style=""font-size:60px;"">+</div>",,html-keyboard-response,246,1485617,0.0-17.0-0.5,7017,List2B,white,man,,,,null,,,,
null,"<img src=""stim_listB/marry8.gif""style=""height:400px;""></stim_listB>",,html-keyboard-response,247,1487637,0.0-17.0-1.5,7017,List2B,white,man,,,,null,,,,
null,are marrying each other,,html-keyboard-response,248,1489622,0.0-17.0-2.5,7017,List2B,white,man,,,,null,,,,
15098,,,survey-text,249,1504724,0.0-17.0-3.5,7017,List2B,white,man,,,,,"{""Q0"":""kate and ruth are marrying each other""}","<img src=""stim_listB/marry8.gif""style=""height:400px;""></stim_listB>",are marrying each other,
null,"<div style=""font-size:60px;"">+</div>",,html-keyboard-response,250,1505247,0.0-17.0-0.6,7017,List2B,white,man,,,,null,,,,
null,"<img src=""stim_listB/argue2.gif""style=""height:400px;""></stim_listB>",,html-keyboard-response,251,1507279,0.0-17.0-1.6,7017,List2B,white,man,,,,null,,,,
null,are arguing with each other,,html-keyboard-response,252,1509263,0.0-17.0-2.6,7017,List2B,white,man,,,,null,,,,
17880,,,survey-text,253,1527146,0.0-17.0-3.6,7017,List2B,white,man,,,,,"{""Q0"":""luke and jane are arguing with each other""}","<img src=""stim_listB/argue2.gif""style=""height:400px;""></stim_listB>",are arguing with each other,
null,"<div style=""font-size:60px;"">+</div>",,html-keyboard-response,254,1527669,0.0-17.0-0.7,7017,List2B,white,man,,,,null,,,,
null,"<img src=""stim_listB/flirt6.gif""style=""height:400px;""></stim_listB>",,html-keyboard-response,255,1529683,0.0-17.0-1.7,7017,List2B,white,man,,,,null,,,,
null,are flirting with each other,,html-keyboard-response,256,1531684,0.0-17.0-2.7,7017,List2B,white,man,,,,null,,,,
14977,,,survey-text,257,1546664,0.0-17.0-3.7,7017,List2B,white,man,,,,,"{""Q0"":""fred and dave are flirting with each other""}","<img src=""stim_listB/flirt6.gif""style=""height:400px;""></stim_listB>",are flirting with each other,
null,"<div style=""font-size:60px;"">+</div>",,html-keyboard-response,258,1547173,0.0-17.0-0.8,7017,List2B,white,man,,,,null,,,,
null,"<img src=""stim_listB/kiss3.gif""style=""height:400px;""></stim_listB>",,html-keyboard-response,259,1549216,0.0-17.0-1.8,7017,List2B,white,man,,,,null,,,,
null,is kissing,,html-keyboard-response,260,1551201,0.0-17.0-2.8,7017,List2B,white,man,,,,null,,,,
9184,,,survey-text,261,1560389,0.0-17.0-3.8,7017,List2B,white,man,,,,,"{""Q0"":""fred is kissing beth""}","<img src=""stim_listB/kiss3.gif""style=""height:400px;""></stim_listB>",is kissing,
null,"<div style=""font-size:60px;"">+</div>",,html-keyboard-response,262,1560903,0.0-17.0-0.9,7017,List2B,white,man,,,,null,,,,
null,"<img src=""stim_listB/kiss1.gif""style=""height:400px;""></stim_listB>",,html-keyboard-response,263,1562920,0.0-17.0-1.9,7017,List2B,white,man,,,,null,,,,
null,is kissing,,html-keyboard-response,264,1564949,0.0-17.0-2.9,7017,List2B,white,man,,,,null,,,,
16431,,,survey-text,265,1581383,0.0-17.0-3.9,7017,List2B,white,man,,,,,"{""Q0"":""ruth is kissing luke""}","<img src=""stim_listB/kiss1.gif""style=""height:400px;""></stim_listB>",is kissing,
null,"<div style=""font-size:60px;"">+</div>",,html-keyboard-response,266,1581902,0.0-17.0-0.10,7017,List2B,white,man,,,,null,,,,
null,"<img src=""stim_listB/flirt8.gif""style=""height:400px;""></stim_listB>",,html-keyboard-response,267,1583918,0.0-17.0-1.10,7017,List2B,white,man,,,,null,,,,
null,are flirting with each other,,html-keyboard-response,268,1585902,0.0-17.0-2.10,7017,List2B,white,man,,,,null,,,,
15747,,,survey-text,269,1601653,0.0-17.0-3.10,7017,List2B,white,man,,,,,"{""Q0"":""jane and beth are flirting with each other""}","<img src=""stim_listB/flirt8.gif""style=""height:400px;""></stim_listB>",are flirting with each other,
null,"<div style=""font-size:60px;"">+</div>",,html-keyboard-response,270,1602172,0.0-17.0-0.11,7017,List2B,white,man,,,,null,,,,
null,"<img src=""stim_listB/talk6.gif""style=""height:400px;""></stim_listB>",,html-keyboard-response,271,1604199,0.0-17.0-1.11,7017,List2B,white,man,,,,null,,,,
null,are talking to each other,,html-keyboard-response,272,1606184,0.0-17.0-2.11,7017,List2B,white,man,,,,null,,,,
13603,,,survey-text,273,1619790,0.0-17.0-3.11,7017,List2B,white,man,,,,,"{""Q0"":""dave and fred are talking to each other""}","<img src=""stim_listB/talk6.gif""style=""height:400px;""></stim_listB>",are talking to each other,
null,"<div style=""font-size:60px;"">+</div>",,html-keyboard-response,274,1620293,0.0-17.0-0.12,7017,List2B,white,man,,,,null,,,,
null,"<img src=""stim_listB/play1.gif""style=""height:400px;""></stim_listB>",,html-keyboard-response,275,1622308,0.0-17.0-1.12,7017,List2B,white,man,,,,null,,,,
null,is playing with,,html-keyboard-response,276,1624308,0.0-17.0-2.12,7017,List2B,white,man,,,,null,,,,
10337,,,survey-text,277,1634648,0.0-17.0-3.12,7017,List2B,white,man,,,,,"{""Q0"":""jane is playing with dave""}","<img src=""stim_listB/play1.gif""style=""height:400px;""></stim_listB>",is playing with,
null,"<div style=""font-size:60px;"">+</div>",,html-keyboard-response,278,1635183,0.0-17.0-0.13,7017,List2B,white,man,,,,null,,,,
null,"<img src=""stim_listB/touch4.gif""style=""height:400px;""></stim_listB>",,html-keyboard-response,279,1637199,0.0-17.0-1.13,7017,List2B,white,man,,,,null,,,,
null,are touching each other,,html-keyboard-response,280,1639200,0.0-17.0-2.13,7017,List2B,white,man,,,,null,,,,
14024,,,survey-text,281,1653228,0.0-17.0-3.13,7017,List2B,white,man,,,,,"{""Q0"":""fred and beth are touching each other""}","<img src=""stim_listB/touch4.gif""style=""height:400px;""></stim_listB>",are touching each other,
null,"<div style=""font-size:60px;"">+</div>",,html-keyboard-response,282,1653765,0.0-17.0-0.14,7017,List2B,white,man,,,,null,,,,
null,"<img src=""stim_listB/flirt2.gif""style=""height:400px;""></stim_listB>",,html-keyboard-response,283,1655777,0.0-17.0-1.14,7017,List2B,white,man,,,,null,,,,
null,are flirting with each other,,html-keyboard-response,284,1657776,0.0-17.0-2.14,7017,List2B,white,man,,,,null,,,,
19735,,,survey-text,285,1677514,0.0-17.0-3.14,7017,List2B,white,man,,,,,"{""Q0"":""dave and ruth are flirting with each other""}","<img src=""stim_listB/flirt2.gif""style=""height:400px;""></stim_listB>",are flirting with each other,
null,"<div style=""font-size:60px;"">+</div>",,html-keyboard-response,286,1678042,0.0-17.0-0.15,7017,List2B,white,man,,,,null,,,,
null,"<img src=""stim_listB/shout6.gif""style=""height:400px;""></stim_listB>",,html-keyboard-response,287,1680044,0.0-17.0-1.15,7017,List2B,white,man,,,,null,,,,
null,are shouting at each other,,html-keyboard-response,288,1682073,0.0-17.0-2.15,7017,List2B,white,man,,,,null,,,,
13554,,,survey-text,289,1695632,0.0-17.0-3.15,7017,List2B,white,man,,,,,"{""Q0"":""mike and dave are shouting with each other""}","<img src=""stim_listB/shout6.gif""style=""height:400px;""></stim_listB>",are shouting at each other,
null,"<div style=""font-size:60px;"">+</div>",,html-keyboard-response,290,1696153,0.0-17.0-0.16,7017,List2B,white,man,,,,null,,,,
null,"<img src=""stim_listB/fight4.gif""style=""height:400px;""></stim_listB>",,html-keyboard-response,291,1698183,0.0-17.0-1.16,7017,List2B,white,man,,,,null,,,,
null,are fighting each other,,html-keyboard-response,292,1700168,0.0-17.0-2.16,7017,List2B,white,man,,,,null,,,,
16823,,,survey-text,293,1716996,0.0-17.0-3.16,7017,List2B,white,man,,,,,"{""Q0"":""beth and fred are fighting each other""}","<img src=""stim_listB/fight4.gif""style=""height:400px;""></stim_listB>",are fighting each other,
null,"<div style=""font-size:60px;"">+</div>",,html-keyboard-response,294,1717512,0.0-17.0-0.17,7017,List2B,white,man,,,,null,,,,
null,"<img src=""stim_listB/marry1.gif""style=""height:400px;""></stim_listB>",,html-keyboard-response,295,1719543,0.0-17.0-1.17,7017,List2B,white,man,,,,null,,,,
null,is marrying,,html-keyboard-response,296,1721527,0.0-17.0-2.17,7017,List2B,white,man,,,,null,,,,
9234,,,survey-text,297,1730765,0.0-17.0-3.17,7017,List2B,white,man,,,,,"{""Q0"":""dave is marrying ruth""}","<img src=""stim_listB/marry1.gif""style=""height:400px;""></stim_listB>",is marrying,
null,"<div style=""font-size:60px;"">+</div>",,html-keyboard-response,298,1731277,0.0-17.0-0.18,7017,List2B,white,man,,,,null,,,,
null,"<img src=""stim_listB/shout5.gif""style=""height:400px;""></stim_listB>",,html-keyboard-response,299,1733308,0.0-17.0-1.18,7017,List2B,white,man,,,,null,,,,
null,is shouting at,,html-keyboard-response,300,1735293,0.0-17.0-2.18,7017,List2B,white,man,,,,null,,,,
10111,,,survey-text,301,1745408,0.0-17.0-3.18,7017,List2B,white,man,,,,,"{""Q0"":""luke is shouting at fred""}","<img src=""stim_listB/shout5.gif""style=""height:400px;""></stim_listB>",is shouting at,
null,"<div style=""font-size:60px;"">+</div>",,html-keyboard-response,302,1745917,0.0-17.0-0.19,7017,List2B,white,man,,,,null,,,,
null,"<img src=""stim_listB/touch1.gif""style=""height:400px;""></stim_listB>",,html-keyboard-response,303,1747949,0.0-17.0-1.19,7017,List2B,white,man,,,,null,,,,
null,is touching,,html-keyboard-response,304,1749951,0.0-17.0-2.19,7017,List2B,white,man,,,,null,,,,
9259,,,survey-text,305,1759213,0.0-17.0-3.19,7017,List2B,white,man,,,,,"{""Q0"":""dave is touching jane""}","<img src=""stim_listB/touch1.gif""style=""height:400px;""></stim_listB>",is touching,
9410,"<img src='img/portrait_matrix_list2.jpg' style='width:900px;height:500px;''></img><p>If you have memorised all the portraits and names and are ready to start, press Continue.</p><p><strong>Please note: Your memory of these faces will be tested 4 times during this experiment.</strong></p>",0,html-button-response,306,1768626,0.0-18.0-0.0,7017,List2B,white,man,,,,,,,,
2245,"<img src=""portrait/BM1.jpg""style=""height:400px;""></img>",4,html-button-response,307,1771884,0.0-18.0-1.0,7017,List2B,white,man,,TRUE,4,,,,,
null,CORRECT,,html-keyboard-response,308,1773416,0.0-18.0-2.0-0.0,7017,List2B,white,man,,,,null,,,,
1821,"<img src=""portrait/WW1.jpg""style=""height:400px;""></img>",1,html-button-response,309,1775242,0.0-18.0-4.0,7017,List2B,white,man,,TRUE,1,,,,,
null,CORRECT,,html-keyboard-response,310,1776776,0.0-18.0-5.0-0.0,7017,List2B,white,man,,,,null,,,,
2376,"<img src=""portrait/WW2.jpg""style=""height:400px;""></img>",3,html-button-response,311,1779157,0.0-18.0-7.0,7017,List2B,white,man,,TRUE,3,,,,,
null,CORRECT,,html-keyboard-response,312,1780697,0.0-18.0-8.0-0.0,7017,List2B,white,man,,,,null,,,,
2880,"<img src=""portrait/WM2.jpg""style=""height:400px;""></img>",7,html-button-response,313,1783580,0.0-18.0-10.0,7017,List2B,white,man,,TRUE,7,,,,,
null,CORRECT,,html-keyboard-response,314,1785104,0.0-18.0-11.0-0.0,7017,List2B,white,man,,,,null,,,,
2280,"<img src=""portrait/BW2.jpg""style=""height:400px;""></img>",2,html-button-response,315,1787387,0.0-18.0-13.0,7017,List2B,white,man,,TRUE,2,,,,,
null,CORRECT,,html-keyboard-response,316,1788931,0.0-18.0-14.0-0.0,7017,List2B,white,man,,,,null,,,,
2528,"<img src=""portrait/BW1.jpg""style=""height:400px;""></img>",0,html-button-response,317,1791463,0.0-18.0-16.0,7017,List2B,white,man,,TRUE,0,,,,,
null,CORRECT,,html-keyboard-response,318,1793027,0.0-18.0-17.0-0.0,7017,List2B,white,man,,,,null,,,,
2039,"<img src=""portrait/BM2.jpg""style=""height:400px;""></img>",5,html-button-response,319,1795070,0.0-18.0-19.0,7017,List2B,white,man,,TRUE,5,,,,,
null,CORRECT,,html-keyboard-response,320,1796603,0.0-18.0-20.0-0.0,7017,List2B,white,man,,,,null,,,,
1789,"<img src=""portrait/WM1.jpg""style=""height:400px;""></img>",6,html-button-response,321,1798397,0.0-18.0-22.0,7017,List2B,white,man,,TRUE,6,,,,,
null,CORRECT,,html-keyboard-response,322,1799916,0.0-18.0-23.0-0.0,7017,List2B,white,man,,,,null,,,,
2979,<p>You got 8 out of 8 right first time. Press Continue.</p>,0,html-button-response,323,1802900,0.0-18.0-25.0,7017,List2B,white,man,,,,,,,,
null,"<div style=""font-size:60px;"">+</div>",,html-keyboard-response,324,1804431,0.0-19.0-0.0,7017,List2B,white,man,,,,null,,,,
null,"<img src=""stim_listB/play4.gif""style=""height:400px;""></stim_listB>",,html-keyboard-response,325,1806463,0.0-19.0-1.0,7017,List2B,white,man,,,,null,,,,
null,are playing with each other,,html-keyboard-response,326,1808449,0.0-19.0-2.0,7017,List2B,white,man,,,,null,,,,
15634,,,survey-text,327,1824087,0.0-19.0-3.0,7017,List2B,white,man,,,,,"{""Q0"":""fred and beth are playing with each other""}","<img src=""stim_listB/play4.gif""style=""height:400px;""></stim_listB>",are playing with each other,
null,"<div style=""font-size:60px;"">+</div>",,html-keyboard-response,328,1824604,0.0-19.0-0.1,7017,List2B,white,man,,,,null,,,,
null,"<img src=""stim_listB/shout2.gif""style=""height:400px;""></stim_listB>",,html-keyboard-response,329,1826621,0.0-19.0-1.1,7017,List2B,white,man,,,,null,,,,
null,are shouting at each other,,html-keyboard-response,330,1828604,0.0-19.0-2.1,7017,List2B,white,man,,,,null,,,,
12448,,,survey-text,331,1841057,0.0-19.0-3.1,7017,List2B,white,man,,,,,"{""Q0"":""dave and jane are shouting at each other""}","<img src=""stim_listB/shout2.gif""style=""height:400px;""></stim_listB>",are shouting at each other,
null,"<div style=""font-size:60px;"">+</div>",,html-keyboard-response,332,1841571,0.0-19.0-0.2,7017,List2B,white,man,,,,null,,,,
null,"<img src=""stim_listB/touch5.gif""style=""height:400px;""></stim_listB>",,html-keyboard-response,333,1843589,0.0-19.0-1.2,7017,List2B,white,man,,,,null,,,,
null,is touching,,html-keyboard-response,334,1845603,0.0-19.0-2.2,7017,List2B,white,man,,,,null,,,,
13201,,,survey-text,335,1858808,0.0-19.0-3.2,7017,List2B,white,man,,,,,"{""Q0"":""mike is touching dave""}","<img src=""stim_listB/touch5.gif""style=""height:400px;""></stim_listB>",is touching,
null,"<div style=""font-size:60px;"">+</div>",,html-keyboard-response,336,1859322,0.0-19.0-0.3,7017,List2B,white,man,,,,null,,,,
null,"<img src=""stim_listB/fight2.gif""style=""height:400px;""></stim_listB>",,html-keyboard-response,337,1861353,0.0-19.0-1.3,7017,List2B,white,man,,,,null,,,,
null,are fighting each other,,html-keyboard-response,338,1863338,0.0-19.0-2.3,7017,List2B,white,man,,,,null,,,,
18475,,,survey-text,339,1881817,0.0-19.0-3.3,7017,List2B,white,man,,,,,"{""Q0"":""luke and ruth are fighting each other""}","<img src=""stim_listB/fight2.gif""style=""height:400px;""></stim_listB>",are fighting each other,
null,"<div style=""font-size:60px;"">+</div>",,html-keyboard-response,340,1882338,0.0-19.0-0.4,7017,List2B,white,man,,,,null,,,,
null,"<img src=""stim_listB/argue5.gif""style=""height:400px;""></stim_listB>",,html-keyboard-response,341,1884353,0.0-19.0-1.4,7017,List2B,white,man,,,,null,,,,
null,is arguing with,,html-keyboard-response,342,1886370,0.0-19.0-2.4,7017,List2B,white,man,,,,null,,,,
10543,,,survey-text,343,1896917,0.0-19.0-3.4,7017,List2B,white,man,,,,,"{""Q0"":""dave is arguing with fred""}","<img src=""stim_listB/argue5.gif""style=""height:400px;""></stim_listB>",is arguing with,
null,"<div style=""font-size:60px;"">+</div>",,html-keyboard-response,344,1897430,0.0-19.0-0.5,7017,List2B,white,man,,,,null,,,,
null,"<img src=""stim_listB/fight3.gif""style=""height:400px;""></stim_listB>",,html-keyboard-response,345,1899462,0.0-19.0-1.5,7017,List2B,white,man,,,,null,,,,
null,is fighting,,html-keyboard-response,346,1901447,0.0-19.0-2.5,7017,List2B,white,man,,,,null,,,,
10566,,,survey-text,347,1912017,0.0-19.0-3.5,7017,List2B,white,man,,,,,"{""Q0"":""dave is fighting kate""}","<img src=""stim_listB/fight3.gif""style=""height:400px;""></stim_listB>",is fighting,
null,"<div style=""font-size:60px;"">+</div>",,html-keyboard-response,348,1912524,0.0-19.0-0.6,7017,List2B,white,man,,,,null,,,,
null,"<img src=""stim_listB/flirt5.gif""style=""height:400px;""></stim_listB>",,html-keyboard-response,349,1914572,0.0-19.0-1.6,7017,List2B,white,man,,,,null,,,,
null,is flirting with,,html-keyboard-response,350,1916556,0.0-19.0-2.6,7017,List2B,white,man,,,,null,,,,
12995,,,survey-text,351,1929555,0.0-19.0-3.6,7017,List2B,white,man,,,,,"{""Q0"":""luke is flirting with mike""}","<img src=""stim_listB/flirt5.gif""style=""height:400px;""></stim_listB>",is flirting with,
null,"<div style=""font-size:60px;"">+</div>",,html-keyboard-response,352,1930088,0.0-19.0-0.7,7017,List2B,white,man,,,,null,,,,
null,"<img src=""stim_listB/flirt7.gif""style=""height:400px;""></stim_listB>",,html-keyboard-response,353,1932102,0.0-19.0-1.7,7017,List2B,white,man,,,,null,,,,
null,is flirting with,,html-keyboard-response,354,1934105,0.0-19.0-2.7,7017,List2B,white,man,,,,null,,,,
14035,,,survey-text,355,1948147,0.0-19.0-3.7,7017,List2B,white,man,,,,,"{""Q0"":""kate is flirting with ruth""}","<img src=""stim_listB/flirt7.gif""style=""height:400px;""></stim_listB>",is flirting with,
null,"<div style=""font-size:60px;"">+</div>",,html-keyboard-response,356,1948656,0.0-19.0-0.8,7017,List2B,white,man,,,,null,,,,
null,"<img src=""stim_listB/argue4.gif""style=""height:400px;""></stim_listB>",,html-keyboard-response,357,1950685,0.0-19.0-1.8,7017,List2B,white,man,,,,null,,,,
null,are arguing with each other,,html-keyboard-response,358,1952656,0.0-19.0-2.8,7017,List2B,white,man,,,,null,,,,
15943,,,survey-text,359,1968603,0.0-19.0-3.8,7017,List2B,white,man,,,,,"{""Q0"":""fred and kate are arguing with each other""}","<img src=""stim_listB/argue4.gif""style=""height:400px;""></stim_listB>",are arguing with each other,
null,"<div style=""font-size:60px;"">+</div>",,html-keyboard-response,360,1969107,0.0-19.0-0.9,7017,List2B,white,man,,,,null,,,,
null,"<img src=""stim_listB/kiss5.gif""style=""height:400px;""></stim_listB>",,html-keyboard-response,361,1971123,0.0-19.0-1.9,7017,List2B,white,man,,,,null,,,,
null,is kissing,,html-keyboard-response,362,1973137,0.0-19.0-2.9,7017,List2B,white,man,,,,null,,,,
8333,,,survey-text,363,1981474,0.0-19.0-3.9,7017,List2B,white,man,,,,,"{""Q0"":""luke is kissing fred""}","<img src=""stim_listB/kiss5.gif""style=""height:400px;""></stim_listB>",is kissing,
null,"<div style=""font-size:60px;"">+</div>",,html-keyboard-response,364,1981982,0.0-19.0-0.10,7017,List2B,white,man,,,,null,,,,
null,"<img src=""stim_listB/fight7.gif""style=""height:400px;""></stim_listB>",,html-keyboard-response,365,1984014,0.0-19.0-1.10,7017,List2B,white,man,,,,null,,,,
null,is fighting,,html-keyboard-response,366,1985998,0.0-19.0-2.10,7017,List2B,white,man,,,,null,,,,
9964,,,survey-text,367,1995966,0.0-19.0-3.10,7017,List2B,white,man,,,,,"{""Q0"":""kate is fighting jane""}","<img src=""stim_listB/fight7.gif""style=""height:400px;""></stim_listB>",is fighting,
null,"<div style=""font-size:60px;"">+</div>",,html-keyboard-response,368,1996481,0.0-19.0-0.11,7017,List2B,white,man,,,,null,,,,
null,"<img src=""stim_listB/touch6.gif""style=""height:400px;""></stim_listB>",,html-keyboard-response,369,1998513,0.0-19.0-1.11,7017,List2B,white,man,,,,null,,,,
null,are touching each other,,html-keyboard-response,370,2000533,0.0-19.0-2.11,7017,List2B,white,man,,,,null,,,,
14328,,,survey-text,371,2014864,0.0-19.0-3.11,7017,List2B,white,man,,,,,"{""Q0"":""fred and luke are touching each other""}","<img src=""stim_listB/touch6.gif""style=""height:400px;""></stim_listB>",are touching each other,
null,"<div style=""font-size:60px;"">+</div>",,html-keyboard-response,372,2015373,0.0-19.0-0.12,7017,List2B,white,man,,,,null,,,,
null,"<img src=""stim_listB/marry4.gif""style=""height:400px;""></stim_listB>",,html-keyboard-response,373,2017420,0.0-19.0-1.12,7017,List2B,white,man,,,,null,,,,
null,are marrying each other,,html-keyboard-response,374,2019404,0.0-19.0-2.12,7017,List2B,white,man,,,,null,,,,
14799,,,survey-text,375,2034206,0.0-19.0-3.12,7017,List2B,white,man,,,,,"{""Q0"":""fred and kate are marrying each other""}","<img src=""stim_listB/marry4.gif""style=""height:400px;""></stim_listB>",are marrying each other,
null,"<div style=""font-size:60px;"">+</div>",,html-keyboard-response,376,2034733,0.0-19.0-0.13,7017,List2B,white,man,,,,null,,,,
null,"<img src=""stim_listB/touch7.gif""style=""height:400px;""></stim_listB>",,html-keyboard-response,377,2036763,0.0-19.0-1.13,7017,List2B,white,man,,,,null,,,,
null,is touching,,html-keyboard-response,378,2038762,0.0-19.0-2.13,7017,List2B,white,man,,,,null,,,,
9626,,,survey-text,379,2048390,0.0-19.0-3.13,7017,List2B,white,man,,,,,"{""Q0"":""kate is touching jane""}","<img src=""stim_listB/touch7.gif""style=""height:400px;""></stim_listB>",is touching,
null,"<div style=""font-size:60px;"">+</div>",,html-keyboard-response,380,2048903,0.0-19.0-0.14,7017,List2B,white,man,,,,null,,,,
null,"<img src=""stim_listB/play5.gif""style=""height:400px;""></stim_listB>",,html-keyboard-response,381,2050936,0.0-19.0-1.14,7017,List2B,white,man,,,,null,,,,
null,is playing with,,html-keyboard-response,382,2052919,0.0-19.0-2.14,7017,List2B,white,man,,,,null,,,,
9680,,,survey-text,383,2062603,0.0-19.0-3.14,7017,List2B,white,man,,,,,"{""Q0"":""dave is playing with mike""}","<img src=""stim_listB/play5.gif""style=""height:400px;""></stim_listB>",is playing with,
null,"<div style=""font-size:60px;"">+</div>",,html-keyboard-response,384,2063106,0.0-19.0-0.15,7017,List2B,white,man,,,,null,,,,
null,"<img src=""stim_listB/argue8.gif""style=""height:400px;""></stim_listB>",,html-keyboard-response,385,2065138,0.0-19.0-1.15,7017,List2B,white,man,,,,null,,,,
null,are arguing with each other,,html-keyboard-response,386,2067122,0.0-19.0-2.15,7017,List2B,white,man,,,,null,,,,
17262,,,survey-text,387,2084388,0.0-19.0-3.15,7017,List2B,white,man,,,,,"{""Q0"":""kate and ruth are arguing with each other""}","<img src=""stim_listB/argue8.gif""style=""height:400px;""></stim_listB>",are arguing with each other,
null,"<div style=""font-size:60px;"">+</div>",,html-keyboard-response,388,2084904,0.0-19.0-0.16,7017,List2B,white,man,,,,null,,,,
null,"<img src=""stim_listB/touch3.gif""style=""height:400px;""></stim_listB>",,html-keyboard-response,389,2086921,0.0-19.0-1.16,7017,List2B,white,man,,,,null,,,,
null,is touching,,html-keyboard-response,390,2088920,0.0-19.0-2.16,7017,List2B,white,man,,,,null,,,,
9141,,,survey-text,391,2098064,0.0-19.0-3.16,7017,List2B,white,man,,,,,"{""Q0"":""kate is touching mike""}","<img src=""stim_listB/touch3.gif""style=""height:400px;""></stim_listB>",is touching,
null,"<div style=""font-size:60px;"">+</div>",,html-keyboard-response,392,2098593,0.0-19.0-0.17,7017,List2B,white,man,,,,null,,,,
null,"<img src=""stim_listB/dance7.gif""style=""height:400px;""></stim_listB>",,html-keyboard-response,393,2100608,0.0-19.0-1.17,7017,List2B,white,man,,,,null,,,,
null,is dancing with,,html-keyboard-response,394,2102607,0.0-19.0-2.17,7017,List2B,white,man,,,,null,,,,
11333,,,survey-text,395,2113944,0.0-19.0-3.17,7017,List2B,white,man,,,,,"{""Q0"":""kate is dancing with ruth""}","<img src=""stim_listB/dance7.gif""style=""height:400px;""></stim_listB>",is dancing with,
null,"<div style=""font-size:60px;"">+</div>",,html-keyboard-response,396,2114450,0.0-19.0-0.18,7017,List2B,white,man,,,,null,,,,
null,"<img src=""stim_listB/play3.gif""style=""height:400px;""></stim_listB>",,html-keyboard-response,397,2116499,0.0-19.0-1.18,7017,List2B,white,man,,,,null,,,,
null,is playing with,,html-keyboard-response,398,2118481,0.0-19.0-2.18,7017,List2B,white,man,,,,null,,,,
9941,,,survey-text,399,2128426,0.0-19.0-3.18,7017,List2B,white,man,,,,,"{""Q0"":""kate is playing with mike""}","<img src=""stim_listB/play3.gif""style=""height:400px;""></stim_listB>",is playing with,
null,"<div style=""font-size:60px;"">+</div>",,html-keyboard-response,400,2128933,0.0-19.0-0.19,7017,List2B,white,man,,,,null,,,,
null,"<img src=""stim_listB/marry5.gif""style=""height:400px;""></stim_listB>",,html-keyboard-response,401,2130965,0.0-19.0-1.19,7017,List2B,white,man,,,,null,,,,
null,is marrying,,html-keyboard-response,402,2132965,0.0-19.0-2.19,7017,List2B,white,man,,,,null,,,,
9170,,,survey-text,403,2142139,0.0-19.0-3.19,7017,List2B,white,man,,,,,"{""Q0"":""fred is marrying dave""}","<img src=""stim_listB/marry5.gif""style=""height:400px;""></stim_listB>",is marrying,
4570,<p>Thank you for completing that task.</p><p>The final part of this session is a short questionnaire.</p><p>Press Continue.</p>,0,html-button-response,404,2146713,0.0-20.0,7017,List2B,white,man,,,,,,,,
37438,,,survey-text,405,2185154,0.0-21.0,7017,List2B,white,man,,,,,"{""Q0"":""58"",""Q1"":""English"",""Q2"":""English"",""Q3"":""England"",""Q4"":""White"",""Q5"":""Male""}",,,demographics
10995,,,survey-likert,406,2196154,0.0-22.0,7017,List2B,white,man,,,,,"{""Q0"":3}",,,likert_ESS
15847,,,survey-likert,407,2212005,0.0-23.0,7017,List2B,white,man,,,,,"{""Q0"":4}",,,likert_NSSAL_Q1
5539,,,survey-likert,408,2217549,0.0-24.0,7017,List2B,white,man,,,,,"{""Q0"":4}",,,likert_NSSAL_Q2
7788,,,survey-likert,409,2225341,0.0-25.0,7017,List2B,white,man,,,,,"{""Q0"":4}",,,likert_CGRS_Q1
5209,,,survey-likert,410,2230555,0.0-26.0,7017,List2B,white,man,,,,,"{""Q0"":4}",,,likert_CGRS_Q2
3646,,,survey-likert,411,2234204,0.0-27.0,7017,List2B,white,man,,,,,"{""Q0"":4}",,,likert_CGRS_Q3
4154,,,survey-text,412,2238363,0.0-28.0,7017,List2B,white,man,,,,,"{""Q0"":""ccc""}",,,worker_id
5432,,,external-html,413,2243956,0.0-29.0,7017,List2B,white,man,debrief.html,,,,,,,
