rt,stimulus,button_pressed,trial_type,trial_index,time_elapsed,internal_node_id,subject,list,ppt_race,ppt_gender,url,first_guess,correct,key_press,responses,image_type,phrase_type,test_part
7416,Welcome to the experiment. Press Continue to begin.,0,html-button-response,0,7422,0.0-0.0,7040,List2B,black,man,,,,,,,,
13654,,,external-html,1,22376,0.0-1.0,7040,List2B,black,man,consent.html,,,,,,,
17937,"<p>On the next page, you will see portraits of 8 people and their names.</p><p>Your first task is to take a few minutes to memorise the names of these people.</p><p>You will have to recall their names during the rest of the experiment, so it is</p><p>essential that you try to memorise these people and their names as best as you can.</p><br><p><strong>You will then be tested on your memory of these names and portraits.</strong></p><br><p>The experiment will start after you have completed this memory test.</p><br><p>Ready?</p>",0,html-button-response,2,40315,0.0-2.0,7040,List2B,black,man,,,,,,,,
91114,"<img src='img/portrait_matrix_list2.jpg' style='width:900px;height:500px;''></img><p>If you have memorised all the portraits and names and are ready to start, press Continue.</p><p><strong>Please note: Your memory of these faces will be tested 4 times during this experiment.</strong></p>",0,html-button-response,3,132433,0.0-3.0-0.0,7040,List2B,black,man,,,,,,,,
4943,"<img src=""portrait/WM2.jpg""style=""height:400px;""></img>",7,html-button-response,4,138381,0.0-3.0-1.0,7040,List2B,black,man,,TRUE,7,,,,,
null,CORRECT,,html-keyboard-response,5,139894,0.0-3.0-2.0-0.0,7040,List2B,black,man,,,,null,,,,
3870,"<img src=""portrait/WM1.jpg""style=""height:400px;""></img>",6,html-button-response,6,143767,0.0-3.0-4.0,7040,List2B,black,man,,TRUE,6,,,,,
null,CORRECT,,html-keyboard-response,7,145273,0.0-3.0-5.0-0.0,7040,List2B,black,man,,,,null,,,,
4652,"<img src=""portrait/BM2.jpg""style=""height:400px;""></img>",5,html-button-response,8,149927,0.0-3.0-7.0,7040,List2B,black,man,,TRUE,5,,,,,
null,CORRECT,,html-keyboard-response,9,151431,0.0-3.0-8.0-0.0,7040,List2B,black,man,,,,null,,,,
5013,"<img src=""portrait/WW2.jpg""style=""height:400px;""></img>",1,html-button-response,10,156447,0.0-3.0-10.0,7040,List2B,black,man,,TRUE,3,,,,,
7023,"<img src=""portrait/WW2.jpg""style=""height:400px;""></img>",3,html-button-response,11,164475,0.0-3.0-12.0-0.0,7040,List2B,black,man,,FALSE,3,,,,,
null,CORRECT,,html-keyboard-response,12,165980,0.0-3.0-12.0-1.0-0.0,7040,List2B,black,man,,,,null,,,,
5450,"<img src=""portrait/BM1.jpg""style=""height:400px;""></img>",4,html-button-response,13,171433,0.0-3.0-13.0,7040,List2B,black,man,,TRUE,4,,,,,
null,CORRECT,,html-keyboard-response,14,172938,0.0-3.0-14.0-0.0,7040,List2B,black,man,,,,null,,,,
7890,"<img src=""portrait/BW2.jpg""style=""height:400px;""></img>",0,html-button-response,15,180831,0.0-3.0-16.0,7040,List2B,black,man,,TRUE,2,,,,,
2583,"<img src=""portrait/BW2.jpg""style=""height:400px;""></img>",2,html-button-response,16,184419,0.0-3.0-18.0-0.0,7040,List2B,black,man,,FALSE,2,,,,,
null,CORRECT,,html-keyboard-response,17,185922,0.0-3.0-18.0-1.0-0.0,7040,List2B,black,man,,,,null,,,,
5108,"<img src=""portrait/WW1.jpg""style=""height:400px;""></img>",0,html-button-response,18,191033,0.0-3.0-19.0,7040,List2B,black,man,,TRUE,1,,,,,
2185,"<img src=""portrait/WW1.jpg""style=""height:400px;""></img>",1,html-button-response,19,194229,0.0-3.0-21.0-0.0,7040,List2B,black,man,,FALSE,1,,,,,
null,CORRECT,,html-keyboard-response,20,195734,0.0-3.0-21.0-1.0-0.0,7040,List2B,black,man,,,,null,,,,
6679,"<img src=""portrait/BW1.jpg""style=""height:400px;""></img>",0,html-button-response,21,202415,0.0-3.0-22.0,7040,List2B,black,man,,TRUE,0,,,,,
null,CORRECT,,html-keyboard-response,22,203917,0.0-3.0-23.0-0.0,7040,List2B,black,man,,,,null,,,,
2232,<p>You got 5 out of 8 right first time. Press Continue.</p>,0,html-button-response,23,206153,0.0-3.0-25.0,7040,List2B,black,man,,,,,,,,
3296,"As you did not score 100%, the memory game will repeat. Press Continue.",0,html-button-response,24,210451,0.0-3.0-26.0-0.0,7040,List2B,black,man,,,,,,,,
28953,"<img src='img/portrait_matrix_list2.jpg' style='width:900px;height:500px;''></img><p>If you have memorised all the portraits and names and are ready to start, press Continue.</p><p><strong>Please note: Your memory of these faces will be tested 4 times during this experiment.</strong></p>",0,html-button-response,25,240411,0.0-3.1-0.1,7040,List2B,black,man,,,,,,,,
4826,"<img src=""portrait/WM2.jpg""style=""height:400px;""></img>",7,html-button-response,26,246241,0.0-3.1-1.1,7040,List2B,black,man,,TRUE,7,,,,,
null,CORRECT,,html-keyboard-response,27,247745,0.0-3.1-2.1-0.1,7040,List2B,black,man,,,,null,,,,
2729,"<img src=""portrait/WM1.jpg""style=""height:400px;""></img>",6,html-button-response,28,250477,0.0-3.1-4.1,7040,List2B,black,man,,TRUE,6,,,,,
null,CORRECT,,html-keyboard-response,29,251982,0.0-3.1-5.1-0.1,7040,List2B,black,man,,,,null,,,,
3863,"<img src=""portrait/BM2.jpg""style=""height:400px;""></img>",5,html-button-response,30,255847,0.0-3.1-7.1,7040,List2B,black,man,,TRUE,5,,,,,
null,CORRECT,,html-keyboard-response,31,257350,0.0-3.1-8.1-0.1,7040,List2B,black,man,,,,null,,,,
1785,"<img src=""portrait/WW2.jpg""style=""height:400px;""></img>",3,html-button-response,32,259136,0.0-3.1-10.1,7040,List2B,black,man,,TRUE,3,,,,,
null,CORRECT,,html-keyboard-response,33,260641,0.0-3.1-11.1-0.1,7040,List2B,black,man,,,,null,,,,
5326,"<img src=""portrait/BM1.jpg""style=""height:400px;""></img>",4,html-button-response,34,265969,0.0-3.1-13.1,7040,List2B,black,man,,TRUE,4,,,,,
null,CORRECT,,html-keyboard-response,35,267473,0.0-3.1-14.1-0.1,7040,List2B,black,man,,,,null,,,,
2533,"<img src=""portrait/BW2.jpg""style=""height:400px;""></img>",2,html-button-response,36,270009,0.0-3.1-16.1,7040,List2B,black,man,,TRUE,2,,,,,
null,CORRECT,,html-keyboard-response,37,271513,0.0-3.1-17.1-0.1,7040,List2B,black,man,,,,null,,,,
11723,"<img src=""portrait/WW1.jpg""style=""height:400px;""></img>",1,html-button-response,38,283237,0.0-3.1-19.1,7040,List2B,black,man,,TRUE,1,,,,,
null,CORRECT,,html-keyboard-response,39,284741,0.0-3.1-20.1-0.1,7040,List2B,black,man,,,,null,,,,
2175,"<img src=""portrait/BW1.jpg""style=""height:400px;""></img>",0,html-button-response,40,286919,0.0-3.1-22.1,7040,List2B,black,man,,TRUE,0,,,,,
null,CORRECT,,html-keyboard-response,41,288422,0.0-3.1-23.1-0.1,7040,List2B,black,man,,,,null,,,,
2847,<p>You got 8 out of 8 right first time. Press Continue.</p>,0,html-button-response,42,291271,0.0-3.1-25.1,7040,List2B,black,man,,,,,,,,
50557,"<p>In this experiment, you will view photographs of the people from the memory game interacting.</p><p>By using the <strong>exact</strong> phrase given <i>after</i> the photograph appears and recalling the correct names of the people in the photographs, form a sentence describing the interaction. You do not need to capitalise names.</p><p>Type your answer in the space provided. Please complete every sentence before moving onto the next trial.</p><p>You will only have a few seconds to memorise each given photograph and phrase before you can respond, so try your best to focus.</p><p>An example is given below. Press 'Continue' when you are ready.</p><img src='img/speaking_example.jpg' style='width:800px;height:460px;''></img>",0,html-button-response,43,342832,0.0-4.0,7040,List2B,black,man,,,,,,,,
3888,"<p>Before the experiment starts, you will watch two example trials. Press 'Continue'.</p>",0,html-button-response,44,347723,0.0-5.0,7040,List2B,black,man,,,,,,,,
null,<img src='img/meet_eg.gif' style='height:400px;''></img>,,html-keyboard-response,45,350727,0.0-6.0,7040,List2B,black,man,,,,null,,,,
null,<p>is meeting</p>,,html-keyboard-response,46,352729,0.0-7.0,7040,List2B,black,man,,,,null,,,,
5847,<p><b>Answer:</b> jane is meeting ruth</p>,0,html-button-response,47,358577,0.0-8.0,7040,List2B,black,man,,,,,,,,
null,<img src='img/look_eg.gif' style='height:400px;''></img>,,html-keyboard-response,48,361584,0.0-9.0,7040,List2B,black,man,,,,null,,,,
null,<p>are looking at each other</p>,,html-keyboard-response,49,363585,0.0-10.0,7040,List2B,black,man,,,,null,,,,
2112,<p><b>Answer:</b> fred and mike are looking at each other</p>,0,html-button-response,50,365697,0.0-11.0,7040,List2B,black,man,,,,,,,,
18539,"<p>Ready to start the experiment?</p><br><p><strong>Remember to describe the picture using a full sentence,</strong></p><p><strong>that combines the names of the people with the <i>exact</i> phrase given.</strong></p><p><strong>To receive full payment you must do this correctly.</strong></p><p><strong> You do not need to capitalise names or use punctuation.</strong></p><br><p>Press 'Continue' to begin.</p>",0,html-button-response,51,385239,0.0-12.0,7040,List2B,black,man,,,,,,,,
null,"<div style=""font-size:60px;"">+</div>",,html-keyboard-response,52,386746,0.0-13.0-0.0,7040,List2B,black,man,,,,null,,,,
null,"<img src=""stim_listB/talk8.gif""style=""height:400px;""></stim_listB>",,html-keyboard-response,53,388750,0.0-13.0-1.0,7040,List2B,black,man,,,,null,,,,
null,are talking to each other,,html-keyboard-response,54,390753,0.0-13.0-2.0,7040,List2B,black,man,,,,null,,,,
21733,,,survey-text,55,412489,0.0-13.0-3.0,7040,List2B,black,man,,,,,"{""Q0"":""jane and beth are talking to each other""}","<img src=""stim_listB/talk8.gif""style=""height:400px;""></stim_listB>",are talking to each other,
null,"<div style=""font-size:60px;"">+</div>",,html-keyboard-response,56,412992,0.0-13.0-0.1,7040,List2B,black,man,,,,null,,,,
null,"<img src=""stim_listB/touch2.gif""style=""height:400px;""></stim_listB>",,html-keyboard-response,57,414994,0.0-13.0-1.1,7040,List2B,black,man,,,,null,,,,
null,are touching each other,,html-keyboard-response,58,417003,0.0-13.0-2.1,7040,List2B,black,man,,,,null,,,,
29918,,,survey-text,59,446923,0.0-13.0-3.1,7040,List2B,black,man,,,,,"{""Q0"":""ruth and luke are touching each other""}","<img src=""stim_listB/touch2.gif""style=""height:400px;""></stim_listB>",are touching each other,
null,"<div style=""font-size:60px;"">+</div>",,html-keyboard-response,60,447425,0.0-13.0-0.2,7040,List2B,black,man,,,,null,,,,
null,"<img src=""stim_listB/shout2.gif""style=""height:400px;""></stim_listB>",,html-keyboard-response,61,449429,0.0-13.0-1.2,7040,List2B,black,man,,,,null,,,,
null,are shouting at each other,,html-keyboard-response,62,451433,0.0-13.0-2.2,7040,List2B,black,man,,,,null,,,,
24246,,,survey-text,63,475681,0.0-13.0-3.2,7040,List2B,black,man,,,,,"{""Q0"":""""}","<img src=""stim_listB/shout2.gif""style=""height:400px;""></stim_listB>",are shouting at each other,
null,"<div style=""font-size:60px;"">+</div>",,html-keyboard-response,64,476185,0.0-13.0-0.3,7040,List2B,black,man,,,,null,,,,
null,"<img src=""stim_listB/argue4.gif""style=""height:400px;""></stim_listB>",,html-keyboard-response,65,478187,0.0-13.0-1.3,7040,List2B,black,man,,,,null,,,,
null,are arguing with each other,,html-keyboard-response,66,480189,0.0-13.0-2.3,7040,List2B,black,man,,,,null,,,,
22665,,,survey-text,67,502854,0.0-13.0-3.3,7040,List2B,black,man,,,,,"{""Q0"":""fred and kate are arguing with each other""}","<img src=""stim_listB/argue4.gif""style=""height:400px;""></stim_listB>",are arguing with each other,
null,"<div style=""font-size:60px;"">+</div>",,html-keyboard-response,68,503356,0.0-13.0-0.4,7040,List2B,black,man,,,,null,,,,
null,"<img src=""stim_listB/talk3.gif""style=""height:400px;""></stim_listB>",,html-keyboard-response,69,505360,0.0-13.0-1.4,7040,List2B,black,man,,,,null,,,,
null,is talking to,,html-keyboard-response,70,507361,0.0-13.0-2.4,7040,List2B,black,man,,,,null,,,,
10860,,,survey-text,71,518223,0.0-13.0-3.4,7040,List2B,black,man,,,,,"{""Q0"":""fred is talking to kate""}","<img src=""stim_listB/talk3.gif""style=""height:400px;""></stim_listB>",is talking to,
null,"<div style=""font-size:60px;"">+</div>",,html-keyboard-response,72,518726,0.0-13.0-0.5,7040,List2B,black,man,,,,null,,,,
null,"<img src=""stim_listB/flirt3.gif""style=""height:400px;""></stim_listB>",,html-keyboard-response,73,520728,0.0-13.0-1.5,7040,List2B,black,man,,,,null,,,,
null,is flirting with,,html-keyboard-response,74,522729,0.0-13.0-2.5,7040,List2B,black,man,,,,null,,,,
21256,,,survey-text,75,543987,0.0-13.0-3.5,7040,List2B,black,man,,,,,"{""Q0"":""kate is flirting with kate""}","<img src=""stim_listB/flirt3.gif""style=""height:400px;""></stim_listB>",is flirting with,
null,"<div style=""font-size:60px;"">+</div>",,html-keyboard-response,76,544488,0.0-13.0-0.6,7040,List2B,black,man,,,,null,,,,
null,"<img src=""stim_listB/shout6.gif""style=""height:400px;""></stim_listB>",,html-keyboard-response,77,546491,0.0-13.0-1.6,7040,List2B,black,man,,,,null,,,,
null,are shouting at each other,,html-keyboard-response,78,548495,0.0-13.0-2.6,7040,List2B,black,man,,,,null,,,,
150930,,,survey-text,79,699427,0.0-13.0-3.6,7040,List2B,black,man,,,,,"{""Q0"":""mike and luke are shouting at each other""}","<img src=""stim_listB/shout6.gif""style=""height:400px;""></stim_listB>",are shouting at each other,
null,"<div style=""font-size:60px;"">+</div>",,html-keyboard-response,80,699929,0.0-13.0-0.7,7040,List2B,black,man,,,,null,,,,
null,"<img src=""stim_listB/play2.gif""style=""height:400px;""></stim_listB>",,html-keyboard-response,81,701932,0.0-13.0-1.7,7040,List2B,black,man,,,,null,,,,
null,are playing with each other,,html-keyboard-response,82,703934,0.0-13.0-2.7,7040,List2B,black,man,,,,null,,,,
19725,,,survey-text,83,723661,0.0-13.0-3.7,7040,List2B,black,man,,,,,"{""Q0"":""beth and mike are playing with each other""}","<img src=""stim_listB/play2.gif""style=""height:400px;""></stim_listB>",are playing with each other,
null,"<div style=""font-size:60px;"">+</div>",,html-keyboard-response,84,724163,0.0-13.0-0.8,7040,List2B,black,man,,,,null,,,,
null,"<img src=""stim_listB/marry4.gif""style=""height:400px;""></stim_listB>",,html-keyboard-response,85,726167,0.0-13.0-1.8,7040,List2B,black,man,,,,null,,,,
null,are marrying each other,,html-keyboard-response,86,728169,0.0-13.0-2.8,7040,List2B,black,man,,,,null,,,,
13868,,,survey-text,87,742039,0.0-13.0-3.8,7040,List2B,black,man,,,,,"{""Q0"":""fred and kate are marrying each other""}","<img src=""stim_listB/marry4.gif""style=""height:400px;""></stim_listB>",are marrying each other,
null,"<div style=""font-size:60px;"">+</div>",,html-keyboard-response,88,742541,0.0-13.0-0.9,7040,List2B,black,man,,,,null,,,,
null,"<img src=""stim_listB/argue3.gif""style=""height:400px;""></stim_listB>",,html-keyboard-response,89,744545,0.0-13.0-1.9,7040,List2B,black,man,,,,null,,,,
null,is arguing with,,html-keyboard-response,90,746547,0.0-13.0-2.9,7040,List2B,black,man,,,,null,,,,
16492,,,survey-text,91,763041,0.0-13.0-3.9,7040,List2B,black,man,,,,,"{""Q0"":""mike is arguing with beth""}","<img src=""stim_listB/argue3.gif""style=""height:400px;""></stim_listB>",is arguing with,
null,"<div style=""font-size:60px;"">+</div>",,html-keyboard-response,92,763543,0.0-13.0-0.10,7040,List2B,black,man,,,,null,,,,
null,"<img src=""stim_listB/marry6.gif""style=""height:400px;""></stim_listB>",,html-keyboard-response,93,765545,0.0-13.0-1.10,7040,List2B,black,man,,,,null,,,,
null,are marrying each other,,html-keyboard-response,94,767548,0.0-13.0-2.10,7040,List2B,black,man,,,,null,,,,
16819,,,survey-text,95,784369,0.0-13.0-3.10,7040,List2B,black,man,,,,,"{""Q0"":""mike and luke are marrying each other""}","<img src=""stim_listB/marry6.gif""style=""height:400px;""></stim_listB>",are marrying each other,
null,"<div style=""font-size:60px;"">+</div>",,html-keyboard-response,96,784873,0.0-13.0-0.11,7040,List2B,black,man,,,,null,,,,
null,"<img src=""stim_listB/fight1.gif""style=""height:400px;""></stim_listB>",,html-keyboard-response,97,786877,0.0-13.0-1.11,7040,List2B,black,man,,,,null,,,,
null,is fighting,,html-keyboard-response,98,788877,0.0-13.0-2.11,7040,List2B,black,man,,,,null,,,,
21917,,,survey-text,99,810796,0.0-13.0-3.11,7040,List2B,black,man,,,,,"{""Q0"":""jane is fighting john""}","<img src=""stim_listB/fight1.gif""style=""height:400px;""></stim_listB>",is fighting,
null,"<div style=""font-size:60px;"">+</div>",,html-keyboard-response,100,811298,0.0-13.0-0.12,7040,List2B,black,man,,,,null,,,,
null,"<img src=""stim_listB/marry5.gif""style=""height:400px;""></stim_listB>",,html-keyboard-response,101,813302,0.0-13.0-1.12,7040,List2B,black,man,,,,null,,,,
null,is marrying,,html-keyboard-response,102,815304,0.0-13.0-2.12,7040,List2B,black,man,,,,null,,,,
9620,,,survey-text,103,824926,0.0-13.0-3.12,7040,List2B,black,man,,,,,"{""Q0"":""fred is marrying john""}","<img src=""stim_listB/marry5.gif""style=""height:400px;""></stim_listB>",is marrying,
null,"<div style=""font-size:60px;"">+</div>",,html-keyboard-response,104,825427,0.0-13.0-0.13,7040,List2B,black,man,,,,null,,,,
null,"<img src=""stim_listB/flirt7.gif""style=""height:400px;""></stim_listB>",,html-keyboard-response,105,827431,0.0-13.0-1.13,7040,List2B,black,man,,,,null,,,,
null,is flirting with,,html-keyboard-response,106,829434,0.0-13.0-2.13,7040,List2B,black,man,,,,null,,,,
16112,,,survey-text,107,845548,0.0-13.0-3.13,7040,List2B,black,man,,,,,"{""Q0"":""ruth is flirting with kate""}","<img src=""stim_listB/flirt7.gif""style=""height:400px;""></stim_listB>",is flirting with,
null,"<div style=""font-size:60px;"">+</div>",,html-keyboard-response,108,846051,0.0-13.0-0.14,7040,List2B,black,man,,,,null,,,,
null,"<img src=""stim_listB/play7.gif""style=""height:400px;""></stim_listB>",,html-keyboard-response,109,848056,0.0-13.0-1.14,7040,List2B,black,man,,,,null,,,,
null,is playing with,,html-keyboard-response,110,850057,0.0-13.0-2.14,7040,List2B,black,man,,,,null,,,,
11847,,,survey-text,111,861907,0.0-13.0-3.14,7040,List2B,black,man,,,,,"{""Q0"":""kate is playing with jane""}","<img src=""stim_listB/play7.gif""style=""height:400px;""></stim_listB>",is playing with,
null,"<div style=""font-size:60px;"">+</div>",,html-keyboard-response,112,862410,0.0-13.0-0.15,7040,List2B,black,man,,,,null,,,,
null,"<img src=""stim_listB/fight7.gif""style=""height:400px;""></stim_listB>",,html-keyboard-response,113,864413,0.0-13.0-1.15,7040,List2B,black,man,,,,null,,,,
null,is fighting,,html-keyboard-response,114,866415,0.0-13.0-2.15,7040,List2B,black,man,,,,null,,,,
8861,,,survey-text,115,875279,0.0-13.0-3.15,7040,List2B,black,man,,,,,"{""Q0"":""kate is fighting jane""}","<img src=""stim_listB/fight7.gif""style=""height:400px;""></stim_listB>",is fighting,
null,"<div style=""font-size:60px;"">+</div>",,html-keyboard-response,116,875782,0.0-13.0-0.16,7040,List2B,black,man,,,,null,,,,
null,"<img src=""stim_listB/dance6.gif""style=""height:400px;""></stim_listB>",,html-keyboard-response,117,877786,0.0-13.0-1.16,7040,List2B,black,man,,,,null,,,,
null,are dancing with each other,,html-keyboard-response,118,879788,0.0-13.0-2.16,7040,List2B,black,man,,,,null,,,,
18311,,,survey-text,119,898101,0.0-13.0-3.16,7040,List2B,black,man,,,,,"{""Q0"":""fred and john are dancing with each other""}","<img src=""stim_listB/dance6.gif""style=""height:400px;""></stim_listB>",are dancing with each other,
null,"<div style=""font-size:60px;"">+</div>",,html-keyboard-response,120,898604,0.0-13.0-0.17,7040,List2B,black,man,,,,null,,,,
null,"<img src=""stim_listB/shout5.gif""style=""height:400px;""></stim_listB>",,html-keyboard-response,121,900606,0.0-13.0-1.17,7040,List2B,black,man,,,,null,,,,
null,is shouting at,,html-keyboard-response,122,902607,0.0-13.0-2.17,7040,List2B,black,man,,,,null,,,,
13982,,,survey-text,123,916591,0.0-13.0-3.17,7040,List2B,black,man,,,,,"{""Q0"":""fred is shouting at luke""}","<img src=""stim_listB/shout5.gif""style=""height:400px;""></stim_listB>",is shouting at,
null,"<div style=""font-size:60px;"">+</div>",,html-keyboard-response,124,917093,0.0-13.0-0.18,7040,List2B,black,man,,,,null,,,,
null,"<img src=""stim_listB/kiss1.gif""style=""height:400px;""></stim_listB>",,html-keyboard-response,125,919096,0.0-13.0-1.18,7040,List2B,black,man,,,,null,,,,
null,is kissing,,html-keyboard-response,126,921098,0.0-13.0-2.18,7040,List2B,black,man,,,,null,,,,
8666,,,survey-text,127,929766,0.0-13.0-3.18,7040,List2B,black,man,,,,,"{""Q0"":""ruth is kissing luke""}","<img src=""stim_listB/kiss1.gif""style=""height:400px;""></stim_listB>",is kissing,
null,"<div style=""font-size:60px;"">+</div>",,html-keyboard-response,128,930268,0.0-13.0-0.19,7040,List2B,black,man,,,,null,,,,
null,"<img src=""stim_listB/kiss8.gif""style=""height:400px;""></stim_listB>",,html-keyboard-response,129,932272,0.0-13.0-1.19,7040,List2B,black,man,,,,null,,,,
null,are kissing each other,,html-keyboard-response,130,934275,0.0-13.0-2.19,7040,List2B,black,man,,,,null,,,,
13639,,,survey-text,131,947916,0.0-13.0-3.19,7040,List2B,black,man,,,,,"{""Q0"":""kate and jane are kissing each other""}","<img src=""stim_listB/kiss8.gif""style=""height:400px;""></stim_listB>",are kissing each other,
31481,"<img src='img/portrait_matrix_list2.jpg' style='width:900px;height:500px;''></img><p>If you have memorised all the portraits and names and are ready to start, press Continue.</p><p><strong>Please note: Your memory of these faces will be tested 4 times during this experiment.</strong></p>",0,html-button-response,132,979399,0.0-14.0-0.0,7040,List2B,black,man,,,,,,,,
4165,"<img src=""portrait/WM1.jpg""style=""height:400px;""></img>",6,html-button-response,133,984569,0.0-14.0-1.0,7040,List2B,black,man,,TRUE,6,,,,,
null,CORRECT,,html-keyboard-response,134,986078,0.0-14.0-2.0-0.0,7040,List2B,black,man,,,,null,,,,
3437,"<img src=""portrait/WW1.jpg""style=""height:400px;""></img>",1,html-button-response,135,989518,0.0-14.0-4.0,7040,List2B,black,man,,TRUE,1,,,,,
null,CORRECT,,html-keyboard-response,136,991022,0.0-14.0-5.0-0.0,7040,List2B,black,man,,,,null,,,,
2953,"<img src=""portrait/BW2.jpg""style=""height:400px;""></img>",2,html-button-response,137,993979,0.0-14.0-7.0,7040,List2B,black,man,,TRUE,2,,,,,
null,CORRECT,,html-keyboard-response,138,995484,0.0-14.0-8.0-0.0,7040,List2B,black,man,,,,null,,,,
4693,"<img src=""portrait/BW1.jpg""style=""height:400px;""></img>",0,html-button-response,139,1000178,0.0-14.0-10.0,7040,List2B,black,man,,TRUE,0,,,,,
null,CORRECT,,html-keyboard-response,140,1001682,0.0-14.0-11.0-0.0,7040,List2B,black,man,,,,null,,,,
1758,"<img src=""portrait/WW2.jpg""style=""height:400px;""></img>",3,html-button-response,141,1003442,0.0-14.0-13.0,7040,List2B,black,man,,TRUE,3,,,,,
null,CORRECT,,html-keyboard-response,142,1004947,0.0-14.0-14.0-0.0,7040,List2B,black,man,,,,null,,,,
1875,"<img src=""portrait/WM2.jpg""style=""height:400px;""></img>",7,html-button-response,143,1006825,0.0-14.0-16.0,7040,List2B,black,man,,TRUE,7,,,,,
null,CORRECT,,html-keyboard-response,144,1008329,0.0-14.0-17.0-0.0,7040,List2B,black,man,,,,null,,,,
4279,"<img src=""portrait/BM2.jpg""style=""height:400px;""></img>",5,html-button-response,145,1012611,0.0-14.0-19.0,7040,List2B,black,man,,TRUE,5,,,,,
null,CORRECT,,html-keyboard-response,146,1014115,0.0-14.0-20.0-0.0,7040,List2B,black,man,,,,null,,,,
2116,"<img src=""portrait/BM1.jpg""style=""height:400px;""></img>",4,html-button-response,147,1016234,0.0-14.0-22.0,7040,List2B,black,man,,TRUE,4,,,,,
null,CORRECT,,html-keyboard-response,148,1017737,0.0-14.0-23.0-0.0,7040,List2B,black,man,,,,null,,,,
1386,<p>You got 8 out of 8 right first time. Press Continue.</p>,0,html-button-response,149,1019124,0.0-14.0-25.0,7040,List2B,black,man,,,,,,,,
null,"<div style=""font-size:60px;"">+</div>",,html-keyboard-response,150,1020631,0.0-15.0-0.0,7040,List2B,black,man,,,,null,,,,
null,"<img src=""stim_listB/shout4.gif""style=""height:400px;""></stim_listB>",,html-keyboard-response,151,1022633,0.0-15.0-1.0,7040,List2B,black,man,,,,null,,,,
null,are shouting at each other,,html-keyboard-response,152,1024635,0.0-15.0-2.0,7040,List2B,black,man,,,,null,,,,
16982,,,survey-text,153,1041619,0.0-15.0-3.0,7040,List2B,black,man,,,,,"{""Q0"":""kate and mike are shouting at each other""}","<img src=""stim_listB/shout4.gif""style=""height:400px;""></stim_listB>",are shouting at each other,
null,"<div style=""font-size:60px;"">+</div>",,html-keyboard-response,154,1042121,0.0-15.0-0.1,7040,List2B,black,man,,,,null,,,,
null,"<img src=""stim_listB/argue7.gif""style=""height:400px;""></stim_listB>",,html-keyboard-response,155,1044127,0.0-15.0-1.1,7040,List2B,black,man,,,,null,,,,
null,is arguing with,,html-keyboard-response,156,1046129,0.0-15.0-2.1,7040,List2B,black,man,,,,null,,,,
10548,,,survey-text,157,1056678,0.0-15.0-3.1,7040,List2B,black,man,,,,,"{""Q0"":""beth is arguing with jane""}","<img src=""stim_listB/argue7.gif""style=""height:400px;""></stim_listB>",is arguing with,
null,"<div style=""font-size:60px;"">+</div>",,html-keyboard-response,158,1057180,0.0-15.0-0.2,7040,List2B,black,man,,,,null,,,,
null,"<img src=""stim_listB/talk2.gif""style=""height:400px;""></stim_listB>",,html-keyboard-response,159,1059183,0.0-15.0-1.2,7040,List2B,black,man,,,,null,,,,
null,are talking to each other,,html-keyboard-response,160,1061185,0.0-15.0-2.2,7040,List2B,black,man,,,,null,,,,
11971,,,survey-text,161,1073159,0.0-15.0-3.2,7040,List2B,black,man,,,,,"{""Q0"":""dave and ruth are talking to each other""}","<img src=""stim_listB/talk2.gif""style=""height:400px;""></stim_listB>",are talking to each other,
null,"<div style=""font-size:60px;"">+</div>",,html-keyboard-response,162,1073662,0.0-15.0-0.3,7040,List2B,black,man,,,,null,,,,
null,"<img src=""stim_listB/argue1.gif""style=""height:400px;""></stim_listB>",,html-keyboard-response,163,1075666,0.0-15.0-1.3,7040,List2B,black,man,,,,null,,,,
null,is arguing with,,html-keyboard-response,164,1077667,0.0-15.0-2.3,7040,List2B,black,man,,,,null,,,,
9626,,,survey-text,165,1087295,0.0-15.0-3.3,7040,List2B,black,man,,,,,"{""Q0"":""dave is arguing with ruth""}","<img src=""stim_listB/argue1.gif""style=""height:400px;""></stim_listB>",is arguing with,
null,"<div style=""font-size:60px;"">+</div>",,html-keyboard-response,166,1087797,0.0-15.0-0.4,7040,List2B,black,man,,,,null,,,,
null,"<img src=""stim_listB/flirt1.gif""style=""height:400px;""></stim_listB>",,html-keyboard-response,167,1089799,0.0-15.0-1.4,7040,List2B,black,man,,,,null,,,,
null,is flirting with,,html-keyboard-response,168,1091802,0.0-15.0-2.4,7040,List2B,black,man,,,,null,,,,
18764,,,survey-text,169,1110568,0.0-15.0-3.4,7040,List2B,black,man,,,,,"{""Q0"":""jane is flirting with dave""}","<img src=""stim_listB/flirt1.gif""style=""height:400px;""></stim_listB>",is flirting with,
null,"<div style=""font-size:60px;"">+</div>",,html-keyboard-response,170,1111070,0.0-15.0-0.5,7040,List2B,black,man,,,,null,,,,
null,"<img src=""stim_listB/play1.gif""style=""height:400px;""></stim_listB>",,html-keyboard-response,171,1113073,0.0-15.0-1.5,7040,List2B,black,man,,,,null,,,,
null,is playing with,,html-keyboard-response,172,1115077,0.0-15.0-2.5,7040,List2B,black,man,,,,null,,,,
12417,,,survey-text,173,1127495,0.0-15.0-3.5,7040,List2B,black,man,,,,,"{""Q0"":""dave is playing with ruth""}","<img src=""stim_listB/play1.gif""style=""height:400px;""></stim_listB>",is playing with,
null,"<div style=""font-size:60px;"">+</div>",,html-keyboard-response,174,1127997,0.0-15.0-0.6,7040,List2B,black,man,,,,null,,,,
null,"<img src=""stim_listB/fight8.gif""style=""height:400px;""></stim_listB>",,html-keyboard-response,175,1130000,0.0-15.0-1.6,7040,List2B,black,man,,,,null,,,,
null,are fighting each other,,html-keyboard-response,176,1132004,0.0-15.0-2.6,7040,List2B,black,man,,,,null,,,,
12724,,,survey-text,177,1144729,0.0-15.0-3.6,7040,List2B,black,man,,,,,"{""Q0"":""ruth and beth are fighting each other""}","<img src=""stim_listB/fight8.gif""style=""height:400px;""></stim_listB>",are fighting each other,
null,"<div style=""font-size:60px;"">+</div>",,html-keyboard-response,178,1145231,0.0-15.0-0.7,7040,List2B,black,man,,,,null,,,,
null,"<img src=""stim_listB/flirt8.gif""style=""height:400px;""></stim_listB>",,html-keyboard-response,179,1147236,0.0-15.0-1.7,7040,List2B,black,man,,,,null,,,,
null,are flirting with each other,,html-keyboard-response,180,1149238,0.0-15.0-2.7,7040,List2B,black,man,,,,null,,,,
18528,,,survey-text,181,1167769,0.0-15.0-3.7,7040,List2B,black,man,,,,,"{""Q0"":""jane and beth are flirting with each other""}","<img src=""stim_listB/flirt8.gif""style=""height:400px;""></stim_listB>",are flirting with each other,
null,"<div style=""font-size:60px;"">+</div>",,html-keyboard-response,182,1168271,0.0-15.0-0.8,7040,List2B,black,man,,,,null,,,,
null,"<img src=""stim_listB/flirt6.gif""style=""height:400px;""></stim_listB>",,html-keyboard-response,183,1170274,0.0-15.0-1.8,7040,List2B,black,man,,,,null,,,,
null,are flirting with each other,,html-keyboard-response,184,1172277,0.0-15.0-2.8,7040,List2B,black,man,,,,null,,,,
13870,,,survey-text,185,1186149,0.0-15.0-3.8,7040,List2B,black,man,,,,,"{""Q0"":""fred and dave are flirting with each other""}","<img src=""stim_listB/flirt6.gif""style=""height:400px;""></stim_listB>",are flirting with each other,
null,"<div style=""font-size:60px;"">+</div>",,html-keyboard-response,186,1186651,0.0-15.0-0.9,7040,List2B,black,man,,,,null,,,,
null,"<img src=""stim_listB/marry2.gif""style=""height:400px;""></stim_listB>",,html-keyboard-response,187,1188654,0.0-15.0-1.9,7040,List2B,black,man,,,,null,,,,
null,are marrying each other,,html-keyboard-response,188,1190656,0.0-15.0-2.9,7040,List2B,black,man,,,,null,,,,
15757,,,survey-text,189,1206415,0.0-15.0-3.9,7040,List2B,black,man,,,,,"{""Q0"":""luke and jane are marrying each other""}","<img src=""stim_listB/marry2.gif""style=""height:400px;""></stim_listB>",are marrying each other,
null,"<div style=""font-size:60px;"">+</div>",,html-keyboard-response,190,1206917,0.0-15.0-0.10,7040,List2B,black,man,,,,null,,,,
null,"<img src=""stim_listB/kiss4.gif""style=""height:400px;""></stim_listB>",,html-keyboard-response,191,1208920,0.0-15.0-1.10,7040,List2B,black,man,,,,null,,,,
null,are kissing each other,,html-keyboard-response,192,1210922,0.0-15.0-2.10,7040,List2B,black,man,,,,null,,,,
29229,,,survey-text,193,1240153,0.0-15.0-3.10,7040,List2B,black,man,,,,,"{""Q0"":""mike and kate are marrying each other""}","<img src=""stim_listB/kiss4.gif""style=""height:400px;""></stim_listB>",are kissing each other,
null,"<div style=""font-size:60px;"">+</div>",,html-keyboard-response,194,1240656,0.0-15.0-0.11,7040,List2B,black,man,,,,null,,,,
null,"<img src=""stim_listB/touch5.gif""style=""height:400px;""></stim_listB>",,html-keyboard-response,195,1242659,0.0-15.0-1.11,7040,List2B,black,man,,,,null,,,,
null,is touching,,html-keyboard-response,196,1244662,0.0-15.0-2.11,7040,List2B,black,man,,,,null,,,,
14363,,,survey-text,197,1259027,0.0-15.0-3.11,7040,List2B,black,man,,,,,"{""Q0"":""dave is touching mike""}","<img src=""stim_listB/touch5.gif""style=""height:400px;""></stim_listB>",is touching,
null,"<div style=""font-size:60px;"">+</div>",,html-keyboard-response,198,1259528,0.0-15.0-0.12,7040,List2B,black,man,,,,null,,,,
null,"<img src=""stim_listB/touch1.gif""style=""height:400px;""></stim_listB>",,html-keyboard-response,199,1261534,0.0-15.0-1.12,7040,List2B,black,man,,,,null,,,,
null,is touching,,html-keyboard-response,200,1263537,0.0-15.0-2.12,7040,List2B,black,man,,,,null,,,,
14864,,,survey-text,201,1278403,0.0-15.0-3.12,7040,List2B,black,man,,,,,"{""Q0"":""dave is touching jane""}","<img src=""stim_listB/touch1.gif""style=""height:400px;""></stim_listB>",is touching,
null,"<div style=""font-size:60px;"">+</div>",,html-keyboard-response,202,1278905,0.0-15.0-0.13,7040,List2B,black,man,,,,null,,,,
null,"<img src=""stim_listB/talk6.gif""style=""height:400px;""></stim_listB>",,html-keyboard-response,203,1280912,0.0-15.0-1.13,7040,List2B,black,man,,,,null,,,,
null,are talking to each other,,html-keyboard-response,204,1282915,0.0-15.0-2.13,7040,List2B,black,man,,,,null,,,,
11528,,,survey-text,205,1294445,0.0-15.0-3.13,7040,List2B,black,man,,,,,"{""Q0"":""dave and fred are talking to each other""}","<img src=""stim_listB/talk6.gif""style=""height:400px;""></stim_listB>",are talking to each other,
null,"<div style=""font-size:60px;"">+</div>",,html-keyboard-response,206,1294946,0.0-15.0-0.14,7040,List2B,black,man,,,,null,,,,
null,"<img src=""stim_listB/dance2.gif""style=""height:400px;""></stim_listB>",,html-keyboard-response,207,1296950,0.0-15.0-1.14,7040,List2B,black,man,,,,null,,,,
null,are dancing with each other,,html-keyboard-response,208,1298953,0.0-15.0-2.14,7040,List2B,black,man,,,,null,,,,
20090,,,survey-text,209,1319045,0.0-15.0-3.14,7040,List2B,black,man,,,,,"{""Q0"":""dave and ruth are dancing with each other""}","<img src=""stim_listB/dance2.gif""style=""height:400px;""></stim_listB>",are dancing with each other,
null,"<div style=""font-size:60px;"">+</div>",,html-keyboard-response,210,1319547,0.0-15.0-0.15,7040,List2B,black,man,,,,null,,,,
null,"<img src=""stim_listB/talk1.gif""style=""height:400px;""></stim_listB>",,html-keyboard-response,211,1321551,0.0-15.0-1.15,7040,List2B,black,man,,,,null,,,,
null,is talking to,,html-keyboard-response,212,1323554,0.0-15.0-2.15,7040,List2B,black,man,,,,null,,,,
9811,,,survey-text,213,1333367,0.0-15.0-3.15,7040,List2B,black,man,,,,,"{""Q0"":""jane is talking to luke""}","<img src=""stim_listB/talk1.gif""style=""height:400px;""></stim_listB>",is talking to,
null,"<div style=""font-size:60px;"">+</div>",,html-keyboard-response,214,1333870,0.0-15.0-0.16,7040,List2B,black,man,,,,null,,,,
null,"<img src=""stim_listB/flirt4.gif""style=""height:400px;""></stim_listB>",,html-keyboard-response,215,1335873,0.0-15.0-1.16,7040,List2B,black,man,,,,null,,,,
null,are flirting with each other,,html-keyboard-response,216,1337892,0.0-15.0-2.16,7040,List2B,black,man,,,,null,,,,
17938,,,survey-text,217,1355840,0.0-15.0-3.16,7040,List2B,black,man,,,,,"{""Q0"":""mike and beth are flirting with each other""}","<img src=""stim_listB/flirt4.gif""style=""height:400px;""></stim_listB>",are flirting with each other,
null,"<div style=""font-size:60px;"">+</div>",,html-keyboard-response,218,1356342,0.0-15.0-0.17,7040,List2B,black,man,,,,null,,,,
null,"<img src=""stim_listB/shout3.gif""style=""height:400px;""></stim_listB>",,html-keyboard-response,219,1358345,0.0-15.0-1.17,7040,List2B,black,man,,,,null,,,,
null,is shouting at,,html-keyboard-response,220,1360347,0.0-15.0-2.17,7040,List2B,black,man,,,,null,,,,
15853,,,survey-text,221,1376202,0.0-15.0-3.17,7040,List2B,black,man,,,,,"{""Q0"":""fred is shouting at beth""}","<img src=""stim_listB/shout3.gif""style=""height:400px;""></stim_listB>",is shouting at,
null,"<div style=""font-size:60px;"">+</div>",,html-keyboard-response,222,1376704,0.0-15.0-0.18,7040,List2B,black,man,,,,null,,,,
null,"<img src=""stim_listB/play8.gif""style=""height:400px;""></stim_listB>",,html-keyboard-response,223,1378707,0.0-15.0-1.18,7040,List2B,black,man,,,,null,,,,
null,are playing with each other,,html-keyboard-response,224,1380710,0.0-15.0-2.18,7040,List2B,black,man,,,,null,,,,
30642,,,survey-text,225,1411354,0.0-15.0-3.18,7040,List2B,black,man,,,,,"{""Q0"":""ruth and beth are playing with each other""}","<img src=""stim_listB/play8.gif""style=""height:400px;""></stim_listB>",are playing with each other,
null,"<div style=""font-size:60px;"">+</div>",,html-keyboard-response,226,1411857,0.0-15.0-0.19,7040,List2B,black,man,,,,null,,,,
null,"<img src=""stim_listB/touch8.gif""style=""height:400px;""></stim_listB>",,html-keyboard-response,227,1413862,0.0-15.0-1.19,7040,List2B,black,man,,,,null,,,,
null,are touching each other,,html-keyboard-response,228,1415864,0.0-15.0-2.19,7040,List2B,black,man,,,,null,,,,
42827,,,survey-text,229,1458694,0.0-15.0-3.19,7040,List2B,black,man,,,,,"{""Q0"":""ruth and beth are touching each other""}","<img src=""stim_listB/touch8.gif""style=""height:400px;""></stim_listB>",are touching each other,
61435,"<img src='img/portrait_matrix_list2.jpg' style='width:900px;height:500px;''></img><p>If you have memorised all the portraits and names and are ready to start, press Continue.</p><p><strong>Please note: Your memory of these faces will be tested 4 times during this experiment.</strong></p>",0,html-button-response,230,1520131,0.0-16.0-0.0,7040,List2B,black,man,,,,,,,,
2956,"<img src=""portrait/BM1.jpg""style=""height:400px;""></img>",4,html-button-response,231,1524091,0.0-16.0-1.0,7040,List2B,black,man,,TRUE,4,,,,,
null,CORRECT,,html-keyboard-response,232,1525595,0.0-16.0-2.0-0.0,7040,List2B,black,man,,,,null,,,,
5592,"<img src=""portrait/WW1.jpg""style=""height:400px;""></img>",1,html-button-response,233,1531188,0.0-16.0-4.0,7040,List2B,black,man,,TRUE,1,,,,,
null,CORRECT,,html-keyboard-response,234,1532693,0.0-16.0-5.0-0.0,7040,List2B,black,man,,,,null,,,,
3021,"<img src=""portrait/WM1.jpg""style=""height:400px;""></img>",6,html-button-response,235,1535717,0.0-16.0-7.0,7040,List2B,black,man,,TRUE,6,,,,,
null,CORRECT,,html-keyboard-response,236,1537221,0.0-16.0-8.0-0.0,7040,List2B,black,man,,,,null,,,,
5130,"<img src=""portrait/BM2.jpg""style=""height:400px;""></img>",5,html-button-response,237,1542353,0.0-16.0-10.0,7040,List2B,black,man,,TRUE,5,,,,,
null,CORRECT,,html-keyboard-response,238,1543858,0.0-16.0-11.0-0.0,7040,List2B,black,man,,,,null,,,,
3913,"<img src=""portrait/BW2.jpg""style=""height:400px;""></img>",2,html-button-response,239,1547773,0.0-16.0-13.0,7040,List2B,black,man,,TRUE,2,,,,,
null,CORRECT,,html-keyboard-response,240,1549275,0.0-16.0-14.0-0.0,7040,List2B,black,man,,,,null,,,,
7094,"<img src=""portrait/BW1.jpg""style=""height:400px;""></img>",0,html-button-response,241,1556371,0.0-16.0-16.0,7040,List2B,black,man,,TRUE,0,,,,,
null,CORRECT,,html-keyboard-response,242,1557875,0.0-16.0-17.0-0.0,7040,List2B,black,man,,,,null,,,,
2108,"<img src=""portrait/WM2.jpg""style=""height:400px;""></img>",7,html-button-response,243,1559985,0.0-16.0-19.0,7040,List2B,black,man,,TRUE,7,,,,,
null,CORRECT,,html-keyboard-response,244,1561489,0.0-16.0-20.0-0.0,7040,List2B,black,man,,,,null,,,,
1887,"<img src=""portrait/WW2.jpg""style=""height:400px;""></img>",3,html-button-response,245,1563381,0.0-16.0-22.0,7040,List2B,black,man,,TRUE,3,,,,,
null,CORRECT,,html-keyboard-response,246,1564884,0.0-16.0-23.0-0.0,7040,List2B,black,man,,,,null,,,,
15875,<p>You got 8 out of 8 right first time. Press Continue.</p>,0,html-button-response,247,1580761,0.0-16.0-25.0,7040,List2B,black,man,,,,,,,,
null,"<div style=""font-size:60px;"">+</div>",,html-keyboard-response,248,1582266,0.0-17.0-0.0,7040,List2B,black,man,,,,null,,,,
null,"<img src=""stim_listB/shout7.gif""style=""height:400px;""></stim_listB>",,html-keyboard-response,249,1584271,0.0-17.0-1.0,7040,List2B,black,man,,,,null,,,,
null,is shouting at,,html-keyboard-response,250,1586273,0.0-17.0-2.0,7040,List2B,black,man,,,,null,,,,
90268,,,survey-text,251,1676542,0.0-17.0-3.0,7040,List2B,black,man,,,,,"{""Q0"":""beth is shouting at ruth""}","<img src=""stim_listB/shout7.gif""style=""height:400px;""></stim_listB>",is shouting at,
null,"<div style=""font-size:60px;"">+</div>",,html-keyboard-response,252,1677045,0.0-17.0-0.1,7040,List2B,black,man,,,,null,,,,
null,"<img src=""stim_listB/shout1.gif""style=""height:400px;""></stim_listB>",,html-keyboard-response,253,1679049,0.0-17.0-1.1,7040,List2B,black,man,,,,null,,,,
null,is shouting at,,html-keyboard-response,254,1681052,0.0-17.0-2.1,7040,List2B,black,man,,,,null,,,,
13673,,,survey-text,255,1694727,0.0-17.0-3.1,7040,List2B,black,man,,,,,"{""Q0"":""ruth is shouting at luke""}","<img src=""stim_listB/shout1.gif""style=""height:400px;""></stim_listB>",is shouting at,
null,"<div style=""font-size:60px;"">+</div>",,html-keyboard-response,256,1695229,0.0-17.0-0.2,7040,List2B,black,man,,,,null,,,,
null,"<img src=""stim_listB/flirt2.gif""style=""height:400px;""></stim_listB>",,html-keyboard-response,257,1697231,0.0-17.0-1.2,7040,List2B,black,man,,,,null,,,,
null,are flirting with each other,,html-keyboard-response,258,1699234,0.0-17.0-2.2,7040,List2B,black,man,,,,null,,,,
28412,,,survey-text,259,1727646,0.0-17.0-3.2,7040,List2B,black,man,,,,,"{""Q0"":""dave and ruth are flirting with each other""}","<img src=""stim_listB/flirt2.gif""style=""height:400px;""></stim_listB>",are flirting with each other,
null,"<div style=""font-size:60px;"">+</div>",,html-keyboard-response,260,1728149,0.0-17.0-0.3,7040,List2B,black,man,,,,null,,,,
null,"<img src=""stim_listB/fight6.gif""style=""height:400px;""></stim_listB>",,html-keyboard-response,261,1730154,0.0-17.0-1.3,7040,List2B,black,man,,,,null,,,,
null,are fighting each other,,html-keyboard-response,262,1732155,0.0-17.0-2.3,7040,List2B,black,man,,,,null,,,,
23065,,,survey-text,263,1755223,0.0-17.0-3.3,7040,List2B,black,man,,,,,"{""Q0"":""luke and fred are fighting each other""}","<img src=""stim_listB/fight6.gif""style=""height:400px;""></stim_listB>",are fighting each other,
null,"<div style=""font-size:60px;"">+</div>",,html-keyboard-response,264,1755724,0.0-17.0-0.4,7040,List2B,black,man,,,,null,,,,
null,"<img src=""stim_listB/talk5.gif""style=""height:400px;""></stim_listB>",,html-keyboard-response,265,1757729,0.0-17.0-1.4,7040,List2B,black,man,,,,null,,,,
null,is talking to,,html-keyboard-response,266,1759732,0.0-17.0-2.4,7040,List2B,black,man,,,,null,,,,
13572,,,survey-text,267,1773305,0.0-17.0-3.4,7040,List2B,black,man,,,,,"{""Q0"":""mike is talking to luke""}","<img src=""stim_listB/talk5.gif""style=""height:400px;""></stim_listB>",is talking to,
null,"<div style=""font-size:60px;"">+</div>",,html-keyboard-response,268,1773808,0.0-17.0-0.5,7040,List2B,black,man,,,,null,,,,
null,"<img src=""stim_listB/play4.gif""style=""height:400px;""></stim_listB>",,html-keyboard-response,269,1775811,0.0-17.0-1.5,7040,List2B,black,man,,,,null,,,,
null,are playing with each other,,html-keyboard-response,270,1777813,0.0-17.0-2.5,7040,List2B,black,man,,,,null,,,,
18429,,,survey-text,271,1796244,0.0-17.0-3.5,7040,List2B,black,man,,,,,"{""Q0"":""fred and beth are playing with each other""}","<img src=""stim_listB/play4.gif""style=""height:400px;""></stim_listB>",are playing with each other,
null,"<div style=""font-size:60px;"">+</div>",,html-keyboard-response,272,1796747,0.0-17.0-0.6,7040,List2B,black,man,,,,null,,,,
null,"<img src=""stim_listB/dance4.gif""style=""height:400px;""></stim_listB>",,html-keyboard-response,273,1798751,0.0-17.0-1.6,7040,List2B,black,man,,,,null,,,,
null,are dancing with each other,,html-keyboard-response,274,1800754,0.0-17.0-2.6,7040,List2B,black,man,,,,null,,,,
21930,,,survey-text,275,1822687,0.0-17.0-3.6,7040,List2B,black,man,,,,,"{""Q0"":""mike and beth are dancing with each other""}","<img src=""stim_listB/dance4.gif""style=""height:400px;""></stim_listB>",are dancing with each other,
null,"<div style=""font-size:60px;"">+</div>",,html-keyboard-response,276,1823188,0.0-17.0-0.7,7040,List2B,black,man,,,,null,,,,
null,"<img src=""stim_listB/marry8.gif""style=""height:400px;""></stim_listB>",,html-keyboard-response,277,1825192,0.0-17.0-1.7,7040,List2B,black,man,,,,null,,,,
null,are marrying each other,,html-keyboard-response,278,1827199,0.0-17.0-2.7,7040,List2B,black,man,,,,null,,,,
50451,,,survey-text,279,1877651,0.0-17.0-3.7,7040,List2B,black,man,,,,,"{""Q0"":""ruth and kate are marrying each other""}","<img src=""stim_listB/marry8.gif""style=""height:400px;""></stim_listB>",are marrying each other,
null,"<div style=""font-size:60px;"">+</div>",,html-keyboard-response,280,1878154,0.0-17.0-0.8,7040,List2B,black,man,,,,null,,,,
null,"<img src=""stim_listB/dance7.gif""style=""height:400px;""></stim_listB>",,html-keyboard-response,281,1880158,0.0-17.0-1.8,7040,List2B,black,man,,,,null,,,,
null,is dancing with,,html-keyboard-response,282,1882161,0.0-17.0-2.8,7040,List2B,black,man,,,,null,,,,
19629,,,survey-text,283,1901792,0.0-17.0-3.8,7040,List2B,black,man,,,,,"{""Q0"":""kate is dancing with ruth""}","<img src=""stim_listB/dance7.gif""style=""height:400px;""></stim_listB>",is dancing with,
null,"<div style=""font-size:60px;"">+</div>",,html-keyboard-response,284,1902295,0.0-17.0-0.9,7040,List2B,black,man,,,,null,,,,
null,"<img src=""stim_listB/play6.gif""style=""height:400px;""></stim_listB>",,html-keyboard-response,285,1904300,0.0-17.0-1.9,7040,List2B,black,man,,,,null,,,,
null,are playing with each other,,html-keyboard-response,286,1906303,0.0-17.0-2.9,7040,List2B,black,man,,,,null,,,,
17493,,,survey-text,287,1923798,0.0-17.0-3.9,7040,List2B,black,man,,,,,"{""Q0"":""luke and fred are playing with each other""}","<img src=""stim_listB/play6.gif""style=""height:400px;""></stim_listB>",are playing with each other,
null,"<div style=""font-size:60px;"">+</div>",,html-keyboard-response,288,1924301,0.0-17.0-0.10,7040,List2B,black,man,,,,null,,,,
null,"<img src=""stim_listB/argue2.gif""style=""height:400px;""></stim_listB>",,html-keyboard-response,289,1926305,0.0-17.0-1.10,7040,List2B,black,man,,,,null,,,,
null,are arguing with each other,,html-keyboard-response,290,1928307,0.0-17.0-2.10,7040,List2B,black,man,,,,null,,,,
19800,,,survey-text,291,1948110,0.0-17.0-3.10,7040,List2B,black,man,,,,,"{""Q0"":""luke and jane are arguing with each other""}","<img src=""stim_listB/argue2.gif""style=""height:400px;""></stim_listB>",are arguing with each other,
null,"<div style=""font-size:60px;"">+</div>",,html-keyboard-response,292,1948613,0.0-17.0-0.11,7040,List2B,black,man,,,,null,,,,
null,"<img src=""stim_listB/dance5.gif""style=""height:400px;""></stim_listB>",,html-keyboard-response,293,1950615,0.0-17.0-1.11,7040,List2B,black,man,,,,null,,,,
null,is dancing with,,html-keyboard-response,294,1952617,0.0-17.0-2.11,7040,List2B,black,man,,,,null,,,,
21713,,,survey-text,295,1974332,0.0-17.0-3.11,7040,List2B,black,man,,,,,"{""Q0"":""mike is dancing with luke""}","<img src=""stim_listB/dance5.gif""style=""height:400px;""></stim_listB>",is dancing with,
null,"<div style=""font-size:60px;"">+</div>",,html-keyboard-response,296,1974834,0.0-17.0-0.12,7040,List2B,black,man,,,,null,,,,
null,"<img src=""stim_listB/dance3.gif""style=""height:400px;""></stim_listB>",,html-keyboard-response,297,1976837,0.0-17.0-1.12,7040,List2B,black,man,,,,null,,,,
null,is dancing with,,html-keyboard-response,298,1978839,0.0-17.0-2.12,7040,List2B,black,man,,,,null,,,,
23865,,,survey-text,299,2002706,0.0-17.0-3.12,7040,List2B,black,man,,,,,"{""Q0"":""fred is dancing with kate""}","<img src=""stim_listB/dance3.gif""style=""height:400px;""></stim_listB>",is dancing with,
null,"<div style=""font-size:60px;"">+</div>",,html-keyboard-response,300,2003209,0.0-17.0-0.13,7040,List2B,black,man,,,,null,,,,
null,"<img src=""stim_listB/fight3.gif""style=""height:400px;""></stim_listB>",,html-keyboard-response,301,2005213,0.0-17.0-1.13,7040,List2B,black,man,,,,null,,,,
null,is fighting,,html-keyboard-response,302,2007214,0.0-17.0-2.13,7040,List2B,black,man,,,,null,,,,
9011,,,survey-text,303,2016226,0.0-17.0-3.13,7040,List2B,black,man,,,,,"{""Q0"":""kate is fighting mike""}","<img src=""stim_listB/fight3.gif""style=""height:400px;""></stim_listB>",is fighting,
null,"<div style=""font-size:60px;"">+</div>",,html-keyboard-response,304,2016729,0.0-17.0-0.14,7040,List2B,black,man,,,,null,,,,
null,"<img src=""stim_listB/flirt5.gif""style=""height:400px;""></stim_listB>",,html-keyboard-response,305,2018731,0.0-17.0-1.14,7040,List2B,black,man,,,,null,,,,
null,is flirting with,,html-keyboard-response,306,2020734,0.0-17.0-2.14,7040,List2B,black,man,,,,null,,,,
16337,,,survey-text,307,2037072,0.0-17.0-3.14,7040,List2B,black,man,,,,,"{""Q0"":""luke is flirting with mike""}","<img src=""stim_listB/flirt5.gif""style=""height:400px;""></stim_listB>",is flirting with,
null,"<div style=""font-size:60px;"">+</div>",,html-keyboard-response,308,2037576,0.0-17.0-0.15,7040,List2B,black,man,,,,null,,,,
null,"<img src=""stim_listB/kiss6.gif""style=""height:400px;""></stim_listB>",,html-keyboard-response,309,2039581,0.0-17.0-1.15,7040,List2B,black,man,,,,null,,,,
null,are kissing each other,,html-keyboard-response,310,2041583,0.0-17.0-2.15,7040,List2B,black,man,,,,null,,,,
13230,,,survey-text,311,2054814,0.0-17.0-3.15,7040,List2B,black,man,,,,,"{""Q0"":""dave and mike are kissing each other""}","<img src=""stim_listB/kiss6.gif""style=""height:400px;""></stim_listB>",are kissing each other,
null,"<div style=""font-size:60px;"">+</div>",,html-keyboard-response,312,2055317,0.0-17.0-0.16,7040,List2B,black,man,,,,null,,,,
null,"<img src=""stim_listB/fight5.gif""style=""height:400px;""></stim_listB>",,html-keyboard-response,313,2057322,0.0-17.0-1.16,7040,List2B,black,man,,,,null,,,,
null,is fighting,,html-keyboard-response,314,2059326,0.0-17.0-2.16,7040,List2B,black,man,,,,null,,,,
11170,,,survey-text,315,2070496,0.0-17.0-3.16,7040,List2B,black,man,,,,,"{""Q0"":""mike is fighting dave""}","<img src=""stim_listB/fight5.gif""style=""height:400px;""></stim_listB>",is fighting,
null,"<div style=""font-size:60px;"">+</div>",,html-keyboard-response,316,2070998,0.0-17.0-0.17,7040,List2B,black,man,,,,null,,,,
null,"<img src=""stim_listB/shout8.gif""style=""height:400px;""></stim_listB>",,html-keyboard-response,317,2073005,0.0-17.0-1.17,7040,List2B,black,man,,,,null,,,,
null,are shouting at each other,,html-keyboard-response,318,2075008,0.0-17.0-2.17,7040,List2B,black,man,,,,null,,,,
19694,,,survey-text,319,2094705,0.0-17.0-3.17,7040,List2B,black,man,,,,,"{""Q0"":""jane and kate are fighting each other""}","<img src=""stim_listB/shout8.gif""style=""height:400px;""></stim_listB>",are shouting at each other,
null,"<div style=""font-size:60px;"">+</div>",,html-keyboard-response,320,2095207,0.0-17.0-0.18,7040,List2B,black,man,,,,null,,,,
null,"<img src=""stim_listB/play3.gif""style=""height:400px;""></stim_listB>",,html-keyboard-response,321,2097211,0.0-17.0-1.18,7040,List2B,black,man,,,,null,,,,
null,is playing with,,html-keyboard-response,322,2099213,0.0-17.0-2.18,7040,List2B,black,man,,,,null,,,,
12974,,,survey-text,323,2112188,0.0-17.0-3.18,7040,List2B,black,man,,,,,"{""Q0"":""kate is playing with mike""}","<img src=""stim_listB/play3.gif""style=""height:400px;""></stim_listB>",is playing with,
null,"<div style=""font-size:60px;"">+</div>",,html-keyboard-response,324,2112691,0.0-17.0-0.19,7040,List2B,black,man,,,,null,,,,
null,"<img src=""stim_listB/marry1.gif""style=""height:400px;""></stim_listB>",,html-keyboard-response,325,2114695,0.0-17.0-1.19,7040,List2B,black,man,,,,null,,,,
null,is marrying,,html-keyboard-response,326,2116698,0.0-17.0-2.19,7040,List2B,black,man,,,,null,,,,
15098,,,survey-text,327,2131796,0.0-17.0-3.19,7040,List2B,black,man,,,,,"{""Q0"":""ruth is marrying dave""}","<img src=""stim_listB/marry1.gif""style=""height:400px;""></stim_listB>",is marrying,
4594,"<img src='img/portrait_matrix_list2.jpg' style='width:900px;height:500px;''></img><p>If you have memorised all the portraits and names and are ready to start, press Continue.</p><p><strong>Please note: Your memory of these faces will be tested 4 times during this experiment.</strong></p>",0,html-button-response,328,2136392,0.0-18.0-0.0,7040,List2B,black,man,,,,,,,,
2089,"<img src=""portrait/WM2.jpg""style=""height:400px;""></img>",7,html-button-response,329,2139484,0.0-18.0-1.0,7040,List2B,black,man,,TRUE,7,,,,,
null,CORRECT,,html-keyboard-response,330,2140987,0.0-18.0-2.0-0.0,7040,List2B,black,man,,,,null,,,,
1974,"<img src=""portrait/BW2.jpg""style=""height:400px;""></img>",2,html-button-response,331,2142964,0.0-18.0-4.0,7040,List2B,black,man,,TRUE,2,,,,,
null,CORRECT,,html-keyboard-response,332,2144467,0.0-18.0-5.0-0.0,7040,List2B,black,man,,,,null,,,,
2687,"<img src=""portrait/BM1.jpg""style=""height:400px;""></img>",4,html-button-response,333,2147156,0.0-18.0-7.0,7040,List2B,black,man,,TRUE,4,,,,,
null,CORRECT,,html-keyboard-response,334,2148661,0.0-18.0-8.0-0.0,7040,List2B,black,man,,,,null,,,,
1694,"<img src=""portrait/WM1.jpg""style=""height:400px;""></img>",6,html-button-response,335,2150356,0.0-18.0-10.0,7040,List2B,black,man,,TRUE,6,,,,,
null,CORRECT,,html-keyboard-response,336,2151859,0.0-18.0-11.0-0.0,7040,List2B,black,man,,,,null,,,,
1787,"<img src=""portrait/WW2.jpg""style=""height:400px;""></img>",3,html-button-response,337,2153648,0.0-18.0-13.0,7040,List2B,black,man,,TRUE,3,,,,,
null,CORRECT,,html-keyboard-response,338,2155151,0.0-18.0-14.0-0.0,7040,List2B,black,man,,,,null,,,,
1882,"<img src=""portrait/BW1.jpg""style=""height:400px;""></img>",0,html-button-response,339,2157036,0.0-18.0-16.0,7040,List2B,black,man,,TRUE,0,,,,,
null,CORRECT,,html-keyboard-response,340,2158540,0.0-18.0-17.0-0.0,7040,List2B,black,man,,,,null,,,,
4894,"<img src=""portrait/BM2.jpg""style=""height:400px;""></img>",5,html-button-response,341,2163437,0.0-18.0-19.0,7040,List2B,black,man,,TRUE,5,,,,,
null,CORRECT,,html-keyboard-response,342,2164941,0.0-18.0-20.0-0.0,7040,List2B,black,man,,,,null,,,,
2972,"<img src=""portrait/WW1.jpg""style=""height:400px;""></img>",1,html-button-response,343,2167916,0.0-18.0-22.0,7040,List2B,black,man,,TRUE,1,,,,,
null,CORRECT,,html-keyboard-response,344,2169419,0.0-18.0-23.0-0.0,7040,List2B,black,man,,,,null,,,,
1625,<p>You got 8 out of 8 right first time. Press Continue.</p>,0,html-button-response,345,2171047,0.0-18.0-25.0,7040,List2B,black,man,,,,,,,,
null,"<div style=""font-size:60px;"">+</div>",,html-keyboard-response,346,2172552,0.0-19.0-0.0,7040,List2B,black,man,,,,null,,,,
null,"<img src=""stim_listB/kiss5.gif""style=""height:400px;""></stim_listB>",,html-keyboard-response,347,2174556,0.0-19.0-1.0,7040,List2B,black,man,,,,null,,,,
null,is kissing,,html-keyboard-response,348,2176559,0.0-19.0-2.0,7040,List2B,black,man,,,,null,,,,
10281,,,survey-text,349,2186842,0.0-19.0-3.0,7040,List2B,black,man,,,,,"{""Q0"":""fred is kissing luke""}","<img src=""stim_listB/kiss5.gif""style=""height:400px;""></stim_listB>",is kissing,
null,"<div style=""font-size:60px;"">+</div>",,html-keyboard-response,350,2187344,0.0-19.0-0.1,7040,List2B,black,man,,,,null,,,,
null,"<img src=""stim_listB/kiss7.gif""style=""height:400px;""></stim_listB>",,html-keyboard-response,351,2189347,0.0-19.0-1.1,7040,List2B,black,man,,,,null,,,,
null,is kissing,,html-keyboard-response,352,2191348,0.0-19.0-2.1,7040,List2B,black,man,,,,null,,,,
11126,,,survey-text,353,2202476,0.0-19.0-3.1,7040,List2B,black,man,,,,,"{""Q0"":""beth is kissing ruth""}","<img src=""stim_listB/kiss7.gif""style=""height:400px;""></stim_listB>",is kissing,
null,"<div style=""font-size:60px;"">+</div>",,html-keyboard-response,354,2202978,0.0-19.0-0.2,7040,List2B,black,man,,,,null,,,,
null,"<img src=""stim_listB/dance8.gif""style=""height:400px;""></stim_listB>",,html-keyboard-response,355,2204981,0.0-19.0-1.2,7040,List2B,black,man,,,,null,,,,
null,are dancing with each other,,html-keyboard-response,356,2206985,0.0-19.0-2.2,7040,List2B,black,man,,,,null,,,,
16373,,,survey-text,357,2223360,0.0-19.0-3.2,7040,List2B,black,man,,,,,"{""Q0"":""jane and beth are dancing with each other""}","<img src=""stim_listB/dance8.gif""style=""height:400px;""></stim_listB>",are dancing with each other,
null,"<div style=""font-size:60px;"">+</div>",,html-keyboard-response,358,2223862,0.0-19.0-0.3,7040,List2B,black,man,,,,null,,,,
null,"<img src=""stim_listB/marry7.gif""style=""height:400px;""></stim_listB>",,html-keyboard-response,359,2225866,0.0-19.0-1.3,7040,List2B,black,man,,,,null,,,,
null,is marrying,,html-keyboard-response,360,2227870,0.0-19.0-2.3,7040,List2B,black,man,,,,null,,,,
9563,,,survey-text,361,2237435,0.0-19.0-3.3,7040,List2B,black,man,,,,,"{""Q0"":""beth is marrying jane""}","<img src=""stim_listB/marry7.gif""style=""height:400px;""></stim_listB>",is marrying,
null,"<div style=""font-size:60px;"">+</div>",,html-keyboard-response,362,2237937,0.0-19.0-0.4,7040,List2B,black,man,,,,null,,,,
null,"<img src=""stim_listB/touch3.gif""style=""height:400px;""></stim_listB>",,html-keyboard-response,363,2239942,0.0-19.0-1.4,7040,List2B,black,man,,,,null,,,,
null,is touching,,html-keyboard-response,364,2241944,0.0-19.0-2.4,7040,List2B,black,man,,,,null,,,,
16861,,,survey-text,365,2258808,0.0-19.0-3.4,7040,List2B,black,man,,,,,"{""Q0"":""kate is touching mike""}","<img src=""stim_listB/touch3.gif""style=""height:400px;""></stim_listB>",is touching,
null,"<div style=""font-size:60px;"">+</div>",,html-keyboard-response,366,2259311,0.0-19.0-0.5,7040,List2B,black,man,,,,null,,,,
null,"<img src=""stim_listB/kiss3.gif""style=""height:400px;""></stim_listB>",,html-keyboard-response,367,2261314,0.0-19.0-1.5,7040,List2B,black,man,,,,null,,,,
null,is kissing,,html-keyboard-response,368,2263318,0.0-19.0-2.5,7040,List2B,black,man,,,,null,,,,
7751,,,survey-text,369,2271071,0.0-19.0-3.5,7040,List2B,black,man,,,,,"{""Q0"":""beth is kissing fred""}","<img src=""stim_listB/kiss3.gif""style=""height:400px;""></stim_listB>",is kissing,
null,"<div style=""font-size:60px;"">+</div>",,html-keyboard-response,370,2271574,0.0-19.0-0.6,7040,List2B,black,man,,,,null,,,,
null,"<img src=""stim_listB/talk7.gif""style=""height:400px;""></stim_listB>",,html-keyboard-response,371,2273581,0.0-19.0-1.6,7040,List2B,black,man,,,,null,,,,
null,is talking to,,html-keyboard-response,372,2275585,0.0-19.0-2.6,7040,List2B,black,man,,,,null,,,,
13018,,,survey-text,373,2288604,0.0-19.0-3.6,7040,List2B,black,man,,,,,"{""Q0"":""kate is talking to ruth""}","<img src=""stim_listB/talk7.gif""style=""height:400px;""></stim_listB>",is talking to,
null,"<div style=""font-size:60px;"">+</div>",,html-keyboard-response,374,2289106,0.0-19.0-0.7,7040,List2B,black,man,,,,null,,,,
null,"<img src=""stim_listB/argue6.gif""style=""height:400px;""></stim_listB>",,html-keyboard-response,375,2291110,0.0-19.0-1.7,7040,List2B,black,man,,,,null,,,,
null,are arguing with each other,,html-keyboard-response,376,2293113,0.0-19.0-2.7,7040,List2B,black,man,,,,null,,,,
18587,,,survey-text,377,2311702,0.0-19.0-3.7,7040,List2B,black,man,,,,,"{""Q0"":""luke and mike are arguing with each other""}","<img src=""stim_listB/argue6.gif""style=""height:400px;""></stim_listB>",are arguing with each other,
null,"<div style=""font-size:60px;"">+</div>",,html-keyboard-response,378,2312205,0.0-19.0-0.8,7040,List2B,black,man,,,,null,,,,
null,"<img src=""stim_listB/kiss2.gif""style=""height:400px;""></stim_listB>",,html-keyboard-response,379,2314211,0.0-19.0-1.8,7040,List2B,black,man,,,,null,,,,
null,are kissing each other,,html-keyboard-response,380,2316214,0.0-19.0-2.8,7040,List2B,black,man,,,,null,,,,
14003,,,survey-text,381,2330218,0.0-19.0-3.8,7040,List2B,black,man,,,,,"{""Q0"":""jane and dave are kissing each other""}","<img src=""stim_listB/kiss2.gif""style=""height:400px;""></stim_listB>",are kissing each other,
null,"<div style=""font-size:60px;"">+</div>",,html-keyboard-response,382,2330720,0.0-19.0-0.9,7040,List2B,black,man,,,,null,,,,
null,"<img src=""stim_listB/touch7.gif""style=""height:400px;""></stim_listB>",,html-keyboard-response,383,2332723,0.0-19.0-1.9,7040,List2B,black,man,,,,null,,,,
null,is touching,,html-keyboard-response,384,2334725,0.0-19.0-2.9,7040,List2B,black,man,,,,null,,,,
8541,,,survey-text,385,2343268,0.0-19.0-3.9,7040,List2B,black,man,,,,,"{""Q0"":""kate is touching jane""}","<img src=""stim_listB/touch7.gif""style=""height:400px;""></stim_listB>",is touching,
null,"<div style=""font-size:60px;"">+</div>",,html-keyboard-response,386,2343771,0.0-19.0-0.10,7040,List2B,black,man,,,,null,,,,
null,"<img src=""stim_listB/play5.gif""style=""height:400px;""></stim_listB>",,html-keyboard-response,387,2345775,0.0-19.0-1.10,7040,List2B,black,man,,,,null,,,,
null,is playing with,,html-keyboard-response,388,2347778,0.0-19.0-2.10,7040,List2B,black,man,,,,null,,,,
10333,,,survey-text,389,2358112,0.0-19.0-3.10,7040,List2B,black,man,,,,,"{""Q0"":""mike is playing with dave""}","<img src=""stim_listB/play5.gif""style=""height:400px;""></stim_listB>",is playing with,
null,"<div style=""font-size:60px;"">+</div>",,html-keyboard-response,390,2358615,0.0-19.0-0.11,7040,List2B,black,man,,,,null,,,,
null,"<img src=""stim_listB/dance1.gif""style=""height:400px;""></stim_listB>",,html-keyboard-response,391,2360617,0.0-19.0-1.11,7040,List2B,black,man,,,,null,,,,
null,is dancing with,,html-keyboard-response,392,2362618,0.0-19.0-2.11,7040,List2B,black,man,,,,null,,,,
10137,,,survey-text,393,2372757,0.0-19.0-3.11,7040,List2B,black,man,,,,,"{""Q0"":""jane is dancing with luke""}","<img src=""stim_listB/dance1.gif""style=""height:400px;""></stim_listB>",is dancing with,
null,"<div style=""font-size:60px;"">+</div>",,html-keyboard-response,394,2373259,0.0-19.0-0.12,7040,List2B,black,man,,,,null,,,,
null,"<img src=""stim_listB/talk4.gif""style=""height:400px;""></stim_listB>",,html-keyboard-response,395,2375262,0.0-19.0-1.12,7040,List2B,black,man,,,,null,,,,
null,are talking to each other,,html-keyboard-response,396,2377265,0.0-19.0-2.12,7040,List2B,black,man,,,,null,,,,
13997,,,survey-text,397,2391264,0.0-19.0-3.12,7040,List2B,black,man,,,,,"{""Q0"":""mike and beth are talking to each other""}","<img src=""stim_listB/talk4.gif""style=""height:400px;""></stim_listB>",are talking to each other,
null,"<div style=""font-size:60px;"">+</div>",,html-keyboard-response,398,2391766,0.0-19.0-0.13,7040,List2B,black,man,,,,null,,,,
null,"<img src=""stim_listB/touch4.gif""style=""height:400px;""></stim_listB>",,html-keyboard-response,399,2393768,0.0-19.0-1.13,7040,List2B,black,man,,,,null,,,,
null,are touching each other,,html-keyboard-response,400,2395770,0.0-19.0-2.13,7040,List2B,black,man,,,,null,,,,
16496,,,survey-text,401,2412268,0.0-19.0-3.13,7040,List2B,black,man,,,,,"{""Q0"":""fred and beth are touching each other""}","<img src=""stim_listB/touch4.gif""style=""height:400px;""></stim_listB>",are touching each other,
null,"<div style=""font-size:60px;"">+</div>",,html-keyboard-response,402,2412771,0.0-19.0-0.14,7040,List2B,black,man,,,,null,,,,
null,"<img src=""stim_listB/argue5.gif""style=""height:400px;""></stim_listB>",,html-keyboard-response,403,2414775,0.0-19.0-1.14,7040,List2B,black,man,,,,null,,,,
null,is arguing with,,html-keyboard-response,404,2416778,0.0-19.0-2.14,7040,List2B,black,man,,,,null,,,,
11123,,,survey-text,405,2427902,0.0-19.0-3.14,7040,List2B,black,man,,,,,"{""Q0"":""fred is arguing with dave""}","<img src=""stim_listB/argue5.gif""style=""height:400px;""></stim_listB>",is arguing with,
null,"<div style=""font-size:60px;"">+</div>",,html-keyboard-response,406,2428405,0.0-19.0-0.15,7040,List2B,black,man,,,,null,,,,
null,"<img src=""stim_listB/fight4.gif""style=""height:400px;""></stim_listB>",,html-keyboard-response,407,2430410,0.0-19.0-1.15,7040,List2B,black,man,,,,null,,,,
null,are fighting each other,,html-keyboard-response,408,2432413,0.0-19.0-2.15,7040,List2B,black,man,,,,null,,,,
29740,,,survey-text,409,2462155,0.0-19.0-3.15,7040,List2B,black,man,,,,,"{""Q0"":""fred and beth are arguing with each other""}","<img src=""stim_listB/fight4.gif""style=""height:400px;""></stim_listB>",are fighting each other,
null,"<div style=""font-size:60px;"">+</div>",,html-keyboard-response,410,2462658,0.0-19.0-0.16,7040,List2B,black,man,,,,null,,,,
null,"<img src=""stim_listB/fight2.gif""style=""height:400px;""></stim_listB>",,html-keyboard-response,411,2464661,0.0-19.0-1.16,7040,List2B,black,man,,,,null,,,,
null,are fighting each other,,html-keyboard-response,412,2466663,0.0-19.0-2.16,7040,List2B,black,man,,,,null,,,,
46279,,,survey-text,413,2512944,0.0-19.0-3.16,7040,List2B,black,man,,,,,"{""Q0"":""luke and ruth are fighting each other""}","<img src=""stim_listB/fight2.gif""style=""height:400px;""></stim_listB>",are fighting each other,
null,"<div style=""font-size:60px;"">+</div>",,html-keyboard-response,414,2513447,0.0-19.0-0.17,7040,List2B,black,man,,,,null,,,,
null,"<img src=""stim_listB/argue8.gif""style=""height:400px;""></stim_listB>",,html-keyboard-response,415,2515449,0.0-19.0-1.17,7040,List2B,black,man,,,,null,,,,
null,are arguing with each other,,html-keyboard-response,416,2517453,0.0-19.0-2.17,7040,List2B,black,man,,,,null,,,,
41115,,,survey-text,417,2558569,0.0-19.0-3.17,7040,List2B,black,man,,,,,"{""Q0"":""ruth and kate are arguing with each other""}","<img src=""stim_listB/argue8.gif""style=""height:400px;""></stim_listB>",are arguing with each other,
null,"<div style=""font-size:60px;"">+</div>",,html-keyboard-response,418,2559072,0.0-19.0-0.18,7040,List2B,black,man,,,,null,,,,
null,"<img src=""stim_listB/marry3.gif""style=""height:400px;""></stim_listB>",,html-keyboard-response,419,2561074,0.0-19.0-1.18,7040,List2B,black,man,,,,null,,,,
null,is marrying,,html-keyboard-response,420,2563077,0.0-19.0-2.18,7040,List2B,black,man,,,,null,,,,
19140,,,survey-text,421,2582219,0.0-19.0-3.18,7040,List2B,black,man,,,,,"{""Q0"":""beth is marrying mike""}","<img src=""stim_listB/marry3.gif""style=""height:400px;""></stim_listB>",is marrying,
null,"<div style=""font-size:60px;"">+</div>",,html-keyboard-response,422,2582721,0.0-19.0-0.19,7040,List2B,black,man,,,,null,,,,
null,"<img src=""stim_listB/touch6.gif""style=""height:400px;""></stim_listB>",,html-keyboard-response,423,2584733,0.0-19.0-1.19,7040,List2B,black,man,,,,null,,,,
null,are touching each other,,html-keyboard-response,424,2586736,0.0-19.0-2.19,7040,List2B,black,man,,,,null,,,,
69223,,,survey-text,425,2655962,0.0-19.0-3.19,7040,List2B,black,man,,,,,"{""Q0"":""fred and luke are touching each other""}","<img src=""stim_listB/touch6.gif""style=""height:400px;""></stim_listB>",are touching each other,
3219,<p>Thank you for completing that task.</p><p>The final part of this session is a short questionnaire.</p><p>Press Continue.</p>,0,html-button-response,426,2659184,0.0-20.0,7040,List2B,black,man,,,,,,,,
32279,,,survey-text,427,2692468,0.0-21.0,7040,List2B,black,man,,,,,"{""Q0"":""38"",""Q1"":""english"",""Q2"":""english"",""Q3"":""england"",""Q4"":""black"",""Q5"":""male""}",,,demographics
8713,,,survey-likert,428,2701195,0.0-22.0,7040,List2B,black,man,,,,,"{""Q0"":2}",,,likert_ESS
9545,,,survey-likert,429,2710743,0.0-23.0,7040,List2B,black,man,,,,,"{""Q0"":1}",,,likert_NSSAL_Q1
14208,,,survey-likert,430,2724952,0.0-24.0,7040,List2B,black,man,,,,,"{""Q0"":2}",,,likert_NSSAL_Q2
7934,,,survey-likert,431,2732889,0.0-25.0,7040,List2B,black,man,,,,,"{""Q0"":3}",,,likert_CGRS_Q1
7800,,,survey-likert,432,2740691,0.0-26.0,7040,List2B,black,man,,,,,"{""Q0"":2}",,,likert_CGRS_Q2
6616,,,survey-likert,433,2747308,0.0-27.0,7040,List2B,black,man,,,,,"{""Q0"":2}",,,likert_CGRS_Q3
6527,,,survey-text,434,2753838,0.0-28.0,7040,List2B,black,man,,,,,"{""Q0"":""ccc""}",,,worker_id
24767,,,external-html,435,2779344,0.0-29.0,7040,List2B,black,man,debrief.html,,,,,,,
