rt,stimulus,button_pressed,trial_type,trial_index,time_elapsed,internal_node_id,subject,list,ppt_race,ppt_gender,url,first_guess,correct,key_press,responses,image_type,phrase_type,test_part
12305,Welcome to the experiment. Press Continue to begin.,0,html-button-response,0,12310,0.0-0.0,70570,List2B,black,man,,,,,,,,
43909,,,external-html,1,57498,0.0-1.0,70570,List2B,black,man,consent.html,,,,,,,
132189,"<p>On the next page, you will see portraits of 8 people and their names.</p><p>Your first task is to take a few minutes to memorise the names of these people.</p><p>You will have to recall their names during the rest of the experiment, so it is</p><p>essential that you try to memorise these people and their names as best as you can.</p><br><p><strong>You will then be tested on your memory of these names and portraits.</strong></p><br><p>The experiment will start after you have completed this memory test.</p><br><p>Ready?</p>",0,html-button-response,2,189689,0.0-2.0,70570,List2B,black,man,,,,,,,,
100955,"<img src='img/portrait_matrix_list2.jpg' style='width:900px;height:500px;''></img><p>If you have memorised all the portraits and names and are ready to start, press Continue.</p><p><strong>Please note: Your memory of these faces will be tested 4 times during this experiment.</strong></p>",0,html-button-response,3,291651,0.0-3.0-0.0,70570,List2B,black,man,,,,,,,,
5953,"<img src=""portrait/BM2.jpg""style=""height:400px;""></img>",5,html-button-response,4,298618,0.0-3.0-1.0,70570,List2B,black,man,,TRUE,5,,,,,
null,CORRECT,,html-keyboard-response,5,300129,0.0-3.0-2.0-0.0,70570,List2B,black,man,,,,null,,,,
13045,"<img src=""portrait/WM2.jpg""style=""height:400px;""></img>",7,html-button-response,6,313178,0.0-3.0-4.0,70570,List2B,black,man,,TRUE,7,,,,,
null,CORRECT,,html-keyboard-response,7,314692,0.0-3.0-5.0-0.0,70570,List2B,black,man,,,,null,,,,
6760,"<img src=""portrait/BW1.jpg""style=""height:400px;""></img>",0,html-button-response,8,321454,0.0-3.0-7.0,70570,List2B,black,man,,TRUE,0,,,,,
null,CORRECT,,html-keyboard-response,9,322976,0.0-3.0-8.0-0.0,70570,List2B,black,man,,,,null,,,,
2933,"<img src=""portrait/WW2.jpg""style=""height:400px;""></img>",3,html-button-response,10,325912,0.0-3.0-10.0,70570,List2B,black,man,,TRUE,3,,,,,
null,CORRECT,,html-keyboard-response,11,327443,0.0-3.0-11.0-0.0,70570,List2B,black,man,,,,null,,,,
27531,"<img src=""portrait/WW1.jpg""style=""height:400px;""></img>",1,html-button-response,12,354976,0.0-3.0-13.0,70570,List2B,black,man,,TRUE,1,,,,,
null,CORRECT,,html-keyboard-response,13,356491,0.0-3.0-14.0-0.0,70570,List2B,black,man,,,,null,,,,
10151,"<img src=""portrait/BM1.jpg""style=""height:400px;""></img>",7,html-button-response,14,366644,0.0-3.0-16.0,70570,List2B,black,man,,TRUE,4,,,,,
5901,"<img src=""portrait/BM1.jpg""style=""height:400px;""></img>",4,html-button-response,15,373562,0.0-3.0-18.0-0.0,70570,List2B,black,man,,FALSE,4,,,,,
null,CORRECT,,html-keyboard-response,16,375074,0.0-3.0-18.0-1.0-0.0,70570,List2B,black,man,,,,null,,,,
2340,"<img src=""portrait/BW2.jpg""style=""height:400px;""></img>",2,html-button-response,17,377416,0.0-3.0-19.0,70570,List2B,black,man,,TRUE,2,,,,,
null,CORRECT,,html-keyboard-response,18,378939,0.0-3.0-20.0-0.0,70570,List2B,black,man,,,,null,,,,
2887,"<img src=""portrait/WM1.jpg""style=""height:400px;""></img>",6,html-button-response,19,381828,0.0-3.0-22.0,70570,List2B,black,man,,TRUE,6,,,,,
null,CORRECT,,html-keyboard-response,20,383332,0.0-3.0-23.0-0.0,70570,List2B,black,man,,,,null,,,,
2409,<p>You got 7 out of 8 right first time. Press Continue.</p>,0,html-button-response,21,385742,0.0-3.0-25.0,70570,List2B,black,man,,,,,,,,
3956,"As you did not score 100%, the memory game will repeat. Press Continue.",0,html-button-response,22,390712,0.0-3.0-26.0-0.0,70570,List2B,black,man,,,,,,,,
22779,"<img src='img/portrait_matrix_list2.jpg' style='width:900px;height:500px;''></img><p>If you have memorised all the portraits and names and are ready to start, press Continue.</p><p><strong>Please note: Your memory of these faces will be tested 4 times during this experiment.</strong></p>",0,html-button-response,23,414509,0.0-3.1-0.1,70570,List2B,black,man,,,,,,,,
1796,"<img src=""portrait/BM2.jpg""style=""height:400px;""></img>",5,html-button-response,24,417318,0.0-3.1-1.1,70570,List2B,black,man,,TRUE,5,,,,,
null,CORRECT,,html-keyboard-response,25,418836,0.0-3.1-2.1-0.1,70570,List2B,black,man,,,,null,,,,
14704,"<img src=""portrait/WM2.jpg""style=""height:400px;""></img>",7,html-button-response,26,433543,0.0-3.1-4.1,70570,List2B,black,man,,TRUE,7,,,,,
null,CORRECT,,html-keyboard-response,27,435070,0.0-3.1-5.1-0.1,70570,List2B,black,man,,,,null,,,,
1533,"<img src=""portrait/BW1.jpg""style=""height:400px;""></img>",0,html-button-response,28,436605,0.0-3.1-7.1,70570,List2B,black,man,,TRUE,0,,,,,
null,CORRECT,,html-keyboard-response,29,438118,0.0-3.1-8.1-0.1,70570,List2B,black,man,,,,null,,,,
1552,"<img src=""portrait/WW2.jpg""style=""height:400px;""></img>",3,html-button-response,30,439675,0.0-3.1-10.1,70570,List2B,black,man,,TRUE,3,,,,,
null,CORRECT,,html-keyboard-response,31,441200,0.0-3.1-11.1-0.1,70570,List2B,black,man,,,,null,,,,
14356,"<img src=""portrait/WW1.jpg""style=""height:400px;""></img>",0,html-button-response,32,455558,0.0-3.1-13.1,70570,List2B,black,man,,TRUE,1,,,,,
3517,"<img src=""portrait/WW1.jpg""style=""height:400px;""></img>",1,html-button-response,33,460086,0.0-3.1-15.1-0.1,70570,List2B,black,man,,FALSE,1,,,,,
null,CORRECT,,html-keyboard-response,34,461623,0.0-3.1-15.1-1.1-0.1,70570,List2B,black,man,,,,null,,,,
1750,"<img src=""portrait/BM1.jpg""style=""height:400px;""></img>",4,html-button-response,35,463376,0.0-3.1-16.1,70570,List2B,black,man,,TRUE,4,,,,,
null,CORRECT,,html-keyboard-response,36,464904,0.0-3.1-17.1-0.1,70570,List2B,black,man,,,,null,,,,
2223,"<img src=""portrait/BW2.jpg""style=""height:400px;""></img>",2,html-button-response,37,467129,0.0-3.1-19.1,70570,List2B,black,man,,TRUE,2,,,,,
null,CORRECT,,html-keyboard-response,38,468683,0.0-3.1-20.1-0.1,70570,List2B,black,man,,,,null,,,,
2471,"<img src=""portrait/WM1.jpg""style=""height:400px;""></img>",6,html-button-response,39,471157,0.0-3.1-22.1,70570,List2B,black,man,,TRUE,6,,,,,
null,CORRECT,,html-keyboard-response,40,472677,0.0-3.1-23.1-0.1,70570,List2B,black,man,,,,null,,,,
1623,<p>You got 7 out of 8 right first time. Press Continue.</p>,0,html-button-response,41,474304,0.0-3.1-25.1,70570,List2B,black,man,,,,,,,,
1805,"As you did not score 100%, the memory game will repeat. Press Continue.",0,html-button-response,42,477114,0.0-3.1-26.1-0.1,70570,List2B,black,man,,,,,,,,
8569,"<img src='img/portrait_matrix_list2.jpg' style='width:900px;height:500px;''></img><p>If you have memorised all the portraits and names and are ready to start, press Continue.</p><p><strong>Please note: Your memory of these faces will be tested 4 times during this experiment.</strong></p>",0,html-button-response,43,486694,0.0-3.2-0.2,70570,List2B,black,man,,,,,,,,
6499,"<img src=""portrait/BM2.jpg""style=""height:400px;""></img>",5,html-button-response,44,494209,0.0-3.2-1.2,70570,List2B,black,man,,TRUE,5,,,,,
null,CORRECT,,html-keyboard-response,45,495730,0.0-3.2-2.2-0.2,70570,List2B,black,man,,,,null,,,,
1865,"<img src=""portrait/WM2.jpg""style=""height:400px;""></img>",7,html-button-response,46,497599,0.0-3.2-4.2,70570,List2B,black,man,,TRUE,7,,,,,
null,CORRECT,,html-keyboard-response,47,499121,0.0-3.2-5.2-0.2,70570,List2B,black,man,,,,null,,,,
2332,"<img src=""portrait/BW1.jpg""style=""height:400px;""></img>",0,html-button-response,48,501455,0.0-3.2-7.2,70570,List2B,black,man,,TRUE,0,,,,,
null,CORRECT,,html-keyboard-response,49,503016,0.0-3.2-8.2-0.2,70570,List2B,black,man,,,,null,,,,
1621,"<img src=""portrait/WW2.jpg""style=""height:400px;""></img>",3,html-button-response,50,504638,0.0-3.2-10.2,70570,List2B,black,man,,TRUE,3,,,,,
null,CORRECT,,html-keyboard-response,51,506156,0.0-3.2-11.2-0.2,70570,List2B,black,man,,,,null,,,,
4870,"<img src=""portrait/WW1.jpg""style=""height:400px;""></img>",0,html-button-response,52,511029,0.0-3.2-13.2,70570,List2B,black,man,,TRUE,1,,,,,
1285,"<img src=""portrait/WW1.jpg""style=""height:400px;""></img>",1,html-button-response,53,513323,0.0-3.2-15.2-0.2,70570,List2B,black,man,,FALSE,1,,,,,
null,CORRECT,,html-keyboard-response,54,514850,0.0-3.2-15.2-1.2-0.2,70570,List2B,black,man,,,,null,,,,
2404,"<img src=""portrait/BM1.jpg""style=""height:400px;""></img>",4,html-button-response,55,517257,0.0-3.2-16.2,70570,List2B,black,man,,TRUE,4,,,,,
null,CORRECT,,html-keyboard-response,56,518776,0.0-3.2-17.2-0.2,70570,List2B,black,man,,,,null,,,,
1925,"<img src=""portrait/BW2.jpg""style=""height:400px;""></img>",2,html-button-response,57,520703,0.0-3.2-19.2,70570,List2B,black,man,,TRUE,2,,,,,
null,CORRECT,,html-keyboard-response,58,522223,0.0-3.2-20.2-0.2,70570,List2B,black,man,,,,null,,,,
1618,"<img src=""portrait/WM1.jpg""style=""height:400px;""></img>",6,html-button-response,59,523843,0.0-3.2-22.2,70570,List2B,black,man,,TRUE,6,,,,,
null,CORRECT,,html-keyboard-response,60,525370,0.0-3.2-23.2-0.2,70570,List2B,black,man,,,,null,,,,
1197,<p>You got 7 out of 8 right first time. Press Continue.</p>,0,html-button-response,61,526568,0.0-3.2-25.2,70570,List2B,black,man,,,,,,,,
1265,"As you did not score 100%, the memory game will repeat. Press Continue.",0,html-button-response,62,528836,0.0-3.2-26.2-0.2,70570,List2B,black,man,,,,,,,,
8150,"<img src='img/portrait_matrix_list2.jpg' style='width:900px;height:500px;''></img><p>If you have memorised all the portraits and names and are ready to start, press Continue.</p><p><strong>Please note: Your memory of these faces will be tested 4 times during this experiment.</strong></p>",0,html-button-response,63,538001,0.0-3.3-0.3,70570,List2B,black,man,,,,,,,,
3615,"<img src=""portrait/BM2.jpg""style=""height:400px;""></img>",5,html-button-response,64,542625,0.0-3.3-1.3,70570,List2B,black,man,,TRUE,5,,,,,
null,CORRECT,,html-keyboard-response,65,544143,0.0-3.3-2.3-0.3,70570,List2B,black,man,,,,null,,,,
2837,"<img src=""portrait/WM2.jpg""style=""height:400px;""></img>",7,html-button-response,66,546983,0.0-3.3-4.3,70570,List2B,black,man,,TRUE,7,,,,,
null,CORRECT,,html-keyboard-response,67,548499,0.0-3.3-5.3-0.3,70570,List2B,black,man,,,,null,,,,
1842,"<img src=""portrait/BW1.jpg""style=""height:400px;""></img>",0,html-button-response,68,550344,0.0-3.3-7.3,70570,List2B,black,man,,TRUE,0,,,,,
null,CORRECT,,html-keyboard-response,69,551865,0.0-3.3-8.3-0.3,70570,List2B,black,man,,,,null,,,,
1539,"<img src=""portrait/WW2.jpg""style=""height:400px;""></img>",3,html-button-response,70,553407,0.0-3.3-10.3,70570,List2B,black,man,,TRUE,3,,,,,
null,CORRECT,,html-keyboard-response,71,554916,0.0-3.3-11.3-0.3,70570,List2B,black,man,,,,null,,,,
1190,"<img src=""portrait/WW1.jpg""style=""height:400px;""></img>",1,html-button-response,72,556109,0.0-3.3-13.3,70570,List2B,black,man,,TRUE,1,,,,,
null,CORRECT,,html-keyboard-response,73,557620,0.0-3.3-14.3-0.3,70570,List2B,black,man,,,,null,,,,
2018,"<img src=""portrait/BM1.jpg""style=""height:400px;""></img>",4,html-button-response,74,559640,0.0-3.3-16.3,70570,List2B,black,man,,TRUE,4,,,,,
null,CORRECT,,html-keyboard-response,75,561167,0.0-3.3-17.3-0.3,70570,List2B,black,man,,,,null,,,,
1589,"<img src=""portrait/BW2.jpg""style=""height:400px;""></img>",2,html-button-response,76,562758,0.0-3.3-19.3,70570,List2B,black,man,,TRUE,2,,,,,
null,CORRECT,,html-keyboard-response,77,564283,0.0-3.3-20.3-0.3,70570,List2B,black,man,,,,null,,,,
1975,"<img src=""portrait/WM1.jpg""style=""height:400px;""></img>",6,html-button-response,78,566260,0.0-3.3-22.3,70570,List2B,black,man,,TRUE,6,,,,,
null,CORRECT,,html-keyboard-response,79,567778,0.0-3.3-23.3-0.3,70570,List2B,black,man,,,,null,,,,
4430,<p>You got 8 out of 8 right first time. Press Continue.</p>,0,html-button-response,80,572211,0.0-3.3-25.3,70570,List2B,black,man,,,,,,,,
56073,"<p>In this experiment, you will view photographs of the people from the memory game interacting.</p><p>By using the <strong>exact</strong> phrase given <i>after</i> the photograph appears and recalling the correct names of the people in the photographs, form a sentence describing the interaction. You do not need to capitalise names.</p><p>Type your answer in the space provided. Please complete every sentence before moving onto the next trial.</p><p>You will only have a few seconds to memorise each given photograph and phrase before you can respond, so try your best to focus.</p><p>An example is given below. Press 'Continue' when you are ready.</p><img src='img/speaking_example.jpg' style='width:800px;height:460px;''></img>",0,html-button-response,81,629297,0.0-4.0,70570,List2B,black,man,,,,,,,,
9405,"<p>Before the experiment starts, you will watch two example trials. Press 'Continue'.</p>",0,html-button-response,82,639709,0.0-5.0,70570,List2B,black,man,,,,,,,,
null,<img src='img/meet_eg.gif' style='height:400px;''></img>,,html-keyboard-response,83,642713,0.0-6.0,70570,List2B,black,man,,,,null,,,,
null,<p>is meeting</p>,,html-keyboard-response,84,644714,0.0-7.0,70570,List2B,black,man,,,,null,,,,
5980,<p><b>Answer:</b> jane is meeting ruth</p>,0,html-button-response,85,650696,0.0-8.0,70570,List2B,black,man,,,,,,,,
null,<img src='img/look_eg.gif' style='height:400px;''></img>,,html-keyboard-response,86,653711,0.0-9.0,70570,List2B,black,man,,,,null,,,,
null,<p>are looking at each other</p>,,html-keyboard-response,87,655715,0.0-10.0,70570,List2B,black,man,,,,null,,,,
3370,<p><b>Answer:</b> fred and mike are looking at each other</p>,0,html-button-response,88,659087,0.0-11.0,70570,List2B,black,man,,,,,,,,
35393,"<p>Ready to start the experiment?</p><br><p><strong>Remember to describe the picture using a full sentence,</strong></p><p><strong>that combines the names of the people with the <i>exact</i> phrase given.</strong></p><p><strong>To receive full payment you must do this correctly.</strong></p><p><strong> You do not need to capitalise names or use punctuation.</strong></p><br><p>Press 'Continue' to begin.</p>",0,html-button-response,89,695483,0.0-12.0,70570,List2B,black,man,,,,,,,,
null,"<div style=""font-size:60px;"">+</div>",,html-keyboard-response,90,696990,0.0-13.0-0.0,70570,List2B,black,man,,,,null,,,,
null,"<img src=""stim_listB/kiss1.gif""style=""height:400px;""></stim_listB>",,html-keyboard-response,91,698994,0.0-13.0-1.0,70570,List2B,black,man,,,,null,,,,
null,is kissing,,html-keyboard-response,92,701006,0.0-13.0-2.0,70570,List2B,black,man,,,,null,,,,
20439,,,survey-text,93,721448,0.0-13.0-3.0,70570,List2B,black,man,,,,,"{""Q0"":""luke is kissing ruth""}","<img src=""stim_listB/kiss1.gif""style=""height:400px;""></stim_listB>",is kissing,
null,"<div style=""font-size:60px;"">+</div>",,html-keyboard-response,94,721952,0.0-13.0-0.1,70570,List2B,black,man,,,,null,,,,
null,"<img src=""stim_listB/flirt5.gif""style=""height:400px;""></stim_listB>",,html-keyboard-response,95,723957,0.0-13.0-1.1,70570,List2B,black,man,,,,null,,,,
null,is flirting with,,html-keyboard-response,96,725966,0.0-13.0-2.1,70570,List2B,black,man,,,,null,,,,
17544,,,survey-text,97,743512,0.0-13.0-3.1,70570,List2B,black,man,,,,,"{""Q0"":""luke is flirting with mike""}","<img src=""stim_listB/flirt5.gif""style=""height:400px;""></stim_listB>",is flirting with,
null,"<div style=""font-size:60px;"">+</div>",,html-keyboard-response,98,744026,0.0-13.0-0.2,70570,List2B,black,man,,,,null,,,,
null,"<img src=""stim_listB/play6.gif""style=""height:400px;""></stim_listB>",,html-keyboard-response,99,746030,0.0-13.0-1.2,70570,List2B,black,man,,,,null,,,,
null,are playing with each other,,html-keyboard-response,100,748032,0.0-13.0-2.2,70570,List2B,black,man,,,,null,,,,
33572,,,survey-text,101,781605,0.0-13.0-3.2,70570,List2B,black,man,,,,,"{""Q0"":""fred and luke are playing with each other""}","<img src=""stim_listB/play6.gif""style=""height:400px;""></stim_listB>",are playing with each other,
null,"<div style=""font-size:60px;"">+</div>",,html-keyboard-response,102,782118,0.0-13.0-0.3,70570,List2B,black,man,,,,null,,,,
null,"<img src=""stim_listB/marry3.gif""style=""height:400px;""></stim_listB>",,html-keyboard-response,103,784120,0.0-13.0-1.3,70570,List2B,black,man,,,,null,,,,
null,is marrying,,html-keyboard-response,104,786123,0.0-13.0-2.3,70570,List2B,black,man,,,,null,,,,
24803,,,survey-text,105,810928,0.0-13.0-3.3,70570,List2B,black,man,,,,,"{""Q0"":""mike and beth are unsure?""}","<img src=""stim_listB/marry3.gif""style=""height:400px;""></stim_listB>",is marrying,
null,"<div style=""font-size:60px;"">+</div>",,html-keyboard-response,106,811433,0.0-13.0-0.4,70570,List2B,black,man,,,,null,,,,
null,"<img src=""stim_listB/argue3.gif""style=""height:400px;""></stim_listB>",,html-keyboard-response,107,813436,0.0-13.0-1.4,70570,List2B,black,man,,,,null,,,,
null,is arguing with,,html-keyboard-response,108,815445,0.0-13.0-2.4,70570,List2B,black,man,,,,null,,,,
19372,,,survey-text,109,834819,0.0-13.0-3.4,70570,List2B,black,man,,,,,"{""Q0"":""fred and beth are arguing""}","<img src=""stim_listB/argue3.gif""style=""height:400px;""></stim_listB>",is arguing with,
null,"<div style=""font-size:60px;"">+</div>",,html-keyboard-response,110,835329,0.0-13.0-0.5,70570,List2B,black,man,,,,null,,,,
null,"<img src=""stim_listB/dance8.gif""style=""height:400px;""></stim_listB>",,html-keyboard-response,111,837336,0.0-13.0-1.5,70570,List2B,black,man,,,,null,,,,
null,are dancing with each other,,html-keyboard-response,112,839342,0.0-13.0-2.5,70570,List2B,black,man,,,,null,,,,
14772,,,survey-text,113,854116,0.0-13.0-3.5,70570,List2B,black,man,,,,,"{""Q0"":""kate and jane are dancing""}","<img src=""stim_listB/dance8.gif""style=""height:400px;""></stim_listB>",are dancing with each other,
null,"<div style=""font-size:60px;"">+</div>",,html-keyboard-response,114,854626,0.0-13.0-0.6,70570,List2B,black,man,,,,null,,,,
null,"<img src=""stim_listB/flirt6.gif""style=""height:400px;""></stim_listB>",,html-keyboard-response,115,856630,0.0-13.0-1.6,70570,List2B,black,man,,,,null,,,,
null,are flirting with each other,,html-keyboard-response,116,858638,0.0-13.0-2.6,70570,List2B,black,man,,,,null,,,,
20161,,,survey-text,117,878800,0.0-13.0-3.6,70570,List2B,black,man,,,,,"{""Q0"":""Fred and Dave are flirting with each other""}","<img src=""stim_listB/flirt6.gif""style=""height:400px;""></stim_listB>",are flirting with each other,
null,"<div style=""font-size:60px;"">+</div>",,html-keyboard-response,118,879313,0.0-13.0-0.7,70570,List2B,black,man,,,,null,,,,
null,"<img src=""stim_listB/shout3.gif""style=""height:400px;""></stim_listB>",,html-keyboard-response,119,881316,0.0-13.0-1.7,70570,List2B,black,man,,,,null,,,,
null,is shouting at,,html-keyboard-response,120,883317,0.0-13.0-2.7,70570,List2B,black,man,,,,null,,,,
12774,,,survey-text,121,896093,0.0-13.0-3.7,70570,List2B,black,man,,,,,"{""Q0"":""Fred and beth are shouting""}","<img src=""stim_listB/shout3.gif""style=""height:400px;""></stim_listB>",is shouting at,
null,"<div style=""font-size:60px;"">+</div>",,html-keyboard-response,122,896599,0.0-13.0-0.8,70570,List2B,black,man,,,,null,,,,
null,"<img src=""stim_listB/fight8.gif""style=""height:400px;""></stim_listB>",,html-keyboard-response,123,898602,0.0-13.0-1.8,70570,List2B,black,man,,,,null,,,,
null,are fighting each other,,html-keyboard-response,124,900603,0.0-13.0-2.8,70570,List2B,black,man,,,,null,,,,
14338,,,survey-text,125,914943,0.0-13.0-3.8,70570,List2B,black,man,,,,,"{""Q0"":""beth and ruth are fighting""}","<img src=""stim_listB/fight8.gif""style=""height:400px;""></stim_listB>",are fighting each other,
null,"<div style=""font-size:60px;"">+</div>",,html-keyboard-response,126,915467,0.0-13.0-0.9,70570,List2B,black,man,,,,null,,,,
null,"<img src=""stim_listB/play1.gif""style=""height:400px;""></stim_listB>",,html-keyboard-response,127,917470,0.0-13.0-1.9,70570,List2B,black,man,,,,null,,,,
null,is playing with,,html-keyboard-response,128,919479,0.0-13.0-2.9,70570,List2B,black,man,,,,null,,,,
19150,,,survey-text,129,938630,0.0-13.0-3.9,70570,List2B,black,man,,,,,"{""Q0"":""Jane is playing with dave""}","<img src=""stim_listB/play1.gif""style=""height:400px;""></stim_listB>",is playing with,
null,"<div style=""font-size:60px;"">+</div>",,html-keyboard-response,130,939144,0.0-13.0-0.10,70570,List2B,black,man,,,,null,,,,
null,"<img src=""stim_listB/talk2.gif""style=""height:400px;""></stim_listB>",,html-keyboard-response,131,941147,0.0-13.0-1.10,70570,List2B,black,man,,,,null,,,,
null,are talking to each other,,html-keyboard-response,132,943149,0.0-13.0-2.10,70570,List2B,black,man,,,,null,,,,
19690,,,survey-text,133,962842,0.0-13.0-3.10,70570,List2B,black,man,,,,,"{""Q0"":""ruth and dave are talking with each other""}","<img src=""stim_listB/talk2.gif""style=""height:400px;""></stim_listB>",are talking to each other,
null,"<div style=""font-size:60px;"">+</div>",,html-keyboard-response,134,963356,0.0-13.0-0.11,70570,List2B,black,man,,,,null,,,,
null,"<img src=""stim_listB/fight1.gif""style=""height:400px;""></stim_listB>",,html-keyboard-response,135,965361,0.0-13.0-1.11,70570,List2B,black,man,,,,null,,,,
null,is fighting,,html-keyboard-response,136,967371,0.0-13.0-2.11,70570,List2B,black,man,,,,null,,,,
9203,,,survey-text,137,976576,0.0-13.0-3.11,70570,List2B,black,man,,,,,"{""Q0"":""jane is fighting dave""}","<img src=""stim_listB/fight1.gif""style=""height:400px;""></stim_listB>",is fighting,
null,"<div style=""font-size:60px;"">+</div>",,html-keyboard-response,138,977087,0.0-13.0-0.12,70570,List2B,black,man,,,,null,,,,
null,"<img src=""stim_listB/flirt8.gif""style=""height:400px;""></stim_listB>",,html-keyboard-response,139,979091,0.0-13.0-1.12,70570,List2B,black,man,,,,null,,,,
null,are flirting with each other,,html-keyboard-response,140,981107,0.0-13.0-2.12,70570,List2B,black,man,,,,null,,,,
14880,,,survey-text,141,995988,0.0-13.0-3.12,70570,List2B,black,man,,,,,"{""Q0"":""jane and beth are flirting with each other""}","<img src=""stim_listB/flirt8.gif""style=""height:400px;""></stim_listB>",are flirting with each other,
null,"<div style=""font-size:60px;"">+</div>",,html-keyboard-response,142,996494,0.0-13.0-0.13,70570,List2B,black,man,,,,null,,,,
null,"<img src=""stim_listB/marry5.gif""style=""height:400px;""></stim_listB>",,html-keyboard-response,143,998497,0.0-13.0-1.13,70570,List2B,black,man,,,,null,,,,
null,is marrying,,html-keyboard-response,144,1000501,0.0-13.0-2.13,70570,List2B,black,man,,,,null,,,,
16142,,,survey-text,145,1016645,0.0-13.0-3.13,70570,List2B,black,man,,,,,"{""Q0"":""Fred is marrying Dave""}","<img src=""stim_listB/marry5.gif""style=""height:400px;""></stim_listB>",is marrying,
null,"<div style=""font-size:60px;"">+</div>",,html-keyboard-response,146,1017152,0.0-13.0-0.14,70570,List2B,black,man,,,,null,,,,
null,"<img src=""stim_listB/fight6.gif""style=""height:400px;""></stim_listB>",,html-keyboard-response,147,1019156,0.0-13.0-1.14,70570,List2B,black,man,,,,null,,,,
null,are fighting each other,,html-keyboard-response,148,1021159,0.0-13.0-2.14,70570,List2B,black,man,,,,null,,,,
14310,,,survey-text,149,1035471,0.0-13.0-3.14,70570,List2B,black,man,,,,,"{""Q0"":""Luke and Fred are fighting each other""}","<img src=""stim_listB/fight6.gif""style=""height:400px;""></stim_listB>",are fighting each other,
null,"<div style=""font-size:60px;"">+</div>",,html-keyboard-response,150,1035975,0.0-13.0-0.15,70570,List2B,black,man,,,,null,,,,
null,"<img src=""stim_listB/touch6.gif""style=""height:400px;""></stim_listB>",,html-keyboard-response,151,1037978,0.0-13.0-1.15,70570,List2B,black,man,,,,null,,,,
null,are touching each other,,html-keyboard-response,152,1039994,0.0-13.0-2.15,70570,List2B,black,man,,,,null,,,,
18309,,,survey-text,153,1058304,0.0-13.0-3.15,70570,List2B,black,man,,,,,"{""Q0"":""Fred and Luke are touching each other""}","<img src=""stim_listB/touch6.gif""style=""height:400px;""></stim_listB>",are touching each other,
null,"<div style=""font-size:60px;"">+</div>",,html-keyboard-response,154,1058818,0.0-13.0-0.16,70570,List2B,black,man,,,,null,,,,
null,"<img src=""stim_listB/dance2.gif""style=""height:400px;""></stim_listB>",,html-keyboard-response,155,1060821,0.0-13.0-1.16,70570,List2B,black,man,,,,null,,,,
null,are dancing with each other,,html-keyboard-response,156,1062823,0.0-13.0-2.16,70570,List2B,black,man,,,,null,,,,
20746,,,survey-text,157,1083571,0.0-13.0-3.16,70570,List2B,black,man,,,,,"{""Q0"":""dave and ruth are dancng with each other""}","<img src=""stim_listB/dance2.gif""style=""height:400px;""></stim_listB>",are dancing with each other,
null,"<div style=""font-size:60px;"">+</div>",,html-keyboard-response,158,1084084,0.0-13.0-0.17,70570,List2B,black,man,,,,null,,,,
null,"<img src=""stim_listB/dance5.gif""style=""height:400px;""></stim_listB>",,html-keyboard-response,159,1086090,0.0-13.0-1.17,70570,List2B,black,man,,,,null,,,,
null,is dancing with,,html-keyboard-response,160,1088101,0.0-13.0-2.17,70570,List2B,black,man,,,,null,,,,
54950,,,survey-text,161,1143053,0.0-13.0-3.17,70570,List2B,black,man,,,,,"{""Q0"":""Luke is dancing with Mike""}","<img src=""stim_listB/dance5.gif""style=""height:400px;""></stim_listB>",is dancing with,
null,"<div style=""font-size:60px;"">+</div>",,html-keyboard-response,162,1143561,0.0-13.0-0.18,70570,List2B,black,man,,,,null,,,,
null,"<img src=""stim_listB/argue5.gif""style=""height:400px;""></stim_listB>",,html-keyboard-response,163,1145567,0.0-13.0-1.18,70570,List2B,black,man,,,,null,,,,
null,is arguing with,,html-keyboard-response,164,1147569,0.0-13.0-2.18,70570,List2B,black,man,,,,null,,,,
37791,,,survey-text,165,1185361,0.0-13.0-3.18,70570,List2B,black,man,,,,,"{""Q0"":""dave is arguing with fred""}","<img src=""stim_listB/argue5.gif""style=""height:400px;""></stim_listB>",is arguing with,
null,"<div style=""font-size:60px;"">+</div>",,html-keyboard-response,166,1185876,0.0-13.0-0.19,70570,List2B,black,man,,,,null,,,,
null,"<img src=""stim_listB/marry4.gif""style=""height:400px;""></stim_listB>",,html-keyboard-response,167,1187885,0.0-13.0-1.19,70570,List2B,black,man,,,,null,,,,
null,are marrying each other,,html-keyboard-response,168,1189902,0.0-13.0-2.19,70570,List2B,black,man,,,,null,,,,
15319,,,survey-text,169,1205223,0.0-13.0-3.19,70570,List2B,black,man,,,,,"{""Q0"":""fred and kate are marrying each other""}","<img src=""stim_listB/marry4.gif""style=""height:400px;""></stim_listB>",are marrying each other,
31751,"<img src='img/portrait_matrix_list2.jpg' style='width:900px;height:500px;''></img><p>If you have memorised all the portraits and names and are ready to start, press Continue.</p><p><strong>Please note: Your memory of these faces will be tested 4 times during this experiment.</strong></p>",0,html-button-response,170,1236976,0.0-14.0-0.0,70570,List2B,black,man,,,,,,,,
2259,"<img src=""portrait/BW1.jpg""style=""height:400px;""></img>",0,html-button-response,171,1240250,0.0-14.0-1.0,70570,List2B,black,man,,TRUE,0,,,,,
null,CORRECT,,html-keyboard-response,172,1241774,0.0-14.0-2.0-0.0,70570,List2B,black,man,,,,null,,,,
2540,"<img src=""portrait/BW2.jpg""style=""height:400px;""></img>",2,html-button-response,173,1244316,0.0-14.0-4.0,70570,List2B,black,man,,TRUE,2,,,,,
null,CORRECT,,html-keyboard-response,174,1245839,0.0-14.0-5.0-0.0,70570,List2B,black,man,,,,null,,,,
4676,"<img src=""portrait/WM2.jpg""style=""height:400px;""></img>",7,html-button-response,175,1250517,0.0-14.0-7.0,70570,List2B,black,man,,TRUE,7,,,,,
null,CORRECT,,html-keyboard-response,176,1252036,0.0-14.0-8.0-0.0,70570,List2B,black,man,,,,null,,,,
3087,"<img src=""portrait/WW1.jpg""style=""height:400px;""></img>",1,html-button-response,177,1255126,0.0-14.0-10.0,70570,List2B,black,man,,TRUE,1,,,,,
null,CORRECT,,html-keyboard-response,178,1256645,0.0-14.0-11.0-0.0,70570,List2B,black,man,,,,null,,,,
1595,"<img src=""portrait/BM1.jpg""style=""height:400px;""></img>",4,html-button-response,179,1258242,0.0-14.0-13.0,70570,List2B,black,man,,TRUE,4,,,,,
null,CORRECT,,html-keyboard-response,180,1259772,0.0-14.0-14.0-0.0,70570,List2B,black,man,,,,null,,,,
3521,"<img src=""portrait/BM2.jpg""style=""height:400px;""></img>",5,html-button-response,181,1263296,0.0-14.0-16.0,70570,List2B,black,man,,TRUE,5,,,,,
null,CORRECT,,html-keyboard-response,182,1264805,0.0-14.0-17.0-0.0,70570,List2B,black,man,,,,null,,,,
2178,"<img src=""portrait/WM1.jpg""style=""height:400px;""></img>",6,html-button-response,183,1266986,0.0-14.0-19.0,70570,List2B,black,man,,TRUE,6,,,,,
null,CORRECT,,html-keyboard-response,184,1268504,0.0-14.0-20.0-0.0,70570,List2B,black,man,,,,null,,,,
13316,"<img src=""portrait/WW2.jpg""style=""height:400px;""></img>",3,html-button-response,185,1281822,0.0-14.0-22.0,70570,List2B,black,man,,TRUE,3,,,,,
null,CORRECT,,html-keyboard-response,186,1283387,0.0-14.0-23.0-0.0,70570,List2B,black,man,,,,null,,,,
1723,<p>You got 8 out of 8 right first time. Press Continue.</p>,0,html-button-response,187,1285112,0.0-14.0-25.0,70570,List2B,black,man,,,,,,,,
null,"<div style=""font-size:60px;"">+</div>",,html-keyboard-response,188,1286617,0.0-15.0-0.0,70570,List2B,black,man,,,,null,,,,
null,"<img src=""stim_listB/touch8.gif""style=""height:400px;""></stim_listB>",,html-keyboard-response,189,1288634,0.0-15.0-1.0,70570,List2B,black,man,,,,null,,,,
null,are touching each other,,html-keyboard-response,190,1290637,0.0-15.0-2.0,70570,List2B,black,man,,,,null,,,,
17631,,,survey-text,191,1308270,0.0-15.0-3.0,70570,List2B,black,man,,,,,"{""Q0"":""beth and ruth are touching each other""}","<img src=""stim_listB/touch8.gif""style=""height:400px;""></stim_listB>",are touching each other,
null,"<div style=""font-size:60px;"">+</div>",,html-keyboard-response,192,1308784,0.0-15.0-0.1,70570,List2B,black,man,,,,null,,,,
null,"<img src=""stim_listB/play2.gif""style=""height:400px;""></stim_listB>",,html-keyboard-response,193,1310788,0.0-15.0-1.1,70570,List2B,black,man,,,,null,,,,
null,are playing with each other,,html-keyboard-response,194,1312803,0.0-15.0-2.1,70570,List2B,black,man,,,,null,,,,
14323,,,survey-text,195,1327128,0.0-15.0-3.1,70570,List2B,black,man,,,,,"{""Q0"":""luke and ruth are playing with each other""}","<img src=""stim_listB/play2.gif""style=""height:400px;""></stim_listB>",are playing with each other,
null,"<div style=""font-size:60px;"">+</div>",,html-keyboard-response,196,1327643,0.0-15.0-0.2,70570,List2B,black,man,,,,null,,,,
null,"<img src=""stim_listB/kiss6.gif""style=""height:400px;""></stim_listB>",,html-keyboard-response,197,1329648,0.0-15.0-1.2,70570,List2B,black,man,,,,null,,,,
null,are kissing each other,,html-keyboard-response,198,1331664,0.0-15.0-2.2,70570,List2B,black,man,,,,null,,,,
12042,,,survey-text,199,1343708,0.0-15.0-3.2,70570,List2B,black,man,,,,,"{""Q0"":""mike and dave are kissing each other""}","<img src=""stim_listB/kiss6.gif""style=""height:400px;""></stim_listB>",are kissing each other,
null,"<div style=""font-size:60px;"">+</div>",,html-keyboard-response,200,1344217,0.0-15.0-0.3,70570,List2B,black,man,,,,null,,,,
null,"<img src=""stim_listB/talk6.gif""style=""height:400px;""></stim_listB>",,html-keyboard-response,201,1346219,0.0-15.0-1.3,70570,List2B,black,man,,,,null,,,,
null,are talking to each other,,html-keyboard-response,202,1348220,0.0-15.0-2.3,70570,List2B,black,man,,,,null,,,,
17650,,,survey-text,203,1365873,0.0-15.0-3.3,70570,List2B,black,man,,,,,"{""Q0"":""fred and dave are talking to each other""}","<img src=""stim_listB/talk6.gif""style=""height:400px;""></stim_listB>",are talking to each other,
null,"<div style=""font-size:60px;"">+</div>",,html-keyboard-response,204,1366397,0.0-15.0-0.4,70570,List2B,black,man,,,,null,,,,
null,"<img src=""stim_listB/argue6.gif""style=""height:400px;""></stim_listB>",,html-keyboard-response,205,1368401,0.0-15.0-1.4,70570,List2B,black,man,,,,null,,,,
null,are arguing with each other,,html-keyboard-response,206,1370411,0.0-15.0-2.4,70570,List2B,black,man,,,,null,,,,
20500,,,survey-text,207,1390912,0.0-15.0-3.4,70570,List2B,black,man,,,,,"{""Q0"":""mike and luke are arguing with each other""}","<img src=""stim_listB/argue6.gif""style=""height:400px;""></stim_listB>",are arguing with each other,
null,"<div style=""font-size:60px;"">+</div>",,html-keyboard-response,208,1391423,0.0-15.0-0.5,70570,List2B,black,man,,,,null,,,,
null,"<img src=""stim_listB/kiss3.gif""style=""height:400px;""></stim_listB>",,html-keyboard-response,209,1393429,0.0-15.0-1.5,70570,List2B,black,man,,,,null,,,,
null,is kissing,,html-keyboard-response,210,1395432,0.0-15.0-2.5,70570,List2B,black,man,,,,null,,,,
9047,,,survey-text,211,1404482,0.0-15.0-3.5,70570,List2B,black,man,,,,,"{""Q0"":""fred is kissing beth""}","<img src=""stim_listB/kiss3.gif""style=""height:400px;""></stim_listB>",is kissing,
null,"<div style=""font-size:60px;"">+</div>",,html-keyboard-response,212,1404991,0.0-15.0-0.6,70570,List2B,black,man,,,,null,,,,
null,"<img src=""stim_listB/talk7.gif""style=""height:400px;""></stim_listB>",,html-keyboard-response,213,1406994,0.0-15.0-1.6,70570,List2B,black,man,,,,null,,,,
null,is talking to,,html-keyboard-response,214,1409006,0.0-15.0-2.6,70570,List2B,black,man,,,,null,,,,
9955,,,survey-text,215,1418963,0.0-15.0-3.6,70570,List2B,black,man,,,,,"{""Q0"":""ruth is talking to kate""}","<img src=""stim_listB/talk7.gif""style=""height:400px;""></stim_listB>",is talking to,
null,"<div style=""font-size:60px;"">+</div>",,html-keyboard-response,216,1419470,0.0-15.0-0.7,70570,List2B,black,man,,,,null,,,,
null,"<img src=""stim_listB/fight3.gif""style=""height:400px;""></stim_listB>",,html-keyboard-response,217,1421483,0.0-15.0-1.7,70570,List2B,black,man,,,,null,,,,
null,is fighting,,html-keyboard-response,218,1423485,0.0-15.0-2.7,70570,List2B,black,man,,,,null,,,,
19174,,,survey-text,219,1442661,0.0-15.0-3.7,70570,List2B,black,man,,,,,"{""Q0"":""mike is fighting kate""}","<img src=""stim_listB/fight3.gif""style=""height:400px;""></stim_listB>",is fighting,
null,"<div style=""font-size:60px;"">+</div>",,html-keyboard-response,220,1443170,0.0-15.0-0.8,70570,List2B,black,man,,,,null,,,,
null,"<img src=""stim_listB/shout4.gif""style=""height:400px;""></stim_listB>",,html-keyboard-response,221,1445174,0.0-15.0-1.8,70570,List2B,black,man,,,,null,,,,
null,are shouting at each other,,html-keyboard-response,222,1447189,0.0-15.0-2.8,70570,List2B,black,man,,,,null,,,,
25526,,,survey-text,223,1472717,0.0-15.0-3.8,70570,List2B,black,man,,,,,"{""Q0"":""mike ans kate are shouting at each other""}","<img src=""stim_listB/shout4.gif""style=""height:400px;""></stim_listB>",are shouting at each other,
null,"<div style=""font-size:60px;"">+</div>",,html-keyboard-response,224,1473234,0.0-15.0-0.9,70570,List2B,black,man,,,,null,,,,
null,"<img src=""stim_listB/flirt1.gif""style=""height:400px;""></stim_listB>",,html-keyboard-response,225,1475238,0.0-15.0-1.9,70570,List2B,black,man,,,,null,,,,
null,is flirting with,,html-keyboard-response,226,1477246,0.0-15.0-2.9,70570,List2B,black,man,,,,null,,,,
12367,,,survey-text,227,1489615,0.0-15.0-3.9,70570,List2B,black,man,,,,,"{""Q0"":""luke is flirting with jane""}","<img src=""stim_listB/flirt1.gif""style=""height:400px;""></stim_listB>",is flirting with,
null,"<div style=""font-size:60px;"">+</div>",,html-keyboard-response,228,1490129,0.0-15.0-0.10,70570,List2B,black,man,,,,null,,,,
null,"<img src=""stim_listB/marry6.gif""style=""height:400px;""></stim_listB>",,html-keyboard-response,229,1492133,0.0-15.0-1.10,70570,List2B,black,man,,,,null,,,,
null,are marrying each other,,html-keyboard-response,230,1494134,0.0-15.0-2.10,70570,List2B,black,man,,,,null,,,,
11720,,,survey-text,231,1505856,0.0-15.0-3.10,70570,List2B,black,man,,,,,"{""Q0"":""mike and luke are marrying each other""}","<img src=""stim_listB/marry6.gif""style=""height:400px;""></stim_listB>",are marrying each other,
null,"<div style=""font-size:60px;"">+</div>",,html-keyboard-response,232,1506366,0.0-15.0-0.11,70570,List2B,black,man,,,,null,,,,
null,"<img src=""stim_listB/argue2.gif""style=""height:400px;""></stim_listB>",,html-keyboard-response,233,1508383,0.0-15.0-1.11,70570,List2B,black,man,,,,null,,,,
null,are arguing with each other,,html-keyboard-response,234,1510385,0.0-15.0-2.11,70570,List2B,black,man,,,,null,,,,
18082,,,survey-text,235,1528469,0.0-15.0-3.11,70570,List2B,black,man,,,,,"{""Q0"":""luke and jane are arguing with each other""}","<img src=""stim_listB/argue2.gif""style=""height:400px;""></stim_listB>",are arguing with each other,
null,"<div style=""font-size:60px;"">+</div>",,html-keyboard-response,236,1528978,0.0-15.0-0.12,70570,List2B,black,man,,,,null,,,,
null,"<img src=""stim_listB/kiss7.gif""style=""height:400px;""></stim_listB>",,html-keyboard-response,237,1530981,0.0-15.0-1.12,70570,List2B,black,man,,,,null,,,,
null,is kissing,,html-keyboard-response,238,1532989,0.0-15.0-2.12,70570,List2B,black,man,,,,null,,,,
8617,,,survey-text,239,1541609,0.0-15.0-3.12,70570,List2B,black,man,,,,,"{""Q0"":""beth is kissing ruth""}","<img src=""stim_listB/kiss7.gif""style=""height:400px;""></stim_listB>",is kissing,
null,"<div style=""font-size:60px;"">+</div>",,html-keyboard-response,240,1542129,0.0-15.0-0.13,70570,List2B,black,man,,,,null,,,,
null,"<img src=""stim_listB/argue1.gif""style=""height:400px;""></stim_listB>",,html-keyboard-response,241,1544142,0.0-15.0-1.13,70570,List2B,black,man,,,,null,,,,
null,is arguing with,,html-keyboard-response,242,1546157,0.0-15.0-2.13,70570,List2B,black,man,,,,null,,,,
9485,,,survey-text,243,1555643,0.0-15.0-3.13,70570,List2B,black,man,,,,,"{""Q0"":""ruth is arguing with dave""}","<img src=""stim_listB/argue1.gif""style=""height:400px;""></stim_listB>",is arguing with,
null,"<div style=""font-size:60px;"">+</div>",,html-keyboard-response,244,1556153,0.0-15.0-0.14,70570,List2B,black,man,,,,null,,,,
null,"<img src=""stim_listB/marry7.gif""style=""height:400px;""></stim_listB>",,html-keyboard-response,245,1558157,0.0-15.0-1.14,70570,List2B,black,man,,,,null,,,,
null,is marrying,,html-keyboard-response,246,1560166,0.0-15.0-2.14,70570,List2B,black,man,,,,null,,,,
13551,,,survey-text,247,1573719,0.0-15.0-3.14,70570,List2B,black,man,,,,,"{""Q0"":""kate is marrying jane""}","<img src=""stim_listB/marry7.gif""style=""height:400px;""></stim_listB>",is marrying,
null,"<div style=""font-size:60px;"">+</div>",,html-keyboard-response,248,1574221,0.0-15.0-0.15,70570,List2B,black,man,,,,null,,,,
null,"<img src=""stim_listB/kiss5.gif""style=""height:400px;""></stim_listB>",,html-keyboard-response,249,1576225,0.0-15.0-1.15,70570,List2B,black,man,,,,null,,,,
null,is kissing,,html-keyboard-response,250,1578241,0.0-15.0-2.15,70570,List2B,black,man,,,,null,,,,
7761,,,survey-text,251,1586004,0.0-15.0-3.15,70570,List2B,black,man,,,,,"{""Q0"":""fred is kisksing luke""}","<img src=""stim_listB/kiss5.gif""style=""height:400px;""></stim_listB>",is kissing,
null,"<div style=""font-size:60px;"">+</div>",,html-keyboard-response,252,1586516,0.0-15.0-0.16,70570,List2B,black,man,,,,null,,,,
null,"<img src=""stim_listB/dance6.gif""style=""height:400px;""></stim_listB>",,html-keyboard-response,253,1588523,0.0-15.0-1.16,70570,List2B,black,man,,,,null,,,,
null,are dancing with each other,,html-keyboard-response,254,1590532,0.0-15.0-2.16,70570,List2B,black,man,,,,null,,,,
12870,,,survey-text,255,1603403,0.0-15.0-3.16,70570,List2B,black,man,,,,,"{""Q0"":""dave and fred are dancing with each other""}","<img src=""stim_listB/dance6.gif""style=""height:400px;""></stim_listB>",are dancing with each other,
null,"<div style=""font-size:60px;"">+</div>",,html-keyboard-response,256,1603958,0.0-15.0-0.17,70570,List2B,black,man,,,,null,,,,
null,"<img src=""stim_listB/dance4.gif""style=""height:400px;""></stim_listB>",,html-keyboard-response,257,1605961,0.0-15.0-1.17,70570,List2B,black,man,,,,null,,,,
null,are dancing with each other,,html-keyboard-response,258,1607974,0.0-15.0-2.17,70570,List2B,black,man,,,,null,,,,
13262,,,survey-text,259,1621237,0.0-15.0-3.17,70570,List2B,black,man,,,,,"{""Q0"":""mike and beth are dancing with each other""}","<img src=""stim_listB/dance4.gif""style=""height:400px;""></stim_listB>",are dancing with each other,
null,"<div style=""font-size:60px;"">+</div>",,html-keyboard-response,260,1621754,0.0-15.0-0.18,70570,List2B,black,man,,,,null,,,,
null,"<img src=""stim_listB/play5.gif""style=""height:400px;""></stim_listB>",,html-keyboard-response,261,1623759,0.0-15.0-1.18,70570,List2B,black,man,,,,null,,,,
null,is playing with,,html-keyboard-response,262,1625761,0.0-15.0-2.18,70570,List2B,black,man,,,,null,,,,
10343,,,survey-text,263,1636105,0.0-15.0-3.18,70570,List2B,black,man,,,,,"{""Q0"":""mike is playing with dave""}","<img src=""stim_listB/play5.gif""style=""height:400px;""></stim_listB>",is playing with,
null,"<div style=""font-size:60px;"">+</div>",,html-keyboard-response,264,1636621,0.0-15.0-0.19,70570,List2B,black,man,,,,null,,,,
null,"<img src=""stim_listB/flirt2.gif""style=""height:400px;""></stim_listB>",,html-keyboard-response,265,1638630,0.0-15.0-1.19,70570,List2B,black,man,,,,null,,,,
null,are flirting with each other,,html-keyboard-response,266,1640634,0.0-15.0-2.19,70570,List2B,black,man,,,,null,,,,
14601,,,survey-text,267,1655237,0.0-15.0-3.19,70570,List2B,black,man,,,,,"{""Q0"":""ruth and dave are flirtiing with each other""}","<img src=""stim_listB/flirt2.gif""style=""height:400px;""></stim_listB>",are flirting with each other,
13020,"<img src='img/portrait_matrix_list2.jpg' style='width:900px;height:500px;''></img><p>If you have memorised all the portraits and names and are ready to start, press Continue.</p><p><strong>Please note: Your memory of these faces will be tested 4 times during this experiment.</strong></p>",0,html-button-response,268,1668259,0.0-16.0-0.0,70570,List2B,black,man,,,,,,,,
2010,"<img src=""portrait/WW1.jpg""style=""height:400px;""></img>",1,html-button-response,269,1671281,0.0-16.0-1.0,70570,List2B,black,man,,TRUE,1,,,,,
null,CORRECT,,html-keyboard-response,270,1672800,0.0-16.0-2.0-0.0,70570,List2B,black,man,,,,null,,,,
2080,"<img src=""portrait/BM2.jpg""style=""height:400px;""></img>",5,html-button-response,271,1674883,0.0-16.0-4.0,70570,List2B,black,man,,TRUE,5,,,,,
null,CORRECT,,html-keyboard-response,272,1676404,0.0-16.0-5.0-0.0,70570,List2B,black,man,,,,null,,,,
1500,"<img src=""portrait/WM2.jpg""style=""height:400px;""></img>",7,html-button-response,273,1677906,0.0-16.0-7.0,70570,List2B,black,man,,TRUE,7,,,,,
null,CORRECT,,html-keyboard-response,274,1679438,0.0-16.0-8.0-0.0,70570,List2B,black,man,,,,null,,,,
2247,"<img src=""portrait/WM1.jpg""style=""height:400px;""></img>",6,html-button-response,275,1681688,0.0-16.0-10.0,70570,List2B,black,man,,TRUE,6,,,,,
null,CORRECT,,html-keyboard-response,276,1683227,0.0-16.0-11.0-0.0,70570,List2B,black,man,,,,null,,,,
1676,"<img src=""portrait/BM1.jpg""style=""height:400px;""></img>",4,html-button-response,277,1684906,0.0-16.0-13.0,70570,List2B,black,man,,TRUE,4,,,,,
null,CORRECT,,html-keyboard-response,278,1686438,0.0-16.0-14.0-0.0,70570,List2B,black,man,,,,null,,,,
1707,"<img src=""portrait/BW2.jpg""style=""height:400px;""></img>",2,html-button-response,279,1688147,0.0-16.0-16.0,70570,List2B,black,man,,TRUE,2,,,,,
null,CORRECT,,html-keyboard-response,280,1689654,0.0-16.0-17.0-0.0,70570,List2B,black,man,,,,null,,,,
1262,"<img src=""portrait/WW2.jpg""style=""height:400px;""></img>",3,html-button-response,281,1690917,0.0-16.0-19.0,70570,List2B,black,man,,TRUE,3,,,,,
null,CORRECT,,html-keyboard-response,282,1692434,0.0-16.0-20.0-0.0,70570,List2B,black,man,,,,null,,,,
1794,"<img src=""portrait/BW1.jpg""style=""height:400px;""></img>",0,html-button-response,283,1694230,0.0-16.0-22.0,70570,List2B,black,man,,TRUE,0,,,,,
null,CORRECT,,html-keyboard-response,284,1695749,0.0-16.0-23.0-0.0,70570,List2B,black,man,,,,null,,,,
1618,<p>You got 8 out of 8 right first time. Press Continue.</p>,0,html-button-response,285,1697369,0.0-16.0-25.0,70570,List2B,black,man,,,,,,,,
null,"<div style=""font-size:60px;"">+</div>",,html-keyboard-response,286,1698875,0.0-17.0-0.0,70570,List2B,black,man,,,,null,,,,
null,"<img src=""stim_listB/fight5.gif""style=""height:400px;""></stim_listB>",,html-keyboard-response,287,1700882,0.0-17.0-1.0,70570,List2B,black,man,,,,null,,,,
null,is fighting,,html-keyboard-response,288,1702887,0.0-17.0-2.0,70570,List2B,black,man,,,,null,,,,
10305,,,survey-text,289,1713193,0.0-17.0-3.0,70570,List2B,black,man,,,,,"{""Q0"":""mike is fighting dave""}","<img src=""stim_listB/fight5.gif""style=""height:400px;""></stim_listB>",is fighting,
null,"<div style=""font-size:60px;"">+</div>",,html-keyboard-response,290,1713697,0.0-17.0-0.1,70570,List2B,black,man,,,,null,,,,
null,"<img src=""stim_listB/fight4.gif""style=""height:400px;""></stim_listB>",,html-keyboard-response,291,1715704,0.0-17.0-1.1,70570,List2B,black,man,,,,null,,,,
null,are fighting each other,,html-keyboard-response,292,1717705,0.0-17.0-2.1,70570,List2B,black,man,,,,null,,,,
14283,,,survey-text,293,1731989,0.0-17.0-3.1,70570,List2B,black,man,,,,,"{""Q0"":""beth and fred are fighting each other""}","<img src=""stim_listB/fight4.gif""style=""height:400px;""></stim_listB>",are fighting each other,
null,"<div style=""font-size:60px;"">+</div>",,html-keyboard-response,294,1732496,0.0-17.0-0.2,70570,List2B,black,man,,,,null,,,,
null,"<img src=""stim_listB/argue7.gif""style=""height:400px;""></stim_listB>",,html-keyboard-response,295,1734499,0.0-17.0-1.2,70570,List2B,black,man,,,,null,,,,
null,is arguing with,,html-keyboard-response,296,1736501,0.0-17.0-2.2,70570,List2B,black,man,,,,null,,,,
13783,,,survey-text,297,1750285,0.0-17.0-3.2,70570,List2B,black,man,,,,,"{""Q0"":""jane and beth are arguing with each other""}","<img src=""stim_listB/argue7.gif""style=""height:400px;""></stim_listB>",is arguing with,
null,"<div style=""font-size:60px;"">+</div>",,html-keyboard-response,298,1750794,0.0-17.0-0.3,70570,List2B,black,man,,,,null,,,,
null,"<img src=""stim_listB/play7.gif""style=""height:400px;""></stim_listB>",,html-keyboard-response,299,1752797,0.0-17.0-1.3,70570,List2B,black,man,,,,null,,,,
null,is playing with,,html-keyboard-response,300,1754798,0.0-17.0-2.3,70570,List2B,black,man,,,,null,,,,
9269,,,survey-text,301,1764070,0.0-17.0-3.3,70570,List2B,black,man,,,,,"{""Q0"":""kate is playing with jane""}","<img src=""stim_listB/play7.gif""style=""height:400px;""></stim_listB>",is playing with,
null,"<div style=""font-size:60px;"">+</div>",,html-keyboard-response,302,1764583,0.0-17.0-0.4,70570,List2B,black,man,,,,null,,,,
null,"<img src=""stim_listB/argue4.gif""style=""height:400px;""></stim_listB>",,html-keyboard-response,303,1766587,0.0-17.0-1.4,70570,List2B,black,man,,,,null,,,,
null,are arguing with each other,,html-keyboard-response,304,1768602,0.0-17.0-2.4,70570,List2B,black,man,,,,null,,,,
12574,,,survey-text,305,1781177,0.0-17.0-3.4,70570,List2B,black,man,,,,,"{""Q0"":""fred and kate are arguing with each other""}","<img src=""stim_listB/argue4.gif""style=""height:400px;""></stim_listB>",are arguing with each other,
null,"<div style=""font-size:60px;"">+</div>",,html-keyboard-response,306,1781693,0.0-17.0-0.5,70570,List2B,black,man,,,,null,,,,
null,"<img src=""stim_listB/talk5.gif""style=""height:400px;""></stim_listB>",,html-keyboard-response,307,1783701,0.0-17.0-1.5,70570,List2B,black,man,,,,null,,,,
null,is talking to,,html-keyboard-response,308,1785711,0.0-17.0-2.5,70570,List2B,black,man,,,,null,,,,
16565,,,survey-text,309,1802277,0.0-17.0-3.5,70570,List2B,black,man,,,,,"{""Q0"":""mike is talking to luke""}","<img src=""stim_listB/talk5.gif""style=""height:400px;""></stim_listB>",is talking to,
null,"<div style=""font-size:60px;"">+</div>",,html-keyboard-response,310,1802782,0.0-17.0-0.6,70570,List2B,black,man,,,,null,,,,
null,"<img src=""stim_listB/touch7.gif""style=""height:400px;""></stim_listB>",,html-keyboard-response,311,1804786,0.0-17.0-1.6,70570,List2B,black,man,,,,null,,,,
null,is touching,,html-keyboard-response,312,1806790,0.0-17.0-2.6,70570,List2B,black,man,,,,null,,,,
7740,,,survey-text,313,1814531,0.0-17.0-3.6,70570,List2B,black,man,,,,,"{""Q0"":""kate is touching jane""}","<img src=""stim_listB/touch7.gif""style=""height:400px;""></stim_listB>",is touching,
null,"<div style=""font-size:60px;"">+</div>",,html-keyboard-response,314,1815040,0.0-17.0-0.7,70570,List2B,black,man,,,,null,,,,
null,"<img src=""stim_listB/talk4.gif""style=""height:400px;""></stim_listB>",,html-keyboard-response,315,1817042,0.0-17.0-1.7,70570,List2B,black,man,,,,null,,,,
null,are talking to each other,,html-keyboard-response,316,1819058,0.0-17.0-2.7,70570,List2B,black,man,,,,null,,,,
16380,,,survey-text,317,1835440,0.0-17.0-3.7,70570,List2B,black,man,,,,,"{""Q0"":""mike and beth are talking to each other""}","<img src=""stim_listB/talk4.gif""style=""height:400px;""></stim_listB>",are talking to each other,
null,"<div style=""font-size:60px;"">+</div>",,html-keyboard-response,318,1835958,0.0-17.0-0.8,70570,List2B,black,man,,,,null,,,,
null,"<img src=""stim_listB/touch3.gif""style=""height:400px;""></stim_listB>",,html-keyboard-response,319,1837961,0.0-17.0-1.8,70570,List2B,black,man,,,,null,,,,
null,is touching,,html-keyboard-response,320,1839965,0.0-17.0-2.8,70570,List2B,black,man,,,,null,,,,
22055,,,survey-text,321,1862022,0.0-17.0-3.8,70570,List2B,black,man,,,,,"{""Q0"":""mike is touching kate""}","<img src=""stim_listB/touch3.gif""style=""height:400px;""></stim_listB>",is touching,
null,"<div style=""font-size:60px;"">+</div>",,html-keyboard-response,322,1862531,0.0-17.0-0.9,70570,List2B,black,man,,,,null,,,,
null,"<img src=""stim_listB/play4.gif""style=""height:400px;""></stim_listB>",,html-keyboard-response,323,1864540,0.0-17.0-1.9,70570,List2B,black,man,,,,null,,,,
null,are playing with each other,,html-keyboard-response,324,1866541,0.0-17.0-2.9,70570,List2B,black,man,,,,null,,,,
13761,,,survey-text,325,1880304,0.0-17.0-3.9,70570,List2B,black,man,,,,,"{""Q0"":""beth and fred are playing with each other""}","<img src=""stim_listB/play4.gif""style=""height:400px;""></stim_listB>",are playing with each other,
null,"<div style=""font-size:60px;"">+</div>",,html-keyboard-response,326,1880812,0.0-17.0-0.10,70570,List2B,black,man,,,,null,,,,
null,"<img src=""stim_listB/kiss8.gif""style=""height:400px;""></stim_listB>",,html-keyboard-response,327,1882834,0.0-17.0-1.10,70570,List2B,black,man,,,,null,,,,
null,are kissing each other,,html-keyboard-response,328,1884836,0.0-17.0-2.10,70570,List2B,black,man,,,,null,,,,
21239,,,survey-text,329,1906076,0.0-17.0-3.10,70570,List2B,black,man,,,,,"{""Q0"":""jane and kate are kissing each other""}","<img src=""stim_listB/kiss8.gif""style=""height:400px;""></stim_listB>",are kissing each other,
null,"<div style=""font-size:60px;"">+</div>",,html-keyboard-response,330,1906589,0.0-17.0-0.11,70570,List2B,black,man,,,,null,,,,
null,"<img src=""stim_listB/flirt3.gif""style=""height:400px;""></stim_listB>",,html-keyboard-response,331,1908592,0.0-17.0-1.11,70570,List2B,black,man,,,,null,,,,
null,is flirting with,,html-keyboard-response,332,1910607,0.0-17.0-2.11,70570,List2B,black,man,,,,null,,,,
14641,,,survey-text,333,1925250,0.0-17.0-3.11,70570,List2B,black,man,,,,,"{""Q0"":""fred is flirting with kate""}","<img src=""stim_listB/flirt3.gif""style=""height:400px;""></stim_listB>",is flirting with,
null,"<div style=""font-size:60px;"">+</div>",,html-keyboard-response,334,1925757,0.0-17.0-0.12,70570,List2B,black,man,,,,null,,,,
null,"<img src=""stim_listB/shout8.gif""style=""height:400px;""></stim_listB>",,html-keyboard-response,335,1927760,0.0-17.0-1.12,70570,List2B,black,man,,,,null,,,,
null,are shouting at each other,,html-keyboard-response,336,1929782,0.0-17.0-2.12,70570,List2B,black,man,,,,null,,,,
31613,,,survey-text,337,1961397,0.0-17.0-3.12,70570,List2B,black,man,,,,,"{""Q0"":""kate and jane are arguing with each other""}","<img src=""stim_listB/shout8.gif""style=""height:400px;""></stim_listB>",are shouting at each other,
null,"<div style=""font-size:60px;"">+</div>",,html-keyboard-response,338,1961904,0.0-17.0-0.13,70570,List2B,black,man,,,,null,,,,
null,"<img src=""stim_listB/fight2.gif""style=""height:400px;""></stim_listB>",,html-keyboard-response,339,1963907,0.0-17.0-1.13,70570,List2B,black,man,,,,null,,,,
null,are fighting each other,,html-keyboard-response,340,1965908,0.0-17.0-2.13,70570,List2B,black,man,,,,null,,,,
12542,,,survey-text,341,1978451,0.0-17.0-3.13,70570,List2B,black,man,,,,,"{""Q0"":""mike and ruth are fighting each other""}","<img src=""stim_listB/fight2.gif""style=""height:400px;""></stim_listB>",are fighting each other,
null,"<div style=""font-size:60px;"">+</div>",,html-keyboard-response,342,1978964,0.0-17.0-0.14,70570,List2B,black,man,,,,null,,,,
null,"<img src=""stim_listB/shout2.gif""style=""height:400px;""></stim_listB>",,html-keyboard-response,343,1980967,0.0-17.0-1.14,70570,List2B,black,man,,,,null,,,,
null,are shouting at each other,,html-keyboard-response,344,1982973,0.0-17.0-2.14,70570,List2B,black,man,,,,null,,,,
12095,,,survey-text,345,1995069,0.0-17.0-3.14,70570,List2B,black,man,,,,,"{""Q0"":""dave and jane are shouting at each other""}","<img src=""stim_listB/shout2.gif""style=""height:400px;""></stim_listB>",are shouting at each other,
null,"<div style=""font-size:60px;"">+</div>",,html-keyboard-response,346,1995584,0.0-17.0-0.15,70570,List2B,black,man,,,,null,,,,
null,"<img src=""stim_listB/talk3.gif""style=""height:400px;""></stim_listB>",,html-keyboard-response,347,1997587,0.0-17.0-1.15,70570,List2B,black,man,,,,null,,,,
null,is talking to,,html-keyboard-response,348,1999599,0.0-17.0-2.15,70570,List2B,black,man,,,,null,,,,
10705,,,survey-text,349,2010305,0.0-17.0-3.15,70570,List2B,black,man,,,,,"{""Q0"":""fred is talking to kate""}","<img src=""stim_listB/talk3.gif""style=""height:400px;""></stim_listB>",is talking to,
null,"<div style=""font-size:60px;"">+</div>",,html-keyboard-response,350,2010814,0.0-17.0-0.16,70570,List2B,black,man,,,,null,,,,
null,"<img src=""stim_listB/dance3.gif""style=""height:400px;""></stim_listB>",,html-keyboard-response,351,2012817,0.0-17.0-1.16,70570,List2B,black,man,,,,null,,,,
null,is dancing with,,html-keyboard-response,352,2014826,0.0-17.0-2.16,70570,List2B,black,man,,,,null,,,,
9062,,,survey-text,353,2023893,0.0-17.0-3.16,70570,List2B,black,man,,,,,"{""Q0"":""kate is dancing with fred""}","<img src=""stim_listB/dance3.gif""style=""height:400px;""></stim_listB>",is dancing with,
null,"<div style=""font-size:60px;"">+</div>",,html-keyboard-response,354,2024398,0.0-17.0-0.17,70570,List2B,black,man,,,,null,,,,
null,"<img src=""stim_listB/fight7.gif""style=""height:400px;""></stim_listB>",,html-keyboard-response,355,2026405,0.0-17.0-1.17,70570,List2B,black,man,,,,null,,,,
null,is fighting,,html-keyboard-response,356,2028419,0.0-17.0-2.17,70570,List2B,black,man,,,,null,,,,
11321,,,survey-text,357,2039742,0.0-17.0-3.17,70570,List2B,black,man,,,,,"{""Q0"":""kate is fighting jane""}","<img src=""stim_listB/fight7.gif""style=""height:400px;""></stim_listB>",is fighting,
null,"<div style=""font-size:60px;"">+</div>",,html-keyboard-response,358,2040247,0.0-17.0-0.18,70570,List2B,black,man,,,,null,,,,
null,"<img src=""stim_listB/touch2.gif""style=""height:400px;""></stim_listB>",,html-keyboard-response,359,2042249,0.0-17.0-1.18,70570,List2B,black,man,,,,null,,,,
null,are touching each other,,html-keyboard-response,360,2044252,0.0-17.0-2.18,70570,List2B,black,man,,,,null,,,,
12907,,,survey-text,361,2057161,0.0-17.0-3.18,70570,List2B,black,man,,,,,"{""Q0"":""luke and ruth are touching each other""}","<img src=""stim_listB/touch2.gif""style=""height:400px;""></stim_listB>",are touching each other,
null,"<div style=""font-size:60px;"">+</div>",,html-keyboard-response,362,2057677,0.0-17.0-0.19,70570,List2B,black,man,,,,null,,,,
null,"<img src=""stim_listB/shout6.gif""style=""height:400px;""></stim_listB>",,html-keyboard-response,363,2059680,0.0-17.0-1.19,70570,List2B,black,man,,,,null,,,,
null,are shouting at each other,,html-keyboard-response,364,2061688,0.0-17.0-2.19,70570,List2B,black,man,,,,null,,,,
16035,,,survey-text,365,2077725,0.0-17.0-3.19,70570,List2B,black,man,,,,,"{""Q0"":""dave and mike are shouting at each other""}","<img src=""stim_listB/shout6.gif""style=""height:400px;""></stim_listB>",are shouting at each other,
12908,"<img src='img/portrait_matrix_list2.jpg' style='width:900px;height:500px;''></img><p>If you have memorised all the portraits and names and are ready to start, press Continue.</p><p><strong>Please note: Your memory of these faces will be tested 4 times during this experiment.</strong></p>",0,html-button-response,366,2090636,0.0-18.0-0.0,70570,List2B,black,man,,,,,,,,
1812,"<img src=""portrait/BW2.jpg""style=""height:400px;""></img>",2,html-button-response,367,2093461,0.0-18.0-1.0,70570,List2B,black,man,,TRUE,2,,,,,
null,CORRECT,,html-keyboard-response,368,2094975,0.0-18.0-2.0-0.0,70570,List2B,black,man,,,,null,,,,
1248,"<img src=""portrait/WW2.jpg""style=""height:400px;""></img>",3,html-button-response,369,2096225,0.0-18.0-4.0,70570,List2B,black,man,,TRUE,3,,,,,
null,CORRECT,,html-keyboard-response,370,2097742,0.0-18.0-5.0-0.0,70570,List2B,black,man,,,,null,,,,
1557,"<img src=""portrait/BM1.jpg""style=""height:400px;""></img>",4,html-button-response,371,2099301,0.0-18.0-7.0,70570,List2B,black,man,,TRUE,4,,,,,
null,CORRECT,,html-keyboard-response,372,2100807,0.0-18.0-8.0-0.0,70570,List2B,black,man,,,,null,,,,
1922,"<img src=""portrait/BW1.jpg""style=""height:400px;""></img>",0,html-button-response,373,2102731,0.0-18.0-10.0,70570,List2B,black,man,,TRUE,0,,,,,
null,CORRECT,,html-keyboard-response,374,2104256,0.0-18.0-11.0-0.0,70570,List2B,black,man,,,,null,,,,
2577,"<img src=""portrait/WM1.jpg""style=""height:400px;""></img>",6,html-button-response,375,2106835,0.0-18.0-13.0,70570,List2B,black,man,,TRUE,6,,,,,
null,CORRECT,,html-keyboard-response,376,2108360,0.0-18.0-14.0-0.0,70570,List2B,black,man,,,,null,,,,
1849,"<img src=""portrait/WW1.jpg""style=""height:400px;""></img>",1,html-button-response,377,2110211,0.0-18.0-16.0,70570,List2B,black,man,,TRUE,1,,,,,
null,CORRECT,,html-keyboard-response,378,2111741,0.0-18.0-17.0-0.0,70570,List2B,black,man,,,,null,,,,
2021,"<img src=""portrait/BM2.jpg""style=""height:400px;""></img>",5,html-button-response,379,2113765,0.0-18.0-19.0,70570,List2B,black,man,,TRUE,5,,,,,
null,CORRECT,,html-keyboard-response,380,2115279,0.0-18.0-20.0-0.0,70570,List2B,black,man,,,,null,,,,
1349,"<img src=""portrait/WM2.jpg""style=""height:400px;""></img>",7,html-button-response,381,2116631,0.0-18.0-22.0,70570,List2B,black,man,,TRUE,7,,,,,
null,CORRECT,,html-keyboard-response,382,2118155,0.0-18.0-23.0-0.0,70570,List2B,black,man,,,,null,,,,
1370,<p>You got 8 out of 8 right first time. Press Continue.</p>,0,html-button-response,383,2119527,0.0-18.0-25.0,70570,List2B,black,man,,,,,,,,
null,"<div style=""font-size:60px;"">+</div>",,html-keyboard-response,384,2121047,0.0-19.0-0.0,70570,List2B,black,man,,,,null,,,,
null,"<img src=""stim_listB/kiss2.gif""style=""height:400px;""></stim_listB>",,html-keyboard-response,385,2123049,0.0-19.0-1.0,70570,List2B,black,man,,,,null,,,,
null,are kissing each other,,html-keyboard-response,386,2125074,0.0-19.0-2.0,70570,List2B,black,man,,,,null,,,,
11739,,,survey-text,387,2136815,0.0-19.0-3.0,70570,List2B,black,man,,,,,"{""Q0"":""dave and jane are kissing each other""}","<img src=""stim_listB/kiss2.gif""style=""height:400px;""></stim_listB>",are kissing each other,
null,"<div style=""font-size:60px;"">+</div>",,html-keyboard-response,388,2137323,0.0-19.0-0.1,70570,List2B,black,man,,,,null,,,,
null,"<img src=""stim_listB/marry2.gif""style=""height:400px;""></stim_listB>",,html-keyboard-response,389,2139325,0.0-19.0-1.1,70570,List2B,black,man,,,,null,,,,
null,are marrying each other,,html-keyboard-response,390,2141328,0.0-19.0-2.1,70570,List2B,black,man,,,,null,,,,
12411,,,survey-text,391,2153741,0.0-19.0-3.1,70570,List2B,black,man,,,,,"{""Q0"":""luke and jane are marrying each other""}","<img src=""stim_listB/marry2.gif""style=""height:400px;""></stim_listB>",are marrying each other,
null,"<div style=""font-size:60px;"">+</div>",,html-keyboard-response,392,2154258,0.0-19.0-0.2,70570,List2B,black,man,,,,null,,,,
null,"<img src=""stim_listB/flirt4.gif""style=""height:400px;""></stim_listB>",,html-keyboard-response,393,2156278,0.0-19.0-1.2,70570,List2B,black,man,,,,null,,,,
null,are flirting with each other,,html-keyboard-response,394,2158280,0.0-19.0-2.2,70570,List2B,black,man,,,,null,,,,
12551,,,survey-text,395,2170833,0.0-19.0-3.2,70570,List2B,black,man,,,,,"{""Q0"":""mike and beth are flirting with each other""}","<img src=""stim_listB/flirt4.gif""style=""height:400px;""></stim_listB>",are flirting with each other,
null,"<div style=""font-size:60px;"">+</div>",,html-keyboard-response,396,2171339,0.0-19.0-0.3,70570,List2B,black,man,,,,null,,,,
null,"<img src=""stim_listB/shout5.gif""style=""height:400px;""></stim_listB>",,html-keyboard-response,397,2173343,0.0-19.0-1.3,70570,List2B,black,man,,,,null,,,,
null,is shouting at,,html-keyboard-response,398,2175345,0.0-19.0-2.3,70570,List2B,black,man,,,,null,,,,
9732,,,survey-text,399,2185079,0.0-19.0-3.3,70570,List2B,black,man,,,,,"{""Q0"":""fred is shouting at luke""}","<img src=""stim_listB/shout5.gif""style=""height:400px;""></stim_listB>",is shouting at,
null,"<div style=""font-size:60px;"">+</div>",,html-keyboard-response,400,2185588,0.0-19.0-0.4,70570,List2B,black,man,,,,null,,,,
null,"<img src=""stim_listB/dance1.gif""style=""height:400px;""></stim_listB>",,html-keyboard-response,401,2187593,0.0-19.0-1.4,70570,List2B,black,man,,,,null,,,,
null,is dancing with,,html-keyboard-response,402,2189603,0.0-19.0-2.4,70570,List2B,black,man,,,,null,,,,
35821,,,survey-text,403,2225428,0.0-19.0-3.4,70570,List2B,black,man,,,,,"{""Q0"":""jane is dancing with luke""}","<img src=""stim_listB/dance1.gif""style=""height:400px;""></stim_listB>",is dancing with,
null,"<div style=""font-size:60px;"">+</div>",,html-keyboard-response,404,2225931,0.0-19.0-0.5,70570,List2B,black,man,,,,null,,,,
null,"<img src=""stim_listB/touch4.gif""style=""height:400px;""></stim_listB>",,html-keyboard-response,405,2227933,0.0-19.0-1.5,70570,List2B,black,man,,,,null,,,,
null,are touching each other,,html-keyboard-response,406,2229934,0.0-19.0-2.5,70570,List2B,black,man,,,,null,,,,
13414,,,survey-text,407,2243350,0.0-19.0-3.5,70570,List2B,black,man,,,,,"{""Q0"":""fred and beth are touching each other""}","<img src=""stim_listB/touch4.gif""style=""height:400px;""></stim_listB>",are touching each other,
null,"<div style=""font-size:60px;"">+</div>",,html-keyboard-response,408,2243859,0.0-19.0-0.6,70570,List2B,black,man,,,,null,,,,
null,"<img src=""stim_listB/shout1.gif""style=""height:400px;""></stim_listB>",,html-keyboard-response,409,2245862,0.0-19.0-1.6,70570,List2B,black,man,,,,null,,,,
null,is shouting at,,html-keyboard-response,410,2247876,0.0-19.0-2.6,70570,List2B,black,man,,,,null,,,,
10232,,,survey-text,411,2258110,0.0-19.0-3.6,70570,List2B,black,man,,,,,"{""Q0"":""luke is shouting at ruth""}","<img src=""stim_listB/shout1.gif""style=""height:400px;""></stim_listB>",is shouting at,
null,"<div style=""font-size:60px;"">+</div>",,html-keyboard-response,412,2258621,0.0-19.0-0.7,70570,List2B,black,man,,,,null,,,,
null,"<img src=""stim_listB/talk8.gif""style=""height:400px;""></stim_listB>",,html-keyboard-response,413,2260624,0.0-19.0-1.7,70570,List2B,black,man,,,,null,,,,
null,are talking to each other,,html-keyboard-response,414,2262627,0.0-19.0-2.7,70570,List2B,black,man,,,,null,,,,
14147,,,survey-text,415,2276776,0.0-19.0-3.7,70570,List2B,black,man,,,,,"{""Q0"":""jane and kate are talking to each other""}","<img src=""stim_listB/talk8.gif""style=""height:400px;""></stim_listB>",are talking to each other,
null,"<div style=""font-size:60px;"">+</div>",,html-keyboard-response,416,2277287,0.0-19.0-0.8,70570,List2B,black,man,,,,null,,,,
null,"<img src=""stim_listB/play3.gif""style=""height:400px;""></stim_listB>",,html-keyboard-response,417,2279291,0.0-19.0-1.8,70570,List2B,black,man,,,,null,,,,
null,is playing with,,html-keyboard-response,418,2281303,0.0-19.0-2.8,70570,List2B,black,man,,,,null,,,,
9980,,,survey-text,419,2291285,0.0-19.0-3.8,70570,List2B,black,man,,,,,"{""Q0"":""kate is playing with mike""}","<img src=""stim_listB/play3.gif""style=""height:400px;""></stim_listB>",is playing with,
null,"<div style=""font-size:60px;"">+</div>",,html-keyboard-response,420,2291799,0.0-19.0-0.9,70570,List2B,black,man,,,,null,,,,
null,"<img src=""stim_listB/marry1.gif""style=""height:400px;""></stim_listB>",,html-keyboard-response,421,2293807,0.0-19.0-1.9,70570,List2B,black,man,,,,null,,,,
null,is marrying,,html-keyboard-response,422,2295825,0.0-19.0-2.9,70570,List2B,black,man,,,,null,,,,
11369,,,survey-text,423,2307196,0.0-19.0-3.9,70570,List2B,black,man,,,,,"{""Q0"":""dave is marrying ruth""}","<img src=""stim_listB/marry1.gif""style=""height:400px;""></stim_listB>",is marrying,
null,"<div style=""font-size:60px;"">+</div>",,html-keyboard-response,424,2307713,0.0-19.0-0.10,70570,List2B,black,man,,,,null,,,,
null,"<img src=""stim_listB/touch5.gif""style=""height:400px;""></stim_listB>",,html-keyboard-response,425,2309717,0.0-19.0-1.10,70570,List2B,black,man,,,,null,,,,
null,is touching,,html-keyboard-response,426,2311719,0.0-19.0-2.10,70570,List2B,black,man,,,,null,,,,
7853,,,survey-text,427,2319572,0.0-19.0-3.10,70570,List2B,black,man,,,,,"{""Q0"":""mike is touching dave""}","<img src=""stim_listB/touch5.gif""style=""height:400px;""></stim_listB>",is touching,
null,"<div style=""font-size:60px;"">+</div>",,html-keyboard-response,428,2320086,0.0-19.0-0.11,70570,List2B,black,man,,,,null,,,,
null,"<img src=""stim_listB/flirt7.gif""style=""height:400px;""></stim_listB>",,html-keyboard-response,429,2322089,0.0-19.0-1.11,70570,List2B,black,man,,,,null,,,,
null,is flirting with,,html-keyboard-response,430,2324092,0.0-19.0-2.11,70570,List2B,black,man,,,,null,,,,
12890,,,survey-text,431,2336984,0.0-19.0-3.11,70570,List2B,black,man,,,,,"{""Q0"":""kate is flirting with ruth""}","<img src=""stim_listB/flirt7.gif""style=""height:400px;""></stim_listB>",is flirting with,
null,"<div style=""font-size:60px;"">+</div>",,html-keyboard-response,432,2337500,0.0-19.0-0.12,70570,List2B,black,man,,,,null,,,,
null,"<img src=""stim_listB/argue8.gif""style=""height:400px;""></stim_listB>",,html-keyboard-response,433,2339503,0.0-19.0-1.12,70570,List2B,black,man,,,,null,,,,
null,are arguing with each other,,html-keyboard-response,434,2341514,0.0-19.0-2.12,70570,List2B,black,man,,,,null,,,,
12722,,,survey-text,435,2354238,0.0-19.0-3.12,70570,List2B,black,man,,,,,"{""Q0"":""ruth and kate are arguing with each other""}","<img src=""stim_listB/argue8.gif""style=""height:400px;""></stim_listB>",are arguing with each other,
null,"<div style=""font-size:60px;"">+</div>",,html-keyboard-response,436,2354748,0.0-19.0-0.13,70570,List2B,black,man,,,,null,,,,
null,"<img src=""stim_listB/dance7.gif""style=""height:400px;""></stim_listB>",,html-keyboard-response,437,2356751,0.0-19.0-1.13,70570,List2B,black,man,,,,null,,,,
null,is dancing with,,html-keyboard-response,438,2358766,0.0-19.0-2.13,70570,List2B,black,man,,,,null,,,,
9284,,,survey-text,439,2368052,0.0-19.0-3.13,70570,List2B,black,man,,,,,"{""Q0"":""ruth is dancing with kate""}","<img src=""stim_listB/dance7.gif""style=""height:400px;""></stim_listB>",is dancing with,
null,"<div style=""font-size:60px;"">+</div>",,html-keyboard-response,440,2368562,0.0-19.0-0.14,70570,List2B,black,man,,,,null,,,,
null,"<img src=""stim_listB/play8.gif""style=""height:400px;""></stim_listB>",,html-keyboard-response,441,2370566,0.0-19.0-1.14,70570,List2B,black,man,,,,null,,,,
null,are playing with each other,,html-keyboard-response,442,2372578,0.0-19.0-2.14,70570,List2B,black,man,,,,null,,,,
18815,,,survey-text,443,2391396,0.0-19.0-3.14,70570,List2B,black,man,,,,,"{""Q0"":""beth and ruth are playing with each other""}","<img src=""stim_listB/play8.gif""style=""height:400px;""></stim_listB>",are playing with each other,
null,"<div style=""font-size:60px;"">+</div>",,html-keyboard-response,444,2391900,0.0-19.0-0.15,70570,List2B,black,man,,,,null,,,,
null,"<img src=""stim_listB/touch1.gif""style=""height:400px;""></stim_listB>",,html-keyboard-response,445,2393912,0.0-19.0-1.15,70570,List2B,black,man,,,,null,,,,
null,is touching,,html-keyboard-response,446,2395914,0.0-19.0-2.15,70570,List2B,black,man,,,,null,,,,
7941,,,survey-text,447,2403858,0.0-19.0-3.15,70570,List2B,black,man,,,,,"{""Q0"":""jane is touching dave""}","<img src=""stim_listB/touch1.gif""style=""height:400px;""></stim_listB>",is touching,
null,"<div style=""font-size:60px;"">+</div>",,html-keyboard-response,448,2404377,0.0-19.0-0.16,70570,List2B,black,man,,,,null,,,,
null,"<img src=""stim_listB/talk1.gif""style=""height:400px;""></stim_listB>",,html-keyboard-response,449,2406383,0.0-19.0-1.16,70570,List2B,black,man,,,,null,,,,
null,is talking to,,html-keyboard-response,450,2408389,0.0-19.0-2.16,70570,List2B,black,man,,,,null,,,,
9117,,,survey-text,451,2417508,0.0-19.0-3.16,70570,List2B,black,man,,,,,"{""Q0"":""luke is talking to jane""}","<img src=""stim_listB/talk1.gif""style=""height:400px;""></stim_listB>",is talking to,
null,"<div style=""font-size:60px;"">+</div>",,html-keyboard-response,452,2418013,0.0-19.0-0.17,70570,List2B,black,man,,,,null,,,,
null,"<img src=""stim_listB/marry8.gif""style=""height:400px;""></stim_listB>",,html-keyboard-response,453,2420019,0.0-19.0-1.17,70570,List2B,black,man,,,,null,,,,
null,are marrying each other,,html-keyboard-response,454,2422033,0.0-19.0-2.17,70570,List2B,black,man,,,,null,,,,
11913,,,survey-text,455,2433948,0.0-19.0-3.17,70570,List2B,black,man,,,,,"{""Q0"":""ruth and kate are marrying each other""}","<img src=""stim_listB/marry8.gif""style=""height:400px;""></stim_listB>",are marrying each other,
null,"<div style=""font-size:60px;"">+</div>",,html-keyboard-response,456,2434461,0.0-19.0-0.18,70570,List2B,black,man,,,,null,,,,
null,"<img src=""stim_listB/kiss4.gif""style=""height:400px;""></stim_listB>",,html-keyboard-response,457,2436469,0.0-19.0-1.18,70570,List2B,black,man,,,,null,,,,
null,are kissing each other,,html-keyboard-response,458,2438487,0.0-19.0-2.18,70570,List2B,black,man,,,,null,,,,
18966,,,survey-text,459,2457455,0.0-19.0-3.18,70570,List2B,black,man,,,,,"{""Q0"":""mike and kate are kissing each other""}","<img src=""stim_listB/kiss4.gif""style=""height:400px;""></stim_listB>",are kissing each other,
null,"<div style=""font-size:60px;"">+</div>",,html-keyboard-response,460,2457959,0.0-19.0-0.19,70570,List2B,black,man,,,,null,,,,
null,"<img src=""stim_listB/shout7.gif""style=""height:400px;""></stim_listB>",,html-keyboard-response,461,2459973,0.0-19.0-1.19,70570,List2B,black,man,,,,null,,,,
null,is shouting at,,html-keyboard-response,462,2461978,0.0-19.0-2.19,70570,List2B,black,man,,,,null,,,,
11173,,,survey-text,463,2473153,0.0-19.0-3.19,70570,List2B,black,man,,,,,"{""Q0"":""ruth is shouting at beth""}","<img src=""stim_listB/shout7.gif""style=""height:400px;""></stim_listB>",is shouting at,
3484,<p>Thank you for completing that task.</p><p>The final part of this session is a short questionnaire.</p><p>Press Continue.</p>,0,html-button-response,464,2476639,0.0-20.0,70570,List2B,black,man,,,,,,,,
30191,,,survey-text,465,2507834,0.0-21.0,70570,List2B,black,man,,,,,"{""Q0"":""55"",""Q1"":""english"",""Q2"":""english"",""Q3"":""USA"",""Q4"":""African American"",""Q5"":""male""}",,,demographics
5726,,,survey-likert,466,2513565,0.0-22.0,70570,List2B,black,man,,,,,"{""Q0"":4}",,,likert_ESS
19698,,,survey-likert,467,2533266,0.0-23.0,70570,List2B,black,man,,,,,"{""Q0"":4}",,,likert_NSSAL_Q1
5419,,,survey-likert,468,2538688,0.0-24.0,70570,List2B,black,man,,,,,"{""Q0"":4}",,,likert_NSSAL_Q2
4463,,,survey-likert,469,2543154,0.0-25.0,70570,List2B,black,man,,,,,"{""Q0"":3}",,,likert_CGRS_Q1
6817,,,survey-likert,470,2549974,0.0-26.0,70570,List2B,black,man,,,,,"{""Q0"":3}",,,likert_CGRS_Q2
2721,,,survey-likert,471,2552698,0.0-27.0,70570,List2B,black,man,,,,,"{""Q0"":3}",,,likert_CGRS_Q3
6350,,,survey-text,472,2559051,0.0-28.0,70570,List2B,black,man,,,,,"{""Q0"":""ccc""}",,,worker_id
8573,,,external-html,473,2568289,0.0-29.0,70570,List2B,black,man,debrief.html,,,,,,,
