rt,stimulus,button_pressed,trial_type,trial_index,time_elapsed,internal_node_id,subject,list,ppt_race,ppt_gender,url,first_guess,correct,key_press,responses,image_type,phrase_type,test_part
2509,Welcome to the experiment. Press Continue to begin.,0,html-button-response,0,2516,0.0-0.0,70820,List1A,white,man,,,,,,,,
15992,,,external-html,1,19622,0.0-1.0,70820,List1A,white,man,consent.html,,,,,,,
11046,"<p>On the next page, you will see portraits of 8 people and their names.</p><p>Your first task is to take a few minutes to memorise the names of these people.</p><p>You will have to recall their names during the rest of the experiment, so it is</p><p>essential that you try to memorise these people and their names as best as you can.</p><br><p><strong>You will then be tested on your memory of these names and portraits.</strong></p><br><p>The experiment will start after you have completed this memory test.</p><br><p>Ready?</p>",0,html-button-response,2,30669,0.0-2.0,70820,List1A,white,man,,,,,,,,
57321,"<img src='img/portrait_matrix_list1.jpg' style='width:900px;height:500px;''></img><p>If you have memorised all the portraits and names and are ready to start, press Continue.</p><p><strong>Please note: Your memory of these faces will be tested 4 times during this experiment.</strong></p>",0,html-button-response,3,88991,0.0-3.0-0.0,70820,List1A,white,man,,,,,,,,
8231,"<img src=""portrait/WW1.jpg""style=""height:400px;""></img>",1,html-button-response,4,98224,0.0-3.0-1.0,70820,List1A,white,man,,TRUE,1,,,,,
null,CORRECT,,html-keyboard-response,5,99728,0.0-3.0-2.0-0.0,70820,List1A,white,man,,,,null,,,,
4127,"<img src=""portrait/BM2.jpg""style=""height:400px;""></img>",5,html-button-response,6,103858,0.0-3.0-4.0,70820,List1A,white,man,,TRUE,5,,,,,
null,CORRECT,,html-keyboard-response,7,105360,0.0-3.0-5.0-0.0,70820,List1A,white,man,,,,null,,,,
7692,"<img src=""portrait/BW2.jpg""style=""height:400px;""></img>",2,html-button-response,8,113054,0.0-3.0-7.0,70820,List1A,white,man,,TRUE,2,,,,,
null,CORRECT,,html-keyboard-response,9,114557,0.0-3.0-8.0-0.0,70820,List1A,white,man,,,,null,,,,
4374,"<img src=""portrait/WM2.jpg""style=""height:400px;""></img>",7,html-button-response,10,118933,0.0-3.0-10.0,70820,List1A,white,man,,TRUE,7,,,,,
null,CORRECT,,html-keyboard-response,11,120436,0.0-3.0-11.0-0.0,70820,List1A,white,man,,,,null,,,,
3840,"<img src=""portrait/WW2.jpg""style=""height:400px;""></img>",3,html-button-response,12,124278,0.0-3.0-13.0,70820,List1A,white,man,,TRUE,3,,,,,
null,CORRECT,,html-keyboard-response,13,125781,0.0-3.0-14.0-0.0,70820,List1A,white,man,,,,null,,,,
9581,"<img src=""portrait/BW1.jpg""style=""height:400px;""></img>",0,html-button-response,14,135365,0.0-3.0-16.0,70820,List1A,white,man,,TRUE,0,,,,,
null,CORRECT,,html-keyboard-response,15,136868,0.0-3.0-17.0-0.0,70820,List1A,white,man,,,,null,,,,
3808,"<img src=""portrait/BM1.jpg""style=""height:400px;""></img>",4,html-button-response,16,140678,0.0-3.0-19.0,70820,List1A,white,man,,TRUE,4,,,,,
null,CORRECT,,html-keyboard-response,17,142181,0.0-3.0-20.0-0.0,70820,List1A,white,man,,,,null,,,,
3914,"<img src=""portrait/WM1.jpg""style=""height:400px;""></img>",6,html-button-response,18,146096,0.0-3.0-22.0,70820,List1A,white,man,,TRUE,6,,,,,
null,CORRECT,,html-keyboard-response,19,147600,0.0-3.0-23.0-0.0,70820,List1A,white,man,,,,null,,,,
2669,<p>You got 8 out of 8 right first time. Press Continue.</p>,0,html-button-response,20,150271,0.0-3.0-25.0,70820,List1A,white,man,,,,,,,,
45413,"<p>In this experiment, you will view photographs of the people from the memory game interacting.</p><p>By using the <strong>exact</strong> phrase given <i>after</i> the photograph appears and recalling the correct names of the people in the photographs, form a sentence describing the interaction. You do not need to capitalise names.</p><p>Type your answer in the space provided. Please complete every sentence before moving onto the next trial.</p><p>You will only have a few seconds to memorise each given photograph and phrase before you can respond, so try your best to focus.</p><p>An example is given below. Press 'Continue' when you are ready.</p><img src='img/speaking_example.jpg' style='width:800px;height:460px;''></img>",0,html-button-response,21,196687,0.0-4.0,70820,List1A,white,man,,,,,,,,
3541,"<p>Before the experiment starts, you will watch two example trials. Press 'Continue'.</p>",0,html-button-response,22,201230,0.0-5.0,70820,List1A,white,man,,,,,,,,
null,<img src='img/meet_eg.gif' style='height:400px;''></img>,,html-keyboard-response,23,204233,0.0-6.0,70820,List1A,white,man,,,,null,,,,
null,<p>is meeting</p>,,html-keyboard-response,24,206234,0.0-7.0,70820,List1A,white,man,,,,null,,,,
5547,<p><b>Answer:</b> kate is meeting beth</p>,0,html-button-response,25,211783,0.0-8.0,70820,List1A,white,man,,,,,,,,
null,<img src='img/look_eg.gif' style='height:400px;''></img>,,html-keyboard-response,26,214786,0.0-9.0,70820,List1A,white,man,,,,null,,,,
null,<p>are looking at each other</p>,,html-keyboard-response,27,216788,0.0-10.0,70820,List1A,white,man,,,,null,,,,
3102,<p><b>Answer:</b> luke and dave are looking at each other</p>,0,html-button-response,28,219891,0.0-11.0,70820,List1A,white,man,,,,,,,,
10684,"<p>Ready to start the experiment?</p><br><p><strong>Remember to describe the picture using a full sentence,</strong></p><p><strong>that combines the names of the people with the <i>exact</i> phrase given.</strong></p><p><strong>To receive full payment you must do this correctly.</strong></p><p><strong> You do not need to capitalise names or use punctuation.</strong></p><br><p>Press 'Continue' to begin.</p>",0,html-button-response,29,231577,0.0-12.0,70820,List1A,white,man,,,,,,,,
null,"<div style=""font-size:60px;"">+</div>",,html-keyboard-response,30,233081,0.0-13.0-0.0,70820,List1A,white,man,,,,null,,,,
null,"<img src=""stim_listA/fight8.gif""style=""height:400px;""></stim_listA>",,html-keyboard-response,31,235084,0.0-13.0-1.0,70820,List1A,white,man,,,,null,,,,
null,are fighting each other,,html-keyboard-response,32,237086,0.0-13.0-2.0,70820,List1A,white,man,,,,null,,,,
13173,,,survey-text,33,250261,0.0-13.0-3.0,70820,List1A,white,man,,,,,"{""Q0"":""Beth and Ruth are fighting each other""}","<img src=""stim_listA/fight8.gif""style=""height:400px;""></stim_listA>",are fighting each other,
null,"<div style=""font-size:60px;"">+</div>",,html-keyboard-response,34,250763,0.0-13.0-0.1,70820,List1A,white,man,,,,null,,,,
null,"<img src=""stim_listA/play1.gif""style=""height:400px;""></stim_listA>",,html-keyboard-response,35,252766,0.0-13.0-1.1,70820,List1A,white,man,,,,null,,,,
null,is playing with,,html-keyboard-response,36,254769,0.0-13.0-2.1,70820,List1A,white,man,,,,null,,,,
13603,,,survey-text,37,268373,0.0-13.0-3.1,70820,List1A,white,man,,,,,"{""Q0"":""Kate is playing with Mike""}","<img src=""stim_listA/play1.gif""style=""height:400px;""></stim_listA>",is playing with,
null,"<div style=""font-size:60px;"">+</div>",,html-keyboard-response,38,268876,0.0-13.0-0.2,70820,List1A,white,man,,,,null,,,,
null,"<img src=""stim_listA/play7.gif""style=""height:400px;""></stim_listA>",,html-keyboard-response,39,270878,0.0-13.0-1.2,70820,List1A,white,man,,,,null,,,,
null,is playing with,,html-keyboard-response,40,272880,0.0-13.0-2.2,70820,List1A,white,man,,,,null,,,,
9441,,,survey-text,41,282323,0.0-13.0-3.2,70820,List1A,white,man,,,,,"{""Q0"":""Kate is playing with Jane""}","<img src=""stim_listA/play7.gif""style=""height:400px;""></stim_listA>",is playing with,
null,"<div style=""font-size:60px;"">+</div>",,html-keyboard-response,42,282825,0.0-13.0-0.3,70820,List1A,white,man,,,,null,,,,
null,"<img src=""stim_listA/play8.gif""style=""height:400px;""></stim_listA>",,html-keyboard-response,43,284827,0.0-13.0-1.3,70820,List1A,white,man,,,,null,,,,
null,are playing with each other,,html-keyboard-response,44,286830,0.0-13.0-2.3,70820,List1A,white,man,,,,null,,,,
11748,,,survey-text,45,298579,0.0-13.0-3.3,70820,List1A,white,man,,,,,"{""Q0"":""Beth and Ruth are playing with each other""}","<img src=""stim_listA/play8.gif""style=""height:400px;""></stim_listA>",are playing with each other,
null,"<div style=""font-size:60px;"">+</div>",,html-keyboard-response,46,299080,0.0-13.0-0.4,70820,List1A,white,man,,,,null,,,,
null,"<img src=""stim_listA/flirt7.gif""style=""height:400px;""></stim_listA>",,html-keyboard-response,47,301084,0.0-13.0-1.4,70820,List1A,white,man,,,,null,,,,
null,is flirting with,,html-keyboard-response,48,303086,0.0-13.0-2.4,70820,List1A,white,man,,,,null,,,,
9025,,,survey-text,49,312112,0.0-13.0-3.4,70820,List1A,white,man,,,,,"{""Q0"":""Beth is flirting with Jane""}","<img src=""stim_listA/flirt7.gif""style=""height:400px;""></stim_listA>",is flirting with,
null,"<div style=""font-size:60px;"">+</div>",,html-keyboard-response,50,312615,0.0-13.0-0.5,70820,List1A,white,man,,,,null,,,,
null,"<img src=""stim_listA/flirt5.gif""style=""height:400px;""></stim_listA>",,html-keyboard-response,51,314617,0.0-13.0-1.5,70820,List1A,white,man,,,,null,,,,
null,is flirting with,,html-keyboard-response,52,316620,0.0-13.0-2.5,70820,List1A,white,man,,,,null,,,,
13215,,,survey-text,53,329836,0.0-13.0-3.5,70820,List1A,white,man,,,,,"{""Q0"":""Fred is flirting with Dave""}","<img src=""stim_listA/flirt5.gif""style=""height:400px;""></stim_listA>",is flirting with,
null,"<div style=""font-size:60px;"">+</div>",,html-keyboard-response,54,330338,0.0-13.0-0.6,70820,List1A,white,man,,,,null,,,,
null,"<img src=""stim_listA/fight2.gif""style=""height:400px;""></stim_listA>",,html-keyboard-response,55,332341,0.0-13.0-1.6,70820,List1A,white,man,,,,null,,,,
null,are fighting each other,,html-keyboard-response,56,334343,0.0-13.0-2.6,70820,List1A,white,man,,,,null,,,,
13939,,,survey-text,57,348283,0.0-13.0-3.6,70820,List1A,white,man,,,,,"{""Q0"":""Beth and Fred are fighting with each other""}","<img src=""stim_listA/fight2.gif""style=""height:400px;""></stim_listA>",are fighting each other,
null,"<div style=""font-size:60px;"">+</div>",,html-keyboard-response,58,348785,0.0-13.0-0.7,70820,List1A,white,man,,,,null,,,,
null,"<img src=""stim_listA/play4.gif""style=""height:400px;""></stim_listA>",,html-keyboard-response,59,350788,0.0-13.0-1.7,70820,List1A,white,man,,,,null,,,,
null,are playing with each other,,html-keyboard-response,60,352790,0.0-13.0-2.7,70820,List1A,white,man,,,,null,,,,
12736,,,survey-text,61,365527,0.0-13.0-3.7,70820,List1A,white,man,,,,,"{""Q0"":""Luke and Ruth are playing with each other""}","<img src=""stim_listA/play4.gif""style=""height:400px;""></stim_listA>",are playing with each other,
null,"<div style=""font-size:60px;"">+</div>",,html-keyboard-response,62,366030,0.0-13.0-0.8,70820,List1A,white,man,,,,null,,,,
null,"<img src=""stim_listA/marry6.gif""style=""height:400px;""></stim_listA>",,html-keyboard-response,63,368032,0.0-13.0-1.8,70820,List1A,white,man,,,,null,,,,
null,are marrying each other,,html-keyboard-response,64,370034,0.0-13.0-2.8,70820,List1A,white,man,,,,null,,,,
11237,,,survey-text,65,381273,0.0-13.0-3.8,70820,List1A,white,man,,,,,"{""Q0"":""Fred and Dave are marrying each other""}","<img src=""stim_listA/marry6.gif""style=""height:400px;""></stim_listA>",are marrying each other,
null,"<div style=""font-size:60px;"">+</div>",,html-keyboard-response,66,381775,0.0-13.0-0.9,70820,List1A,white,man,,,,null,,,,
null,"<img src=""stim_listA/argue7.gif""style=""height:400px;""></stim_listA>",,html-keyboard-response,67,383778,0.0-13.0-1.9,70820,List1A,white,man,,,,null,,,,
null,is arguing with,,html-keyboard-response,68,385780,0.0-13.0-2.9,70820,List1A,white,man,,,,null,,,,
11299,,,survey-text,69,397080,0.0-13.0-3.9,70820,List1A,white,man,,,,,"{""Q0"":""Jane is arguing with Kate""}","<img src=""stim_listA/argue7.gif""style=""height:400px;""></stim_listA>",is arguing with,
null,"<div style=""font-size:60px;"">+</div>",,html-keyboard-response,70,397582,0.0-13.0-0.10,70820,List1A,white,man,,,,null,,,,
null,"<img src=""stim_listA/argue1.gif""style=""height:400px;""></stim_listA>",,html-keyboard-response,71,399584,0.0-13.0-1.10,70820,List1A,white,man,,,,null,,,,
null,is arguing with,,html-keyboard-response,72,401586,0.0-13.0-2.10,70820,List1A,white,man,,,,null,,,,
11366,,,survey-text,73,412954,0.0-13.0-3.10,70820,List1A,white,man,,,,,"{""Q0"":""Mike is arguing with Beth""}","<img src=""stim_listA/argue1.gif""style=""height:400px;""></stim_listA>",is arguing with,
null,"<div style=""font-size:60px;"">+</div>",,html-keyboard-response,74,413456,0.0-13.0-0.11,70820,List1A,white,man,,,,null,,,,
null,"<img src=""stim_listA/kiss5.gif""style=""height:400px;""></stim_listA>",,html-keyboard-response,75,415458,0.0-13.0-1.11,70820,List1A,white,man,,,,null,,,,
null,is kissing,,html-keyboard-response,76,417461,0.0-13.0-2.11,70820,List1A,white,man,,,,null,,,,
10284,,,survey-text,77,427747,0.0-13.0-3.11,70820,List1A,white,man,,,,,"{""Q0"":""Luke is kissing Fred""}","<img src=""stim_listA/kiss5.gif""style=""height:400px;""></stim_listA>",is kissing,
null,"<div style=""font-size:60px;"">+</div>",,html-keyboard-response,78,428249,0.0-13.0-0.12,70820,List1A,white,man,,,,null,,,,
null,"<img src=""stim_listA/touch4.gif""style=""height:400px;""></stim_listA>",,html-keyboard-response,79,430252,0.0-13.0-1.12,70820,List1A,white,man,,,,null,,,,
null,are touching each other,,html-keyboard-response,80,432253,0.0-13.0-2.12,70820,List1A,white,man,,,,null,,,,
13497,,,survey-text,81,445752,0.0-13.0-3.12,70820,List1A,white,man,,,,,"{""Q0"":""Luke and Ruth are touching each other""}","<img src=""stim_listA/touch4.gif""style=""height:400px;""></stim_listA>",are touching each other,
null,"<div style=""font-size:60px;"">+</div>",,html-keyboard-response,82,446254,0.0-13.0-0.13,70820,List1A,white,man,,,,null,,,,
null,"<img src=""stim_listA/flirt3.gif""style=""height:400px;""></stim_listA>",,html-keyboard-response,83,448256,0.0-13.0-1.13,70820,List1A,white,man,,,,null,,,,
null,is flirting with,,html-keyboard-response,84,450258,0.0-13.0-2.13,70820,List1A,white,man,,,,null,,,,
10218,,,survey-text,85,460477,0.0-13.0-3.13,70820,List1A,white,man,,,,,"{""Q0"":""Jane is flirting with Luke""}","<img src=""stim_listA/flirt3.gif""style=""height:400px;""></stim_listA>",is flirting with,
null,"<div style=""font-size:60px;"">+</div>",,html-keyboard-response,86,460978,0.0-13.0-0.14,70820,List1A,white,man,,,,null,,,,
null,"<img src=""stim_listA/touch6.gif""style=""height:400px;""></stim_listA>",,html-keyboard-response,87,462981,0.0-13.0-1.14,70820,List1A,white,man,,,,null,,,,
null,are touching each other,,html-keyboard-response,88,464983,0.0-13.0-2.14,70820,List1A,white,man,,,,null,,,,
13421,,,survey-text,89,478405,0.0-13.0-3.14,70820,List1A,white,man,,,,,"{""Q0"":""Fred and Luke are touching each other""}","<img src=""stim_listA/touch6.gif""style=""height:400px;""></stim_listA>",are touching each other,
null,"<div style=""font-size:60px;"">+</div>",,html-keyboard-response,90,478907,0.0-13.0-0.15,70820,List1A,white,man,,,,null,,,,
null,"<img src=""stim_listA/fight3.gif""style=""height:400px;""></stim_listA>",,html-keyboard-response,91,480909,0.0-13.0-1.15,70820,List1A,white,man,,,,null,,,,
null,is fighting,,html-keyboard-response,92,482911,0.0-13.0-2.15,70820,List1A,white,man,,,,null,,,,
14950,,,survey-text,93,497861,0.0-13.0-3.15,70820,List1A,white,man,,,,,"{""Q0"":""Jane is fighting Dave""}","<img src=""stim_listA/fight3.gif""style=""height:400px;""></stim_listA>",is fighting,
null,"<div style=""font-size:60px;"">+</div>",,html-keyboard-response,94,498363,0.0-13.0-0.16,70820,List1A,white,man,,,,null,,,,
null,"<img src=""stim_listA/dance7.gif""style=""height:400px;""></stim_listA>",,html-keyboard-response,95,500366,0.0-13.0-1.16,70820,List1A,white,man,,,,null,,,,
null,is dancing with,,html-keyboard-response,96,502368,0.0-13.0-2.16,70820,List1A,white,man,,,,null,,,,
10733,,,survey-text,97,513103,0.0-13.0-3.16,70820,List1A,white,man,,,,,"{""Q0"":""Beth is dancing with Jane""}","<img src=""stim_listA/dance7.gif""style=""height:400px;""></stim_listA>",is dancing with,
null,"<div style=""font-size:60px;"">+</div>",,html-keyboard-response,98,513604,0.0-13.0-0.17,70820,List1A,white,man,,,,null,,,,
null,"<img src=""stim_listA/play3.gif""style=""height:400px;""></stim_listA>",,html-keyboard-response,99,515606,0.0-13.0-1.17,70820,List1A,white,man,,,,null,,,,
null,is playing with,,html-keyboard-response,100,517608,0.0-13.0-2.17,70820,List1A,white,man,,,,null,,,,
8823,,,survey-text,101,526433,0.0-13.0-3.17,70820,List1A,white,man,,,,,"{""Q0"":""Jane is playing with Dave""}","<img src=""stim_listA/play3.gif""style=""height:400px;""></stim_listA>",is playing with,
null,"<div style=""font-size:60px;"">+</div>",,html-keyboard-response,102,526935,0.0-13.0-0.18,70820,List1A,white,man,,,,null,,,,
null,"<img src=""stim_listA/talk8.gif""style=""height:400px;""></stim_listA>",,html-keyboard-response,103,528937,0.0-13.0-1.18,70820,List1A,white,man,,,,null,,,,
null,are talking to each other,,html-keyboard-response,104,530939,0.0-13.0-2.18,70820,List1A,white,man,,,,null,,,,
13362,,,survey-text,105,544302,0.0-13.0-3.18,70820,List1A,white,man,,,,,"{""Q0"":""Kate and Ruth are talking to each other""}","<img src=""stim_listA/talk8.gif""style=""height:400px;""></stim_listA>",are talking to each other,
null,"<div style=""font-size:60px;"">+</div>",,html-keyboard-response,106,544803,0.0-13.0-0.19,70820,List1A,white,man,,,,null,,,,
null,"<img src=""stim_listA/touch8.gif""style=""height:400px;""></stim_listA>",,html-keyboard-response,107,546805,0.0-13.0-1.19,70820,List1A,white,man,,,,null,,,,
null,are touching each other,,html-keyboard-response,108,548806,0.0-13.0-2.19,70820,List1A,white,man,,,,null,,,,
23896,,,survey-text,109,572703,0.0-13.0-3.19,70820,List1A,white,man,,,,,"{""Q0"":""Beth and Ruth are touching each other""}","<img src=""stim_listA/touch8.gif""style=""height:400px;""></stim_listA>",are touching each other,
15101,"<img src='img/portrait_matrix_list1.jpg' style='width:900px;height:500px;''></img><p>If you have memorised all the portraits and names and are ready to start, press Continue.</p><p><strong>Please note: Your memory of these faces will be tested 4 times during this experiment.</strong></p>",0,html-button-response,110,587805,0.0-14.0-0.0,70820,List1A,white,man,,,,,,,,
3013,"<img src=""portrait/WM2.jpg""style=""height:400px;""></img>",7,html-button-response,111,591821,0.0-14.0-1.0,70820,List1A,white,man,,TRUE,7,,,,,
null,CORRECT,,html-keyboard-response,112,593324,0.0-14.0-2.0-0.0,70820,List1A,white,man,,,,null,,,,
2676,"<img src=""portrait/WW2.jpg""style=""height:400px;""></img>",3,html-button-response,113,596001,0.0-14.0-4.0,70820,List1A,white,man,,TRUE,3,,,,,
null,CORRECT,,html-keyboard-response,114,597504,0.0-14.0-5.0-0.0,70820,List1A,white,man,,,,null,,,,
2359,"<img src=""portrait/WW1.jpg""style=""height:400px;""></img>",1,html-button-response,115,599864,0.0-14.0-7.0,70820,List1A,white,man,,TRUE,1,,,,,
null,CORRECT,,html-keyboard-response,116,601368,0.0-14.0-8.0-0.0,70820,List1A,white,man,,,,null,,,,
2591,"<img src=""portrait/BW2.jpg""style=""height:400px;""></img>",2,html-button-response,117,603960,0.0-14.0-10.0,70820,List1A,white,man,,TRUE,2,,,,,
null,CORRECT,,html-keyboard-response,118,605463,0.0-14.0-11.0-0.0,70820,List1A,white,man,,,,null,,,,
2941,"<img src=""portrait/BM2.jpg""style=""height:400px;""></img>",5,html-button-response,119,608406,0.0-14.0-13.0,70820,List1A,white,man,,TRUE,5,,,,,
null,CORRECT,,html-keyboard-response,120,609908,0.0-14.0-14.0-0.0,70820,List1A,white,man,,,,null,,,,
2933,"<img src=""portrait/BW1.jpg""style=""height:400px;""></img>",0,html-button-response,121,612842,0.0-14.0-16.0,70820,List1A,white,man,,TRUE,0,,,,,
null,CORRECT,,html-keyboard-response,122,614345,0.0-14.0-17.0-0.0,70820,List1A,white,man,,,,null,,,,
2586,"<img src=""portrait/WM1.jpg""style=""height:400px;""></img>",6,html-button-response,123,616933,0.0-14.0-19.0,70820,List1A,white,man,,TRUE,6,,,,,
null,CORRECT,,html-keyboard-response,124,618436,0.0-14.0-20.0-0.0,70820,List1A,white,man,,,,null,,,,
2947,"<img src=""portrait/BM1.jpg""style=""height:400px;""></img>",4,html-button-response,125,621385,0.0-14.0-22.0,70820,List1A,white,man,,TRUE,4,,,,,
null,CORRECT,,html-keyboard-response,126,622887,0.0-14.0-23.0-0.0,70820,List1A,white,man,,,,null,,,,
2577,<p>You got 8 out of 8 right first time. Press Continue.</p>,0,html-button-response,127,625465,0.0-14.0-25.0,70820,List1A,white,man,,,,,,,,
null,"<div style=""font-size:60px;"">+</div>",,html-keyboard-response,128,626969,0.0-15.0-0.0,70820,List1A,white,man,,,,null,,,,
null,"<img src=""stim_listA/argue4.gif""style=""height:400px;""></stim_listA>",,html-keyboard-response,129,628972,0.0-15.0-1.0,70820,List1A,white,man,,,,null,,,,
null,are arguing with each other,,html-keyboard-response,130,630974,0.0-15.0-2.0,70820,List1A,white,man,,,,null,,,,
16442,,,survey-text,131,647417,0.0-15.0-3.0,70820,List1A,white,man,,,,,"{""Q0"":""Jane and Luke are arguing wth each other""}","<img src=""stim_listA/argue4.gif""style=""height:400px;""></stim_listA>",are arguing with each other,
null,"<div style=""font-size:60px;"">+</div>",,html-keyboard-response,132,647920,0.0-15.0-0.1,70820,List1A,white,man,,,,null,,,,
null,"<img src=""stim_listA/shout5.gif""style=""height:400px;""></stim_listA>",,html-keyboard-response,133,649922,0.0-15.0-1.1,70820,List1A,white,man,,,,null,,,,
null,is shouting at,,html-keyboard-response,134,651924,0.0-15.0-2.1,70820,List1A,white,man,,,,null,,,,
9801,,,survey-text,135,661726,0.0-15.0-3.1,70820,List1A,white,man,,,,,"{""Q0"":""Fred is shouting at Luke""}","<img src=""stim_listA/shout5.gif""style=""height:400px;""></stim_listA>",is shouting at,
null,"<div style=""font-size:60px;"">+</div>",,html-keyboard-response,136,662227,0.0-15.0-0.2,70820,List1A,white,man,,,,null,,,,
null,"<img src=""stim_listA/dance6.gif""style=""height:400px;""></stim_listA>",,html-keyboard-response,137,664229,0.0-15.0-1.2,70820,List1A,white,man,,,,null,,,,
null,are dancing with each other,,html-keyboard-response,138,666231,0.0-15.0-2.2,70820,List1A,white,man,,,,null,,,,
13233,,,survey-text,139,679465,0.0-15.0-3.2,70820,List1A,white,man,,,,,"{""Q0"":""Mike and Luke are dancing with each other""}","<img src=""stim_listA/dance6.gif""style=""height:400px;""></stim_listA>",are dancing with each other,
null,"<div style=""font-size:60px;"">+</div>",,html-keyboard-response,140,679967,0.0-15.0-0.3,70820,List1A,white,man,,,,null,,,,
null,"<img src=""stim_listA/play6.gif""style=""height:400px;""></stim_listA>",,html-keyboard-response,141,681970,0.0-15.0-1.3,70820,List1A,white,man,,,,null,,,,
null,are playing with each other,,html-keyboard-response,142,683973,0.0-15.0-2.3,70820,List1A,white,man,,,,null,,,,
11946,,,survey-text,143,695919,0.0-15.0-3.3,70820,List1A,white,man,,,,,"{""Q0"":""Fred and Luke are playing with each other""}","<img src=""stim_listA/play6.gif""style=""height:400px;""></stim_listA>",are playing with each other,
null,"<div style=""font-size:60px;"">+</div>",,html-keyboard-response,144,696420,0.0-15.0-0.4,70820,List1A,white,man,,,,null,,,,
null,"<img src=""stim_listA/shout1.gif""style=""height:400px;""></stim_listA>",,html-keyboard-response,145,698423,0.0-15.0-1.4,70820,List1A,white,man,,,,null,,,,
null,is shouting at,,html-keyboard-response,146,700424,0.0-15.0-2.4,70820,List1A,white,man,,,,null,,,,
9070,,,survey-text,147,709494,0.0-15.0-3.4,70820,List1A,white,man,,,,,"{""Q0"":""Fred is shouting at Beth""}","<img src=""stim_listA/shout1.gif""style=""height:400px;""></stim_listA>",is shouting at,
null,"<div style=""font-size:60px;"">+</div>",,html-keyboard-response,148,709996,0.0-15.0-0.5,70820,List1A,white,man,,,,null,,,,
null,"<img src=""stim_listA/fight6.gif""style=""height:400px;""></stim_listA>",,html-keyboard-response,149,711999,0.0-15.0-1.5,70820,List1A,white,man,,,,null,,,,
null,are fighting each other,,html-keyboard-response,150,714001,0.0-15.0-2.5,70820,List1A,white,man,,,,null,,,,
9918,,,survey-text,151,723920,0.0-15.0-3.5,70820,List1A,white,man,,,,,"{""Q0"":""Fred and Luke are fighting each other""}","<img src=""stim_listA/fight6.gif""style=""height:400px;""></stim_listA>",are fighting each other,
null,"<div style=""font-size:60px;"">+</div>",,html-keyboard-response,152,724422,0.0-15.0-0.6,70820,List1A,white,man,,,,null,,,,
null,"<img src=""stim_listA/marry1.gif""style=""height:400px;""></stim_listA>",,html-keyboard-response,153,726425,0.0-15.0-1.6,70820,List1A,white,man,,,,null,,,,
null,is marrying,,html-keyboard-response,154,728427,0.0-15.0-2.6,70820,List1A,white,man,,,,null,,,,
8983,,,survey-text,155,737411,0.0-15.0-3.6,70820,List1A,white,man,,,,,"{""Q0"":""Beth is marrying Mike""}","<img src=""stim_listA/marry1.gif""style=""height:400px;""></stim_listA>",is marrying,
null,"<div style=""font-size:60px;"">+</div>",,html-keyboard-response,156,737913,0.0-15.0-0.7,70820,List1A,white,man,,,,null,,,,
null,"<img src=""stim_listA/marry8.gif""style=""height:400px;""></stim_listA>",,html-keyboard-response,157,739916,0.0-15.0-1.7,70820,List1A,white,man,,,,null,,,,
null,are marrying each other,,html-keyboard-response,158,741918,0.0-15.0-2.7,70820,List1A,white,man,,,,null,,,,
10069,,,survey-text,159,751988,0.0-15.0-3.7,70820,List1A,white,man,,,,,"{""Q0"":""Beth and Jane are marrying each other""}","<img src=""stim_listA/marry8.gif""style=""height:400px;""></stim_listA>",are marrying each other,
null,"<div style=""font-size:60px;"">+</div>",,html-keyboard-response,160,752490,0.0-15.0-0.8,70820,List1A,white,man,,,,null,,,,
null,"<img src=""stim_listA/kiss6.gif""style=""height:400px;""></stim_listA>",,html-keyboard-response,161,754493,0.0-15.0-1.8,70820,List1A,white,man,,,,null,,,,
null,are kissing each other,,html-keyboard-response,162,756495,0.0-15.0-2.8,70820,List1A,white,man,,,,null,,,,
10744,,,survey-text,163,767241,0.0-15.0-3.8,70820,List1A,white,man,,,,,"{""Q0"":""Mike and Dave are kissing each other""}","<img src=""stim_listA/kiss6.gif""style=""height:400px;""></stim_listA>",are kissing each other,
null,"<div style=""font-size:60px;"">+</div>",,html-keyboard-response,164,767743,0.0-15.0-0.9,70820,List1A,white,man,,,,null,,,,
null,"<img src=""stim_listA/fight7.gif""style=""height:400px;""></stim_listA>",,html-keyboard-response,165,769745,0.0-15.0-1.9,70820,List1A,white,man,,,,null,,,,
null,is fighting,,html-keyboard-response,166,771746,0.0-15.0-2.9,70820,List1A,white,man,,,,null,,,,
9429,,,survey-text,167,781177,0.0-15.0-3.9,70820,List1A,white,man,,,,,"{""Q0"":""Kate is fighting Jane""}","<img src=""stim_listA/fight7.gif""style=""height:400px;""></stim_listA>",is fighting,
null,"<div style=""font-size:60px;"">+</div>",,html-keyboard-response,168,781678,0.0-15.0-0.10,70820,List1A,white,man,,,,null,,,,
null,"<img src=""stim_listA/touch5.gif""style=""height:400px;""></stim_listA>",,html-keyboard-response,169,783681,0.0-15.0-1.10,70820,List1A,white,man,,,,null,,,,
null,is touching,,html-keyboard-response,170,785684,0.0-15.0-2.10,70820,List1A,white,man,,,,null,,,,
8430,,,survey-text,171,794115,0.0-15.0-3.10,70820,List1A,white,man,,,,,"{""Q0"":""Dave is touching Mike""}","<img src=""stim_listA/touch5.gif""style=""height:400px;""></stim_listA>",is touching,
null,"<div style=""font-size:60px;"">+</div>",,html-keyboard-response,172,794617,0.0-15.0-0.11,70820,List1A,white,man,,,,null,,,,
null,"<img src=""stim_listA/marry3.gif""style=""height:400px;""></stim_listA>",,html-keyboard-response,173,796620,0.0-15.0-1.11,70820,List1A,white,man,,,,null,,,,
null,is marrying,,html-keyboard-response,174,798622,0.0-15.0-2.11,70820,List1A,white,man,,,,null,,,,
7104,,,survey-text,175,805728,0.0-15.0-3.11,70820,List1A,white,man,,,,,"{""Q0"":""Dave is marrying Ruth""}","<img src=""stim_listA/marry3.gif""style=""height:400px;""></stim_listA>",is marrying,
null,"<div style=""font-size:60px;"">+</div>",,html-keyboard-response,176,806230,0.0-15.0-0.12,70820,List1A,white,man,,,,null,,,,
null,"<img src=""stim_listA/dance5.gif""style=""height:400px;""></stim_listA>",,html-keyboard-response,177,808232,0.0-15.0-1.12,70820,List1A,white,man,,,,null,,,,
null,is dancing with,,html-keyboard-response,178,810235,0.0-15.0-2.12,70820,List1A,white,man,,,,null,,,,
9733,,,survey-text,179,819968,0.0-15.0-3.12,70820,List1A,white,man,,,,,"{""Q0"":""Fred is dancing with Dave""}","<img src=""stim_listA/dance5.gif""style=""height:400px;""></stim_listA>",is dancing with,
null,"<div style=""font-size:60px;"">+</div>",,html-keyboard-response,180,820470,0.0-15.0-0.13,70820,List1A,white,man,,,,null,,,,
null,"<img src=""stim_listA/talk3.gif""style=""height:400px;""></stim_listA>",,html-keyboard-response,181,822473,0.0-15.0-1.13,70820,List1A,white,man,,,,null,,,,
null,is talking to,,html-keyboard-response,182,824475,0.0-15.0-2.13,70820,List1A,white,man,,,,null,,,,
10802,,,survey-text,183,835279,0.0-15.0-3.13,70820,List1A,white,man,,,,,"{""Q0"":""Jane is talking to Luke""}","<img src=""stim_listA/talk3.gif""style=""height:400px;""></stim_listA>",is talking to,
null,"<div style=""font-size:60px;"">+</div>",,html-keyboard-response,184,835780,0.0-15.0-0.14,70820,List1A,white,man,,,,null,,,,
null,"<img src=""stim_listA/shout3.gif""style=""height:400px;""></stim_listA>",,html-keyboard-response,185,837783,0.0-15.0-1.14,70820,List1A,white,man,,,,null,,,,
null,is shouting at,,html-keyboard-response,186,839785,0.0-15.0-2.14,70820,List1A,white,man,,,,null,,,,
9059,,,survey-text,187,848845,0.0-15.0-3.14,70820,List1A,white,man,,,,,"{""Q0"":""Jane is shouting at Luke""}","<img src=""stim_listA/shout3.gif""style=""height:400px;""></stim_listA>",is shouting at,
null,"<div style=""font-size:60px;"">+</div>",,html-keyboard-response,188,849346,0.0-15.0-0.15,70820,List1A,white,man,,,,null,,,,
null,"<img src=""stim_listA/marry7.gif""style=""height:400px;""></stim_listA>",,html-keyboard-response,189,851348,0.0-15.0-1.15,70820,List1A,white,man,,,,null,,,,
null,is marrying,,html-keyboard-response,190,853350,0.0-15.0-2.15,70820,List1A,white,man,,,,null,,,,
10024,,,survey-text,191,863376,0.0-15.0-3.15,70820,List1A,white,man,,,,,"{""Q0"":""Kate is marrying Ruth""}","<img src=""stim_listA/marry7.gif""style=""height:400px;""></stim_listA>",is marrying,
null,"<div style=""font-size:60px;"">+</div>",,html-keyboard-response,192,863878,0.0-15.0-0.16,70820,List1A,white,man,,,,null,,,,
null,"<img src=""stim_listA/dance2.gif""style=""height:400px;""></stim_listA>",,html-keyboard-response,193,865880,0.0-15.0-1.16,70820,List1A,white,man,,,,null,,,,
null,are dancing with each other,,html-keyboard-response,194,867883,0.0-15.0-2.16,70820,List1A,white,man,,,,null,,,,
12433,,,survey-text,195,880317,0.0-15.0-3.16,70820,List1A,white,man,,,,,"{""Q0"":""Mike and Beth are dancing with each other""}","<img src=""stim_listA/dance2.gif""style=""height:400px;""></stim_listA>",are dancing with each other,
null,"<div style=""font-size:60px;"">+</div>",,html-keyboard-response,196,880820,0.0-15.0-0.17,70820,List1A,white,man,,,,null,,,,
null,"<img src=""stim_listA/touch1.gif""style=""height:400px;""></stim_listA>",,html-keyboard-response,197,882822,0.0-15.0-1.17,70820,List1A,white,man,,,,null,,,,
null,is touching,,html-keyboard-response,198,884824,0.0-15.0-2.17,70820,List1A,white,man,,,,null,,,,
11189,,,survey-text,199,896014,0.0-15.0-3.17,70820,List1A,white,man,,,,,"{""Q0"":""Kate is touching Mike""}","<img src=""stim_listA/touch1.gif""style=""height:400px;""></stim_listA>",is touching,
null,"<div style=""font-size:60px;"">+</div>",,html-keyboard-response,200,896516,0.0-15.0-0.18,70820,List1A,white,man,,,,null,,,,
null,"<img src=""stim_listA/dance1.gif""style=""height:400px;""></stim_listA>",,html-keyboard-response,201,898518,0.0-15.0-1.18,70820,List1A,white,man,,,,null,,,,
null,is dancing with,,html-keyboard-response,202,900519,0.0-15.0-2.18,70820,List1A,white,man,,,,null,,,,
8497,,,survey-text,203,909017,0.0-15.0-3.18,70820,List1A,white,man,,,,,"{""Q0"":""Kate is dancing with Fred""}","<img src=""stim_listA/dance1.gif""style=""height:400px;""></stim_listA>",is dancing with,
null,"<div style=""font-size:60px;"">+</div>",,html-keyboard-response,204,909520,0.0-15.0-0.19,70820,List1A,white,man,,,,null,,,,
null,"<img src=""stim_listA/dance3.gif""style=""height:400px;""></stim_listA>",,html-keyboard-response,205,911522,0.0-15.0-1.19,70820,List1A,white,man,,,,null,,,,
null,is dancing with,,html-keyboard-response,206,913524,0.0-15.0-2.19,70820,List1A,white,man,,,,null,,,,
8300,,,survey-text,207,921825,0.0-15.0-3.19,70820,List1A,white,man,,,,,"{""Q0"":""Luke is dancing with Jane""}","<img src=""stim_listA/dance3.gif""style=""height:400px;""></stim_listA>",is dancing with,
20154,"<img src='img/portrait_matrix_list1.jpg' style='width:900px;height:500px;''></img><p>If you have memorised all the portraits and names and are ready to start, press Continue.</p><p><strong>Please note: Your memory of these faces will be tested 4 times during this experiment.</strong></p>",0,html-button-response,208,941980,0.0-16.0-0.0,70820,List1A,white,man,,,,,,,,
2829,"<img src=""portrait/BW2.jpg""style=""height:400px;""></img>",2,html-button-response,209,945811,0.0-16.0-1.0,70820,List1A,white,man,,TRUE,2,,,,,
null,CORRECT,,html-keyboard-response,210,947315,0.0-16.0-2.0-0.0,70820,List1A,white,man,,,,null,,,,
2367,"<img src=""portrait/BM1.jpg""style=""height:400px;""></img>",4,html-button-response,211,949684,0.0-16.0-4.0,70820,List1A,white,man,,TRUE,4,,,,,
null,CORRECT,,html-keyboard-response,212,951188,0.0-16.0-5.0-0.0,70820,List1A,white,man,,,,null,,,,
2597,"<img src=""portrait/BM2.jpg""style=""height:400px;""></img>",5,html-button-response,213,953787,0.0-16.0-7.0,70820,List1A,white,man,,TRUE,5,,,,,
null,CORRECT,,html-keyboard-response,214,955290,0.0-16.0-8.0-0.0,70820,List1A,white,man,,,,null,,,,
5488,"<img src=""portrait/BW1.jpg""style=""height:400px;""></img>",0,html-button-response,215,960779,0.0-16.0-10.0,70820,List1A,white,man,,TRUE,0,,,,,
null,CORRECT,,html-keyboard-response,216,962283,0.0-16.0-11.0-0.0,70820,List1A,white,man,,,,null,,,,
2442,"<img src=""portrait/WM1.jpg""style=""height:400px;""></img>",6,html-button-response,217,964727,0.0-16.0-13.0,70820,List1A,white,man,,TRUE,6,,,,,
null,CORRECT,,html-keyboard-response,218,966230,0.0-16.0-14.0-0.0,70820,List1A,white,man,,,,null,,,,
2203,"<img src=""portrait/WM2.jpg""style=""height:400px;""></img>",7,html-button-response,219,968434,0.0-16.0-16.0,70820,List1A,white,man,,TRUE,7,,,,,
null,CORRECT,,html-keyboard-response,220,969938,0.0-16.0-17.0-0.0,70820,List1A,white,man,,,,null,,,,
2185,"<img src=""portrait/WW2.jpg""style=""height:400px;""></img>",3,html-button-response,221,972124,0.0-16.0-19.0,70820,List1A,white,man,,TRUE,3,,,,,
null,CORRECT,,html-keyboard-response,222,973628,0.0-16.0-20.0-0.0,70820,List1A,white,man,,,,null,,,,
2190,"<img src=""portrait/WW1.jpg""style=""height:400px;""></img>",1,html-button-response,223,975819,0.0-16.0-22.0,70820,List1A,white,man,,TRUE,1,,,,,
null,CORRECT,,html-keyboard-response,224,977322,0.0-16.0-23.0-0.0,70820,List1A,white,man,,,,null,,,,
3159,<p>You got 8 out of 8 right first time. Press Continue.</p>,0,html-button-response,225,980482,0.0-16.0-25.0,70820,List1A,white,man,,,,,,,,
null,"<div style=""font-size:60px;"">+</div>",,html-keyboard-response,226,981994,0.0-17.0-0.0,70820,List1A,white,man,,,,null,,,,
null,"<img src=""stim_listA/fight4.gif""style=""height:400px;""></stim_listA>",,html-keyboard-response,227,983997,0.0-17.0-1.0,70820,List1A,white,man,,,,null,,,,
null,are fighting each other,,html-keyboard-response,228,985999,0.0-17.0-2.0,70820,List1A,white,man,,,,null,,,,
22579,,,survey-text,229,1008580,0.0-17.0-3.0,70820,List1A,white,man,,,,,"{""Q0"":""Luke and Ruth are fighting each other""}","<img src=""stim_listA/fight4.gif""style=""height:400px;""></stim_listA>",are fighting each other,
null,"<div style=""font-size:60px;"">+</div>",,html-keyboard-response,230,1009082,0.0-17.0-0.1,70820,List1A,white,man,,,,null,,,,
null,"<img src=""stim_listA/argue8.gif""style=""height:400px;""></stim_listA>",,html-keyboard-response,231,1011084,0.0-17.0-1.1,70820,List1A,white,man,,,,null,,,,
null,are arguing with each other,,html-keyboard-response,232,1013086,0.0-17.0-2.1,70820,List1A,white,man,,,,null,,,,
12162,,,survey-text,233,1025249,0.0-17.0-3.1,70820,List1A,white,man,,,,,"{""Q0"":""Beth and Jane are arguing with each other""}","<img src=""stim_listA/argue8.gif""style=""height:400px;""></stim_listA>",are arguing with each other,
null,"<div style=""font-size:60px;"">+</div>",,html-keyboard-response,234,1025751,0.0-17.0-0.2,70820,List1A,white,man,,,,null,,,,
null,"<img src=""stim_listA/flirt2.gif""style=""height:400px;""></stim_listA>",,html-keyboard-response,235,1027753,0.0-17.0-1.2,70820,List1A,white,man,,,,null,,,,
null,are flirting with each other,,html-keyboard-response,236,1029755,0.0-17.0-2.2,70820,List1A,white,man,,,,null,,,,
15599,,,survey-text,237,1045356,0.0-17.0-3.2,70820,List1A,white,man,,,,,"{""Q0"":""Mike and Beth are flirting with each other""}","<img src=""stim_listA/flirt2.gif""style=""height:400px;""></stim_listA>",are flirting with each other,
null,"<div style=""font-size:60px;"">+</div>",,html-keyboard-response,238,1045858,0.0-17.0-0.3,70820,List1A,white,man,,,,null,,,,
null,"<img src=""stim_listA/talk6.gif""style=""height:400px;""></stim_listA>",,html-keyboard-response,239,1047860,0.0-17.0-1.3,70820,List1A,white,man,,,,null,,,,
null,are talking to each other,,html-keyboard-response,240,1049862,0.0-17.0-2.3,70820,List1A,white,man,,,,null,,,,
12644,,,survey-text,241,1062507,0.0-17.0-3.3,70820,List1A,white,man,,,,,"{""Q0"":""Mike and Luke are talking to each other""}","<img src=""stim_listA/talk6.gif""style=""height:400px;""></stim_listA>",are talking to each other,
null,"<div style=""font-size:60px;"">+</div>",,html-keyboard-response,242,1063009,0.0-17.0-0.4,70820,List1A,white,man,,,,null,,,,
null,"<img src=""stim_listA/shout7.gif""style=""height:400px;""></stim_listA>",,html-keyboard-response,243,1065012,0.0-17.0-1.4,70820,List1A,white,man,,,,null,,,,
null,is shouting at,,html-keyboard-response,244,1067014,0.0-17.0-2.4,70820,List1A,white,man,,,,null,,,,
10791,,,survey-text,245,1077807,0.0-17.0-3.4,70820,List1A,white,man,,,,,"{""Q0"":""Beth is shouting at Ruth""}","<img src=""stim_listA/shout7.gif""style=""height:400px;""></stim_listA>",is shouting at,
null,"<div style=""font-size:60px;"">+</div>",,html-keyboard-response,246,1078309,0.0-17.0-0.5,70820,List1A,white,man,,,,null,,,,
null,"<img src=""stim_listA/touch7.gif""style=""height:400px;""></stim_listA>",,html-keyboard-response,247,1080311,0.0-17.0-1.5,70820,List1A,white,man,,,,null,,,,
null,is touching,,html-keyboard-response,248,1082314,0.0-17.0-2.5,70820,List1A,white,man,,,,null,,,,
9516,,,survey-text,249,1091832,0.0-17.0-3.5,70820,List1A,white,man,,,,,"{""Q0"":""Jane is touching Kate""}","<img src=""stim_listA/touch7.gif""style=""height:400px;""></stim_listA>",is touching,
null,"<div style=""font-size:60px;"">+</div>",,html-keyboard-response,250,1092334,0.0-17.0-0.6,70820,List1A,white,man,,,,null,,,,
null,"<img src=""stim_listA/shout2.gif""style=""height:400px;""></stim_listA>",,html-keyboard-response,251,1094336,0.0-17.0-1.6,70820,List1A,white,man,,,,null,,,,
null,are shouting at each other,,html-keyboard-response,252,1096339,0.0-17.0-2.6,70820,List1A,white,man,,,,null,,,,
11607,,,survey-text,253,1107947,0.0-17.0-3.6,70820,List1A,white,man,,,,,"{""Q0"":""Mike and Kate are shouting at each other""}","<img src=""stim_listA/shout2.gif""style=""height:400px;""></stim_listA>",are shouting at each other,
null,"<div style=""font-size:60px;"">+</div>",,html-keyboard-response,254,1108449,0.0-17.0-0.7,70820,List1A,white,man,,,,null,,,,
null,"<img src=""stim_listA/argue5.gif""style=""height:400px;""></stim_listA>",,html-keyboard-response,255,1110451,0.0-17.0-1.7,70820,List1A,white,man,,,,null,,,,
null,is arguing with,,html-keyboard-response,256,1112454,0.0-17.0-2.7,70820,List1A,white,man,,,,null,,,,
9361,,,survey-text,257,1121816,0.0-17.0-3.7,70820,List1A,white,man,,,,,"{""Q0"":""Luke is arguing with Mike""}","<img src=""stim_listA/argue5.gif""style=""height:400px;""></stim_listA>",is arguing with,
null,"<div style=""font-size:60px;"">+</div>",,html-keyboard-response,258,1122318,0.0-17.0-0.8,70820,List1A,white,man,,,,null,,,,
null,"<img src=""stim_listA/touch3.gif""style=""height:400px;""></stim_listA>",,html-keyboard-response,259,1124321,0.0-17.0-1.8,70820,List1A,white,man,,,,null,,,,
null,is touching,,html-keyboard-response,260,1126322,0.0-17.0-2.8,70820,List1A,white,man,,,,null,,,,
8004,,,survey-text,261,1134327,0.0-17.0-3.8,70820,List1A,white,man,,,,,"{""Q0"":""Jane is touching Dave""}","<img src=""stim_listA/touch3.gif""style=""height:400px;""></stim_listA>",is touching,
null,"<div style=""font-size:60px;"">+</div>",,html-keyboard-response,262,1134829,0.0-17.0-0.9,70820,List1A,white,man,,,,null,,,,
null,"<img src=""stim_listA/kiss7.gif""style=""height:400px;""></stim_listA>",,html-keyboard-response,263,1136831,0.0-17.0-1.9,70820,List1A,white,man,,,,null,,,,
null,is kissing,,html-keyboard-response,264,1138834,0.0-17.0-2.9,70820,List1A,white,man,,,,null,,,,
7148,,,survey-text,265,1145984,0.0-17.0-3.9,70820,List1A,white,man,,,,,"{""Q0"":""Ruth is kissing Beth""}","<img src=""stim_listA/kiss7.gif""style=""height:400px;""></stim_listA>",is kissing,
null,"<div style=""font-size:60px;"">+</div>",,html-keyboard-response,266,1146486,0.0-17.0-0.10,70820,List1A,white,man,,,,null,,,,
null,"<img src=""stim_listA/argue2.gif""style=""height:400px;""></stim_listA>",,html-keyboard-response,267,1148488,0.0-17.0-1.10,70820,List1A,white,man,,,,null,,,,
null,are arguing with each other,,html-keyboard-response,268,1150490,0.0-17.0-2.10,70820,List1A,white,man,,,,null,,,,
14800,,,survey-text,269,1165292,0.0-17.0-3.10,70820,List1A,white,man,,,,,"{""Q0"":""Fred and Kate are arguing with each other""}","<img src=""stim_listA/argue2.gif""style=""height:400px;""></stim_listA>",are arguing with each other,
null,"<div style=""font-size:60px;"">+</div>",,html-keyboard-response,270,1165794,0.0-17.0-0.11,70820,List1A,white,man,,,,null,,,,
null,"<img src=""stim_listA/flirt4.gif""style=""height:400px;""></stim_listA>",,html-keyboard-response,271,1167797,0.0-17.0-1.11,70820,List1A,white,man,,,,null,,,,
null,are flirting with each other,,html-keyboard-response,272,1169799,0.0-17.0-2.11,70820,List1A,white,man,,,,null,,,,
10628,,,survey-text,273,1180429,0.0-17.0-3.11,70820,List1A,white,man,,,,,"{""Q0"":""Dave and Ruth are flirting with each other""}","<img src=""stim_listA/flirt4.gif""style=""height:400px;""></stim_listA>",are flirting with each other,
null,"<div style=""font-size:60px;"">+</div>",,html-keyboard-response,274,1180931,0.0-17.0-0.12,70820,List1A,white,man,,,,null,,,,
null,"<img src=""stim_listA/talk7.gif""style=""height:400px;""></stim_listA>",,html-keyboard-response,275,1182934,0.0-17.0-1.12,70820,List1A,white,man,,,,null,,,,
null,is talking to,,html-keyboard-response,276,1184936,0.0-17.0-2.12,70820,List1A,white,man,,,,null,,,,
8605,,,survey-text,277,1193542,0.0-17.0-3.12,70820,List1A,white,man,,,,,"{""Q0"":""Jane is talking to Beth""}","<img src=""stim_listA/talk7.gif""style=""height:400px;""></stim_listA>",is talking to,
null,"<div style=""font-size:60px;"">+</div>",,html-keyboard-response,278,1194044,0.0-17.0-0.13,70820,List1A,white,man,,,,null,,,,
null,"<img src=""stim_listA/shout4.gif""style=""height:400px;""></stim_listA>",,html-keyboard-response,279,1196047,0.0-17.0-1.13,70820,List1A,white,man,,,,null,,,,
null,are shouting at each other,,html-keyboard-response,280,1198049,0.0-17.0-2.13,70820,List1A,white,man,,,,null,,,,
11599,,,survey-text,281,1209649,0.0-17.0-3.13,70820,List1A,white,man,,,,,"{""Q0"":""Jane and Dave are shouting at each other""}","<img src=""stim_listA/shout4.gif""style=""height:400px;""></stim_listA>",are shouting at each other,
null,"<div style=""font-size:60px;"">+</div>",,html-keyboard-response,282,1210151,0.0-17.0-0.14,70820,List1A,white,man,,,,null,,,,
null,"<img src=""stim_listA/kiss8.gif""style=""height:400px;""></stim_listA>",,html-keyboard-response,283,1212154,0.0-17.0-1.14,70820,List1A,white,man,,,,null,,,,
null,are kissing each other,,html-keyboard-response,284,1214157,0.0-17.0-2.14,70820,List1A,white,man,,,,null,,,,
10795,,,survey-text,285,1224954,0.0-17.0-3.14,70820,List1A,white,man,,,,,"{""Q0"":""Kate and Jane are kissing each other""}","<img src=""stim_listA/kiss8.gif""style=""height:400px;""></stim_listA>",are kissing each other,
null,"<div style=""font-size:60px;"">+</div>",,html-keyboard-response,286,1225456,0.0-17.0-0.15,70820,List1A,white,man,,,,null,,,,
null,"<img src=""stim_listA/marry2.gif""style=""height:400px;""></stim_listA>",,html-keyboard-response,287,1227458,0.0-17.0-1.15,70820,List1A,white,man,,,,null,,,,
null,are marrying each other,,html-keyboard-response,288,1229460,0.0-17.0-2.15,70820,List1A,white,man,,,,null,,,,
10579,,,survey-text,289,1240040,0.0-17.0-3.15,70820,List1A,white,man,,,,,"{""Q0"":""Fred and Kate are marrying each other""}","<img src=""stim_listA/marry2.gif""style=""height:400px;""></stim_listA>",are marrying each other,
null,"<div style=""font-size:60px;"">+</div>",,html-keyboard-response,290,1240542,0.0-17.0-0.16,70820,List1A,white,man,,,,null,,,,
null,"<img src=""stim_listA/talk1.gif""style=""height:400px;""></stim_listA>",,html-keyboard-response,291,1242545,0.0-17.0-1.16,70820,List1A,white,man,,,,null,,,,
null,is talking to,,html-keyboard-response,292,1244547,0.0-17.0-2.16,70820,List1A,white,man,,,,null,,,,
14457,,,survey-text,293,1259005,0.0-17.0-3.16,70820,List1A,white,man,,,,,"{""Q0"":""Fred is talking to Kate""}","<img src=""stim_listA/talk1.gif""style=""height:400px;""></stim_listA>",is talking to,
null,"<div style=""font-size:60px;"">+</div>",,html-keyboard-response,294,1259508,0.0-17.0-0.17,70820,List1A,white,man,,,,null,,,,
null,"<img src=""stim_listA/dance4.gif""style=""height:400px;""></stim_listA>",,html-keyboard-response,295,1261510,0.0-17.0-1.17,70820,List1A,white,man,,,,null,,,,
null,are dancing with each other,,html-keyboard-response,296,1263513,0.0-17.0-2.17,70820,List1A,white,man,,,,null,,,,
13909,,,survey-text,297,1277423,0.0-17.0-3.17,70820,List1A,white,man,,,,,"{""Q0"":""Dave and Ruth are dancing with each other""}","<img src=""stim_listA/dance4.gif""style=""height:400px;""></stim_listA>",are dancing with each other,
null,"<div style=""font-size:60px;"">+</div>",,html-keyboard-response,298,1277925,0.0-17.0-0.18,70820,List1A,white,man,,,,null,,,,
null,"<img src=""stim_listA/flirt8.gif""style=""height:400px;""></stim_listA>",,html-keyboard-response,299,1279928,0.0-17.0-1.18,70820,List1A,white,man,,,,null,,,,
null,are flirting with each other,,html-keyboard-response,300,1281930,0.0-17.0-2.18,70820,List1A,white,man,,,,null,,,,
16641,,,survey-text,301,1298572,0.0-17.0-3.18,70820,List1A,white,man,,,,,"{""Q0"":""Kate and Ruth are flirting with each other""}","<img src=""stim_listA/flirt8.gif""style=""height:400px;""></stim_listA>",are flirting with each other,
null,"<div style=""font-size:60px;"">+</div>",,html-keyboard-response,302,1299074,0.0-17.0-0.19,70820,List1A,white,man,,,,null,,,,
null,"<img src=""stim_listA/shout6.gif""style=""height:400px;""></stim_listA>",,html-keyboard-response,303,1301077,0.0-17.0-1.19,70820,List1A,white,man,,,,null,,,,
null,are shouting at each other,,html-keyboard-response,304,1303079,0.0-17.0-2.19,70820,List1A,white,man,,,,null,,,,
13743,,,survey-text,305,1316823,0.0-17.0-3.19,70820,List1A,white,man,,,,,"{""Q0"":""Mike and Dave are shouting at each other""}","<img src=""stim_listA/shout6.gif""style=""height:400px;""></stim_listA>",are shouting at each other,
12146,"<img src='img/portrait_matrix_list1.jpg' style='width:900px;height:500px;''></img><p>If you have memorised all the portraits and names and are ready to start, press Continue.</p><p><strong>Please note: Your memory of these faces will be tested 4 times during this experiment.</strong></p>",0,html-button-response,306,1328971,0.0-18.0-0.0,70820,List1A,white,man,,,,,,,,
2580,"<img src=""portrait/BW1.jpg""style=""height:400px;""></img>",0,html-button-response,307,1332554,0.0-18.0-1.0,70820,List1A,white,man,,TRUE,0,,,,,
null,CORRECT,,html-keyboard-response,308,1334057,0.0-18.0-2.0-0.0,70820,List1A,white,man,,,,null,,,,
2692,"<img src=""portrait/WW1.jpg""style=""height:400px;""></img>",1,html-button-response,309,1336751,0.0-18.0-4.0,70820,List1A,white,man,,TRUE,1,,,,,
null,CORRECT,,html-keyboard-response,310,1338255,0.0-18.0-5.0-0.0,70820,List1A,white,man,,,,null,,,,
2247,"<img src=""portrait/WW2.jpg""style=""height:400px;""></img>",3,html-button-response,311,1340504,0.0-18.0-7.0,70820,List1A,white,man,,TRUE,3,,,,,
null,CORRECT,,html-keyboard-response,312,1342007,0.0-18.0-8.0-0.0,70820,List1A,white,man,,,,null,,,,
3598,"<img src=""portrait/BW2.jpg""style=""height:400px;""></img>",2,html-button-response,313,1345607,0.0-18.0-10.0,70820,List1A,white,man,,TRUE,2,,,,,
null,CORRECT,,html-keyboard-response,314,1347110,0.0-18.0-11.0-0.0,70820,List1A,white,man,,,,null,,,,
2106,"<img src=""portrait/WM1.jpg""style=""height:400px;""></img>",6,html-button-response,315,1349218,0.0-18.0-13.0,70820,List1A,white,man,,TRUE,6,,,,,
null,CORRECT,,html-keyboard-response,316,1350722,0.0-18.0-14.0-0.0,70820,List1A,white,man,,,,null,,,,
2111,"<img src=""portrait/WM2.jpg""style=""height:400px;""></img>",7,html-button-response,317,1352834,0.0-18.0-16.0,70820,List1A,white,man,,TRUE,7,,,,,
null,CORRECT,,html-keyboard-response,318,1354337,0.0-18.0-17.0-0.0,70820,List1A,white,man,,,,null,,,,
2646,"<img src=""portrait/BM2.jpg""style=""height:400px;""></img>",5,html-button-response,319,1356987,0.0-18.0-19.0,70820,List1A,white,man,,TRUE,5,,,,,
null,CORRECT,,html-keyboard-response,320,1358490,0.0-18.0-20.0-0.0,70820,List1A,white,man,,,,null,,,,
3033,"<img src=""portrait/BM1.jpg""style=""height:400px;""></img>",4,html-button-response,321,1361526,0.0-18.0-22.0,70820,List1A,white,man,,TRUE,4,,,,,
null,CORRECT,,html-keyboard-response,322,1363028,0.0-18.0-23.0-0.0,70820,List1A,white,man,,,,null,,,,
2440,<p>You got 8 out of 8 right first time. Press Continue.</p>,0,html-button-response,323,1365470,0.0-18.0-25.0,70820,List1A,white,man,,,,,,,,
null,"<div style=""font-size:60px;"">+</div>",,html-keyboard-response,324,1366975,0.0-19.0-0.0,70820,List1A,white,man,,,,null,,,,
null,"<img src=""stim_listA/play2.gif""style=""height:400px;""></stim_listA>",,html-keyboard-response,325,1368978,0.0-19.0-1.0,70820,List1A,white,man,,,,null,,,,
null,are playing with each other,,html-keyboard-response,326,1370980,0.0-19.0-2.0,70820,List1A,white,man,,,,null,,,,
15054,,,survey-text,327,1386036,0.0-19.0-3.0,70820,List1A,white,man,,,,,"{""Q0"":""Beth and Fred are playing with each other""}","<img src=""stim_listA/play2.gif""style=""height:400px;""></stim_listA>",are playing with each other,
null,"<div style=""font-size:60px;"">+</div>",,html-keyboard-response,328,1386538,0.0-19.0-0.1,70820,List1A,white,man,,,,null,,,,
null,"<img src=""stim_listA/fight1.gif""style=""height:400px;""></stim_listA>",,html-keyboard-response,329,1388541,0.0-19.0-1.1,70820,List1A,white,man,,,,null,,,,
null,is fighting,,html-keyboard-response,330,1390543,0.0-19.0-2.1,70820,List1A,white,man,,,,null,,,,
10530,,,survey-text,331,1401075,0.0-19.0-3.1,70820,List1A,white,man,,,,,"{""Q0"":""Kate is fighting Mike""}","<img src=""stim_listA/fight1.gif""style=""height:400px;""></stim_listA>",is fighting,
null,"<div style=""font-size:60px;"">+</div>",,html-keyboard-response,332,1401577,0.0-19.0-0.2,70820,List1A,white,man,,,,null,,,,
null,"<img src=""stim_listA/flirt6.gif""style=""height:400px;""></stim_listA>",,html-keyboard-response,333,1403580,0.0-19.0-1.2,70820,List1A,white,man,,,,null,,,,
null,are flirting with each other,,html-keyboard-response,334,1405582,0.0-19.0-2.2,70820,List1A,white,man,,,,null,,,,
12757,,,survey-text,335,1418340,0.0-19.0-3.2,70820,List1A,white,man,,,,,"{""Q0"":""Mike and Luke are flirting with each other""}","<img src=""stim_listA/flirt6.gif""style=""height:400px;""></stim_listA>",are flirting with each other,
null,"<div style=""font-size:60px;"">+</div>",,html-keyboard-response,336,1418843,0.0-19.0-0.3,70820,List1A,white,man,,,,null,,,,
null,"<img src=""stim_listA/argue6.gif""style=""height:400px;""></stim_listA>",,html-keyboard-response,337,1420845,0.0-19.0-1.3,70820,List1A,white,man,,,,null,,,,
null,are arguing with each other,,html-keyboard-response,338,1422847,0.0-19.0-2.3,70820,List1A,white,man,,,,null,,,,
10634,,,survey-text,339,1433483,0.0-19.0-3.3,70820,List1A,white,man,,,,,"{""Q0"":""Fred and Dave are arguing with each other""}","<img src=""stim_listA/argue6.gif""style=""height:400px;""></stim_listA>",are arguing with each other,
null,"<div style=""font-size:60px;"">+</div>",,html-keyboard-response,340,1433985,0.0-19.0-0.4,70820,List1A,white,man,,,,null,,,,
null,"<img src=""stim_listA/touch2.gif""style=""height:400px;""></stim_listA>",,html-keyboard-response,341,1435988,0.0-19.0-1.4,70820,List1A,white,man,,,,null,,,,
null,are touching each other,,html-keyboard-response,342,1437991,0.0-19.0-2.4,70820,List1A,white,man,,,,null,,,,
10817,,,survey-text,343,1448809,0.0-19.0-3.4,70820,List1A,white,man,,,,,"{""Q0"":""Fred and Beth are touching each other""}","<img src=""stim_listA/touch2.gif""style=""height:400px;""></stim_listA>",are touching each other,
null,"<div style=""font-size:60px;"">+</div>",,html-keyboard-response,344,1449312,0.0-19.0-0.5,70820,List1A,white,man,,,,null,,,,
null,"<img src=""stim_listA/marry5.gif""style=""height:400px;""></stim_listA>",,html-keyboard-response,345,1451314,0.0-19.0-1.5,70820,List1A,white,man,,,,null,,,,
null,is marrying,,html-keyboard-response,346,1453317,0.0-19.0-2.5,70820,List1A,white,man,,,,null,,,,
9202,,,survey-text,347,1462521,0.0-19.0-3.5,70820,List1A,white,man,,,,,"{""Q0"":""Luke is marrying Mike""}","<img src=""stim_listA/marry5.gif""style=""height:400px;""></stim_listA>",is marrying,
null,"<div style=""font-size:60px;"">+</div>",,html-keyboard-response,348,1463024,0.0-19.0-0.6,70820,List1A,white,man,,,,null,,,,
null,"<img src=""stim_listA/talk4.gif""style=""height:400px;""></stim_listA>",,html-keyboard-response,349,1465027,0.0-19.0-1.6,70820,List1A,white,man,,,,null,,,,
null,are talking to each other,,html-keyboard-response,350,1467029,0.0-19.0-2.6,70820,List1A,white,man,,,,null,,,,
11088,,,survey-text,351,1478118,0.0-19.0-3.6,70820,List1A,white,man,,,,,"{""Q0"":""Dave and Ruth are talking to each other""}","<img src=""stim_listA/talk4.gif""style=""height:400px;""></stim_listA>",are talking to each other,
null,"<div style=""font-size:60px;"">+</div>",,html-keyboard-response,352,1478621,0.0-19.0-0.7,70820,List1A,white,man,,,,null,,,,
null,"<img src=""stim_listA/talk2.gif""style=""height:400px;""></stim_listA>",,html-keyboard-response,353,1480624,0.0-19.0-1.7,70820,List1A,white,man,,,,null,,,,
null,are talking to each other,,html-keyboard-response,354,1482626,0.0-19.0-2.7,70820,List1A,white,man,,,,null,,,,
12358,,,survey-text,355,1494986,0.0-19.0-3.7,70820,List1A,white,man,,,,,"{""Q0"":""Mike and Beth are talking to each other""}","<img src=""stim_listA/talk2.gif""style=""height:400px;""></stim_listA>",are talking to each other,
null,"<div style=""font-size:60px;"">+</div>",,html-keyboard-response,356,1495487,0.0-19.0-0.8,70820,List1A,white,man,,,,null,,,,
null,"<img src=""stim_listA/flirt1.gif""style=""height:400px;""></stim_listA>",,html-keyboard-response,357,1497490,0.0-19.0-1.8,70820,List1A,white,man,,,,null,,,,
null,is flirting with,,html-keyboard-response,358,1499492,0.0-19.0-2.8,70820,List1A,white,man,,,,null,,,,
9746,,,survey-text,359,1509243,0.0-19.0-3.8,70820,List1A,white,man,,,,,"{""Q0"":""Kate is flirting with Fred""}","<img src=""stim_listA/flirt1.gif""style=""height:400px;""></stim_listA>",is flirting with,
null,"<div style=""font-size:60px;"">+</div>",,html-keyboard-response,360,1509745,0.0-19.0-0.9,70820,List1A,white,man,,,,null,,,,
null,"<img src=""stim_listA/play5.gif""style=""height:400px;""></stim_listA>",,html-keyboard-response,361,1511748,0.0-19.0-1.9,70820,List1A,white,man,,,,null,,,,
null,is playing with,,html-keyboard-response,362,1513751,0.0-19.0-2.9,70820,List1A,white,man,,,,null,,,,
7776,,,survey-text,363,1521528,0.0-19.0-3.9,70820,List1A,white,man,,,,,"{""Q0"":""Dave is playing with Mike""}","<img src=""stim_listA/play5.gif""style=""height:400px;""></stim_listA>",is playing with,
null,"<div style=""font-size:60px;"">+</div>",,html-keyboard-response,364,1522030,0.0-19.0-0.10,70820,List1A,white,man,,,,null,,,,
null,"<img src=""stim_listA/kiss4.gif""style=""height:400px;""></stim_listA>",,html-keyboard-response,365,1524032,0.0-19.0-1.10,70820,List1A,white,man,,,,null,,,,
null,are kissing each other,,html-keyboard-response,366,1526035,0.0-19.0-2.10,70820,List1A,white,man,,,,null,,,,
9909,,,survey-text,367,1535945,0.0-19.0-3.10,70820,List1A,white,man,,,,,"{""Q0"":""Jane and Dave are kissing each other""}","<img src=""stim_listA/kiss4.gif""style=""height:400px;""></stim_listA>",are kissing each other,
null,"<div style=""font-size:60px;"">+</div>",,html-keyboard-response,368,1536451,0.0-19.0-0.11,70820,List1A,white,man,,,,null,,,,
null,"<img src=""stim_listA/shout8.gif""style=""height:400px;""></stim_listA>",,html-keyboard-response,369,1538454,0.0-19.0-1.11,70820,List1A,white,man,,,,null,,,,
null,are shouting at each other,,html-keyboard-response,370,1540456,0.0-19.0-2.11,70820,List1A,white,man,,,,null,,,,
10494,,,survey-text,371,1550952,0.0-19.0-3.11,70820,List1A,white,man,,,,,"{""Q0"":""Kate and Jane are shouting at each other""}","<img src=""stim_listA/shout8.gif""style=""height:400px;""></stim_listA>",are shouting at each other,
null,"<div style=""font-size:60px;"">+</div>",,html-keyboard-response,372,1551454,0.0-19.0-0.12,70820,List1A,white,man,,,,null,,,,
null,"<img src=""stim_listA/kiss3.gif""style=""height:400px;""></stim_listA>",,html-keyboard-response,373,1553456,0.0-19.0-1.12,70820,List1A,white,man,,,,null,,,,
null,is kissing,,html-keyboard-response,374,1555462,0.0-19.0-2.12,70820,List1A,white,man,,,,null,,,,
8213,,,survey-text,375,1563676,0.0-19.0-3.12,70820,List1A,white,man,,,,,"{""Q0"":""Luke is kissing Ruth""}","<img src=""stim_listA/kiss3.gif""style=""height:400px;""></stim_listA>",is kissing,
null,"<div style=""font-size:60px;"">+</div>",,html-keyboard-response,376,1564179,0.0-19.0-0.13,70820,List1A,white,man,,,,null,,,,
null,"<img src=""stim_listA/fight5.gif""style=""height:400px;""></stim_listA>",,html-keyboard-response,377,1566181,0.0-19.0-1.13,70820,List1A,white,man,,,,null,,,,
null,is fighting,,html-keyboard-response,378,1568184,0.0-19.0-2.13,70820,List1A,white,man,,,,null,,,,
9544,,,survey-text,379,1577729,0.0-19.0-3.13,70820,List1A,white,man,,,,,"{""Q0"":""Dave is fighting Mike""}","<img src=""stim_listA/fight5.gif""style=""height:400px;""></stim_listA>",is fighting,
null,"<div style=""font-size:60px;"">+</div>",,html-keyboard-response,380,1578231,0.0-19.0-0.14,70820,List1A,white,man,,,,null,,,,
null,"<img src=""stim_listA/kiss2.gif""style=""height:400px;""></stim_listA>",,html-keyboard-response,381,1580234,0.0-19.0-1.14,70820,List1A,white,man,,,,null,,,,
null,are kissing each other,,html-keyboard-response,382,1582235,0.0-19.0-2.14,70820,List1A,white,man,,,,null,,,,
14941,,,survey-text,383,1597178,0.0-19.0-3.14,70820,List1A,white,man,,,,,"{""Q0"":""Mike and Kate are kissing each other""}","<img src=""stim_listA/kiss2.gif""style=""height:400px;""></stim_listA>",are kissing each other,
null,"<div style=""font-size:60px;"">+</div>",,html-keyboard-response,384,1597681,0.0-19.0-0.15,70820,List1A,white,man,,,,null,,,,
null,"<img src=""stim_listA/dance8.gif""style=""height:400px;""></stim_listA>",,html-keyboard-response,385,1599684,0.0-19.0-1.15,70820,List1A,white,man,,,,null,,,,
null,are dancing with each other,,html-keyboard-response,386,1601686,0.0-19.0-2.15,70820,List1A,white,man,,,,null,,,,
10508,,,survey-text,387,1612197,0.0-19.0-3.15,70820,List1A,white,man,,,,,"{""Q0"":""Ruth and Kate are dancing with each other""}","<img src=""stim_listA/dance8.gif""style=""height:400px;""></stim_listA>",are dancing with each other,
null,"<div style=""font-size:60px;"">+</div>",,html-keyboard-response,388,1612698,0.0-19.0-0.16,70820,List1A,white,man,,,,null,,,,
null,"<img src=""stim_listA/marry4.gif""style=""height:400px;""></stim_listA>",,html-keyboard-response,389,1614701,0.0-19.0-1.16,70820,List1A,white,man,,,,null,,,,
null,are marrying each other,,html-keyboard-response,390,1616703,0.0-19.0-2.16,70820,List1A,white,man,,,,null,,,,
10162,,,survey-text,391,1626869,0.0-19.0-3.16,70820,List1A,white,man,,,,,"{""Q0"":""Luke and Jane are marrying each other""}","<img src=""stim_listA/marry4.gif""style=""height:400px;""></stim_listA>",are marrying each other,
null,"<div style=""font-size:60px;"">+</div>",,html-keyboard-response,392,1627372,0.0-19.0-0.17,70820,List1A,white,man,,,,null,,,,
null,"<img src=""stim_listA/argue3.gif""style=""height:400px;""></stim_listA>",,html-keyboard-response,393,1629375,0.0-19.0-1.17,70820,List1A,white,man,,,,null,,,,
null,is arguing with,,html-keyboard-response,394,1631377,0.0-19.0-2.17,70820,List1A,white,man,,,,null,,,,
9259,,,survey-text,395,1640637,0.0-19.0-3.17,70820,List1A,white,man,,,,,"{""Q0"":""Ruth is arguing with Dave""}","<img src=""stim_listA/argue3.gif""style=""height:400px;""></stim_listA>",is arguing with,
null,"<div style=""font-size:60px;"">+</div>",,html-keyboard-response,396,1641140,0.0-19.0-0.18,70820,List1A,white,man,,,,null,,,,
null,"<img src=""stim_listA/talk5.gif""style=""height:400px;""></stim_listA>",,html-keyboard-response,397,1643141,0.0-19.0-1.18,70820,List1A,white,man,,,,null,,,,
null,is talking to,,html-keyboard-response,398,1645144,0.0-19.0-2.18,70820,List1A,white,man,,,,null,,,,
7259,,,survey-text,399,1652404,0.0-19.0-3.18,70820,List1A,white,man,,,,,"{""Q0"":""Dave is talking to Fred""}","<img src=""stim_listA/talk5.gif""style=""height:400px;""></stim_listA>",is talking to,
null,"<div style=""font-size:60px;"">+</div>",,html-keyboard-response,400,1652906,0.0-19.0-0.19,70820,List1A,white,man,,,,null,,,,
null,"<img src=""stim_listA/kiss1.gif""style=""height:400px;""></stim_listA>",,html-keyboard-response,401,1654909,0.0-19.0-1.19,70820,List1A,white,man,,,,null,,,,
null,is kissing,,html-keyboard-response,402,1656911,0.0-19.0-2.19,70820,List1A,white,man,,,,null,,,,
7765,,,survey-text,403,1664680,0.0-19.0-3.19,70820,List1A,white,man,,,,,"{""Q0"":""Beth is kissing Fred""}","<img src=""stim_listA/kiss1.gif""style=""height:400px;""></stim_listA>",is kissing,
5098,<p>Thank you for completing that task.</p><p>The final part of this session is a short questionnaire.</p><p>Press Continue.</p>,0,html-button-response,404,1669779,0.0-20.0,70820,List1A,white,man,,,,,,,,
26578,,,survey-text,405,1697360,0.0-21.0,70820,List1A,white,man,,,,,"{""Q0"":""65"",""Q1"":""English"",""Q2"":""English"",""Q3"":""U.S."",""Q4"":""White"",""Q5"":""Male""}",,,demographics
7736,,,survey-likert,406,1705100,0.0-22.0,70820,List1A,white,man,,,,,"{""Q0"":4}",,,likert_ESS
5672,,,survey-likert,407,1710774,0.0-23.0,70820,List1A,white,man,,,,,"{""Q0"":4}",,,likert_NSSAL_Q1
4134,,,survey-likert,408,1714911,0.0-24.0,70820,List1A,white,man,,,,,"{""Q0"":4}",,,likert_NSSAL_Q2
4897,,,survey-likert,409,1719810,0.0-25.0,70820,List1A,white,man,,,,,"{""Q0"":4}",,,likert_CGRS_Q1
4358,,,survey-likert,410,1724172,0.0-26.0,70820,List1A,white,man,,,,,"{""Q0"":4}",,,likert_CGRS_Q2
3076,,,survey-likert,411,1727253,0.0-27.0,70820,List1A,white,man,,,,,"{""Q0"":4}",,,likert_CGRS_Q3
9588,,,survey-text,412,1736845,0.0-28.0,70820,List1A,white,man,,,,,"{""Q0"":""ccc""}",,,worker_id
20643,,,external-html,413,1757710,0.0-29.0,70820,List1A,white,man,debrief.html,,,,,,,
