rt,stimulus,button_pressed,trial_type,trial_index,time_elapsed,internal_node_id,subject,list,ppt_race,ppt_gender,url,first_guess,correct,key_press,responses,image_type,phrase_type,test_part
7023,Welcome to the experiment. Press Continue to begin.,0,html-button-response,0,7049,0.0-0.0,71491,List1A,white,woman,,,,,,,,
33782,,,external-html,1,42096,0.0-1.0,71491,List1A,white,woman,consent.html,,,,,,,
15997,"<p>On the next page, you will see portraits of 8 people and their names.</p><p>Your first task is to take a few minutes to memorise the names of these people.</p><p>You will have to recall their names during the rest of the experiment, so it is</p><p>essential that you try to memorise these people and their names as best as you can.</p><br><p><strong>You will then be tested on your memory of these names and portraits.</strong></p><br><p>The experiment will start after you have completed this memory test.</p><br><p>Ready?</p>",0,html-button-response,2,58097,0.0-2.0,71491,List1A,white,woman,,,,,,,,
129559,"<img src='img/portrait_matrix_list1.jpg' style='width:900px;height:500px;''></img><p>If you have memorised all the portraits and names and are ready to start, press Continue.</p><p><strong>Please note: Your memory of these faces will be tested 4 times during this experiment.</strong></p>",0,html-button-response,3,188661,0.0-3.0-0.0,71491,List1A,white,woman,,,,,,,,
5417,"<img src=""portrait/WW1.jpg""style=""height:400px;""></img>",1,html-button-response,4,195087,0.0-3.0-1.0,71491,List1A,white,woman,,TRUE,1,,,,,
null,CORRECT,,html-keyboard-response,5,196604,0.0-3.0-2.0-0.0,71491,List1A,white,woman,,,,null,,,,
6191,"<img src=""portrait/BM2.jpg""style=""height:400px;""></img>",5,html-button-response,6,202798,0.0-3.0-4.0,71491,List1A,white,woman,,TRUE,5,,,,,
null,CORRECT,,html-keyboard-response,7,204319,0.0-3.0-5.0-0.0,71491,List1A,white,woman,,,,null,,,,
8920,"<img src=""portrait/BW2.jpg""style=""height:400px;""></img>",2,html-button-response,8,213242,0.0-3.0-7.0,71491,List1A,white,woman,,TRUE,2,,,,,
null,CORRECT,,html-keyboard-response,9,214750,0.0-3.0-8.0-0.0,71491,List1A,white,woman,,,,null,,,,
4229,"<img src=""portrait/WM1.jpg""style=""height:400px;""></img>",6,html-button-response,10,218981,0.0-3.0-10.0,71491,List1A,white,woman,,TRUE,6,,,,,
null,CORRECT,,html-keyboard-response,11,220491,0.0-3.0-11.0-0.0,71491,List1A,white,woman,,,,null,,,,
3568,"<img src=""portrait/WM2.jpg""style=""height:400px;""></img>",7,html-button-response,12,224060,0.0-3.0-13.0,71491,List1A,white,woman,,TRUE,7,,,,,
null,CORRECT,,html-keyboard-response,13,225574,0.0-3.0-14.0-0.0,71491,List1A,white,woman,,,,null,,,,
2599,"<img src=""portrait/BM1.jpg""style=""height:400px;""></img>",4,html-button-response,14,228175,0.0-3.0-16.0,71491,List1A,white,woman,,TRUE,4,,,,,
null,CORRECT,,html-keyboard-response,15,229685,0.0-3.0-17.0-0.0,71491,List1A,white,woman,,,,null,,,,
6856,"<img src=""portrait/BW1.jpg""style=""height:400px;""></img>",0,html-button-response,16,236542,0.0-3.0-19.0,71491,List1A,white,woman,,TRUE,0,,,,,
null,CORRECT,,html-keyboard-response,17,238049,0.0-3.0-20.0-0.0,71491,List1A,white,woman,,,,null,,,,
2203,"<img src=""portrait/WW2.jpg""style=""height:400px;""></img>",3,html-button-response,18,240254,0.0-3.0-22.0,71491,List1A,white,woman,,TRUE,3,,,,,
null,CORRECT,,html-keyboard-response,19,241768,0.0-3.0-23.0-0.0,71491,List1A,white,woman,,,,null,,,,
3272,<p>You got 8 out of 8 right first time. Press Continue.</p>,0,html-button-response,20,245042,0.0-3.0-25.0,71491,List1A,white,woman,,,,,,,,
24444,"<p>In this experiment, you will view photographs of the people from the memory game interacting.</p><p>By using the <strong>exact</strong> phrase given <i>after</i> the photograph appears and recalling the correct names of the people in the photographs, form a sentence describing the interaction. You do not need to capitalise names.</p><p>Type your answer in the space provided. Please complete every sentence before moving onto the next trial.</p><p>You will only have a few seconds to memorise each given photograph and phrase before you can respond, so try your best to focus.</p><p>An example is given below. Press 'Continue' when you are ready.</p><img src='img/speaking_example.jpg' style='width:800px;height:460px;''></img>",0,html-button-response,21,270490,0.0-4.0,71491,List1A,white,woman,,,,,,,,
1958,"<p>Before the experiment starts, you will watch two example trials. Press 'Continue'.</p>",0,html-button-response,22,273451,0.0-5.0,71491,List1A,white,woman,,,,,,,,
null,<img src='img/meet_eg.gif' style='height:400px;''></img>,,html-keyboard-response,23,276464,0.0-6.0,71491,List1A,white,woman,,,,null,,,,
null,<p>is meeting</p>,,html-keyboard-response,24,278465,0.0-7.0,71491,List1A,white,woman,,,,null,,,,
3018,<p><b>Answer:</b> kate is meeting beth</p>,0,html-button-response,25,281484,0.0-8.0,71491,List1A,white,woman,,,,,,,,
null,<img src='img/look_eg.gif' style='height:400px;''></img>,,html-keyboard-response,26,284491,0.0-9.0,71491,List1A,white,woman,,,,null,,,,
null,<p>are looking at each other</p>,,html-keyboard-response,27,286502,0.0-10.0,71491,List1A,white,woman,,,,null,,,,
2357,<p><b>Answer:</b> luke and dave are looking at each other</p>,0,html-button-response,28,288860,0.0-11.0,71491,List1A,white,woman,,,,,,,,
6419,"<p>Ready to start the experiment?</p><br><p><strong>Remember to describe the picture using a full sentence,</strong></p><p><strong>that combines the names of the people with the <i>exact</i> phrase given.</strong></p><p><strong>To receive full payment you must do this correctly.</strong></p><p><strong> You do not need to capitalise names or use punctuation.</strong></p><br><p>Press 'Continue' to begin.</p>",0,html-button-response,29,296287,0.0-12.0,71491,List1A,white,woman,,,,,,,,
null,"<div style=""font-size:60px;"">+</div>",,html-keyboard-response,30,297810,0.0-13.0-0.0,71491,List1A,white,woman,,,,null,,,,
null,"<img src=""stim_listA/kiss8.gif""style=""height:400px;""></stim_listA>",,html-keyboard-response,31,299812,0.0-13.0-1.0,71491,List1A,white,woman,,,,null,,,,
null,are kissing each other,,html-keyboard-response,32,301816,0.0-13.0-2.0,71491,List1A,white,woman,,,,null,,,,
25004,,,survey-text,33,326822,0.0-13.0-3.0,71491,List1A,white,woman,,,,,"{""Q0"":""kate and jane are kissing each other""}","<img src=""stim_listA/kiss8.gif""style=""height:400px;""></stim_listA>",are kissing each other,
null,"<div style=""font-size:60px;"">+</div>",,html-keyboard-response,34,327332,0.0-13.0-0.1,71491,List1A,white,woman,,,,null,,,,
null,"<img src=""stim_listA/fight6.gif""style=""height:400px;""></stim_listA>",,html-keyboard-response,35,329338,0.0-13.0-1.1,71491,List1A,white,woman,,,,null,,,,
null,are fighting each other,,html-keyboard-response,36,331342,0.0-13.0-2.1,71491,List1A,white,woman,,,,null,,,,
22402,,,survey-text,37,353747,0.0-13.0-3.1,71491,List1A,white,woman,,,,,"{""Q0"":""fred and luke are fighting eachother""}","<img src=""stim_listA/fight6.gif""style=""height:400px;""></stim_listA>",are fighting each other,
null,"<div style=""font-size:60px;"">+</div>",,html-keyboard-response,38,354251,0.0-13.0-0.2,71491,List1A,white,woman,,,,null,,,,
null,"<img src=""stim_listA/kiss2.gif""style=""height:400px;""></stim_listA>",,html-keyboard-response,39,356256,0.0-13.0-1.2,71491,List1A,white,woman,,,,null,,,,
null,are kissing each other,,html-keyboard-response,40,358258,0.0-13.0-2.2,71491,List1A,white,woman,,,,null,,,,
13762,,,survey-text,41,372023,0.0-13.0-3.2,71491,List1A,white,woman,,,,,"{""Q0"":""kate and mike are kissing each other""}","<img src=""stim_listA/kiss2.gif""style=""height:400px;""></stim_listA>",are kissing each other,
null,"<div style=""font-size:60px;"">+</div>",,html-keyboard-response,42,372526,0.0-13.0-0.3,71491,List1A,white,woman,,,,null,,,,
null,"<img src=""stim_listA/play4.gif""style=""height:400px;""></stim_listA>",,html-keyboard-response,43,374532,0.0-13.0-1.3,71491,List1A,white,woman,,,,null,,,,
null,are playing with each other,,html-keyboard-response,44,376537,0.0-13.0-2.3,71491,List1A,white,woman,,,,null,,,,
22133,,,survey-text,45,398672,0.0-13.0-3.3,71491,List1A,white,woman,,,,,"{""Q0"":""luke and ruth are playing with each other""}","<img src=""stim_listA/play4.gif""style=""height:400px;""></stim_listA>",are playing with each other,
null,"<div style=""font-size:60px;"">+</div>",,html-keyboard-response,46,399180,0.0-13.0-0.4,71491,List1A,white,woman,,,,null,,,,
null,"<img src=""stim_listA/touch5.gif""style=""height:400px;""></stim_listA>",,html-keyboard-response,47,401186,0.0-13.0-1.4,71491,List1A,white,woman,,,,null,,,,
null,is touching,,html-keyboard-response,48,403189,0.0-13.0-2.4,71491,List1A,white,woman,,,,null,,,,
18611,,,survey-text,49,421802,0.0-13.0-3.4,71491,List1A,white,woman,,,,,"{""Q0"":""mike is touching dave""}","<img src=""stim_listA/touch5.gif""style=""height:400px;""></stim_listA>",is touching,
null,"<div style=""font-size:60px;"">+</div>",,html-keyboard-response,50,422306,0.0-13.0-0.5,71491,List1A,white,woman,,,,null,,,,
null,"<img src=""stim_listA/flirt1.gif""style=""height:400px;""></stim_listA>",,html-keyboard-response,51,424310,0.0-13.0-1.5,71491,List1A,white,woman,,,,null,,,,
null,is flirting with,,html-keyboard-response,52,426315,0.0-13.0-2.5,71491,List1A,white,woman,,,,null,,,,
11635,,,survey-text,53,437952,0.0-13.0-3.5,71491,List1A,white,woman,,,,,"{""Q0"":""fred is flirting with kate""}","<img src=""stim_listA/flirt1.gif""style=""height:400px;""></stim_listA>",is flirting with,
null,"<div style=""font-size:60px;"">+</div>",,html-keyboard-response,54,438456,0.0-13.0-0.6,71491,List1A,white,woman,,,,null,,,,
null,"<img src=""stim_listA/dance6.gif""style=""height:400px;""></stim_listA>",,html-keyboard-response,55,440460,0.0-13.0-1.6,71491,List1A,white,woman,,,,null,,,,
null,are dancing with each other,,html-keyboard-response,56,442467,0.0-13.0-2.6,71491,List1A,white,woman,,,,null,,,,
28469,,,survey-text,57,470938,0.0-13.0-3.6,71491,List1A,white,woman,,,,,"{""Q0"":""luke and mike are dancing with each other  ""}","<img src=""stim_listA/dance6.gif""style=""height:400px;""></stim_listA>",are dancing with each other,
null,"<div style=""font-size:60px;"">+</div>",,html-keyboard-response,58,471443,0.0-13.0-0.7,71491,List1A,white,woman,,,,null,,,,
null,"<img src=""stim_listA/talk2.gif""style=""height:400px;""></stim_listA>",,html-keyboard-response,59,473449,0.0-13.0-1.7,71491,List1A,white,woman,,,,null,,,,
null,are talking to each other,,html-keyboard-response,60,475457,0.0-13.0-2.7,71491,List1A,white,woman,,,,null,,,,
14611,,,survey-text,61,490069,0.0-13.0-3.7,71491,List1A,white,woman,,,,,"{""Q0"":""mike and beth are talking to each other""}","<img src=""stim_listA/talk2.gif""style=""height:400px;""></stim_listA>",are talking to each other,
null,"<div style=""font-size:60px;"">+</div>",,html-keyboard-response,62,490572,0.0-13.0-0.8,71491,List1A,white,woman,,,,null,,,,
null,"<img src=""stim_listA/fight2.gif""style=""height:400px;""></stim_listA>",,html-keyboard-response,63,492575,0.0-13.0-1.8,71491,List1A,white,woman,,,,null,,,,
null,are fighting each other,,html-keyboard-response,64,494585,0.0-13.0-2.8,71491,List1A,white,woman,,,,null,,,,
8740,,,survey-text,65,503327,0.0-13.0-3.8,71491,List1A,white,woman,,,,,"{""Q0"":""beth and fred are fighting each other""}","<img src=""stim_listA/fight2.gif""style=""height:400px;""></stim_listA>",are fighting each other,
null,"<div style=""font-size:60px;"">+</div>",,html-keyboard-response,66,503836,0.0-13.0-0.9,71491,List1A,white,woman,,,,null,,,,
null,"<img src=""stim_listA/fight3.gif""style=""height:400px;""></stim_listA>",,html-keyboard-response,67,505842,0.0-13.0-1.9,71491,List1A,white,woman,,,,null,,,,
null,is fighting,,html-keyboard-response,68,507846,0.0-13.0-2.9,71491,List1A,white,woman,,,,null,,,,
15774,,,survey-text,69,523623,0.0-13.0-3.9,71491,List1A,white,woman,,,,,"{""Q0"":""dave is fighting ruth""}","<img src=""stim_listA/fight3.gif""style=""height:400px;""></stim_listA>",is fighting,
null,"<div style=""font-size:60px;"">+</div>",,html-keyboard-response,70,524134,0.0-13.0-0.10,71491,List1A,white,woman,,,,null,,,,
null,"<img src=""stim_listA/talk7.gif""style=""height:400px;""></stim_listA>",,html-keyboard-response,71,526138,0.0-13.0-1.10,71491,List1A,white,woman,,,,null,,,,
null,is talking to,,html-keyboard-response,72,528142,0.0-13.0-2.10,71491,List1A,white,woman,,,,null,,,,
8479,,,survey-text,73,536623,0.0-13.0-3.10,71491,List1A,white,woman,,,,,"{""Q0"":""ruth is taking to beth""}","<img src=""stim_listA/talk7.gif""style=""height:400px;""></stim_listA>",is talking to,
null,"<div style=""font-size:60px;"">+</div>",,html-keyboard-response,74,537138,0.0-13.0-0.11,71491,List1A,white,woman,,,,null,,,,
null,"<img src=""stim_listA/dance2.gif""style=""height:400px;""></stim_listA>",,html-keyboard-response,75,539142,0.0-13.0-1.11,71491,List1A,white,woman,,,,null,,,,
null,are dancing with each other,,html-keyboard-response,76,541148,0.0-13.0-2.11,71491,List1A,white,woman,,,,null,,,,
10903,,,survey-text,77,552053,0.0-13.0-3.11,71491,List1A,white,woman,,,,,"{""Q0"":""beth and mike are dancing with each other""}","<img src=""stim_listA/dance2.gif""style=""height:400px;""></stim_listA>",are dancing with each other,
null,"<div style=""font-size:60px;"">+</div>",,html-keyboard-response,78,552556,0.0-13.0-0.12,71491,List1A,white,woman,,,,null,,,,
null,"<img src=""stim_listA/flirt8.gif""style=""height:400px;""></stim_listA>",,html-keyboard-response,79,554562,0.0-13.0-1.12,71491,List1A,white,woman,,,,null,,,,
null,are flirting with each other,,html-keyboard-response,80,556568,0.0-13.0-2.12,71491,List1A,white,woman,,,,null,,,,
13260,,,survey-text,81,569831,0.0-13.0-3.12,71491,List1A,white,woman,,,,,"{""Q0"":""kate is flirting with ruth""}","<img src=""stim_listA/flirt8.gif""style=""height:400px;""></stim_listA>",are flirting with each other,
null,"<div style=""font-size:60px;"">+</div>",,html-keyboard-response,82,570333,0.0-13.0-0.13,71491,List1A,white,woman,,,,null,,,,
null,"<img src=""stim_listA/flirt6.gif""style=""height:400px;""></stim_listA>",,html-keyboard-response,83,572339,0.0-13.0-1.13,71491,List1A,white,woman,,,,null,,,,
null,are flirting with each other,,html-keyboard-response,84,574352,0.0-13.0-2.13,71491,List1A,white,woman,,,,null,,,,
18886,,,survey-text,85,593240,0.0-13.0-3.13,71491,List1A,white,woman,,,,,"{""Q0"":""luke and mike are flirting with each other""}","<img src=""stim_listA/flirt6.gif""style=""height:400px;""></stim_listA>",are flirting with each other,
null,"<div style=""font-size:60px;"">+</div>",,html-keyboard-response,86,593742,0.0-13.0-0.14,71491,List1A,white,woman,,,,null,,,,
null,"<img src=""stim_listA/kiss6.gif""style=""height:400px;""></stim_listA>",,html-keyboard-response,87,595748,0.0-13.0-1.14,71491,List1A,white,woman,,,,null,,,,
null,are kissing each other,,html-keyboard-response,88,597752,0.0-13.0-2.14,71491,List1A,white,woman,,,,null,,,,
10292,,,survey-text,89,608046,0.0-13.0-3.14,71491,List1A,white,woman,,,,,"{""Q0"":""dave and mike are kissing each other""}","<img src=""stim_listA/kiss6.gif""style=""height:400px;""></stim_listA>",are kissing each other,
null,"<div style=""font-size:60px;"">+</div>",,html-keyboard-response,90,608550,0.0-13.0-0.15,71491,List1A,white,woman,,,,null,,,,
null,"<img src=""stim_listA/dance5.gif""style=""height:400px;""></stim_listA>",,html-keyboard-response,91,610555,0.0-13.0-1.15,71491,List1A,white,woman,,,,null,,,,
null,is dancing with,,html-keyboard-response,92,612574,0.0-13.0-2.15,71491,List1A,white,woman,,,,null,,,,
8720,,,survey-text,93,621296,0.0-13.0-3.15,71491,List1A,white,woman,,,,,"{""Q0"":""dave is dancing with fred""}","<img src=""stim_listA/dance5.gif""style=""height:400px;""></stim_listA>",is dancing with,
null,"<div style=""font-size:60px;"">+</div>",,html-keyboard-response,94,621801,0.0-13.0-0.16,71491,List1A,white,woman,,,,null,,,,
null,"<img src=""stim_listA/touch3.gif""style=""height:400px;""></stim_listA>",,html-keyboard-response,95,623804,0.0-13.0-1.16,71491,List1A,white,woman,,,,null,,,,
null,is touching,,html-keyboard-response,96,625808,0.0-13.0-2.16,71491,List1A,white,woman,,,,null,,,,
7615,,,survey-text,97,633425,0.0-13.0-3.16,71491,List1A,white,woman,,,,,"{""Q0"":""dave is touching ruth""}","<img src=""stim_listA/touch3.gif""style=""height:400px;""></stim_listA>",is touching,
null,"<div style=""font-size:60px;"">+</div>",,html-keyboard-response,98,633933,0.0-13.0-0.17,71491,List1A,white,woman,,,,null,,,,
null,"<img src=""stim_listA/marry2.gif""style=""height:400px;""></stim_listA>",,html-keyboard-response,99,635943,0.0-13.0-1.17,71491,List1A,white,woman,,,,null,,,,
null,are marrying each other,,html-keyboard-response,100,637952,0.0-13.0-2.17,71491,List1A,white,woman,,,,null,,,,
21550,,,survey-text,101,659504,0.0-13.0-3.17,71491,List1A,white,woman,,,,,"{""Q0"":""kate and fred are marrying each other""}","<img src=""stim_listA/marry2.gif""style=""height:400px;""></stim_listA>",are marrying each other,
null,"<div style=""font-size:60px;"">+</div>",,html-keyboard-response,102,660019,0.0-13.0-0.18,71491,List1A,white,woman,,,,null,,,,
null,"<img src=""stim_listA/flirt5.gif""style=""height:400px;""></stim_listA>",,html-keyboard-response,103,662033,0.0-13.0-1.18,71491,List1A,white,woman,,,,null,,,,
null,is flirting with,,html-keyboard-response,104,664040,0.0-13.0-2.18,71491,List1A,white,woman,,,,null,,,,
11789,,,survey-text,105,675831,0.0-13.0-3.18,71491,List1A,white,woman,,,,,"{""Q0"":""dave is flirting with fred""}","<img src=""stim_listA/flirt5.gif""style=""height:400px;""></stim_listA>",is flirting with,
null,"<div style=""font-size:60px;"">+</div>",,html-keyboard-response,106,676336,0.0-13.0-0.19,71491,List1A,white,woman,,,,null,,,,
null,"<img src=""stim_listA/shout7.gif""style=""height:400px;""></stim_listA>",,html-keyboard-response,107,678343,0.0-13.0-1.19,71491,List1A,white,woman,,,,null,,,,
null,is shouting at,,html-keyboard-response,108,680347,0.0-13.0-2.19,71491,List1A,white,woman,,,,null,,,,
20754,,,survey-text,109,701103,0.0-13.0-3.19,71491,List1A,white,woman,,,,,"{""Q0"":""beth is shouting at ruth""}","<img src=""stim_listA/shout7.gif""style=""height:400px;""></stim_listA>",is shouting at,
4787,"<img src='img/portrait_matrix_list1.jpg' style='width:900px;height:500px;''></img><p>If you have memorised all the portraits and names and are ready to start, press Continue.</p><p><strong>Please note: Your memory of these faces will be tested 4 times during this experiment.</strong></p>",0,html-button-response,110,705892,0.0-14.0-0.0,71491,List1A,white,woman,,,,,,,,
4312,"<img src=""portrait/BW2.jpg""style=""height:400px;""></img>",2,html-button-response,111,711208,0.0-14.0-1.0,71491,List1A,white,woman,,TRUE,2,,,,,
null,CORRECT,,html-keyboard-response,112,712714,0.0-14.0-2.0-0.0,71491,List1A,white,woman,,,,null,,,,
1745,"<img src=""portrait/WW2.jpg""style=""height:400px;""></img>",3,html-button-response,113,714462,0.0-14.0-4.0,71491,List1A,white,woman,,TRUE,3,,,,,
null,CORRECT,,html-keyboard-response,114,715967,0.0-14.0-5.0-0.0,71491,List1A,white,woman,,,,null,,,,
2285,"<img src=""portrait/WW1.jpg""style=""height:400px;""></img>",1,html-button-response,115,718256,0.0-14.0-7.0,71491,List1A,white,woman,,TRUE,1,,,,,
null,CORRECT,,html-keyboard-response,116,719787,0.0-14.0-8.0-0.0,71491,List1A,white,woman,,,,null,,,,
3320,"<img src=""portrait/BW1.jpg""style=""height:400px;""></img>",0,html-button-response,117,723111,0.0-14.0-10.0,71491,List1A,white,woman,,TRUE,0,,,,,
null,CORRECT,,html-keyboard-response,118,724638,0.0-14.0-11.0-0.0,71491,List1A,white,woman,,,,null,,,,
2288,"<img src=""portrait/BM2.jpg""style=""height:400px;""></img>",5,html-button-response,119,726928,0.0-14.0-13.0,71491,List1A,white,woman,,TRUE,5,,,,,
null,CORRECT,,html-keyboard-response,120,728449,0.0-14.0-14.0-0.0,71491,List1A,white,woman,,,,null,,,,
2061,"<img src=""portrait/BM1.jpg""style=""height:400px;""></img>",4,html-button-response,121,730514,0.0-14.0-16.0,71491,List1A,white,woman,,TRUE,4,,,,,
null,CORRECT,,html-keyboard-response,122,732020,0.0-14.0-17.0-0.0,71491,List1A,white,woman,,,,null,,,,
2242,"<img src=""portrait/WM1.jpg""style=""height:400px;""></img>",6,html-button-response,123,734265,0.0-14.0-19.0,71491,List1A,white,woman,,TRUE,6,,,,,
null,CORRECT,,html-keyboard-response,124,735785,0.0-14.0-20.0-0.0,71491,List1A,white,woman,,,,null,,,,
1408,"<img src=""portrait/WM2.jpg""style=""height:400px;""></img>",7,html-button-response,125,737195,0.0-14.0-22.0,71491,List1A,white,woman,,TRUE,7,,,,,
null,CORRECT,,html-keyboard-response,126,738711,0.0-14.0-23.0-0.0,71491,List1A,white,woman,,,,null,,,,
1668,<p>You got 8 out of 8 right first time. Press Continue.</p>,0,html-button-response,127,740382,0.0-14.0-25.0,71491,List1A,white,woman,,,,,,,,
null,"<div style=""font-size:60px;"">+</div>",,html-keyboard-response,128,741904,0.0-15.0-0.0,71491,List1A,white,woman,,,,null,,,,
null,"<img src=""stim_listA/play7.gif""style=""height:400px;""></stim_listA>",,html-keyboard-response,129,743911,0.0-15.0-1.0,71491,List1A,white,woman,,,,null,,,,
null,is playing with,,html-keyboard-response,130,745913,0.0-15.0-2.0,71491,List1A,white,woman,,,,null,,,,
15749,,,survey-text,131,761664,0.0-15.0-3.0,71491,List1A,white,woman,,,,,"{""Q0"":""kate is playing with jane""}","<img src=""stim_listA/play7.gif""style=""height:400px;""></stim_listA>",is playing with,
null,"<div style=""font-size:60px;"">+</div>",,html-keyboard-response,132,762182,0.0-15.0-0.1,71491,List1A,white,woman,,,,null,,,,
null,"<img src=""stim_listA/fight8.gif""style=""height:400px;""></stim_listA>",,html-keyboard-response,133,764189,0.0-15.0-1.1,71491,List1A,white,woman,,,,null,,,,
null,are fighting each other,,html-keyboard-response,134,766195,0.0-15.0-2.1,71491,List1A,white,woman,,,,null,,,,
14622,,,survey-text,135,780820,0.0-15.0-3.1,71491,List1A,white,woman,,,,,"{""Q0"":""beth and ruth is fighting each other""}","<img src=""stim_listA/fight8.gif""style=""height:400px;""></stim_listA>",are fighting each other,
null,"<div style=""font-size:60px;"">+</div>",,html-keyboard-response,136,781323,0.0-15.0-0.2,71491,List1A,white,woman,,,,null,,,,
null,"<img src=""stim_listA/marry3.gif""style=""height:400px;""></stim_listA>",,html-keyboard-response,137,783326,0.0-15.0-1.2,71491,List1A,white,woman,,,,null,,,,
null,is marrying,,html-keyboard-response,138,785328,0.0-15.0-2.2,71491,List1A,white,woman,,,,null,,,,
10786,,,survey-text,139,796116,0.0-15.0-3.2,71491,List1A,white,woman,,,,,"{""Q0"":""beth is marrying dave""}","<img src=""stim_listA/marry3.gif""style=""height:400px;""></stim_listA>",is marrying,
null,"<div style=""font-size:60px;"">+</div>",,html-keyboard-response,140,796619,0.0-15.0-0.3,71491,List1A,white,woman,,,,null,,,,
null,"<img src=""stim_listA/argue4.gif""style=""height:400px;""></stim_listA>",,html-keyboard-response,141,798624,0.0-15.0-1.3,71491,List1A,white,woman,,,,null,,,,
null,are arguing with each other,,html-keyboard-response,142,800640,0.0-15.0-2.3,71491,List1A,white,woman,,,,null,,,,
10962,,,survey-text,143,811604,0.0-15.0-3.3,71491,List1A,white,woman,,,,,"{""Q0"":""jane and luke are arguing with each other""}","<img src=""stim_listA/argue4.gif""style=""height:400px;""></stim_listA>",are arguing with each other,
null,"<div style=""font-size:60px;"">+</div>",,html-keyboard-response,144,812108,0.0-15.0-0.4,71491,List1A,white,woman,,,,null,,,,
null,"<img src=""stim_listA/play6.gif""style=""height:400px;""></stim_listA>",,html-keyboard-response,145,814114,0.0-15.0-1.4,71491,List1A,white,woman,,,,null,,,,
null,are playing with each other,,html-keyboard-response,146,816118,0.0-15.0-2.4,71491,List1A,white,woman,,,,null,,,,
12381,,,survey-text,147,828501,0.0-15.0-3.4,71491,List1A,white,woman,,,,,"{""Q0"":""luke and fred are playing with each other""}","<img src=""stim_listA/play6.gif""style=""height:400px;""></stim_listA>",are playing with each other,
null,"<div style=""font-size:60px;"">+</div>",,html-keyboard-response,148,829009,0.0-15.0-0.5,71491,List1A,white,woman,,,,null,,,,
null,"<img src=""stim_listA/argue6.gif""style=""height:400px;""></stim_listA>",,html-keyboard-response,149,831015,0.0-15.0-1.5,71491,List1A,white,woman,,,,null,,,,
null,are arguing with each other,,html-keyboard-response,150,833017,0.0-15.0-2.5,71491,List1A,white,woman,,,,null,,,,
12794,,,survey-text,151,845813,0.0-15.0-3.5,71491,List1A,white,woman,,,,,"{""Q0"":""dave and fred are arguing with each other""}","<img src=""stim_listA/argue6.gif""style=""height:400px;""></stim_listA>",are arguing with each other,
null,"<div style=""font-size:60px;"">+</div>",,html-keyboard-response,152,846319,0.0-15.0-0.6,71491,List1A,white,woman,,,,null,,,,
null,"<img src=""stim_listA/play3.gif""style=""height:400px;""></stim_listA>",,html-keyboard-response,153,848323,0.0-15.0-1.6,71491,List1A,white,woman,,,,null,,,,
null,is playing with,,html-keyboard-response,154,850326,0.0-15.0-2.6,71491,List1A,white,woman,,,,null,,,,
7613,,,survey-text,155,857943,0.0-15.0-3.6,71491,List1A,white,woman,,,,,"{""Q0"":""dave is paying with jane""}","<img src=""stim_listA/play3.gif""style=""height:400px;""></stim_listA>",is playing with,
null,"<div style=""font-size:60px;"">+</div>",,html-keyboard-response,156,858445,0.0-15.0-0.7,71491,List1A,white,woman,,,,null,,,,
null,"<img src=""stim_listA/dance8.gif""style=""height:400px;""></stim_listA>",,html-keyboard-response,157,860449,0.0-15.0-1.7,71491,List1A,white,woman,,,,null,,,,
null,are dancing with each other,,html-keyboard-response,158,862462,0.0-15.0-2.7,71491,List1A,white,woman,,,,null,,,,
12393,,,survey-text,159,874857,0.0-15.0-3.7,71491,List1A,white,woman,,,,,"{""Q0"":""ruthe and kate are dancing with each other""}","<img src=""stim_listA/dance8.gif""style=""height:400px;""></stim_listA>",are dancing with each other,
null,"<div style=""font-size:60px;"">+</div>",,html-keyboard-response,160,875359,0.0-15.0-0.8,71491,List1A,white,woman,,,,null,,,,
null,"<img src=""stim_listA/flirt7.gif""style=""height:400px;""></stim_listA>",,html-keyboard-response,161,877362,0.0-15.0-1.8,71491,List1A,white,woman,,,,null,,,,
null,is flirting with,,html-keyboard-response,162,879366,0.0-15.0-2.8,71491,List1A,white,woman,,,,null,,,,
13782,,,survey-text,163,893150,0.0-15.0-3.8,71491,List1A,white,woman,,,,,"{""Q0"":""jane is flirting withcbeth""}","<img src=""stim_listA/flirt7.gif""style=""height:400px;""></stim_listA>",is flirting with,
null,"<div style=""font-size:60px;"">+</div>",,html-keyboard-response,164,893653,0.0-15.0-0.9,71491,List1A,white,woman,,,,null,,,,
null,"<img src=""stim_listA/fight7.gif""style=""height:400px;""></stim_listA>",,html-keyboard-response,165,895657,0.0-15.0-1.9,71491,List1A,white,woman,,,,null,,,,
null,is fighting,,html-keyboard-response,166,897662,0.0-15.0-2.9,71491,List1A,white,woman,,,,null,,,,
5919,,,survey-text,167,903583,0.0-15.0-3.9,71491,List1A,white,woman,,,,,"{""Q0"":""kate is fighting jane""}","<img src=""stim_listA/fight7.gif""style=""height:400px;""></stim_listA>",is fighting,
null,"<div style=""font-size:60px;"">+</div>",,html-keyboard-response,168,904094,0.0-15.0-0.10,71491,List1A,white,woman,,,,null,,,,
null,"<img src=""stim_listA/touch7.gif""style=""height:400px;""></stim_listA>",,html-keyboard-response,169,906106,0.0-15.0-1.10,71491,List1A,white,woman,,,,null,,,,
null,is touching,,html-keyboard-response,170,908121,0.0-15.0-2.10,71491,List1A,white,woman,,,,null,,,,
7450,,,survey-text,171,915573,0.0-15.0-3.10,71491,List1A,white,woman,,,,,"{""Q0"":""kate is touching jane""}","<img src=""stim_listA/touch7.gif""style=""height:400px;""></stim_listA>",is touching,
null,"<div style=""font-size:60px;"">+</div>",,html-keyboard-response,172,916082,0.0-15.0-0.11,71491,List1A,white,woman,,,,null,,,,
null,"<img src=""stim_listA/shout5.gif""style=""height:400px;""></stim_listA>",,html-keyboard-response,173,918097,0.0-15.0-1.11,71491,List1A,white,woman,,,,null,,,,
null,is shouting at,,html-keyboard-response,174,920102,0.0-15.0-2.11,71491,List1A,white,woman,,,,null,,,,
12135,,,survey-text,175,932240,0.0-15.0-3.11,71491,List1A,white,woman,,,,,"{""Q0"":""fred is shouting at luke""}","<img src=""stim_listA/shout5.gif""style=""height:400px;""></stim_listA>",is shouting at,
null,"<div style=""font-size:60px;"">+</div>",,html-keyboard-response,176,932743,0.0-15.0-0.12,71491,List1A,white,woman,,,,null,,,,
null,"<img src=""stim_listA/flirt2.gif""style=""height:400px;""></stim_listA>",,html-keyboard-response,177,934748,0.0-15.0-1.12,71491,List1A,white,woman,,,,null,,,,
null,are flirting with each other,,html-keyboard-response,178,936753,0.0-15.0-2.12,71491,List1A,white,woman,,,,null,,,,
12290,,,survey-text,179,949045,0.0-15.0-3.12,71491,List1A,white,woman,,,,,"{""Q0"":""beth and mike are flirting with each other""}","<img src=""stim_listA/flirt2.gif""style=""height:400px;""></stim_listA>",are flirting with each other,
null,"<div style=""font-size:60px;"">+</div>",,html-keyboard-response,180,949552,0.0-15.0-0.13,71491,List1A,white,woman,,,,null,,,,
null,"<img src=""stim_listA/dance1.gif""style=""height:400px;""></stim_listA>",,html-keyboard-response,181,951557,0.0-15.0-1.13,71491,List1A,white,woman,,,,null,,,,
null,is dancing with,,html-keyboard-response,182,953559,0.0-15.0-2.13,71491,List1A,white,woman,,,,null,,,,
8638,,,survey-text,183,962199,0.0-15.0-3.13,71491,List1A,white,woman,,,,,"{""Q0"":""kate is dancng with fred""}","<img src=""stim_listA/dance1.gif""style=""height:400px;""></stim_listA>",is dancing with,
null,"<div style=""font-size:60px;"">+</div>",,html-keyboard-response,184,962701,0.0-15.0-0.14,71491,List1A,white,woman,,,,null,,,,
null,"<img src=""stim_listA/fight5.gif""style=""height:400px;""></stim_listA>",,html-keyboard-response,185,964705,0.0-15.0-1.14,71491,List1A,white,woman,,,,null,,,,
null,is fighting,,html-keyboard-response,186,966708,0.0-15.0-2.14,71491,List1A,white,woman,,,,null,,,,
11322,,,survey-text,187,978032,0.0-15.0-3.14,71491,List1A,white,woman,,,,,"{""Q0"":""dave is fighting mike""}","<img src=""stim_listA/fight5.gif""style=""height:400px;""></stim_listA>",is fighting,
null,"<div style=""font-size:60px;"">+</div>",,html-keyboard-response,188,978549,0.0-15.0-0.15,71491,List1A,white,woman,,,,null,,,,
null,"<img src=""stim_listA/kiss3.gif""style=""height:400px;""></stim_listA>",,html-keyboard-response,189,980555,0.0-15.0-1.15,71491,List1A,white,woman,,,,null,,,,
null,is kissing,,html-keyboard-response,190,982569,0.0-15.0-2.15,71491,List1A,white,woman,,,,null,,,,
50653,,,survey-text,191,1033224,0.0-15.0-3.15,71491,List1A,white,woman,,,,,"{""Q0"":""luke is kissing ruth""}","<img src=""stim_listA/kiss3.gif""style=""height:400px;""></stim_listA>",is kissing,
null,"<div style=""font-size:60px;"">+</div>",,html-keyboard-response,192,1033727,0.0-15.0-0.16,71491,List1A,white,woman,,,,null,,,,
null,"<img src=""stim_listA/touch1.gif""style=""height:400px;""></stim_listA>",,html-keyboard-response,193,1035729,0.0-15.0-1.16,71491,List1A,white,woman,,,,null,,,,
null,is touching,,html-keyboard-response,194,1037731,0.0-15.0-2.16,71491,List1A,white,woman,,,,null,,,,
18681,,,survey-text,195,1056414,0.0-15.0-3.16,71491,List1A,white,woman,,,,,"{""Q0"":""mike is touching    kate""}","<img src=""stim_listA/touch1.gif""style=""height:400px;""></stim_listA>",is touching,
null,"<div style=""font-size:60px;"">+</div>",,html-keyboard-response,196,1056922,0.0-15.0-0.17,71491,List1A,white,woman,,,,null,,,,
null,"<img src=""stim_listA/talk6.gif""style=""height:400px;""></stim_listA>",,html-keyboard-response,197,1058926,0.0-15.0-1.17,71491,List1A,white,woman,,,,null,,,,
null,are talking to each other,,html-keyboard-response,198,1060929,0.0-15.0-2.17,71491,List1A,white,woman,,,,null,,,,
9841,,,survey-text,199,1070773,0.0-15.0-3.17,71491,List1A,white,woman,,,,,"{""Q0"":""mike and luke are talking to each other""}","<img src=""stim_listA/talk6.gif""style=""height:400px;""></stim_listA>",are talking to each other,
null,"<div style=""font-size:60px;"">+</div>",,html-keyboard-response,200,1071289,0.0-15.0-0.18,71491,List1A,white,woman,,,,null,,,,
null,"<img src=""stim_listA/marry7.gif""style=""height:400px;""></stim_listA>",,html-keyboard-response,201,1073293,0.0-15.0-1.18,71491,List1A,white,woman,,,,null,,,,
null,is marrying,,html-keyboard-response,202,1075308,0.0-15.0-2.18,71491,List1A,white,woman,,,,null,,,,
9227,,,survey-text,203,1084537,0.0-15.0-3.18,71491,List1A,white,woman,,,,,"{""Q0"":""beth is marrying kate""}","<img src=""stim_listA/marry7.gif""style=""height:400px;""></stim_listA>",is marrying,
null,"<div style=""font-size:60px;"">+</div>",,html-keyboard-response,204,1085048,0.0-15.0-0.19,71491,List1A,white,woman,,,,null,,,,
null,"<img src=""stim_listA/shout4.gif""style=""height:400px;""></stim_listA>",,html-keyboard-response,205,1087052,0.0-15.0-1.19,71491,List1A,white,woman,,,,null,,,,
null,are shouting at each other,,html-keyboard-response,206,1089053,0.0-15.0-2.19,71491,List1A,white,woman,,,,null,,,,
13675,,,survey-text,207,1102731,0.0-15.0-3.19,71491,List1A,white,woman,,,,,"{""Q0"":""jane and dave are shouting at eachother ""}","<img src=""stim_listA/shout4.gif""style=""height:400px;""></stim_listA>",are shouting at each other,
3302,"<img src='img/portrait_matrix_list1.jpg' style='width:900px;height:500px;''></img><p>If you have memorised all the portraits and names and are ready to start, press Continue.</p><p><strong>Please note: Your memory of these faces will be tested 4 times during this experiment.</strong></p>",0,html-button-response,208,1106035,0.0-16.0-0.0,71491,List1A,white,woman,,,,,,,,
3023,"<img src=""portrait/WM1.jpg""style=""height:400px;""></img>",6,html-button-response,209,1110063,0.0-16.0-1.0,71491,List1A,white,woman,,TRUE,6,,,,,
null,CORRECT,,html-keyboard-response,210,1111568,0.0-16.0-2.0-0.0,71491,List1A,white,woman,,,,null,,,,
2074,"<img src=""portrait/BW2.jpg""style=""height:400px;""></img>",2,html-button-response,211,1113646,0.0-16.0-4.0,71491,List1A,white,woman,,TRUE,2,,,,,
null,CORRECT,,html-keyboard-response,212,1115149,0.0-16.0-5.0-0.0,71491,List1A,white,woman,,,,null,,,,
2685,"<img src=""portrait/WW1.jpg""style=""height:400px;""></img>",1,html-button-response,213,1117836,0.0-16.0-7.0,71491,List1A,white,woman,,TRUE,1,,,,,
null,CORRECT,,html-keyboard-response,214,1119354,0.0-16.0-8.0-0.0,71491,List1A,white,woman,,,,null,,,,
1925,"<img src=""portrait/WW2.jpg""style=""height:400px;""></img>",3,html-button-response,215,1121282,0.0-16.0-10.0,71491,List1A,white,woman,,TRUE,3,,,,,
null,CORRECT,,html-keyboard-response,216,1122800,0.0-16.0-11.0-0.0,71491,List1A,white,woman,,,,null,,,,
2197,"<img src=""portrait/WM2.jpg""style=""height:400px;""></img>",7,html-button-response,217,1125001,0.0-16.0-13.0,71491,List1A,white,woman,,TRUE,7,,,,,
null,CORRECT,,html-keyboard-response,218,1126517,0.0-16.0-14.0-0.0,71491,List1A,white,woman,,,,null,,,,
2570,"<img src=""portrait/BM1.jpg""style=""height:400px;""></img>",4,html-button-response,219,1129089,0.0-16.0-16.0,71491,List1A,white,woman,,TRUE,4,,,,,
null,CORRECT,,html-keyboard-response,220,1130614,0.0-16.0-17.0-0.0,71491,List1A,white,woman,,,,null,,,,
1282,"<img src=""portrait/BM2.jpg""style=""height:400px;""></img>",5,html-button-response,221,1131899,0.0-16.0-19.0,71491,List1A,white,woman,,TRUE,5,,,,,
null,CORRECT,,html-keyboard-response,222,1133414,0.0-16.0-20.0-0.0,71491,List1A,white,woman,,,,null,,,,
1526,"<img src=""portrait/BW1.jpg""style=""height:400px;""></img>",0,html-button-response,223,1134942,0.0-16.0-22.0,71491,List1A,white,woman,,TRUE,0,,,,,
null,CORRECT,,html-keyboard-response,224,1136447,0.0-16.0-23.0-0.0,71491,List1A,white,woman,,,,null,,,,
19196,<p>You got 8 out of 8 right first time. Press Continue.</p>,0,html-button-response,225,1155645,0.0-16.0-25.0,71491,List1A,white,woman,,,,,,,,
null,"<div style=""font-size:60px;"">+</div>",,html-keyboard-response,226,1157164,0.0-17.0-0.0,71491,List1A,white,woman,,,,null,,,,
null,"<img src=""stim_listA/touch8.gif""style=""height:400px;""></stim_listA>",,html-keyboard-response,227,1159167,0.0-17.0-1.0,71491,List1A,white,woman,,,,null,,,,
null,are touching each other,,html-keyboard-response,228,1161170,0.0-17.0-2.0,71491,List1A,white,woman,,,,null,,,,
17500,,,survey-text,229,1178672,0.0-17.0-3.0,71491,List1A,white,woman,,,,,"{""Q0"":""beth and ruth are touching each other""}","<img src=""stim_listA/touch8.gif""style=""height:400px;""></stim_listA>",are touching each other,
null,"<div style=""font-size:60px;"">+</div>",,html-keyboard-response,230,1179186,0.0-17.0-0.1,71491,List1A,white,woman,,,,null,,,,
null,"<img src=""stim_listA/play1.gif""style=""height:400px;""></stim_listA>",,html-keyboard-response,231,1181189,0.0-17.0-1.1,71491,List1A,white,woman,,,,null,,,,
null,is playing with,,html-keyboard-response,232,1183191,0.0-17.0-2.1,71491,List1A,white,woman,,,,null,,,,
8031,,,survey-text,233,1191224,0.0-17.0-3.1,71491,List1A,white,woman,,,,,"{""Q0"":""mike is paying with kate""}","<img src=""stim_listA/play1.gif""style=""height:400px;""></stim_listA>",is playing with,
null,"<div style=""font-size:60px;"">+</div>",,html-keyboard-response,234,1191731,0.0-17.0-0.2,71491,List1A,white,woman,,,,null,,,,
null,"<img src=""stim_listA/argue2.gif""style=""height:400px;""></stim_listA>",,html-keyboard-response,235,1193741,0.0-17.0-1.2,71491,List1A,white,woman,,,,null,,,,
null,are arguing with each other,,html-keyboard-response,236,1195743,0.0-17.0-2.2,71491,List1A,white,woman,,,,null,,,,
9304,,,survey-text,237,1205049,0.0-17.0-3.2,71491,List1A,white,woman,,,,,"{""Q0"":""kate and fred are arguing with each other""}","<img src=""stim_listA/argue2.gif""style=""height:400px;""></stim_listA>",are arguing with each other,
null,"<div style=""font-size:60px;"">+</div>",,html-keyboard-response,238,1205552,0.0-17.0-0.3,71491,List1A,white,woman,,,,null,,,,
null,"<img src=""stim_listA/shout3.gif""style=""height:400px;""></stim_listA>",,html-keyboard-response,239,1207556,0.0-17.0-1.3,71491,List1A,white,woman,,,,null,,,,
null,is shouting at,,html-keyboard-response,240,1209558,0.0-17.0-2.3,71491,List1A,white,woman,,,,null,,,,
8211,,,survey-text,241,1217771,0.0-17.0-3.3,71491,List1A,white,woman,,,,,"{""Q0"":""luke is shouting at ruth""}","<img src=""stim_listA/shout3.gif""style=""height:400px;""></stim_listA>",is shouting at,
null,"<div style=""font-size:60px;"">+</div>",,html-keyboard-response,242,1218273,0.0-17.0-0.4,71491,List1A,white,woman,,,,null,,,,
null,"<img src=""stim_listA/kiss1.gif""style=""height:400px;""></stim_listA>",,html-keyboard-response,243,1220276,0.0-17.0-1.4,71491,List1A,white,woman,,,,null,,,,
null,is kissing,,html-keyboard-response,244,1222283,0.0-17.0-2.4,71491,List1A,white,woman,,,,null,,,,
8615,,,survey-text,245,1230900,0.0-17.0-3.4,71491,List1A,white,woman,,,,,"{""Q0"":""fred is kissing beth""}","<img src=""stim_listA/kiss1.gif""style=""height:400px;""></stim_listA>",is kissing,
null,"<div style=""font-size:60px;"">+</div>",,html-keyboard-response,246,1231402,0.0-17.0-0.5,71491,List1A,white,woman,,,,null,,,,
null,"<img src=""stim_listA/marry5.gif""style=""height:400px;""></stim_listA>",,html-keyboard-response,247,1233405,0.0-17.0-1.5,71491,List1A,white,woman,,,,null,,,,
null,is marrying,,html-keyboard-response,248,1235407,0.0-17.0-2.5,71491,List1A,white,woman,,,,null,,,,
9423,,,survey-text,249,1244833,0.0-17.0-3.5,71491,List1A,white,woman,,,,,"{""Q0"":""luke is marring mike""}","<img src=""stim_listA/marry5.gif""style=""height:400px;""></stim_listA>",is marrying,
null,"<div style=""font-size:60px;"">+</div>",,html-keyboard-response,250,1245335,0.0-17.0-0.6,71491,List1A,white,woman,,,,null,,,,
null,"<img src=""stim_listA/kiss7.gif""style=""height:400px;""></stim_listA>",,html-keyboard-response,251,1247338,0.0-17.0-1.6,71491,List1A,white,woman,,,,null,,,,
null,is kissing,,html-keyboard-response,252,1249340,0.0-17.0-2.6,71491,List1A,white,woman,,,,null,,,,
5390,,,survey-text,253,1254732,0.0-17.0-3.6,71491,List1A,white,woman,,,,,"{""Q0"":""beth is kissing ruth""}","<img src=""stim_listA/kiss7.gif""style=""height:400px;""></stim_listA>",is kissing,
null,"<div style=""font-size:60px;"">+</div>",,html-keyboard-response,254,1255234,0.0-17.0-0.7,71491,List1A,white,woman,,,,null,,,,
null,"<img src=""stim_listA/dance7.gif""style=""height:400px;""></stim_listA>",,html-keyboard-response,255,1257238,0.0-17.0-1.7,71491,List1A,white,woman,,,,null,,,,
null,is dancing with,,html-keyboard-response,256,1259251,0.0-17.0-2.7,71491,List1A,white,woman,,,,null,,,,
6038,,,survey-text,257,1265292,0.0-17.0-3.7,71491,List1A,white,woman,,,,,"{""Q0"":""jane is dancing with beth""}","<img src=""stim_listA/dance7.gif""style=""height:400px;""></stim_listA>",is dancing with,
null,"<div style=""font-size:60px;"">+</div>",,html-keyboard-response,258,1265794,0.0-17.0-0.8,71491,List1A,white,woman,,,,null,,,,
null,"<img src=""stim_listA/talk1.gif""style=""height:400px;""></stim_listA>",,html-keyboard-response,259,1267799,0.0-17.0-1.8,71491,List1A,white,woman,,,,null,,,,
null,is talking to,,html-keyboard-response,260,1269803,0.0-17.0-2.8,71491,List1A,white,woman,,,,null,,,,
17775,,,survey-text,261,1287580,0.0-17.0-3.8,71491,List1A,white,woman,,,,,"{""Q0"":""fred is talking to kate""}","<img src=""stim_listA/talk1.gif""style=""height:400px;""></stim_listA>",is talking to,
null,"<div style=""font-size:60px;"">+</div>",,html-keyboard-response,262,1288089,0.0-17.0-0.9,71491,List1A,white,woman,,,,null,,,,
null,"<img src=""stim_listA/touch4.gif""style=""height:400px;""></stim_listA>",,html-keyboard-response,263,1290094,0.0-17.0-1.9,71491,List1A,white,woman,,,,null,,,,
null,are touching each other,,html-keyboard-response,264,1292097,0.0-17.0-2.9,71491,List1A,white,woman,,,,null,,,,
12559,,,survey-text,265,1304658,0.0-17.0-3.9,71491,List1A,white,woman,,,,,"{""Q0"":""ruth and luke are touching each other""}","<img src=""stim_listA/touch4.gif""style=""height:400px;""></stim_listA>",are touching each other,
null,"<div style=""font-size:60px;"">+</div>",,html-keyboard-response,266,1305173,0.0-17.0-0.10,71491,List1A,white,woman,,,,null,,,,
null,"<img src=""stim_listA/argue3.gif""style=""height:400px;""></stim_listA>",,html-keyboard-response,267,1307176,0.0-17.0-1.10,71491,List1A,white,woman,,,,null,,,,
null,is arguing with,,html-keyboard-response,268,1309182,0.0-17.0-2.10,71491,List1A,white,woman,,,,null,,,,
23047,,,survey-text,269,1332231,0.0-17.0-3.10,71491,List1A,white,woman,,,,,"{""Q0"":""dave is arguing with ruth""}","<img src=""stim_listA/argue3.gif""style=""height:400px;""></stim_listA>",is arguing with,
null,"<div style=""font-size:60px;"">+</div>",,html-keyboard-response,270,1332733,0.0-17.0-0.11,71491,List1A,white,woman,,,,null,,,,
null,"<img src=""stim_listA/dance4.gif""style=""height:400px;""></stim_listA>",,html-keyboard-response,271,1334737,0.0-17.0-1.11,71491,List1A,white,woman,,,,null,,,,
null,are dancing with each other,,html-keyboard-response,272,1336739,0.0-17.0-2.11,71491,List1A,white,woman,,,,null,,,,
11124,,,survey-text,273,1347865,0.0-17.0-3.11,71491,List1A,white,woman,,,,,"{""Q0"":""dave is dancing with ruth""}","<img src=""stim_listA/dance4.gif""style=""height:400px;""></stim_listA>",are dancing with each other,
null,"<div style=""font-size:60px;"">+</div>",,html-keyboard-response,274,1348369,0.0-17.0-0.12,71491,List1A,white,woman,,,,null,,,,
null,"<img src=""stim_listA/argue7.gif""style=""height:400px;""></stim_listA>",,html-keyboard-response,275,1350378,0.0-17.0-1.12,71491,List1A,white,woman,,,,null,,,,
null,is arguing with,,html-keyboard-response,276,1352402,0.0-17.0-2.12,71491,List1A,white,woman,,,,null,,,,
6828,,,survey-text,277,1359232,0.0-17.0-3.12,71491,List1A,white,woman,,,,,"{""Q0"":""kate is arguing with ruth""}","<img src=""stim_listA/argue7.gif""style=""height:400px;""></stim_listA>",is arguing with,
null,"<div style=""font-size:60px;"">+</div>",,html-keyboard-response,278,1359735,0.0-17.0-0.13,71491,List1A,white,woman,,,,null,,,,
null,"<img src=""stim_listA/touch6.gif""style=""height:400px;""></stim_listA>",,html-keyboard-response,279,1361737,0.0-17.0-1.13,71491,List1A,white,woman,,,,null,,,,
null,are touching each other,,html-keyboard-response,280,1363746,0.0-17.0-2.13,71491,List1A,white,woman,,,,null,,,,
15134,,,survey-text,281,1378882,0.0-17.0-3.13,71491,List1A,white,woman,,,,,"{""Q0"":""luke and fred are touching each other""}","<img src=""stim_listA/touch6.gif""style=""height:400px;""></stim_listA>",are touching each other,
null,"<div style=""font-size:60px;"">+</div>",,html-keyboard-response,282,1379385,0.0-17.0-0.14,71491,List1A,white,woman,,,,null,,,,
null,"<img src=""stim_listA/flirt3.gif""style=""height:400px;""></stim_listA>",,html-keyboard-response,283,1381389,0.0-17.0-1.14,71491,List1A,white,woman,,,,null,,,,
null,is flirting with,,html-keyboard-response,284,1383392,0.0-17.0-2.14,71491,List1A,white,woman,,,,null,,,,
12109,,,survey-text,285,1395503,0.0-17.0-3.14,71491,List1A,white,woman,,,,,"{""Q0"":""luke is flirting with jane""}","<img src=""stim_listA/flirt3.gif""style=""height:400px;""></stim_listA>",is flirting with,
null,"<div style=""font-size:60px;"">+</div>",,html-keyboard-response,286,1396017,0.0-17.0-0.15,71491,List1A,white,woman,,,,null,,,,
null,"<img src=""stim_listA/talk8.gif""style=""height:400px;""></stim_listA>",,html-keyboard-response,287,1398022,0.0-17.0-1.15,71491,List1A,white,woman,,,,null,,,,
null,are talking to each other,,html-keyboard-response,288,1400026,0.0-17.0-2.15,71491,List1A,white,woman,,,,null,,,,
9224,,,survey-text,289,1409252,0.0-17.0-3.15,71491,List1A,white,woman,,,,,"{""Q0"":""ruth and kate are talkign to each other""}","<img src=""stim_listA/talk8.gif""style=""height:400px;""></stim_listA>",are talking to each other,
null,"<div style=""font-size:60px;"">+</div>",,html-keyboard-response,290,1409754,0.0-17.0-0.16,71491,List1A,white,woman,,,,null,,,,
null,"<img src=""stim_listA/shout6.gif""style=""height:400px;""></stim_listA>",,html-keyboard-response,291,1411757,0.0-17.0-1.16,71491,List1A,white,woman,,,,null,,,,
null,are shouting at each other,,html-keyboard-response,292,1413770,0.0-17.0-2.16,71491,List1A,white,woman,,,,null,,,,
11485,,,survey-text,293,1425257,0.0-17.0-3.16,71491,List1A,white,woman,,,,,"{""Q0"":""dave and mike are shouting at each other""}","<img src=""stim_listA/shout6.gif""style=""height:400px;""></stim_listA>",are shouting at each other,
null,"<div style=""font-size:60px;"">+</div>",,html-keyboard-response,294,1425760,0.0-17.0-0.17,71491,List1A,white,woman,,,,null,,,,
null,"<img src=""stim_listA/fight4.gif""style=""height:400px;""></stim_listA>",,html-keyboard-response,295,1427763,0.0-17.0-1.17,71491,List1A,white,woman,,,,null,,,,
null,are fighting each other,,html-keyboard-response,296,1429764,0.0-17.0-2.17,71491,List1A,white,woman,,,,null,,,,
8759,,,survey-text,297,1438525,0.0-17.0-3.17,71491,List1A,white,woman,,,,,"{""Q0"":""jane and luke are fighting each other""}","<img src=""stim_listA/fight4.gif""style=""height:400px;""></stim_listA>",are fighting each other,
null,"<div style=""font-size:60px;"">+</div>",,html-keyboard-response,298,1439035,0.0-17.0-0.18,71491,List1A,white,woman,,,,null,,,,
null,"<img src=""stim_listA/kiss4.gif""style=""height:400px;""></stim_listA>",,html-keyboard-response,299,1441038,0.0-17.0-1.18,71491,List1A,white,woman,,,,null,,,,
null,are kissing each other,,html-keyboard-response,300,1443047,0.0-17.0-2.18,71491,List1A,white,woman,,,,null,,,,
8718,,,survey-text,301,1451768,0.0-17.0-3.18,71491,List1A,white,woman,,,,,"{""Q0"":""dave and jane are kissing each other""}","<img src=""stim_listA/kiss4.gif""style=""height:400px;""></stim_listA>",are kissing each other,
null,"<div style=""font-size:60px;"">+</div>",,html-keyboard-response,302,1452270,0.0-17.0-0.19,71491,List1A,white,woman,,,,null,,,,
null,"<img src=""stim_listA/play5.gif""style=""height:400px;""></stim_listA>",,html-keyboard-response,303,1454273,0.0-17.0-1.19,71491,List1A,white,woman,,,,null,,,,
null,is playing with,,html-keyboard-response,304,1456274,0.0-17.0-2.19,71491,List1A,white,woman,,,,null,,,,
9063,,,survey-text,305,1465339,0.0-17.0-3.19,71491,List1A,white,woman,,,,,"{""Q0"":""make is playing with dave""}","<img src=""stim_listA/play5.gif""style=""height:400px;""></stim_listA>",is playing with,
3127,"<img src='img/portrait_matrix_list1.jpg' style='width:900px;height:500px;''></img><p>If you have memorised all the portraits and names and are ready to start, press Continue.</p><p><strong>Please note: Your memory of these faces will be tested 4 times during this experiment.</strong></p>",0,html-button-response,306,1468468,0.0-18.0-0.0,71491,List1A,white,woman,,,,,,,,
4664,"<img src=""portrait/BW1.jpg""style=""height:400px;""></img>",0,html-button-response,307,1474140,0.0-18.0-1.0,71491,List1A,white,woman,,TRUE,0,,,,,
null,CORRECT,,html-keyboard-response,308,1475649,0.0-18.0-2.0-0.0,71491,List1A,white,woman,,,,null,,,,
2899,"<img src=""portrait/WM1.jpg""style=""height:400px;""></img>",6,html-button-response,309,1478550,0.0-18.0-4.0,71491,List1A,white,woman,,TRUE,6,,,,,
null,CORRECT,,html-keyboard-response,310,1480054,0.0-18.0-5.0-0.0,71491,List1A,white,woman,,,,null,,,,
2116,"<img src=""portrait/WW2.jpg""style=""height:400px;""></img>",3,html-button-response,311,1482173,0.0-18.0-7.0,71491,List1A,white,woman,,TRUE,3,,,,,
null,CORRECT,,html-keyboard-response,312,1483677,0.0-18.0-8.0-0.0,71491,List1A,white,woman,,,,null,,,,
1971,"<img src=""portrait/WW1.jpg""style=""height:400px;""></img>",1,html-button-response,313,1485652,0.0-18.0-10.0,71491,List1A,white,woman,,TRUE,1,,,,,
null,CORRECT,,html-keyboard-response,314,1487156,0.0-18.0-11.0-0.0,71491,List1A,white,woman,,,,null,,,,
2821,"<img src=""portrait/BM2.jpg""style=""height:400px;""></img>",5,html-button-response,315,1489980,0.0-18.0-13.0,71491,List1A,white,woman,,TRUE,5,,,,,
null,CORRECT,,html-keyboard-response,316,1491494,0.0-18.0-14.0-0.0,71491,List1A,white,woman,,,,null,,,,
2048,"<img src=""portrait/BW2.jpg""style=""height:400px;""></img>",2,html-button-response,317,1493545,0.0-18.0-16.0,71491,List1A,white,woman,,TRUE,2,,,,,
null,CORRECT,,html-keyboard-response,318,1495049,0.0-18.0-17.0-0.0,71491,List1A,white,woman,,,,null,,,,
2361,"<img src=""portrait/WM2.jpg""style=""height:400px;""></img>",7,html-button-response,319,1497414,0.0-18.0-19.0,71491,List1A,white,woman,,TRUE,7,,,,,
null,CORRECT,,html-keyboard-response,320,1498918,0.0-18.0-20.0-0.0,71491,List1A,white,woman,,,,null,,,,
2074,"<img src=""portrait/BM1.jpg""style=""height:400px;""></img>",4,html-button-response,321,1500995,0.0-18.0-22.0,71491,List1A,white,woman,,TRUE,4,,,,,
null,CORRECT,,html-keyboard-response,322,1502501,0.0-18.0-23.0-0.0,71491,List1A,white,woman,,,,null,,,,
1766,<p>You got 8 out of 8 right first time. Press Continue.</p>,0,html-button-response,323,1504270,0.0-18.0-25.0,71491,List1A,white,woman,,,,,,,,
null,"<div style=""font-size:60px;"">+</div>",,html-keyboard-response,324,1505790,0.0-19.0-0.0,71491,List1A,white,woman,,,,null,,,,
null,"<img src=""stim_listA/flirt4.gif""style=""height:400px;""></stim_listA>",,html-keyboard-response,325,1507792,0.0-19.0-1.0,71491,List1A,white,woman,,,,null,,,,
null,are flirting with each other,,html-keyboard-response,326,1509795,0.0-19.0-2.0,71491,List1A,white,woman,,,,null,,,,
18151,,,survey-text,327,1527948,0.0-19.0-3.0,71491,List1A,white,woman,,,,,"{""Q0"":""ruth and dave are flirting with each other""}","<img src=""stim_listA/flirt4.gif""style=""height:400px;""></stim_listA>",are flirting with each other,
null,"<div style=""font-size:60px;"">+</div>",,html-keyboard-response,328,1528450,0.0-19.0-0.1,71491,List1A,white,woman,,,,null,,,,
null,"<img src=""stim_listA/shout1.gif""style=""height:400px;""></stim_listA>",,html-keyboard-response,329,1530454,0.0-19.0-1.1,71491,List1A,white,woman,,,,null,,,,
null,is shouting at,,html-keyboard-response,330,1532468,0.0-19.0-2.1,71491,List1A,white,woman,,,,null,,,,
7010,,,survey-text,331,1539478,0.0-19.0-3.1,71491,List1A,white,woman,,,,,"{""Q0"":""fred is shouting at beth""}","<img src=""stim_listA/shout1.gif""style=""height:400px;""></stim_listA>",is shouting at,
null,"<div style=""font-size:60px;"">+</div>",,html-keyboard-response,332,1539992,0.0-19.0-0.2,71491,List1A,white,woman,,,,null,,,,
null,"<img src=""stim_listA/dance3.gif""style=""height:400px;""></stim_listA>",,html-keyboard-response,333,1541996,0.0-19.0-1.2,71491,List1A,white,woman,,,,null,,,,
null,is dancing with,,html-keyboard-response,334,1543997,0.0-19.0-2.2,71491,List1A,white,woman,,,,null,,,,
6413,,,survey-text,335,1550412,0.0-19.0-3.2,71491,List1A,white,woman,,,,,"{""Q0"":""jane is dancing with luke""}","<img src=""stim_listA/dance3.gif""style=""height:400px;""></stim_listA>",is dancing with,
null,"<div style=""font-size:60px;"">+</div>",,html-keyboard-response,336,1550923,0.0-19.0-0.3,71491,List1A,white,woman,,,,null,,,,
null,"<img src=""stim_listA/talk4.gif""style=""height:400px;""></stim_listA>",,html-keyboard-response,337,1552927,0.0-19.0-1.3,71491,List1A,white,woman,,,,null,,,,
null,are talking to each other,,html-keyboard-response,338,1554930,0.0-19.0-2.3,71491,List1A,white,woman,,,,null,,,,
13871,,,survey-text,339,1568803,0.0-19.0-3.3,71491,List1A,white,woman,,,,,"{""Q0"":""ruth ad dave are talking to each other""}","<img src=""stim_listA/talk4.gif""style=""height:400px;""></stim_listA>",are talking to each other,
null,"<div style=""font-size:60px;"">+</div>",,html-keyboard-response,340,1569305,0.0-19.0-0.4,71491,List1A,white,woman,,,,null,,,,
null,"<img src=""stim_listA/marry4.gif""style=""height:400px;""></stim_listA>",,html-keyboard-response,341,1571309,0.0-19.0-1.4,71491,List1A,white,woman,,,,null,,,,
null,are marrying each other,,html-keyboard-response,342,1573311,0.0-19.0-2.4,71491,List1A,white,woman,,,,null,,,,
9330,,,survey-text,343,1582643,0.0-19.0-3.4,71491,List1A,white,woman,,,,,"{""Q0"":""jane and lukeare marrying each other""}","<img src=""stim_listA/marry4.gif""style=""height:400px;""></stim_listA>",are marrying each other,
null,"<div style=""font-size:60px;"">+</div>",,html-keyboard-response,344,1583153,0.0-19.0-0.5,71491,List1A,white,woman,,,,null,,,,
null,"<img src=""stim_listA/play8.gif""style=""height:400px;""></stim_listA>",,html-keyboard-response,345,1585162,0.0-19.0-1.5,71491,List1A,white,woman,,,,null,,,,
null,are playing with each other,,html-keyboard-response,346,1587164,0.0-19.0-2.5,71491,List1A,white,woman,,,,null,,,,
10891,,,survey-text,347,1598057,0.0-19.0-3.5,71491,List1A,white,woman,,,,,"{""Q0"":""beth and ruth are playing with each other""}","<img src=""stim_listA/play8.gif""style=""height:400px;""></stim_listA>",are playing with each other,
null,"<div style=""font-size:60px;"">+</div>",,html-keyboard-response,348,1598560,0.0-19.0-0.6,71491,List1A,white,woman,,,,null,,,,
null,"<img src=""stim_listA/argue1.gif""style=""height:400px;""></stim_listA>",,html-keyboard-response,349,1600564,0.0-19.0-1.6,71491,List1A,white,woman,,,,null,,,,
null,is arguing with,,html-keyboard-response,350,1602566,0.0-19.0-2.6,71491,List1A,white,woman,,,,null,,,,
10097,,,survey-text,351,1612667,0.0-19.0-3.6,71491,List1A,white,woman,,,,,"{""Q0"":""mike is arguing with beth""}","<img src=""stim_listA/argue1.gif""style=""height:400px;""></stim_listA>",is arguing with,
null,"<div style=""font-size:60px;"">+</div>",,html-keyboard-response,352,1613177,0.0-19.0-0.7,71491,List1A,white,woman,,,,null,,,,
null,"<img src=""stim_listA/talk5.gif""style=""height:400px;""></stim_listA>",,html-keyboard-response,353,1615187,0.0-19.0-1.7,71491,List1A,white,woman,,,,null,,,,
null,is talking to,,html-keyboard-response,354,1617188,0.0-19.0-2.7,71491,List1A,white,woman,,,,null,,,,
6411,,,survey-text,355,1623601,0.0-19.0-3.7,71491,List1A,white,woman,,,,,"{""Q0"":""fred is talking to dave""}","<img src=""stim_listA/talk5.gif""style=""height:400px;""></stim_listA>",is talking to,
null,"<div style=""font-size:60px;"">+</div>",,html-keyboard-response,356,1624108,0.0-19.0-0.8,71491,List1A,white,woman,,,,null,,,,
null,"<img src=""stim_listA/play2.gif""style=""height:400px;""></stim_listA>",,html-keyboard-response,357,1626117,0.0-19.0-1.8,71491,List1A,white,woman,,,,null,,,,
null,are playing with each other,,html-keyboard-response,358,1628119,0.0-19.0-2.8,71491,List1A,white,woman,,,,null,,,,
12077,,,survey-text,359,1640199,0.0-19.0-3.8,71491,List1A,white,woman,,,,,"{""Q0"":""fred and beth are playing with each other""}","<img src=""stim_listA/play2.gif""style=""height:400px;""></stim_listA>",are playing with each other,
null,"<div style=""font-size:60px;"">+</div>",,html-keyboard-response,360,1640702,0.0-19.0-0.9,71491,List1A,white,woman,,,,null,,,,
null,"<img src=""stim_listA/argue5.gif""style=""height:400px;""></stim_listA>",,html-keyboard-response,361,1642706,0.0-19.0-1.9,71491,List1A,white,woman,,,,null,,,,
null,is arguing with,,html-keyboard-response,362,1644707,0.0-19.0-2.9,71491,List1A,white,woman,,,,null,,,,
6644,,,survey-text,363,1651353,0.0-19.0-3.9,71491,List1A,white,woman,,,,,"{""Q0"":""mike is arguing withluke""}","<img src=""stim_listA/argue5.gif""style=""height:400px;""></stim_listA>",is arguing with,
null,"<div style=""font-size:60px;"">+</div>",,html-keyboard-response,364,1651859,0.0-19.0-0.10,71491,List1A,white,woman,,,,null,,,,
null,"<img src=""stim_listA/marry6.gif""style=""height:400px;""></stim_listA>",,html-keyboard-response,365,1653876,0.0-19.0-1.10,71491,List1A,white,woman,,,,null,,,,
null,are marrying each other,,html-keyboard-response,366,1655879,0.0-19.0-2.10,71491,List1A,white,woman,,,,null,,,,
8808,,,survey-text,367,1664689,0.0-19.0-3.10,71491,List1A,white,woman,,,,,"{""Q0"":""dave and fred are marrying each other""}","<img src=""stim_listA/marry6.gif""style=""height:400px;""></stim_listA>",are marrying each other,
null,"<div style=""font-size:60px;"">+</div>",,html-keyboard-response,368,1665192,0.0-19.0-0.11,71491,List1A,white,woman,,,,null,,,,
null,"<img src=""stim_listA/touch2.gif""style=""height:400px;""></stim_listA>",,html-keyboard-response,369,1667207,0.0-19.0-1.11,71491,List1A,white,woman,,,,null,,,,
null,are touching each other,,html-keyboard-response,370,1669221,0.0-19.0-2.11,71491,List1A,white,woman,,,,null,,,,
10508,,,survey-text,371,1679731,0.0-19.0-3.11,71491,List1A,white,woman,,,,,"{""Q0"":""beth and fred are touching each other""}","<img src=""stim_listA/touch2.gif""style=""height:400px;""></stim_listA>",are touching each other,
null,"<div style=""font-size:60px;"">+</div>",,html-keyboard-response,372,1680234,0.0-19.0-0.12,71491,List1A,white,woman,,,,null,,,,
null,"<img src=""stim_listA/marry8.gif""style=""height:400px;""></stim_listA>",,html-keyboard-response,373,1682237,0.0-19.0-1.12,71491,List1A,white,woman,,,,null,,,,
null,are marrying each other,,html-keyboard-response,374,1684253,0.0-19.0-2.12,71491,List1A,white,woman,,,,null,,,,
9528,,,survey-text,375,1693783,0.0-19.0-3.12,71491,List1A,white,woman,,,,,"{""Q0"":""beth and jane are marrying each other""}","<img src=""stim_listA/marry8.gif""style=""height:400px;""></stim_listA>",are marrying each other,
null,"<div style=""font-size:60px;"">+</div>",,html-keyboard-response,376,1694285,0.0-19.0-0.13,71491,List1A,white,woman,,,,null,,,,
null,"<img src=""stim_listA/argue8.gif""style=""height:400px;""></stim_listA>",,html-keyboard-response,377,1696288,0.0-19.0-1.13,71491,List1A,white,woman,,,,null,,,,
null,are arguing with each other,,html-keyboard-response,378,1698303,0.0-19.0-2.13,71491,List1A,white,woman,,,,null,,,,
9786,,,survey-text,379,1708091,0.0-19.0-3.13,71491,List1A,white,woman,,,,,"{""Q0"":""beth and jane are arguing with each other""}","<img src=""stim_listA/argue8.gif""style=""height:400px;""></stim_listA>",are arguing with each other,
null,"<div style=""font-size:60px;"">+</div>",,html-keyboard-response,380,1708593,0.0-19.0-0.14,71491,List1A,white,woman,,,,null,,,,
null,"<img src=""stim_listA/shout8.gif""style=""height:400px;""></stim_listA>",,html-keyboard-response,381,1710596,0.0-19.0-1.14,71491,List1A,white,woman,,,,null,,,,
null,are shouting at each other,,html-keyboard-response,382,1712604,0.0-19.0-2.14,71491,List1A,white,woman,,,,null,,,,
9543,,,survey-text,383,1722149,0.0-19.0-3.14,71491,List1A,white,woman,,,,,"{""Q0"":""kate and jane are shoutingnat each ther""}","<img src=""stim_listA/shout8.gif""style=""height:400px;""></stim_listA>",are shouting at each other,
null,"<div style=""font-size:60px;"">+</div>",,html-keyboard-response,384,1722664,0.0-19.0-0.15,71491,List1A,white,woman,,,,null,,,,
null,"<img src=""stim_listA/marry1.gif""style=""height:400px;""></stim_listA>",,html-keyboard-response,385,1724666,0.0-19.0-1.15,71491,List1A,white,woman,,,,null,,,,
null,is marrying,,html-keyboard-response,386,1726668,0.0-19.0-2.15,71491,List1A,white,woman,,,,null,,,,
5995,,,survey-text,387,1732665,0.0-19.0-3.15,71491,List1A,white,woman,,,,,"{""Q0"":""mike is marrying beth""}","<img src=""stim_listA/marry1.gif""style=""height:400px;""></stim_listA>",is marrying,
null,"<div style=""font-size:60px;"">+</div>",,html-keyboard-response,388,1733183,0.0-19.0-0.16,71491,List1A,white,woman,,,,null,,,,
null,"<img src=""stim_listA/talk3.gif""style=""height:400px;""></stim_listA>",,html-keyboard-response,389,1735186,0.0-19.0-1.16,71491,List1A,white,woman,,,,null,,,,
null,is talking to,,html-keyboard-response,390,1737188,0.0-19.0-2.16,71491,List1A,white,woman,,,,null,,,,
6120,,,survey-text,391,1743310,0.0-19.0-3.16,71491,List1A,white,woman,,,,,"{""Q0"":""jane is talking to luke""}","<img src=""stim_listA/talk3.gif""style=""height:400px;""></stim_listA>",is talking to,
null,"<div style=""font-size:60px;"">+</div>",,html-keyboard-response,392,1743813,0.0-19.0-0.17,71491,List1A,white,woman,,,,null,,,,
null,"<img src=""stim_listA/fight1.gif""style=""height:400px;""></stim_listA>",,html-keyboard-response,393,1745816,0.0-19.0-1.17,71491,List1A,white,woman,,,,null,,,,
null,is fighting,,html-keyboard-response,394,1747819,0.0-19.0-2.17,71491,List1A,white,woman,,,,null,,,,
6905,,,survey-text,395,1754726,0.0-19.0-3.17,71491,List1A,white,woman,,,,,"{""Q0"":""kate isfighting with mike""}","<img src=""stim_listA/fight1.gif""style=""height:400px;""></stim_listA>",is fighting,
null,"<div style=""font-size:60px;"">+</div>",,html-keyboard-response,396,1755228,0.0-19.0-0.18,71491,List1A,white,woman,,,,null,,,,
null,"<img src=""stim_listA/shout2.gif""style=""height:400px;""></stim_listA>",,html-keyboard-response,397,1757232,0.0-19.0-1.18,71491,List1A,white,woman,,,,null,,,,
null,are shouting at each other,,html-keyboard-response,398,1759233,0.0-19.0-2.18,71491,List1A,white,woman,,,,null,,,,
11886,,,survey-text,399,1771121,0.0-19.0-3.18,71491,List1A,white,woman,,,,,"{""Q0"":""kate and mike are shouting at each other""}","<img src=""stim_listA/shout2.gif""style=""height:400px;""></stim_listA>",are shouting at each other,
null,"<div style=""font-size:60px;"">+</div>",,html-keyboard-response,400,1771636,0.0-19.0-0.19,71491,List1A,white,woman,,,,null,,,,
null,"<img src=""stim_listA/kiss5.gif""style=""height:400px;""></stim_listA>",,html-keyboard-response,401,1773640,0.0-19.0-1.19,71491,List1A,white,woman,,,,null,,,,
null,is kissing,,html-keyboard-response,402,1775643,0.0-19.0-2.19,71491,List1A,white,woman,,,,null,,,,
5292,,,survey-text,403,1780937,0.0-19.0-3.19,71491,List1A,white,woman,,,,,"{""Q0"":""mike is kissing luke""}","<img src=""stim_listA/kiss5.gif""style=""height:400px;""></stim_listA>",is kissing,
2344,<p>Thank you for completing that task.</p><p>The final part of this session is a short questionnaire.</p><p>Press Continue.</p>,0,html-button-response,404,1783283,0.0-20.0,71491,List1A,white,woman,,,,,,,,
20915,,,survey-text,405,1805207,0.0-21.0,71491,List1A,white,woman,,,,,"{""Q0"":""33"",""Q1"":""english"",""Q2"":""english"",""Q3"":""uk"",""Q4"":""british"",""Q5"":""female""}",,,demographics
6626,,,survey-likert,406,1811836,0.0-22.0,71491,List1A,white,woman,,,,,"{""Q0"":4}",,,likert_ESS
4384,,,survey-likert,407,1816224,0.0-23.0,71491,List1A,white,woman,,,,,"{""Q0"":4}",,,likert_NSSAL_Q1
3431,,,survey-likert,408,1819658,0.0-24.0,71491,List1A,white,woman,,,,,"{""Q0"":4}",,,likert_NSSAL_Q2
4754,,,survey-likert,409,1824415,0.0-25.0,71491,List1A,white,woman,,,,,"{""Q0"":4}",,,likert_CGRS_Q1
3795,,,survey-likert,410,1828214,0.0-26.0,71491,List1A,white,woman,,,,,"{""Q0"":4}",,,likert_CGRS_Q2
4973,,,survey-likert,411,1833189,0.0-27.0,71491,List1A,white,woman,,,,,"{""Q0"":4}",,,likert_CGRS_Q3
3921,,,survey-text,412,1837112,0.0-28.0,71491,List1A,white,woman,,,,,"{""Q0"":""ccc""}",,,worker_id
3081,,,external-html,413,1840268,0.0-29.0,71491,List1A,white,woman,debrief.html,,,,,,,
