rt,stimulus,button_pressed,trial_type,trial_index,time_elapsed,internal_node_id,subject,list,ppt_race,ppt_gender,url,first_guess,correct,key_press,responses,image_type,phrase_type,test_part
2634,Welcome to the experiment. Press Continue to begin.,0,html-button-response,0,2649,0.0-0.0,71600,List2A,black,man,,,,,,,,
11380,,,external-html,1,15195,0.0-1.0,71600,List2A,black,man,consent.html,,,,,,,
14543,"<p>On the next page, you will see portraits of 8 people and their names.</p><p>Your first task is to take a few minutes to memorise the names of these people.</p><p>You will have to recall their names during the rest of the experiment, so it is</p><p>essential that you try to memorise these people and their names as best as you can.</p><br><p><strong>You will then be tested on your memory of these names and portraits.</strong></p><br><p>The experiment will start after you have completed this memory test.</p><br><p>Ready?</p>",0,html-button-response,2,29749,0.0-2.0,71600,List2A,black,man,,,,,,,,
65966,"<img src='img/portrait_matrix_list2.jpg' style='width:900px;height:500px;''></img><p>If you have memorised all the portraits and names and are ready to start, press Continue.</p><p><strong>Please note: Your memory of these faces will be tested 4 times during this experiment.</strong></p>",0,html-button-response,3,96736,0.0-3.0-0.0,71600,List2A,black,man,,,,,,,,
18000,"<img src=""portrait/BW2.jpg""style=""height:400px;""></img>",2,html-button-response,4,115760,0.0-3.0-1.0,71600,List2A,black,man,,TRUE,2,,,,,
null,CORRECT,,html-keyboard-response,5,117296,0.0-3.0-2.0-0.0,71600,List2A,black,man,,,,null,,,,
5836,"<img src=""portrait/BM1.jpg""style=""height:400px;""></img>",4,html-button-response,6,123146,0.0-3.0-4.0,71600,List2A,black,man,,TRUE,4,,,,,
null,CORRECT,,html-keyboard-response,7,124667,0.0-3.0-5.0-0.0,71600,List2A,black,man,,,,null,,,,
3365,"<img src=""portrait/WM1.jpg""style=""height:400px;""></img>",6,html-button-response,8,128044,0.0-3.0-7.0,71600,List2A,black,man,,TRUE,6,,,,,
null,CORRECT,,html-keyboard-response,9,129557,0.0-3.0-8.0-0.0,71600,List2A,black,man,,,,null,,,,
3669,"<img src=""portrait/WW1.jpg""style=""height:400px;""></img>",1,html-button-response,10,133240,0.0-3.0-10.0,71600,List2A,black,man,,TRUE,1,,,,,
null,CORRECT,,html-keyboard-response,11,134753,0.0-3.0-11.0-0.0,71600,List2A,black,man,,,,null,,,,
3142,"<img src=""portrait/WW2.jpg""style=""height:400px;""></img>",3,html-button-response,12,137907,0.0-3.0-13.0,71600,List2A,black,man,,TRUE,3,,,,,
null,CORRECT,,html-keyboard-response,13,139424,0.0-3.0-14.0-0.0,71600,List2A,black,man,,,,null,,,,
3828,"<img src=""portrait/WM2.jpg""style=""height:400px;""></img>",7,html-button-response,14,143267,0.0-3.0-16.0,71600,List2A,black,man,,TRUE,7,,,,,
null,CORRECT,,html-keyboard-response,15,144789,0.0-3.0-17.0-0.0,71600,List2A,black,man,,,,null,,,,
2461,"<img src=""portrait/BM2.jpg""style=""height:400px;""></img>",5,html-button-response,16,147262,0.0-3.0-19.0,71600,List2A,black,man,,TRUE,5,,,,,
null,CORRECT,,html-keyboard-response,17,148779,0.0-3.0-20.0-0.0,71600,List2A,black,man,,,,null,,,,
3839,"<img src=""portrait/BW1.jpg""style=""height:400px;""></img>",0,html-button-response,18,152631,0.0-3.0-22.0,71600,List2A,black,man,,TRUE,0,,,,,
null,CORRECT,,html-keyboard-response,19,154150,0.0-3.0-23.0-0.0,71600,List2A,black,man,,,,null,,,,
1745,<p>You got 8 out of 8 right first time. Press Continue.</p>,0,html-button-response,20,155906,0.0-3.0-25.0,71600,List2A,black,man,,,,,,,,
29325,"<p>In this experiment, you will view photographs of the people from the memory game interacting.</p><p>By using the <strong>exact</strong> phrase given <i>after</i> the photograph appears and recalling the correct names of the people in the photographs, form a sentence describing the interaction. You do not need to capitalise names.</p><p>Type your answer in the space provided. Please complete every sentence before moving onto the next trial.</p><p>You will only have a few seconds to memorise each given photograph and phrase before you can respond, so try your best to focus.</p><p>An example is given below. Press 'Continue' when you are ready.</p><img src='img/speaking_example.jpg' style='width:800px;height:460px;''></img>",0,html-button-response,21,186251,0.0-4.0,71600,List2A,black,man,,,,,,,,
2688,"<p>Before the experiment starts, you will watch two example trials. Press 'Continue'.</p>",0,html-button-response,22,189959,0.0-5.0,71600,List2A,black,man,,,,,,,,
null,<img src='img/meet_eg.gif' style='height:400px;''></img>,,html-keyboard-response,23,192988,0.0-6.0,71600,List2A,black,man,,,,null,,,,
null,<p>is meeting</p>,,html-keyboard-response,24,195007,0.0-7.0,71600,List2A,black,man,,,,null,,,,
3283,<p><b>Answer:</b> jane is meeting ruth</p>,0,html-button-response,25,198300,0.0-8.0,71600,List2A,black,man,,,,,,,,
null,<img src='img/look_eg.gif' style='height:400px;''></img>,,html-keyboard-response,26,201321,0.0-9.0,71600,List2A,black,man,,,,null,,,,
null,<p>are looking at each other</p>,,html-keyboard-response,27,203339,0.0-10.0,71600,List2A,black,man,,,,null,,,,
2538,<p><b>Answer:</b> fred and mike are looking at each other</p>,0,html-button-response,28,205887,0.0-11.0,71600,List2A,black,man,,,,,,,,
9427,"<p>Ready to start the experiment?</p><br><p><strong>Remember to describe the picture using a full sentence,</strong></p><p><strong>that combines the names of the people with the <i>exact</i> phrase given.</strong></p><p><strong>To receive full payment you must do this correctly.</strong></p><p><strong> You do not need to capitalise names or use punctuation.</strong></p><br><p>Press 'Continue' to begin.</p>",0,html-button-response,29,216337,0.0-12.0,71600,List2A,black,man,,,,,,,,
null,"<div style=""font-size:60px;"">+</div>",,html-keyboard-response,30,217857,0.0-13.0-0.0,71600,List2A,black,man,,,,null,,,,
null,"<img src=""stim_listA/argue2.gif""style=""height:400px;""></stim_listA>",,html-keyboard-response,31,219876,0.0-13.0-1.0,71600,List2A,black,man,,,,null,,,,
null,are arguing with each other,,html-keyboard-response,32,221885,0.0-13.0-2.0,71600,List2A,black,man,,,,null,,,,
23946,,,survey-text,33,245846,0.0-13.0-3.0,71600,List2A,black,man,,,,,"{""Q0"":""Jane and Ruth are arguing with each other ""}","<img src=""stim_listA/argue2.gif""style=""height:400px;""></stim_listA>",are arguing with each other,
null,"<div style=""font-size:60px;"">+</div>",,html-keyboard-response,34,246356,0.0-13.0-0.1,71600,List2A,black,man,,,,null,,,,
null,"<img src=""stim_listA/play6.gif""style=""height:400px;""></stim_listA>",,html-keyboard-response,35,248369,0.0-13.0-1.1,71600,List2A,black,man,,,,null,,,,
null,are playing with each other,,html-keyboard-response,36,250381,0.0-13.0-2.1,71600,List2A,black,man,,,,null,,,,
25966,,,survey-text,37,276356,0.0-13.0-3.1,71600,List2A,black,man,,,,,"{""Q0"":""Luke is playing with Fred ""}","<img src=""stim_listA/play6.gif""style=""height:400px;""></stim_listA>",are playing with each other,
null,"<div style=""font-size:60px;"">+</div>",,html-keyboard-response,38,276863,0.0-13.0-0.2,71600,List2A,black,man,,,,null,,,,
null,"<img src=""stim_listA/fight6.gif""style=""height:400px;""></stim_listA>",,html-keyboard-response,39,278871,0.0-13.0-1.2,71600,List2A,black,man,,,,null,,,,
null,are fighting each other,,html-keyboard-response,40,280882,0.0-13.0-2.2,71600,List2A,black,man,,,,null,,,,
5822,,,survey-text,41,286715,0.0-13.0-3.2,71600,List2A,black,man,,,,,"{""Q0"":""Luke is fighting with Fred ""}","<img src=""stim_listA/fight6.gif""style=""height:400px;""></stim_listA>",are fighting each other,
null,"<div style=""font-size:60px;"">+</div>",,html-keyboard-response,42,287220,0.0-13.0-0.3,71600,List2A,black,man,,,,null,,,,
null,"<img src=""stim_listA/play1.gif""style=""height:400px;""></stim_listA>",,html-keyboard-response,43,289233,0.0-13.0-1.3,71600,List2A,black,man,,,,null,,,,
null,is playing with,,html-keyboard-response,44,291251,0.0-13.0-2.3,71600,List2A,black,man,,,,null,,,,
8500,,,survey-text,45,299762,0.0-13.0-3.3,71600,List2A,black,man,,,,,"{""Q0"":""Dave is playing with Jane ""}","<img src=""stim_listA/play1.gif""style=""height:400px;""></stim_listA>",is playing with,
null,"<div style=""font-size:60px;"">+</div>",,html-keyboard-response,46,300269,0.0-13.0-0.4,71600,List2A,black,man,,,,null,,,,
null,"<img src=""stim_listA/argue5.gif""style=""height:400px;""></stim_listA>",,html-keyboard-response,47,302281,0.0-13.0-1.4,71600,List2A,black,man,,,,null,,,,
null,is arguing with,,html-keyboard-response,48,304294,0.0-13.0-2.4,71600,List2A,black,man,,,,null,,,,
12182,,,survey-text,49,316487,0.0-13.0-3.4,71600,List2A,black,man,,,,,"{""Q0"":""Fred is arguing with Dave ""}","<img src=""stim_listA/argue5.gif""style=""height:400px;""></stim_listA>",is arguing with,
null,"<div style=""font-size:60px;"">+</div>",,html-keyboard-response,50,316993,0.0-13.0-0.5,71600,List2A,black,man,,,,null,,,,
null,"<img src=""stim_listA/flirt2.gif""style=""height:400px;""></stim_listA>",,html-keyboard-response,51,319005,0.0-13.0-1.5,71600,List2A,black,man,,,,null,,,,
null,are flirting with each other,,html-keyboard-response,52,321017,0.0-13.0-2.5,71600,List2A,black,man,,,,null,,,,
14073,,,survey-text,53,335101,0.0-13.0-3.5,71600,List2A,black,man,,,,,"{""Q0"":""Ruth is flirting with Dave ""}","<img src=""stim_listA/flirt2.gif""style=""height:400px;""></stim_listA>",are flirting with each other,
null,"<div style=""font-size:60px;"">+</div>",,html-keyboard-response,54,335606,0.0-13.0-0.6,71600,List2A,black,man,,,,null,,,,
null,"<img src=""stim_listA/play2.gif""style=""height:400px;""></stim_listA>",,html-keyboard-response,55,337619,0.0-13.0-1.6,71600,List2A,black,man,,,,null,,,,
null,are playing with each other,,html-keyboard-response,56,339630,0.0-13.0-2.6,71600,List2A,black,man,,,,null,,,,
7220,,,survey-text,57,346860,0.0-13.0-3.6,71600,List2A,black,man,,,,,"{""Q0"":""Luke is playing with Ruth ""}","<img src=""stim_listA/play2.gif""style=""height:400px;""></stim_listA>",are playing with each other,
null,"<div style=""font-size:60px;"">+</div>",,html-keyboard-response,58,347367,0.0-13.0-0.7,71600,List2A,black,man,,,,null,,,,
null,"<img src=""stim_listA/shout6.gif""style=""height:400px;""></stim_listA>",,html-keyboard-response,59,349380,0.0-13.0-1.7,71600,List2A,black,man,,,,null,,,,
null,are shouting at each other,,html-keyboard-response,60,351392,0.0-13.0-2.7,71600,List2A,black,man,,,,null,,,,
6535,,,survey-text,61,357937,0.0-13.0-3.7,71600,List2A,black,man,,,,,"{""Q0"":""Fred is shouting with Dave ""}","<img src=""stim_listA/shout6.gif""style=""height:400px;""></stim_listA>",are shouting at each other,
null,"<div style=""font-size:60px;"">+</div>",,html-keyboard-response,62,358446,0.0-13.0-0.8,71600,List2A,black,man,,,,null,,,,
null,"<img src=""stim_listA/flirt6.gif""style=""height:400px;""></stim_listA>",,html-keyboard-response,63,360459,0.0-13.0-1.8,71600,List2A,black,man,,,,null,,,,
null,are flirting with each other,,html-keyboard-response,64,362470,0.0-13.0-2.8,71600,List2A,black,man,,,,null,,,,
5542,,,survey-text,65,368022,0.0-13.0-3.8,71600,List2A,black,man,,,,,"{""Q0"":""Fred is flirting with Dave ""}","<img src=""stim_listA/flirt6.gif""style=""height:400px;""></stim_listA>",are flirting with each other,
null,"<div style=""font-size:60px;"">+</div>",,html-keyboard-response,66,368536,0.0-13.0-0.9,71600,List2A,black,man,,,,null,,,,
null,"<img src=""stim_listA/dance3.gif""style=""height:400px;""></stim_listA>",,html-keyboard-response,67,370550,0.0-13.0-1.9,71600,List2A,black,man,,,,null,,,,
null,is dancing with,,html-keyboard-response,68,372560,0.0-13.0-2.9,71600,List2A,black,man,,,,null,,,,
6228,,,survey-text,69,378796,0.0-13.0-3.9,71600,List2A,black,man,,,,,"{""Q0"":""Fred is dancing with Kate ""}","<img src=""stim_listA/dance3.gif""style=""height:400px;""></stim_listA>",is dancing with,
null,"<div style=""font-size:60px;"">+</div>",,html-keyboard-response,70,379304,0.0-13.0-0.10,71600,List2A,black,man,,,,null,,,,
null,"<img src=""stim_listA/shout5.gif""style=""height:400px;""></stim_listA>",,html-keyboard-response,71,381318,0.0-13.0-1.10,71600,List2A,black,man,,,,null,,,,
null,is shouting at,,html-keyboard-response,72,383328,0.0-13.0-2.10,71600,List2A,black,man,,,,null,,,,
5905,,,survey-text,73,389242,0.0-13.0-3.10,71600,List2A,black,man,,,,,"{""Q0"":""Fred is shouting at Luke ""}","<img src=""stim_listA/shout5.gif""style=""height:400px;""></stim_listA>",is shouting at,
null,"<div style=""font-size:60px;"">+</div>",,html-keyboard-response,74,389748,0.0-13.0-0.11,71600,List2A,black,man,,,,null,,,,
null,"<img src=""stim_listA/fight7.gif""style=""height:400px;""></stim_listA>",,html-keyboard-response,75,391756,0.0-13.0-1.11,71600,List2A,black,man,,,,null,,,,
null,is fighting,,html-keyboard-response,76,393766,0.0-13.0-2.11,71600,List2A,black,man,,,,null,,,,
6653,,,survey-text,77,400431,0.0-13.0-3.11,71600,List2A,black,man,,,,,"{""Q0"":""Kate is fighting Ruth ""}","<img src=""stim_listA/fight7.gif""style=""height:400px;""></stim_listA>",is fighting,
null,"<div style=""font-size:60px;"">+</div>",,html-keyboard-response,78,400937,0.0-13.0-0.12,71600,List2A,black,man,,,,null,,,,
null,"<img src=""stim_listA/kiss7.gif""style=""height:400px;""></stim_listA>",,html-keyboard-response,79,402946,0.0-13.0-1.12,71600,List2A,black,man,,,,null,,,,
null,is kissing,,html-keyboard-response,80,404956,0.0-13.0-2.12,71600,List2A,black,man,,,,null,,,,
4696,,,survey-text,81,409660,0.0-13.0-3.12,71600,List2A,black,man,,,,,"{""Q0"":""Kate is kissing Ruth ""}","<img src=""stim_listA/kiss7.gif""style=""height:400px;""></stim_listA>",is kissing,
null,"<div style=""font-size:60px;"">+</div>",,html-keyboard-response,82,410167,0.0-13.0-0.13,71600,List2A,black,man,,,,null,,,,
null,"<img src=""stim_listA/play8.gif""style=""height:400px;""></stim_listA>",,html-keyboard-response,83,412175,0.0-13.0-1.13,71600,List2A,black,man,,,,null,,,,
null,are playing with each other,,html-keyboard-response,84,414195,0.0-13.0-2.13,71600,List2A,black,man,,,,null,,,,
8185,,,survey-text,85,422393,0.0-13.0-3.13,71600,List2A,black,man,,,,,"{""Q0"":""Kate is playing with Ruth ""}","<img src=""stim_listA/play8.gif""style=""height:400px;""></stim_listA>",are playing with each other,
null,"<div style=""font-size:60px;"">+</div>",,html-keyboard-response,86,422902,0.0-13.0-0.14,71600,List2A,black,man,,,,null,,,,
null,"<img src=""stim_listA/fight1.gif""style=""height:400px;""></stim_listA>",,html-keyboard-response,87,424918,0.0-13.0-1.14,71600,List2A,black,man,,,,null,,,,
null,is fighting,,html-keyboard-response,88,426929,0.0-13.0-2.14,71600,List2A,black,man,,,,null,,,,
5035,,,survey-text,89,431975,0.0-13.0-3.14,71600,List2A,black,man,,,,,"{""Q0"":""Dave is fighting Jane ""}","<img src=""stim_listA/fight1.gif""style=""height:400px;""></stim_listA>",is fighting,
null,"<div style=""font-size:60px;"">+</div>",,html-keyboard-response,90,432480,0.0-13.0-0.15,71600,List2A,black,man,,,,null,,,,
null,"<img src=""stim_listA/shout8.gif""style=""height:400px;""></stim_listA>",,html-keyboard-response,91,434493,0.0-13.0-1.15,71600,List2A,black,man,,,,null,,,,
null,are shouting at each other,,html-keyboard-response,92,436503,0.0-13.0-2.15,71600,List2A,black,man,,,,null,,,,
5461,,,survey-text,93,441973,0.0-13.0-3.15,71600,List2A,black,man,,,,,"{""Q0"":""Kate is shouting at Jane ""}","<img src=""stim_listA/shout8.gif""style=""height:400px;""></stim_listA>",are shouting at each other,
null,"<div style=""font-size:60px;"">+</div>",,html-keyboard-response,94,442479,0.0-13.0-0.16,71600,List2A,black,man,,,,null,,,,
null,"<img src=""stim_listA/dance1.gif""style=""height:400px;""></stim_listA>",,html-keyboard-response,95,444490,0.0-13.0-1.16,71600,List2A,black,man,,,,null,,,,
null,is dancing with,,html-keyboard-response,96,446501,0.0-13.0-2.16,71600,List2A,black,man,,,,null,,,,
5816,,,survey-text,97,452327,0.0-13.0-3.16,71600,List2A,black,man,,,,,"{""Q0"":""Luke is dancing with Ruth ""}","<img src=""stim_listA/dance1.gif""style=""height:400px;""></stim_listA>",is dancing with,
null,"<div style=""font-size:60px;"">+</div>",,html-keyboard-response,98,452835,0.0-13.0-0.17,71600,List2A,black,man,,,,null,,,,
null,"<img src=""stim_listA/touch7.gif""style=""height:400px;""></stim_listA>",,html-keyboard-response,99,454850,0.0-13.0-1.17,71600,List2A,black,man,,,,null,,,,
null,is touching,,html-keyboard-response,100,456869,0.0-13.0-2.17,71600,List2A,black,man,,,,null,,,,
4334,,,survey-text,101,461212,0.0-13.0-3.17,71600,List2A,black,man,,,,,"{""Q0"":""Jane is touching Kate ""}","<img src=""stim_listA/touch7.gif""style=""height:400px;""></stim_listA>",is touching,
null,"<div style=""font-size:60px;"">+</div>",,html-keyboard-response,102,461724,0.0-13.0-0.18,71600,List2A,black,man,,,,null,,,,
null,"<img src=""stim_listA/shout1.gif""style=""height:400px;""></stim_listA>",,html-keyboard-response,103,463738,0.0-13.0-1.18,71600,List2A,black,man,,,,null,,,,
null,is shouting at,,html-keyboard-response,104,465749,0.0-13.0-2.18,71600,List2A,black,man,,,,null,,,,
5920,,,survey-text,105,471680,0.0-13.0-3.18,71600,List2A,black,man,,,,,"{""Q0"":""Luke is shouting at Ruth ""}","<img src=""stim_listA/shout1.gif""style=""height:400px;""></stim_listA>",is shouting at,
null,"<div style=""font-size:60px;"">+</div>",,html-keyboard-response,106,472186,0.0-13.0-0.19,71600,List2A,black,man,,,,null,,,,
null,"<img src=""stim_listA/touch4.gif""style=""height:400px;""></stim_listA>",,html-keyboard-response,107,474195,0.0-13.0-1.19,71600,List2A,black,man,,,,null,,,,
null,are touching each other,,html-keyboard-response,108,476208,0.0-13.0-2.19,71600,List2A,black,man,,,,null,,,,
8023,,,survey-text,109,484241,0.0-13.0-3.19,71600,List2A,black,man,,,,,"{""Q0"":""Fred is touching Beth ""}","<img src=""stim_listA/touch4.gif""style=""height:400px;""></stim_listA>",are touching each other,
6596,"<img src='img/portrait_matrix_list2.jpg' style='width:900px;height:500px;''></img><p>If you have memorised all the portraits and names and are ready to start, press Continue.</p><p><strong>Please note: Your memory of these faces will be tested 4 times during this experiment.</strong></p>",0,html-button-response,110,490846,0.0-14.0-0.0,71600,List2A,black,man,,,,,,,,
3109,"<img src=""portrait/BM2.jpg""style=""height:400px;""></img>",5,html-button-response,111,494979,0.0-14.0-1.0,71600,List2A,black,man,,TRUE,5,,,,,
null,CORRECT,,html-keyboard-response,112,496493,0.0-14.0-2.0-0.0,71600,List2A,black,man,,,,null,,,,
4298,"<img src=""portrait/BW2.jpg""style=""height:400px;""></img>",2,html-button-response,113,500806,0.0-14.0-4.0,71600,List2A,black,man,,TRUE,2,,,,,
null,CORRECT,,html-keyboard-response,114,502336,0.0-14.0-5.0-0.0,71600,List2A,black,man,,,,null,,,,
4355,"<img src=""portrait/BM1.jpg""style=""height:400px;""></img>",4,html-button-response,115,506707,0.0-14.0-7.0,71600,List2A,black,man,,TRUE,4,,,,,
null,CORRECT,,html-keyboard-response,116,508224,0.0-14.0-8.0-0.0,71600,List2A,black,man,,,,null,,,,
4808,"<img src=""portrait/WM2.jpg""style=""height:400px;""></img>",7,html-button-response,117,513045,0.0-14.0-10.0,71600,List2A,black,man,,TRUE,7,,,,,
null,CORRECT,,html-keyboard-response,118,514568,0.0-14.0-11.0-0.0,71600,List2A,black,man,,,,null,,,,
3528,"<img src=""portrait/BW1.jpg""style=""height:400px;""></img>",0,html-button-response,119,518110,0.0-14.0-13.0,71600,List2A,black,man,,TRUE,0,,,,,
null,CORRECT,,html-keyboard-response,120,519636,0.0-14.0-14.0-0.0,71600,List2A,black,man,,,,null,,,,
3600,"<img src=""portrait/WM1.jpg""style=""height:400px;""></img>",6,html-button-response,121,523248,0.0-14.0-16.0,71600,List2A,black,man,,TRUE,6,,,,,
null,CORRECT,,html-keyboard-response,122,524775,0.0-14.0-17.0-0.0,71600,List2A,black,man,,,,null,,,,
2075,"<img src=""portrait/WW1.jpg""style=""height:400px;""></img>",1,html-button-response,123,526866,0.0-14.0-19.0,71600,List2A,black,man,,TRUE,1,,,,,
null,CORRECT,,html-keyboard-response,124,528388,0.0-14.0-20.0-0.0,71600,List2A,black,man,,,,null,,,,
2223,"<img src=""portrait/WW2.jpg""style=""height:400px;""></img>",3,html-button-response,125,530627,0.0-14.0-22.0,71600,List2A,black,man,,TRUE,3,,,,,
null,CORRECT,,html-keyboard-response,126,532159,0.0-14.0-23.0-0.0,71600,List2A,black,man,,,,null,,,,
1479,<p>You got 8 out of 8 right first time. Press Continue.</p>,0,html-button-response,127,533650,0.0-14.0-25.0,71600,List2A,black,man,,,,,,,,
null,"<div style=""font-size:60px;"">+</div>",,html-keyboard-response,128,535165,0.0-15.0-0.0,71600,List2A,black,man,,,,null,,,,
null,"<img src=""stim_listA/touch2.gif""style=""height:400px;""></stim_listA>",,html-keyboard-response,129,537183,0.0-15.0-1.0,71600,List2A,black,man,,,,null,,,,
null,are touching each other,,html-keyboard-response,130,539192,0.0-15.0-2.0,71600,List2A,black,man,,,,null,,,,
8358,,,survey-text,131,547559,0.0-15.0-3.0,71600,List2A,black,man,,,,,"{""Q0"":""Luke is touching Ruth ""}","<img src=""stim_listA/touch2.gif""style=""height:400px;""></stim_listA>",are touching each other,
null,"<div style=""font-size:60px;"">+</div>",,html-keyboard-response,132,548065,0.0-15.0-0.1,71600,List2A,black,man,,,,null,,,,
null,"<img src=""stim_listA/dance4.gif""style=""height:400px;""></stim_listA>",,html-keyboard-response,133,550072,0.0-15.0-1.1,71600,List2A,black,man,,,,null,,,,
null,are dancing with each other,,html-keyboard-response,134,552076,0.0-15.0-2.1,71600,List2A,black,man,,,,null,,,,
9570,,,survey-text,135,561652,0.0-15.0-3.1,71600,List2A,black,man,,,,,"{""Q0"":""Mike is dancing with Beth""}","<img src=""stim_listA/dance4.gif""style=""height:400px;""></stim_listA>",are dancing with each other,
null,"<div style=""font-size:60px;"">+</div>",,html-keyboard-response,136,562160,0.0-15.0-0.2,71600,List2A,black,man,,,,null,,,,
null,"<img src=""stim_listA/kiss1.gif""style=""height:400px;""></stim_listA>",,html-keyboard-response,137,564175,0.0-15.0-1.2,71600,List2A,black,man,,,,null,,,,
null,is kissing,,html-keyboard-response,138,566185,0.0-15.0-2.2,71600,List2A,black,man,,,,null,,,,
7403,,,survey-text,139,573600,0.0-15.0-3.2,71600,List2A,black,man,,,,,"{""Q0"":""Luke is kissing Ruth ""}","<img src=""stim_listA/kiss1.gif""style=""height:400px;""></stim_listA>",is kissing,
null,"<div style=""font-size:60px;"">+</div>",,html-keyboard-response,140,574106,0.0-15.0-0.3,71600,List2A,black,man,,,,null,,,,
null,"<img src=""stim_listA/marry4.gif""style=""height:400px;""></stim_listA>",,html-keyboard-response,141,576126,0.0-15.0-1.3,71600,List2A,black,man,,,,null,,,,
null,are marrying each other,,html-keyboard-response,142,578143,0.0-15.0-2.3,71600,List2A,black,man,,,,null,,,,
7942,,,survey-text,143,586095,0.0-15.0-3.3,71600,List2A,black,man,,,,,"{""Q0"":""Fred Is marrying Kate ""}","<img src=""stim_listA/marry4.gif""style=""height:400px;""></stim_listA>",are marrying each other,
null,"<div style=""font-size:60px;"">+</div>",,html-keyboard-response,144,586601,0.0-15.0-0.4,71600,List2A,black,man,,,,null,,,,
null,"<img src=""stim_listA/marry1.gif""style=""height:400px;""></stim_listA>",,html-keyboard-response,145,588611,0.0-15.0-1.4,71600,List2A,black,man,,,,null,,,,
null,is marrying,,html-keyboard-response,146,590618,0.0-15.0-2.4,71600,List2A,black,man,,,,null,,,,
11218,,,survey-text,147,601846,0.0-15.0-3.4,71600,List2A,black,man,,,,,"{""Q0"":""Ruth Is marrying Luke ""}","<img src=""stim_listA/marry1.gif""style=""height:400px;""></stim_listA>",is marrying,
null,"<div style=""font-size:60px;"">+</div>",,html-keyboard-response,148,602357,0.0-15.0-0.5,71600,List2A,black,man,,,,null,,,,
null,"<img src=""stim_listA/marry2.gif""style=""height:400px;""></stim_listA>",,html-keyboard-response,149,604371,0.0-15.0-1.5,71600,List2A,black,man,,,,null,,,,
null,are marrying each other,,html-keyboard-response,150,606383,0.0-15.0-2.5,71600,List2A,black,man,,,,null,,,,
9924,,,survey-text,151,616318,0.0-15.0-3.5,71600,List2A,black,man,,,,,"{""Q0"":""Jane and Luke are marrying each other ""}","<img src=""stim_listA/marry2.gif""style=""height:400px;""></stim_listA>",are marrying each other,
null,"<div style=""font-size:60px;"">+</div>",,html-keyboard-response,152,616825,0.0-15.0-0.6,71600,List2A,black,man,,,,null,,,,
null,"<img src=""stim_listA/fight5.gif""style=""height:400px;""></stim_listA>",,html-keyboard-response,153,618833,0.0-15.0-1.6,71600,List2A,black,man,,,,null,,,,
null,is fighting,,html-keyboard-response,154,620844,0.0-15.0-2.6,71600,List2A,black,man,,,,null,,,,
5613,,,survey-text,155,626467,0.0-15.0-3.6,71600,List2A,black,man,,,,,"{""Q0"":""Mike is fighting Dave ""}","<img src=""stim_listA/fight5.gif""style=""height:400px;""></stim_listA>",is fighting,
null,"<div style=""font-size:60px;"">+</div>",,html-keyboard-response,156,626973,0.0-15.0-0.7,71600,List2A,black,man,,,,null,,,,
null,"<img src=""stim_listA/kiss4.gif""style=""height:400px;""></stim_listA>",,html-keyboard-response,157,628981,0.0-15.0-1.7,71600,List2A,black,man,,,,null,,,,
null,are kissing each other,,html-keyboard-response,158,630989,0.0-15.0-2.7,71600,List2A,black,man,,,,null,,,,
6505,,,survey-text,159,637503,0.0-15.0-3.7,71600,List2A,black,man,,,,,"{""Q0"":""Mike and Kate are kissing each other ""}","<img src=""stim_listA/kiss4.gif""style=""height:400px;""></stim_listA>",are kissing each other,
null,"<div style=""font-size:60px;"">+</div>",,html-keyboard-response,160,638009,0.0-15.0-0.8,71600,List2A,black,man,,,,null,,,,
null,"<img src=""stim_listA/kiss2.gif""style=""height:400px;""></stim_listA>",,html-keyboard-response,161,640022,0.0-15.0-1.8,71600,List2A,black,man,,,,null,,,,
null,are kissing each other,,html-keyboard-response,162,642033,0.0-15.0-2.8,71600,List2A,black,man,,,,null,,,,
13474,,,survey-text,163,655516,0.0-15.0-3.8,71600,List2A,black,man,,,,,"{""Q0"":""Jane and Dave are kissing each other ""}","<img src=""stim_listA/kiss2.gif""style=""height:400px;""></stim_listA>",are kissing each other,
null,"<div style=""font-size:60px;"">+</div>",,html-keyboard-response,164,656021,0.0-15.0-0.9,71600,List2A,black,man,,,,null,,,,
null,"<img src=""stim_listA/marry5.gif""style=""height:400px;""></stim_listA>",,html-keyboard-response,165,658036,0.0-15.0-1.9,71600,List2A,black,man,,,,null,,,,
null,is marrying,,html-keyboard-response,166,660051,0.0-15.0-2.9,71600,List2A,black,man,,,,null,,,,
6428,,,survey-text,167,666492,0.0-15.0-3.9,71600,List2A,black,man,,,,,"{""Q0"":""Fred is marrying Dave ""}","<img src=""stim_listA/marry5.gif""style=""height:400px;""></stim_listA>",is marrying,
null,"<div style=""font-size:60px;"">+</div>",,html-keyboard-response,168,667000,0.0-15.0-0.10,71600,List2A,black,man,,,,null,,,,
null,"<img src=""stim_listA/argue7.gif""style=""height:400px;""></stim_listA>",,html-keyboard-response,169,669016,0.0-15.0-1.10,71600,List2A,black,man,,,,null,,,,
null,is arguing with,,html-keyboard-response,170,671027,0.0-15.0-2.10,71600,List2A,black,man,,,,null,,,,
7511,,,survey-text,171,678549,0.0-15.0-3.10,71600,List2A,black,man,,,,,"{""Q0"":""Jane is arguing with Bethv""}","<img src=""stim_listA/argue7.gif""style=""height:400px;""></stim_listA>",is arguing with,
null,"<div style=""font-size:60px;"">+</div>",,html-keyboard-response,172,679059,0.0-15.0-0.11,71600,List2A,black,man,,,,null,,,,
null,"<img src=""stim_listA/flirt1.gif""style=""height:400px;""></stim_listA>",,html-keyboard-response,173,681074,0.0-15.0-1.11,71600,List2A,black,man,,,,null,,,,
null,is flirting with,,html-keyboard-response,174,683086,0.0-15.0-2.11,71600,List2A,black,man,,,,null,,,,
8072,,,survey-text,175,691168,0.0-15.0-3.11,71600,List2A,black,man,,,,,"{""Q0"":""Ruth is flirting with Luke ""}","<img src=""stim_listA/flirt1.gif""style=""height:400px;""></stim_listA>",is flirting with,
null,"<div style=""font-size:60px;"">+</div>",,html-keyboard-response,176,691675,0.0-15.0-0.12,71600,List2A,black,man,,,,null,,,,
null,"<img src=""stim_listA/flirt8.gif""style=""height:400px;""></stim_listA>",,html-keyboard-response,177,693684,0.0-15.0-1.12,71600,List2A,black,man,,,,null,,,,
null,are flirting with each other,,html-keyboard-response,178,695690,0.0-15.0-2.12,71600,List2A,black,man,,,,null,,,,
7907,,,survey-text,179,703605,0.0-15.0-3.12,71600,List2A,black,man,,,,,"{""Q0"":""Beth and Ruth are flirting with each other ""}","<img src=""stim_listA/flirt8.gif""style=""height:400px;""></stim_listA>",are flirting with each other,
null,"<div style=""font-size:60px;"">+</div>",,html-keyboard-response,180,704110,0.0-15.0-0.13,71600,List2A,black,man,,,,null,,,,
null,"<img src=""stim_listA/fight4.gif""style=""height:400px;""></stim_listA>",,html-keyboard-response,181,706121,0.0-15.0-1.13,71600,List2A,black,man,,,,null,,,,
null,are fighting each other,,html-keyboard-response,182,708134,0.0-15.0-2.13,71600,List2A,black,man,,,,null,,,,
7033,,,survey-text,183,715178,0.0-15.0-3.13,71600,List2A,black,man,,,,,"{""Q0"":""Fred and Beth are fighting each other ""}","<img src=""stim_listA/fight4.gif""style=""height:400px;""></stim_listA>",are fighting each other,
null,"<div style=""font-size:60px;"">+</div>",,html-keyboard-response,184,715683,0.0-15.0-0.14,71600,List2A,black,man,,,,null,,,,
null,"<img src=""stim_listA/shout2.gif""style=""height:400px;""></stim_listA>",,html-keyboard-response,185,717695,0.0-15.0-1.14,71600,List2A,black,man,,,,null,,,,
null,are shouting at each other,,html-keyboard-response,186,719704,0.0-15.0-2.14,71600,List2A,black,man,,,,null,,,,
9081,,,survey-text,187,728794,0.0-15.0-3.14,71600,List2A,black,man,,,,,"{""Q0"":""Jane and Dave are shouting at each otherb""}","<img src=""stim_listA/shout2.gif""style=""height:400px;""></stim_listA>",are shouting at each other,
null,"<div style=""font-size:60px;"">+</div>",,html-keyboard-response,188,729300,0.0-15.0-0.15,71600,List2A,black,man,,,,null,,,,
null,"<img src=""stim_listA/touch3.gif""style=""height:400px;""></stim_listA>",,html-keyboard-response,189,731313,0.0-15.0-1.15,71600,List2A,black,man,,,,null,,,,
null,is touching,,html-keyboard-response,190,733325,0.0-15.0-2.15,71600,List2A,black,man,,,,null,,,,
8152,,,survey-text,191,741487,0.0-15.0-3.15,71600,List2A,black,man,,,,,"{""Q0"":""Mike is touching Kate ""}","<img src=""stim_listA/touch3.gif""style=""height:400px;""></stim_listA>",is touching,
null,"<div style=""font-size:60px;"">+</div>",,html-keyboard-response,192,741994,0.0-15.0-0.16,71600,List2A,black,man,,,,null,,,,
null,"<img src=""stim_listA/kiss8.gif""style=""height:400px;""></stim_listA>",,html-keyboard-response,193,744007,0.0-15.0-1.16,71600,List2A,black,man,,,,null,,,,
null,are kissing each other,,html-keyboard-response,194,746018,0.0-15.0-2.16,71600,List2A,black,man,,,,null,,,,
8455,,,survey-text,195,754485,0.0-15.0-3.16,71600,List2A,black,man,,,,,"{""Q0"":""Kate and Jane are kissing each other ""}","<img src=""stim_listA/kiss8.gif""style=""height:400px;""></stim_listA>",are kissing each other,
null,"<div style=""font-size:60px;"">+</div>",,html-keyboard-response,196,754990,0.0-15.0-0.17,71600,List2A,black,man,,,,null,,,,
null,"<img src=""stim_listA/flirt3.gif""style=""height:400px;""></stim_listA>",,html-keyboard-response,197,757002,0.0-15.0-1.17,71600,List2A,black,man,,,,null,,,,
null,is flirting with,,html-keyboard-response,198,759020,0.0-15.0-2.17,71600,List2A,black,man,,,,null,,,,
6504,,,survey-text,199,765532,0.0-15.0-3.17,71600,List2A,black,man,,,,,"{""Q0"":""Fred is flirting with Kate ""}","<img src=""stim_listA/flirt3.gif""style=""height:400px;""></stim_listA>",is flirting with,
null,"<div style=""font-size:60px;"">+</div>",,html-keyboard-response,200,766040,0.0-15.0-0.18,71600,List2A,black,man,,,,null,,,,
null,"<img src=""stim_listA/dance7.gif""style=""height:400px;""></stim_listA>",,html-keyboard-response,201,768055,0.0-15.0-1.18,71600,List2A,black,man,,,,null,,,,
null,is dancing with,,html-keyboard-response,202,770074,0.0-15.0-2.18,71600,List2A,black,man,,,,null,,,,
6351,,,survey-text,203,776436,0.0-15.0-3.18,71600,List2A,black,man,,,,,"{""Q0"":""Kate is dancing with Ruth ""}","<img src=""stim_listA/dance7.gif""style=""height:400px;""></stim_listA>",is dancing with,
null,"<div style=""font-size:60px;"">+</div>",,html-keyboard-response,204,776945,0.0-15.0-0.19,71600,List2A,black,man,,,,null,,,,
null,"<img src=""stim_listA/talk6.gif""style=""height:400px;""></stim_listA>",,html-keyboard-response,205,778959,0.0-15.0-1.19,71600,List2A,black,man,,,,null,,,,
null,are talking to each other,,html-keyboard-response,206,780970,0.0-15.0-2.19,71600,List2A,black,man,,,,null,,,,
10191,,,survey-text,207,791172,0.0-15.0-3.19,71600,List2A,black,man,,,,,"{""Q0"":""Fred and Dave are talking to each other ""}","<img src=""stim_listA/talk6.gif""style=""height:400px;""></stim_listA>",are talking to each other,
99859,"<img src='img/portrait_matrix_list2.jpg' style='width:900px;height:500px;''></img><p>If you have memorised all the portraits and names and are ready to start, press Continue.</p><p><strong>Please note: Your memory of these faces will be tested 4 times during this experiment.</strong></p>",0,html-button-response,208,891040,0.0-16.0-0.0,71600,List2A,black,man,,,,,,,,
4383,"<img src=""portrait/BW1.jpg""style=""height:400px;""></img>",0,html-button-response,209,896443,0.0-16.0-1.0,71600,List2A,black,man,,TRUE,0,,,,,
null,CORRECT,,html-keyboard-response,210,897972,0.0-16.0-2.0-0.0,71600,List2A,black,man,,,,null,,,,
3362,"<img src=""portrait/WW2.jpg""style=""height:400px;""></img>",3,html-button-response,211,901350,0.0-16.0-4.0,71600,List2A,black,man,,TRUE,3,,,,,
null,CORRECT,,html-keyboard-response,212,902879,0.0-16.0-5.0-0.0,71600,List2A,black,man,,,,null,,,,
5017,"<img src=""portrait/WM2.jpg""style=""height:400px;""></img>",7,html-button-response,213,907917,0.0-16.0-7.0,71600,List2A,black,man,,TRUE,7,,,,,
null,CORRECT,,html-keyboard-response,214,909441,0.0-16.0-8.0-0.0,71600,List2A,black,man,,,,null,,,,
4155,"<img src=""portrait/BM1.jpg""style=""height:400px;""></img>",4,html-button-response,215,913610,0.0-16.0-10.0,71600,List2A,black,man,,TRUE,4,,,,,
null,CORRECT,,html-keyboard-response,216,915131,0.0-16.0-11.0-0.0,71600,List2A,black,man,,,,null,,,,
3019,"<img src=""portrait/BW2.jpg""style=""height:400px;""></img>",2,html-button-response,217,918165,0.0-16.0-13.0,71600,List2A,black,man,,TRUE,2,,,,,
null,CORRECT,,html-keyboard-response,218,919691,0.0-16.0-14.0-0.0,71600,List2A,black,man,,,,null,,,,
2855,"<img src=""portrait/BM2.jpg""style=""height:400px;""></img>",5,html-button-response,219,922561,0.0-16.0-16.0,71600,List2A,black,man,,TRUE,5,,,,,
null,CORRECT,,html-keyboard-response,220,924086,0.0-16.0-17.0-0.0,71600,List2A,black,man,,,,null,,,,
3018,"<img src=""portrait/WM1.jpg""style=""height:400px;""></img>",6,html-button-response,221,927117,0.0-16.0-19.0,71600,List2A,black,man,,TRUE,6,,,,,
null,CORRECT,,html-keyboard-response,222,928640,0.0-16.0-20.0-0.0,71600,List2A,black,man,,,,null,,,,
3087,"<img src=""portrait/WW1.jpg""style=""height:400px;""></img>",1,html-button-response,223,931742,0.0-16.0-22.0,71600,List2A,black,man,,TRUE,1,,,,,
null,CORRECT,,html-keyboard-response,224,933269,0.0-16.0-23.0-0.0,71600,List2A,black,man,,,,null,,,,
2966,<p>You got 8 out of 8 right first time. Press Continue.</p>,0,html-button-response,225,936245,0.0-16.0-25.0,71600,List2A,black,man,,,,,,,,
null,"<div style=""font-size:60px;"">+</div>",,html-keyboard-response,226,937761,0.0-17.0-0.0,71600,List2A,black,man,,,,null,,,,
null,"<img src=""stim_listA/play4.gif""style=""height:400px;""></stim_listA>",,html-keyboard-response,227,939773,0.0-17.0-1.0,71600,List2A,black,man,,,,null,,,,
null,are playing with each other,,html-keyboard-response,228,941785,0.0-17.0-2.0,71600,List2A,black,man,,,,null,,,,
8858,,,survey-text,229,950654,0.0-17.0-3.0,71600,List2A,black,man,,,,,"{""Q0"":""Fred and Beth are playing with each other ""}","<img src=""stim_listA/play4.gif""style=""height:400px;""></stim_listA>",are playing with each other,
null,"<div style=""font-size:60px;"">+</div>",,html-keyboard-response,230,951160,0.0-17.0-0.1,71600,List2A,black,man,,,,null,,,,
null,"<img src=""stim_listA/play5.gif""style=""height:400px;""></stim_listA>",,html-keyboard-response,231,953166,0.0-17.0-1.1,71600,List2A,black,man,,,,null,,,,
null,is playing with,,html-keyboard-response,232,955174,0.0-17.0-2.1,71600,List2A,black,man,,,,null,,,,
9506,,,survey-text,233,964690,0.0-17.0-3.1,71600,List2A,black,man,,,,,"{""Q0"":""Mike is playing with Dave ""}","<img src=""stim_listA/play5.gif""style=""height:400px;""></stim_listA>",is playing with,
null,"<div style=""font-size:60px;"">+</div>",,html-keyboard-response,234,965195,0.0-17.0-0.2,71600,List2A,black,man,,,,null,,,,
null,"<img src=""stim_listA/talk1.gif""style=""height:400px;""></stim_listA>",,html-keyboard-response,235,967209,0.0-17.0-1.2,71600,List2A,black,man,,,,null,,,,
null,is talking to,,html-keyboard-response,236,969221,0.0-17.0-2.2,71600,List2A,black,man,,,,null,,,,
5725,,,survey-text,237,974955,0.0-17.0-3.2,71600,List2A,black,man,,,,,"{""Q0"":""Jane is talking to Luke ""}","<img src=""stim_listA/talk1.gif""style=""height:400px;""></stim_listA>",is talking to,
null,"<div style=""font-size:60px;"">+</div>",,html-keyboard-response,238,975462,0.0-17.0-0.3,71600,List2A,black,man,,,,null,,,,
null,"<img src=""stim_listA/marry6.gif""style=""height:400px;""></stim_listA>",,html-keyboard-response,239,977475,0.0-17.0-1.3,71600,List2A,black,man,,,,null,,,,
null,are marrying each other,,html-keyboard-response,240,979487,0.0-17.0-2.3,71600,List2A,black,man,,,,null,,,,
9523,,,survey-text,241,989021,0.0-17.0-3.3,71600,List2A,black,man,,,,,"{""Q0"":""Mike and Luke are marrying each other ""}","<img src=""stim_listA/marry6.gif""style=""height:400px;""></stim_listA>",are marrying each other,
null,"<div style=""font-size:60px;"">+</div>",,html-keyboard-response,242,989530,0.0-17.0-0.4,71600,List2A,black,man,,,,null,,,,
null,"<img src=""stim_listA/argue1.gif""style=""height:400px;""></stim_listA>",,html-keyboard-response,243,991547,0.0-17.0-1.4,71600,List2A,black,man,,,,null,,,,
null,is arguing with,,html-keyboard-response,244,993558,0.0-17.0-2.4,71600,List2A,black,man,,,,null,,,,
7818,,,survey-text,245,1001387,0.0-17.0-3.4,71600,List2A,black,man,,,,,"{""Q0"":""Ruth is arguing with Luke ""}","<img src=""stim_listA/argue1.gif""style=""height:400px;""></stim_listA>",is arguing with,
null,"<div style=""font-size:60px;"">+</div>",,html-keyboard-response,246,1001892,0.0-17.0-0.5,71600,List2A,black,man,,,,null,,,,
null,"<img src=""stim_listA/dance6.gif""style=""height:400px;""></stim_listA>",,html-keyboard-response,247,1003904,0.0-17.0-1.5,71600,List2A,black,man,,,,null,,,,
null,are dancing with each other,,html-keyboard-response,248,1005916,0.0-17.0-2.5,71600,List2A,black,man,,,,null,,,,
8865,,,survey-text,249,1014792,0.0-17.0-3.5,71600,List2A,black,man,,,,,"{""Q0"":""Dave and Fred are dancing with each other ""}","<img src=""stim_listA/dance6.gif""style=""height:400px;""></stim_listA>",are dancing with each other,
null,"<div style=""font-size:60px;"">+</div>",,html-keyboard-response,250,1015300,0.0-17.0-0.6,71600,List2A,black,man,,,,null,,,,
null,"<img src=""stim_listA/talk8.gif""style=""height:400px;""></stim_listA>",,html-keyboard-response,251,1017315,0.0-17.0-1.6,71600,List2A,black,man,,,,null,,,,
null,are talking to each other,,html-keyboard-response,252,1019327,0.0-17.0-2.6,71600,List2A,black,man,,,,null,,,,
10340,,,survey-text,253,1029678,0.0-17.0-3.6,71600,List2A,black,man,,,,,"{""Q0"":""Kate and Jane are talking to each other ""}","<img src=""stim_listA/talk8.gif""style=""height:400px;""></stim_listA>",are talking to each other,
null,"<div style=""font-size:60px;"">+</div>",,html-keyboard-response,254,1030189,0.0-17.0-0.7,71600,List2A,black,man,,,,null,,,,
null,"<img src=""stim_listA/talk2.gif""style=""height:400px;""></stim_listA>",,html-keyboard-response,255,1032203,0.0-17.0-1.7,71600,List2A,black,man,,,,null,,,,
null,are talking to each other,,html-keyboard-response,256,1034212,0.0-17.0-2.7,71600,List2A,black,man,,,,null,,,,
10599,,,survey-text,257,1044821,0.0-17.0-3.7,71600,List2A,black,man,,,,,"{""Q0"":""Dave and Ruth are talking to each other ""}","<img src=""stim_listA/talk2.gif""style=""height:400px;""></stim_listA>",are talking to each other,
null,"<div style=""font-size:60px;"">+</div>",,html-keyboard-response,258,1045328,0.0-17.0-0.8,71600,List2A,black,man,,,,null,,,,
null,"<img src=""stim_listA/argue3.gif""style=""height:400px;""></stim_listA>",,html-keyboard-response,259,1047337,0.0-17.0-1.8,71600,List2A,black,man,,,,null,,,,
null,is arguing with,,html-keyboard-response,260,1049350,0.0-17.0-2.8,71600,List2A,black,man,,,,null,,,,
5863,,,survey-text,261,1055223,0.0-17.0-3.8,71600,List2A,black,man,,,,,"{""Q0"":""Mike is arguing with Kate ""}","<img src=""stim_listA/argue3.gif""style=""height:400px;""></stim_listA>",is arguing with,
null,"<div style=""font-size:60px;"">+</div>",,html-keyboard-response,262,1055732,0.0-17.0-0.9,71600,List2A,black,man,,,,null,,,,
null,"<img src=""stim_listA/marry3.gif""style=""height:400px;""></stim_listA>",,html-keyboard-response,263,1057744,0.0-17.0-1.9,71600,List2A,black,man,,,,null,,,,
null,is marrying,,html-keyboard-response,264,1059754,0.0-17.0-2.9,71600,List2A,black,man,,,,null,,,,
9595,,,survey-text,265,1069362,0.0-17.0-3.9,71600,List2A,black,man,,,,,"{""Q0"":""Mike Is marrying Beth ""}","<img src=""stim_listA/marry3.gif""style=""height:400px;""></stim_listA>",is marrying,
null,"<div style=""font-size:60px;"">+</div>",,html-keyboard-response,266,1069869,0.0-17.0-0.10,71600,List2A,black,man,,,,null,,,,
null,"<img src=""stim_listA/dance5.gif""style=""height:400px;""></stim_listA>",,html-keyboard-response,267,1071878,0.0-17.0-1.10,71600,List2A,black,man,,,,null,,,,
null,is dancing with,,html-keyboard-response,268,1073889,0.0-17.0-2.10,71600,List2A,black,man,,,,null,,,,
5370,,,survey-text,269,1079269,0.0-17.0-3.10,71600,List2A,black,man,,,,,"{""Q0"":""Mike is dancing with Luke ""}","<img src=""stim_listA/dance5.gif""style=""height:400px;""></stim_listA>",is dancing with,
null,"<div style=""font-size:60px;"">+</div>",,html-keyboard-response,270,1079781,0.0-17.0-0.11,71600,List2A,black,man,,,,null,,,,
null,"<img src=""stim_listA/talk7.gif""style=""height:400px;""></stim_listA>",,html-keyboard-response,271,1081795,0.0-17.0-1.11,71600,List2A,black,man,,,,null,,,,
null,is talking to,,html-keyboard-response,272,1083807,0.0-17.0-2.11,71600,List2A,black,man,,,,null,,,,
5631,,,survey-text,273,1089450,0.0-17.0-3.11,71600,List2A,black,man,,,,,"{""Q0"":""Mating is talking to Ruth ""}","<img src=""stim_listA/talk7.gif""style=""height:400px;""></stim_listA>",is talking to,
null,"<div style=""font-size:60px;"">+</div>",,html-keyboard-response,274,1089957,0.0-17.0-0.12,71600,List2A,black,man,,,,null,,,,
null,"<img src=""stim_listA/play7.gif""style=""height:400px;""></stim_listA>",,html-keyboard-response,275,1091971,0.0-17.0-1.12,71600,List2A,black,man,,,,null,,,,
null,is playing with,,html-keyboard-response,276,1093983,0.0-17.0-2.12,71600,List2A,black,man,,,,null,,,,
4597,,,survey-text,277,1098591,0.0-17.0-3.12,71600,List2A,black,man,,,,,"{""Q0"":""Jane is playing with Kate ""}","<img src=""stim_listA/play7.gif""style=""height:400px;""></stim_listA>",is playing with,
null,"<div style=""font-size:60px;"">+</div>",,html-keyboard-response,278,1099099,0.0-17.0-0.13,71600,List2A,black,man,,,,null,,,,
null,"<img src=""stim_listA/kiss5.gif""style=""height:400px;""></stim_listA>",,html-keyboard-response,279,1101108,0.0-17.0-1.13,71600,List2A,black,man,,,,null,,,,
null,is kissing,,html-keyboard-response,280,1103118,0.0-17.0-2.13,71600,List2A,black,man,,,,null,,,,
4647,,,survey-text,281,1107774,0.0-17.0-3.13,71600,List2A,black,man,,,,,"{""Q0"":""Fred is kissing Luke ""}","<img src=""stim_listA/kiss5.gif""style=""height:400px;""></stim_listA>",is kissing,
null,"<div style=""font-size:60px;"">+</div>",,html-keyboard-response,282,1108286,0.0-17.0-0.14,71600,List2A,black,man,,,,null,,,,
null,"<img src=""stim_listA/flirt4.gif""style=""height:400px;""></stim_listA>",,html-keyboard-response,283,1110302,0.0-17.0-1.14,71600,List2A,black,man,,,,null,,,,
null,are flirting with each other,,html-keyboard-response,284,1112310,0.0-17.0-2.14,71600,List2A,black,man,,,,null,,,,
10484,,,survey-text,285,1122804,0.0-17.0-3.14,71600,List2A,black,man,,,,,"{""Q0"":""Mike and Beth are flirting with each other ""}","<img src=""stim_listA/flirt4.gif""style=""height:400px;""></stim_listA>",are flirting with each other,
null,"<div style=""font-size:60px;"">+</div>",,html-keyboard-response,286,1123319,0.0-17.0-0.15,71600,List2A,black,man,,,,null,,,,
null,"<img src=""stim_listA/talk4.gif""style=""height:400px;""></stim_listA>",,html-keyboard-response,287,1125333,0.0-17.0-1.15,71600,List2A,black,man,,,,null,,,,
null,are talking to each other,,html-keyboard-response,288,1127349,0.0-17.0-2.15,71600,List2A,black,man,,,,null,,,,
6657,,,survey-text,289,1134016,0.0-17.0-3.15,71600,List2A,black,man,,,,,"{""Q0"":""Mike and Beth are talking to each other ""}","<img src=""stim_listA/talk4.gif""style=""height:400px;""></stim_listA>",are talking to each other,
null,"<div style=""font-size:60px;"">+</div>",,html-keyboard-response,290,1134522,0.0-17.0-0.16,71600,List2A,black,man,,,,null,,,,
null,"<img src=""stim_listA/argue8.gif""style=""height:400px;""></stim_listA>",,html-keyboard-response,291,1136530,0.0-17.0-1.16,71600,List2A,black,man,,,,null,,,,
null,are arguing with each other,,html-keyboard-response,292,1138551,0.0-17.0-2.16,71600,List2A,black,man,,,,null,,,,
9322,,,survey-text,293,1147884,0.0-17.0-3.16,71600,List2A,black,man,,,,,"{""Q0"":""Ruth and Kate are arguing with each other ""}","<img src=""stim_listA/argue8.gif""style=""height:400px;""></stim_listA>",are arguing with each other,
null,"<div style=""font-size:60px;"">+</div>",,html-keyboard-response,294,1148392,0.0-17.0-0.17,71600,List2A,black,man,,,,null,,,,
null,"<img src=""stim_listA/fight8.gif""style=""height:400px;""></stim_listA>",,html-keyboard-response,295,1150405,0.0-17.0-1.17,71600,List2A,black,man,,,,null,,,,
null,are fighting each other,,html-keyboard-response,296,1152419,0.0-17.0-2.17,71600,List2A,black,man,,,,null,,,,
7774,,,survey-text,297,1160203,0.0-17.0-3.17,71600,List2A,black,man,,,,,"{""Q0"":""Beth and Ruth are fighting with each other ""}","<img src=""stim_listA/fight8.gif""style=""height:400px;""></stim_listA>",are fighting each other,
null,"<div style=""font-size:60px;"">+</div>",,html-keyboard-response,298,1160710,0.0-17.0-0.18,71600,List2A,black,man,,,,null,,,,
null,"<img src=""stim_listA/argue6.gif""style=""height:400px;""></stim_listA>",,html-keyboard-response,299,1162723,0.0-17.0-1.18,71600,List2A,black,man,,,,null,,,,
null,are arguing with each other,,html-keyboard-response,300,1164737,0.0-17.0-2.18,71600,List2A,black,man,,,,null,,,,
7169,,,survey-text,301,1171916,0.0-17.0-3.18,71600,List2A,black,man,,,,,"{""Q0"":""Mike and Luke are arguing with each other ""}","<img src=""stim_listA/argue6.gif""style=""height:400px;""></stim_listA>",are arguing with each other,
null,"<div style=""font-size:60px;"">+</div>",,html-keyboard-response,302,1172422,0.0-17.0-0.19,71600,List2A,black,man,,,,null,,,,
null,"<img src=""stim_listA/kiss3.gif""style=""height:400px;""></stim_listA>",,html-keyboard-response,303,1174431,0.0-17.0-1.19,71600,List2A,black,man,,,,null,,,,
null,is kissing,,html-keyboard-response,304,1176441,0.0-17.0-2.19,71600,List2A,black,man,,,,null,,,,
7092,,,survey-text,305,1183544,0.0-17.0-3.19,71600,List2A,black,man,,,,,"{""Q0"":""Fred is kissing Beth ""}","<img src=""stim_listA/kiss3.gif""style=""height:400px;""></stim_listA>",is kissing,
2882,"<img src='img/portrait_matrix_list2.jpg' style='width:900px;height:500px;''></img><p>If you have memorised all the portraits and names and are ready to start, press Continue.</p><p><strong>Please note: Your memory of these faces will be tested 4 times during this experiment.</strong></p>",0,html-button-response,306,1186437,0.0-18.0-0.0,71600,List2A,black,man,,,,,,,,
3403,"<img src=""portrait/WM1.jpg""style=""height:400px;""></img>",6,html-button-response,307,1190860,0.0-18.0-1.0,71600,List2A,black,man,,TRUE,6,,,,,
null,CORRECT,,html-keyboard-response,308,1192383,0.0-18.0-2.0-0.0,71600,List2A,black,man,,,,null,,,,
3562,"<img src=""portrait/BW1.jpg""style=""height:400px;""></img>",0,html-button-response,309,1195962,0.0-18.0-4.0,71600,List2A,black,man,,TRUE,0,,,,,
null,CORRECT,,html-keyboard-response,310,1197487,0.0-18.0-5.0-0.0,71600,List2A,black,man,,,,null,,,,
2765,"<img src=""portrait/WM2.jpg""style=""height:400px;""></img>",7,html-button-response,311,1200267,0.0-18.0-7.0,71600,List2A,black,man,,TRUE,7,,,,,
null,CORRECT,,html-keyboard-response,312,1201790,0.0-18.0-8.0-0.0,71600,List2A,black,man,,,,null,,,,
4099,"<img src=""portrait/BM1.jpg""style=""height:400px;""></img>",4,html-button-response,313,1205903,0.0-18.0-10.0,71600,List2A,black,man,,TRUE,4,,,,,
null,CORRECT,,html-keyboard-response,314,1207432,0.0-18.0-11.0-0.0,71600,List2A,black,man,,,,null,,,,
2577,"<img src=""portrait/WW2.jpg""style=""height:400px;""></img>",3,html-button-response,315,1210025,0.0-18.0-13.0,71600,List2A,black,man,,TRUE,3,,,,,
null,CORRECT,,html-keyboard-response,316,1211542,0.0-18.0-14.0-0.0,71600,List2A,black,man,,,,null,,,,
3955,"<img src=""portrait/WW1.jpg""style=""height:400px;""></img>",1,html-button-response,317,1215510,0.0-18.0-16.0,71600,List2A,black,man,,TRUE,1,,,,,
null,CORRECT,,html-keyboard-response,318,1217036,0.0-18.0-17.0-0.0,71600,List2A,black,man,,,,null,,,,
2086,"<img src=""portrait/BM2.jpg""style=""height:400px;""></img>",5,html-button-response,319,1219138,0.0-18.0-19.0,71600,List2A,black,man,,TRUE,5,,,,,
null,CORRECT,,html-keyboard-response,320,1220662,0.0-18.0-20.0-0.0,71600,List2A,black,man,,,,null,,,,
3280,"<img src=""portrait/BW2.jpg""style=""height:400px;""></img>",2,html-button-response,321,1223962,0.0-18.0-22.0,71600,List2A,black,man,,TRUE,2,,,,,
null,CORRECT,,html-keyboard-response,322,1225485,0.0-18.0-23.0-0.0,71600,List2A,black,man,,,,null,,,,
1831,<p>You got 8 out of 8 right first time. Press Continue.</p>,0,html-button-response,323,1227328,0.0-18.0-25.0,71600,List2A,black,man,,,,,,,,
null,"<div style=""font-size:60px;"">+</div>",,html-keyboard-response,324,1228842,0.0-19.0-0.0,71600,List2A,black,man,,,,null,,,,
null,"<img src=""stim_listA/flirt7.gif""style=""height:400px;""></stim_listA>",,html-keyboard-response,325,1230859,0.0-19.0-1.0,71600,List2A,black,man,,,,null,,,,
null,is flirting with,,html-keyboard-response,326,1232873,0.0-19.0-2.0,71600,List2A,black,man,,,,null,,,,
28674,,,survey-text,327,1261559,0.0-19.0-3.0,71600,List2A,black,man,,,,,"{""Q0"":""Ruth is flirting with Beth ""}","<img src=""stim_listA/flirt7.gif""style=""height:400px;""></stim_listA>",is flirting with,
null,"<div style=""font-size:60px;"">+</div>",,html-keyboard-response,328,1262066,0.0-19.0-0.1,71600,List2A,black,man,,,,null,,,,
null,"<img src=""stim_listA/marry8.gif""style=""height:400px;""></stim_listA>",,html-keyboard-response,329,1264075,0.0-19.0-1.1,71600,List2A,black,man,,,,null,,,,
null,are marrying each other,,html-keyboard-response,330,1266090,0.0-19.0-2.1,71600,List2A,black,man,,,,null,,,,
20467,,,survey-text,331,1286567,0.0-19.0-3.1,71600,List2A,black,man,,,,,"{""Q0"":""Kate and Jane are marrying with each other ""}","<img src=""stim_listA/marry8.gif""style=""height:400px;""></stim_listA>",are marrying each other,
null,"<div style=""font-size:60px;"">+</div>",,html-keyboard-response,332,1287075,0.0-19.0-0.2,71600,List2A,black,man,,,,null,,,,
null,"<img src=""stim_listA/touch8.gif""style=""height:400px;""></stim_listA>",,html-keyboard-response,333,1289083,0.0-19.0-1.2,71600,List2A,black,man,,,,null,,,,
null,are touching each other,,html-keyboard-response,334,1291092,0.0-19.0-2.2,71600,List2A,black,man,,,,null,,,,
9065,,,survey-text,335,1300170,0.0-19.0-3.2,71600,List2A,black,man,,,,,"{""Q0"":""Ruth and Beth are touching each other ""}","<img src=""stim_listA/touch8.gif""style=""height:400px;""></stim_listA>",are touching each other,
null,"<div style=""font-size:60px;"">+</div>",,html-keyboard-response,336,1300676,0.0-19.0-0.3,71600,List2A,black,man,,,,null,,,,
null,"<img src=""stim_listA/flirt5.gif""style=""height:400px;""></stim_listA>",,html-keyboard-response,337,1302686,0.0-19.0-1.3,71600,List2A,black,man,,,,null,,,,
null,is flirting with,,html-keyboard-response,338,1304696,0.0-19.0-2.3,71600,List2A,black,man,,,,null,,,,
6185,,,survey-text,339,1310893,0.0-19.0-3.3,71600,List2A,black,man,,,,,"{""Q0"":""Mike is flirting with Luke ""}","<img src=""stim_listA/flirt5.gif""style=""height:400px;""></stim_listA>",is flirting with,
null,"<div style=""font-size:60px;"">+</div>",,html-keyboard-response,340,1311401,0.0-19.0-0.4,71600,List2A,black,man,,,,null,,,,
null,"<img src=""stim_listA/talk3.gif""style=""height:400px;""></stim_listA>",,html-keyboard-response,341,1313415,0.0-19.0-1.4,71600,List2A,black,man,,,,null,,,,
null,is talking to,,html-keyboard-response,342,1315428,0.0-19.0-2.4,71600,List2A,black,man,,,,null,,,,
6775,,,survey-text,343,1322215,0.0-19.0-3.4,71600,List2A,black,man,,,,,"{""Q0"":""Kate is talking to Fred ""}","<img src=""stim_listA/talk3.gif""style=""height:400px;""></stim_listA>",is talking to,
null,"<div style=""font-size:60px;"">+</div>",,html-keyboard-response,344,1322723,0.0-19.0-0.5,71600,List2A,black,man,,,,null,,,,
null,"<img src=""stim_listA/fight2.gif""style=""height:400px;""></stim_listA>",,html-keyboard-response,345,1324734,0.0-19.0-1.5,71600,List2A,black,man,,,,null,,,,
null,are fighting each other,,html-keyboard-response,346,1326747,0.0-19.0-2.5,71600,List2A,black,man,,,,null,,,,
10711,,,survey-text,347,1337469,0.0-19.0-3.5,71600,List2A,black,man,,,,,"{""Q0"":""Luke and Ruth are fighting each other ""}","<img src=""stim_listA/fight2.gif""style=""height:400px;""></stim_listA>",are fighting each other,
null,"<div style=""font-size:60px;"">+</div>",,html-keyboard-response,348,1337977,0.0-19.0-0.6,71600,List2A,black,man,,,,null,,,,
null,"<img src=""stim_listA/kiss6.gif""style=""height:400px;""></stim_listA>",,html-keyboard-response,349,1339988,0.0-19.0-1.6,71600,List2A,black,man,,,,null,,,,
null,are kissing each other,,html-keyboard-response,350,1341997,0.0-19.0-2.6,71600,List2A,black,man,,,,null,,,,
6823,,,survey-text,351,1348831,0.0-19.0-3.6,71600,List2A,black,man,,,,,"{""Q0"":""Mike and Dave are kissing each other ""}","<img src=""stim_listA/kiss6.gif""style=""height:400px;""></stim_listA>",are kissing each other,
null,"<div style=""font-size:60px;"">+</div>",,html-keyboard-response,352,1349338,0.0-19.0-0.7,71600,List2A,black,man,,,,null,,,,
null,"<img src=""stim_listA/fight3.gif""style=""height:400px;""></stim_listA>",,html-keyboard-response,353,1351350,0.0-19.0-1.7,71600,List2A,black,man,,,,null,,,,
null,is fighting,,html-keyboard-response,354,1353362,0.0-19.0-2.7,71600,List2A,black,man,,,,null,,,,
4890,,,survey-text,355,1358270,0.0-19.0-3.7,71600,List2A,black,man,,,,,"{""Q0"":""Mike is fighting Kate ""}","<img src=""stim_listA/fight3.gif""style=""height:400px;""></stim_listA>",is fighting,
null,"<div style=""font-size:60px;"">+</div>",,html-keyboard-response,356,1358779,0.0-19.0-0.8,71600,List2A,black,man,,,,null,,,,
null,"<img src=""stim_listA/dance8.gif""style=""height:400px;""></stim_listA>",,html-keyboard-response,357,1360794,0.0-19.0-1.8,71600,List2A,black,man,,,,null,,,,
null,are dancing with each other,,html-keyboard-response,358,1362808,0.0-19.0-2.8,71600,List2A,black,man,,,,null,,,,
8189,,,survey-text,359,1371009,0.0-19.0-3.8,71600,List2A,black,man,,,,,"{""Q0"":""Beth and Jane are dancing with each other ""}","<img src=""stim_listA/dance8.gif""style=""height:400px;""></stim_listA>",are dancing with each other,
null,"<div style=""font-size:60px;"">+</div>",,html-keyboard-response,360,1371515,0.0-19.0-0.9,71600,List2A,black,man,,,,null,,,,
null,"<img src=""stim_listA/shout7.gif""style=""height:400px;""></stim_listA>",,html-keyboard-response,361,1373523,0.0-19.0-1.9,71600,List2A,black,man,,,,null,,,,
null,is shouting at,,html-keyboard-response,362,1375534,0.0-19.0-2.9,71600,List2A,black,man,,,,null,,,,
7161,,,survey-text,363,1382709,0.0-19.0-3.9,71600,List2A,black,man,,,,,"{""Q0"":""Beth is shouting at Ruth ""}","<img src=""stim_listA/shout7.gif""style=""height:400px;""></stim_listA>",is shouting at,
null,"<div style=""font-size:60px;"">+</div>",,html-keyboard-response,364,1383216,0.0-19.0-0.10,71600,List2A,black,man,,,,null,,,,
null,"<img src=""stim_listA/talk5.gif""style=""height:400px;""></stim_listA>",,html-keyboard-response,365,1385230,0.0-19.0-1.10,71600,List2A,black,man,,,,null,,,,
null,is talking to,,html-keyboard-response,366,1387242,0.0-19.0-2.10,71600,List2A,black,man,,,,null,,,,
5129,,,survey-text,367,1392383,0.0-19.0-3.10,71600,List2A,black,man,,,,,"{""Q0"":""Mike is talking to Luke ""}","<img src=""stim_listA/talk5.gif""style=""height:400px;""></stim_listA>",is talking to,
null,"<div style=""font-size:60px;"">+</div>",,html-keyboard-response,368,1392896,0.0-19.0-0.11,71600,List2A,black,man,,,,null,,,,
null,"<img src=""stim_listA/touch5.gif""style=""height:400px;""></stim_listA>",,html-keyboard-response,369,1394909,0.0-19.0-1.11,71600,List2A,black,man,,,,null,,,,
null,is touching,,html-keyboard-response,370,1396923,0.0-19.0-2.11,71600,List2A,black,man,,,,null,,,,
5053,,,survey-text,371,1401986,0.0-19.0-3.11,71600,List2A,black,man,,,,,"{""Q0"":""Dave is touching Mike ""}","<img src=""stim_listA/touch5.gif""style=""height:400px;""></stim_listA>",is touching,
null,"<div style=""font-size:60px;"">+</div>",,html-keyboard-response,372,1402493,0.0-19.0-0.12,71600,List2A,black,man,,,,null,,,,
null,"<img src=""stim_listA/shout4.gif""style=""height:400px;""></stim_listA>",,html-keyboard-response,373,1404502,0.0-19.0-1.12,71600,List2A,black,man,,,,null,,,,
null,are shouting at each other,,html-keyboard-response,374,1406519,0.0-19.0-2.12,71600,List2A,black,man,,,,null,,,,
9168,,,survey-text,375,1415699,0.0-19.0-3.12,71600,List2A,black,man,,,,,"{""Q0"":""Kate and Mike are shouting at each other ""}","<img src=""stim_listA/shout4.gif""style=""height:400px;""></stim_listA>",are shouting at each other,
null,"<div style=""font-size:60px;"">+</div>",,html-keyboard-response,376,1416208,0.0-19.0-0.13,71600,List2A,black,man,,,,null,,,,
null,"<img src=""stim_listA/dance2.gif""style=""height:400px;""></stim_listA>",,html-keyboard-response,377,1418221,0.0-19.0-1.13,71600,List2A,black,man,,,,null,,,,
null,are dancing with each other,,html-keyboard-response,378,1420234,0.0-19.0-2.13,71600,List2A,black,man,,,,null,,,,
7208,,,survey-text,379,1427454,0.0-19.0-3.13,71600,List2A,black,man,,,,,"{""Q0"":""Dave and Ruth are dancing with each other ""}","<img src=""stim_listA/dance2.gif""style=""height:400px;""></stim_listA>",are dancing with each other,
null,"<div style=""font-size:60px;"">+</div>",,html-keyboard-response,380,1427962,0.0-19.0-0.14,71600,List2A,black,man,,,,null,,,,
null,"<img src=""stim_listA/shout3.gif""style=""height:400px;""></stim_listA>",,html-keyboard-response,381,1429973,0.0-19.0-1.14,71600,List2A,black,man,,,,null,,,,
null,is shouting at,,html-keyboard-response,382,1431986,0.0-19.0-2.14,71600,List2A,black,man,,,,null,,,,
4969,,,survey-text,383,1436965,0.0-19.0-3.14,71600,List2A,black,man,,,,,"{""Q0"":""Fred is shouting at Beth ""}","<img src=""stim_listA/shout3.gif""style=""height:400px;""></stim_listA>",is shouting at,
null,"<div style=""font-size:60px;"">+</div>",,html-keyboard-response,384,1437472,0.0-19.0-0.15,71600,List2A,black,man,,,,null,,,,
null,"<img src=""stim_listA/play3.gif""style=""height:400px;""></stim_listA>",,html-keyboard-response,385,1439481,0.0-19.0-1.15,71600,List2A,black,man,,,,null,,,,
null,is playing with,,html-keyboard-response,386,1441493,0.0-19.0-2.15,71600,List2A,black,man,,,,null,,,,
4818,,,survey-text,387,1446323,0.0-19.0-3.15,71600,List2A,black,man,,,,,"{""Q0"":""Mike is playing with Kate ""}","<img src=""stim_listA/play3.gif""style=""height:400px;""></stim_listA>",is playing with,
null,"<div style=""font-size:60px;"">+</div>",,html-keyboard-response,388,1446831,0.0-19.0-0.16,71600,List2A,black,man,,,,null,,,,
null,"<img src=""stim_listA/argue4.gif""style=""height:400px;""></stim_listA>",,html-keyboard-response,389,1448839,0.0-19.0-1.16,71600,List2A,black,man,,,,null,,,,
null,are arguing with each other,,html-keyboard-response,390,1450849,0.0-19.0-2.16,71600,List2A,black,man,,,,null,,,,
7040,,,survey-text,391,1457900,0.0-19.0-3.16,71600,List2A,black,man,,,,,"{""Q0"":""Fred and Kate are arguing with each other ""}","<img src=""stim_listA/argue4.gif""style=""height:400px;""></stim_listA>",are arguing with each other,
null,"<div style=""font-size:60px;"">+</div>",,html-keyboard-response,392,1458408,0.0-19.0-0.17,71600,List2A,black,man,,,,null,,,,
null,"<img src=""stim_listA/touch1.gif""style=""height:400px;""></stim_listA>",,html-keyboard-response,393,1460427,0.0-19.0-1.17,71600,List2A,black,man,,,,null,,,,
null,is touching,,html-keyboard-response,394,1462448,0.0-19.0-2.17,71600,List2A,black,man,,,,null,,,,
6329,,,survey-text,395,1468790,0.0-19.0-3.17,71600,List2A,black,man,,,,,"{""Q0"":""Jane Is touching Dave ""}","<img src=""stim_listA/touch1.gif""style=""height:400px;""></stim_listA>",is touching,
null,"<div style=""font-size:60px;"">+</div>",,html-keyboard-response,396,1469296,0.0-19.0-0.18,71600,List2A,black,man,,,,null,,,,
null,"<img src=""stim_listA/touch6.gif""style=""height:400px;""></stim_listA>",,html-keyboard-response,397,1471305,0.0-19.0-1.18,71600,List2A,black,man,,,,null,,,,
null,are touching each other,,html-keyboard-response,398,1473318,0.0-19.0-2.18,71600,List2A,black,man,,,,null,,,,
8678,,,survey-text,399,1482007,0.0-19.0-3.18,71600,List2A,black,man,,,,,"{""Q0"":""Fred and Luke are touching each other ""}","<img src=""stim_listA/touch6.gif""style=""height:400px;""></stim_listA>",are touching each other,
null,"<div style=""font-size:60px;"">+</div>",,html-keyboard-response,400,1482513,0.0-19.0-0.19,71600,List2A,black,man,,,,null,,,,
null,"<img src=""stim_listA/marry7.gif""style=""height:400px;""></stim_listA>",,html-keyboard-response,401,1484527,0.0-19.0-1.19,71600,List2A,black,man,,,,null,,,,
null,is marrying,,html-keyboard-response,402,1486539,0.0-19.0-2.19,71600,List2A,black,man,,,,null,,,,
6893,,,survey-text,403,1493442,0.0-19.0-3.19,71600,List2A,black,man,,,,,"{""Q0"":""Kate is marrying Jane ""}","<img src=""stim_listA/marry7.gif""style=""height:400px;""></stim_listA>",is marrying,
2288,<p>Thank you for completing that task.</p><p>The final part of this session is a short questionnaire.</p><p>Press Continue.</p>,0,html-button-response,404,1495739,0.0-20.0,71600,List2A,black,man,,,,,,,,
28089,,,survey-text,405,1524858,0.0-21.0,71600,List2A,black,man,,,,,"{""Q0"":""23"",""Q1"":""English "",""Q2"":""English "",""Q3"":""United States "",""Q4"":""African-American "",""Q5"":""Male""}",,,demographics
7866,,,survey-likert,406,1532740,0.0-22.0,71600,List2A,black,man,,,,,"{""Q0"":4}",,,likert_ESS
7267,,,survey-likert,407,1540021,0.0-23.0,71600,List2A,black,man,,,,,"{""Q0"":3}",,,likert_NSSAL_Q1
3270,,,survey-likert,408,1543303,0.0-24.0,71600,List2A,black,man,,,,,"{""Q0"":3}",,,likert_NSSAL_Q2
3532,,,survey-likert,409,1546847,0.0-25.0,71600,List2A,black,man,,,,,"{""Q0"":4}",,,likert_CGRS_Q1
4070,,,survey-likert,410,1550929,0.0-26.0,71600,List2A,black,man,,,,,"{""Q0"":4}",,,likert_CGRS_Q2
2294,,,survey-likert,411,1553235,0.0-27.0,71600,List2A,black,man,,,,,"{""Q0"":4}",,,likert_CGRS_Q3
9723,,,survey-text,412,1562969,0.0-28.0,71600,List2A,black,man,,,,,"{""Q0"":""ccc""}",,,worker_id
5274,,,external-html,413,1568482,0.0-29.0,71600,List2A,black,man,debrief.html,,,,,,,
