rt,stimulus,button_pressed,trial_type,trial_index,time_elapsed,internal_node_id,subject,list,ppt_race,ppt_gender,url,first_guess,correct,key_press,responses,image_type,phrase_type,test_part
1598,Welcome to the experiment. Press Continue to begin.,0,html-button-response,0,1610,0.0-0.0,71802,List2A,black,man,,,,,,,,
7554,,,external-html,1,10347,0.0-1.0,71802,List2A,black,man,consent.html,,,,,,,
6154,"<p>On the next page, you will see portraits of 8 people and their names.</p><p>Your first task is to take a few minutes to memorise the names of these people.</p><p>You will have to recall their names during the rest of the experiment, so it is</p><p>essential that you try to memorise these people and their names as best as you can.</p><br><p><strong>You will then be tested on your memory of these names and portraits.</strong></p><br><p>The experiment will start after you have completed this memory test.</p><br><p>Ready?</p>",0,html-button-response,2,16503,0.0-2.0,71802,List2A,black,man,,,,,,,,
100896,"<img src='img/portrait_matrix_list2.jpg' style='width:900px;height:500px;''></img><p>If you have memorised all the portraits and names and are ready to start, press Continue.</p><p><strong>Please note: Your memory of these faces will be tested 4 times during this experiment.</strong></p>",0,html-button-response,3,118436,0.0-3.0-0.0,71802,List2A,black,man,,,,,,,,
3148,"<img src=""portrait/BM1.jpg""style=""height:400px;""></img>",4,html-button-response,4,122606,0.0-3.0-1.0,71802,List2A,black,man,,TRUE,4,,,,,
null,CORRECT,,html-keyboard-response,5,124117,0.0-3.0-2.0-0.0,71802,List2A,black,man,,,,null,,,,
3069,"<img src=""portrait/WM1.jpg""style=""height:400px;""></img>",6,html-button-response,6,127191,0.0-3.0-4.0,71802,List2A,black,man,,TRUE,6,,,,,
null,CORRECT,,html-keyboard-response,7,128698,0.0-3.0-5.0-0.0,71802,List2A,black,man,,,,null,,,,
2507,"<img src=""portrait/WW2.jpg""style=""height:400px;""></img>",3,html-button-response,8,131209,0.0-3.0-7.0,71802,List2A,black,man,,TRUE,3,,,,,
null,CORRECT,,html-keyboard-response,9,132713,0.0-3.0-8.0-0.0,71802,List2A,black,man,,,,null,,,,
3689,"<img src=""portrait/WW1.jpg""style=""height:400px;""></img>",1,html-button-response,10,136406,0.0-3.0-10.0,71802,List2A,black,man,,TRUE,1,,,,,
null,CORRECT,,html-keyboard-response,11,137911,0.0-3.0-11.0-0.0,71802,List2A,black,man,,,,null,,,,
2942,"<img src=""portrait/BM2.jpg""style=""height:400px;""></img>",4,html-button-response,12,140857,0.0-3.0-13.0,71802,List2A,black,man,,TRUE,5,,,,,
3303,"<img src=""portrait/BM2.jpg""style=""height:400px;""></img>",5,html-button-response,13,145165,0.0-3.0-15.0-0.0,71802,List2A,black,man,,FALSE,5,,,,,
null,CORRECT,,html-keyboard-response,14,146670,0.0-3.0-15.0-1.0-0.0,71802,List2A,black,man,,,,null,,,,
4997,"<img src=""portrait/WM2.jpg""style=""height:400px;""></img>",7,html-button-response,15,151671,0.0-3.0-16.0,71802,List2A,black,man,,TRUE,7,,,,,
null,CORRECT,,html-keyboard-response,16,153175,0.0-3.0-17.0-0.0,71802,List2A,black,man,,,,null,,,,
2393,"<img src=""portrait/BW2.jpg""style=""height:400px;""></img>",0,html-button-response,17,155571,0.0-3.0-19.0,71802,List2A,black,man,,TRUE,2,,,,,
2302,"<img src=""portrait/BW2.jpg""style=""height:400px;""></img>",2,html-button-response,18,158876,0.0-3.0-21.0-0.0,71802,List2A,black,man,,FALSE,2,,,,,
null,CORRECT,,html-keyboard-response,19,160380,0.0-3.0-21.0-1.0-0.0,71802,List2A,black,man,,,,null,,,,
5681,"<img src=""portrait/BW1.jpg""style=""height:400px;""></img>",0,html-button-response,20,166065,0.0-3.0-22.0,71802,List2A,black,man,,TRUE,0,,,,,
null,CORRECT,,html-keyboard-response,21,167569,0.0-3.0-23.0-0.0,71802,List2A,black,man,,,,null,,,,
1281,<p>You got 6 out of 8 right first time. Press Continue.</p>,0,html-button-response,22,168857,0.0-3.0-25.0,71802,List2A,black,man,,,,,,,,
2165,"As you did not score 100%, the memory game will repeat. Press Continue.",0,html-button-response,23,172026,0.0-3.0-26.0-0.0,71802,List2A,black,man,,,,,,,,
60116,"<img src='img/portrait_matrix_list2.jpg' style='width:900px;height:500px;''></img><p>If you have memorised all the portraits and names and are ready to start, press Continue.</p><p><strong>Please note: Your memory of these faces will be tested 4 times during this experiment.</strong></p>",0,html-button-response,24,233156,0.0-3.1-0.1,71802,List2A,black,man,,,,,,,,
5481,"<img src=""portrait/BM1.jpg""style=""height:400px;""></img>",4,html-button-response,25,239677,0.0-3.1-1.1,71802,List2A,black,man,,TRUE,4,,,,,
null,CORRECT,,html-keyboard-response,26,241188,0.0-3.1-2.1-0.1,71802,List2A,black,man,,,,null,,,,
4853,"<img src=""portrait/WM1.jpg""style=""height:400px;""></img>",6,html-button-response,27,246046,0.0-3.1-4.1,71802,List2A,black,man,,TRUE,6,,,,,
null,CORRECT,,html-keyboard-response,28,247552,0.0-3.1-5.1-0.1,71802,List2A,black,man,,,,null,,,,
2387,"<img src=""portrait/WW2.jpg""style=""height:400px;""></img>",3,html-button-response,29,249943,0.0-3.1-7.1,71802,List2A,black,man,,TRUE,3,,,,,
null,CORRECT,,html-keyboard-response,30,251448,0.0-3.1-8.1-0.1,71802,List2A,black,man,,,,null,,,,
2921,"<img src=""portrait/WW1.jpg""style=""height:400px;""></img>",1,html-button-response,31,254373,0.0-3.1-10.1,71802,List2A,black,man,,TRUE,1,,,,,
null,CORRECT,,html-keyboard-response,32,255877,0.0-3.1-11.1-0.1,71802,List2A,black,man,,,,null,,,,
2900,"<img src=""portrait/BM2.jpg""style=""height:400px;""></img>",5,html-button-response,33,258779,0.0-3.1-13.1,71802,List2A,black,man,,TRUE,5,,,,,
null,CORRECT,,html-keyboard-response,34,260284,0.0-3.1-14.1-0.1,71802,List2A,black,man,,,,null,,,,
1272,"<img src=""portrait/WM2.jpg""style=""height:400px;""></img>",7,html-button-response,35,261560,0.0-3.1-16.1,71802,List2A,black,man,,TRUE,7,,,,,
null,CORRECT,,html-keyboard-response,36,263064,0.0-3.1-17.1-0.1,71802,List2A,black,man,,,,null,,,,
6359,"<img src=""portrait/BW2.jpg""style=""height:400px;""></img>",2,html-button-response,37,269428,0.0-3.1-19.1,71802,List2A,black,man,,TRUE,2,,,,,
null,CORRECT,,html-keyboard-response,38,270932,0.0-3.1-20.1-0.1,71802,List2A,black,man,,,,null,,,,
1893,"<img src=""portrait/BW1.jpg""style=""height:400px;""></img>",0,html-button-response,39,272830,0.0-3.1-22.1,71802,List2A,black,man,,TRUE,0,,,,,
null,CORRECT,,html-keyboard-response,40,274334,0.0-3.1-23.1-0.1,71802,List2A,black,man,,,,null,,,,
819,<p>You got 8 out of 8 right first time. Press Continue.</p>,0,html-button-response,41,275159,0.0-3.1-25.1,71802,List2A,black,man,,,,,,,,
1004780,"<p>In this experiment, you will view photographs of the people from the memory game interacting.</p><p>By using the <strong>exact</strong> phrase given <i>after</i> the photograph appears and recalling the correct names of the people in the photographs, form a sentence describing the interaction. You do not need to capitalise names.</p><p>Type your answer in the space provided. Please complete every sentence before moving onto the next trial.</p><p>You will only have a few seconds to memorise each given photograph and phrase before you can respond, so try your best to focus.</p><p>An example is given below. Press 'Continue' when you are ready.</p><img src='img/speaking_example.jpg' style='width:800px;height:460px;''></img>",0,html-button-response,42,1280946,0.0-4.0,71802,List2A,black,man,,,,,,,,
2519,"<p>Before the experiment starts, you will watch two example trials. Press 'Continue'.</p>",0,html-button-response,43,1284476,0.0-5.0,71802,List2A,black,man,,,,,,,,
null,<img src='img/meet_eg.gif' style='height:400px;''></img>,,html-keyboard-response,44,1287480,0.0-6.0,71802,List2A,black,man,,,,null,,,,
null,<p>is meeting</p>,,html-keyboard-response,45,1289482,0.0-7.0,71802,List2A,black,man,,,,null,,,,
10153,<p><b>Answer:</b> jane is meeting ruth</p>,0,html-button-response,46,1299640,0.0-8.0,71802,List2A,black,man,,,,,,,,
null,<img src='img/look_eg.gif' style='height:400px;''></img>,,html-keyboard-response,47,1302644,0.0-9.0,71802,List2A,black,man,,,,null,,,,
null,<p>are looking at each other</p>,,html-keyboard-response,48,1304647,0.0-10.0,71802,List2A,black,man,,,,null,,,,
902,<p><b>Answer:</b> fred and mike are looking at each other</p>,0,html-button-response,49,1305552,0.0-11.0,71802,List2A,black,man,,,,,,,,
1831,"<p>Ready to start the experiment?</p><br><p><strong>Remember to describe the picture using a full sentence,</strong></p><p><strong>that combines the names of the people with the <i>exact</i> phrase given.</strong></p><p><strong>To receive full payment you must do this correctly.</strong></p><p><strong> You do not need to capitalise names or use punctuation.</strong></p><br><p>Press 'Continue' to begin.</p>",0,html-button-response,50,1308386,0.0-12.0,71802,List2A,black,man,,,,,,,,
null,"<div style=""font-size:60px;"">+</div>",,html-keyboard-response,51,1309891,0.0-13.0-0.0,71802,List2A,black,man,,,,null,,,,
null,"<img src=""stim_listA/marry7.gif""style=""height:400px;""></stim_listA>",,html-keyboard-response,52,1311897,0.0-13.0-1.0,71802,List2A,black,man,,,,null,,,,
null,is marrying,,html-keyboard-response,53,1313901,0.0-13.0-2.0,71802,List2A,black,man,,,,null,,,,
49930,,,survey-text,54,1363844,0.0-13.0-3.0,71802,List2A,black,man,,,,,"{""Q0"":""Jane is marrying Kate""}","<img src=""stim_listA/marry7.gif""style=""height:400px;""></stim_listA>",is marrying,
null,"<div style=""font-size:60px;"">+</div>",,html-keyboard-response,55,1364348,0.0-13.0-0.1,71802,List2A,black,man,,,,null,,,,
null,"<img src=""stim_listA/shout1.gif""style=""height:400px;""></stim_listA>",,html-keyboard-response,56,1366353,0.0-13.0-1.1,71802,List2A,black,man,,,,null,,,,
null,is shouting at,,html-keyboard-response,57,1368356,0.0-13.0-2.1,71802,List2A,black,man,,,,null,,,,
7665,,,survey-text,58,1376029,0.0-13.0-3.1,71802,List2A,black,man,,,,,"{""Q0"":""Luke is shouting at Ruth ""}","<img src=""stim_listA/shout1.gif""style=""height:400px;""></stim_listA>",is shouting at,
null,"<div style=""font-size:60px;"">+</div>",,html-keyboard-response,59,1376532,0.0-13.0-0.2,71802,List2A,black,man,,,,null,,,,
null,"<img src=""stim_listA/argue6.gif""style=""height:400px;""></stim_listA>",,html-keyboard-response,60,1378534,0.0-13.0-1.2,71802,List2A,black,man,,,,null,,,,
null,are arguing with each other,,html-keyboard-response,61,1380538,0.0-13.0-2.2,71802,List2A,black,man,,,,null,,,,
21478,,,survey-text,62,1402020,0.0-13.0-3.2,71802,List2A,black,man,,,,,"{""Q0"":""Mike is arguing with Dave ""}","<img src=""stim_listA/argue6.gif""style=""height:400px;""></stim_listA>",are arguing with each other,
null,"<div style=""font-size:60px;"">+</div>",,html-keyboard-response,63,1402523,0.0-13.0-0.3,71802,List2A,black,man,,,,null,,,,
null,"<img src=""stim_listA/argue4.gif""style=""height:400px;""></stim_listA>",,html-keyboard-response,64,1404528,0.0-13.0-1.3,71802,List2A,black,man,,,,null,,,,
null,are arguing with each other,,html-keyboard-response,65,1406532,0.0-13.0-2.3,71802,List2A,black,man,,,,null,,,,
65604,,,survey-text,66,1472139,0.0-13.0-3.3,71802,List2A,black,man,,,,,"{""Q0"":""Jane and luke""}","<img src=""stim_listA/argue4.gif""style=""height:400px;""></stim_listA>",are arguing with each other,
null,"<div style=""font-size:60px;"">+</div>",,html-keyboard-response,67,1472642,0.0-13.0-0.4,71802,List2A,black,man,,,,null,,,,
null,"<img src=""stim_listA/shout5.gif""style=""height:400px;""></stim_listA>",,html-keyboard-response,68,1474647,0.0-13.0-1.4,71802,List2A,black,man,,,,null,,,,
null,is shouting at,,html-keyboard-response,69,1476651,0.0-13.0-2.4,71802,List2A,black,man,,,,null,,,,
11567,,,survey-text,70,1488221,0.0-13.0-3.4,71802,List2A,black,man,,,,,"{""Q0"":""Luke is shouting with mike""}","<img src=""stim_listA/shout5.gif""style=""height:400px;""></stim_listA>",is shouting at,
null,"<div style=""font-size:60px;"">+</div>",,html-keyboard-response,71,1488724,0.0-13.0-0.5,71802,List2A,black,man,,,,null,,,,
null,"<img src=""stim_listA/dance7.gif""style=""height:400px;""></stim_listA>",,html-keyboard-response,72,1490729,0.0-13.0-1.5,71802,List2A,black,man,,,,null,,,,
null,is dancing with,,html-keyboard-response,73,1492732,0.0-13.0-2.5,71802,List2A,black,man,,,,null,,,,
11958,,,survey-text,74,1504693,0.0-13.0-3.5,71802,List2A,black,man,,,,,"{""Q0"":""Ruth is dancing with Kate""}","<img src=""stim_listA/dance7.gif""style=""height:400px;""></stim_listA>",is dancing with,
null,"<div style=""font-size:60px;"">+</div>",,html-keyboard-response,75,1505198,0.0-13.0-0.6,71802,List2A,black,man,,,,null,,,,
null,"<img src=""stim_listA/talk6.gif""style=""height:400px;""></stim_listA>",,html-keyboard-response,76,1507201,0.0-13.0-1.6,71802,List2A,black,man,,,,null,,,,
null,are talking to each other,,html-keyboard-response,77,1509205,0.0-13.0-2.6,71802,List2A,black,man,,,,null,,,,
11432,,,survey-text,78,1520640,0.0-13.0-3.6,71802,List2A,black,man,,,,,"{""Q0"":""Fred and Dave are talking to one another""}","<img src=""stim_listA/talk6.gif""style=""height:400px;""></stim_listA>",are talking to each other,
null,"<div style=""font-size:60px;"">+</div>",,html-keyboard-response,79,1521144,0.0-13.0-0.7,71802,List2A,black,man,,,,null,,,,
null,"<img src=""stim_listA/kiss4.gif""style=""height:400px;""></stim_listA>",,html-keyboard-response,80,1523148,0.0-13.0-1.7,71802,List2A,black,man,,,,null,,,,
null,are kissing each other,,html-keyboard-response,81,1525151,0.0-13.0-2.7,71802,List2A,black,man,,,,null,,,,
221482,,,survey-text,82,1746637,0.0-13.0-3.7,71802,List2A,black,man,,,,,"{""Q0"":""Ruth is kissing fred""}","<img src=""stim_listA/kiss4.gif""style=""height:400px;""></stim_listA>",are kissing each other,
null,"<div style=""font-size:60px;"">+</div>",,html-keyboard-response,83,1747139,0.0-13.0-0.8,71802,List2A,black,man,,,,null,,,,
null,"<img src=""stim_listA/play5.gif""style=""height:400px;""></stim_listA>",,html-keyboard-response,84,1749143,0.0-13.0-1.8,71802,List2A,black,man,,,,null,,,,
null,is playing with,,html-keyboard-response,85,1751147,0.0-13.0-2.8,71802,List2A,black,man,,,,null,,,,
5030,,,survey-text,86,1756180,0.0-13.0-3.8,71802,List2A,black,man,,,,,"{""Q0"":""Dave is playing with mike""}","<img src=""stim_listA/play5.gif""style=""height:400px;""></stim_listA>",is playing with,
null,"<div style=""font-size:60px;"">+</div>",,html-keyboard-response,87,1756682,0.0-13.0-0.9,71802,List2A,black,man,,,,null,,,,
null,"<img src=""stim_listA/talk2.gif""style=""height:400px;""></stim_listA>",,html-keyboard-response,88,1758686,0.0-13.0-1.9,71802,List2A,black,man,,,,null,,,,
null,are talking to each other,,html-keyboard-response,89,1760689,0.0-13.0-2.9,71802,List2A,black,man,,,,null,,,,
76296,,,survey-text,90,1836988,0.0-13.0-3.9,71802,List2A,black,man,,,,,"{""Q0"":""""}","<img src=""stim_listA/talk2.gif""style=""height:400px;""></stim_listA>",are talking to each other,
null,"<div style=""font-size:60px;"">+</div>",,html-keyboard-response,91,1837491,0.0-13.0-0.10,71802,List2A,black,man,,,,null,,,,
null,"<img src=""stim_listA/play6.gif""style=""height:400px;""></stim_listA>",,html-keyboard-response,92,1839495,0.0-13.0-1.10,71802,List2A,black,man,,,,null,,,,
null,are playing with each other,,html-keyboard-response,93,1841500,0.0-13.0-2.10,71802,List2A,black,man,,,,null,,,,
7924,,,survey-text,94,1849426,0.0-13.0-3.10,71802,List2A,black,man,,,,,"{""Q0"":""Luke and Fred are playing with each other""}","<img src=""stim_listA/play6.gif""style=""height:400px;""></stim_listA>",are playing with each other,
null,"<div style=""font-size:60px;"">+</div>",,html-keyboard-response,95,1849931,0.0-13.0-0.11,71802,List2A,black,man,,,,null,,,,
null,"<img src=""stim_listA/fight4.gif""style=""height:400px;""></stim_listA>",,html-keyboard-response,96,1851934,0.0-13.0-1.11,71802,List2A,black,man,,,,null,,,,
null,are fighting each other,,html-keyboard-response,97,1853938,0.0-13.0-2.11,71802,List2A,black,man,,,,null,,,,
28432,,,survey-text,98,1882372,0.0-13.0-3.11,71802,List2A,black,man,,,,,"{""Q0"":""Fred is fighting Beth ""}","<img src=""stim_listA/fight4.gif""style=""height:400px;""></stim_listA>",are fighting each other,
null,"<div style=""font-size:60px;"">+</div>",,html-keyboard-response,99,1882875,0.0-13.0-0.12,71802,List2A,black,man,,,,null,,,,
null,"<img src=""stim_listA/kiss3.gif""style=""height:400px;""></stim_listA>",,html-keyboard-response,100,1884879,0.0-13.0-1.12,71802,List2A,black,man,,,,null,,,,
null,is kissing,,html-keyboard-response,101,1886882,0.0-13.0-2.12,71802,List2A,black,man,,,,null,,,,
3997,,,survey-text,102,1890883,0.0-13.0-3.12,71802,List2A,black,man,,,,,"{""Q0"":""Beth is kissing fred""}","<img src=""stim_listA/kiss3.gif""style=""height:400px;""></stim_listA>",is kissing,
null,"<div style=""font-size:60px;"">+</div>",,html-keyboard-response,103,1891385,0.0-13.0-0.13,71802,List2A,black,man,,,,null,,,,
null,"<img src=""stim_listA/kiss7.gif""style=""height:400px;""></stim_listA>",,html-keyboard-response,104,1893390,0.0-13.0-1.13,71802,List2A,black,man,,,,null,,,,
null,is kissing,,html-keyboard-response,105,1895394,0.0-13.0-2.13,71802,List2A,black,man,,,,null,,,,
3617,,,survey-text,106,1899014,0.0-13.0-3.13,71802,List2A,black,man,,,,,"{""Q0"":""Beth is kissing ruth""}","<img src=""stim_listA/kiss7.gif""style=""height:400px;""></stim_listA>",is kissing,
null,"<div style=""font-size:60px;"">+</div>",,html-keyboard-response,107,1899516,0.0-13.0-0.14,71802,List2A,black,man,,,,null,,,,
null,"<img src=""stim_listA/flirt5.gif""style=""height:400px;""></stim_listA>",,html-keyboard-response,108,1901522,0.0-13.0-1.14,71802,List2A,black,man,,,,null,,,,
null,is flirting with,,html-keyboard-response,109,1903525,0.0-13.0-2.14,71802,List2A,black,man,,,,null,,,,
5966,,,survey-text,110,1909493,0.0-13.0-3.14,71802,List2A,black,man,,,,,"{""Q0"":""Luke is flirting with mike""}","<img src=""stim_listA/flirt5.gif""style=""height:400px;""></stim_listA>",is flirting with,
null,"<div style=""font-size:60px;"">+</div>",,html-keyboard-response,111,1909995,0.0-13.0-0.15,71802,List2A,black,man,,,,null,,,,
null,"<img src=""stim_listA/kiss8.gif""style=""height:400px;""></stim_listA>",,html-keyboard-response,112,1911999,0.0-13.0-1.15,71802,List2A,black,man,,,,null,,,,
null,are kissing each other,,html-keyboard-response,113,1914002,0.0-13.0-2.15,71802,List2A,black,man,,,,null,,,,
9846,,,survey-text,114,1923851,0.0-13.0-3.15,71802,List2A,black,man,,,,,"{""Q0"":""Jane is kissing Beth""}","<img src=""stim_listA/kiss8.gif""style=""height:400px;""></stim_listA>",are kissing each other,
null,"<div style=""font-size:60px;"">+</div>",,html-keyboard-response,115,1924353,0.0-13.0-0.16,71802,List2A,black,man,,,,null,,,,
null,"<img src=""stim_listA/play4.gif""style=""height:400px;""></stim_listA>",,html-keyboard-response,116,1926356,0.0-13.0-1.16,71802,List2A,black,man,,,,null,,,,
null,are playing with each other,,html-keyboard-response,117,1928360,0.0-13.0-2.16,71802,List2A,black,man,,,,null,,,,
6531,,,survey-text,118,1934893,0.0-13.0-3.16,71802,List2A,black,man,,,,,"{""Q0"":""Beth and Fred are playing with each other""}","<img src=""stim_listA/play4.gif""style=""height:400px;""></stim_listA>",are playing with each other,
null,"<div style=""font-size:60px;"">+</div>",,html-keyboard-response,119,1935396,0.0-13.0-0.17,71802,List2A,black,man,,,,null,,,,
null,"<img src=""stim_listA/argue1.gif""style=""height:400px;""></stim_listA>",,html-keyboard-response,120,1937400,0.0-13.0-1.17,71802,List2A,black,man,,,,null,,,,
null,is arguing with,,html-keyboard-response,121,1939403,0.0-13.0-2.17,71802,List2A,black,man,,,,null,,,,
4563,,,survey-text,122,1943968,0.0-13.0-3.17,71802,List2A,black,man,,,,,"{""Q0"":""Ruth is arguing with dave""}","<img src=""stim_listA/argue1.gif""style=""height:400px;""></stim_listA>",is arguing with,
null,"<div style=""font-size:60px;"">+</div>",,html-keyboard-response,123,1944471,0.0-13.0-0.18,71802,List2A,black,man,,,,null,,,,
null,"<img src=""stim_listA/play3.gif""style=""height:400px;""></stim_listA>",,html-keyboard-response,124,1946475,0.0-13.0-1.18,71802,List2A,black,man,,,,null,,,,
null,is playing with,,html-keyboard-response,125,1948479,0.0-13.0-2.18,71802,List2A,black,man,,,,null,,,,
4570,,,survey-text,126,1953051,0.0-13.0-3.18,71802,List2A,black,man,,,,,"{""Q0"":""Mike is playing with kate""}","<img src=""stim_listA/play3.gif""style=""height:400px;""></stim_listA>",is playing with,
null,"<div style=""font-size:60px;"">+</div>",,html-keyboard-response,127,1953554,0.0-13.0-0.19,71802,List2A,black,man,,,,null,,,,
null,"<img src=""stim_listA/talk1.gif""style=""height:400px;""></stim_listA>",,html-keyboard-response,128,1955557,0.0-13.0-1.19,71802,List2A,black,man,,,,null,,,,
null,is talking to,,html-keyboard-response,129,1957560,0.0-13.0-2.19,71802,List2A,black,man,,,,null,,,,
9649,,,survey-text,130,1967212,0.0-13.0-3.19,71802,List2A,black,man,,,,,"{""Q0"":""""}","<img src=""stim_listA/talk1.gif""style=""height:400px;""></stim_listA>",is talking to,
5032,"<img src='img/portrait_matrix_list2.jpg' style='width:900px;height:500px;''></img><p>If you have memorised all the portraits and names and are ready to start, press Continue.</p><p><strong>Please note: Your memory of these faces will be tested 4 times during this experiment.</strong></p>",0,html-button-response,131,1972245,0.0-14.0-0.0,71802,List2A,black,man,,,,,,,,
4032,"<img src=""portrait/WW1.jpg""style=""height:400px;""></img>",1,html-button-response,132,1977282,0.0-14.0-1.0,71802,List2A,black,man,,TRUE,1,,,,,
null,CORRECT,,html-keyboard-response,133,1978789,0.0-14.0-2.0-0.0,71802,List2A,black,man,,,,null,,,,
2302,"<img src=""portrait/BM1.jpg""style=""height:400px;""></img>",4,html-button-response,134,1981093,0.0-14.0-4.0,71802,List2A,black,man,,TRUE,4,,,,,
null,CORRECT,,html-keyboard-response,135,1982598,0.0-14.0-5.0-0.0,71802,List2A,black,man,,,,null,,,,
5694,"<img src=""portrait/BW2.jpg""style=""height:400px;""></img>",2,html-button-response,136,1988295,0.0-14.0-7.0,71802,List2A,black,man,,TRUE,2,,,,,
null,CORRECT,,html-keyboard-response,137,1989799,0.0-14.0-8.0-0.0,71802,List2A,black,man,,,,null,,,,
3511,"<img src=""portrait/WM1.jpg""style=""height:400px;""></img>",6,html-button-response,138,1993316,0.0-14.0-10.0,71802,List2A,black,man,,TRUE,6,,,,,
null,CORRECT,,html-keyboard-response,139,1994820,0.0-14.0-11.0-0.0,71802,List2A,black,man,,,,null,,,,
2099,"<img src=""portrait/BW1.jpg""style=""height:400px;""></img>",0,html-button-response,140,1996922,0.0-14.0-13.0,71802,List2A,black,man,,TRUE,0,,,,,
null,CORRECT,,html-keyboard-response,141,1998427,0.0-14.0-14.0-0.0,71802,List2A,black,man,,,,null,,,,
2928,"<img src=""portrait/WW2.jpg""style=""height:400px;""></img>",3,html-button-response,142,2001357,0.0-14.0-16.0,71802,List2A,black,man,,TRUE,3,,,,,
null,CORRECT,,html-keyboard-response,143,2002860,0.0-14.0-17.0-0.0,71802,List2A,black,man,,,,null,,,,
1812,"<img src=""portrait/BM2.jpg""style=""height:400px;""></img>",5,html-button-response,144,2004676,0.0-14.0-19.0,71802,List2A,black,man,,TRUE,5,,,,,
null,CORRECT,,html-keyboard-response,145,2006181,0.0-14.0-20.0-0.0,71802,List2A,black,man,,,,null,,,,
997,"<img src=""portrait/WM2.jpg""style=""height:400px;""></img>",7,html-button-response,146,2007180,0.0-14.0-22.0,71802,List2A,black,man,,TRUE,7,,,,,
null,CORRECT,,html-keyboard-response,147,2008685,0.0-14.0-23.0-0.0,71802,List2A,black,man,,,,null,,,,
1135,<p>You got 8 out of 8 right first time. Press Continue.</p>,0,html-button-response,148,2009828,0.0-14.0-25.0,71802,List2A,black,man,,,,,,,,
null,"<div style=""font-size:60px;"">+</div>",,html-keyboard-response,149,2011335,0.0-15.0-0.0,71802,List2A,black,man,,,,null,,,,
null,"<img src=""stim_listA/shout8.gif""style=""height:400px;""></stim_listA>",,html-keyboard-response,150,2013339,0.0-15.0-1.0,71802,List2A,black,man,,,,null,,,,
null,are shouting at each other,,html-keyboard-response,151,2015343,0.0-15.0-2.0,71802,List2A,black,man,,,,null,,,,
6569,,,survey-text,152,2021915,0.0-15.0-3.0,71802,List2A,black,man,,,,,"{""Q0"":""Jane and Kate are shouting at each other""}","<img src=""stim_listA/shout8.gif""style=""height:400px;""></stim_listA>",are shouting at each other,
null,"<div style=""font-size:60px;"">+</div>",,html-keyboard-response,153,2022417,0.0-15.0-0.1,71802,List2A,black,man,,,,null,,,,
null,"<img src=""stim_listA/touch8.gif""style=""height:400px;""></stim_listA>",,html-keyboard-response,154,2024420,0.0-15.0-1.1,71802,List2A,black,man,,,,null,,,,
null,are touching each other,,html-keyboard-response,155,2026425,0.0-15.0-2.1,71802,List2A,black,man,,,,null,,,,
7155,,,survey-text,156,2033583,0.0-15.0-3.1,71802,List2A,black,man,,,,,"{""Q0"":""Beth and Ruth are touching each other""}","<img src=""stim_listA/touch8.gif""style=""height:400px;""></stim_listA>",are touching each other,
null,"<div style=""font-size:60px;"">+</div>",,html-keyboard-response,157,2034086,0.0-15.0-0.2,71802,List2A,black,man,,,,null,,,,
null,"<img src=""stim_listA/flirt6.gif""style=""height:400px;""></stim_listA>",,html-keyboard-response,158,2036089,0.0-15.0-1.2,71802,List2A,black,man,,,,null,,,,
null,are flirting with each other,,html-keyboard-response,159,2038092,0.0-15.0-2.2,71802,List2A,black,man,,,,null,,,,
6904,,,survey-text,160,2045000,0.0-15.0-3.2,71802,List2A,black,man,,,,,"{""Q0"":""Dave and Fred are flirting with one another""}","<img src=""stim_listA/flirt6.gif""style=""height:400px;""></stim_listA>",are flirting with each other,
null,"<div style=""font-size:60px;"">+</div>",,html-keyboard-response,161,2045504,0.0-15.0-0.3,71802,List2A,black,man,,,,null,,,,
null,"<img src=""stim_listA/fight8.gif""style=""height:400px;""></stim_listA>",,html-keyboard-response,162,2047508,0.0-15.0-1.3,71802,List2A,black,man,,,,null,,,,
null,are fighting each other,,html-keyboard-response,163,2049511,0.0-15.0-2.3,71802,List2A,black,man,,,,null,,,,
10809,,,survey-text,164,2060322,0.0-15.0-3.3,71802,List2A,black,man,,,,,"{""Q0"":""Beth and Ruth are fighting one another""}","<img src=""stim_listA/fight8.gif""style=""height:400px;""></stim_listA>",are fighting each other,
null,"<div style=""font-size:60px;"">+</div>",,html-keyboard-response,165,2060826,0.0-15.0-0.4,71802,List2A,black,man,,,,null,,,,
null,"<img src=""stim_listA/kiss1.gif""style=""height:400px;""></stim_listA>",,html-keyboard-response,166,2062830,0.0-15.0-1.4,71802,List2A,black,man,,,,null,,,,
null,is kissing,,html-keyboard-response,167,2064833,0.0-15.0-2.4,71802,List2A,black,man,,,,null,,,,
3552,,,survey-text,168,2068389,0.0-15.0-3.4,71802,List2A,black,man,,,,,"{""Q0"":""Luke is kissing ruth""}","<img src=""stim_listA/kiss1.gif""style=""height:400px;""></stim_listA>",is kissing,
null,"<div style=""font-size:60px;"">+</div>",,html-keyboard-response,169,2068891,0.0-15.0-0.5,71802,List2A,black,man,,,,null,,,,
null,"<img src=""stim_listA/play7.gif""style=""height:400px;""></stim_listA>",,html-keyboard-response,170,2070894,0.0-15.0-1.5,71802,List2A,black,man,,,,null,,,,
null,is playing with,,html-keyboard-response,171,2072898,0.0-15.0-2.5,71802,List2A,black,man,,,,null,,,,
6221,,,survey-text,172,2079121,0.0-15.0-3.5,71802,List2A,black,man,,,,,"{""Q0"":""Kate is playing with Jane ""}","<img src=""stim_listA/play7.gif""style=""height:400px;""></stim_listA>",is playing with,
null,"<div style=""font-size:60px;"">+</div>",,html-keyboard-response,173,2079624,0.0-15.0-0.6,71802,List2A,black,man,,,,null,,,,
null,"<img src=""stim_listA/kiss6.gif""style=""height:400px;""></stim_listA>",,html-keyboard-response,174,2081628,0.0-15.0-1.6,71802,List2A,black,man,,,,null,,,,
null,are kissing each other,,html-keyboard-response,175,2083631,0.0-15.0-2.6,71802,List2A,black,man,,,,null,,,,
9035,,,survey-text,176,2092669,0.0-15.0-3.6,71802,List2A,black,man,,,,,"{""Q0"":""Dave is kissing Luke""}","<img src=""stim_listA/kiss6.gif""style=""height:400px;""></stim_listA>",are kissing each other,
null,"<div style=""font-size:60px;"">+</div>",,html-keyboard-response,177,2093172,0.0-15.0-0.7,71802,List2A,black,man,,,,null,,,,
null,"<img src=""stim_listA/dance1.gif""style=""height:400px;""></stim_listA>",,html-keyboard-response,178,2095175,0.0-15.0-1.7,71802,List2A,black,man,,,,null,,,,
null,is dancing with,,html-keyboard-response,179,2097178,0.0-15.0-2.7,71802,List2A,black,man,,,,null,,,,
21391,,,survey-text,180,2118571,0.0-15.0-3.7,71802,List2A,black,man,,,,,"{""Q0"":""Luke is dancing with Jane""}","<img src=""stim_listA/dance1.gif""style=""height:400px;""></stim_listA>",is dancing with,
null,"<div style=""font-size:60px;"">+</div>",,html-keyboard-response,181,2119077,0.0-15.0-0.8,71802,List2A,black,man,,,,null,,,,
null,"<img src=""stim_listA/dance4.gif""style=""height:400px;""></stim_listA>",,html-keyboard-response,182,2121082,0.0-15.0-1.8,71802,List2A,black,man,,,,null,,,,
null,are dancing with each other,,html-keyboard-response,183,2123084,0.0-15.0-2.8,71802,List2A,black,man,,,,null,,,,
14302,,,survey-text,184,2137389,0.0-15.0-3.8,71802,List2A,black,man,,,,,"{""Q0"":""Mike and Beth are dancing with each other""}","<img src=""stim_listA/dance4.gif""style=""height:400px;""></stim_listA>",are dancing with each other,
null,"<div style=""font-size:60px;"">+</div>",,html-keyboard-response,185,2137892,0.0-15.0-0.9,71802,List2A,black,man,,,,null,,,,
null,"<img src=""stim_listA/dance3.gif""style=""height:400px;""></stim_listA>",,html-keyboard-response,186,2139896,0.0-15.0-1.9,71802,List2A,black,man,,,,null,,,,
null,is dancing with,,html-keyboard-response,187,2141900,0.0-15.0-2.9,71802,List2A,black,man,,,,null,,,,
5038,,,survey-text,188,2146942,0.0-15.0-3.9,71802,List2A,black,man,,,,,"{""Q0"":""Kate is dancing with dave""}","<img src=""stim_listA/dance3.gif""style=""height:400px;""></stim_listA>",is dancing with,
null,"<div style=""font-size:60px;"">+</div>",,html-keyboard-response,189,2147445,0.0-15.0-0.10,71802,List2A,black,man,,,,null,,,,
null,"<img src=""stim_listA/argue2.gif""style=""height:400px;""></stim_listA>",,html-keyboard-response,190,2149449,0.0-15.0-1.10,71802,List2A,black,man,,,,null,,,,
null,are arguing with each other,,html-keyboard-response,191,2151453,0.0-15.0-2.10,71802,List2A,black,man,,,,null,,,,
6774,,,survey-text,192,2158230,0.0-15.0-3.10,71802,List2A,black,man,,,,,"{""Q0"":""Jane and Luke are arguing with one another""}","<img src=""stim_listA/argue2.gif""style=""height:400px;""></stim_listA>",are arguing with each other,
null,"<div style=""font-size:60px;"">+</div>",,html-keyboard-response,193,2158733,0.0-15.0-0.11,71802,List2A,black,man,,,,null,,,,
null,"<img src=""stim_listA/flirt1.gif""style=""height:400px;""></stim_listA>",,html-keyboard-response,194,2160736,0.0-15.0-1.11,71802,List2A,black,man,,,,null,,,,
null,is flirting with,,html-keyboard-response,195,2162740,0.0-15.0-2.11,71802,List2A,black,man,,,,null,,,,
4099,,,survey-text,196,2166842,0.0-15.0-3.11,71802,List2A,black,man,,,,,"{""Q0"":""Luke is flirting with jane""}","<img src=""stim_listA/flirt1.gif""style=""height:400px;""></stim_listA>",is flirting with,
null,"<div style=""font-size:60px;"">+</div>",,html-keyboard-response,197,2167345,0.0-15.0-0.12,71802,List2A,black,man,,,,null,,,,
null,"<img src=""stim_listA/play2.gif""style=""height:400px;""></stim_listA>",,html-keyboard-response,198,2169348,0.0-15.0-1.12,71802,List2A,black,man,,,,null,,,,
null,are playing with each other,,html-keyboard-response,199,2171352,0.0-15.0-2.12,71802,List2A,black,man,,,,null,,,,
5933,,,survey-text,200,2177288,0.0-15.0-3.12,71802,List2A,black,man,,,,,"{""Q0"":""Luke and Ruth are playing with each other""}","<img src=""stim_listA/play2.gif""style=""height:400px;""></stim_listA>",are playing with each other,
null,"<div style=""font-size:60px;"">+</div>",,html-keyboard-response,201,2177793,0.0-15.0-0.13,71802,List2A,black,man,,,,null,,,,
null,"<img src=""stim_listA/flirt2.gif""style=""height:400px;""></stim_listA>",,html-keyboard-response,202,2179798,0.0-15.0-1.13,71802,List2A,black,man,,,,null,,,,
null,are flirting with each other,,html-keyboard-response,203,2181802,0.0-15.0-2.13,71802,List2A,black,man,,,,null,,,,
9138,,,survey-text,204,2190943,0.0-15.0-3.13,71802,List2A,black,man,,,,,"{""Q0"":""Dave is flirting with Ruth ""}","<img src=""stim_listA/flirt2.gif""style=""height:400px;""></stim_listA>",are flirting with each other,
null,"<div style=""font-size:60px;"">+</div>",,html-keyboard-response,205,2191445,0.0-15.0-0.14,71802,List2A,black,man,,,,null,,,,
null,"<img src=""stim_listA/play8.gif""style=""height:400px;""></stim_listA>",,html-keyboard-response,206,2193449,0.0-15.0-1.14,71802,List2A,black,man,,,,null,,,,
null,are playing with each other,,html-keyboard-response,207,2195452,0.0-15.0-2.14,71802,List2A,black,man,,,,null,,,,
4564,,,survey-text,208,2200020,0.0-15.0-3.14,71802,List2A,black,man,,,,,"{""Q0"":""Beth is playing with ruth""}","<img src=""stim_listA/play8.gif""style=""height:400px;""></stim_listA>",are playing with each other,
null,"<div style=""font-size:60px;"">+</div>",,html-keyboard-response,209,2200522,0.0-15.0-0.15,71802,List2A,black,man,,,,null,,,,
null,"<img src=""stim_listA/flirt3.gif""style=""height:400px;""></stim_listA>",,html-keyboard-response,210,2202525,0.0-15.0-1.15,71802,List2A,black,man,,,,null,,,,
null,is flirting with,,html-keyboard-response,211,2204531,0.0-15.0-2.15,71802,List2A,black,man,,,,null,,,,
11313,,,survey-text,212,2215851,0.0-15.0-3.15,71802,List2A,black,man,,,,,"{""Q0"":""""}","<img src=""stim_listA/flirt3.gif""style=""height:400px;""></stim_listA>",is flirting with,
null,"<div style=""font-size:60px;"">+</div>",,html-keyboard-response,213,2216354,0.0-15.0-0.16,71802,List2A,black,man,,,,null,,,,
null,"<img src=""stim_listA/argue3.gif""style=""height:400px;""></stim_listA>",,html-keyboard-response,214,2218358,0.0-15.0-1.16,71802,List2A,black,man,,,,null,,,,
null,is arguing with,,html-keyboard-response,215,2220361,0.0-15.0-2.16,71802,List2A,black,man,,,,null,,,,
3864,,,survey-text,216,2224227,0.0-15.0-3.16,71802,List2A,black,man,,,,,"{""Q0"":""Mike is arguing with beth""}","<img src=""stim_listA/argue3.gif""style=""height:400px;""></stim_listA>",is arguing with,
null,"<div style=""font-size:60px;"">+</div>",,html-keyboard-response,217,2224730,0.0-15.0-0.17,71802,List2A,black,man,,,,null,,,,
null,"<img src=""stim_listA/touch2.gif""style=""height:400px;""></stim_listA>",,html-keyboard-response,218,2226734,0.0-15.0-1.17,71802,List2A,black,man,,,,null,,,,
null,are touching each other,,html-keyboard-response,219,2228737,0.0-15.0-2.17,71802,List2A,black,man,,,,null,,,,
7051,,,survey-text,220,2235791,0.0-15.0-3.17,71802,List2A,black,man,,,,,"{""Q0"":""Luke is touching ruth""}","<img src=""stim_listA/touch2.gif""style=""height:400px;""></stim_listA>",are touching each other,
null,"<div style=""font-size:60px;"">+</div>",,html-keyboard-response,221,2236295,0.0-15.0-0.18,71802,List2A,black,man,,,,null,,,,
null,"<img src=""stim_listA/shout7.gif""style=""height:400px;""></stim_listA>",,html-keyboard-response,222,2238299,0.0-15.0-1.18,71802,List2A,black,man,,,,null,,,,
null,is shouting at,,html-keyboard-response,223,2240303,0.0-15.0-2.18,71802,List2A,black,man,,,,null,,,,
3905,,,survey-text,224,2244211,0.0-15.0-3.18,71802,List2A,black,man,,,,,"{""Q0"":""Ruth is shouting with beth""}","<img src=""stim_listA/shout7.gif""style=""height:400px;""></stim_listA>",is shouting at,
null,"<div style=""font-size:60px;"">+</div>",,html-keyboard-response,225,2244713,0.0-15.0-0.19,71802,List2A,black,man,,,,null,,,,
null,"<img src=""stim_listA/kiss2.gif""style=""height:400px;""></stim_listA>",,html-keyboard-response,226,2246718,0.0-15.0-1.19,71802,List2A,black,man,,,,null,,,,
null,are kissing each other,,html-keyboard-response,227,2248721,0.0-15.0-2.19,71802,List2A,black,man,,,,null,,,,
8161,,,survey-text,228,2256885,0.0-15.0-3.19,71802,List2A,black,man,,,,,"{""Q0"":""Dave and Jane are kissing each other""}","<img src=""stim_listA/kiss2.gif""style=""height:400px;""></stim_listA>",are kissing each other,
3229,"<img src='img/portrait_matrix_list2.jpg' style='width:900px;height:500px;''></img><p>If you have memorised all the portraits and names and are ready to start, press Continue.</p><p><strong>Please note: Your memory of these faces will be tested 4 times during this experiment.</strong></p>",0,html-button-response,229,2260115,0.0-16.0-0.0,71802,List2A,black,man,,,,,,,,
2845,"<img src=""portrait/WW2.jpg""style=""height:400px;""></img>",3,html-button-response,230,2263964,0.0-16.0-1.0,71802,List2A,black,man,,TRUE,3,,,,,
null,CORRECT,,html-keyboard-response,231,2265469,0.0-16.0-2.0-0.0,71802,List2A,black,man,,,,null,,,,
8062,"<img src=""portrait/BW1.jpg""style=""height:400px;""></img>",0,html-button-response,232,2273535,0.0-16.0-4.0,71802,List2A,black,man,,TRUE,0,,,,,
null,CORRECT,,html-keyboard-response,233,2275040,0.0-16.0-5.0-0.0,71802,List2A,black,man,,,,null,,,,
1809,"<img src=""portrait/BW2.jpg""style=""height:400px;""></img>",4,html-button-response,234,2276854,0.0-16.0-7.0,71802,List2A,black,man,,TRUE,2,,,,,
2063,"<img src=""portrait/BW2.jpg""style=""height:400px;""></img>",2,html-button-response,235,2279920,0.0-16.0-9.0-0.0,71802,List2A,black,man,,FALSE,2,,,,,
null,CORRECT,,html-keyboard-response,236,2281424,0.0-16.0-9.0-1.0-0.0,71802,List2A,black,man,,,,null,,,,
11190,"<img src=""portrait/BM1.jpg""style=""height:400px;""></img>",4,html-button-response,237,2292619,0.0-16.0-10.0,71802,List2A,black,man,,TRUE,4,,,,,
null,CORRECT,,html-keyboard-response,238,2294124,0.0-16.0-11.0-0.0,71802,List2A,black,man,,,,null,,,,
2003,"<img src=""portrait/WW1.jpg""style=""height:400px;""></img>",1,html-button-response,239,2296132,0.0-16.0-13.0,71802,List2A,black,man,,TRUE,1,,,,,
null,CORRECT,,html-keyboard-response,240,2297635,0.0-16.0-14.0-0.0,71802,List2A,black,man,,,,null,,,,
3814,"<img src=""portrait/WM2.jpg""style=""height:400px;""></img>",7,html-button-response,241,2301454,0.0-16.0-16.0,71802,List2A,black,man,,TRUE,7,,,,,
null,CORRECT,,html-keyboard-response,242,2302958,0.0-16.0-17.0-0.0,71802,List2A,black,man,,,,null,,,,
2184,"<img src=""portrait/WM1.jpg""style=""height:400px;""></img>",6,html-button-response,243,2305146,0.0-16.0-19.0,71802,List2A,black,man,,TRUE,6,,,,,
null,CORRECT,,html-keyboard-response,244,2306650,0.0-16.0-20.0-0.0,71802,List2A,black,man,,,,null,,,,
1713,"<img src=""portrait/BM2.jpg""style=""height:400px;""></img>",5,html-button-response,245,2308368,0.0-16.0-22.0,71802,List2A,black,man,,TRUE,5,,,,,
null,CORRECT,,html-keyboard-response,246,2309872,0.0-16.0-23.0-0.0,71802,List2A,black,man,,,,null,,,,
979,<p>You got 7 out of 8 right first time. Press Continue.</p>,0,html-button-response,247,2310854,0.0-16.0-25.0,71802,List2A,black,man,,,,,,,,
1413,"As you did not score 100%, the memory game will repeat. Press Continue.",0,html-button-response,248,2313271,0.0-16.0-26.0-0.0,71802,List2A,black,man,,,,,,,,
4342,"<img src='img/portrait_matrix_list2.jpg' style='width:900px;height:500px;''></img><p>If you have memorised all the portraits and names and are ready to start, press Continue.</p><p><strong>Please note: Your memory of these faces will be tested 4 times during this experiment.</strong></p>",0,html-button-response,249,2318619,0.0-16.1-0.1,71802,List2A,black,man,,,,,,,,
1176,"<img src=""portrait/WW2.jpg""style=""height:400px;""></img>",3,html-button-response,250,2320799,0.0-16.1-1.1,71802,List2A,black,man,,TRUE,3,,,,,
null,CORRECT,,html-keyboard-response,251,2322303,0.0-16.1-2.1-0.1,71802,List2A,black,man,,,,null,,,,
3212,"<img src=""portrait/BW1.jpg""style=""height:400px;""></img>",0,html-button-response,252,2325518,0.0-16.1-4.1,71802,List2A,black,man,,TRUE,0,,,,,
null,CORRECT,,html-keyboard-response,253,2327022,0.0-16.1-5.1-0.1,71802,List2A,black,man,,,,null,,,,
2497,"<img src=""portrait/BW2.jpg""style=""height:400px;""></img>",2,html-button-response,254,2329522,0.0-16.1-7.1,71802,List2A,black,man,,TRUE,2,,,,,
null,CORRECT,,html-keyboard-response,255,2331026,0.0-16.1-8.1-0.1,71802,List2A,black,man,,,,null,,,,
6009,"<img src=""portrait/BM1.jpg""style=""height:400px;""></img>",4,html-button-response,256,2337038,0.0-16.1-10.1,71802,List2A,black,man,,TRUE,4,,,,,
null,CORRECT,,html-keyboard-response,257,2338542,0.0-16.1-11.1-0.1,71802,List2A,black,man,,,,null,,,,
1345,"<img src=""portrait/WW1.jpg""style=""height:400px;""></img>",1,html-button-response,258,2339891,0.0-16.1-13.1,71802,List2A,black,man,,TRUE,1,,,,,
null,CORRECT,,html-keyboard-response,259,2341394,0.0-16.1-14.1-0.1,71802,List2A,black,man,,,,null,,,,
1752,"<img src=""portrait/WM2.jpg""style=""height:400px;""></img>",7,html-button-response,260,2343150,0.0-16.1-16.1,71802,List2A,black,man,,TRUE,7,,,,,
null,CORRECT,,html-keyboard-response,261,2344654,0.0-16.1-17.1-0.1,71802,List2A,black,man,,,,null,,,,
2309,"<img src=""portrait/WM1.jpg""style=""height:400px;""></img>",6,html-button-response,262,2346966,0.0-16.1-19.1,71802,List2A,black,man,,TRUE,6,,,,,
null,CORRECT,,html-keyboard-response,263,2348470,0.0-16.1-20.1-0.1,71802,List2A,black,man,,,,null,,,,
1048,"<img src=""portrait/BM2.jpg""style=""height:400px;""></img>",5,html-button-response,264,2349522,0.0-16.1-22.1,71802,List2A,black,man,,TRUE,5,,,,,
null,CORRECT,,html-keyboard-response,265,2351026,0.0-16.1-23.1-0.1,71802,List2A,black,man,,,,null,,,,
693,<p>You got 8 out of 8 right first time. Press Continue.</p>,0,html-button-response,266,2351721,0.0-16.1-25.1,71802,List2A,black,man,,,,,,,,
null,"<div style=""font-size:60px;"">+</div>",,html-keyboard-response,267,2353227,0.0-17.0-0.0,71802,List2A,black,man,,,,null,,,,
null,"<img src=""stim_listA/marry3.gif""style=""height:400px;""></stim_listA>",,html-keyboard-response,268,2355230,0.0-17.0-1.0,71802,List2A,black,man,,,,null,,,,
null,is marrying,,html-keyboard-response,269,2357234,0.0-17.0-2.0,71802,List2A,black,man,,,,null,,,,
5370,,,survey-text,270,2362613,0.0-17.0-3.0,71802,List2A,black,man,,,,,"{""Q0"":""Mike is marrying beth""}","<img src=""stim_listA/marry3.gif""style=""height:400px;""></stim_listA>",is marrying,
null,"<div style=""font-size:60px;"">+</div>",,html-keyboard-response,271,2363115,0.0-17.0-0.1,71802,List2A,black,man,,,,null,,,,
null,"<img src=""stim_listA/touch7.gif""style=""height:400px;""></stim_listA>",,html-keyboard-response,272,2365119,0.0-17.0-1.1,71802,List2A,black,man,,,,null,,,,
null,is touching,,html-keyboard-response,273,2367122,0.0-17.0-2.1,71802,List2A,black,man,,,,null,,,,
4559,,,survey-text,274,2371683,0.0-17.0-3.1,71802,List2A,black,man,,,,,"{""Q0"":""Jane is touching kate""}","<img src=""stim_listA/touch7.gif""style=""height:400px;""></stim_listA>",is touching,
null,"<div style=""font-size:60px;"">+</div>",,html-keyboard-response,275,2372185,0.0-17.0-0.2,71802,List2A,black,man,,,,null,,,,
null,"<img src=""stim_listA/argue7.gif""style=""height:400px;""></stim_listA>",,html-keyboard-response,276,2374189,0.0-17.0-1.2,71802,List2A,black,man,,,,null,,,,
null,is arguing with,,html-keyboard-response,277,2376192,0.0-17.0-2.2,71802,List2A,black,man,,,,null,,,,
4271,,,survey-text,278,2380465,0.0-17.0-3.2,71802,List2A,black,man,,,,,"{""Q0"":""Beth is arguing with Jane""}","<img src=""stim_listA/argue7.gif""style=""height:400px;""></stim_listA>",is arguing with,
null,"<div style=""font-size:60px;"">+</div>",,html-keyboard-response,279,2380968,0.0-17.0-0.3,71802,List2A,black,man,,,,null,,,,
null,"<img src=""stim_listA/marry6.gif""style=""height:400px;""></stim_listA>",,html-keyboard-response,280,2382972,0.0-17.0-1.3,71802,List2A,black,man,,,,null,,,,
null,are marrying each other,,html-keyboard-response,281,2384975,0.0-17.0-2.3,71802,List2A,black,man,,,,null,,,,
7997,,,survey-text,282,2392975,0.0-17.0-3.3,71802,List2A,black,man,,,,,"{""Q0"":""Luke and mike are marrying each other""}","<img src=""stim_listA/marry6.gif""style=""height:400px;""></stim_listA>",are marrying each other,
null,"<div style=""font-size:60px;"">+</div>",,html-keyboard-response,283,2393478,0.0-17.0-0.4,71802,List2A,black,man,,,,null,,,,
null,"<img src=""stim_listA/flirt4.gif""style=""height:400px;""></stim_listA>",,html-keyboard-response,284,2395481,0.0-17.0-1.4,71802,List2A,black,man,,,,null,,,,
null,are flirting with each other,,html-keyboard-response,285,2397485,0.0-17.0-2.4,71802,List2A,black,man,,,,null,,,,
7940,,,survey-text,286,2405427,0.0-17.0-3.4,71802,List2A,black,man,,,,,"{""Q0"":""Luke is flirting with beth""}","<img src=""stim_listA/flirt4.gif""style=""height:400px;""></stim_listA>",are flirting with each other,
null,"<div style=""font-size:60px;"">+</div>",,html-keyboard-response,287,2405931,0.0-17.0-0.5,71802,List2A,black,man,,,,null,,,,
null,"<img src=""stim_listA/talk3.gif""style=""height:400px;""></stim_listA>",,html-keyboard-response,288,2407935,0.0-17.0-1.5,71802,List2A,black,man,,,,null,,,,
null,is talking to,,html-keyboard-response,289,2409938,0.0-17.0-2.5,71802,List2A,black,man,,,,null,,,,
5559,,,survey-text,290,2415499,0.0-17.0-3.5,71802,List2A,black,man,,,,,"{""Q0"":""Kate is talking to Fred""}","<img src=""stim_listA/talk3.gif""style=""height:400px;""></stim_listA>",is talking to,
null,"<div style=""font-size:60px;"">+</div>",,html-keyboard-response,291,2416002,0.0-17.0-0.6,71802,List2A,black,man,,,,null,,,,
null,"<img src=""stim_listA/marry1.gif""style=""height:400px;""></stim_listA>",,html-keyboard-response,292,2418005,0.0-17.0-1.6,71802,List2A,black,man,,,,null,,,,
null,is marrying,,html-keyboard-response,293,2420009,0.0-17.0-2.6,71802,List2A,black,man,,,,null,,,,
5138,,,survey-text,294,2425149,0.0-17.0-3.6,71802,List2A,black,man,,,,,"{""Q0"":""Dave is marrying ruth""}","<img src=""stim_listA/marry1.gif""style=""height:400px;""></stim_listA>",is marrying,
null,"<div style=""font-size:60px;"">+</div>",,html-keyboard-response,295,2425651,0.0-17.0-0.7,71802,List2A,black,man,,,,null,,,,
null,"<img src=""stim_listA/shout2.gif""style=""height:400px;""></stim_listA>",,html-keyboard-response,296,2427655,0.0-17.0-1.7,71802,List2A,black,man,,,,null,,,,
null,are shouting at each other,,html-keyboard-response,297,2429659,0.0-17.0-2.7,71802,List2A,black,man,,,,null,,,,
4981,,,survey-text,298,2434642,0.0-17.0-3.7,71802,List2A,black,man,,,,,"{""Q0"":""Dave and Jane are arguing""}","<img src=""stim_listA/shout2.gif""style=""height:400px;""></stim_listA>",are shouting at each other,
null,"<div style=""font-size:60px;"">+</div>",,html-keyboard-response,299,2435145,0.0-17.0-0.8,71802,List2A,black,man,,,,null,,,,
null,"<img src=""stim_listA/argue5.gif""style=""height:400px;""></stim_listA>",,html-keyboard-response,300,2437149,0.0-17.0-1.8,71802,List2A,black,man,,,,null,,,,
null,is arguing with,,html-keyboard-response,301,2439152,0.0-17.0-2.8,71802,List2A,black,man,,,,null,,,,
4329,,,survey-text,302,2443485,0.0-17.0-3.8,71802,List2A,black,man,,,,,"{""Q0"":""Fred is arguing with Dave ""}","<img src=""stim_listA/argue5.gif""style=""height:400px;""></stim_listA>",is arguing with,
null,"<div style=""font-size:60px;"">+</div>",,html-keyboard-response,303,2443988,0.0-17.0-0.9,71802,List2A,black,man,,,,null,,,,
null,"<img src=""stim_listA/touch1.gif""style=""height:400px;""></stim_listA>",,html-keyboard-response,304,2445992,0.0-17.0-1.9,71802,List2A,black,man,,,,null,,,,
null,is touching,,html-keyboard-response,305,2447996,0.0-17.0-2.9,71802,List2A,black,man,,,,null,,,,
4025,,,survey-text,306,2452023,0.0-17.0-3.9,71802,List2A,black,man,,,,,"{""Q0"":""Dave is touching Kate ""}","<img src=""stim_listA/touch1.gif""style=""height:400px;""></stim_listA>",is touching,
null,"<div style=""font-size:60px;"">+</div>",,html-keyboard-response,307,2452526,0.0-17.0-0.10,71802,List2A,black,man,,,,null,,,,
null,"<img src=""stim_listA/dance6.gif""style=""height:400px;""></stim_listA>",,html-keyboard-response,308,2454530,0.0-17.0-1.10,71802,List2A,black,man,,,,null,,,,
null,are dancing with each other,,html-keyboard-response,309,2456534,0.0-17.0-2.10,71802,List2A,black,man,,,,null,,,,
10015,,,survey-text,310,2466552,0.0-17.0-3.10,71802,List2A,black,man,,,,,"{""Q0"":""Fred and Dave are dancing with each other""}","<img src=""stim_listA/dance6.gif""style=""height:400px;""></stim_listA>",are dancing with each other,
null,"<div style=""font-size:60px;"">+</div>",,html-keyboard-response,311,2467056,0.0-17.0-0.11,71802,List2A,black,man,,,,null,,,,
null,"<img src=""stim_listA/talk8.gif""style=""height:400px;""></stim_listA>",,html-keyboard-response,312,2469060,0.0-17.0-1.11,71802,List2A,black,man,,,,null,,,,
null,are talking to each other,,html-keyboard-response,313,2471063,0.0-17.0-2.11,71802,List2A,black,man,,,,null,,,,
7877,,,survey-text,314,2478943,0.0-17.0-3.11,71802,List2A,black,man,,,,,"{""Q0"":""Jane and Beth are talking to each other""}","<img src=""stim_listA/talk8.gif""style=""height:400px;""></stim_listA>",are talking to each other,
null,"<div style=""font-size:60px;"">+</div>",,html-keyboard-response,315,2479446,0.0-17.0-0.12,71802,List2A,black,man,,,,null,,,,
null,"<img src=""stim_listA/flirt8.gif""style=""height:400px;""></stim_listA>",,html-keyboard-response,316,2481454,0.0-17.0-1.12,71802,List2A,black,man,,,,null,,,,
null,are flirting with each other,,html-keyboard-response,317,2483460,0.0-17.0-2.12,71802,List2A,black,man,,,,null,,,,
5700,,,survey-text,318,2489163,0.0-17.0-3.12,71802,List2A,black,man,,,,,"{""Q0"":""Jane is flirting with kate""}","<img src=""stim_listA/flirt8.gif""style=""height:400px;""></stim_listA>",are flirting with each other,
null,"<div style=""font-size:60px;"">+</div>",,html-keyboard-response,319,2489666,0.0-17.0-0.13,71802,List2A,black,man,,,,null,,,,
null,"<img src=""stim_listA/touch4.gif""style=""height:400px;""></stim_listA>",,html-keyboard-response,320,2491672,0.0-17.0-1.13,71802,List2A,black,man,,,,null,,,,
null,are touching each other,,html-keyboard-response,321,2493677,0.0-17.0-2.13,71802,List2A,black,man,,,,null,,,,
9181,,,survey-text,322,2502861,0.0-17.0-3.13,71802,List2A,black,man,,,,,"{""Q0"":""Fred and Beth are touching each other ""}","<img src=""stim_listA/touch4.gif""style=""height:400px;""></stim_listA>",are touching each other,
null,"<div style=""font-size:60px;"">+</div>",,html-keyboard-response,323,2503364,0.0-17.0-0.14,71802,List2A,black,man,,,,null,,,,
null,"<img src=""stim_listA/kiss5.gif""style=""height:400px;""></stim_listA>",,html-keyboard-response,324,2505367,0.0-17.0-1.14,71802,List2A,black,man,,,,null,,,,
null,is kissing,,html-keyboard-response,325,2507371,0.0-17.0-2.14,71802,List2A,black,man,,,,null,,,,
6705,,,survey-text,326,2514079,0.0-17.0-3.14,71802,List2A,black,man,,,,,"{""Q0"":""Luke is kissing fred""}","<img src=""stim_listA/kiss5.gif""style=""height:400px;""></stim_listA>",is kissing,
null,"<div style=""font-size:60px;"">+</div>",,html-keyboard-response,327,2514582,0.0-17.0-0.15,71802,List2A,black,man,,,,null,,,,
null,"<img src=""stim_listA/marry5.gif""style=""height:400px;""></stim_listA>",,html-keyboard-response,328,2516585,0.0-17.0-1.15,71802,List2A,black,man,,,,null,,,,
null,is marrying,,html-keyboard-response,329,2518589,0.0-17.0-2.15,71802,List2A,black,man,,,,null,,,,
3668,,,survey-text,330,2522260,0.0-17.0-3.15,71802,List2A,black,man,,,,,"{""Q0"":""Dave is marrying fred""}","<img src=""stim_listA/marry5.gif""style=""height:400px;""></stim_listA>",is marrying,
null,"<div style=""font-size:60px;"">+</div>",,html-keyboard-response,331,2522763,0.0-17.0-0.16,71802,List2A,black,man,,,,null,,,,
null,"<img src=""stim_listA/fight7.gif""style=""height:400px;""></stim_listA>",,html-keyboard-response,332,2524767,0.0-17.0-1.16,71802,List2A,black,man,,,,null,,,,
null,is fighting,,html-keyboard-response,333,2526770,0.0-17.0-2.16,71802,List2A,black,man,,,,null,,,,
3406,,,survey-text,334,2530180,0.0-17.0-3.16,71802,List2A,black,man,,,,,"{""Q0"":""Jane is fighting kate""}","<img src=""stim_listA/fight7.gif""style=""height:400px;""></stim_listA>",is fighting,
null,"<div style=""font-size:60px;"">+</div>",,html-keyboard-response,335,2530683,0.0-17.0-0.17,71802,List2A,black,man,,,,null,,,,
null,"<img src=""stim_listA/play1.gif""style=""height:400px;""></stim_listA>",,html-keyboard-response,336,2532686,0.0-17.0-1.17,71802,List2A,black,man,,,,null,,,,
null,is playing with,,html-keyboard-response,337,2534690,0.0-17.0-2.17,71802,List2A,black,man,,,,null,,,,
5773,,,survey-text,338,2540465,0.0-17.0-3.17,71802,List2A,black,man,,,,,"{""Q0"":""Dave is playing with kate""}","<img src=""stim_listA/play1.gif""style=""height:400px;""></stim_listA>",is playing with,
null,"<div style=""font-size:60px;"">+</div>",,html-keyboard-response,339,2540968,0.0-17.0-0.18,71802,List2A,black,man,,,,null,,,,
null,"<img src=""stim_listA/shout4.gif""style=""height:400px;""></stim_listA>",,html-keyboard-response,340,2542972,0.0-17.0-1.18,71802,List2A,black,man,,,,null,,,,
null,are shouting at each other,,html-keyboard-response,341,2544975,0.0-17.0-2.18,71802,List2A,black,man,,,,null,,,,
6998,,,survey-text,342,2551976,0.0-17.0-3.18,71802,List2A,black,man,,,,,"{""Q0"":""Kate and mike are shouting at each other""}","<img src=""stim_listA/shout4.gif""style=""height:400px;""></stim_listA>",are shouting at each other,
null,"<div style=""font-size:60px;"">+</div>",,html-keyboard-response,343,2552479,0.0-17.0-0.19,71802,List2A,black,man,,,,null,,,,
null,"<img src=""stim_listA/shout6.gif""style=""height:400px;""></stim_listA>",,html-keyboard-response,344,2554482,0.0-17.0-1.19,71802,List2A,black,man,,,,null,,,,
null,are shouting at each other,,html-keyboard-response,345,2556486,0.0-17.0-2.19,71802,List2A,black,man,,,,null,,,,
6880,,,survey-text,346,2563368,0.0-17.0-3.19,71802,List2A,black,man,,,,,"{""Q0"":""Dave and mike are shouting with each other ""}","<img src=""stim_listA/shout6.gif""style=""height:400px;""></stim_listA>",are shouting at each other,
2021,"<img src='img/portrait_matrix_list2.jpg' style='width:900px;height:500px;''></img><p>If you have memorised all the portraits and names and are ready to start, press Continue.</p><p><strong>Please note: Your memory of these faces will be tested 4 times during this experiment.</strong></p>",0,html-button-response,347,2565391,0.0-18.0-0.0,71802,List2A,black,man,,,,,,,,
3023,"<img src=""portrait/BW1.jpg""style=""height:400px;""></img>",0,html-button-response,348,2569420,0.0-18.0-1.0,71802,List2A,black,man,,TRUE,0,,,,,
null,CORRECT,,html-keyboard-response,349,2570924,0.0-18.0-2.0-0.0,71802,List2A,black,man,,,,null,,,,
1391,"<img src=""portrait/WW1.jpg""style=""height:400px;""></img>",1,html-button-response,350,2572320,0.0-18.0-4.0,71802,List2A,black,man,,TRUE,1,,,,,
null,CORRECT,,html-keyboard-response,351,2573824,0.0-18.0-5.0-0.0,71802,List2A,black,man,,,,null,,,,
927,"<img src=""portrait/WW2.jpg""style=""height:400px;""></img>",3,html-button-response,352,2574756,0.0-18.0-7.0,71802,List2A,black,man,,TRUE,3,,,,,
null,CORRECT,,html-keyboard-response,353,2576260,0.0-18.0-8.0-0.0,71802,List2A,black,man,,,,null,,,,
1741,"<img src=""portrait/WM1.jpg""style=""height:400px;""></img>",6,html-button-response,354,2578005,0.0-18.0-10.0,71802,List2A,black,man,,TRUE,6,,,,,
null,CORRECT,,html-keyboard-response,355,2579508,0.0-18.0-11.0-0.0,71802,List2A,black,man,,,,null,,,,
4509,"<img src=""portrait/BW2.jpg""style=""height:400px;""></img>",2,html-button-response,356,2584022,0.0-18.0-13.0,71802,List2A,black,man,,TRUE,2,,,,,
null,CORRECT,,html-keyboard-response,357,2585526,0.0-18.0-14.0-0.0,71802,List2A,black,man,,,,null,,,,
1360,"<img src=""portrait/BM2.jpg""style=""height:400px;""></img>",5,html-button-response,358,2586891,0.0-18.0-16.0,71802,List2A,black,man,,TRUE,5,,,,,
null,CORRECT,,html-keyboard-response,359,2588395,0.0-18.0-17.0-0.0,71802,List2A,black,man,,,,null,,,,
2007,"<img src=""portrait/BM1.jpg""style=""height:400px;""></img>",4,html-button-response,360,2590406,0.0-18.0-19.0,71802,List2A,black,man,,TRUE,4,,,,,
null,CORRECT,,html-keyboard-response,361,2591910,0.0-18.0-20.0-0.0,71802,List2A,black,man,,,,null,,,,
943,"<img src=""portrait/WM2.jpg""style=""height:400px;""></img>",7,html-button-response,362,2592858,0.0-18.0-22.0,71802,List2A,black,man,,TRUE,7,,,,,
null,CORRECT,,html-keyboard-response,363,2594362,0.0-18.0-23.0-0.0,71802,List2A,black,man,,,,null,,,,
810,<p>You got 8 out of 8 right first time. Press Continue.</p>,0,html-button-response,364,2595176,0.0-18.0-25.0,71802,List2A,black,man,,,,,,,,
null,"<div style=""font-size:60px;"">+</div>",,html-keyboard-response,365,2596683,0.0-19.0-0.0,71802,List2A,black,man,,,,null,,,,
null,"<img src=""stim_listA/flirt7.gif""style=""height:400px;""></stim_listA>",,html-keyboard-response,366,2598687,0.0-19.0-1.0,71802,List2A,black,man,,,,null,,,,
null,is flirting with,,html-keyboard-response,367,2600691,0.0-19.0-2.0,71802,List2A,black,man,,,,null,,,,
6860,,,survey-text,368,2607554,0.0-19.0-3.0,71802,List2A,black,man,,,,,"{""Q0"":""Kate is flirting with ruth""}","<img src=""stim_listA/flirt7.gif""style=""height:400px;""></stim_listA>",is flirting with,
null,"<div style=""font-size:60px;"">+</div>",,html-keyboard-response,369,2608057,0.0-19.0-0.1,71802,List2A,black,man,,,,null,,,,
null,"<img src=""stim_listA/fight3.gif""style=""height:400px;""></stim_listA>",,html-keyboard-response,370,2610062,0.0-19.0-1.1,71802,List2A,black,man,,,,null,,,,
null,is fighting,,html-keyboard-response,371,2612071,0.0-19.0-2.1,71802,List2A,black,man,,,,null,,,,
3642,,,survey-text,372,2615716,0.0-19.0-3.1,71802,List2A,black,man,,,,,"{""Q0"":""Kate is fighting mike""}","<img src=""stim_listA/fight3.gif""style=""height:400px;""></stim_listA>",is fighting,
null,"<div style=""font-size:60px;"">+</div>",,html-keyboard-response,373,2616219,0.0-19.0-0.2,71802,List2A,black,man,,,,null,,,,
null,"<img src=""stim_listA/touch6.gif""style=""height:400px;""></stim_listA>",,html-keyboard-response,374,2618223,0.0-19.0-1.2,71802,List2A,black,man,,,,null,,,,
null,are touching each other,,html-keyboard-response,375,2620226,0.0-19.0-2.2,71802,List2A,black,man,,,,null,,,,
9388,,,survey-text,376,2629617,0.0-19.0-3.2,71802,List2A,black,man,,,,,"{""Q0"":""Fred and Luke are touching each other""}","<img src=""stim_listA/touch6.gif""style=""height:400px;""></stim_listA>",are touching each other,
null,"<div style=""font-size:60px;"">+</div>",,html-keyboard-response,377,2630119,0.0-19.0-0.3,71802,List2A,black,man,,,,null,,,,
null,"<img src=""stim_listA/fight2.gif""style=""height:400px;""></stim_listA>",,html-keyboard-response,378,2632122,0.0-19.0-1.3,71802,List2A,black,man,,,,null,,,,
null,are fighting each other,,html-keyboard-response,379,2634127,0.0-19.0-2.3,71802,List2A,black,man,,,,null,,,,
17750,,,survey-text,380,2651880,0.0-19.0-3.3,71802,List2A,black,man,,,,,"{""Q0"":""""}","<img src=""stim_listA/fight2.gif""style=""height:400px;""></stim_listA>",are fighting each other,
null,"<div style=""font-size:60px;"">+</div>",,html-keyboard-response,381,2652382,0.0-19.0-0.4,71802,List2A,black,man,,,,null,,,,
null,"<img src=""stim_listA/marry4.gif""style=""height:400px;""></stim_listA>",,html-keyboard-response,382,2654386,0.0-19.0-1.4,71802,List2A,black,man,,,,null,,,,
null,are marrying each other,,html-keyboard-response,383,2656389,0.0-19.0-2.4,71802,List2A,black,man,,,,null,,,,
12243,,,survey-text,384,2668635,0.0-19.0-3.4,71802,List2A,black,man,,,,,"{""Q0"":""Fred and Kate are marrying each other""}","<img src=""stim_listA/marry4.gif""style=""height:400px;""></stim_listA>",are marrying each other,
null,"<div style=""font-size:60px;"">+</div>",,html-keyboard-response,385,2669138,0.0-19.0-0.5,71802,List2A,black,man,,,,null,,,,
null,"<img src=""stim_listA/fight1.gif""style=""height:400px;""></stim_listA>",,html-keyboard-response,386,2671142,0.0-19.0-1.5,71802,List2A,black,man,,,,null,,,,
null,is fighting,,html-keyboard-response,387,2673146,0.0-19.0-2.5,71802,List2A,black,man,,,,null,,,,
35341,,,survey-text,388,2708490,0.0-19.0-3.5,71802,List2A,black,man,,,,,"{""Q0"":""Dave is fighting fred""}","<img src=""stim_listA/fight1.gif""style=""height:400px;""></stim_listA>",is fighting,
null,"<div style=""font-size:60px;"">+</div>",,html-keyboard-response,389,2708994,0.0-19.0-0.6,71802,List2A,black,man,,,,null,,,,
null,"<img src=""stim_listA/dance2.gif""style=""height:400px;""></stim_listA>",,html-keyboard-response,390,2710998,0.0-19.0-1.6,71802,List2A,black,man,,,,null,,,,
null,are dancing with each other,,html-keyboard-response,391,2713002,0.0-19.0-2.6,71802,List2A,black,man,,,,null,,,,
7546,,,survey-text,392,2720552,0.0-19.0-3.6,71802,List2A,black,man,,,,,"{""Q0"":""""}","<img src=""stim_listA/dance2.gif""style=""height:400px;""></stim_listA>",are dancing with each other,
null,"<div style=""font-size:60px;"">+</div>",,html-keyboard-response,393,2721054,0.0-19.0-0.7,71802,List2A,black,man,,,,null,,,,
null,"<img src=""stim_listA/touch5.gif""style=""height:400px;""></stim_listA>",,html-keyboard-response,394,2723058,0.0-19.0-1.7,71802,List2A,black,man,,,,null,,,,
null,is touching,,html-keyboard-response,395,2725062,0.0-19.0-2.7,71802,List2A,black,man,,,,null,,,,
3486,,,survey-text,396,2728555,0.0-19.0-3.7,71802,List2A,black,man,,,,,"{""Q0"":""Mike is touching dave""}","<img src=""stim_listA/touch5.gif""style=""height:400px;""></stim_listA>",is touching,
null,"<div style=""font-size:60px;"">+</div>",,html-keyboard-response,397,2729058,0.0-19.0-0.8,71802,List2A,black,man,,,,null,,,,
null,"<img src=""stim_listA/talk7.gif""style=""height:400px;""></stim_listA>",,html-keyboard-response,398,2731061,0.0-19.0-1.8,71802,List2A,black,man,,,,null,,,,
null,is talking to,,html-keyboard-response,399,2733065,0.0-19.0-2.8,71802,List2A,black,man,,,,null,,,,
16254,,,survey-text,400,2749321,0.0-19.0-3.8,71802,List2A,black,man,,,,,"{""Q0"":""""}","<img src=""stim_listA/talk7.gif""style=""height:400px;""></stim_listA>",is talking to,
null,"<div style=""font-size:60px;"">+</div>",,html-keyboard-response,401,2749824,0.0-19.0-0.9,71802,List2A,black,man,,,,null,,,,
null,"<img src=""stim_listA/dance8.gif""style=""height:400px;""></stim_listA>",,html-keyboard-response,402,2751828,0.0-19.0-1.9,71802,List2A,black,man,,,,null,,,,
null,are dancing with each other,,html-keyboard-response,403,2753832,0.0-19.0-2.9,71802,List2A,black,man,,,,null,,,,
7032,,,survey-text,404,2760866,0.0-19.0-3.9,71802,List2A,black,man,,,,,"{""Q0"":""Beth and Jane are dancing with each other""}","<img src=""stim_listA/dance8.gif""style=""height:400px;""></stim_listA>",are dancing with each other,
null,"<div style=""font-size:60px;"">+</div>",,html-keyboard-response,405,2761369,0.0-19.0-0.10,71802,List2A,black,man,,,,null,,,,
null,"<img src=""stim_listA/touch3.gif""style=""height:400px;""></stim_listA>",,html-keyboard-response,406,2763376,0.0-19.0-1.10,71802,List2A,black,man,,,,null,,,,
null,is touching,,html-keyboard-response,407,2765379,0.0-19.0-2.10,71802,List2A,black,man,,,,null,,,,
3790,,,survey-text,408,2769172,0.0-19.0-3.10,71802,List2A,black,man,,,,,"{""Q0"":""Kate is touching mike""}","<img src=""stim_listA/touch3.gif""style=""height:400px;""></stim_listA>",is touching,
null,"<div style=""font-size:60px;"">+</div>",,html-keyboard-response,409,2769675,0.0-19.0-0.11,71802,List2A,black,man,,,,null,,,,
null,"<img src=""stim_listA/argue8.gif""style=""height:400px;""></stim_listA>",,html-keyboard-response,410,2771678,0.0-19.0-1.11,71802,List2A,black,man,,,,null,,,,
null,are arguing with each other,,html-keyboard-response,411,2773688,0.0-19.0-2.11,71802,List2A,black,man,,,,null,,,,
17953,,,survey-text,412,2791643,0.0-19.0-3.11,71802,List2A,black,man,,,,,"{""Q0"":""""}","<img src=""stim_listA/argue8.gif""style=""height:400px;""></stim_listA>",are arguing with each other,
null,"<div style=""font-size:60px;"">+</div>",,html-keyboard-response,413,2792146,0.0-19.0-0.12,71802,List2A,black,man,,,,null,,,,
null,"<img src=""stim_listA/shout3.gif""style=""height:400px;""></stim_listA>",,html-keyboard-response,414,2794150,0.0-19.0-1.12,71802,List2A,black,man,,,,null,,,,
null,is shouting at,,html-keyboard-response,415,2796153,0.0-19.0-2.12,71802,List2A,black,man,,,,null,,,,
4135,,,survey-text,416,2800292,0.0-19.0-3.12,71802,List2A,black,man,,,,,"{""Q0"":""Fred is shouting at beth""}","<img src=""stim_listA/shout3.gif""style=""height:400px;""></stim_listA>",is shouting at,
null,"<div style=""font-size:60px;"">+</div>",,html-keyboard-response,417,2800795,0.0-19.0-0.13,71802,List2A,black,man,,,,null,,,,
null,"<img src=""stim_listA/talk5.gif""style=""height:400px;""></stim_listA>",,html-keyboard-response,418,2802798,0.0-19.0-1.13,71802,List2A,black,man,,,,null,,,,
null,is talking to,,html-keyboard-response,419,2804801,0.0-19.0-2.13,71802,List2A,black,man,,,,null,,,,
4206,,,survey-text,420,2809010,0.0-19.0-3.13,71802,List2A,black,man,,,,,"{""Q0"":""Luke is talking to mike""}","<img src=""stim_listA/talk5.gif""style=""height:400px;""></stim_listA>",is talking to,
null,"<div style=""font-size:60px;"">+</div>",,html-keyboard-response,421,2809512,0.0-19.0-0.14,71802,List2A,black,man,,,,null,,,,
null,"<img src=""stim_listA/dance5.gif""style=""height:400px;""></stim_listA>",,html-keyboard-response,422,2811516,0.0-19.0-1.14,71802,List2A,black,man,,,,null,,,,
null,is dancing with,,html-keyboard-response,423,2813519,0.0-19.0-2.14,71802,List2A,black,man,,,,null,,,,
22712,,,survey-text,424,2836234,0.0-19.0-3.14,71802,List2A,black,man,,,,,"{""Q0"":""Mike is talking to luke""}","<img src=""stim_listA/dance5.gif""style=""height:400px;""></stim_listA>",is dancing with,
null,"<div style=""font-size:60px;"">+</div>",,html-keyboard-response,425,2836737,0.0-19.0-0.15,71802,List2A,black,man,,,,null,,,,
null,"<img src=""stim_listA/marry2.gif""style=""height:400px;""></stim_listA>",,html-keyboard-response,426,2838746,0.0-19.0-1.15,71802,List2A,black,man,,,,null,,,,
null,are marrying each other,,html-keyboard-response,427,2840751,0.0-19.0-2.15,71802,List2A,black,man,,,,null,,,,
6664,,,survey-text,428,2847417,0.0-19.0-3.15,71802,List2A,black,man,,,,,"{""Q0"":""Luke and Jane are marrying each other""}","<img src=""stim_listA/marry2.gif""style=""height:400px;""></stim_listA>",are marrying each other,
null,"<div style=""font-size:60px;"">+</div>",,html-keyboard-response,429,2847920,0.0-19.0-0.16,71802,List2A,black,man,,,,null,,,,
null,"<img src=""stim_listA/fight6.gif""style=""height:400px;""></stim_listA>",,html-keyboard-response,430,2849925,0.0-19.0-1.16,71802,List2A,black,man,,,,null,,,,
null,are fighting each other,,html-keyboard-response,431,2851928,0.0-19.0-2.16,71802,List2A,black,man,,,,null,,,,
8295,,,survey-text,432,2860227,0.0-19.0-3.16,71802,List2A,black,man,,,,,"{""Q0"":""Luke and Fred are fighting each other""}","<img src=""stim_listA/fight6.gif""style=""height:400px;""></stim_listA>",are fighting each other,
null,"<div style=""font-size:60px;"">+</div>",,html-keyboard-response,433,2860730,0.0-19.0-0.17,71802,List2A,black,man,,,,null,,,,
null,"<img src=""stim_listA/fight5.gif""style=""height:400px;""></stim_listA>",,html-keyboard-response,434,2862733,0.0-19.0-1.17,71802,List2A,black,man,,,,null,,,,
null,is fighting,,html-keyboard-response,435,2864736,0.0-19.0-2.17,71802,List2A,black,man,,,,null,,,,
4421,,,survey-text,436,2869160,0.0-19.0-3.17,71802,List2A,black,man,,,,,"{""Q0"":""Dave is fighting mike""}","<img src=""stim_listA/fight5.gif""style=""height:400px;""></stim_listA>",is fighting,
null,"<div style=""font-size:60px;"">+</div>",,html-keyboard-response,437,2869663,0.0-19.0-0.18,71802,List2A,black,man,,,,null,,,,
null,"<img src=""stim_listA/talk4.gif""style=""height:400px;""></stim_listA>",,html-keyboard-response,438,2871666,0.0-19.0-1.18,71802,List2A,black,man,,,,null,,,,
null,are talking to each other,,html-keyboard-response,439,2873670,0.0-19.0-2.18,71802,List2A,black,man,,,,null,,,,
8165,,,survey-text,440,2881845,0.0-19.0-3.18,71802,List2A,black,man,,,,,"{""Q0"":""Beth and mike are talking to one another""}","<img src=""stim_listA/talk4.gif""style=""height:400px;""></stim_listA>",are talking to each other,
null,"<div style=""font-size:60px;"">+</div>",,html-keyboard-response,441,2882346,0.0-19.0-0.19,71802,List2A,black,man,,,,null,,,,
null,"<img src=""stim_listA/marry8.gif""style=""height:400px;""></stim_listA>",,html-keyboard-response,442,2884350,0.0-19.0-1.19,71802,List2A,black,man,,,,null,,,,
null,are marrying each other,,html-keyboard-response,443,2886354,0.0-19.0-2.19,71802,List2A,black,man,,,,null,,,,
6291,,,survey-text,444,2892647,0.0-19.0-3.19,71802,List2A,black,man,,,,,"{""Q0"":""Ruth and Kate are marrying one another ""}","<img src=""stim_listA/marry8.gif""style=""height:400px;""></stim_listA>",are marrying each other,
1587,<p>Thank you for completing that task.</p><p>The final part of this session is a short questionnaire.</p><p>Press Continue.</p>,0,html-button-response,445,2894238,0.0-20.0,71802,List2A,black,man,,,,,,,,
15223,,,survey-text,446,2910466,0.0-21.0,71802,List2A,black,man,,,,,"{""Q0"":""25"",""Q1"":""English "",""Q2"":""English "",""Q3"":""United States"",""Q4"":""Black"",""Q5"":""Male""}",,,demographics
5018,,,survey-likert,447,2915503,0.0-22.0,71802,List2A,black,man,,,,,"{""Q0"":3}",,,likert_ESS
4310,,,survey-likert,448,2919820,0.0-23.0,71802,List2A,black,man,,,,,"{""Q0"":4}",,,likert_NSSAL_Q1
2441,,,survey-likert,449,2922265,0.0-24.0,71802,List2A,black,man,,,,,"{""Q0"":4}",,,likert_NSSAL_Q2
3542,,,survey-likert,450,2925818,0.0-25.0,71802,List2A,black,man,,,,,"{""Q0"":3}",,,likert_CGRS_Q1
3057,,,survey-likert,451,2928882,0.0-26.0,71802,List2A,black,man,,,,,"{""Q0"":1}",,,likert_CGRS_Q2
1677,,,survey-likert,452,2930567,0.0-27.0,71802,List2A,black,man,,,,,"{""Q0"":1}",,,likert_CGRS_Q3
8509,,,survey-text,453,2939084,0.0-28.0,71802,List2A,black,man,,,,,"{""Q0"":""ccc""}",,,worker_id
1380,,,external-html,454,2940924,0.0-29.0,71802,List2A,black,man,debrief.html,,,,,,,
