rt,stimulus,button_pressed,trial_type,trial_index,time_elapsed,internal_node_id,subject,list,ppt_race,ppt_gender,url,first_guess,correct,key_press,responses,image_type,phrase_type,test_part
3449,Welcome to the experiment. Press Continue to begin.,0,html-button-response,0,3469,0.0-0.0,73551,List2B,white,woman,,,,,,,,
40094,,,external-html,1,44703,0.0-1.0,73551,List2B,white,woman,consent.html,,,,,,,
11092,"<p>On the next page, you will see portraits of 8 people and their names.</p><p>Your first task is to take a few minutes to memorise the names of these people.</p><p>You will have to recall their names during the rest of the experiment, so it is</p><p>essential that you try to memorise these people and their names as best as you can.</p><br><p><strong>You will then be tested on your memory of these names and portraits.</strong></p><br><p>The experiment will start after you have completed this memory test.</p><br><p>Ready?</p>",0,html-button-response,2,55804,0.0-2.0,73551,List2B,white,woman,,,,,,,,
67358,"<img src='img/portrait_matrix_list2.jpg' style='width:900px;height:500px;''></img><p>If you have memorised all the portraits and names and are ready to start, press Continue.</p><p><strong>Please note: Your memory of these faces will be tested 4 times during this experiment.</strong></p>",0,html-button-response,3,124174,0.0-3.0-0.0,73551,List2B,white,woman,,,,,,,,
2843,"<img src=""portrait/WM1.jpg""style=""height:400px;""></img>",6,html-button-response,4,128043,0.0-3.0-1.0,73551,List2B,white,woman,,TRUE,6,,,,,
null,CORRECT,,html-keyboard-response,5,129559,0.0-3.0-2.0-0.0,73551,List2B,white,woman,,,,null,,,,
2338,"<img src=""portrait/BM1.jpg""style=""height:400px;""></img>",4,html-button-response,6,131907,0.0-3.0-4.0,73551,List2B,white,woman,,TRUE,4,,,,,
null,CORRECT,,html-keyboard-response,7,133419,0.0-3.0-5.0-0.0,73551,List2B,white,woman,,,,null,,,,
3625,"<img src=""portrait/BW1.jpg""style=""height:400px;""></img>",0,html-button-response,8,137052,0.0-3.0-7.0,73551,List2B,white,woman,,TRUE,0,,,,,
null,CORRECT,,html-keyboard-response,9,138558,0.0-3.0-8.0-0.0,73551,List2B,white,woman,,,,null,,,,
2313,"<img src=""portrait/BW2.jpg""style=""height:400px;""></img>",2,html-button-response,10,140878,0.0-3.0-10.0,73551,List2B,white,woman,,TRUE,2,,,,,
null,CORRECT,,html-keyboard-response,11,142383,0.0-3.0-11.0-0.0,73551,List2B,white,woman,,,,null,,,,
3040,"<img src=""portrait/BM2.jpg""style=""height:400px;""></img>",5,html-button-response,12,145430,0.0-3.0-13.0,73551,List2B,white,woman,,TRUE,5,,,,,
null,CORRECT,,html-keyboard-response,13,146936,0.0-3.0-14.0-0.0,73551,List2B,white,woman,,,,null,,,,
1889,"<img src=""portrait/WM2.jpg""style=""height:400px;""></img>",7,html-button-response,14,148833,0.0-3.0-16.0,73551,List2B,white,woman,,TRUE,7,,,,,
null,CORRECT,,html-keyboard-response,15,150338,0.0-3.0-17.0-0.0,73551,List2B,white,woman,,,,null,,,,
2404,"<img src=""portrait/WW2.jpg""style=""height:400px;""></img>",3,html-button-response,16,152750,0.0-3.0-19.0,73551,List2B,white,woman,,TRUE,3,,,,,
null,CORRECT,,html-keyboard-response,17,154257,0.0-3.0-20.0-0.0,73551,List2B,white,woman,,,,null,,,,
4256,"<img src=""portrait/WW1.jpg""style=""height:400px;""></img>",1,html-button-response,18,158519,0.0-3.0-22.0,73551,List2B,white,woman,,TRUE,1,,,,,
null,CORRECT,,html-keyboard-response,19,160024,0.0-3.0-23.0-0.0,73551,List2B,white,woman,,,,null,,,,
1843,<p>You got 8 out of 8 right first time. Press Continue.</p>,0,html-button-response,20,161874,0.0-3.0-25.0,73551,List2B,white,woman,,,,,,,,
36833,"<p>In this experiment, you will view photographs of the people from the memory game interacting.</p><p>By using the <strong>exact</strong> phrase given <i>after</i> the photograph appears and recalling the correct names of the people in the photographs, form a sentence describing the interaction. You do not need to capitalise names.</p><p>Type your answer in the space provided. Please complete every sentence before moving onto the next trial.</p><p>You will only have a few seconds to memorise each given photograph and phrase before you can respond, so try your best to focus.</p><p>An example is given below. Press 'Continue' when you are ready.</p><img src='img/speaking_example.jpg' style='width:800px;height:460px;''></img>",0,html-button-response,21,199721,0.0-4.0,73551,List2B,white,woman,,,,,,,,
3157,"<p>Before the experiment starts, you will watch two example trials. Press 'Continue'.</p>",0,html-button-response,22,203886,0.0-5.0,73551,List2B,white,woman,,,,,,,,
null,<img src='img/meet_eg.gif' style='height:400px;''></img>,,html-keyboard-response,23,206893,0.0-6.0,73551,List2B,white,woman,,,,null,,,,
null,<p>is meeting</p>,,html-keyboard-response,24,208899,0.0-7.0,73551,List2B,white,woman,,,,null,,,,
2876,<p><b>Answer:</b> jane is meeting ruth</p>,0,html-button-response,25,211779,0.0-8.0,73551,List2B,white,woman,,,,,,,,
null,<img src='img/look_eg.gif' style='height:400px;''></img>,,html-keyboard-response,26,214787,0.0-9.0,73551,List2B,white,woman,,,,null,,,,
null,<p>are looking at each other</p>,,html-keyboard-response,27,216791,0.0-10.0,73551,List2B,white,woman,,,,null,,,,
3713,<p><b>Answer:</b> fred and mike are looking at each other</p>,0,html-button-response,28,220508,0.0-11.0,73551,List2B,white,woman,,,,,,,,
7393,"<p>Ready to start the experiment?</p><br><p><strong>Remember to describe the picture using a full sentence,</strong></p><p><strong>that combines the names of the people with the <i>exact</i> phrase given.</strong></p><p><strong>To receive full payment you must do this correctly.</strong></p><p><strong> You do not need to capitalise names or use punctuation.</strong></p><br><p>Press 'Continue' to begin.</p>",0,html-button-response,29,228908,0.0-12.0,73551,List2B,white,woman,,,,,,,,
null,"<div style=""font-size:60px;"">+</div>",,html-keyboard-response,30,230412,0.0-13.0-0.0,73551,List2B,white,woman,,,,null,,,,
null,"<img src=""stim_listB/marry4.gif""style=""height:400px;""></stim_listB>",,html-keyboard-response,31,232421,0.0-13.0-1.0,73551,List2B,white,woman,,,,null,,,,
null,are marrying each other,,html-keyboard-response,32,234425,0.0-13.0-2.0,73551,List2B,white,woman,,,,null,,,,
10172,,,survey-text,33,244603,0.0-13.0-3.0,73551,List2B,white,woman,,,,,"{""Q0"":""Fred and Kate are marrying eachother""}","<img src=""stim_listB/marry4.gif""style=""height:400px;""></stim_listB>",are marrying each other,
null,"<div style=""font-size:60px;"">+</div>",,html-keyboard-response,34,245111,0.0-13.0-0.1,73551,List2B,white,woman,,,,null,,,,
null,"<img src=""stim_listB/marry6.gif""style=""height:400px;""></stim_listB>",,html-keyboard-response,35,247116,0.0-13.0-1.1,73551,List2B,white,woman,,,,null,,,,
null,are marrying each other,,html-keyboard-response,36,249120,0.0-13.0-2.1,73551,List2B,white,woman,,,,null,,,,
8144,,,survey-text,37,257270,0.0-13.0-3.1,73551,List2B,white,woman,,,,,"{""Q0"":""Mike and Luke are marrying eachother""}","<img src=""stim_listB/marry6.gif""style=""height:400px;""></stim_listB>",are marrying each other,
null,"<div style=""font-size:60px;"">+</div>",,html-keyboard-response,38,257775,0.0-13.0-0.2,73551,List2B,white,woman,,,,null,,,,
null,"<img src=""stim_listB/kiss5.gif""style=""height:400px;""></stim_listB>",,html-keyboard-response,39,259782,0.0-13.0-1.2,73551,List2B,white,woman,,,,null,,,,
null,is kissing,,html-keyboard-response,40,261786,0.0-13.0-2.2,73551,List2B,white,woman,,,,null,,,,
6504,,,survey-text,41,268295,0.0-13.0-3.2,73551,List2B,white,woman,,,,,"{""Q0"":""Fred is kissing luke""}","<img src=""stim_listB/kiss5.gif""style=""height:400px;""></stim_listB>",is kissing,
null,"<div style=""font-size:60px;"">+</div>",,html-keyboard-response,42,268801,0.0-13.0-0.3,73551,List2B,white,woman,,,,null,,,,
null,"<img src=""stim_listB/argue3.gif""style=""height:400px;""></stim_listB>",,html-keyboard-response,43,270808,0.0-13.0-1.3,73551,List2B,white,woman,,,,null,,,,
null,is arguing with,,html-keyboard-response,44,272812,0.0-13.0-2.3,73551,List2B,white,woman,,,,null,,,,
7510,,,survey-text,45,280328,0.0-13.0-3.3,73551,List2B,white,woman,,,,,"{""Q0"":""Kate is arguing with mike""}","<img src=""stim_listB/argue3.gif""style=""height:400px;""></stim_listB>",is arguing with,
null,"<div style=""font-size:60px;"">+</div>",,html-keyboard-response,46,280834,0.0-13.0-0.4,73551,List2B,white,woman,,,,null,,,,
null,"<img src=""stim_listB/shout2.gif""style=""height:400px;""></stim_listB>",,html-keyboard-response,47,282840,0.0-13.0-1.4,73551,List2B,white,woman,,,,null,,,,
null,are shouting at each other,,html-keyboard-response,48,284845,0.0-13.0-2.4,73551,List2B,white,woman,,,,null,,,,
10456,,,survey-text,49,295306,0.0-13.0-3.4,73551,List2B,white,woman,,,,,"{""Q0"":""Dan and Jane are shouting at eachother""}","<img src=""stim_listB/shout2.gif""style=""height:400px;""></stim_listB>",are shouting at each other,
null,"<div style=""font-size:60px;"">+</div>",,html-keyboard-response,50,295811,0.0-13.0-0.5,73551,List2B,white,woman,,,,null,,,,
null,"<img src=""stim_listB/talk7.gif""style=""height:400px;""></stim_listB>",,html-keyboard-response,51,297817,0.0-13.0-1.5,73551,List2B,white,woman,,,,null,,,,
null,is talking to,,html-keyboard-response,52,299821,0.0-13.0-2.5,73551,List2B,white,woman,,,,null,,,,
6624,,,survey-text,53,306451,0.0-13.0-3.5,73551,List2B,white,woman,,,,,"{""Q0"":""Kate is talking to ruth""}","<img src=""stim_listB/talk7.gif""style=""height:400px;""></stim_listB>",is talking to,
null,"<div style=""font-size:60px;"">+</div>",,html-keyboard-response,54,306956,0.0-13.0-0.6,73551,List2B,white,woman,,,,null,,,,
null,"<img src=""stim_listB/fight8.gif""style=""height:400px;""></stim_listB>",,html-keyboard-response,55,308962,0.0-13.0-1.6,73551,List2B,white,woman,,,,null,,,,
null,are fighting each other,,html-keyboard-response,56,310966,0.0-13.0-2.6,73551,List2B,white,woman,,,,null,,,,
9500,,,survey-text,57,320472,0.0-13.0-3.6,73551,List2B,white,woman,,,,,"{""Q0"":""Kate and Ruth are fighting eachother""}","<img src=""stim_listB/fight8.gif""style=""height:400px;""></stim_listB>",are fighting each other,
null,"<div style=""font-size:60px;"">+</div>",,html-keyboard-response,58,320977,0.0-13.0-0.7,73551,List2B,white,woman,,,,null,,,,
null,"<img src=""stim_listB/flirt1.gif""style=""height:400px;""></stim_listB>",,html-keyboard-response,59,322984,0.0-13.0-1.7,73551,List2B,white,woman,,,,null,,,,
null,is flirting with,,html-keyboard-response,60,324988,0.0-13.0-2.7,73551,List2B,white,woman,,,,null,,,,
9448,,,survey-text,61,334441,0.0-13.0-3.7,73551,List2B,white,woman,,,,,"{""Q0"":""Jane is flirting with Luke""}","<img src=""stim_listB/flirt1.gif""style=""height:400px;""></stim_listB>",is flirting with,
null,"<div style=""font-size:60px;"">+</div>",,html-keyboard-response,62,334945,0.0-13.0-0.8,73551,List2B,white,woman,,,,null,,,,
null,"<img src=""stim_listB/play4.gif""style=""height:400px;""></stim_listB>",,html-keyboard-response,63,336951,0.0-13.0-1.8,73551,List2B,white,woman,,,,null,,,,
null,are playing with each other,,html-keyboard-response,64,338954,0.0-13.0-2.8,73551,List2B,white,woman,,,,null,,,,
9885,,,survey-text,65,348844,0.0-13.0-3.8,73551,List2B,white,woman,,,,,"{""Q0"":""Fred and Kate are playing with eachother""}","<img src=""stim_listB/play4.gif""style=""height:400px;""></stim_listB>",are playing with each other,
null,"<div style=""font-size:60px;"">+</div>",,html-keyboard-response,66,349359,0.0-13.0-0.9,73551,List2B,white,woman,,,,null,,,,
null,"<img src=""stim_listB/marry3.gif""style=""height:400px;""></stim_listB>",,html-keyboard-response,67,351365,0.0-13.0-1.9,73551,List2B,white,woman,,,,null,,,,
null,is marrying,,html-keyboard-response,68,353368,0.0-13.0-2.9,73551,List2B,white,woman,,,,null,,,,
7434,,,survey-text,69,360807,0.0-13.0-3.9,73551,List2B,white,woman,,,,,"{""Q0"":""Mike is marrying kate""}","<img src=""stim_listB/marry3.gif""style=""height:400px;""></stim_listB>",is marrying,
null,"<div style=""font-size:60px;"">+</div>",,html-keyboard-response,70,361311,0.0-13.0-0.10,73551,List2B,white,woman,,,,null,,,,
null,"<img src=""stim_listB/touch5.gif""style=""height:400px;""></stim_listB>",,html-keyboard-response,71,363317,0.0-13.0-1.10,73551,List2B,white,woman,,,,null,,,,
null,is touching,,html-keyboard-response,72,365331,0.0-13.0-2.10,73551,List2B,white,woman,,,,null,,,,
7452,,,survey-text,73,372788,0.0-13.0-3.10,73551,List2B,white,woman,,,,,"{""Q0"":""Dave is touching mike""}","<img src=""stim_listB/touch5.gif""style=""height:400px;""></stim_listB>",is touching,
null,"<div style=""font-size:60px;"">+</div>",,html-keyboard-response,74,373293,0.0-13.0-0.11,73551,List2B,white,woman,,,,null,,,,
null,"<img src=""stim_listB/shout1.gif""style=""height:400px;""></stim_listB>",,html-keyboard-response,75,375299,0.0-13.0-1.11,73551,List2B,white,woman,,,,null,,,,
null,is shouting at,,html-keyboard-response,76,377303,0.0-13.0-2.11,73551,List2B,white,woman,,,,null,,,,
2074,,,survey-text,77,379381,0.0-13.0-3.11,73551,List2B,white,woman,,,,,"{""Q0"":""""}","<img src=""stim_listB/shout1.gif""style=""height:400px;""></stim_listB>",is shouting at,
null,"<div style=""font-size:60px;"">+</div>",,html-keyboard-response,78,379886,0.0-13.0-0.12,73551,List2B,white,woman,,,,null,,,,
null,"<img src=""stim_listB/play3.gif""style=""height:400px;""></stim_listB>",,html-keyboard-response,79,381890,0.0-13.0-1.12,73551,List2B,white,woman,,,,null,,,,
null,is playing with,,html-keyboard-response,80,383894,0.0-13.0-2.12,73551,List2B,white,woman,,,,null,,,,
6927,,,survey-text,81,390826,0.0-13.0-3.12,73551,List2B,white,woman,,,,,"{""Q0"":""Kate is playing with mike""}","<img src=""stim_listB/play3.gif""style=""height:400px;""></stim_listB>",is playing with,
null,"<div style=""font-size:60px;"">+</div>",,html-keyboard-response,82,391330,0.0-13.0-0.13,73551,List2B,white,woman,,,,null,,,,
null,"<img src=""stim_listB/kiss6.gif""style=""height:400px;""></stim_listB>",,html-keyboard-response,83,393337,0.0-13.0-1.13,73551,List2B,white,woman,,,,null,,,,
null,are kissing each other,,html-keyboard-response,84,395340,0.0-13.0-2.13,73551,List2B,white,woman,,,,null,,,,
8103,,,survey-text,85,403448,0.0-13.0-3.13,73551,List2B,white,woman,,,,,"{""Q0"":""Mike and Dan are kissing eachother""}","<img src=""stim_listB/kiss6.gif""style=""height:400px;""></stim_listB>",are kissing each other,
null,"<div style=""font-size:60px;"">+</div>",,html-keyboard-response,86,403952,0.0-13.0-0.14,73551,List2B,white,woman,,,,null,,,,
null,"<img src=""stim_listB/argue7.gif""style=""height:400px;""></stim_listB>",,html-keyboard-response,87,405958,0.0-13.0-1.14,73551,List2B,white,woman,,,,null,,,,
null,is arguing with,,html-keyboard-response,88,407962,0.0-13.0-2.14,73551,List2B,white,woman,,,,null,,,,
6837,,,survey-text,89,414804,0.0-13.0-3.14,73551,List2B,white,woman,,,,,"{""Q0"":""Beth is arguing with jane""}","<img src=""stim_listB/argue7.gif""style=""height:400px;""></stim_listB>",is arguing with,
null,"<div style=""font-size:60px;"">+</div>",,html-keyboard-response,90,415309,0.0-13.0-0.15,73551,List2B,white,woman,,,,null,,,,
null,"<img src=""stim_listB/argue6.gif""style=""height:400px;""></stim_listB>",,html-keyboard-response,91,417315,0.0-13.0-1.15,73551,List2B,white,woman,,,,null,,,,
null,are arguing with each other,,html-keyboard-response,92,419319,0.0-13.0-2.15,73551,List2B,white,woman,,,,null,,,,
9359,,,survey-text,93,428682,0.0-13.0-3.15,73551,List2B,white,woman,,,,,"{""Q0"":""luke and Mike are arguing with eachother""}","<img src=""stim_listB/argue6.gif""style=""height:400px;""></stim_listB>",are arguing with each other,
null,"<div style=""font-size:60px;"">+</div>",,html-keyboard-response,94,429187,0.0-13.0-0.16,73551,List2B,white,woman,,,,null,,,,
null,"<img src=""stim_listB/shout8.gif""style=""height:400px;""></stim_listB>",,html-keyboard-response,95,431194,0.0-13.0-1.16,73551,List2B,white,woman,,,,null,,,,
null,are shouting at each other,,html-keyboard-response,96,433198,0.0-13.0-2.16,73551,List2B,white,woman,,,,null,,,,
9056,,,survey-text,97,442258,0.0-13.0-3.16,73551,List2B,white,woman,,,,,"{""Q0"":""Jane and Kate are shouting at eachother""}","<img src=""stim_listB/shout8.gif""style=""height:400px;""></stim_listB>",are shouting at each other,
null,"<div style=""font-size:60px;"">+</div>",,html-keyboard-response,98,442763,0.0-13.0-0.17,73551,List2B,white,woman,,,,null,,,,
null,"<img src=""stim_listB/flirt8.gif""style=""height:400px;""></stim_listB>",,html-keyboard-response,99,444770,0.0-13.0-1.17,73551,List2B,white,woman,,,,null,,,,
null,are flirting with each other,,html-keyboard-response,100,446774,0.0-13.0-2.17,73551,List2B,white,woman,,,,null,,,,
10338,,,survey-text,101,457117,0.0-13.0-3.17,73551,List2B,white,woman,,,,,"{""Q0"":""Beth and Jane are flirting with eachother""}","<img src=""stim_listB/flirt8.gif""style=""height:400px;""></stim_listB>",are flirting with each other,
null,"<div style=""font-size:60px;"">+</div>",,html-keyboard-response,102,457623,0.0-13.0-0.18,73551,List2B,white,woman,,,,null,,,,
null,"<img src=""stim_listB/touch3.gif""style=""height:400px;""></stim_listB>",,html-keyboard-response,103,459630,0.0-13.0-1.18,73551,List2B,white,woman,,,,null,,,,
null,is touching,,html-keyboard-response,104,461634,0.0-13.0-2.18,73551,List2B,white,woman,,,,null,,,,
5883,,,survey-text,105,467522,0.0-13.0-3.18,73551,List2B,white,woman,,,,,"{""Q0"":""Mike is touching kate""}","<img src=""stim_listB/touch3.gif""style=""height:400px;""></stim_listB>",is touching,
null,"<div style=""font-size:60px;"">+</div>",,html-keyboard-response,106,468028,0.0-13.0-0.19,73551,List2B,white,woman,,,,null,,,,
null,"<img src=""stim_listB/dance8.gif""style=""height:400px;""></stim_listB>",,html-keyboard-response,107,470034,0.0-13.0-1.19,73551,List2B,white,woman,,,,null,,,,
null,are dancing with each other,,html-keyboard-response,108,472039,0.0-13.0-2.19,73551,List2B,white,woman,,,,null,,,,
9439,,,survey-text,109,481483,0.0-13.0-3.19,73551,List2B,white,woman,,,,,"{""Q0"":""Jane and Beth are dancing with eachother""}","<img src=""stim_listB/dance8.gif""style=""height:400px;""></stim_listB>",are dancing with each other,
13118,"<img src='img/portrait_matrix_list2.jpg' style='width:900px;height:500px;''></img><p>If you have memorised all the portraits and names and are ready to start, press Continue.</p><p><strong>Please note: Your memory of these faces will be tested 4 times during this experiment.</strong></p>",0,html-button-response,110,494611,0.0-14.0-0.0,73551,List2B,white,woman,,,,,,,,
3905,"<img src=""portrait/BM2.jpg""style=""height:400px;""></img>",5,html-button-response,111,499529,0.0-14.0-1.0,73551,List2B,white,woman,,TRUE,5,,,,,
null,CORRECT,,html-keyboard-response,112,501035,0.0-14.0-2.0-0.0,73551,List2B,white,woman,,,,null,,,,
1692,"<img src=""portrait/WM2.jpg""style=""height:400px;""></img>",7,html-button-response,113,502736,0.0-14.0-4.0,73551,List2B,white,woman,,TRUE,7,,,,,
null,CORRECT,,html-keyboard-response,114,504241,0.0-14.0-5.0-0.0,73551,List2B,white,woman,,,,null,,,,
1865,"<img src=""portrait/WW2.jpg""style=""height:400px;""></img>",3,html-button-response,115,506114,0.0-14.0-7.0,73551,List2B,white,woman,,TRUE,3,,,,,
null,CORRECT,,html-keyboard-response,116,507620,0.0-14.0-8.0-0.0,73551,List2B,white,woman,,,,null,,,,
2854,"<img src=""portrait/BW2.jpg""style=""height:400px;""></img>",2,html-button-response,117,510482,0.0-14.0-10.0,73551,List2B,white,woman,,TRUE,2,,,,,
null,CORRECT,,html-keyboard-response,118,511989,0.0-14.0-11.0-0.0,73551,List2B,white,woman,,,,null,,,,
6733,"<img src=""portrait/WM1.jpg""style=""height:400px;""></img>",6,html-button-response,119,518731,0.0-14.0-13.0,73551,List2B,white,woman,,TRUE,6,,,,,
null,CORRECT,,html-keyboard-response,120,520236,0.0-14.0-14.0-0.0,73551,List2B,white,woman,,,,null,,,,
5923,"<img src=""portrait/WW1.jpg""style=""height:400px;""></img>",1,html-button-response,121,526168,0.0-14.0-16.0,73551,List2B,white,woman,,TRUE,1,,,,,
null,CORRECT,,html-keyboard-response,122,527675,0.0-14.0-17.0-0.0,73551,List2B,white,woman,,,,null,,,,
2723,"<img src=""portrait/BM1.jpg""style=""height:400px;""></img>",4,html-button-response,123,530408,0.0-14.0-19.0,73551,List2B,white,woman,,TRUE,4,,,,,
null,CORRECT,,html-keyboard-response,124,531913,0.0-14.0-20.0-0.0,73551,List2B,white,woman,,,,null,,,,
2808,"<img src=""portrait/BW1.jpg""style=""height:400px;""></img>",0,html-button-response,125,534732,0.0-14.0-22.0,73551,List2B,white,woman,,TRUE,0,,,,,
null,CORRECT,,html-keyboard-response,126,536236,0.0-14.0-23.0-0.0,73551,List2B,white,woman,,,,null,,,,
2359,<p>You got 8 out of 8 right first time. Press Continue.</p>,0,html-button-response,127,538600,0.0-14.0-25.0,73551,List2B,white,woman,,,,,,,,
null,"<div style=""font-size:60px;"">+</div>",,html-keyboard-response,128,540108,0.0-15.0-0.0,73551,List2B,white,woman,,,,null,,,,
null,"<img src=""stim_listB/touch1.gif""style=""height:400px;""></stim_listB>",,html-keyboard-response,129,542114,0.0-15.0-1.0,73551,List2B,white,woman,,,,null,,,,
null,is touching,,html-keyboard-response,130,544118,0.0-15.0-2.0,73551,List2B,white,woman,,,,null,,,,
8394,,,survey-text,131,552518,0.0-15.0-3.0,73551,List2B,white,woman,,,,,"{""Q0"":""Jane is touching dave""}","<img src=""stim_listB/touch1.gif""style=""height:400px;""></stim_listB>",is touching,
null,"<div style=""font-size:60px;"">+</div>",,html-keyboard-response,132,553024,0.0-15.0-0.1,73551,List2B,white,woman,,,,null,,,,
null,"<img src=""stim_listB/talk8.gif""style=""height:400px;""></stim_listB>",,html-keyboard-response,133,555031,0.0-15.0-1.1,73551,List2B,white,woman,,,,null,,,,
null,are talking to each other,,html-keyboard-response,134,557035,0.0-15.0-2.1,73551,List2B,white,woman,,,,null,,,,
9380,,,survey-text,135,566420,0.0-15.0-3.1,73551,List2B,white,woman,,,,,"{""Q0"":""Jane and Beth are talking to eachother""}","<img src=""stim_listB/talk8.gif""style=""height:400px;""></stim_listB>",are talking to each other,
null,"<div style=""font-size:60px;"">+</div>",,html-keyboard-response,136,566927,0.0-15.0-0.2,73551,List2B,white,woman,,,,null,,,,
null,"<img src=""stim_listB/play6.gif""style=""height:400px;""></stim_listB>",,html-keyboard-response,137,568934,0.0-15.0-1.2,73551,List2B,white,woman,,,,null,,,,
null,are playing with each other,,html-keyboard-response,138,570938,0.0-15.0-2.2,73551,List2B,white,woman,,,,null,,,,
9077,,,survey-text,139,580020,0.0-15.0-3.2,73551,List2B,white,woman,,,,,"{""Q0"":""luke and Fred are playing with eachother""}","<img src=""stim_listB/play6.gif""style=""height:400px;""></stim_listB>",are playing with each other,
null,"<div style=""font-size:60px;"">+</div>",,html-keyboard-response,140,580525,0.0-15.0-0.3,73551,List2B,white,woman,,,,null,,,,
null,"<img src=""stim_listB/touch2.gif""style=""height:400px;""></stim_listB>",,html-keyboard-response,141,582531,0.0-15.0-1.3,73551,List2B,white,woman,,,,null,,,,
null,are touching each other,,html-keyboard-response,142,584535,0.0-15.0-2.3,73551,List2B,white,woman,,,,null,,,,
9391,,,survey-text,143,593930,0.0-15.0-3.3,73551,List2B,white,woman,,,,,"{""Q0"":""luke and Ruth are touching eachother""}","<img src=""stim_listB/touch2.gif""style=""height:400px;""></stim_listB>",are touching each other,
null,"<div style=""font-size:60px;"">+</div>",,html-keyboard-response,144,594435,0.0-15.0-0.4,73551,List2B,white,woman,,,,null,,,,
null,"<img src=""stim_listB/touch8.gif""style=""height:400px;""></stim_listB>",,html-keyboard-response,145,596453,0.0-15.0-1.4,73551,List2B,white,woman,,,,null,,,,
null,are touching each other,,html-keyboard-response,146,598457,0.0-15.0-2.4,73551,List2B,white,woman,,,,null,,,,
1057,,,survey-text,147,599519,0.0-15.0-3.4,73551,List2B,white,woman,,,,,"{""Q0"":""""}","<img src=""stim_listB/touch8.gif""style=""height:400px;""></stim_listB>",are touching each other,
null,"<div style=""font-size:60px;"">+</div>",,html-keyboard-response,148,600024,0.0-15.0-0.5,73551,List2B,white,woman,,,,null,,,,
null,"<img src=""stim_listB/dance1.gif""style=""height:400px;""></stim_listB>",,html-keyboard-response,149,602030,0.0-15.0-1.5,73551,List2B,white,woman,,,,null,,,,
null,is dancing with,,html-keyboard-response,150,604036,0.0-15.0-2.5,73551,List2B,white,woman,,,,null,,,,
4906,,,survey-text,151,608947,0.0-15.0-3.5,73551,List2B,white,woman,,,,,"{""Q0"":""""}","<img src=""stim_listB/dance1.gif""style=""height:400px;""></stim_listB>",is dancing with,
null,"<div style=""font-size:60px;"">+</div>",,html-keyboard-response,152,609453,0.0-15.0-0.6,73551,List2B,white,woman,,,,null,,,,
null,"<img src=""stim_listB/flirt7.gif""style=""height:400px;""></stim_listB>",,html-keyboard-response,153,611460,0.0-15.0-1.6,73551,List2B,white,woman,,,,null,,,,
null,is flirting with,,html-keyboard-response,154,613464,0.0-15.0-2.6,73551,List2B,white,woman,,,,null,,,,
9750,,,survey-text,155,623219,0.0-15.0-3.6,73551,List2B,white,woman,,,,,"{""Q0"":""Kate and Ruth are flirting with eachother""}","<img src=""stim_listB/flirt7.gif""style=""height:400px;""></stim_listB>",is flirting with,
null,"<div style=""font-size:60px;"">+</div>",,html-keyboard-response,156,623724,0.0-15.0-0.7,73551,List2B,white,woman,,,,null,,,,
null,"<img src=""stim_listB/shout6.gif""style=""height:400px;""></stim_listB>",,html-keyboard-response,157,625731,0.0-15.0-1.7,73551,List2B,white,woman,,,,null,,,,
null,are shouting at each other,,html-keyboard-response,158,627734,0.0-15.0-2.7,73551,List2B,white,woman,,,,null,,,,
9516,,,survey-text,159,637255,0.0-15.0-3.7,73551,List2B,white,woman,,,,,"{""Q0"":""Dave and Mike are shouting at eachother""}","<img src=""stim_listB/shout6.gif""style=""height:400px;""></stim_listB>",are shouting at each other,
null,"<div style=""font-size:60px;"">+</div>",,html-keyboard-response,160,637761,0.0-15.0-0.8,73551,List2B,white,woman,,,,null,,,,
null,"<img src=""stim_listB/kiss4.gif""style=""height:400px;""></stim_listB>",,html-keyboard-response,161,639767,0.0-15.0-1.8,73551,List2B,white,woman,,,,null,,,,
null,are kissing each other,,html-keyboard-response,162,641771,0.0-15.0-2.8,73551,List2B,white,woman,,,,null,,,,
9110,,,survey-text,163,650888,0.0-15.0-3.8,73551,List2B,white,woman,,,,,"{""Q0"":""Mike and Kate are kissing eachother""}","<img src=""stim_listB/kiss4.gif""style=""height:400px;""></stim_listB>",are kissing each other,
null,"<div style=""font-size:60px;"">+</div>",,html-keyboard-response,164,651393,0.0-15.0-0.9,73551,List2B,white,woman,,,,null,,,,
null,"<img src=""stim_listB/touch6.gif""style=""height:400px;""></stim_listB>",,html-keyboard-response,165,653399,0.0-15.0-1.9,73551,List2B,white,woman,,,,null,,,,
null,are touching each other,,html-keyboard-response,166,655403,0.0-15.0-2.9,73551,List2B,white,woman,,,,null,,,,
8699,,,survey-text,167,664108,0.0-15.0-3.9,73551,List2B,white,woman,,,,,"{""Q0"":""luke and Fred are touching eachother""}","<img src=""stim_listB/touch6.gif""style=""height:400px;""></stim_listB>",are touching each other,
null,"<div style=""font-size:60px;"">+</div>",,html-keyboard-response,168,664613,0.0-15.0-0.10,73551,List2B,white,woman,,,,null,,,,
null,"<img src=""stim_listB/shout7.gif""style=""height:400px;""></stim_listB>",,html-keyboard-response,169,666620,0.0-15.0-1.10,73551,List2B,white,woman,,,,null,,,,
null,is shouting at,,html-keyboard-response,170,668630,0.0-15.0-2.10,73551,List2B,white,woman,,,,null,,,,
6958,,,survey-text,171,675593,0.0-15.0-3.10,73551,List2B,white,woman,,,,,"{""Q0"":""Ruth is shouting at beth""}","<img src=""stim_listB/shout7.gif""style=""height:400px;""></stim_listB>",is shouting at,
null,"<div style=""font-size:60px;"">+</div>",,html-keyboard-response,172,676098,0.0-15.0-0.11,73551,List2B,white,woman,,,,null,,,,
null,"<img src=""stim_listB/kiss2.gif""style=""height:400px;""></stim_listB>",,html-keyboard-response,173,678109,0.0-15.0-1.11,73551,List2B,white,woman,,,,null,,,,
null,are kissing each other,,html-keyboard-response,174,680115,0.0-15.0-2.11,73551,List2B,white,woman,,,,null,,,,
8481,,,survey-text,175,688601,0.0-15.0-3.11,73551,List2B,white,woman,,,,,"{""Q0"":""Dave and Jane are kissing eachother""}","<img src=""stim_listB/kiss2.gif""style=""height:400px;""></stim_listB>",are kissing each other,
null,"<div style=""font-size:60px;"">+</div>",,html-keyboard-response,176,689106,0.0-15.0-0.12,73551,List2B,white,woman,,,,null,,,,
null,"<img src=""stim_listB/fight6.gif""style=""height:400px;""></stim_listB>",,html-keyboard-response,177,691114,0.0-15.0-1.12,73551,List2B,white,woman,,,,null,,,,
null,are fighting each other,,html-keyboard-response,178,693118,0.0-15.0-2.12,73551,List2B,white,woman,,,,null,,,,
9131,,,survey-text,179,702254,0.0-15.0-3.12,73551,List2B,white,woman,,,,,"{""Q0"":""Dave and Fred are fighting eachother""}","<img src=""stim_listB/fight6.gif""style=""height:400px;""></stim_listB>",are fighting each other,
null,"<div style=""font-size:60px;"">+</div>",,html-keyboard-response,180,702759,0.0-15.0-0.13,73551,List2B,white,woman,,,,null,,,,
null,"<img src=""stim_listB/flirt2.gif""style=""height:400px;""></stim_listB>",,html-keyboard-response,181,704766,0.0-15.0-1.13,73551,List2B,white,woman,,,,null,,,,
null,are flirting with each other,,html-keyboard-response,182,706770,0.0-15.0-2.13,73551,List2B,white,woman,,,,null,,,,
15781,,,survey-text,183,722556,0.0-15.0-3.13,73551,List2B,white,woman,,,,,"{""Q0"":""Dave and Ruth are flirting with eachother""}","<img src=""stim_listB/flirt2.gif""style=""height:400px;""></stim_listB>",are flirting with each other,
null,"<div style=""font-size:60px;"">+</div>",,html-keyboard-response,184,723061,0.0-15.0-0.14,73551,List2B,white,woman,,,,null,,,,
null,"<img src=""stim_listB/dance4.gif""style=""height:400px;""></stim_listB>",,html-keyboard-response,185,725068,0.0-15.0-1.14,73551,List2B,white,woman,,,,null,,,,
null,are dancing with each other,,html-keyboard-response,186,727072,0.0-15.0-2.14,73551,List2B,white,woman,,,,null,,,,
9979,,,survey-text,187,737056,0.0-15.0-3.14,73551,List2B,white,woman,,,,,"{""Q0"":""Mike and Beth are dancing with eachother""}","<img src=""stim_listB/dance4.gif""style=""height:400px;""></stim_listB>",are dancing with each other,
null,"<div style=""font-size:60px;"">+</div>",,html-keyboard-response,188,737562,0.0-15.0-0.15,73551,List2B,white,woman,,,,null,,,,
null,"<img src=""stim_listB/play8.gif""style=""height:400px;""></stim_listB>",,html-keyboard-response,189,739568,0.0-15.0-1.15,73551,List2B,white,woman,,,,null,,,,
null,are playing with each other,,html-keyboard-response,190,741573,0.0-15.0-2.15,73551,List2B,white,woman,,,,null,,,,
8981,,,survey-text,191,750558,0.0-15.0-3.15,73551,List2B,white,woman,,,,,"{""Q0"":""Beth and Ruth are playing with eachother""}","<img src=""stim_listB/play8.gif""style=""height:400px;""></stim_listB>",are playing with each other,
null,"<div style=""font-size:60px;"">+</div>",,html-keyboard-response,192,751063,0.0-15.0-0.16,73551,List2B,white,woman,,,,null,,,,
null,"<img src=""stim_listB/dance2.gif""style=""height:400px;""></stim_listB>",,html-keyboard-response,193,753071,0.0-15.0-1.16,73551,List2B,white,woman,,,,null,,,,
null,are dancing with each other,,html-keyboard-response,194,755075,0.0-15.0-2.16,73551,List2B,white,woman,,,,null,,,,
10055,,,survey-text,195,765136,0.0-15.0-3.16,73551,List2B,white,woman,,,,,"{""Q0"":""Dave and Ruth are dancing with eachother""}","<img src=""stim_listB/dance2.gif""style=""height:400px;""></stim_listB>",are dancing with each other,
null,"<div style=""font-size:60px;"">+</div>",,html-keyboard-response,196,765641,0.0-15.0-0.17,73551,List2B,white,woman,,,,null,,,,
null,"<img src=""stim_listB/kiss1.gif""style=""height:400px;""></stim_listB>",,html-keyboard-response,197,767647,0.0-15.0-1.17,73551,List2B,white,woman,,,,null,,,,
null,is kissing,,html-keyboard-response,198,769651,0.0-15.0-2.17,73551,List2B,white,woman,,,,null,,,,
6451,,,survey-text,199,776108,0.0-15.0-3.17,73551,List2B,white,woman,,,,,"{""Q0"":""Save is kissing ruth""}","<img src=""stim_listB/kiss1.gif""style=""height:400px;""></stim_listB>",is kissing,
null,"<div style=""font-size:60px;"">+</div>",,html-keyboard-response,200,776617,0.0-15.0-0.18,73551,List2B,white,woman,,,,null,,,,
null,"<img src=""stim_listB/flirt4.gif""style=""height:400px;""></stim_listB>",,html-keyboard-response,201,778629,0.0-15.0-1.18,73551,List2B,white,woman,,,,null,,,,
null,are flirting with each other,,html-keyboard-response,202,780633,0.0-15.0-2.18,73551,List2B,white,woman,,,,null,,,,
23981,,,survey-text,203,804619,0.0-15.0-3.18,73551,List2B,white,woman,,,,,"{""Q0"":""Mike and Ruth are kissing eachother""}","<img src=""stim_listB/flirt4.gif""style=""height:400px;""></stim_listB>",are flirting with each other,
null,"<div style=""font-size:60px;"">+</div>",,html-keyboard-response,204,805126,0.0-15.0-0.19,73551,List2B,white,woman,,,,null,,,,
null,"<img src=""stim_listB/argue1.gif""style=""height:400px;""></stim_listB>",,html-keyboard-response,205,807132,0.0-15.0-1.19,73551,List2B,white,woman,,,,null,,,,
null,is arguing with,,html-keyboard-response,206,809137,0.0-15.0-2.19,73551,List2B,white,woman,,,,null,,,,
9854,,,survey-text,207,818996,0.0-15.0-3.19,73551,List2B,white,woman,,,,,"{""Q0"":""Ruth is arguing with dave""}","<img src=""stim_listB/argue1.gif""style=""height:400px;""></stim_listB>",is arguing with,
18004,"<img src='img/portrait_matrix_list2.jpg' style='width:900px;height:500px;''></img><p>If you have memorised all the portraits and names and are ready to start, press Continue.</p><p><strong>Please note: Your memory of these faces will be tested 4 times during this experiment.</strong></p>",0,html-button-response,208,837022,0.0-16.0-0.0,73551,List2B,white,woman,,,,,,,,
3114,"<img src=""portrait/BM1.jpg""style=""height:400px;""></img>",4,html-button-response,209,841147,0.0-16.0-1.0,73551,List2B,white,woman,,TRUE,4,,,,,
null,CORRECT,,html-keyboard-response,210,842654,0.0-16.0-2.0-0.0,73551,List2B,white,woman,,,,null,,,,
2378,"<img src=""portrait/BM2.jpg""style=""height:400px;""></img>",5,html-button-response,211,845041,0.0-16.0-4.0,73551,List2B,white,woman,,TRUE,5,,,,,
null,CORRECT,,html-keyboard-response,212,846548,0.0-16.0-5.0-0.0,73551,List2B,white,woman,,,,null,,,,
2485,"<img src=""portrait/WW2.jpg""style=""height:400px;""></img>",3,html-button-response,213,849042,0.0-16.0-7.0,73551,List2B,white,woman,,TRUE,3,,,,,
null,CORRECT,,html-keyboard-response,214,850549,0.0-16.0-8.0-0.0,73551,List2B,white,woman,,,,null,,,,
3971,"<img src=""portrait/BW2.jpg""style=""height:400px;""></img>",2,html-button-response,215,854530,0.0-16.0-10.0,73551,List2B,white,woman,,TRUE,2,,,,,
null,CORRECT,,html-keyboard-response,216,856039,0.0-16.0-11.0-0.0,73551,List2B,white,woman,,,,null,,,,
1751,"<img src=""portrait/WM2.jpg""style=""height:400px;""></img>",7,html-button-response,217,857799,0.0-16.0-13.0,73551,List2B,white,woman,,TRUE,7,,,,,
null,CORRECT,,html-keyboard-response,218,859308,0.0-16.0-14.0-0.0,73551,List2B,white,woman,,,,null,,,,
3160,"<img src=""portrait/BW1.jpg""style=""height:400px;""></img>",0,html-button-response,219,862475,0.0-16.0-16.0,73551,List2B,white,woman,,TRUE,0,,,,,
null,CORRECT,,html-keyboard-response,220,863981,0.0-16.0-17.0-0.0,73551,List2B,white,woman,,,,null,,,,
1727,"<img src=""portrait/WW1.jpg""style=""height:400px;""></img>",1,html-button-response,221,865717,0.0-16.0-19.0,73551,List2B,white,woman,,TRUE,1,,,,,
null,CORRECT,,html-keyboard-response,222,867223,0.0-16.0-20.0-0.0,73551,List2B,white,woman,,,,null,,,,
5720,"<img src=""portrait/WM1.jpg""style=""height:400px;""></img>",6,html-button-response,223,872952,0.0-16.0-22.0,73551,List2B,white,woman,,TRUE,6,,,,,
null,CORRECT,,html-keyboard-response,224,874460,0.0-16.0-23.0-0.0,73551,List2B,white,woman,,,,null,,,,
1591,<p>You got 8 out of 8 right first time. Press Continue.</p>,0,html-button-response,225,876059,0.0-16.0-25.0,73551,List2B,white,woman,,,,,,,,
null,"<div style=""font-size:60px;"">+</div>",,html-keyboard-response,226,877568,0.0-17.0-0.0,73551,List2B,white,woman,,,,null,,,,
null,"<img src=""stim_listB/fight4.gif""style=""height:400px;""></stim_listB>",,html-keyboard-response,227,879575,0.0-17.0-1.0,73551,List2B,white,woman,,,,null,,,,
null,are fighting each other,,html-keyboard-response,228,881580,0.0-17.0-2.0,73551,List2B,white,woman,,,,null,,,,
7814,,,survey-text,229,889400,0.0-17.0-3.0,73551,List2B,white,woman,,,,,"{""Q0"":""Beth and Fred are fighting eachother""}","<img src=""stim_listB/fight4.gif""style=""height:400px;""></stim_listB>",are fighting each other,
null,"<div style=""font-size:60px;"">+</div>",,html-keyboard-response,230,889905,0.0-17.0-0.1,73551,List2B,white,woman,,,,null,,,,
null,"<img src=""stim_listB/flirt3.gif""style=""height:400px;""></stim_listB>",,html-keyboard-response,231,891912,0.0-17.0-1.1,73551,List2B,white,woman,,,,null,,,,
null,is flirting with,,html-keyboard-response,232,893916,0.0-17.0-2.1,73551,List2B,white,woman,,,,null,,,,
6965,,,survey-text,233,900886,0.0-17.0-3.1,73551,List2B,white,woman,,,,,"{""Q0"":""Kate is flirting with fred""}","<img src=""stim_listB/flirt3.gif""style=""height:400px;""></stim_listB>",is flirting with,
null,"<div style=""font-size:60px;"">+</div>",,html-keyboard-response,234,901392,0.0-17.0-0.2,73551,List2B,white,woman,,,,null,,,,
null,"<img src=""stim_listB/talk1.gif""style=""height:400px;""></stim_listB>",,html-keyboard-response,235,903399,0.0-17.0-1.2,73551,List2B,white,woman,,,,null,,,,
null,is talking to,,html-keyboard-response,236,905403,0.0-17.0-2.2,73551,List2B,white,woman,,,,null,,,,
6865,,,survey-text,237,912274,0.0-17.0-3.2,73551,List2B,white,woman,,,,,"{""Q0"":""Jane is talking to luke""}","<img src=""stim_listB/talk1.gif""style=""height:400px;""></stim_listB>",is talking to,
null,"<div style=""font-size:60px;"">+</div>",,html-keyboard-response,238,912779,0.0-17.0-0.3,73551,List2B,white,woman,,,,null,,,,
null,"<img src=""stim_listB/play7.gif""style=""height:400px;""></stim_listB>",,html-keyboard-response,239,914787,0.0-17.0-1.3,73551,List2B,white,woman,,,,null,,,,
null,is playing with,,html-keyboard-response,240,916791,0.0-17.0-2.3,73551,List2B,white,woman,,,,null,,,,
6739,,,survey-text,241,923535,0.0-17.0-3.3,73551,List2B,white,woman,,,,,"{""Q0"":""Kate is playing with jane""}","<img src=""stim_listB/play7.gif""style=""height:400px;""></stim_listB>",is playing with,
null,"<div style=""font-size:60px;"">+</div>",,html-keyboard-response,242,924042,0.0-17.0-0.4,73551,List2B,white,woman,,,,null,,,,
null,"<img src=""stim_listB/flirt6.gif""style=""height:400px;""></stim_listB>",,html-keyboard-response,243,926049,0.0-17.0-1.4,73551,List2B,white,woman,,,,null,,,,
null,are flirting with each other,,html-keyboard-response,244,928054,0.0-17.0-2.4,73551,List2B,white,woman,,,,null,,,,
8716,,,survey-text,245,936775,0.0-17.0-3.4,73551,List2B,white,woman,,,,,"{""Q0"":""Dave and Fred are flirting with eachother""}","<img src=""stim_listB/flirt6.gif""style=""height:400px;""></stim_listB>",are flirting with each other,
null,"<div style=""font-size:60px;"">+</div>",,html-keyboard-response,246,937280,0.0-17.0-0.5,73551,List2B,white,woman,,,,null,,,,
null,"<img src=""stim_listB/shout4.gif""style=""height:400px;""></stim_listB>",,html-keyboard-response,247,939287,0.0-17.0-1.5,73551,List2B,white,woman,,,,null,,,,
null,are shouting at each other,,html-keyboard-response,248,941292,0.0-17.0-2.5,73551,List2B,white,woman,,,,null,,,,
8720,,,survey-text,249,950017,0.0-17.0-3.5,73551,List2B,white,woman,,,,,"{""Q0"":""Kate and Mike are shouting at eachother""}","<img src=""stim_listB/shout4.gif""style=""height:400px;""></stim_listB>",are shouting at each other,
null,"<div style=""font-size:60px;"">+</div>",,html-keyboard-response,250,950525,0.0-17.0-0.6,73551,List2B,white,woman,,,,null,,,,
null,"<img src=""stim_listB/argue8.gif""style=""height:400px;""></stim_listB>",,html-keyboard-response,251,952532,0.0-17.0-1.6,73551,List2B,white,woman,,,,null,,,,
null,are arguing with each other,,html-keyboard-response,252,954536,0.0-17.0-2.6,73551,List2B,white,woman,,,,null,,,,
9256,,,survey-text,253,963798,0.0-17.0-3.6,73551,List2B,white,woman,,,,,"{""Q0"":""Ruth and Kate are arguing with eachother""}","<img src=""stim_listB/argue8.gif""style=""height:400px;""></stim_listB>",are arguing with each other,
null,"<div style=""font-size:60px;"">+</div>",,html-keyboard-response,254,964304,0.0-17.0-0.7,73551,List2B,white,woman,,,,null,,,,
null,"<img src=""stim_listB/play1.gif""style=""height:400px;""></stim_listB>",,html-keyboard-response,255,966312,0.0-17.0-1.7,73551,List2B,white,woman,,,,null,,,,
null,is playing with,,html-keyboard-response,256,968317,0.0-17.0-2.7,73551,List2B,white,woman,,,,null,,,,
7529,,,survey-text,257,975851,0.0-17.0-3.7,73551,List2B,white,woman,,,,,"{""Q0"":""Dave is playing with kate""}","<img src=""stim_listB/play1.gif""style=""height:400px;""></stim_listB>",is playing with,
null,"<div style=""font-size:60px;"">+</div>",,html-keyboard-response,258,976356,0.0-17.0-0.8,73551,List2B,white,woman,,,,null,,,,
null,"<img src=""stim_listB/fight2.gif""style=""height:400px;""></stim_listB>",,html-keyboard-response,259,978364,0.0-17.0-1.8,73551,List2B,white,woman,,,,null,,,,
null,are fighting each other,,html-keyboard-response,260,980368,0.0-17.0-2.8,73551,List2B,white,woman,,,,null,,,,
9004,,,survey-text,261,989378,0.0-17.0-3.8,73551,List2B,white,woman,,,,,"{""Q0"":""Ruth and Luke are fighting eachother""}","<img src=""stim_listB/fight2.gif""style=""height:400px;""></stim_listB>",are fighting each other,
null,"<div style=""font-size:60px;"">+</div>",,html-keyboard-response,262,989883,0.0-17.0-0.9,73551,List2B,white,woman,,,,null,,,,
null,"<img src=""stim_listB/talk6.gif""style=""height:400px;""></stim_listB>",,html-keyboard-response,263,991891,0.0-17.0-1.9,73551,List2B,white,woman,,,,null,,,,
null,are talking to each other,,html-keyboard-response,264,993896,0.0-17.0-2.9,73551,List2B,white,woman,,,,null,,,,
10797,,,survey-text,265,1004699,0.0-17.0-3.9,73551,List2B,white,woman,,,,,"{""Q0"":""Dave and Fred are fighting with eachother""}","<img src=""stim_listB/talk6.gif""style=""height:400px;""></stim_listB>",are talking to each other,
null,"<div style=""font-size:60px;"">+</div>",,html-keyboard-response,266,1005205,0.0-17.0-0.10,73551,List2B,white,woman,,,,null,,,,
null,"<img src=""stim_listB/marry8.gif""style=""height:400px;""></stim_listB>",,html-keyboard-response,267,1007213,0.0-17.0-1.10,73551,List2B,white,woman,,,,null,,,,
null,are marrying each other,,html-keyboard-response,268,1009217,0.0-17.0-2.10,73551,List2B,white,woman,,,,null,,,,
9351,,,survey-text,269,1018574,0.0-17.0-3.10,73551,List2B,white,woman,,,,,"{""Q0"":""Ruth and Kate are marrying eachother""}","<img src=""stim_listB/marry8.gif""style=""height:400px;""></stim_listB>",are marrying each other,
null,"<div style=""font-size:60px;"">+</div>",,html-keyboard-response,270,1019079,0.0-17.0-0.11,73551,List2B,white,woman,,,,null,,,,
null,"<img src=""stim_listB/touch7.gif""style=""height:400px;""></stim_listB>",,html-keyboard-response,271,1021086,0.0-17.0-1.11,73551,List2B,white,woman,,,,null,,,,
null,is touching,,html-keyboard-response,272,1023090,0.0-17.0-2.11,73551,List2B,white,woman,,,,null,,,,
7917,,,survey-text,273,1031013,0.0-17.0-3.11,73551,List2B,white,woman,,,,,"{""Q0"":""Ruth is touching jane""}","<img src=""stim_listB/touch7.gif""style=""height:400px;""></stim_listB>",is touching,
null,"<div style=""font-size:60px;"">+</div>",,html-keyboard-response,274,1031519,0.0-17.0-0.12,73551,List2B,white,woman,,,,null,,,,
null,"<img src=""stim_listB/dance6.gif""style=""height:400px;""></stim_listB>",,html-keyboard-response,275,1033526,0.0-17.0-1.12,73551,List2B,white,woman,,,,null,,,,
null,are dancing with each other,,html-keyboard-response,276,1035530,0.0-17.0-2.12,73551,List2B,white,woman,,,,null,,,,
10032,,,survey-text,277,1045567,0.0-17.0-3.12,73551,List2B,white,woman,,,,,"{""Q0"":""Dave and Fred are dancing with eachother""}","<img src=""stim_listB/dance6.gif""style=""height:400px;""></stim_listB>",are dancing with each other,
null,"<div style=""font-size:60px;"">+</div>",,html-keyboard-response,278,1046074,0.0-17.0-0.13,73551,List2B,white,woman,,,,null,,,,
null,"<img src=""stim_listB/talk4.gif""style=""height:400px;""></stim_listB>",,html-keyboard-response,279,1048081,0.0-17.0-1.13,73551,List2B,white,woman,,,,null,,,,
null,are talking to each other,,html-keyboard-response,280,1050085,0.0-17.0-2.13,73551,List2B,white,woman,,,,null,,,,
8701,,,survey-text,281,1058791,0.0-17.0-3.13,73551,List2B,white,woman,,,,,"{""Q0"":""Mike and Beth are talking to eachother""}","<img src=""stim_listB/talk4.gif""style=""height:400px;""></stim_listB>",are talking to each other,
null,"<div style=""font-size:60px;"">+</div>",,html-keyboard-response,282,1059297,0.0-17.0-0.14,73551,List2B,white,woman,,,,null,,,,
null,"<img src=""stim_listB/kiss8.gif""style=""height:400px;""></stim_listB>",,html-keyboard-response,283,1061303,0.0-17.0-1.14,73551,List2B,white,woman,,,,null,,,,
null,are kissing each other,,html-keyboard-response,284,1063308,0.0-17.0-2.14,73551,List2B,white,woman,,,,null,,,,
8227,,,survey-text,285,1071540,0.0-17.0-3.14,73551,List2B,white,woman,,,,,"{""Q0"":""Jane and Kate are kissing eachother""}","<img src=""stim_listB/kiss8.gif""style=""height:400px;""></stim_listB>",are kissing each other,
null,"<div style=""font-size:60px;"">+</div>",,html-keyboard-response,286,1072047,0.0-17.0-0.15,73551,List2B,white,woman,,,,null,,,,
null,"<img src=""stim_listB/argue5.gif""style=""height:400px;""></stim_listB>",,html-keyboard-response,287,1074054,0.0-17.0-1.15,73551,List2B,white,woman,,,,null,,,,
null,is arguing with,,html-keyboard-response,288,1076058,0.0-17.0-2.15,73551,List2B,white,woman,,,,null,,,,
11669,,,survey-text,289,1087732,0.0-17.0-3.15,73551,List2B,white,woman,,,,,"{""Q0"":""Fred is arguing with dave""}","<img src=""stim_listB/argue5.gif""style=""height:400px;""></stim_listB>",is arguing with,
null,"<div style=""font-size:60px;"">+</div>",,html-keyboard-response,290,1088237,0.0-17.0-0.16,73551,List2B,white,woman,,,,null,,,,
null,"<img src=""stim_listB/fight1.gif""style=""height:400px;""></stim_listB>",,html-keyboard-response,291,1090244,0.0-17.0-1.16,73551,List2B,white,woman,,,,null,,,,
null,is fighting,,html-keyboard-response,292,1092249,0.0-17.0-2.16,73551,List2B,white,woman,,,,null,,,,
7682,,,survey-text,293,1099937,0.0-17.0-3.16,73551,List2B,white,woman,,,,,"{""Q0"":""Jane is fighting dave""}","<img src=""stim_listB/fight1.gif""style=""height:400px;""></stim_listB>",is fighting,
null,"<div style=""font-size:60px;"">+</div>",,html-keyboard-response,294,1100442,0.0-17.0-0.17,73551,List2B,white,woman,,,,null,,,,
null,"<img src=""stim_listB/flirt5.gif""style=""height:400px;""></stim_listB>",,html-keyboard-response,295,1102449,0.0-17.0-1.17,73551,List2B,white,woman,,,,null,,,,
null,is flirting with,,html-keyboard-response,296,1104453,0.0-17.0-2.17,73551,List2B,white,woman,,,,null,,,,
7084,,,survey-text,297,1111542,0.0-17.0-3.17,73551,List2B,white,woman,,,,,"{""Q0"":""Mike is flirting with dave""}","<img src=""stim_listB/flirt5.gif""style=""height:400px;""></stim_listB>",is flirting with,
null,"<div style=""font-size:60px;"">+</div>",,html-keyboard-response,298,1112047,0.0-17.0-0.18,73551,List2B,white,woman,,,,null,,,,
null,"<img src=""stim_listB/fight5.gif""style=""height:400px;""></stim_listB>",,html-keyboard-response,299,1114054,0.0-17.0-1.18,73551,List2B,white,woman,,,,null,,,,
null,is fighting,,html-keyboard-response,300,1116058,0.0-17.0-2.18,73551,List2B,white,woman,,,,null,,,,
7891,,,survey-text,301,1123954,0.0-17.0-3.18,73551,List2B,white,woman,,,,,"{""Q0"":""Mike is fighting dave""}","<img src=""stim_listB/fight5.gif""style=""height:400px;""></stim_listB>",is fighting,
null,"<div style=""font-size:60px;"">+</div>",,html-keyboard-response,302,1124459,0.0-17.0-0.19,73551,List2B,white,woman,,,,null,,,,
null,"<img src=""stim_listB/dance5.gif""style=""height:400px;""></stim_listB>",,html-keyboard-response,303,1126466,0.0-17.0-1.19,73551,List2B,white,woman,,,,null,,,,
null,is dancing with,,html-keyboard-response,304,1128471,0.0-17.0-2.19,73551,List2B,white,woman,,,,null,,,,
6493,,,survey-text,305,1134969,0.0-17.0-3.19,73551,List2B,white,woman,,,,,"{""Q0"":""Mike is dancing with luke""}","<img src=""stim_listB/dance5.gif""style=""height:400px;""></stim_listB>",is dancing with,
2440,"<img src='img/portrait_matrix_list2.jpg' style='width:900px;height:500px;''></img><p>If you have memorised all the portraits and names and are ready to start, press Continue.</p><p><strong>Please note: Your memory of these faces will be tested 4 times during this experiment.</strong></p>",0,html-button-response,306,1137420,0.0-18.0-0.0,73551,List2B,white,woman,,,,,,,,
3593,"<img src=""portrait/WM1.jpg""style=""height:400px;""></img>",6,html-button-response,307,1142024,0.0-18.0-1.0,73551,List2B,white,woman,,TRUE,6,,,,,
null,CORRECT,,html-keyboard-response,308,1143529,0.0-18.0-2.0-0.0,73551,List2B,white,woman,,,,null,,,,
2789,"<img src=""portrait/BM2.jpg""style=""height:400px;""></img>",5,html-button-response,309,1146327,0.0-18.0-4.0,73551,List2B,white,woman,,TRUE,5,,,,,
null,CORRECT,,html-keyboard-response,310,1147833,0.0-18.0-5.0-0.0,73551,List2B,white,woman,,,,null,,,,
1937,"<img src=""portrait/WW1.jpg""style=""height:400px;""></img>",1,html-button-response,311,1149778,0.0-18.0-7.0,73551,List2B,white,woman,,TRUE,1,,,,,
null,CORRECT,,html-keyboard-response,312,1151283,0.0-18.0-8.0-0.0,73551,List2B,white,woman,,,,null,,,,
2224,"<img src=""portrait/WM2.jpg""style=""height:400px;""></img>",7,html-button-response,313,1153516,0.0-18.0-10.0,73551,List2B,white,woman,,TRUE,7,,,,,
null,CORRECT,,html-keyboard-response,314,1155023,0.0-18.0-11.0-0.0,73551,List2B,white,woman,,,,null,,,,
2502,"<img src=""portrait/BW2.jpg""style=""height:400px;""></img>",2,html-button-response,315,1157532,0.0-18.0-13.0,73551,List2B,white,woman,,TRUE,2,,,,,
null,CORRECT,,html-keyboard-response,316,1159038,0.0-18.0-14.0-0.0,73551,List2B,white,woman,,,,null,,,,
2262,"<img src=""portrait/BM1.jpg""style=""height:400px;""></img>",4,html-button-response,317,1161308,0.0-18.0-16.0,73551,List2B,white,woman,,TRUE,4,,,,,
null,CORRECT,,html-keyboard-response,318,1162815,0.0-18.0-17.0-0.0,73551,List2B,white,woman,,,,null,,,,
1600,"<img src=""portrait/BW1.jpg""style=""height:400px;""></img>",0,html-button-response,319,1164423,0.0-18.0-19.0,73551,List2B,white,woman,,TRUE,0,,,,,
null,CORRECT,,html-keyboard-response,320,1165930,0.0-18.0-20.0-0.0,73551,List2B,white,woman,,,,null,,,,
2189,"<img src=""portrait/WW2.jpg""style=""height:400px;""></img>",3,html-button-response,321,1168129,0.0-18.0-22.0,73551,List2B,white,woman,,TRUE,3,,,,,
null,CORRECT,,html-keyboard-response,322,1169637,0.0-18.0-23.0-0.0,73551,List2B,white,woman,,,,null,,,,
1289,<p>You got 8 out of 8 right first time. Press Continue.</p>,0,html-button-response,323,1170934,0.0-18.0-25.0,73551,List2B,white,woman,,,,,,,,
null,"<div style=""font-size:60px;"">+</div>",,html-keyboard-response,324,1172442,0.0-19.0-0.0,73551,List2B,white,woman,,,,null,,,,
null,"<img src=""stim_listB/talk3.gif""style=""height:400px;""></stim_listB>",,html-keyboard-response,325,1174449,0.0-19.0-1.0,73551,List2B,white,woman,,,,null,,,,
null,is talking to,,html-keyboard-response,326,1176454,0.0-19.0-2.0,73551,List2B,white,woman,,,,null,,,,
13487,,,survey-text,327,1189947,0.0-19.0-3.0,73551,List2B,white,woman,,,,,"{""Q0"":""Kate is talking to fred""}","<img src=""stim_listB/talk3.gif""style=""height:400px;""></stim_listB>",is talking to,
null,"<div style=""font-size:60px;"">+</div>",,html-keyboard-response,328,1190452,0.0-19.0-0.1,73551,List2B,white,woman,,,,null,,,,
null,"<img src=""stim_listB/fight7.gif""style=""height:400px;""></stim_listB>",,html-keyboard-response,329,1192459,0.0-19.0-1.1,73551,List2B,white,woman,,,,null,,,,
null,is fighting,,html-keyboard-response,330,1194464,0.0-19.0-2.1,73551,List2B,white,woman,,,,null,,,,
946,,,survey-text,331,1195415,0.0-19.0-3.1,73551,List2B,white,woman,,,,,"{""Q0"":""""}","<img src=""stim_listB/fight7.gif""style=""height:400px;""></stim_listB>",is fighting,
null,"<div style=""font-size:60px;"">+</div>",,html-keyboard-response,332,1195921,0.0-19.0-0.2,73551,List2B,white,woman,,,,null,,,,
null,"<img src=""stim_listB/marry2.gif""style=""height:400px;""></stim_listB>",,html-keyboard-response,333,1197928,0.0-19.0-1.2,73551,List2B,white,woman,,,,null,,,,
null,are marrying each other,,html-keyboard-response,334,1199933,0.0-19.0-2.2,73551,List2B,white,woman,,,,null,,,,
9013,,,survey-text,335,1208951,0.0-19.0-3.2,73551,List2B,white,woman,,,,,"{""Q0"":""Luke and Jane are marrying eachother""}","<img src=""stim_listB/marry2.gif""style=""height:400px;""></stim_listB>",are marrying each other,
null,"<div style=""font-size:60px;"">+</div>",,html-keyboard-response,336,1209456,0.0-19.0-0.3,73551,List2B,white,woman,,,,null,,,,
null,"<img src=""stim_listB/fight3.gif""style=""height:400px;""></stim_listB>",,html-keyboard-response,337,1211463,0.0-19.0-1.3,73551,List2B,white,woman,,,,null,,,,
null,is fighting,,html-keyboard-response,338,1213467,0.0-19.0-2.3,73551,List2B,white,woman,,,,null,,,,
6718,,,survey-text,339,1220191,0.0-19.0-3.3,73551,List2B,white,woman,,,,,"{""Q0"":""Kate is fighting mike""}","<img src=""stim_listB/fight3.gif""style=""height:400px;""></stim_listB>",is fighting,
null,"<div style=""font-size:60px;"">+</div>",,html-keyboard-response,340,1220697,0.0-19.0-0.4,73551,List2B,white,woman,,,,null,,,,
null,"<img src=""stim_listB/play2.gif""style=""height:400px;""></stim_listB>",,html-keyboard-response,341,1222704,0.0-19.0-1.4,73551,List2B,white,woman,,,,null,,,,
null,are playing with each other,,html-keyboard-response,342,1224708,0.0-19.0-2.4,73551,List2B,white,woman,,,,null,,,,
8104,,,survey-text,343,1232818,0.0-19.0-3.4,73551,List2B,white,woman,,,,,"{""Q0"":""Luke and Ruth are playing with eachother""}","<img src=""stim_listB/play2.gif""style=""height:400px;""></stim_listB>",are playing with each other,
null,"<div style=""font-size:60px;"">+</div>",,html-keyboard-response,344,1233324,0.0-19.0-0.5,73551,List2B,white,woman,,,,null,,,,
null,"<img src=""stim_listB/dance7.gif""style=""height:400px;""></stim_listB>",,html-keyboard-response,345,1235331,0.0-19.0-1.5,73551,List2B,white,woman,,,,null,,,,
null,is dancing with,,html-keyboard-response,346,1237335,0.0-19.0-2.5,73551,List2B,white,woman,,,,null,,,,
6612,,,survey-text,347,1243952,0.0-19.0-3.5,73551,List2B,white,woman,,,,,"{""Q0"":""Ruth is dancing with kate""}","<img src=""stim_listB/dance7.gif""style=""height:400px;""></stim_listB>",is dancing with,
null,"<div style=""font-size:60px;"">+</div>",,html-keyboard-response,348,1244462,0.0-19.0-0.6,73551,List2B,white,woman,,,,null,,,,
null,"<img src=""stim_listB/argue4.gif""style=""height:400px;""></stim_listB>",,html-keyboard-response,349,1246469,0.0-19.0-1.6,73551,List2B,white,woman,,,,null,,,,
null,are arguing with each other,,html-keyboard-response,350,1248474,0.0-19.0-2.6,73551,List2B,white,woman,,,,null,,,,
9573,,,survey-text,351,1258052,0.0-19.0-3.6,73551,List2B,white,woman,,,,,"{""Q0"":""Fred and Kate are arguing with eachother""}","<img src=""stim_listB/argue4.gif""style=""height:400px;""></stim_listB>",are arguing with each other,
null,"<div style=""font-size:60px;"">+</div>",,html-keyboard-response,352,1258557,0.0-19.0-0.7,73551,List2B,white,woman,,,,null,,,,
null,"<img src=""stim_listB/marry7.gif""style=""height:400px;""></stim_listB>",,html-keyboard-response,353,1260565,0.0-19.0-1.7,73551,List2B,white,woman,,,,null,,,,
null,is marrying,,html-keyboard-response,354,1262569,0.0-19.0-2.7,73551,List2B,white,woman,,,,null,,,,
10084,,,survey-text,355,1272658,0.0-19.0-3.7,73551,List2B,white,woman,,,,,"{""Q0"":""Beth is marrying jane""}","<img src=""stim_listB/marry7.gif""style=""height:400px;""></stim_listB>",is marrying,
null,"<div style=""font-size:60px;"">+</div>",,html-keyboard-response,356,1273163,0.0-19.0-0.8,73551,List2B,white,woman,,,,null,,,,
null,"<img src=""stim_listB/kiss3.gif""style=""height:400px;""></stim_listB>",,html-keyboard-response,357,1275171,0.0-19.0-1.8,73551,List2B,white,woman,,,,null,,,,
null,is kissing,,html-keyboard-response,358,1277177,0.0-19.0-2.8,73551,List2B,white,woman,,,,null,,,,
11455,,,survey-text,359,1288637,0.0-19.0-3.8,73551,List2B,white,woman,,,,,"{""Q0"":""Beth is kissing fred""}","<img src=""stim_listB/kiss3.gif""style=""height:400px;""></stim_listB>",is kissing,
null,"<div style=""font-size:60px;"">+</div>",,html-keyboard-response,360,1289143,0.0-19.0-0.9,73551,List2B,white,woman,,,,null,,,,
null,"<img src=""stim_listB/talk5.gif""style=""height:400px;""></stim_listB>",,html-keyboard-response,361,1291150,0.0-19.0-1.9,73551,List2B,white,woman,,,,null,,,,
null,is talking to,,html-keyboard-response,362,1293154,0.0-19.0-2.9,73551,List2B,white,woman,,,,null,,,,
12297,,,survey-text,363,1305457,0.0-19.0-3.9,73551,List2B,white,woman,,,,,"{""Q0"":""Mike is talking to luke""}","<img src=""stim_listB/talk5.gif""style=""height:400px;""></stim_listB>",is talking to,
null,"<div style=""font-size:60px;"">+</div>",,html-keyboard-response,364,1305963,0.0-19.0-0.10,73551,List2B,white,woman,,,,null,,,,
null,"<img src=""stim_listB/dance3.gif""style=""height:400px;""></stim_listB>",,html-keyboard-response,365,1307969,0.0-19.0-1.10,73551,List2B,white,woman,,,,null,,,,
null,is dancing with,,html-keyboard-response,366,1309974,0.0-19.0-2.10,73551,List2B,white,woman,,,,null,,,,
10826,,,survey-text,367,1320806,0.0-19.0-3.10,73551,List2B,white,woman,,,,,"{""Q0"":""Fred is talking to kate""}","<img src=""stim_listB/dance3.gif""style=""height:400px;""></stim_listB>",is dancing with,
null,"<div style=""font-size:60px;"">+</div>",,html-keyboard-response,368,1321312,0.0-19.0-0.11,73551,List2B,white,woman,,,,null,,,,
null,"<img src=""stim_listB/kiss7.gif""style=""height:400px;""></stim_listB>",,html-keyboard-response,369,1323319,0.0-19.0-1.11,73551,List2B,white,woman,,,,null,,,,
null,is kissing,,html-keyboard-response,370,1325324,0.0-19.0-2.11,73551,List2B,white,woman,,,,null,,,,
8115,,,survey-text,371,1333444,0.0-19.0-3.11,73551,List2B,white,woman,,,,,"{""Q0"":""Ruth is kissing beth""}","<img src=""stim_listB/kiss7.gif""style=""height:400px;""></stim_listB>",is kissing,
null,"<div style=""font-size:60px;"">+</div>",,html-keyboard-response,372,1333949,0.0-19.0-0.12,73551,List2B,white,woman,,,,null,,,,
null,"<img src=""stim_listB/talk2.gif""style=""height:400px;""></stim_listB>",,html-keyboard-response,373,1335956,0.0-19.0-1.12,73551,List2B,white,woman,,,,null,,,,
null,are talking to each other,,html-keyboard-response,374,1337961,0.0-19.0-2.12,73551,List2B,white,woman,,,,null,,,,
4194,,,survey-text,375,1342161,0.0-19.0-3.12,73551,List2B,white,woman,,,,,"{""Q0"":""""}","<img src=""stim_listB/talk2.gif""style=""height:400px;""></stim_listB>",are talking to each other,
null,"<div style=""font-size:60px;"">+</div>",,html-keyboard-response,376,1342667,0.0-19.0-0.13,73551,List2B,white,woman,,,,null,,,,
null,"<img src=""stim_listB/shout3.gif""style=""height:400px;""></stim_listB>",,html-keyboard-response,377,1344674,0.0-19.0-1.13,73551,List2B,white,woman,,,,null,,,,
null,is shouting at,,html-keyboard-response,378,1346678,0.0-19.0-2.13,73551,List2B,white,woman,,,,null,,,,
1142,,,survey-text,379,1347825,0.0-19.0-3.13,73551,List2B,white,woman,,,,,"{""Q0"":""""}","<img src=""stim_listB/shout3.gif""style=""height:400px;""></stim_listB>",is shouting at,
null,"<div style=""font-size:60px;"">+</div>",,html-keyboard-response,380,1348331,0.0-19.0-0.14,73551,List2B,white,woman,,,,null,,,,
null,"<img src=""stim_listB/marry1.gif""style=""height:400px;""></stim_listB>",,html-keyboard-response,381,1350336,0.0-19.0-1.14,73551,List2B,white,woman,,,,null,,,,
null,is marrying,,html-keyboard-response,382,1352341,0.0-19.0-2.14,73551,List2B,white,woman,,,,null,,,,
386709,,,survey-text,383,1739056,0.0-19.0-3.14,73551,List2B,white,woman,,,,,"{""Q0"":""""}","<img src=""stim_listB/marry1.gif""style=""height:400px;""></stim_listB>",is marrying,
null,"<div style=""font-size:60px;"">+</div>",,html-keyboard-response,384,1739564,0.0-19.0-0.15,73551,List2B,white,woman,,,,null,,,,
null,"<img src=""stim_listB/argue2.gif""style=""height:400px;""></stim_listB>",,html-keyboard-response,385,1741570,0.0-19.0-1.15,73551,List2B,white,woman,,,,null,,,,
null,are arguing with each other,,html-keyboard-response,386,1743575,0.0-19.0-2.15,73551,List2B,white,woman,,,,null,,,,
11868,,,survey-text,387,1755451,0.0-19.0-3.15,73551,List2B,white,woman,,,,,"{""Q0"":""Jane and Luke are arguing with eachother""}","<img src=""stim_listB/argue2.gif""style=""height:400px;""></stim_listB>",are arguing with each other,
null,"<div style=""font-size:60px;"">+</div>",,html-keyboard-response,388,1755957,0.0-19.0-0.16,73551,List2B,white,woman,,,,null,,,,
null,"<img src=""stim_listB/play5.gif""style=""height:400px;""></stim_listB>",,html-keyboard-response,389,1757965,0.0-19.0-1.16,73551,List2B,white,woman,,,,null,,,,
null,is playing with,,html-keyboard-response,390,1759971,0.0-19.0-2.16,73551,List2B,white,woman,,,,null,,,,
6901,,,survey-text,391,1766877,0.0-19.0-3.16,73551,List2B,white,woman,,,,,"{""Q0"":""Dave is playing with mike""}","<img src=""stim_listB/play5.gif""style=""height:400px;""></stim_listB>",is playing with,
null,"<div style=""font-size:60px;"">+</div>",,html-keyboard-response,392,1767383,0.0-19.0-0.17,73551,List2B,white,woman,,,,null,,,,
null,"<img src=""stim_listB/shout5.gif""style=""height:400px;""></stim_listB>",,html-keyboard-response,393,1769389,0.0-19.0-1.17,73551,List2B,white,woman,,,,null,,,,
null,is shouting at,,html-keyboard-response,394,1771394,0.0-19.0-2.17,73551,List2B,white,woman,,,,null,,,,
6806,,,survey-text,395,1778205,0.0-19.0-3.17,73551,List2B,white,woman,,,,,"{""Q0"":""Luke is shouting at fred""}","<img src=""stim_listB/shout5.gif""style=""height:400px;""></stim_listB>",is shouting at,
null,"<div style=""font-size:60px;"">+</div>",,html-keyboard-response,396,1778711,0.0-19.0-0.18,73551,List2B,white,woman,,,,null,,,,
null,"<img src=""stim_listB/marry5.gif""style=""height:400px;""></stim_listB>",,html-keyboard-response,397,1780718,0.0-19.0-1.18,73551,List2B,white,woman,,,,null,,,,
null,is marrying,,html-keyboard-response,398,1782723,0.0-19.0-2.18,73551,List2B,white,woman,,,,null,,,,
7125,,,survey-text,399,1789853,0.0-19.0-3.18,73551,List2B,white,woman,,,,,"{""Q0"":""Fred is marrying dave""}","<img src=""stim_listB/marry5.gif""style=""height:400px;""></stim_listB>",is marrying,
null,"<div style=""font-size:60px;"">+</div>",,html-keyboard-response,400,1790359,0.0-19.0-0.19,73551,List2B,white,woman,,,,null,,,,
null,"<img src=""stim_listB/touch4.gif""style=""height:400px;""></stim_listB>",,html-keyboard-response,401,1792366,0.0-19.0-1.19,73551,List2B,white,woman,,,,null,,,,
null,are touching each other,,html-keyboard-response,402,1794370,0.0-19.0-2.19,73551,List2B,white,woman,,,,null,,,,
8321,,,survey-text,403,1802697,0.0-19.0-3.19,73551,List2B,white,woman,,,,,"{""Q0"":""Fred and Beth are touching eachother""}","<img src=""stim_listB/touch4.gif""style=""height:400px;""></stim_listB>",are touching each other,
3686,<p>Thank you for completing that task.</p><p>The final part of this session is a short questionnaire.</p><p>Press Continue.</p>,0,html-button-response,404,1806391,0.0-20.0,73551,List2B,white,woman,,,,,,,,
21678,,,survey-text,405,1829081,0.0-21.0,73551,List2B,white,woman,,,,,"{""Q0"":""27"",""Q1"":""English"",""Q2"":""English"",""Q3"":""England"",""Q4"":""White British"",""Q5"":""Female""}",,,demographics
10824,,,survey-likert,406,1839919,0.0-22.0,73551,List2B,white,woman,,,,,"{""Q0"":4}",,,likert_ESS
7387,,,survey-likert,407,1847317,0.0-23.0,73551,List2B,white,woman,,,,,"{""Q0"":4}",,,likert_NSSAL_Q1
12455,,,survey-likert,408,1859784,0.0-24.0,73551,List2B,white,woman,,,,,"{""Q0"":4}",,,likert_NSSAL_Q2
5067,,,survey-likert,409,1864863,0.0-25.0,73551,List2B,white,woman,,,,,"{""Q0"":4}",,,likert_CGRS_Q1
3993,,,survey-likert,410,1868868,0.0-26.0,73551,List2B,white,woman,,,,,"{""Q0"":4}",,,likert_CGRS_Q2
3315,,,survey-likert,411,1872193,0.0-27.0,73551,List2B,white,woman,,,,,"{""Q0"":4}",,,likert_CGRS_Q3
4786,,,survey-text,412,1876989,0.0-28.0,73551,List2B,white,woman,,,,,"{""Q0"":""ccc""}",,,worker_id
19754,,,external-html,413,1896951,0.0-29.0,73551,List2B,white,woman,debrief.html,,,,,,,
