rt,stimulus,button_pressed,trial_type,trial_index,time_elapsed,internal_node_id,subject,list,ppt_race,ppt_gender,url,first_guess,correct,key_press,responses,image_type,phrase_type,test_part
6183,Welcome to the experiment. Press Continue to begin.,0,html-button-response,0,6216,0.0-0.0,73761,List1A,white,woman,,,,,,,,
40360,,,external-html,1,47723,0.0-1.0,73761,List1A,white,woman,consent.html,,,,,,,
25638,"<p>On the next page, you will see portraits of 8 people and their names.</p><p>Your first task is to take a few minutes to memorise the names of these people.</p><p>You will have to recall their names during the rest of the experiment, so it is</p><p>essential that you try to memorise these people and their names as best as you can.</p><br><p><strong>You will then be tested on your memory of these names and portraits.</strong></p><br><p>The experiment will start after you have completed this memory test.</p><br><p>Ready?</p>",0,html-button-response,2,73612,0.0-2.0,73761,List1A,white,woman,,,,,,,,
59018,"<img src='img/portrait_matrix_list1.jpg' style='width:900px;height:500px;''></img><p>If you have memorised all the portraits and names and are ready to start, press Continue.</p><p><strong>Please note: Your memory of these faces will be tested 4 times during this experiment.</strong></p>",0,html-button-response,3,133682,0.0-3.0-0.0,73761,List1A,white,woman,,,,,,,,
10080,"<img src=""portrait/WW1.jpg""style=""height:400px;""></img>",1,html-button-response,4,144779,0.0-3.0-1.0,73761,List1A,white,woman,,TRUE,1,,,,,
null,CORRECT,,html-keyboard-response,5,146301,0.0-3.0-2.0-0.0,73761,List1A,white,woman,,,,null,,,,
11093,"<img src=""portrait/BM2.jpg""style=""height:400px;""></img>",5,html-button-response,6,157410,0.0-3.0-4.0,73761,List1A,white,woman,,TRUE,5,,,,,
null,CORRECT,,html-keyboard-response,7,158926,0.0-3.0-5.0-0.0,73761,List1A,white,woman,,,,null,,,,
9140,"<img src=""portrait/BW1.jpg""style=""height:400px;""></img>",0,html-button-response,8,168082,0.0-3.0-7.0,73761,List1A,white,woman,,TRUE,0,,,,,
null,CORRECT,,html-keyboard-response,9,169592,0.0-3.0-8.0-0.0,73761,List1A,white,woman,,,,null,,,,
8967,"<img src=""portrait/WM2.jpg""style=""height:400px;""></img>",7,html-button-response,10,178572,0.0-3.0-10.0,73761,List1A,white,woman,,TRUE,7,,,,,
null,CORRECT,,html-keyboard-response,11,180079,0.0-3.0-11.0-0.0,73761,List1A,white,woman,,,,null,,,,
8743,"<img src=""portrait/WW2.jpg""style=""height:400px;""></img>",3,html-button-response,12,188831,0.0-3.0-13.0,73761,List1A,white,woman,,TRUE,3,,,,,
null,CORRECT,,html-keyboard-response,13,190342,0.0-3.0-14.0-0.0,73761,List1A,white,woman,,,,null,,,,
5105,"<img src=""portrait/BW2.jpg""style=""height:400px;""></img>",2,html-button-response,14,195459,0.0-3.0-16.0,73761,List1A,white,woman,,TRUE,2,,,,,
null,CORRECT,,html-keyboard-response,15,196965,0.0-3.0-17.0-0.0,73761,List1A,white,woman,,,,null,,,,
8755,"<img src=""portrait/WM1.jpg""style=""height:400px;""></img>",6,html-button-response,16,205734,0.0-3.0-19.0,73761,List1A,white,woman,,TRUE,6,,,,,
null,CORRECT,,html-keyboard-response,17,207243,0.0-3.0-20.0-0.0,73761,List1A,white,woman,,,,null,,,,
42763,"<img src=""portrait/BM1.jpg""style=""height:400px;""></img>",4,html-button-response,18,250027,0.0-3.0-22.0,73761,List1A,white,woman,,TRUE,4,,,,,
null,CORRECT,,html-keyboard-response,19,251753,0.0-3.0-23.0-0.0,73761,List1A,white,woman,,,,null,,,,
5835,<p>You got 8 out of 8 right first time. Press Continue.</p>,0,html-button-response,20,257751,0.0-3.0-25.0,73761,List1A,white,woman,,,,,,,,
130958,"<p>In this experiment, you will view photographs of the people from the memory game interacting.</p><p>By using the <strong>exact</strong> phrase given <i>after</i> the photograph appears and recalling the correct names of the people in the photographs, form a sentence describing the interaction. You do not need to capitalise names.</p><p>Type your answer in the space provided. Please complete every sentence before moving onto the next trial.</p><p>You will only have a few seconds to memorise each given photograph and phrase before you can respond, so try your best to focus.</p><p>An example is given below. Press 'Continue' when you are ready.</p><img src='img/speaking_example.jpg' style='width:800px;height:460px;''></img>",0,html-button-response,21,389858,0.0-4.0,73761,List1A,white,woman,,,,,,,,
2578,"<p>Before the experiment starts, you will watch two example trials. Press 'Continue'.</p>",0,html-button-response,22,393493,0.0-5.0,73761,List1A,white,woman,,,,,,,,
null,<img src='img/meet_eg.gif' style='height:400px;''></img>,,html-keyboard-response,23,396532,0.0-6.0,73761,List1A,white,woman,,,,null,,,,
null,<p>is meeting</p>,,html-keyboard-response,24,398543,0.0-7.0,73761,List1A,white,woman,,,,null,,,,
6413,<p><b>Answer:</b> kate is meeting beth</p>,0,html-button-response,25,404965,0.0-8.0,73761,List1A,white,woman,,,,,,,,
null,<img src='img/look_eg.gif' style='height:400px;''></img>,,html-keyboard-response,26,407977,0.0-9.0,73761,List1A,white,woman,,,,null,,,,
null,<p>are looking at each other</p>,,html-keyboard-response,27,409983,0.0-10.0,73761,List1A,white,woman,,,,null,,,,
10101,<p><b>Answer:</b> luke and dave are looking at each other</p>,0,html-button-response,28,420094,0.0-11.0,73761,List1A,white,woman,,,,,,,,
14271,"<p>Ready to start the experiment?</p><br><p><strong>Remember to describe the picture using a full sentence,</strong></p><p><strong>that combines the names of the people with the <i>exact</i> phrase given.</strong></p><p><strong>To receive full payment you must do this correctly.</strong></p><p><strong> You do not need to capitalise names or use punctuation.</strong></p><br><p>Press 'Continue' to begin.</p>",0,html-button-response,29,435379,0.0-12.0,73761,List1A,white,woman,,,,,,,,
null,"<div style=""font-size:60px;"">+</div>",,html-keyboard-response,30,436892,0.0-13.0-0.0,73761,List1A,white,woman,,,,null,,,,
null,"<img src=""stim_listA/kiss4.gif""style=""height:400px;""></stim_listA>",,html-keyboard-response,31,438927,0.0-13.0-1.0,73761,List1A,white,woman,,,,null,,,,
null,are kissing each other,,html-keyboard-response,32,440931,0.0-13.0-2.0,73761,List1A,white,woman,,,,null,,,,
29571,,,survey-text,33,470554,0.0-13.0-3.0,73761,List1A,white,woman,,,,,"{""Q0"":""Jane and Dave are kissing each other""}","<img src=""stim_listA/kiss4.gif""style=""height:400px;""></stim_listA>",are kissing each other,
null,"<div style=""font-size:60px;"">+</div>",,html-keyboard-response,34,471078,0.0-13.0-0.1,73761,List1A,white,woman,,,,null,,,,
null,"<img src=""stim_listA/argue8.gif""style=""height:400px;""></stim_listA>",,html-keyboard-response,35,473147,0.0-13.0-1.1,73761,List1A,white,woman,,,,null,,,,
null,are arguing with each other,,html-keyboard-response,36,475239,0.0-13.0-2.1,73761,List1A,white,woman,,,,null,,,,
38636,,,survey-text,37,513937,0.0-13.0-3.1,73761,List1A,white,woman,,,,,"{""Q0"":""Beth and Jane are arguing with each other ""}","<img src=""stim_listA/argue8.gif""style=""height:400px;""></stim_listA>",are arguing with each other,
null,"<div style=""font-size:60px;"">+</div>",,html-keyboard-response,38,514469,0.0-13.0-0.2,73761,List1A,white,woman,,,,null,,,,
null,"<img src=""stim_listA/marry1.gif""style=""height:400px;""></stim_listA>",,html-keyboard-response,39,516506,0.0-13.0-1.2,73761,List1A,white,woman,,,,null,,,,
null,is marrying,,html-keyboard-response,40,518513,0.0-13.0-2.2,73761,List1A,white,woman,,,,null,,,,
54984,,,survey-text,41,573547,0.0-13.0-3.2,73761,List1A,white,woman,,,,,"{""Q0"":""Beth is marrying mike""}","<img src=""stim_listA/marry1.gif""style=""height:400px;""></stim_listA>",is marrying,
null,"<div style=""font-size:60px;"">+</div>",,html-keyboard-response,42,574060,0.0-13.0-0.3,73761,List1A,white,woman,,,,null,,,,
null,"<img src=""stim_listA/shout8.gif""style=""height:400px;""></stim_listA>",,html-keyboard-response,43,576086,0.0-13.0-1.3,73761,List1A,white,woman,,,,null,,,,
null,are shouting at each other,,html-keyboard-response,44,578090,0.0-13.0-2.3,73761,List1A,white,woman,,,,null,,,,
57406,,,survey-text,45,635505,0.0-13.0-3.3,73761,List1A,white,woman,,,,,"{""Q0"":""Jane and Beth are shouting at each other""}","<img src=""stim_listA/shout8.gif""style=""height:400px;""></stim_listA>",are shouting at each other,
null,"<div style=""font-size:60px;"">+</div>",,html-keyboard-response,46,636013,0.0-13.0-0.4,73761,List1A,white,woman,,,,null,,,,
null,"<img src=""stim_listA/dance8.gif""style=""height:400px;""></stim_listA>",,html-keyboard-response,47,638026,0.0-13.0-1.4,73761,List1A,white,woman,,,,null,,,,
null,are dancing with each other,,html-keyboard-response,48,640036,0.0-13.0-2.4,73761,List1A,white,woman,,,,null,,,,
63497,,,survey-text,49,703541,0.0-13.0-3.4,73761,List1A,white,woman,,,,,"{""Q0"":""Ruth and Kate are dancing with each other""}","<img src=""stim_listA/dance8.gif""style=""height:400px;""></stim_listA>",are dancing with each other,
null,"<div style=""font-size:60px;"">+</div>",,html-keyboard-response,50,704048,0.0-13.0-0.5,73761,List1A,white,woman,,,,null,,,,
null,"<img src=""stim_listA/shout2.gif""style=""height:400px;""></stim_listA>",,html-keyboard-response,51,706060,0.0-13.0-1.5,73761,List1A,white,woman,,,,null,,,,
null,are shouting at each other,,html-keyboard-response,52,708066,0.0-13.0-2.5,73761,List1A,white,woman,,,,null,,,,
36162,,,survey-text,53,744236,0.0-13.0-3.5,73761,List1A,white,woman,,,,,"{""Q0"":""Mike and Kate are shouting at each other ""}","<img src=""stim_listA/shout2.gif""style=""height:400px;""></stim_listA>",are shouting at each other,
null,"<div style=""font-size:60px;"">+</div>",,html-keyboard-response,54,744741,0.0-13.0-0.6,73761,List1A,white,woman,,,,null,,,,
null,"<img src=""stim_listA/play7.gif""style=""height:400px;""></stim_listA>",,html-keyboard-response,55,746754,0.0-13.0-1.6,73761,List1A,white,woman,,,,null,,,,
null,is playing with,,html-keyboard-response,56,748758,0.0-13.0-2.6,73761,List1A,white,woman,,,,null,,,,
39670,,,survey-text,57,788432,0.0-13.0-3.6,73761,List1A,white,woman,,,,,"{""Q0"":""Kate is playing with jane""}","<img src=""stim_listA/play7.gif""style=""height:400px;""></stim_listA>",is playing with,
null,"<div style=""font-size:60px;"">+</div>",,html-keyboard-response,58,788939,0.0-13.0-0.7,73761,List1A,white,woman,,,,null,,,,
null,"<img src=""stim_listA/dance7.gif""style=""height:400px;""></stim_listA>",,html-keyboard-response,59,790952,0.0-13.0-1.7,73761,List1A,white,woman,,,,null,,,,
null,is dancing with,,html-keyboard-response,60,792958,0.0-13.0-2.7,73761,List1A,white,woman,,,,null,,,,
26424,,,survey-text,61,819394,0.0-13.0-3.7,73761,List1A,white,woman,,,,,"{""Q0"":""Jane is dancing with Beth ""}","<img src=""stim_listA/dance7.gif""style=""height:400px;""></stim_listA>",is dancing with,
null,"<div style=""font-size:60px;"">+</div>",,html-keyboard-response,62,819902,0.0-13.0-0.8,73761,List1A,white,woman,,,,null,,,,
null,"<img src=""stim_listA/play5.gif""style=""height:400px;""></stim_listA>",,html-keyboard-response,63,821912,0.0-13.0-1.8,73761,List1A,white,woman,,,,null,,,,
null,is playing with,,html-keyboard-response,64,823918,0.0-13.0-2.8,73761,List1A,white,woman,,,,null,,,,
59930,,,survey-text,65,883885,0.0-13.0-3.8,73761,List1A,white,woman,,,,,"{""Q0"":""Dave is playing with mike""}","<img src=""stim_listA/play5.gif""style=""height:400px;""></stim_listA>",is playing with,
null,"<div style=""font-size:60px;"">+</div>",,html-keyboard-response,66,884456,0.0-13.0-0.9,73761,List1A,white,woman,,,,null,,,,
null,"<img src=""stim_listA/argue1.gif""style=""height:400px;""></stim_listA>",,html-keyboard-response,67,886652,0.0-13.0-1.9,73761,List1A,white,woman,,,,null,,,,
null,is arguing with,,html-keyboard-response,68,888658,0.0-13.0-2.9,73761,List1A,white,woman,,,,null,,,,
29434,,,survey-text,69,918128,0.0-13.0-3.9,73761,List1A,white,woman,,,,,"{""Q0"":""Mike is arguing with beth""}","<img src=""stim_listA/argue1.gif""style=""height:400px;""></stim_listA>",is arguing with,
null,"<div style=""font-size:60px;"">+</div>",,html-keyboard-response,70,918636,0.0-13.0-0.10,73761,List1A,white,woman,,,,null,,,,
null,"<img src=""stim_listA/shout1.gif""style=""height:400px;""></stim_listA>",,html-keyboard-response,71,920669,0.0-13.0-1.10,73761,List1A,white,woman,,,,null,,,,
null,is shouting at,,html-keyboard-response,72,922678,0.0-13.0-2.10,73761,List1A,white,woman,,,,null,,,,
49038,,,survey-text,73,971726,0.0-13.0-3.10,73761,List1A,white,woman,,,,,"{""Q0"":""Fred is shouting at beth""}","<img src=""stim_listA/shout1.gif""style=""height:400px;""></stim_listA>",is shouting at,
null,"<div style=""font-size:60px;"">+</div>",,html-keyboard-response,74,972236,0.0-13.0-0.11,73761,List1A,white,woman,,,,null,,,,
null,"<img src=""stim_listA/flirt8.gif""style=""height:400px;""></stim_listA>",,html-keyboard-response,75,974250,0.0-13.0-1.11,73761,List1A,white,woman,,,,null,,,,
null,are flirting with each other,,html-keyboard-response,76,976256,0.0-13.0-2.11,73761,List1A,white,woman,,,,null,,,,
23536,,,survey-text,77,999800,0.0-13.0-3.11,73761,List1A,white,woman,,,,,"{""Q0"":""Ruth and Kate are flirting together""}","<img src=""stim_listA/flirt8.gif""style=""height:400px;""></stim_listA>",are flirting with each other,
null,"<div style=""font-size:60px;"">+</div>",,html-keyboard-response,78,1000311,0.0-13.0-0.12,73761,List1A,white,woman,,,,null,,,,
null,"<img src=""stim_listA/play6.gif""style=""height:400px;""></stim_listA>",,html-keyboard-response,79,1002326,0.0-13.0-1.12,73761,List1A,white,woman,,,,null,,,,
null,are playing with each other,,html-keyboard-response,80,1004334,0.0-13.0-2.12,73761,List1A,white,woman,,,,null,,,,
16101,,,survey-text,81,1020444,0.0-13.0-3.12,73761,List1A,white,woman,,,,,"{""Q0"":""Dave and luke are playing with each other""}","<img src=""stim_listA/play6.gif""style=""height:400px;""></stim_listA>",are playing with each other,
null,"<div style=""font-size:60px;"">+</div>",,html-keyboard-response,82,1020997,0.0-13.0-0.13,73761,List1A,white,woman,,,,null,,,,
null,"<img src=""stim_listA/marry5.gif""style=""height:400px;""></stim_listA>",,html-keyboard-response,83,1023008,0.0-13.0-1.13,73761,List1A,white,woman,,,,null,,,,
null,is marrying,,html-keyboard-response,84,1025015,0.0-13.0-2.13,73761,List1A,white,woman,,,,null,,,,
17647,,,survey-text,85,1042670,0.0-13.0-3.13,73761,List1A,white,woman,,,,,"{""Q0"":""Luke and Mike are marrying""}","<img src=""stim_listA/marry5.gif""style=""height:400px;""></stim_listA>",is marrying,
null,"<div style=""font-size:60px;"">+</div>",,html-keyboard-response,86,1043180,0.0-13.0-0.14,73761,List1A,white,woman,,,,null,,,,
null,"<img src=""stim_listA/marry6.gif""style=""height:400px;""></stim_listA>",,html-keyboard-response,87,1045193,0.0-13.0-1.14,73761,List1A,white,woman,,,,null,,,,
null,are marrying each other,,html-keyboard-response,88,1047199,0.0-13.0-2.14,73761,List1A,white,woman,,,,null,,,,
27469,,,survey-text,89,1074719,0.0-13.0-3.14,73761,List1A,white,woman,,,,,"{""Q0"":""Dave and fred are marrying each other ""}","<img src=""stim_listA/marry6.gif""style=""height:400px;""></stim_listA>",are marrying each other,
null,"<div style=""font-size:60px;"">+</div>",,html-keyboard-response,90,1075260,0.0-13.0-0.15,73761,List1A,white,woman,,,,null,,,,
null,"<img src=""stim_listA/fight5.gif""style=""height:400px;""></stim_listA>",,html-keyboard-response,91,1077313,0.0-13.0-1.15,73761,List1A,white,woman,,,,null,,,,
null,is fighting,,html-keyboard-response,92,1079323,0.0-13.0-2.15,73761,List1A,white,woman,,,,null,,,,
10363,,,survey-text,93,1089724,0.0-13.0-3.15,73761,List1A,white,woman,,,,,"{""Q0"":""Dave is fighting mike""}","<img src=""stim_listA/fight5.gif""style=""height:400px;""></stim_listA>",is fighting,
null,"<div style=""font-size:60px;"">+</div>",,html-keyboard-response,94,1090260,0.0-13.0-0.16,73761,List1A,white,woman,,,,null,,,,
null,"<img src=""stim_listA/flirt3.gif""style=""height:400px;""></stim_listA>",,html-keyboard-response,95,1092281,0.0-13.0-1.16,73761,List1A,white,woman,,,,null,,,,
null,is flirting with,,html-keyboard-response,96,1094288,0.0-13.0-2.16,73761,List1A,white,woman,,,,null,,,,
11521,,,survey-text,97,1105821,0.0-13.0-3.16,73761,List1A,white,woman,,,,,"{""Q0"":""Luke is flirting with jane""}","<img src=""stim_listA/flirt3.gif""style=""height:400px;""></stim_listA>",is flirting with,
null,"<div style=""font-size:60px;"">+</div>",,html-keyboard-response,98,1106329,0.0-13.0-0.17,73761,List1A,white,woman,,,,null,,,,
null,"<img src=""stim_listA/marry4.gif""style=""height:400px;""></stim_listA>",,html-keyboard-response,99,1108351,0.0-13.0-1.17,73761,List1A,white,woman,,,,null,,,,
null,are marrying each other,,html-keyboard-response,100,1110358,0.0-13.0-2.17,73761,List1A,white,woman,,,,null,,,,
16515,,,survey-text,101,1126880,0.0-13.0-3.17,73761,List1A,white,woman,,,,,"{""Q0"":""Luke and Jane are marrying each other ""}","<img src=""stim_listA/marry4.gif""style=""height:400px;""></stim_listA>",are marrying each other,
null,"<div style=""font-size:60px;"">+</div>",,html-keyboard-response,102,1127388,0.0-13.0-0.18,73761,List1A,white,woman,,,,null,,,,
null,"<img src=""stim_listA/argue3.gif""style=""height:400px;""></stim_listA>",,html-keyboard-response,103,1129398,0.0-13.0-1.18,73761,List1A,white,woman,,,,null,,,,
null,is arguing with,,html-keyboard-response,104,1131403,0.0-13.0-2.18,73761,List1A,white,woman,,,,null,,,,
18551,,,survey-text,105,1149962,0.0-13.0-3.18,73761,List1A,white,woman,,,,,"{""Q0"":""Dave is arguing with ruth""}","<img src=""stim_listA/argue3.gif""style=""height:400px;""></stim_listA>",is arguing with,
null,"<div style=""font-size:60px;"">+</div>",,html-keyboard-response,106,1150470,0.0-13.0-0.19,73761,List1A,white,woman,,,,null,,,,
null,"<img src=""stim_listA/talk1.gif""style=""height:400px;""></stim_listA>",,html-keyboard-response,107,1152482,0.0-13.0-1.19,73761,List1A,white,woman,,,,null,,,,
null,is talking to,,html-keyboard-response,108,1154487,0.0-13.0-2.19,73761,List1A,white,woman,,,,null,,,,
17180,,,survey-text,109,1171674,0.0-13.0-3.19,73761,List1A,white,woman,,,,,"{""Q0"":""Fred is talking to kate""}","<img src=""stim_listA/talk1.gif""style=""height:400px;""></stim_listA>",is talking to,
12038,"<img src='img/portrait_matrix_list1.jpg' style='width:900px;height:500px;''></img><p>If you have memorised all the portraits and names and are ready to start, press Continue.</p><p><strong>Please note: Your memory of these faces will be tested 4 times during this experiment.</strong></p>",0,html-button-response,110,1183857,0.0-14.0-0.0,73761,List1A,white,woman,,,,,,,,
4290,"<img src=""portrait/WM2.jpg""style=""height:400px;""></img>",7,html-button-response,111,1189197,0.0-14.0-1.0,73761,List1A,white,woman,,TRUE,7,,,,,
null,CORRECT,,html-keyboard-response,112,1190724,0.0-14.0-2.0-0.0,73761,List1A,white,woman,,,,null,,,,
3037,"<img src=""portrait/BW1.jpg""style=""height:400px;""></img>",0,html-button-response,113,1193778,0.0-14.0-4.0,73761,List1A,white,woman,,TRUE,0,,,,,
null,CORRECT,,html-keyboard-response,114,1195391,0.0-14.0-5.0-0.0,73761,List1A,white,woman,,,,null,,,,
2803,"<img src=""portrait/WW1.jpg""style=""height:400px;""></img>",1,html-button-response,115,1198259,0.0-14.0-7.0,73761,List1A,white,woman,,TRUE,1,,,,,
null,CORRECT,,html-keyboard-response,116,1199810,0.0-14.0-8.0-0.0,73761,List1A,white,woman,,,,null,,,,
2078,"<img src=""portrait/WW2.jpg""style=""height:400px;""></img>",3,html-button-response,117,1201929,0.0-14.0-10.0,73761,List1A,white,woman,,TRUE,3,,,,,
null,CORRECT,,html-keyboard-response,118,1203440,0.0-14.0-11.0-0.0,73761,List1A,white,woman,,,,null,,,,
2342,"<img src=""portrait/BM1.jpg""style=""height:400px;""></img>",4,html-button-response,119,1205802,0.0-14.0-13.0,73761,List1A,white,woman,,TRUE,4,,,,,
null,CORRECT,,html-keyboard-response,120,1207310,0.0-14.0-14.0-0.0,73761,List1A,white,woman,,,,null,,,,
2674,"<img src=""portrait/WM1.jpg""style=""height:400px;""></img>",6,html-button-response,121,1210007,0.0-14.0-16.0,73761,List1A,white,woman,,TRUE,6,,,,,
null,CORRECT,,html-keyboard-response,122,1211555,0.0-14.0-17.0-0.0,73761,List1A,white,woman,,,,null,,,,
1596,"<img src=""portrait/BM2.jpg""style=""height:400px;""></img>",5,html-button-response,123,1213186,0.0-14.0-19.0,73761,List1A,white,woman,,TRUE,5,,,,,
null,CORRECT,,html-keyboard-response,124,1214722,0.0-14.0-20.0-0.0,73761,List1A,white,woman,,,,null,,,,
3017,"<img src=""portrait/BW2.jpg""style=""height:400px;""></img>",2,html-button-response,125,1217833,0.0-14.0-22.0,73761,List1A,white,woman,,TRUE,2,,,,,
null,CORRECT,,html-keyboard-response,126,1219360,0.0-14.0-23.0-0.0,73761,List1A,white,woman,,,,null,,,,
1426,<p>You got 8 out of 8 right first time. Press Continue.</p>,0,html-button-response,127,1220874,0.0-14.0-25.0,73761,List1A,white,woman,,,,,,,,
null,"<div style=""font-size:60px;"">+</div>",,html-keyboard-response,128,1222396,0.0-15.0-0.0,73761,List1A,white,woman,,,,null,,,,
null,"<img src=""stim_listA/shout7.gif""style=""height:400px;""></stim_listA>",,html-keyboard-response,129,1224410,0.0-15.0-1.0,73761,List1A,white,woman,,,,null,,,,
null,is shouting at,,html-keyboard-response,130,1226418,0.0-15.0-2.0,73761,List1A,white,woman,,,,null,,,,
44759,,,survey-text,131,1271220,0.0-15.0-3.0,73761,List1A,white,woman,,,,,"{""Q0"":""Ruth is shouting at beth""}","<img src=""stim_listA/shout7.gif""style=""height:400px;""></stim_listA>",is shouting at,
null,"<div style=""font-size:60px;"">+</div>",,html-keyboard-response,132,1271730,0.0-15.0-0.1,73761,List1A,white,woman,,,,null,,,,
null,"<img src=""stim_listA/marry7.gif""style=""height:400px;""></stim_listA>",,html-keyboard-response,133,1273748,0.0-15.0-1.1,73761,List1A,white,woman,,,,null,,,,
null,is marrying,,html-keyboard-response,134,1275754,0.0-15.0-2.1,73761,List1A,white,woman,,,,null,,,,
50786,,,survey-text,135,1326550,0.0-15.0-3.1,73761,List1A,white,woman,,,,,"{""Q0"":""Kate is marrying ruth""}","<img src=""stim_listA/marry7.gif""style=""height:400px;""></stim_listA>",is marrying,
null,"<div style=""font-size:60px;"">+</div>",,html-keyboard-response,136,1327058,0.0-15.0-0.2,73761,List1A,white,woman,,,,null,,,,
null,"<img src=""stim_listA/fight6.gif""style=""height:400px;""></stim_listA>",,html-keyboard-response,137,1329069,0.0-15.0-1.2,73761,List1A,white,woman,,,,null,,,,
null,are fighting each other,,html-keyboard-response,138,1331074,0.0-15.0-2.2,73761,List1A,white,woman,,,,null,,,,
39639,,,survey-text,139,1370722,0.0-15.0-3.2,73761,List1A,white,woman,,,,,"{""Q0"":""Luke and fred are fighting each other ""}","<img src=""stim_listA/fight6.gif""style=""height:400px;""></stim_listA>",are fighting each other,
null,"<div style=""font-size:60px;"">+</div>",,html-keyboard-response,140,1371227,0.0-15.0-0.3,73761,List1A,white,woman,,,,null,,,,
null,"<img src=""stim_listA/argue7.gif""style=""height:400px;""></stim_listA>",,html-keyboard-response,141,1373235,0.0-15.0-1.3,73761,List1A,white,woman,,,,null,,,,
null,is arguing with,,html-keyboard-response,142,1375239,0.0-15.0-2.3,73761,List1A,white,woman,,,,null,,,,
67128,,,survey-text,143,1442440,0.0-15.0-3.3,73761,List1A,white,woman,,,,,"{""Q0"":""Ruth is arguing with kate""}","<img src=""stim_listA/argue7.gif""style=""height:400px;""></stim_listA>",is arguing with,
null,"<div style=""font-size:60px;"">+</div>",,html-keyboard-response,144,1442957,0.0-15.0-0.4,73761,List1A,white,woman,,,,null,,,,
null,"<img src=""stim_listA/marry2.gif""style=""height:400px;""></stim_listA>",,html-keyboard-response,145,1445004,0.0-15.0-1.4,73761,List1A,white,woman,,,,null,,,,
null,are marrying each other,,html-keyboard-response,146,1447010,0.0-15.0-2.4,73761,List1A,white,woman,,,,null,,,,
37188,,,survey-text,147,1484362,0.0-15.0-3.4,73761,List1A,white,woman,,,,,"{""Q0"":""Fred and Kate are marrying each other""}","<img src=""stim_listA/marry2.gif""style=""height:400px;""></stim_listA>",are marrying each other,
null,"<div style=""font-size:60px;"">+</div>",,html-keyboard-response,148,1485025,0.0-15.0-0.5,73761,List1A,white,woman,,,,null,,,,
null,"<img src=""stim_listA/shout4.gif""style=""height:400px;""></stim_listA>",,html-keyboard-response,149,1487417,0.0-15.0-1.5,73761,List1A,white,woman,,,,null,,,,
null,are shouting at each other,,html-keyboard-response,150,1489490,0.0-15.0-2.5,73761,List1A,white,woman,,,,null,,,,
40820,,,survey-text,151,1530390,0.0-15.0-3.5,73761,List1A,white,woman,,,,,"{""Q0"":""Dave and Jane are shouting each other ""}","<img src=""stim_listA/shout4.gif""style=""height:400px;""></stim_listA>",are shouting at each other,
null,"<div style=""font-size:60px;"">+</div>",,html-keyboard-response,152,1530920,0.0-15.0-0.6,73761,List1A,white,woman,,,,null,,,,
null,"<img src=""stim_listA/dance1.gif""style=""height:400px;""></stim_listA>",,html-keyboard-response,153,1532977,0.0-15.0-1.6,73761,List1A,white,woman,,,,null,,,,
null,is dancing with,,html-keyboard-response,154,1534983,0.0-15.0-2.6,73761,List1A,white,woman,,,,null,,,,
35872,,,survey-text,155,1570885,0.0-15.0-3.6,73761,List1A,white,woman,,,,,"{""Q0"":""Kate is dancing with Fred ""}","<img src=""stim_listA/dance1.gif""style=""height:400px;""></stim_listA>",is dancing with,
null,"<div style=""font-size:60px;"">+</div>",,html-keyboard-response,156,1571435,0.0-15.0-0.7,73761,List1A,white,woman,,,,null,,,,
null,"<img src=""stim_listA/shout5.gif""style=""height:400px;""></stim_listA>",,html-keyboard-response,157,1573595,0.0-15.0-1.7,73761,List1A,white,woman,,,,null,,,,
null,is shouting at,,html-keyboard-response,158,1575601,0.0-15.0-2.7,73761,List1A,white,woman,,,,null,,,,
17422,,,survey-text,159,1593051,0.0-15.0-3.7,73761,List1A,white,woman,,,,,"{""Q0"":""Luke is shouting at Fred ""}","<img src=""stim_listA/shout5.gif""style=""height:400px;""></stim_listA>",is shouting at,
null,"<div style=""font-size:60px;"">+</div>",,html-keyboard-response,160,1593564,0.0-15.0-0.8,73761,List1A,white,woman,,,,null,,,,
null,"<img src=""stim_listA/dance3.gif""style=""height:400px;""></stim_listA>",,html-keyboard-response,161,1595577,0.0-15.0-1.8,73761,List1A,white,woman,,,,null,,,,
null,is dancing with,,html-keyboard-response,162,1597583,0.0-15.0-2.8,73761,List1A,white,woman,,,,null,,,,
18585,,,survey-text,163,1616176,0.0-15.0-3.8,73761,List1A,white,woman,,,,,"{""Q0"":""Luke is dancing with Jane ""}","<img src=""stim_listA/dance3.gif""style=""height:400px;""></stim_listA>",is dancing with,
null,"<div style=""font-size:60px;"">+</div>",,html-keyboard-response,164,1616684,0.0-15.0-0.9,73761,List1A,white,woman,,,,null,,,,
null,"<img src=""stim_listA/touch7.gif""style=""height:400px;""></stim_listA>",,html-keyboard-response,165,1618696,0.0-15.0-1.9,73761,List1A,white,woman,,,,null,,,,
null,is touching,,html-keyboard-response,166,1620701,0.0-15.0-2.9,73761,List1A,white,woman,,,,null,,,,
15610,,,survey-text,167,1636320,0.0-15.0-3.9,73761,List1A,white,woman,,,,,"{""Q0"":""Kate is touching Jane""}","<img src=""stim_listA/touch7.gif""style=""height:400px;""></stim_listA>",is touching,
null,"<div style=""font-size:60px;"">+</div>",,html-keyboard-response,168,1636832,0.0-15.0-0.10,73761,List1A,white,woman,,,,null,,,,
null,"<img src=""stim_listA/touch4.gif""style=""height:400px;""></stim_listA>",,html-keyboard-response,169,1638844,0.0-15.0-1.10,73761,List1A,white,woman,,,,null,,,,
null,are touching each other,,html-keyboard-response,170,1640850,0.0-15.0-2.10,73761,List1A,white,woman,,,,null,,,,
61429,,,survey-text,171,1702310,0.0-15.0-3.10,73761,List1A,white,woman,,,,,"{""Q0"":""Luke and Ruth are touching each other ""}","<img src=""stim_listA/touch4.gif""style=""height:400px;""></stim_listA>",are touching each other,
null,"<div style=""font-size:60px;"">+</div>",,html-keyboard-response,172,1703081,0.0-15.0-0.11,73761,List1A,white,woman,,,,null,,,,
null,"<img src=""stim_listA/talk7.gif""style=""height:400px;""></stim_listA>",,html-keyboard-response,173,1705390,0.0-15.0-1.11,73761,List1A,white,woman,,,,null,,,,
null,is talking to,,html-keyboard-response,174,1707487,0.0-15.0-2.11,73761,List1A,white,woman,,,,null,,,,
100844,,,survey-text,175,1808384,0.0-15.0-3.11,73761,List1A,white,woman,,,,,"{""Q0"":""Beth is talking to jane""}","<img src=""stim_listA/talk7.gif""style=""height:400px;""></stim_listA>",is talking to,
null,"<div style=""font-size:60px;"">+</div>",,html-keyboard-response,176,1808948,0.0-15.0-0.12,73761,List1A,white,woman,,,,null,,,,
null,"<img src=""stim_listA/kiss1.gif""style=""height:400px;""></stim_listA>",,html-keyboard-response,177,1811182,0.0-15.0-1.12,73761,List1A,white,woman,,,,null,,,,
null,is kissing,,html-keyboard-response,178,1813188,0.0-15.0-2.12,73761,List1A,white,woman,,,,null,,,,
52311,,,survey-text,179,1865546,0.0-15.0-3.12,73761,List1A,white,woman,,,,,"{""Q0"":""Fred is kissing beth""}","<img src=""stim_listA/kiss1.gif""style=""height:400px;""></stim_listA>",is kissing,
null,"<div style=""font-size:60px;"">+</div>",,html-keyboard-response,180,1866075,0.0-15.0-0.13,73761,List1A,white,woman,,,,null,,,,
null,"<img src=""stim_listA/dance6.gif""style=""height:400px;""></stim_listA>",,html-keyboard-response,181,1868134,0.0-15.0-1.13,73761,List1A,white,woman,,,,null,,,,
null,are dancing with each other,,html-keyboard-response,182,1870139,0.0-15.0-2.13,73761,List1A,white,woman,,,,null,,,,
41826,,,survey-text,183,1911978,0.0-15.0-3.13,73761,List1A,white,woman,,,,,"{""Q0"":""Luke and Mike are dancing with each other ""}","<img src=""stim_listA/dance6.gif""style=""height:400px;""></stim_listA>",are dancing with each other,
null,"<div style=""font-size:60px;"">+</div>",,html-keyboard-response,184,1912488,0.0-15.0-0.14,73761,List1A,white,woman,,,,null,,,,
null,"<img src=""stim_listA/argue2.gif""style=""height:400px;""></stim_listA>",,html-keyboard-response,185,1914499,0.0-15.0-1.14,73761,List1A,white,woman,,,,null,,,,
null,are arguing with each other,,html-keyboard-response,186,1916505,0.0-15.0-2.14,73761,List1A,white,woman,,,,null,,,,
83338,,,survey-text,187,1999866,0.0-15.0-3.14,73761,List1A,white,woman,,,,,"{""Q0"":""Kate and fred are arguing with each other ""}","<img src=""stim_listA/argue2.gif""style=""height:400px;""></stim_listA>",are arguing with each other,
null,"<div style=""font-size:60px;"">+</div>",,html-keyboard-response,188,2000387,0.0-15.0-0.15,73761,List1A,white,woman,,,,null,,,,
null,"<img src=""stim_listA/talk5.gif""style=""height:400px;""></stim_listA>",,html-keyboard-response,189,2002433,0.0-15.0-1.15,73761,List1A,white,woman,,,,null,,,,
null,is talking to,,html-keyboard-response,190,2004442,0.0-15.0-2.15,73761,List1A,white,woman,,,,null,,,,
43469,,,survey-text,191,2047929,0.0-15.0-3.15,73761,List1A,white,woman,,,,,"{""Q0"":""Fred is talking to dave""}","<img src=""stim_listA/talk5.gif""style=""height:400px;""></stim_listA>",is talking to,
null,"<div style=""font-size:60px;"">+</div>",,html-keyboard-response,192,2048437,0.0-15.0-0.16,73761,List1A,white,woman,,,,null,,,,
null,"<img src=""stim_listA/touch6.gif""style=""height:400px;""></stim_listA>",,html-keyboard-response,193,2050449,0.0-15.0-1.16,73761,List1A,white,woman,,,,null,,,,
null,are touching each other,,html-keyboard-response,194,2052457,0.0-15.0-2.16,73761,List1A,white,woman,,,,null,,,,
59526,,,survey-text,195,2111991,0.0-15.0-3.16,73761,List1A,white,woman,,,,,"{""Q0"":""Fred and luke are touching each other""}","<img src=""stim_listA/touch6.gif""style=""height:400px;""></stim_listA>",are touching each other,
null,"<div style=""font-size:60px;"">+</div>",,html-keyboard-response,196,2112499,0.0-15.0-0.17,73761,List1A,white,woman,,,,null,,,,
null,"<img src=""stim_listA/flirt7.gif""style=""height:400px;""></stim_listA>",,html-keyboard-response,197,2114509,0.0-15.0-1.17,73761,List1A,white,woman,,,,null,,,,
null,is flirting with,,html-keyboard-response,198,2116515,0.0-15.0-2.17,73761,List1A,white,woman,,,,null,,,,
12501,,,survey-text,199,2129023,0.0-15.0-3.17,73761,List1A,white,woman,,,,,"{""Q0"":""Beth is flirting with jane""}","<img src=""stim_listA/flirt7.gif""style=""height:400px;""></stim_listA>",is flirting with,
null,"<div style=""font-size:60px;"">+</div>",,html-keyboard-response,200,2129530,0.0-15.0-0.18,73761,List1A,white,woman,,,,null,,,,
null,"<img src=""stim_listA/touch5.gif""style=""height:400px;""></stim_listA>",,html-keyboard-response,201,2131540,0.0-15.0-1.18,73761,List1A,white,woman,,,,null,,,,
null,is touching,,html-keyboard-response,202,2133547,0.0-15.0-2.18,73761,List1A,white,woman,,,,null,,,,
57536,,,survey-text,203,2191091,0.0-15.0-3.18,73761,List1A,white,woman,,,,,"{""Q0"":""Mike is touching Luke""}","<img src=""stim_listA/touch5.gif""style=""height:400px;""></stim_listA>",is touching,
null,"<div style=""font-size:60px;"">+</div>",,html-keyboard-response,204,2191598,0.0-15.0-0.19,73761,List1A,white,woman,,,,null,,,,
null,"<img src=""stim_listA/argue5.gif""style=""height:400px;""></stim_listA>",,html-keyboard-response,205,2193609,0.0-15.0-1.19,73761,List1A,white,woman,,,,null,,,,
null,is arguing with,,html-keyboard-response,206,2195615,0.0-15.0-2.19,73761,List1A,white,woman,,,,null,,,,
159516,,,survey-text,207,2355216,0.0-15.0-3.19,73761,List1A,white,woman,,,,,"{""Q0"":""Luke is arguing with Mike""}","<img src=""stim_listA/argue5.gif""style=""height:400px;""></stim_listA>",is arguing with,
18299,"<img src='img/portrait_matrix_list1.jpg' style='width:900px;height:500px;''></img><p>If you have memorised all the portraits and names and are ready to start, press Continue.</p><p><strong>Please note: Your memory of these faces will be tested 4 times during this experiment.</strong></p>",0,html-button-response,208,2376085,0.0-16.0-0.0,73761,List1A,white,woman,,,,,,,,
4112,"<img src=""portrait/WM2.jpg""style=""height:400px;""></img>",7,html-button-response,209,2382128,0.0-16.0-1.0,73761,List1A,white,woman,,TRUE,7,,,,,
null,CORRECT,,html-keyboard-response,210,2383675,0.0-16.0-2.0-0.0,73761,List1A,white,woman,,,,null,,,,
1882,"<img src=""portrait/BM1.jpg""style=""height:400px;""></img>",4,html-button-response,211,2385571,0.0-16.0-4.0,73761,List1A,white,woman,,TRUE,4,,,,,
null,CORRECT,,html-keyboard-response,212,2387081,0.0-16.0-5.0-0.0,73761,List1A,white,woman,,,,null,,,,
1921,"<img src=""portrait/WW1.jpg""style=""height:400px;""></img>",1,html-button-response,213,2389016,0.0-16.0-7.0,73761,List1A,white,woman,,TRUE,1,,,,,
null,CORRECT,,html-keyboard-response,214,2390529,0.0-16.0-8.0-0.0,73761,List1A,white,woman,,,,null,,,,
1684,"<img src=""portrait/BW1.jpg""style=""height:400px;""></img>",0,html-button-response,215,2392228,0.0-16.0-10.0,73761,List1A,white,woman,,TRUE,0,,,,,
null,CORRECT,,html-keyboard-response,216,2393737,0.0-16.0-11.0-0.0,73761,List1A,white,woman,,,,null,,,,
2604,"<img src=""portrait/BW2.jpg""style=""height:400px;""></img>",2,html-button-response,217,2396388,0.0-16.0-13.0,73761,List1A,white,woman,,TRUE,2,,,,,
null,CORRECT,,html-keyboard-response,218,2397901,0.0-16.0-14.0-0.0,73761,List1A,white,woman,,,,null,,,,
1435,"<img src=""portrait/WW2.jpg""style=""height:400px;""></img>",3,html-button-response,219,2399348,0.0-16.0-16.0,73761,List1A,white,woman,,TRUE,3,,,,,
null,CORRECT,,html-keyboard-response,220,2400856,0.0-16.0-17.0-0.0,73761,List1A,white,woman,,,,null,,,,
1652,"<img src=""portrait/BM2.jpg""style=""height:400px;""></img>",5,html-button-response,221,2402518,0.0-16.0-19.0,73761,List1A,white,woman,,TRUE,5,,,,,
null,CORRECT,,html-keyboard-response,222,2404027,0.0-16.0-20.0-0.0,73761,List1A,white,woman,,,,null,,,,
910,"<img src=""portrait/WM1.jpg""style=""height:400px;""></img>",6,html-button-response,223,2404944,0.0-16.0-22.0,73761,List1A,white,woman,,TRUE,6,,,,,
null,CORRECT,,html-keyboard-response,224,2406450,0.0-16.0-23.0-0.0,73761,List1A,white,woman,,,,null,,,,
3496,<p>You got 8 out of 8 right first time. Press Continue.</p>,0,html-button-response,225,2409958,0.0-16.0-25.0,73761,List1A,white,woman,,,,,,,,
null,"<div style=""font-size:60px;"">+</div>",,html-keyboard-response,226,2411480,0.0-17.0-0.0,73761,List1A,white,woman,,,,null,,,,
null,"<img src=""stim_listA/fight3.gif""style=""height:400px;""></stim_listA>",,html-keyboard-response,227,2413491,0.0-17.0-1.0,73761,List1A,white,woman,,,,null,,,,
null,is fighting,,html-keyboard-response,228,2415498,0.0-17.0-2.0,73761,List1A,white,woman,,,,null,,,,
82179,,,survey-text,229,2497691,0.0-17.0-3.0,73761,List1A,white,woman,,,,,"{""Q0"":""Jane is fighting Dave ""}","<img src=""stim_listA/fight3.gif""style=""height:400px;""></stim_listA>",is fighting,
null,"<div style=""font-size:60px;"">+</div>",,html-keyboard-response,230,2498197,0.0-17.0-0.1,73761,List1A,white,woman,,,,null,,,,
null,"<img src=""stim_listA/play4.gif""style=""height:400px;""></stim_listA>",,html-keyboard-response,231,2500209,0.0-17.0-1.1,73761,List1A,white,woman,,,,null,,,,
null,are playing with each other,,html-keyboard-response,232,2502215,0.0-17.0-2.1,73761,List1A,white,woman,,,,null,,,,
272359,,,survey-text,233,2774581,0.0-17.0-3.1,73761,List1A,white,woman,,,,,"{""Q0"":""Luke and Ruth are playing with each other""}","<img src=""stim_listA/play4.gif""style=""height:400px;""></stim_listA>",are playing with each other,
null,"<div style=""font-size:60px;"">+</div>",,html-keyboard-response,234,2775088,0.0-17.0-0.2,73761,List1A,white,woman,,,,null,,,,
null,"<img src=""stim_listA/fight2.gif""style=""height:400px;""></stim_listA>",,html-keyboard-response,235,2777100,0.0-17.0-1.2,73761,List1A,white,woman,,,,null,,,,
null,are fighting each other,,html-keyboard-response,236,2779106,0.0-17.0-2.2,73761,List1A,white,woman,,,,null,,,,
90194,,,survey-text,237,2869310,0.0-17.0-3.2,73761,List1A,white,woman,,,,,"{""Q0"":""Fred and Beth are fighting each other""}","<img src=""stim_listA/fight2.gif""style=""height:400px;""></stim_listA>",are fighting each other,
null,"<div style=""font-size:60px;"">+</div>",,html-keyboard-response,238,2869819,0.0-17.0-0.3,73761,List1A,white,woman,,,,null,,,,
null,"<img src=""stim_listA/touch3.gif""style=""height:400px;""></stim_listA>",,html-keyboard-response,239,2871829,0.0-17.0-1.3,73761,List1A,white,woman,,,,null,,,,
null,is touching,,html-keyboard-response,240,2873834,0.0-17.0-2.3,73761,List1A,white,woman,,,,null,,,,
13023,,,survey-text,241,2886864,0.0-17.0-3.3,73761,List1A,white,woman,,,,,"{""Q0"":""Jane is touching dave""}","<img src=""stim_listA/touch3.gif""style=""height:400px;""></stim_listA>",is touching,
null,"<div style=""font-size:60px;"">+</div>",,html-keyboard-response,242,2887370,0.0-17.0-0.4,73761,List1A,white,woman,,,,null,,,,
null,"<img src=""stim_listA/talk4.gif""style=""height:400px;""></stim_listA>",,html-keyboard-response,243,2889381,0.0-17.0-1.4,73761,List1A,white,woman,,,,null,,,,
null,are talking to each other,,html-keyboard-response,244,2891387,0.0-17.0-2.4,73761,List1A,white,woman,,,,null,,,,
95160,,,survey-text,245,2986556,0.0-17.0-3.4,73761,List1A,white,woman,,,,,"{""Q0"":""Ruth and Dave are talking to each other""}","<img src=""stim_listA/talk4.gif""style=""height:400px;""></stim_listA>",are talking to each other,
null,"<div style=""font-size:60px;"">+</div>",,html-keyboard-response,246,2987063,0.0-17.0-0.5,73761,List1A,white,woman,,,,null,,,,
null,"<img src=""stim_listA/flirt1.gif""style=""height:400px;""></stim_listA>",,html-keyboard-response,247,2989076,0.0-17.0-1.5,73761,List1A,white,woman,,,,null,,,,
null,is flirting with,,html-keyboard-response,248,2991084,0.0-17.0-2.5,73761,List1A,white,woman,,,,null,,,,
30677,,,survey-text,249,3021770,0.0-17.0-3.5,73761,List1A,white,woman,,,,,"{""Q0"":""Fred is flirting with kate""}","<img src=""stim_listA/flirt1.gif""style=""height:400px;""></stim_listA>",is flirting with,
null,"<div style=""font-size:60px;"">+</div>",,html-keyboard-response,250,3022312,0.0-17.0-0.6,73761,List1A,white,woman,,,,null,,,,
null,"<img src=""stim_listA/touch8.gif""style=""height:400px;""></stim_listA>",,html-keyboard-response,251,3024321,0.0-17.0-1.6,73761,List1A,white,woman,,,,null,,,,
null,are touching each other,,html-keyboard-response,252,3026441,0.0-17.0-2.6,73761,List1A,white,woman,,,,null,,,,
204842,,,survey-text,253,3231347,0.0-17.0-3.6,73761,List1A,white,woman,,,,,"{""Q0"":""Beth and Ruth are touching each other""}","<img src=""stim_listA/touch8.gif""style=""height:400px;""></stim_listA>",are touching each other,
null,"<div style=""font-size:60px;"">+</div>",,html-keyboard-response,254,3231877,0.0-17.0-0.7,73761,List1A,white,woman,,,,null,,,,
null,"<img src=""stim_listA/kiss5.gif""style=""height:400px;""></stim_listA>",,html-keyboard-response,255,3233904,0.0-17.0-1.7,73761,List1A,white,woman,,,,null,,,,
null,is kissing,,html-keyboard-response,256,3235909,0.0-17.0-2.7,73761,List1A,white,woman,,,,null,,,,
13737,,,survey-text,257,3249659,0.0-17.0-3.7,73761,List1A,white,woman,,,,,"{""Q0"":""Fred is kissing Luke ""}","<img src=""stim_listA/kiss5.gif""style=""height:400px;""></stim_listA>",is kissing,
null,"<div style=""font-size:60px;"">+</div>",,html-keyboard-response,258,3250165,0.0-17.0-0.8,73761,List1A,white,woman,,,,null,,,,
null,"<img src=""stim_listA/touch2.gif""style=""height:400px;""></stim_listA>",,html-keyboard-response,259,3252179,0.0-17.0-1.8,73761,List1A,white,woman,,,,null,,,,
null,are touching each other,,html-keyboard-response,260,3254187,0.0-17.0-2.8,73761,List1A,white,woman,,,,null,,,,
31240,,,survey-text,261,3285438,0.0-17.0-3.8,73761,List1A,white,woman,,,,,"{""Q0"":""Beth and fred are touching each other""}","<img src=""stim_listA/touch2.gif""style=""height:400px;""></stim_listA>",are touching each other,
null,"<div style=""font-size:60px;"">+</div>",,html-keyboard-response,262,3285944,0.0-17.0-0.9,73761,List1A,white,woman,,,,null,,,,
null,"<img src=""stim_listA/flirt2.gif""style=""height:400px;""></stim_listA>",,html-keyboard-response,263,3287971,0.0-17.0-1.9,73761,List1A,white,woman,,,,null,,,,
null,are flirting with each other,,html-keyboard-response,264,3289980,0.0-17.0-2.9,73761,List1A,white,woman,,,,null,,,,
27311,,,survey-text,265,3317353,0.0-17.0-3.9,73761,List1A,white,woman,,,,,"{""Q0"":""Mike and Beth are flirting with each other""}","<img src=""stim_listA/flirt2.gif""style=""height:400px;""></stim_listA>",are flirting with each other,
null,"<div style=""font-size:60px;"">+</div>",,html-keyboard-response,266,3317900,0.0-17.0-0.10,73761,List1A,white,woman,,,,null,,,,
null,"<img src=""stim_listA/shout6.gif""style=""height:400px;""></stim_listA>",,html-keyboard-response,267,3320286,0.0-17.0-1.10,73761,List1A,white,woman,,,,null,,,,
null,are shouting at each other,,html-keyboard-response,268,3322465,0.0-17.0-2.10,73761,List1A,white,woman,,,,null,,,,
127686,,,survey-text,269,3450446,0.0-17.0-3.10,73761,List1A,white,woman,,,,,"{""Q0"":""Mike and Dave are shouting at each other""}","<img src=""stim_listA/shout6.gif""style=""height:400px;""></stim_listA>",are shouting at each other,
null,"<div style=""font-size:60px;"">+</div>",,html-keyboard-response,270,3450978,0.0-17.0-0.11,73761,List1A,white,woman,,,,null,,,,
null,"<img src=""stim_listA/play1.gif""style=""height:400px;""></stim_listA>",,html-keyboard-response,271,3453030,0.0-17.0-1.11,73761,List1A,white,woman,,,,null,,,,
null,is playing with,,html-keyboard-response,272,3455039,0.0-17.0-2.11,73761,List1A,white,woman,,,,null,,,,
15464,,,survey-text,273,3470533,0.0-17.0-3.11,73761,List1A,white,woman,,,,,"{""Q0"":""Mike is playing with kate""}","<img src=""stim_listA/play1.gif""style=""height:400px;""></stim_listA>",is playing with,
null,"<div style=""font-size:60px;"">+</div>",,html-keyboard-response,274,3471045,0.0-17.0-0.12,73761,List1A,white,woman,,,,null,,,,
null,"<img src=""stim_listA/argue6.gif""style=""height:400px;""></stim_listA>",,html-keyboard-response,275,3473090,0.0-17.0-1.12,73761,List1A,white,woman,,,,null,,,,
null,are arguing with each other,,html-keyboard-response,276,3475101,0.0-17.0-2.12,73761,List1A,white,woman,,,,null,,,,
178468,,,survey-text,277,3653601,0.0-17.0-3.12,73761,List1A,white,woman,,,,,"{""Q0"":""Dave and fred are arguing with each other""}","<img src=""stim_listA/argue6.gif""style=""height:400px;""></stim_listA>",are arguing with each other,
null,"<div style=""font-size:60px;"">+</div>",,html-keyboard-response,278,3654127,0.0-17.0-0.13,73761,List1A,white,woman,,,,null,,,,
null,"<img src=""stim_listA/fight7.gif""style=""height:400px;""></stim_listA>",,html-keyboard-response,279,3656159,0.0-17.0-1.13,73761,List1A,white,woman,,,,null,,,,
null,is fighting,,html-keyboard-response,280,3658166,0.0-17.0-2.13,73761,List1A,white,woman,,,,null,,,,
19396,,,survey-text,281,3677575,0.0-17.0-3.13,73761,List1A,white,woman,,,,,"{""Q0"":""Jane is fighting with kate""}","<img src=""stim_listA/fight7.gif""style=""height:400px;""></stim_listA>",is fighting,
null,"<div style=""font-size:60px;"">+</div>",,html-keyboard-response,282,3678081,0.0-17.0-0.14,73761,List1A,white,woman,,,,null,,,,
null,"<img src=""stim_listA/dance4.gif""style=""height:400px;""></stim_listA>",,html-keyboard-response,283,3680091,0.0-17.0-1.14,73761,List1A,white,woman,,,,null,,,,
null,are dancing with each other,,html-keyboard-response,284,3682097,0.0-17.0-2.14,73761,List1A,white,woman,,,,null,,,,
16634,,,survey-text,285,3698739,0.0-17.0-3.14,73761,List1A,white,woman,,,,,"{""Q0"":""Ruth and Dave are dancing with each other""}","<img src=""stim_listA/dance4.gif""style=""height:400px;""></stim_listA>",are dancing with each other,
null,"<div style=""font-size:60px;"">+</div>",,html-keyboard-response,286,3699246,0.0-17.0-0.15,73761,List1A,white,woman,,,,null,,,,
null,"<img src=""stim_listA/kiss7.gif""style=""height:400px;""></stim_listA>",,html-keyboard-response,287,3701259,0.0-17.0-1.15,73761,List1A,white,woman,,,,null,,,,
null,is kissing,,html-keyboard-response,288,3703267,0.0-17.0-2.15,73761,List1A,white,woman,,,,null,,,,
15524,,,survey-text,289,3718800,0.0-17.0-3.15,73761,List1A,white,woman,,,,,"{""Q0"":""Ruth is kissing beth""}","<img src=""stim_listA/kiss7.gif""style=""height:400px;""></stim_listA>",is kissing,
null,"<div style=""font-size:60px;"">+</div>",,html-keyboard-response,290,3719306,0.0-17.0-0.16,73761,List1A,white,woman,,,,null,,,,
null,"<img src=""stim_listA/kiss8.gif""style=""height:400px;""></stim_listA>",,html-keyboard-response,291,3721319,0.0-17.0-1.16,73761,List1A,white,woman,,,,null,,,,
null,are kissing each other,,html-keyboard-response,292,3723329,0.0-17.0-2.16,73761,List1A,white,woman,,,,null,,,,
69564,,,survey-text,293,3792906,0.0-17.0-3.16,73761,List1A,white,woman,,,,,"{""Q0"":""Jane and Kate are kissing each other""}","<img src=""stim_listA/kiss8.gif""style=""height:400px;""></stim_listA>",are kissing each other,
null,"<div style=""font-size:60px;"">+</div>",,html-keyboard-response,294,3793417,0.0-17.0-0.17,73761,List1A,white,woman,,,,null,,,,
null,"<img src=""stim_listA/shout3.gif""style=""height:400px;""></stim_listA>",,html-keyboard-response,295,3795443,0.0-17.0-1.17,73761,List1A,white,woman,,,,null,,,,
null,is shouting at,,html-keyboard-response,296,3797449,0.0-17.0-2.17,73761,List1A,white,woman,,,,null,,,,
127965,,,survey-text,297,3925679,0.0-17.0-3.17,73761,List1A,white,woman,,,,,"{""Q0"":""Luke is shouting at ruth""}","<img src=""stim_listA/shout3.gif""style=""height:400px;""></stim_listA>",is shouting at,
null,"<div style=""font-size:60px;"">+</div>",,html-keyboard-response,298,3926530,0.0-17.0-0.18,73761,List1A,white,woman,,,,null,,,,
null,"<img src=""stim_listA/play8.gif""style=""height:400px;""></stim_listA>",,html-keyboard-response,299,3929171,0.0-17.0-1.18,73761,List1A,white,woman,,,,null,,,,
null,are playing with each other,,html-keyboard-response,300,3931591,0.0-17.0-2.18,73761,List1A,white,woman,,,,null,,,,
75670,,,survey-text,301,4007488,0.0-17.0-3.18,73761,List1A,white,woman,,,,,"{""Q0"":""Beth and Ruth are playing with each other""}","<img src=""stim_listA/play8.gif""style=""height:400px;""></stim_listA>",are playing with each other,
null,"<div style=""font-size:60px;"">+</div>",,html-keyboard-response,302,4008030,0.0-17.0-0.19,73761,List1A,white,woman,,,,null,,,,
null,"<img src=""stim_listA/play3.gif""style=""height:400px;""></stim_listA>",,html-keyboard-response,303,4010083,0.0-17.0-1.19,73761,List1A,white,woman,,,,null,,,,
null,is playing with,,html-keyboard-response,304,4012092,0.0-17.0-2.19,73761,List1A,white,woman,,,,null,,,,
14465,,,survey-text,305,4026588,0.0-17.0-3.19,73761,List1A,white,woman,,,,,"{""Q0"":""Dave is playing with Jane""}","<img src=""stim_listA/play3.gif""style=""height:400px;""></stim_listA>",is playing with,
48616,"<img src='img/portrait_matrix_list1.jpg' style='width:900px;height:500px;''></img><p>If you have memorised all the portraits and names and are ready to start, press Continue.</p><p><strong>Please note: Your memory of these faces will be tested 4 times during this experiment.</strong></p>",0,html-button-response,306,4075283,0.0-18.0-0.0,73761,List1A,white,woman,,,,,,,,
2592,"<img src=""portrait/BW2.jpg""style=""height:400px;""></img>",2,html-button-response,307,4078920,0.0-18.0-1.0,73761,List1A,white,woman,,TRUE,2,,,,,
null,CORRECT,,html-keyboard-response,308,4080667,0.0-18.0-2.0-0.0,73761,List1A,white,woman,,,,null,,,,
3722,"<img src=""portrait/BW1.jpg""style=""height:400px;""></img>",0,html-button-response,309,4084437,0.0-18.0-4.0,73761,List1A,white,woman,,TRUE,0,,,,,
null,CORRECT,,html-keyboard-response,310,4085954,0.0-18.0-5.0-0.0,73761,List1A,white,woman,,,,null,,,,
2430,"<img src=""portrait/WM1.jpg""style=""height:400px;""></img>",6,html-button-response,311,4088413,0.0-18.0-7.0,73761,List1A,white,woman,,TRUE,6,,,,,
null,CORRECT,,html-keyboard-response,312,4089922,0.0-18.0-8.0-0.0,73761,List1A,white,woman,,,,null,,,,
1726,"<img src=""portrait/WW2.jpg""style=""height:400px;""></img>",3,html-button-response,313,4091667,0.0-18.0-10.0,73761,List1A,white,woman,,TRUE,3,,,,,
null,CORRECT,,html-keyboard-response,314,4093178,0.0-18.0-11.0-0.0,73761,List1A,white,woman,,,,null,,,,
2970,"<img src=""portrait/BM2.jpg""style=""height:400px;""></img>",5,html-button-response,315,4096165,0.0-18.0-13.0,73761,List1A,white,woman,,TRUE,5,,,,,
null,CORRECT,,html-keyboard-response,316,4097676,0.0-18.0-14.0-0.0,73761,List1A,white,woman,,,,null,,,,
1924,"<img src=""portrait/WW1.jpg""style=""height:400px;""></img>",1,html-button-response,317,4099613,0.0-18.0-16.0,73761,List1A,white,woman,,TRUE,1,,,,,
null,CORRECT,,html-keyboard-response,318,4101124,0.0-18.0-17.0-0.0,73761,List1A,white,woman,,,,null,,,,
1664,"<img src=""portrait/BM1.jpg""style=""height:400px;""></img>",4,html-button-response,319,4102804,0.0-18.0-19.0,73761,List1A,white,woman,,TRUE,4,,,,,
null,CORRECT,,html-keyboard-response,320,4104313,0.0-18.0-20.0-0.0,73761,List1A,white,woman,,,,null,,,,
1343,"<img src=""portrait/WM2.jpg""style=""height:400px;""></img>",7,html-button-response,321,4105675,0.0-18.0-22.0,73761,List1A,white,woman,,TRUE,7,,,,,
null,CORRECT,,html-keyboard-response,322,4107186,0.0-18.0-23.0-0.0,73761,List1A,white,woman,,,,null,,,,
1792,<p>You got 8 out of 8 right first time. Press Continue.</p>,0,html-button-response,323,4109068,0.0-18.0-25.0,73761,List1A,white,woman,,,,,,,,
null,"<div style=""font-size:60px;"">+</div>",,html-keyboard-response,324,4110590,0.0-19.0-0.0,73761,List1A,white,woman,,,,null,,,,
null,"<img src=""stim_listA/talk6.gif""style=""height:400px;""></stim_listA>",,html-keyboard-response,325,4112614,0.0-19.0-1.0,73761,List1A,white,woman,,,,null,,,,
null,are talking to each other,,html-keyboard-response,326,4114622,0.0-19.0-2.0,73761,List1A,white,woman,,,,null,,,,
31014,,,survey-text,327,4145675,0.0-19.0-3.0,73761,List1A,white,woman,,,,,"{""Q0"":""Mike and Luke are talking to each other""}","<img src=""stim_listA/talk6.gif""style=""height:400px;""></stim_listA>",are talking to each other,
null,"<div style=""font-size:60px;"">+</div>",,html-keyboard-response,328,4146199,0.0-19.0-0.1,73761,List1A,white,woman,,,,null,,,,
null,"<img src=""stim_listA/talk3.gif""style=""height:400px;""></stim_listA>",,html-keyboard-response,329,4148245,0.0-19.0-1.1,73761,List1A,white,woman,,,,null,,,,
null,is talking to,,html-keyboard-response,330,4150250,0.0-19.0-2.1,73761,List1A,white,woman,,,,null,,,,
28001,,,survey-text,331,4178276,0.0-19.0-3.1,73761,List1A,white,woman,,,,,"{""Q0"":""Jane is talking to Luke""}","<img src=""stim_listA/talk3.gif""style=""height:400px;""></stim_listA>",is talking to,
null,"<div style=""font-size:60px;"">+</div>",,html-keyboard-response,332,4178786,0.0-19.0-0.2,73761,List1A,white,woman,,,,null,,,,
null,"<img src=""stim_listA/flirt6.gif""style=""height:400px;""></stim_listA>",,html-keyboard-response,333,4180818,0.0-19.0-1.2,73761,List1A,white,woman,,,,null,,,,
null,are flirting with each other,,html-keyboard-response,334,4182823,0.0-19.0-2.2,73761,List1A,white,woman,,,,null,,,,
21068,,,survey-text,335,4203904,0.0-19.0-3.2,73761,List1A,white,woman,,,,,"{""Q0"":""Luke and Mike are flirting with each other""}","<img src=""stim_listA/flirt6.gif""style=""height:400px;""></stim_listA>",are flirting with each other,
null,"<div style=""font-size:60px;"">+</div>",,html-keyboard-response,336,4204493,0.0-19.0-0.3,73761,List1A,white,woman,,,,null,,,,
null,"<img src=""stim_listA/marry3.gif""style=""height:400px;""></stim_listA>",,html-keyboard-response,337,4206651,0.0-19.0-1.3,73761,List1A,white,woman,,,,null,,,,
null,is marrying,,html-keyboard-response,338,4208668,0.0-19.0-2.3,73761,List1A,white,woman,,,,null,,,,
15345,,,survey-text,339,4224072,0.0-19.0-3.3,73761,List1A,white,woman,,,,,"{""Q0"":""Dave is marrying ruth""}","<img src=""stim_listA/marry3.gif""style=""height:400px;""></stim_listA>",is marrying,
null,"<div style=""font-size:60px;"">+</div>",,html-keyboard-response,340,4224659,0.0-19.0-0.4,73761,List1A,white,woman,,,,null,,,,
null,"<img src=""stim_listA/talk2.gif""style=""height:400px;""></stim_listA>",,html-keyboard-response,341,4226729,0.0-19.0-1.4,73761,List1A,white,woman,,,,null,,,,
null,are talking to each other,,html-keyboard-response,342,4228735,0.0-19.0-2.4,73761,List1A,white,woman,,,,null,,,,
59772,,,survey-text,343,4288529,0.0-19.0-3.4,73761,List1A,white,woman,,,,,"{""Q0"":""Mike and Beth are talking to each other""}","<img src=""stim_listA/talk2.gif""style=""height:400px;""></stim_listA>",are talking to each other,
null,"<div style=""font-size:60px;"">+</div>",,html-keyboard-response,344,4289043,0.0-19.0-0.5,73761,List1A,white,woman,,,,null,,,,
null,"<img src=""stim_listA/kiss2.gif""style=""height:400px;""></stim_listA>",,html-keyboard-response,345,4291060,0.0-19.0-1.5,73761,List1A,white,woman,,,,null,,,,
null,are kissing each other,,html-keyboard-response,346,4293065,0.0-19.0-2.5,73761,List1A,white,woman,,,,null,,,,
26791,,,survey-text,347,4319864,0.0-19.0-3.5,73761,List1A,white,woman,,,,,"{""Q0"":""Mike and Kate are kissing each other""}","<img src=""stim_listA/kiss2.gif""style=""height:400px;""></stim_listA>",are kissing each other,
null,"<div style=""font-size:60px;"">+</div>",,html-keyboard-response,348,4320378,0.0-19.0-0.6,73761,List1A,white,woman,,,,null,,,,
null,"<img src=""stim_listA/marry8.gif""style=""height:400px;""></stim_listA>",,html-keyboard-response,349,4322401,0.0-19.0-1.6,73761,List1A,white,woman,,,,null,,,,
null,are marrying each other,,html-keyboard-response,350,4324407,0.0-19.0-2.6,73761,List1A,white,woman,,,,null,,,,
123004,,,survey-text,351,4447907,0.0-19.0-3.6,73761,List1A,white,woman,,,,,"{""Q0"":""Beth and Jane are marrying each other""}","<img src=""stim_listA/marry8.gif""style=""height:400px;""></stim_listA>",are marrying each other,
null,"<div style=""font-size:60px;"">+</div>",,html-keyboard-response,352,4449798,0.0-19.0-0.7,73761,List1A,white,woman,,,,null,,,,
null,"<img src=""stim_listA/fight4.gif""style=""height:400px;""></stim_listA>",,html-keyboard-response,353,4452321,0.0-19.0-1.7,73761,List1A,white,woman,,,,null,,,,
null,are fighting each other,,html-keyboard-response,354,4454366,0.0-19.0-2.7,73761,List1A,white,woman,,,,null,,,,
137470,,,survey-text,355,4592306,0.0-19.0-3.7,73761,List1A,white,woman,,,,,"{""Q0"":""Ruth and Luke are fighting each other""}","<img src=""stim_listA/fight4.gif""style=""height:400px;""></stim_listA>",are fighting each other,
null,"<div style=""font-size:60px;"">+</div>",,html-keyboard-response,356,4592901,0.0-19.0-0.8,73761,List1A,white,woman,,,,null,,,,
null,"<img src=""stim_listA/talk8.gif""style=""height:400px;""></stim_listA>",,html-keyboard-response,357,4595326,0.0-19.0-1.8,73761,List1A,white,woman,,,,null,,,,
null,are talking to each other,,html-keyboard-response,358,4597418,0.0-19.0-2.8,73761,List1A,white,woman,,,,null,,,,
36352,,,survey-text,359,4634262,0.0-19.0-3.8,73761,List1A,white,woman,,,,,"{""Q0"":""Ruth and kate are talking to each other""}","<img src=""stim_listA/talk8.gif""style=""height:400px;""></stim_listA>",are talking to each other,
null,"<div style=""font-size:60px;"">+</div>",,html-keyboard-response,360,4634787,0.0-19.0-0.9,73761,List1A,white,woman,,,,null,,,,
null,"<img src=""stim_listA/dance5.gif""style=""height:400px;""></stim_listA>",,html-keyboard-response,361,4636848,0.0-19.0-1.9,73761,List1A,white,woman,,,,null,,,,
null,is dancing with,,html-keyboard-response,362,4638859,0.0-19.0-2.9,73761,List1A,white,woman,,,,null,,,,
15314,,,survey-text,363,4654186,0.0-19.0-3.9,73761,List1A,white,woman,,,,,"{""Q0"":""Dave is dancing with Fred""}","<img src=""stim_listA/dance5.gif""style=""height:400px;""></stim_listA>",is dancing with,
null,"<div style=""font-size:60px;"">+</div>",,html-keyboard-response,364,4654697,0.0-19.0-0.10,73761,List1A,white,woman,,,,null,,,,
null,"<img src=""stim_listA/flirt4.gif""style=""height:400px;""></stim_listA>",,html-keyboard-response,365,4656837,0.0-19.0-1.10,73761,List1A,white,woman,,,,null,,,,
null,are flirting with each other,,html-keyboard-response,366,4658903,0.0-19.0-2.10,73761,List1A,white,woman,,,,null,,,,
37651,,,survey-text,367,4696634,0.0-19.0-3.10,73761,List1A,white,woman,,,,,"{""Q0"":""Dave and Ruth are flirting with each other""}","<img src=""stim_listA/flirt4.gif""style=""height:400px;""></stim_listA>",are flirting with each other,
null,"<div style=""font-size:60px;"">+</div>",,html-keyboard-response,368,4697166,0.0-19.0-0.11,73761,List1A,white,woman,,,,null,,,,
null,"<img src=""stim_listA/kiss3.gif""style=""height:400px;""></stim_listA>",,html-keyboard-response,369,4699438,0.0-19.0-1.11,73761,List1A,white,woman,,,,null,,,,
null,is kissing,,html-keyboard-response,370,4701442,0.0-19.0-2.11,73761,List1A,white,woman,,,,null,,,,
17005,,,survey-text,371,4718501,0.0-19.0-3.11,73761,List1A,white,woman,,,,,"{""Q0"":""Ruth is kissing Luke""}","<img src=""stim_listA/kiss3.gif""style=""height:400px;""></stim_listA>",is kissing,
null,"<div style=""font-size:60px;"">+</div>",,html-keyboard-response,372,4719044,0.0-19.0-0.12,73761,List1A,white,woman,,,,null,,,,
null,"<img src=""stim_listA/fight8.gif""style=""height:400px;""></stim_listA>",,html-keyboard-response,373,4721185,0.0-19.0-1.12,73761,List1A,white,woman,,,,null,,,,
null,are fighting each other,,html-keyboard-response,374,4723217,0.0-19.0-2.12,73761,List1A,white,woman,,,,null,,,,
31138,,,survey-text,375,4754620,0.0-19.0-3.12,73761,List1A,white,woman,,,,,"{""Q0"":""Beth and Ruth are fighting each other""}","<img src=""stim_listA/fight8.gif""style=""height:400px;""></stim_listA>",are fighting each other,
null,"<div style=""font-size:60px;"">+</div>",,html-keyboard-response,376,4755276,0.0-19.0-0.13,73761,List1A,white,woman,,,,null,,,,
null,"<img src=""stim_listA/play2.gif""style=""height:400px;""></stim_listA>",,html-keyboard-response,377,4757444,0.0-19.0-1.13,73761,List1A,white,woman,,,,null,,,,
null,are playing with each other,,html-keyboard-response,378,4759573,0.0-19.0-2.13,73761,List1A,white,woman,,,,null,,,,
19549,,,survey-text,379,4779194,0.0-19.0-3.13,73761,List1A,white,woman,,,,,"{""Q0"":""Beth and fred are playing with each other""}","<img src=""stim_listA/play2.gif""style=""height:400px;""></stim_listA>",are playing with each other,
null,"<div style=""font-size:60px;"">+</div>",,html-keyboard-response,380,4779708,0.0-19.0-0.14,73761,List1A,white,woman,,,,null,,,,
null,"<img src=""stim_listA/dance2.gif""style=""height:400px;""></stim_listA>",,html-keyboard-response,381,4781772,0.0-19.0-1.14,73761,List1A,white,woman,,,,null,,,,
null,are dancing with each other,,html-keyboard-response,382,4783777,0.0-19.0-2.14,73761,List1A,white,woman,,,,null,,,,
182253,,,survey-text,383,4966063,0.0-19.0-3.14,73761,List1A,white,woman,,,,,"{""Q0"":""Beth and Mike are dancing with each other""}","<img src=""stim_listA/dance2.gif""style=""height:400px;""></stim_listA>",are dancing with each other,
null,"<div style=""font-size:60px;"">+</div>",,html-keyboard-response,384,4966606,0.0-19.0-0.15,73761,List1A,white,woman,,,,null,,,,
null,"<img src=""stim_listA/flirt5.gif""style=""height:400px;""></stim_listA>",,html-keyboard-response,385,4968654,0.0-19.0-1.15,73761,List1A,white,woman,,,,null,,,,
null,is flirting with,,html-keyboard-response,386,4970664,0.0-19.0-2.15,73761,List1A,white,woman,,,,null,,,,
29440,,,survey-text,387,5000123,0.0-19.0-3.15,73761,List1A,white,woman,,,,,"{""Q0"":""Dave is flirting with fred""}","<img src=""stim_listA/flirt5.gif""style=""height:400px;""></stim_listA>",is flirting with,
null,"<div style=""font-size:60px;"">+</div>",,html-keyboard-response,388,5000635,0.0-19.0-0.16,73761,List1A,white,woman,,,,null,,,,
null,"<img src=""stim_listA/kiss6.gif""style=""height:400px;""></stim_listA>",,html-keyboard-response,389,5002649,0.0-19.0-1.16,73761,List1A,white,woman,,,,null,,,,
null,are kissing each other,,html-keyboard-response,390,5004655,0.0-19.0-2.16,73761,List1A,white,woman,,,,null,,,,
48240,,,survey-text,391,5052920,0.0-19.0-3.16,73761,List1A,white,woman,,,,,"{""Q0"":""Dave and Mike are kissing each other""}","<img src=""stim_listA/kiss6.gif""style=""height:400px;""></stim_listA>",are kissing each other,
null,"<div style=""font-size:60px;"">+</div>",,html-keyboard-response,392,5053478,0.0-19.0-0.17,73761,List1A,white,woman,,,,null,,,,
null,"<img src=""stim_listA/fight1.gif""style=""height:400px;""></stim_listA>",,html-keyboard-response,393,5055638,0.0-19.0-1.17,73761,List1A,white,woman,,,,null,,,,
null,is fighting,,html-keyboard-response,394,5057684,0.0-19.0-2.17,73761,List1A,white,woman,,,,null,,,,
14256,,,survey-text,395,5071973,0.0-19.0-3.17,73761,List1A,white,woman,,,,,"{""Q0"":""Kate is fighting Mike""}","<img src=""stim_listA/fight1.gif""style=""height:400px;""></stim_listA>",is fighting,
null,"<div style=""font-size:60px;"">+</div>",,html-keyboard-response,396,5072487,0.0-19.0-0.18,73761,List1A,white,woman,,,,null,,,,
null,"<img src=""stim_listA/touch1.gif""style=""height:400px;""></stim_listA>",,html-keyboard-response,397,5074521,0.0-19.0-1.18,73761,List1A,white,woman,,,,null,,,,
null,is touching,,html-keyboard-response,398,5076530,0.0-19.0-2.18,73761,List1A,white,woman,,,,null,,,,
23095,,,survey-text,399,5099646,0.0-19.0-3.18,73761,List1A,white,woman,,,,,"{""Q0"":""Mike is touching Kate""}","<img src=""stim_listA/touch1.gif""style=""height:400px;""></stim_listA>",is touching,
null,"<div style=""font-size:60px;"">+</div>",,html-keyboard-response,400,5100169,0.0-19.0-0.19,73761,List1A,white,woman,,,,null,,,,
null,"<img src=""stim_listA/argue4.gif""style=""height:400px;""></stim_listA>",,html-keyboard-response,401,5102187,0.0-19.0-1.19,73761,List1A,white,woman,,,,null,,,,
null,are arguing with each other,,html-keyboard-response,402,5104339,0.0-19.0-2.19,73761,List1A,white,woman,,,,null,,,,
30447,,,survey-text,403,5135006,0.0-19.0-3.19,73761,List1A,white,woman,,,,,"{""Q0"":""Luke and Jane are arguing with each other""}","<img src=""stim_listA/argue4.gif""style=""height:400px;""></stim_listA>",are arguing with each other,
16183,<p>Thank you for completing that task.</p><p>The final part of this session is a short questionnaire.</p><p>Press Continue.</p>,0,html-button-response,404,5151313,0.0-20.0,73761,List1A,white,woman,,,,,,,,
32520,,,survey-text,405,5184896,0.0-21.0,73761,List1A,white,woman,,,,,"{""Q0"":""30"",""Q1"":""English"",""Q2"":""English"",""Q3"":""England"",""Q4"":""White British"",""Q5"":""Female""}",,,demographics
6730,,,survey-likert,406,5191683,0.0-22.0,73761,List1A,white,woman,,,,,"{""Q0"":4}",,,likert_ESS
12192,,,survey-likert,407,5203897,0.0-23.0,73761,List1A,white,woman,,,,,"{""Q0"":5}",,,likert_NSSAL_Q1
2579,,,survey-likert,408,5206494,0.0-24.0,73761,List1A,white,woman,,,,,"{""Q0"":5}",,,likert_NSSAL_Q2
4176,,,survey-likert,409,5210685,0.0-25.0,73761,List1A,white,woman,,,,,"{""Q0"":4}",,,likert_CGRS_Q1
7388,,,survey-likert,410,5218091,0.0-26.0,73761,List1A,white,woman,,,,,"{""Q0"":2}",,,likert_CGRS_Q2
3487,,,survey-likert,411,5221594,0.0-27.0,73761,List1A,white,woman,,,,,"{""Q0"":2}",,,likert_CGRS_Q3
4101,,,survey-text,412,5225711,0.0-28.0,73761,List1A,white,woman,,,,,"{""Q0"":""ccc""}",,,worker_id
30155,,,external-html,413,5256611,0.0-29.0,73761,List1A,white,woman,debrief.html,,,,,,,
