rt,stimulus,button_pressed,trial_type,trial_index,time_elapsed,internal_node_id,subject,list,ppt_race,ppt_gender,url,first_guess,correct,key_press,responses,image_type,phrase_type,test_part
2989,Welcome to the experiment. Press Continue to begin.,0,html-button-response,0,3094,0.0-0.0,74552,List1B,black,man,,,,,,,,
17966,,,external-html,1,22915,0.0-1.0,74552,List1B,black,man,consent.html,,,,,,,
12735,"<p>On the next page, you will see portraits of 8 people and their names.</p><p>Your first task is to take a few minutes to memorise the names of these people.</p><p>You will have to recall their names during the rest of the experiment, so it is</p><p>essential that you try to memorise these people and their names as best as you can.</p><br><p><strong>You will then be tested on your memory of these names and portraits.</strong></p><br><p>The experiment will start after you have completed this memory test.</p><br><p>Ready?</p>",0,html-button-response,2,35659,0.0-2.0,74552,List1B,black,man,,,,,,,,
57894,"<img src='img/portrait_matrix_list1.jpg' style='width:900px;height:500px;''></img><p>If you have memorised all the portraits and names and are ready to start, press Continue.</p><p><strong>Please note: Your memory of these faces will be tested 4 times during this experiment.</strong></p>",0,html-button-response,3,94565,0.0-3.0-0.0,74552,List1B,black,man,,,,,,,,
6800,"<img src=""portrait/BM1.jpg""style=""height:400px;""></img>",4,html-button-response,4,102386,0.0-3.0-1.0,74552,List1B,black,man,,TRUE,4,,,,,
null,CORRECT,,html-keyboard-response,5,103927,0.0-3.0-2.0-0.0,74552,List1B,black,man,,,,null,,,,
10060,"<img src=""portrait/BW2.jpg""style=""height:400px;""></img>",2,html-button-response,6,114001,0.0-3.0-4.0,74552,List1B,black,man,,TRUE,2,,,,,
null,CORRECT,,html-keyboard-response,7,115542,0.0-3.0-5.0-0.0,74552,List1B,black,man,,,,null,,,,
3637,"<img src=""portrait/WM2.jpg""style=""height:400px;""></img>",7,html-button-response,8,119187,0.0-3.0-7.0,74552,List1B,black,man,,TRUE,7,,,,,
null,CORRECT,,html-keyboard-response,9,120698,0.0-3.0-8.0-0.0,74552,List1B,black,man,,,,null,,,,
10497,"<img src=""portrait/BM2.jpg""style=""height:400px;""></img>",5,html-button-response,10,131204,0.0-3.0-10.0,74552,List1B,black,man,,TRUE,5,,,,,
null,CORRECT,,html-keyboard-response,11,132732,0.0-3.0-11.0-0.0,74552,List1B,black,man,,,,null,,,,
5370,"<img src=""portrait/WM1.jpg""style=""height:400px;""></img>",6,html-button-response,12,138109,0.0-3.0-13.0,74552,List1B,black,man,,TRUE,6,,,,,
null,CORRECT,,html-keyboard-response,13,139618,0.0-3.0-14.0-0.0,74552,List1B,black,man,,,,null,,,,
3913,"<img src=""portrait/BW1.jpg""style=""height:400px;""></img>",0,html-button-response,14,143537,0.0-3.0-16.0,74552,List1B,black,man,,TRUE,0,,,,,
null,CORRECT,,html-keyboard-response,15,145060,0.0-3.0-17.0-0.0,74552,List1B,black,man,,,,null,,,,
3385,"<img src=""portrait/WW2.jpg""style=""height:400px;""></img>",3,html-button-response,16,148451,0.0-3.0-19.0,74552,List1B,black,man,,TRUE,3,,,,,
null,CORRECT,,html-keyboard-response,17,149979,0.0-3.0-20.0-0.0,74552,List1B,black,man,,,,null,,,,
75068,"<img src=""portrait/WW1.jpg""style=""height:400px;""></img>",1,html-button-response,18,225055,0.0-3.0-22.0,74552,List1B,black,man,,TRUE,1,,,,,
null,CORRECT,,html-keyboard-response,19,226585,0.0-3.0-23.0-0.0,74552,List1B,black,man,,,,null,,,,
4119,<p>You got 8 out of 8 right first time. Press Continue.</p>,0,html-button-response,20,230780,0.0-3.0-25.0,74552,List1B,black,man,,,,,,,,
18888,"<p>In this experiment, you will view photographs of the people from the memory game interacting.</p><p>By using the <strong>exact</strong> phrase given <i>after</i> the photograph appears and recalling the correct names of the people in the photographs, form a sentence describing the interaction. You do not need to capitalise names.</p><p>Type your answer in the space provided. Please complete every sentence before moving onto the next trial.</p><p>You will only have a few seconds to memorise each given photograph and phrase before you can respond, so try your best to focus.</p><p>An example is given below. Press 'Continue' when you are ready.</p><img src='img/speaking_example.jpg' style='width:800px;height:460px;''></img>",0,html-button-response,21,250767,0.0-4.0,74552,List1B,black,man,,,,,,,,
2727,"<p>Before the experiment starts, you will watch two example trials. Press 'Continue'.</p>",0,html-button-response,22,254502,0.0-5.0,74552,List1B,black,man,,,,,,,,
null,<img src='img/meet_eg.gif' style='height:400px;''></img>,,html-keyboard-response,23,257518,0.0-6.0,74552,List1B,black,man,,,,null,,,,
null,<p>is meeting</p>,,html-keyboard-response,24,259524,0.0-7.0,74552,List1B,black,man,,,,null,,,,
3451,<p><b>Answer:</b> kate is meeting beth</p>,0,html-button-response,25,262981,0.0-8.0,74552,List1B,black,man,,,,,,,,
null,<img src='img/look_eg.gif' style='height:400px;''></img>,,html-keyboard-response,26,265999,0.0-9.0,74552,List1B,black,man,,,,null,,,,
null,<p>are looking at each other</p>,,html-keyboard-response,27,268095,0.0-10.0,74552,List1B,black,man,,,,null,,,,
12289,<p><b>Answer:</b> luke and dave are looking at each other</p>,0,html-button-response,28,280404,0.0-11.0,74552,List1B,black,man,,,,,,,,
9561,"<p>Ready to start the experiment?</p><br><p><strong>Remember to describe the picture using a full sentence,</strong></p><p><strong>that combines the names of the people with the <i>exact</i> phrase given.</strong></p><p><strong>To receive full payment you must do this correctly.</strong></p><p><strong> You do not need to capitalise names or use punctuation.</strong></p><br><p>Press 'Continue' to begin.</p>",0,html-button-response,29,290989,0.0-12.0,74552,List1B,black,man,,,,,,,,
null,"<div style=""font-size:60px;"">+</div>",,html-keyboard-response,30,293015,0.0-13.0-0.0,74552,List1B,black,man,,,,null,,,,
null,"<img src=""stim_listB/talk6.gif""style=""height:400px;""></stim_listB>",,html-keyboard-response,31,295515,0.0-13.0-1.0,74552,List1B,black,man,,,,null,,,,
null,are talking to each other,,html-keyboard-response,32,297519,0.0-13.0-2.0,74552,List1B,black,man,,,,null,,,,
5747,,,survey-text,33,303322,0.0-13.0-3.0,74552,List1B,black,man,,,,,"{""Q0"":""""}","<img src=""stim_listB/talk6.gif""style=""height:400px;""></stim_listB>",are talking to each other,
null,"<div style=""font-size:60px;"">+</div>",,html-keyboard-response,34,303834,0.0-13.0-0.1,74552,List1B,black,man,,,,null,,,,
null,"<img src=""stim_listB/touch2.gif""style=""height:400px;""></stim_listB>",,html-keyboard-response,35,305878,0.0-13.0-1.1,74552,List1B,black,man,,,,null,,,,
null,are touching each other,,html-keyboard-response,36,307899,0.0-13.0-2.1,74552,List1B,black,man,,,,null,,,,
9737,,,survey-text,37,317643,0.0-13.0-3.1,74552,List1B,black,man,,,,,"{""Q0"":""""}","<img src=""stim_listB/touch2.gif""style=""height:400px;""></stim_listB>",are touching each other,
null,"<div style=""font-size:60px;"">+</div>",,html-keyboard-response,38,318149,0.0-13.0-0.2,74552,List1B,black,man,,,,null,,,,
null,"<img src=""stim_listB/dance2.gif""style=""height:400px;""></stim_listB>",,html-keyboard-response,39,320156,0.0-13.0-1.2,74552,List1B,black,man,,,,null,,,,
null,are dancing with each other,,html-keyboard-response,40,322160,0.0-13.0-2.2,74552,List1B,black,man,,,,null,,,,
46132,,,survey-text,41,368297,0.0-13.0-3.2,74552,List1B,black,man,,,,,"{""Q0"":""kate and mike are dancing wuth eachother""}","<img src=""stim_listB/dance2.gif""style=""height:400px;""></stim_listB>",are dancing with each other,
null,"<div style=""font-size:60px;"">+</div>",,html-keyboard-response,42,368815,0.0-13.0-0.3,74552,List1B,black,man,,,,null,,,,
null,"<img src=""stim_listB/flirt5.gif""style=""height:400px;""></stim_listB>",,html-keyboard-response,43,370823,0.0-13.0-1.3,74552,List1B,black,man,,,,null,,,,
null,is flirting with,,html-keyboard-response,44,372826,0.0-13.0-2.3,74552,List1B,black,man,,,,null,,,,
20184,,,survey-text,45,393015,0.0-13.0-3.3,74552,List1B,black,man,,,,,"{""Q0"":""dave is flirting with fred""}","<img src=""stim_listB/flirt5.gif""style=""height:400px;""></stim_listB>",is flirting with,
null,"<div style=""font-size:60px;"">+</div>",,html-keyboard-response,46,393521,0.0-13.0-0.4,74552,List1B,black,man,,,,null,,,,
null,"<img src=""stim_listB/marry2.gif""style=""height:400px;""></stim_listB>",,html-keyboard-response,47,395932,0.0-13.0-1.4,74552,List1B,black,man,,,,null,,,,
null,are marrying each other,,html-keyboard-response,48,398010,0.0-13.0-2.4,74552,List1B,black,man,,,,null,,,,
27800,,,survey-text,49,425815,0.0-13.0-3.4,74552,List1B,black,man,,,,,"{""Q0"":""fred and kate are marrying each other""}","<img src=""stim_listB/marry2.gif""style=""height:400px;""></stim_listB>",are marrying each other,
null,"<div style=""font-size:60px;"">+</div>",,html-keyboard-response,50,426334,0.0-13.0-0.5,74552,List1B,black,man,,,,null,,,,
null,"<img src=""stim_listB/shout1.gif""style=""height:400px;""></stim_listB>",,html-keyboard-response,51,428354,0.0-13.0-1.5,74552,List1B,black,man,,,,null,,,,
null,is shouting at,,html-keyboard-response,52,430359,0.0-13.0-2.5,74552,List1B,black,man,,,,null,,,,
17520,,,survey-text,53,447884,0.0-13.0-3.5,74552,List1B,black,man,,,,,"{""Q0"":""fred is shouting at beth""}","<img src=""stim_listB/shout1.gif""style=""height:400px;""></stim_listB>",is shouting at,
null,"<div style=""font-size:60px;"">+</div>",,html-keyboard-response,54,448404,0.0-13.0-0.6,74552,List1B,black,man,,,,null,,,,
null,"<img src=""stim_listB/shout2.gif""style=""height:400px;""></stim_listB>",,html-keyboard-response,55,450409,0.0-13.0-1.6,74552,List1B,black,man,,,,null,,,,
null,are shouting at each other,,html-keyboard-response,56,452423,0.0-13.0-2.6,74552,List1B,black,man,,,,null,,,,
23522,,,survey-text,57,475950,0.0-13.0-3.6,74552,List1B,black,man,,,,,"{""Q0"":""kate and mike are shouting at each other""}","<img src=""stim_listB/shout2.gif""style=""height:400px;""></stim_listB>",are shouting at each other,
null,"<div style=""font-size:60px;"">+</div>",,html-keyboard-response,58,476479,0.0-13.0-0.7,74552,List1B,black,man,,,,null,,,,
null,"<img src=""stim_listB/talk7.gif""style=""height:400px;""></stim_listB>",,html-keyboard-response,59,478503,0.0-13.0-1.7,74552,List1B,black,man,,,,null,,,,
null,is talking to,,html-keyboard-response,60,480537,0.0-13.0-2.7,74552,List1B,black,man,,,,null,,,,
24873,,,survey-text,61,505415,0.0-13.0-3.7,74552,List1B,black,man,,,,,"{""Q0"":""beth is talking to jane""}","<img src=""stim_listB/talk7.gif""style=""height:400px;""></stim_listB>",is talking to,
null,"<div style=""font-size:60px;"">+</div>",,html-keyboard-response,62,505925,0.0-13.0-0.8,74552,List1B,black,man,,,,null,,,,
null,"<img src=""stim_listB/shout4.gif""style=""height:400px;""></stim_listB>",,html-keyboard-response,63,507985,0.0-13.0-1.8,74552,List1B,black,man,,,,null,,,,
null,are shouting at each other,,html-keyboard-response,64,509992,0.0-13.0-2.8,74552,List1B,black,man,,,,null,,,,
36107,,,survey-text,65,546104,0.0-13.0-3.8,74552,List1B,black,man,,,,,"{""Q0"":""jane and dave are shouting at each other""}","<img src=""stim_listB/shout4.gif""style=""height:400px;""></stim_listB>",are shouting at each other,
null,"<div style=""font-size:60px;"">+</div>",,html-keyboard-response,66,546952,0.0-13.0-0.9,74552,List1B,black,man,,,,null,,,,
null,"<img src=""stim_listB/dance6.gif""style=""height:400px;""></stim_listB>",,html-keyboard-response,67,549036,0.0-13.0-1.9,74552,List1B,black,man,,,,null,,,,
null,are dancing with each other,,html-keyboard-response,68,551597,0.0-13.0-2.9,74552,List1B,black,man,,,,null,,,,
101856,,,survey-text,69,653458,0.0-13.0-3.9,74552,List1B,black,man,,,,,"{""Q0"":""""}","<img src=""stim_listB/dance6.gif""style=""height:400px;""></stim_listB>",are dancing with each other,
null,"<div style=""font-size:60px;"">+</div>",,html-keyboard-response,70,653963,0.0-13.0-0.10,74552,List1B,black,man,,,,null,,,,
null,"<img src=""stim_listB/fight8.gif""style=""height:400px;""></stim_listB>",,html-keyboard-response,71,655969,0.0-13.0-1.10,74552,List1B,black,man,,,,null,,,,
null,are fighting each other,,html-keyboard-response,72,657999,0.0-13.0-2.10,74552,List1B,black,man,,,,null,,,,
18863,,,survey-text,73,676866,0.0-13.0-3.10,74552,List1B,black,man,,,,,"{""Q0"":""beth and ruth are fighting each other""}","<img src=""stim_listB/fight8.gif""style=""height:400px;""></stim_listB>",are fighting each other,
null,"<div style=""font-size:60px;"">+</div>",,html-keyboard-response,74,677371,0.0-13.0-0.11,74552,List1B,black,man,,,,null,,,,
null,"<img src=""stim_listB/touch3.gif""style=""height:400px;""></stim_listB>",,html-keyboard-response,75,679400,0.0-13.0-1.11,74552,List1B,black,man,,,,null,,,,
null,is touching,,html-keyboard-response,76,681418,0.0-13.0-2.11,74552,List1B,black,man,,,,null,,,,
22007,,,survey-text,77,703443,0.0-13.0-3.11,74552,List1B,black,man,,,,,"{""Q0"":""dave is touching jane""}","<img src=""stim_listB/touch3.gif""style=""height:400px;""></stim_listB>",is touching,
null,"<div style=""font-size:60px;"">+</div>",,html-keyboard-response,78,703948,0.0-13.0-0.12,74552,List1B,black,man,,,,null,,,,
null,"<img src=""stim_listB/play7.gif""style=""height:400px;""></stim_listB>",,html-keyboard-response,79,705988,0.0-13.0-1.12,74552,List1B,black,man,,,,null,,,,
null,is playing with,,html-keyboard-response,80,707995,0.0-13.0-2.12,74552,List1B,black,man,,,,null,,,,
22302,,,survey-text,81,730302,0.0-13.0-3.12,74552,List1B,black,man,,,,,"{""Q0"":""kate is playing with jane""}","<img src=""stim_listB/play7.gif""style=""height:400px;""></stim_listB>",is playing with,
null,"<div style=""font-size:60px;"">+</div>",,html-keyboard-response,82,730843,0.0-13.0-0.13,74552,List1B,black,man,,,,null,,,,
null,"<img src=""stim_listB/argue2.gif""style=""height:400px;""></stim_listB>",,html-keyboard-response,83,732866,0.0-13.0-1.13,74552,List1B,black,man,,,,null,,,,
null,are arguing with each other,,html-keyboard-response,84,734873,0.0-13.0-2.13,74552,List1B,black,man,,,,null,,,,
21144,,,survey-text,85,756021,0.0-13.0-3.13,74552,List1B,black,man,,,,,"{""Q0"":""fred and kate are arguing with each other""}","<img src=""stim_listB/argue2.gif""style=""height:400px;""></stim_listB>",are arguing with each other,
null,"<div style=""font-size:60px;"">+</div>",,html-keyboard-response,86,756541,0.0-13.0-0.14,74552,List1B,black,man,,,,null,,,,
null,"<img src=""stim_listB/kiss7.gif""style=""height:400px;""></stim_listB>",,html-keyboard-response,87,758559,0.0-13.0-1.14,74552,List1B,black,man,,,,null,,,,
null,is kissing,,html-keyboard-response,88,760573,0.0-13.0-2.14,74552,List1B,black,man,,,,null,,,,
17192,,,survey-text,89,777770,0.0-13.0-3.14,74552,List1B,black,man,,,,,"{""Q0"":""beth is kissing ruth""}","<img src=""stim_listB/kiss7.gif""style=""height:400px;""></stim_listB>",is kissing,
null,"<div style=""font-size:60px;"">+</div>",,html-keyboard-response,90,778276,0.0-13.0-0.15,74552,List1B,black,man,,,,null,,,,
null,"<img src=""stim_listB/talk2.gif""style=""height:400px;""></stim_listB>",,html-keyboard-response,91,780283,0.0-13.0-1.15,74552,List1B,black,man,,,,null,,,,
null,are talking to each other,,html-keyboard-response,92,782287,0.0-13.0-2.15,74552,List1B,black,man,,,,null,,,,
28078,,,survey-text,93,810370,0.0-13.0-3.15,74552,List1B,black,man,,,,,"{""Q0"":""kate and mike are talking to each other""}","<img src=""stim_listB/talk2.gif""style=""height:400px;""></stim_listB>",are talking to each other,
null,"<div style=""font-size:60px;"">+</div>",,html-keyboard-response,94,810882,0.0-13.0-0.16,74552,List1B,black,man,,,,null,,,,
null,"<img src=""stim_listB/play3.gif""style=""height:400px;""></stim_listB>",,html-keyboard-response,95,812889,0.0-13.0-1.16,74552,List1B,black,man,,,,null,,,,
null,is playing with,,html-keyboard-response,96,814904,0.0-13.0-2.16,74552,List1B,black,man,,,,null,,,,
22887,,,survey-text,97,837799,0.0-13.0-3.16,74552,List1B,black,man,,,,,"{""Q0"":""dave is playing with jane""}","<img src=""stim_listB/play3.gif""style=""height:400px;""></stim_listB>",is playing with,
null,"<div style=""font-size:60px;"">+</div>",,html-keyboard-response,98,838324,0.0-13.0-0.17,74552,List1B,black,man,,,,null,,,,
null,"<img src=""stim_listB/talk8.gif""style=""height:400px;""></stim_listB>",,html-keyboard-response,99,840370,0.0-13.0-1.17,74552,List1B,black,man,,,,null,,,,
null,are talking to each other,,html-keyboard-response,100,842373,0.0-13.0-2.17,74552,List1B,black,man,,,,null,,,,
16861,,,survey-text,101,859238,0.0-13.0-3.17,74552,List1B,black,man,,,,,"{""Q0"":""kate nd ruth are talking to each other""}","<img src=""stim_listB/talk8.gif""style=""height:400px;""></stim_listB>",are talking to each other,
null,"<div style=""font-size:60px;"">+</div>",,html-keyboard-response,102,859754,0.0-13.0-0.18,74552,List1B,black,man,,,,null,,,,
null,"<img src=""stim_listB/fight7.gif""style=""height:400px;""></stim_listB>",,html-keyboard-response,103,861827,0.0-13.0-1.18,74552,List1B,black,man,,,,null,,,,
null,is fighting,,html-keyboard-response,104,863831,0.0-13.0-2.18,74552,List1B,black,man,,,,null,,,,
13351,,,survey-text,105,877186,0.0-13.0-3.18,74552,List1B,black,man,,,,,"{""Q0"":""jane is fighting kate""}","<img src=""stim_listB/fight7.gif""style=""height:400px;""></stim_listB>",is fighting,
null,"<div style=""font-size:60px;"">+</div>",,html-keyboard-response,106,877692,0.0-13.0-0.19,74552,List1B,black,man,,,,null,,,,
null,"<img src=""stim_listB/touch7.gif""style=""height:400px;""></stim_listB>",,html-keyboard-response,107,879699,0.0-13.0-1.19,74552,List1B,black,man,,,,null,,,,
null,is touching,,html-keyboard-response,108,881717,0.0-13.0-2.19,74552,List1B,black,man,,,,null,,,,
11725,,,survey-text,109,893450,0.0-13.0-3.19,74552,List1B,black,man,,,,,"{""Q0"":""kate is touching jane""}","<img src=""stim_listB/touch7.gif""style=""height:400px;""></stim_listB>",is touching,
17925,"<img src='img/portrait_matrix_list1.jpg' style='width:900px;height:500px;''></img><p>If you have memorised all the portraits and names and are ready to start, press Continue.</p><p><strong>Please note: Your memory of these faces will be tested 4 times during this experiment.</strong></p>",0,html-button-response,110,911405,0.0-14.0-0.0,74552,List1B,black,man,,,,,,,,
4103,"<img src=""portrait/BW1.jpg""style=""height:400px;""></img>",0,html-button-response,111,916549,0.0-14.0-1.0,74552,List1B,black,man,,TRUE,0,,,,,
null,CORRECT,,html-keyboard-response,112,918066,0.0-14.0-2.0-0.0,74552,List1B,black,man,,,,null,,,,
2639,"<img src=""portrait/WM2.jpg""style=""height:400px;""></img>",7,html-button-response,113,920712,0.0-14.0-4.0,74552,List1B,black,man,,TRUE,7,,,,,
null,CORRECT,,html-keyboard-response,114,922222,0.0-14.0-5.0-0.0,74552,List1B,black,man,,,,null,,,,
3197,"<img src=""portrait/BW2.jpg""style=""height:400px;""></img>",2,html-button-response,115,925426,0.0-14.0-7.0,74552,List1B,black,man,,TRUE,2,,,,,
null,CORRECT,,html-keyboard-response,116,926994,0.0-14.0-8.0-0.0,74552,List1B,black,man,,,,null,,,,
3175,"<img src=""portrait/BM2.jpg""style=""height:400px;""></img>",5,html-button-response,117,930176,0.0-14.0-10.0,74552,List1B,black,man,,TRUE,5,,,,,
null,CORRECT,,html-keyboard-response,118,931716,0.0-14.0-11.0-0.0,74552,List1B,black,man,,,,null,,,,
3194,"<img src=""portrait/WM1.jpg""style=""height:400px;""></img>",6,html-button-response,119,934917,0.0-14.0-13.0,74552,List1B,black,man,,TRUE,6,,,,,
null,CORRECT,,html-keyboard-response,120,936425,0.0-14.0-14.0-0.0,74552,List1B,black,man,,,,null,,,,
6481,"<img src=""portrait/WW2.jpg""style=""height:400px;""></img>",3,html-button-response,121,942913,0.0-14.0-16.0,74552,List1B,black,man,,TRUE,3,,,,,
null,CORRECT,,html-keyboard-response,122,944422,0.0-14.0-17.0-0.0,74552,List1B,black,man,,,,null,,,,
10393,"<img src=""portrait/WW1.jpg""style=""height:400px;""></img>",1,html-button-response,123,954823,0.0-14.0-19.0,74552,List1B,black,man,,TRUE,1,,,,,
null,CORRECT,,html-keyboard-response,124,956353,0.0-14.0-20.0-0.0,74552,List1B,black,man,,,,null,,,,
3502,"<img src=""portrait/BM1.jpg""style=""height:400px;""></img>",4,html-button-response,125,959863,0.0-14.0-22.0,74552,List1B,black,man,,TRUE,4,,,,,
null,CORRECT,,html-keyboard-response,126,961370,0.0-14.0-23.0-0.0,74552,List1B,black,man,,,,null,,,,
2912,<p>You got 8 out of 8 right first time. Press Continue.</p>,0,html-button-response,127,964287,0.0-14.0-25.0,74552,List1B,black,man,,,,,,,,
null,"<div style=""font-size:60px;"">+</div>",,html-keyboard-response,128,965809,0.0-15.0-0.0,74552,List1B,black,man,,,,null,,,,
null,"<img src=""stim_listB/dance1.gif""style=""height:400px;""></stim_listB>",,html-keyboard-response,129,967816,0.0-15.0-1.0,74552,List1B,black,man,,,,null,,,,
null,is dancing with,,html-keyboard-response,130,969822,0.0-15.0-2.0,74552,List1B,black,man,,,,null,,,,
12703,,,survey-text,131,982530,0.0-15.0-3.0,74552,List1B,black,man,,,,,"{""Q0"":""kate is dancing with fred""}","<img src=""stim_listB/dance1.gif""style=""height:400px;""></stim_listB>",is dancing with,
null,"<div style=""font-size:60px;"">+</div>",,html-keyboard-response,132,983036,0.0-15.0-0.1,74552,List1B,black,man,,,,null,,,,
null,"<img src=""stim_listB/dance7.gif""style=""height:400px;""></stim_listB>",,html-keyboard-response,133,985072,0.0-15.0-1.1,74552,List1B,black,man,,,,null,,,,
null,is dancing with,,html-keyboard-response,134,987076,0.0-15.0-2.1,74552,List1B,black,man,,,,null,,,,
15176,,,survey-text,135,1002257,0.0-15.0-3.1,74552,List1B,black,man,,,,,"{""Q0"":""kate is dancing with beth""}","<img src=""stim_listB/dance7.gif""style=""height:400px;""></stim_listB>",is dancing with,
null,"<div style=""font-size:60px;"">+</div>",,html-keyboard-response,136,1002775,0.0-15.0-0.2,74552,List1B,black,man,,,,null,,,,
null,"<img src=""stim_listB/kiss4.gif""style=""height:400px;""></stim_listB>",,html-keyboard-response,137,1004782,0.0-15.0-1.2,74552,List1B,black,man,,,,null,,,,
null,are kissing each other,,html-keyboard-response,138,1006794,0.0-15.0-2.2,74552,List1B,black,man,,,,null,,,,
28447,,,survey-text,139,1035246,0.0-15.0-3.2,74552,List1B,black,man,,,,,"{""Q0"":""dave and jane are kissing each other""}","<img src=""stim_listB/kiss4.gif""style=""height:400px;""></stim_listB>",are kissing each other,
null,"<div style=""font-size:60px;"">+</div>",,html-keyboard-response,140,1035754,0.0-15.0-0.3,74552,List1B,black,man,,,,null,,,,
null,"<img src=""stim_listB/play5.gif""style=""height:400px;""></stim_listB>",,html-keyboard-response,141,1037838,0.0-15.0-1.3,74552,List1B,black,man,,,,null,,,,
null,is playing with,,html-keyboard-response,142,1039874,0.0-15.0-2.3,74552,List1B,black,man,,,,null,,,,
11688,,,survey-text,143,1051566,0.0-15.0-3.3,74552,List1B,black,man,,,,,"{""Q0"":""dave is palying with mike""}","<img src=""stim_listB/play5.gif""style=""height:400px;""></stim_listB>",is playing with,
null,"<div style=""font-size:60px;"">+</div>",,html-keyboard-response,144,1052073,0.0-15.0-0.4,74552,List1B,black,man,,,,null,,,,
null,"<img src=""stim_listB/talk4.gif""style=""height:400px;""></stim_listB>",,html-keyboard-response,145,1054099,0.0-15.0-1.4,74552,List1B,black,man,,,,null,,,,
null,are talking to each other,,html-keyboard-response,146,1056103,0.0-15.0-2.4,74552,List1B,black,man,,,,null,,,,
14275,,,survey-text,147,1070384,0.0-15.0-3.4,74552,List1B,black,man,,,,,"{""Q0"":""ruth and dave are talking to each other""}","<img src=""stim_listB/talk4.gif""style=""height:400px;""></stim_listB>",are talking to each other,
null,"<div style=""font-size:60px;"">+</div>",,html-keyboard-response,148,1070891,0.0-15.0-0.5,74552,List1B,black,man,,,,null,,,,
null,"<img src=""stim_listB/touch6.gif""style=""height:400px;""></stim_listB>",,html-keyboard-response,149,1072909,0.0-15.0-1.5,74552,List1B,black,man,,,,null,,,,
null,are touching each other,,html-keyboard-response,150,1074916,0.0-15.0-2.5,74552,List1B,black,man,,,,null,,,,
25214,,,survey-text,151,1100135,0.0-15.0-3.5,74552,List1B,black,man,,,,,"{""Q0"":""luke and fred are touching each other""}","<img src=""stim_listB/touch6.gif""style=""height:400px;""></stim_listB>",are touching each other,
null,"<div style=""font-size:60px;"">+</div>",,html-keyboard-response,152,1100642,0.0-15.0-0.6,74552,List1B,black,man,,,,null,,,,
null,"<img src=""stim_listB/argue4.gif""style=""height:400px;""></stim_listB>",,html-keyboard-response,153,1102648,0.0-15.0-1.6,74552,List1B,black,man,,,,null,,,,
null,are arguing with each other,,html-keyboard-response,154,1104656,0.0-15.0-2.6,74552,List1B,black,man,,,,null,,,,
21908,,,survey-text,155,1126570,0.0-15.0-3.6,74552,List1B,black,man,,,,,"{""Q0"":""luke and jane are arguing with each other""}","<img src=""stim_listB/argue4.gif""style=""height:400px;""></stim_listB>",are arguing with each other,
null,"<div style=""font-size:60px;"">+</div>",,html-keyboard-response,156,1127075,0.0-15.0-0.7,74552,List1B,black,man,,,,null,,,,
null,"<img src=""stim_listB/kiss8.gif""style=""height:400px;""></stim_listB>",,html-keyboard-response,157,1129082,0.0-15.0-1.7,74552,List1B,black,man,,,,null,,,,
null,are kissing each other,,html-keyboard-response,158,1131086,0.0-15.0-2.7,74552,List1B,black,man,,,,null,,,,
45100,,,survey-text,159,1176191,0.0-15.0-3.7,74552,List1B,black,man,,,,,"{""Q0"":""ruth and beth are kissing each other""}","<img src=""stim_listB/kiss8.gif""style=""height:400px;""></stim_listB>",are kissing each other,
null,"<div style=""font-size:60px;"">+</div>",,html-keyboard-response,160,1176699,0.0-15.0-0.8,74552,List1B,black,man,,,,null,,,,
null,"<img src=""stim_listB/kiss2.gif""style=""height:400px;""></stim_listB>",,html-keyboard-response,161,1178727,0.0-15.0-1.8,74552,List1B,black,man,,,,null,,,,
null,are kissing each other,,html-keyboard-response,162,1180755,0.0-15.0-2.8,74552,List1B,black,man,,,,null,,,,
21052,,,survey-text,163,1201813,0.0-15.0-3.8,74552,List1B,black,man,,,,,"{""Q0"":""kate and mike are kissing each other""}","<img src=""stim_listB/kiss2.gif""style=""height:400px;""></stim_listB>",are kissing each other,
null,"<div style=""font-size:60px;"">+</div>",,html-keyboard-response,164,1202330,0.0-15.0-0.9,74552,List1B,black,man,,,,null,,,,
null,"<img src=""stim_listB/play8.gif""style=""height:400px;""></stim_listB>",,html-keyboard-response,165,1204337,0.0-15.0-1.9,74552,List1B,black,man,,,,null,,,,
null,are playing with each other,,html-keyboard-response,166,1206342,0.0-15.0-2.9,74552,List1B,black,man,,,,null,,,,
32286,,,survey-text,167,1238633,0.0-15.0-3.9,74552,List1B,black,man,,,,,"{""Q0"":""jane and beth are playing with each other""}","<img src=""stim_listB/play8.gif""style=""height:400px;""></stim_listB>",are playing with each other,
null,"<div style=""font-size:60px;"">+</div>",,html-keyboard-response,168,1239152,0.0-15.0-0.10,74552,List1B,black,man,,,,null,,,,
null,"<img src=""stim_listB/kiss5.gif""style=""height:400px;""></stim_listB>",,html-keyboard-response,169,1241159,0.0-15.0-1.10,74552,List1B,black,man,,,,null,,,,
null,is kissing,,html-keyboard-response,170,1243164,0.0-15.0-2.10,74552,List1B,black,man,,,,null,,,,
24807,,,survey-text,171,1267977,0.0-15.0-3.10,74552,List1B,black,man,,,,,"{""Q0"":""luke is kissing fred""}","<img src=""stim_listB/kiss5.gif""style=""height:400px;""></stim_listB>",is kissing,
null,"<div style=""font-size:60px;"">+</div>",,html-keyboard-response,172,1268482,0.0-15.0-0.11,74552,List1B,black,man,,,,null,,,,
null,"<img src=""stim_listB/flirt3.gif""style=""height:400px;""></stim_listB>",,html-keyboard-response,173,1270489,0.0-15.0-1.11,74552,List1B,black,man,,,,null,,,,
null,is flirting with,,html-keyboard-response,174,1272494,0.0-15.0-2.11,74552,List1B,black,man,,,,null,,,,
15337,,,survey-text,175,1287835,0.0-15.0-3.11,74552,List1B,black,man,,,,,"{""Q0"":""luke is flirting with jane""}","<img src=""stim_listB/flirt3.gif""style=""height:400px;""></stim_listB>",is flirting with,
null,"<div style=""font-size:60px;"">+</div>",,html-keyboard-response,176,1288343,0.0-15.0-0.12,74552,List1B,black,man,,,,null,,,,
null,"<img src=""stim_listB/flirt8.gif""style=""height:400px;""></stim_listB>",,html-keyboard-response,177,1290360,0.0-15.0-1.12,74552,List1B,black,man,,,,null,,,,
null,are flirting with each other,,html-keyboard-response,178,1292365,0.0-15.0-2.12,74552,List1B,black,man,,,,null,,,,
35959,,,survey-text,179,1328328,0.0-15.0-3.12,74552,List1B,black,man,,,,,"{""Q0"":""ruth and kate are flirting with each other""}","<img src=""stim_listB/flirt8.gif""style=""height:400px;""></stim_listB>",are flirting with each other,
null,"<div style=""font-size:60px;"">+</div>",,html-keyboard-response,180,1328833,0.0-15.0-0.13,74552,List1B,black,man,,,,null,,,,
null,"<img src=""stim_listB/shout8.gif""style=""height:400px;""></stim_listB>",,html-keyboard-response,181,1330852,0.0-15.0-1.13,74552,List1B,black,man,,,,null,,,,
null,are shouting at each other,,html-keyboard-response,182,1332855,0.0-15.0-2.13,74552,List1B,black,man,,,,null,,,,
14726,,,survey-text,183,1347586,0.0-15.0-3.13,74552,List1B,black,man,,,,,"{""Q0"":""jane and kate are shouting at each other""}","<img src=""stim_listB/shout8.gif""style=""height:400px;""></stim_listB>",are shouting at each other,
null,"<div style=""font-size:60px;"">+</div>",,html-keyboard-response,184,1348095,0.0-15.0-0.14,74552,List1B,black,man,,,,null,,,,
null,"<img src=""stim_listB/dance5.gif""style=""height:400px;""></stim_listB>",,html-keyboard-response,185,1350103,0.0-15.0-1.14,74552,List1B,black,man,,,,null,,,,
null,is dancing with,,html-keyboard-response,186,1352138,0.0-15.0-2.14,74552,List1B,black,man,,,,null,,,,
20166,,,survey-text,187,1372309,0.0-15.0-3.14,74552,List1B,black,man,,,,,"{""Q0"":""fred is dancing with dave""}","<img src=""stim_listB/dance5.gif""style=""height:400px;""></stim_listB>",is dancing with,
null,"<div style=""font-size:60px;"">+</div>",,html-keyboard-response,188,1372816,0.0-15.0-0.15,74552,List1B,black,man,,,,null,,,,
null,"<img src=""stim_listB/play1.gif""style=""height:400px;""></stim_listB>",,html-keyboard-response,189,1374822,0.0-15.0-1.15,74552,List1B,black,man,,,,null,,,,
null,is playing with,,html-keyboard-response,190,1376828,0.0-15.0-2.15,74552,List1B,black,man,,,,null,,,,
18674,,,survey-text,191,1395507,0.0-15.0-3.15,74552,List1B,black,man,,,,,"{""Q0"":""mike is playing with kate""}","<img src=""stim_listB/play1.gif""style=""height:400px;""></stim_listB>",is playing with,
null,"<div style=""font-size:60px;"">+</div>",,html-keyboard-response,192,1396021,0.0-15.0-0.16,74552,List1B,black,man,,,,null,,,,
null,"<img src=""stim_listB/marry5.gif""style=""height:400px;""></stim_listB>",,html-keyboard-response,193,1398028,0.0-15.0-1.16,74552,List1B,black,man,,,,null,,,,
null,is marrying,,html-keyboard-response,194,1400032,0.0-15.0-2.16,74552,List1B,black,man,,,,null,,,,
17003,,,survey-text,195,1417040,0.0-15.0-3.16,74552,List1B,black,man,,,,,"{""Q0"":""mike is marrying luke""}","<img src=""stim_listB/marry5.gif""style=""height:400px;""></stim_listB>",is marrying,
null,"<div style=""font-size:60px;"">+</div>",,html-keyboard-response,196,1417582,0.0-15.0-0.17,74552,List1B,black,man,,,,null,,,,
null,"<img src=""stim_listB/kiss3.gif""style=""height:400px;""></stim_listB>",,html-keyboard-response,197,1419589,0.0-15.0-1.17,74552,List1B,black,man,,,,null,,,,
null,is kissing,,html-keyboard-response,198,1421593,0.0-15.0-2.17,74552,List1B,black,man,,,,null,,,,
18480,,,survey-text,199,1440077,0.0-15.0-3.17,74552,List1B,black,man,,,,,"{""Q0"":""ruth is kissing luke""}","<img src=""stim_listB/kiss3.gif""style=""height:400px;""></stim_listB>",is kissing,
null,"<div style=""font-size:60px;"">+</div>",,html-keyboard-response,200,1440584,0.0-15.0-0.18,74552,List1B,black,man,,,,null,,,,
null,"<img src=""stim_listB/argue8.gif""style=""height:400px;""></stim_listB>",,html-keyboard-response,201,1442591,0.0-15.0-1.18,74552,List1B,black,man,,,,null,,,,
null,are arguing with each other,,html-keyboard-response,202,1444609,0.0-15.0-2.18,74552,List1B,black,man,,,,null,,,,
25066,,,survey-text,203,1469680,0.0-15.0-3.18,74552,List1B,black,man,,,,,"{""Q0"":""beth and jane are arguing with each other""}","<img src=""stim_listB/argue8.gif""style=""height:400px;""></stim_listB>",are arguing with each other,
null,"<div style=""font-size:60px;"">+</div>",,html-keyboard-response,204,1470213,0.0-15.0-0.19,74552,List1B,black,man,,,,null,,,,
null,"<img src=""stim_listB/dance8.gif""style=""height:400px;""></stim_listB>",,html-keyboard-response,205,1472220,0.0-15.0-1.19,74552,List1B,black,man,,,,null,,,,
null,are dancing with each other,,html-keyboard-response,206,1474226,0.0-15.0-2.19,74552,List1B,black,man,,,,null,,,,
19513,,,survey-text,207,1493744,0.0-15.0-3.19,74552,List1B,black,man,,,,,"{""Q0"":""ruth and kate are dancing with each oher""}","<img src=""stim_listB/dance8.gif""style=""height:400px;""></stim_listB>",are dancing with each other,
70535,"<img src='img/portrait_matrix_list1.jpg' style='width:900px;height:500px;''></img><p>If you have memorised all the portraits and names and are ready to start, press Continue.</p><p><strong>Please note: Your memory of these faces will be tested 4 times during this experiment.</strong></p>",0,html-button-response,208,1564291,0.0-16.0-0.0,74552,List1B,black,man,,,,,,,,
5373,"<img src=""portrait/BW2.jpg""style=""height:400px;""></img>",2,html-button-response,209,1570674,0.0-16.0-1.0,74552,List1B,black,man,,TRUE,2,,,,,
null,CORRECT,,html-keyboard-response,210,1572191,0.0-16.0-2.0-0.0,74552,List1B,black,man,,,,null,,,,
2565,"<img src=""portrait/BW1.jpg""style=""height:400px;""></img>",0,html-button-response,211,1574762,0.0-16.0-4.0,74552,List1B,black,man,,TRUE,0,,,,,
null,CORRECT,,html-keyboard-response,212,1576281,0.0-16.0-5.0-0.0,74552,List1B,black,man,,,,null,,,,
3894,"<img src=""portrait/WW2.jpg""style=""height:400px;""></img>",3,html-button-response,213,1580181,0.0-16.0-7.0,74552,List1B,black,man,,TRUE,3,,,,,
null,CORRECT,,html-keyboard-response,214,1581712,0.0-16.0-8.0-0.0,74552,List1B,black,man,,,,null,,,,
1963,"<img src=""portrait/BM1.jpg""style=""height:400px;""></img>",4,html-button-response,215,1583682,0.0-16.0-10.0,74552,List1B,black,man,,TRUE,4,,,,,
null,CORRECT,,html-keyboard-response,216,1585197,0.0-16.0-11.0-0.0,74552,List1B,black,man,,,,null,,,,
2757,"<img src=""portrait/WW1.jpg""style=""height:400px;""></img>",1,html-button-response,217,1587961,0.0-16.0-13.0,74552,List1B,black,man,,TRUE,1,,,,,
null,CORRECT,,html-keyboard-response,218,1589469,0.0-16.0-14.0-0.0,74552,List1B,black,man,,,,null,,,,
2943,"<img src=""portrait/WM1.jpg""style=""height:400px;""></img>",5,html-button-response,219,1592419,0.0-16.0-16.0,74552,List1B,black,man,,TRUE,6,,,,,
2873,"<img src=""portrait/WM1.jpg""style=""height:400px;""></img>",6,html-button-response,220,1596320,0.0-16.0-18.0-0.0,74552,List1B,black,man,,FALSE,6,,,,,
null,CORRECT,,html-keyboard-response,221,1597855,0.0-16.0-18.0-1.0-0.0,74552,List1B,black,man,,,,null,,,,
2384,"<img src=""portrait/WM2.jpg""style=""height:400px;""></img>",7,html-button-response,222,1600250,0.0-16.0-19.0,74552,List1B,black,man,,TRUE,7,,,,,
null,CORRECT,,html-keyboard-response,223,1601827,0.0-16.0-20.0-0.0,74552,List1B,black,man,,,,null,,,,
3751,"<img src=""portrait/BM2.jpg""style=""height:400px;""></img>",6,html-button-response,224,1605594,0.0-16.0-22.0,74552,List1B,black,man,,TRUE,5,,,,,
1551,"<img src=""portrait/BM2.jpg""style=""height:400px;""></img>",5,html-button-response,225,1608159,0.0-16.0-24.0-0.0,74552,List1B,black,man,,FALSE,5,,,,,
null,CORRECT,,html-keyboard-response,226,1609694,0.0-16.0-24.0-1.0-0.0,74552,List1B,black,man,,,,null,,,,
3191,<p>You got 6 out of 8 right first time. Press Continue.</p>,0,html-button-response,227,1612891,0.0-16.0-25.0,74552,List1B,black,man,,,,,,,,
3042,"As you did not score 100%, the memory game will repeat. Press Continue.",0,html-button-response,228,1616941,0.0-16.0-26.0-0.0,74552,List1B,black,man,,,,,,,,
3986,"<img src='img/portrait_matrix_list1.jpg' style='width:900px;height:500px;''></img><p>If you have memorised all the portraits and names and are ready to start, press Continue.</p><p><strong>Please note: Your memory of these faces will be tested 4 times during this experiment.</strong></p>",0,html-button-response,229,1621971,0.0-16.1-0.1,74552,List1B,black,man,,,,,,,,
3182,"<img src=""portrait/BW2.jpg""style=""height:400px;""></img>",2,html-button-response,230,1626163,0.0-16.1-1.1,74552,List1B,black,man,,TRUE,2,,,,,
null,CORRECT,,html-keyboard-response,231,1627674,0.0-16.1-2.1-0.1,74552,List1B,black,man,,,,null,,,,
1930,"<img src=""portrait/BW1.jpg""style=""height:400px;""></img>",0,html-button-response,232,1629610,0.0-16.1-4.1,74552,List1B,black,man,,TRUE,0,,,,,
null,CORRECT,,html-keyboard-response,233,1631138,0.0-16.1-5.1-0.1,74552,List1B,black,man,,,,null,,,,
1881,"<img src=""portrait/WW2.jpg""style=""height:400px;""></img>",3,html-button-response,234,1633044,0.0-16.1-7.1,74552,List1B,black,man,,TRUE,3,,,,,
null,CORRECT,,html-keyboard-response,235,1634598,0.0-16.1-8.1-0.1,74552,List1B,black,man,,,,null,,,,
2395,"<img src=""portrait/BM1.jpg""style=""height:400px;""></img>",4,html-button-response,236,1637000,0.0-16.1-10.1,74552,List1B,black,man,,TRUE,4,,,,,
null,CORRECT,,html-keyboard-response,237,1638539,0.0-16.1-11.1-0.1,74552,List1B,black,man,,,,null,,,,
1850,"<img src=""portrait/WW1.jpg""style=""height:400px;""></img>",1,html-button-response,238,1640400,0.0-16.1-13.1,74552,List1B,black,man,,TRUE,1,,,,,
null,CORRECT,,html-keyboard-response,239,1641914,0.0-16.1-14.1-0.1,74552,List1B,black,man,,,,null,,,,
3479,"<img src=""portrait/WM1.jpg""style=""height:400px;""></img>",6,html-button-response,240,1645404,0.0-16.1-16.1,74552,List1B,black,man,,TRUE,6,,,,,
null,CORRECT,,html-keyboard-response,241,1646922,0.0-16.1-17.1-0.1,74552,List1B,black,man,,,,null,,,,
1789,"<img src=""portrait/WM2.jpg""style=""height:400px;""></img>",7,html-button-response,242,1648719,0.0-16.1-19.1,74552,List1B,black,man,,TRUE,7,,,,,
null,CORRECT,,html-keyboard-response,243,1650250,0.0-16.1-20.1-0.1,74552,List1B,black,man,,,,null,,,,
2362,"<img src=""portrait/BM2.jpg""style=""height:400px;""></img>",5,html-button-response,244,1652620,0.0-16.1-22.1,74552,List1B,black,man,,TRUE,5,,,,,
null,CORRECT,,html-keyboard-response,245,1654151,0.0-16.1-23.1-0.1,74552,List1B,black,man,,,,null,,,,
2372,<p>You got 8 out of 8 right first time. Press Continue.</p>,0,html-button-response,246,1656528,0.0-16.1-25.1,74552,List1B,black,man,,,,,,,,
null,"<div style=""font-size:60px;"">+</div>",,html-keyboard-response,247,1658114,0.0-17.0-0.0,74552,List1B,black,man,,,,null,,,,
null,"<img src=""stim_listB/talk1.gif""style=""height:400px;""></stim_listB>",,html-keyboard-response,248,1660141,0.0-17.0-1.0,74552,List1B,black,man,,,,null,,,,
null,is talking to,,html-keyboard-response,249,1662156,0.0-17.0-2.0,74552,List1B,black,man,,,,null,,,,
14857,,,survey-text,250,1677058,0.0-17.0-3.0,74552,List1B,black,man,,,,,"{""Q0"":""fred is talking to kate""}","<img src=""stim_listB/talk1.gif""style=""height:400px;""></stim_listB>",is talking to,
null,"<div style=""font-size:60px;"">+</div>",,html-keyboard-response,251,1677563,0.0-17.0-0.1,74552,List1B,black,man,,,,null,,,,
null,"<img src=""stim_listB/flirt6.gif""style=""height:400px;""></stim_listB>",,html-keyboard-response,252,1679573,0.0-17.0-1.1,74552,List1B,black,man,,,,null,,,,
null,are flirting with each other,,html-keyboard-response,253,1681579,0.0-17.0-2.1,74552,List1B,black,man,,,,null,,,,
27069,,,survey-text,254,1708653,0.0-17.0-3.1,74552,List1B,black,man,,,,,"{""Q0"":""luke and mike are flirting with each other""}","<img src=""stim_listB/flirt6.gif""style=""height:400px;""></stim_listB>",are flirting with each other,
null,"<div style=""font-size:60px;"">+</div>",,html-keyboard-response,255,1709164,0.0-17.0-0.2,74552,List1B,black,man,,,,null,,,,
null,"<img src=""stim_listB/argue5.gif""style=""height:400px;""></stim_listB>",,html-keyboard-response,256,1711202,0.0-17.0-1.2,74552,List1B,black,man,,,,null,,,,
null,is arguing with,,html-keyboard-response,257,1713215,0.0-17.0-2.2,74552,List1B,black,man,,,,null,,,,
108404,,,survey-text,258,1821624,0.0-17.0-3.2,74552,List1B,black,man,,,,,"{""Q0"":""mike is arguing with luke""}","<img src=""stim_listB/argue5.gif""style=""height:400px;""></stim_listB>",is arguing with,
null,"<div style=""font-size:60px;"">+</div>",,html-keyboard-response,259,1822130,0.0-17.0-0.3,74552,List1B,black,man,,,,null,,,,
null,"<img src=""stim_listB/flirt2.gif""style=""height:400px;""></stim_listB>",,html-keyboard-response,260,1824136,0.0-17.0-1.3,74552,List1B,black,man,,,,null,,,,
null,are flirting with each other,,html-keyboard-response,261,1826140,0.0-17.0-2.3,74552,List1B,black,man,,,,null,,,,
15587,,,survey-text,262,1841732,0.0-17.0-3.3,74552,List1B,black,man,,,,,"{""Q0"":""mike and beth are flirting with each other""}","<img src=""stim_listB/flirt2.gif""style=""height:400px;""></stim_listB>",are flirting with each other,
null,"<div style=""font-size:60px;"">+</div>",,html-keyboard-response,263,1842238,0.0-17.0-0.4,74552,List1B,black,man,,,,null,,,,
null,"<img src=""stim_listB/shout6.gif""style=""height:400px;""></stim_listB>",,html-keyboard-response,264,1844245,0.0-17.0-1.4,74552,List1B,black,man,,,,null,,,,
null,are shouting at each other,,html-keyboard-response,265,1846249,0.0-17.0-2.4,74552,List1B,black,man,,,,null,,,,
20363,,,survey-text,266,1866616,0.0-17.0-3.4,74552,List1B,black,man,,,,,"{""Q0"":""mike and dave are arguing wth each other""}","<img src=""stim_listB/shout6.gif""style=""height:400px;""></stim_listB>",are shouting at each other,
null,"<div style=""font-size:60px;"">+</div>",,html-keyboard-response,267,1867121,0.0-17.0-0.5,74552,List1B,black,man,,,,null,,,,
null,"<img src=""stim_listB/marry4.gif""style=""height:400px;""></stim_listB>",,html-keyboard-response,268,1869131,0.0-17.0-1.5,74552,List1B,black,man,,,,null,,,,
null,are marrying each other,,html-keyboard-response,269,1871135,0.0-17.0-2.5,74552,List1B,black,man,,,,null,,,,
20121,,,survey-text,270,1891260,0.0-17.0-3.5,74552,List1B,black,man,,,,,"{""Q0"":""jane and luke are marrying each other""}","<img src=""stim_listB/marry4.gif""style=""height:400px;""></stim_listB>",are marrying each other,
null,"<div style=""font-size:60px;"">+</div>",,html-keyboard-response,271,1891767,0.0-17.0-0.6,74552,List1B,black,man,,,,null,,,,
null,"<img src=""stim_listB/fight2.gif""style=""height:400px;""></stim_listB>",,html-keyboard-response,272,1893794,0.0-17.0-1.6,74552,List1B,black,man,,,,null,,,,
null,are fighting each other,,html-keyboard-response,273,1895800,0.0-17.0-2.6,74552,List1B,black,man,,,,null,,,,
84912,,,survey-text,274,1980717,0.0-17.0-3.6,74552,List1B,black,man,,,,,"{""Q0"":""beth and fred are fighting each other""}","<img src=""stim_listB/fight2.gif""style=""height:400px;""></stim_listB>",are fighting each other,
null,"<div style=""font-size:60px;"">+</div>",,html-keyboard-response,275,1981223,0.0-17.0-0.7,74552,List1B,black,man,,,,null,,,,
null,"<img src=""stim_listB/shout3.gif""style=""height:400px;""></stim_listB>",,html-keyboard-response,276,1983228,0.0-17.0-1.7,74552,List1B,black,man,,,,null,,,,
null,is shouting at,,html-keyboard-response,277,1985235,0.0-17.0-2.7,74552,List1B,black,man,,,,null,,,,
19197,,,survey-text,278,2004438,0.0-17.0-3.7,74552,List1B,black,man,,,,,"{""Q0"":""luke is shouting at ruth""}","<img src=""stim_listB/shout3.gif""style=""height:400px;""></stim_listB>",is shouting at,
null,"<div style=""font-size:60px;"">+</div>",,html-keyboard-response,279,2004945,0.0-17.0-0.8,74552,List1B,black,man,,,,null,,,,
null,"<img src=""stim_listB/kiss1.gif""style=""height:400px;""></stim_listB>",,html-keyboard-response,280,2006951,0.0-17.0-1.8,74552,List1B,black,man,,,,null,,,,
null,is kissing,,html-keyboard-response,281,2008956,0.0-17.0-2.8,74552,List1B,black,man,,,,null,,,,
9691,,,survey-text,282,2018652,0.0-17.0-3.8,74552,List1B,black,man,,,,,"{""Q0"":""fred is kissing beth""}","<img src=""stim_listB/kiss1.gif""style=""height:400px;""></stim_listB>",is kissing,
null,"<div style=""font-size:60px;"">+</div>",,html-keyboard-response,283,2019158,0.0-17.0-0.9,74552,List1B,black,man,,,,null,,,,
null,"<img src=""stim_listB/fight4.gif""style=""height:400px;""></stim_listB>",,html-keyboard-response,284,2021163,0.0-17.0-1.9,74552,List1B,black,man,,,,null,,,,
null,are fighting each other,,html-keyboard-response,285,2023168,0.0-17.0-2.9,74552,List1B,black,man,,,,null,,,,
15178,,,survey-text,286,2038351,0.0-17.0-3.9,74552,List1B,black,man,,,,,"{""Q0"":""ruth and luke are fighting each other""}","<img src=""stim_listB/fight4.gif""style=""height:400px;""></stim_listB>",are fighting each other,
null,"<div style=""font-size:60px;"">+</div>",,html-keyboard-response,287,2038857,0.0-17.0-0.10,74552,List1B,black,man,,,,null,,,,
null,"<img src=""stim_listB/touch4.gif""style=""height:400px;""></stim_listB>",,html-keyboard-response,288,2040889,0.0-17.0-1.10,74552,List1B,black,man,,,,null,,,,
null,are touching each other,,html-keyboard-response,289,2042894,0.0-17.0-2.10,74552,List1B,black,man,,,,null,,,,
33025,,,survey-text,290,2075924,0.0-17.0-3.10,74552,List1B,black,man,,,,,"{""Q0"":""""}","<img src=""stim_listB/touch4.gif""style=""height:400px;""></stim_listB>",are touching each other,
null,"<div style=""font-size:60px;"">+</div>",,html-keyboard-response,291,2076434,0.0-17.0-0.11,74552,List1B,black,man,,,,null,,,,
null,"<img src=""stim_listB/marry3.gif""style=""height:400px;""></stim_listB>",,html-keyboard-response,292,2078442,0.0-17.0-1.11,74552,List1B,black,man,,,,null,,,,
null,is marrying,,html-keyboard-response,293,2080448,0.0-17.0-2.11,74552,List1B,black,man,,,,null,,,,
1420,,,survey-text,294,2081874,0.0-17.0-3.11,74552,List1B,black,man,,,,,"{""Q0"":""""}","<img src=""stim_listB/marry3.gif""style=""height:400px;""></stim_listB>",is marrying,
null,"<div style=""font-size:60px;"">+</div>",,html-keyboard-response,295,2082381,0.0-17.0-0.12,74552,List1B,black,man,,,,null,,,,
null,"<img src=""stim_listB/shout5.gif""style=""height:400px;""></stim_listB>",,html-keyboard-response,296,2084391,0.0-17.0-1.12,74552,List1B,black,man,,,,null,,,,
null,is shouting at,,html-keyboard-response,297,2086397,0.0-17.0-2.12,74552,List1B,black,man,,,,null,,,,
162,,,survey-text,298,2086564,0.0-17.0-3.12,74552,List1B,black,man,,,,,"{""Q0"":""""}","<img src=""stim_listB/shout5.gif""style=""height:400px;""></stim_listB>",is shouting at,
null,"<div style=""font-size:60px;"">+</div>",,html-keyboard-response,299,2087071,0.0-17.0-0.13,74552,List1B,black,man,,,,null,,,,
null,"<img src=""stim_listB/touch1.gif""style=""height:400px;""></stim_listB>",,html-keyboard-response,300,2089076,0.0-17.0-1.13,74552,List1B,black,man,,,,null,,,,
null,is touching,,html-keyboard-response,301,2091080,0.0-17.0-2.13,74552,List1B,black,man,,,,null,,,,
19173,,,survey-text,302,2110259,0.0-17.0-3.13,74552,List1B,black,man,,,,,"{""Q0"":""mikeis touching kate""}","<img src=""stim_listB/touch1.gif""style=""height:400px;""></stim_listB>",is touching,
null,"<div style=""font-size:60px;"">+</div>",,html-keyboard-response,303,2110771,0.0-17.0-0.14,74552,List1B,black,man,,,,null,,,,
null,"<img src=""stim_listB/argue3.gif""style=""height:400px;""></stim_listB>",,html-keyboard-response,304,2112788,0.0-17.0-1.14,74552,List1B,black,man,,,,null,,,,
null,is arguing with,,html-keyboard-response,305,2114792,0.0-17.0-2.14,74552,List1B,black,man,,,,null,,,,
202,,,survey-text,306,2114999,0.0-17.0-3.14,74552,List1B,black,man,,,,,"{""Q0"":""""}","<img src=""stim_listB/argue3.gif""style=""height:400px;""></stim_listB>",is arguing with,
null,"<div style=""font-size:60px;"">+</div>",,html-keyboard-response,307,2115504,0.0-17.0-0.15,74552,List1B,black,man,,,,null,,,,
null,"<img src=""stim_listB/argue7.gif""style=""height:400px;""></stim_listB>",,html-keyboard-response,308,2117509,0.0-17.0-1.15,74552,List1B,black,man,,,,null,,,,
null,is arguing with,,html-keyboard-response,309,2119514,0.0-17.0-2.15,74552,List1B,black,man,,,,null,,,,
603,,,survey-text,310,2120123,0.0-17.0-3.15,74552,List1B,black,man,,,,,"{""Q0"":""""}","<img src=""stim_listB/argue7.gif""style=""height:400px;""></stim_listB>",is arguing with,
null,"<div style=""font-size:60px;"">+</div>",,html-keyboard-response,311,2120631,0.0-17.0-0.16,74552,List1B,black,man,,,,null,,,,
null,"<img src=""stim_listB/talk3.gif""style=""height:400px;""></stim_listB>",,html-keyboard-response,312,2122636,0.0-17.0-1.16,74552,List1B,black,man,,,,null,,,,
null,is talking to,,html-keyboard-response,313,2124640,0.0-17.0-2.16,74552,List1B,black,man,,,,null,,,,
1136,,,survey-text,314,2125783,0.0-17.0-3.16,74552,List1B,black,man,,,,,"{""Q0"":""""}","<img src=""stim_listB/talk3.gif""style=""height:400px;""></stim_listB>",is talking to,
null,"<div style=""font-size:60px;"">+</div>",,html-keyboard-response,315,2126289,0.0-17.0-0.17,74552,List1B,black,man,,,,null,,,,
null,"<img src=""stim_listB/fight6.gif""style=""height:400px;""></stim_listB>",,html-keyboard-response,316,2128296,0.0-17.0-1.17,74552,List1B,black,man,,,,null,,,,
null,are fighting each other,,html-keyboard-response,317,2130301,0.0-17.0-2.17,74552,List1B,black,man,,,,null,,,,
587,,,survey-text,318,2130894,0.0-17.0-3.17,74552,List1B,black,man,,,,,"{""Q0"":""""}","<img src=""stim_listB/fight6.gif""style=""height:400px;""></stim_listB>",are fighting each other,
null,"<div style=""font-size:60px;"">+</div>",,html-keyboard-response,319,2131400,0.0-17.0-0.18,74552,List1B,black,man,,,,null,,,,
null,"<img src=""stim_listB/shout7.gif""style=""height:400px;""></stim_listB>",,html-keyboard-response,320,2133406,0.0-17.0-1.18,74552,List1B,black,man,,,,null,,,,
null,is shouting at,,html-keyboard-response,321,2135410,0.0-17.0-2.18,74552,List1B,black,man,,,,null,,,,
1004,,,survey-text,322,2136420,0.0-17.0-3.18,74552,List1B,black,man,,,,,"{""Q0"":""""}","<img src=""stim_listB/shout7.gif""style=""height:400px;""></stim_listB>",is shouting at,
null,"<div style=""font-size:60px;"">+</div>",,html-keyboard-response,323,2136927,0.0-17.0-0.19,74552,List1B,black,man,,,,null,,,,
null,"<img src=""stim_listB/dance4.gif""style=""height:400px;""></stim_listB>",,html-keyboard-response,324,2138933,0.0-17.0-1.19,74552,List1B,black,man,,,,null,,,,
null,are dancing with each other,,html-keyboard-response,325,2140937,0.0-17.0-2.19,74552,List1B,black,man,,,,null,,,,
640,,,survey-text,326,2141582,0.0-17.0-3.19,74552,List1B,black,man,,,,,"{""Q0"":""""}","<img src=""stim_listB/dance4.gif""style=""height:400px;""></stim_listB>",are dancing with each other,
4565,"<img src='img/portrait_matrix_list1.jpg' style='width:900px;height:500px;''></img><p>If you have memorised all the portraits and names and are ready to start, press Continue.</p><p><strong>Please note: Your memory of these faces will be tested 4 times during this experiment.</strong></p>",0,html-button-response,327,2146154,0.0-18.0-0.0,74552,List1B,black,man,,,,,,,,
3759,"<img src=""portrait/BW1.jpg""style=""height:400px;""></img>",0,html-button-response,328,2150922,0.0-18.0-1.0,74552,List1B,black,man,,TRUE,0,,,,,
null,CORRECT,,html-keyboard-response,329,2152429,0.0-18.0-2.0-0.0,74552,List1B,black,man,,,,null,,,,
3873,"<img src=""portrait/BM2.jpg""style=""height:400px;""></img>",5,html-button-response,330,2156309,0.0-18.0-4.0,74552,List1B,black,man,,TRUE,5,,,,,
null,CORRECT,,html-keyboard-response,331,2157816,0.0-18.0-5.0-0.0,74552,List1B,black,man,,,,null,,,,
3084,"<img src=""portrait/WM2.jpg""style=""height:400px;""></img>",7,html-button-response,332,2160910,0.0-18.0-7.0,74552,List1B,black,man,,TRUE,7,,,,,
null,CORRECT,,html-keyboard-response,333,2162417,0.0-18.0-8.0-0.0,74552,List1B,black,man,,,,null,,,,
4069,"<img src=""portrait/WW1.jpg""style=""height:400px;""></img>",1,html-button-response,334,2166494,0.0-18.0-10.0,74552,List1B,black,man,,TRUE,1,,,,,
null,CORRECT,,html-keyboard-response,335,2168000,0.0-18.0-11.0-0.0,74552,List1B,black,man,,,,null,,,,
1782,"<img src=""portrait/WM1.jpg""style=""height:400px;""></img>",6,html-button-response,336,2169789,0.0-18.0-13.0,74552,List1B,black,man,,TRUE,6,,,,,
null,CORRECT,,html-keyboard-response,337,2171298,0.0-18.0-14.0-0.0,74552,List1B,black,man,,,,null,,,,
3951,"<img src=""portrait/BW2.jpg""style=""height:400px;""></img>",2,html-button-response,338,2175256,0.0-18.0-16.0,74552,List1B,black,man,,TRUE,2,,,,,
null,CORRECT,,html-keyboard-response,339,2176762,0.0-18.0-17.0-0.0,74552,List1B,black,man,,,,null,,,,
3500,"<img src=""portrait/WW2.jpg""style=""height:400px;""></img>",3,html-button-response,340,2180270,0.0-18.0-19.0,74552,List1B,black,man,,TRUE,3,,,,,
null,CORRECT,,html-keyboard-response,341,2181779,0.0-18.0-20.0-0.0,74552,List1B,black,man,,,,null,,,,
2207,"<img src=""portrait/BM1.jpg""style=""height:400px;""></img>",4,html-button-response,342,2183993,0.0-18.0-22.0,74552,List1B,black,man,,TRUE,4,,,,,
null,CORRECT,,html-keyboard-response,343,2185502,0.0-18.0-23.0-0.0,74552,List1B,black,man,,,,null,,,,
4229,<p>You got 8 out of 8 right first time. Press Continue.</p>,0,html-button-response,344,2189740,0.0-18.0-25.0,74552,List1B,black,man,,,,,,,,
null,"<div style=""font-size:60px;"">+</div>",,html-keyboard-response,345,2191256,0.0-19.0-0.0,74552,List1B,black,man,,,,null,,,,
null,"<img src=""stim_listB/kiss6.gif""style=""height:400px;""></stim_listB>",,html-keyboard-response,346,2193263,0.0-19.0-1.0,74552,List1B,black,man,,,,null,,,,
null,are kissing each other,,html-keyboard-response,347,2195268,0.0-19.0-2.0,74552,List1B,black,man,,,,null,,,,
11201,,,survey-text,348,2206473,0.0-19.0-3.0,74552,List1B,black,man,,,,,"{""Q0"":"" ""}","<img src=""stim_listB/kiss6.gif""style=""height:400px;""></stim_listB>",are kissing each other,
null,"<div style=""font-size:60px;"">+</div>",,html-keyboard-response,349,2206978,0.0-19.0-0.1,74552,List1B,black,man,,,,null,,,,
null,"<img src=""stim_listB/marry7.gif""style=""height:400px;""></stim_listB>",,html-keyboard-response,350,2208984,0.0-19.0-1.1,74552,List1B,black,man,,,,null,,,,
null,is marrying,,html-keyboard-response,351,2210988,0.0-19.0-2.1,74552,List1B,black,man,,,,null,,,,
19928,,,survey-text,352,2230921,0.0-19.0-3.1,74552,List1B,black,man,,,,,"{""Q0"":""ruth is marrying kate""}","<img src=""stim_listB/marry7.gif""style=""height:400px;""></stim_listB>",is marrying,
null,"<div style=""font-size:60px;"">+</div>",,html-keyboard-response,353,2231427,0.0-19.0-0.2,74552,List1B,black,man,,,,null,,,,
null,"<img src=""stim_listB/play2.gif""style=""height:400px;""></stim_listB>",,html-keyboard-response,354,2233434,0.0-19.0-1.2,74552,List1B,black,man,,,,null,,,,
null,are playing with each other,,html-keyboard-response,355,2235438,0.0-19.0-2.2,74552,List1B,black,man,,,,null,,,,
17207,,,survey-text,356,2252652,0.0-19.0-3.2,74552,List1B,black,man,,,,,"{""Q0"":""beth and fred are palying with each other""}","<img src=""stim_listB/play2.gif""style=""height:400px;""></stim_listB>",are playing with each other,
null,"<div style=""font-size:60px;"">+</div>",,html-keyboard-response,357,2253157,0.0-19.0-0.3,74552,List1B,black,man,,,,null,,,,
null,"<img src=""stim_listB/play4.gif""style=""height:400px;""></stim_listB>",,html-keyboard-response,358,2255164,0.0-19.0-1.3,74552,List1B,black,man,,,,null,,,,
null,are playing with each other,,html-keyboard-response,359,2257168,0.0-19.0-2.3,74552,List1B,black,man,,,,null,,,,
14954,,,survey-text,360,2272127,0.0-19.0-3.3,74552,List1B,black,man,,,,,"{""Q0"":""luke and ruth are palying with each other""}","<img src=""stim_listB/play4.gif""style=""height:400px;""></stim_listB>",are playing with each other,
null,"<div style=""font-size:60px;"">+</div>",,html-keyboard-response,361,2272633,0.0-19.0-0.4,74552,List1B,black,man,,,,null,,,,
null,"<img src=""stim_listB/fight5.gif""style=""height:400px;""></stim_listB>",,html-keyboard-response,362,2274651,0.0-19.0-1.4,74552,List1B,black,man,,,,null,,,,
null,is fighting,,html-keyboard-response,363,2276676,0.0-19.0-2.4,74552,List1B,black,man,,,,null,,,,
21650,,,survey-text,364,2298330,0.0-19.0-3.4,74552,List1B,black,man,,,,,"{""Q0"":""mike is fighting dave""}","<img src=""stim_listB/fight5.gif""style=""height:400px;""></stim_listB>",is fighting,
null,"<div style=""font-size:60px;"">+</div>",,html-keyboard-response,365,2298840,0.0-19.0-0.5,74552,List1B,black,man,,,,null,,,,
null,"<img src=""stim_listB/fight3.gif""style=""height:400px;""></stim_listB>",,html-keyboard-response,366,2300847,0.0-19.0-1.5,74552,List1B,black,man,,,,null,,,,
null,is fighting,,html-keyboard-response,367,2302852,0.0-19.0-2.5,74552,List1B,black,man,,,,null,,,,
8710,,,survey-text,368,2311568,0.0-19.0-3.5,74552,List1B,black,man,,,,,"{""Q0"":""jane is fighting dave""}","<img src=""stim_listB/fight3.gif""style=""height:400px;""></stim_listB>",is fighting,
null,"<div style=""font-size:60px;"">+</div>",,html-keyboard-response,369,2312074,0.0-19.0-0.6,74552,List1B,black,man,,,,null,,,,
null,"<img src=""stim_listB/flirt1.gif""style=""height:400px;""></stim_listB>",,html-keyboard-response,370,2314111,0.0-19.0-1.6,74552,List1B,black,man,,,,null,,,,
null,is flirting with,,html-keyboard-response,371,2316116,0.0-19.0-2.6,74552,List1B,black,man,,,,null,,,,
21958,,,survey-text,372,2338081,0.0-19.0-3.6,74552,List1B,black,man,,,,,"{""Q0"":""""}","<img src=""stim_listB/flirt1.gif""style=""height:400px;""></stim_listB>",is flirting with,
null,"<div style=""font-size:60px;"">+</div>",,html-keyboard-response,373,2338587,0.0-19.0-0.7,74552,List1B,black,man,,,,null,,,,
null,"<img src=""stim_listB/argue1.gif""style=""height:400px;""></stim_listB>",,html-keyboard-response,374,2340594,0.0-19.0-1.7,74552,List1B,black,man,,,,null,,,,
null,is arguing with,,html-keyboard-response,375,2342613,0.0-19.0-2.7,74552,List1B,black,man,,,,null,,,,
449,,,survey-text,376,2343101,0.0-19.0-3.7,74552,List1B,black,man,,,,,"{""Q0"":""""}","<img src=""stim_listB/argue1.gif""style=""height:400px;""></stim_listB>",is arguing with,
null,"<div style=""font-size:60px;"">+</div>",,html-keyboard-response,377,2343607,0.0-19.0-0.8,74552,List1B,black,man,,,,null,,,,
null,"<img src=""stim_listB/touch8.gif""style=""height:400px;""></stim_listB>",,html-keyboard-response,378,2345612,0.0-19.0-1.8,74552,List1B,black,man,,,,null,,,,
null,are touching each other,,html-keyboard-response,379,2347617,0.0-19.0-2.8,74552,List1B,black,man,,,,null,,,,
314,,,survey-text,380,2347936,0.0-19.0-3.8,74552,List1B,black,man,,,,,"{""Q0"":""""}","<img src=""stim_listB/touch8.gif""style=""height:400px;""></stim_listB>",are touching each other,
null,"<div style=""font-size:60px;"">+</div>",,html-keyboard-response,381,2348443,0.0-19.0-0.9,74552,List1B,black,man,,,,null,,,,
null,"<img src=""stim_listB/touch5.gif""style=""height:400px;""></stim_listB>",,html-keyboard-response,382,2350449,0.0-19.0-1.9,74552,List1B,black,man,,,,null,,,,
null,is touching,,html-keyboard-response,383,2352454,0.0-19.0-2.9,74552,List1B,black,man,,,,null,,,,
1194,,,survey-text,384,2353654,0.0-19.0-3.9,74552,List1B,black,man,,,,,"{""Q0"":""""}","<img src=""stim_listB/touch5.gif""style=""height:400px;""></stim_listB>",is touching,
null,"<div style=""font-size:60px;"">+</div>",,html-keyboard-response,385,2354162,0.0-19.0-0.10,74552,List1B,black,man,,,,null,,,,
null,"<img src=""stim_listB/dance3.gif""style=""height:400px;""></stim_listB>",,html-keyboard-response,386,2356167,0.0-19.0-1.10,74552,List1B,black,man,,,,null,,,,
null,is dancing with,,html-keyboard-response,387,2358171,0.0-19.0-2.10,74552,List1B,black,man,,,,null,,,,
850,,,survey-text,388,2359027,0.0-19.0-3.10,74552,List1B,black,man,,,,,"{""Q0"":""""}","<img src=""stim_listB/dance3.gif""style=""height:400px;""></stim_listB>",is dancing with,
null,"<div style=""font-size:60px;"">+</div>",,html-keyboard-response,389,2359534,0.0-19.0-0.11,74552,List1B,black,man,,,,null,,,,
null,"<img src=""stim_listB/marry1.gif""style=""height:400px;""></stim_listB>",,html-keyboard-response,390,2361542,0.0-19.0-1.11,74552,List1B,black,man,,,,null,,,,
null,is marrying,,html-keyboard-response,391,2363546,0.0-19.0-2.11,74552,List1B,black,man,,,,null,,,,
620,,,survey-text,392,2364172,0.0-19.0-3.11,74552,List1B,black,man,,,,,"{""Q0"":""""}","<img src=""stim_listB/marry1.gif""style=""height:400px;""></stim_listB>",is marrying,
null,"<div style=""font-size:60px;"">+</div>",,html-keyboard-response,393,2364695,0.0-19.0-0.12,74552,List1B,black,man,,,,null,,,,
null,"<img src=""stim_listB/flirt4.gif""style=""height:400px;""></stim_listB>",,html-keyboard-response,394,2366701,0.0-19.0-1.12,74552,List1B,black,man,,,,null,,,,
null,are flirting with each other,,html-keyboard-response,395,2368706,0.0-19.0-2.12,74552,List1B,black,man,,,,null,,,,
994,,,survey-text,396,2369705,0.0-19.0-3.12,74552,List1B,black,man,,,,,"{""Q0"":""""}","<img src=""stim_listB/flirt4.gif""style=""height:400px;""></stim_listB>",are flirting with each other,
null,"<div style=""font-size:60px;"">+</div>",,html-keyboard-response,397,2370211,0.0-19.0-0.13,74552,List1B,black,man,,,,null,,,,
null,"<img src=""stim_listB/flirt7.gif""style=""height:400px;""></stim_listB>",,html-keyboard-response,398,2372230,0.0-19.0-1.13,74552,List1B,black,man,,,,null,,,,
null,is flirting with,,html-keyboard-response,399,2374234,0.0-19.0-2.13,74552,List1B,black,man,,,,null,,,,
625,,,survey-text,400,2374865,0.0-19.0-3.13,74552,List1B,black,man,,,,,"{""Q0"":""""}","<img src=""stim_listB/flirt7.gif""style=""height:400px;""></stim_listB>",is flirting with,
null,"<div style=""font-size:60px;"">+</div>",,html-keyboard-response,401,2375371,0.0-19.0-0.14,74552,List1B,black,man,,,,null,,,,
null,"<img src=""stim_listB/marry6.gif""style=""height:400px;""></stim_listB>",,html-keyboard-response,402,2377411,0.0-19.0-1.14,74552,List1B,black,man,,,,null,,,,
null,are marrying each other,,html-keyboard-response,403,2379416,0.0-19.0-2.14,74552,List1B,black,man,,,,null,,,,
620,,,survey-text,404,2380040,0.0-19.0-3.14,74552,List1B,black,man,,,,,"{""Q0"":""""}","<img src=""stim_listB/marry6.gif""style=""height:400px;""></stim_listB>",are marrying each other,
null,"<div style=""font-size:60px;"">+</div>",,html-keyboard-response,405,2380546,0.0-19.0-0.15,74552,List1B,black,man,,,,null,,,,
null,"<img src=""stim_listB/talk5.gif""style=""height:400px;""></stim_listB>",,html-keyboard-response,406,2382551,0.0-19.0-1.15,74552,List1B,black,man,,,,null,,,,
null,is talking to,,html-keyboard-response,407,2384554,0.0-19.0-2.15,74552,List1B,black,man,,,,null,,,,
723,,,survey-text,408,2385283,0.0-19.0-3.15,74552,List1B,black,man,,,,,"{""Q0"":""""}","<img src=""stim_listB/talk5.gif""style=""height:400px;""></stim_listB>",is talking to,
null,"<div style=""font-size:60px;"">+</div>",,html-keyboard-response,409,2385789,0.0-19.0-0.16,74552,List1B,black,man,,,,null,,,,
null,"<img src=""stim_listB/argue6.gif""style=""height:400px;""></stim_listB>",,html-keyboard-response,410,2387795,0.0-19.0-1.16,74552,List1B,black,man,,,,null,,,,
null,are arguing with each other,,html-keyboard-response,411,2389801,0.0-19.0-2.16,74552,List1B,black,man,,,,null,,,,
1003,,,survey-text,412,2390809,0.0-19.0-3.16,74552,List1B,black,man,,,,,"{""Q0"":""""}","<img src=""stim_listB/argue6.gif""style=""height:400px;""></stim_listB>",are arguing with each other,
null,"<div style=""font-size:60px;"">+</div>",,html-keyboard-response,413,2391320,0.0-19.0-0.17,74552,List1B,black,man,,,,null,,,,
null,"<img src=""stim_listB/play6.gif""style=""height:400px;""></stim_listB>",,html-keyboard-response,414,2393325,0.0-19.0-1.17,74552,List1B,black,man,,,,null,,,,
null,are playing with each other,,html-keyboard-response,415,2395330,0.0-19.0-2.17,74552,List1B,black,man,,,,null,,,,
616,,,survey-text,416,2395952,0.0-19.0-3.17,74552,List1B,black,man,,,,,"{""Q0"":""""}","<img src=""stim_listB/play6.gif""style=""height:400px;""></stim_listB>",are playing with each other,
null,"<div style=""font-size:60px;"">+</div>",,html-keyboard-response,417,2396458,0.0-19.0-0.18,74552,List1B,black,man,,,,null,,,,
null,"<img src=""stim_listB/fight1.gif""style=""height:400px;""></stim_listB>",,html-keyboard-response,418,2398463,0.0-19.0-1.18,74552,List1B,black,man,,,,null,,,,
null,is fighting,,html-keyboard-response,419,2400468,0.0-19.0-2.18,74552,List1B,black,man,,,,null,,,,
1088,,,survey-text,420,2401563,0.0-19.0-3.18,74552,List1B,black,man,,,,,"{""Q0"":""""}","<img src=""stim_listB/fight1.gif""style=""height:400px;""></stim_listB>",is fighting,
null,"<div style=""font-size:60px;"">+</div>",,html-keyboard-response,421,2402084,0.0-19.0-0.19,74552,List1B,black,man,,,,null,,,,
null,"<img src=""stim_listB/marry8.gif""style=""height:400px;""></stim_listB>",,html-keyboard-response,422,2404090,0.0-19.0-1.19,74552,List1B,black,man,,,,null,,,,
null,are marrying each other,,html-keyboard-response,423,2406095,0.0-19.0-2.19,74552,List1B,black,man,,,,null,,,,
636,,,survey-text,424,2406738,0.0-19.0-3.19,74552,List1B,black,man,,,,,"{""Q0"":""""}","<img src=""stim_listB/marry8.gif""style=""height:400px;""></stim_listB>",are marrying each other,
2892,<p>Thank you for completing that task.</p><p>The final part of this session is a short questionnaire.</p><p>Press Continue.</p>,0,html-button-response,425,2409644,0.0-20.0,74552,List1B,black,man,,,,,,,,
38059,,,survey-text,426,2448713,0.0-21.0,74552,List1B,black,man,,,,,"{""Q0"":""24"",""Q1"":""English"",""Q2"":""English"",""Q3"":""UK"",""Q4"":""Black African"",""Q5"":""Male""}",,,demographics
12471,,,survey-likert,427,2461295,0.0-22.0,74552,List1B,black,man,,,,,"{""Q0"":5}",,,likert_ESS
6105,,,survey-likert,428,2467532,0.0-23.0,74552,List1B,black,man,,,,,"{""Q0"":5}",,,likert_NSSAL_Q1
4838,,,survey-likert,429,2472467,0.0-24.0,74552,List1B,black,man,,,,,"{""Q0"":5}",,,likert_NSSAL_Q2
4226,,,survey-likert,430,2476790,0.0-25.0,74552,List1B,black,man,,,,,"{""Q0"":4}",,,likert_CGRS_Q1
3188,,,survey-likert,431,2480082,0.0-26.0,74552,List1B,black,man,,,,,"{""Q0"":4}",,,likert_CGRS_Q2
3051,,,survey-likert,432,2483244,0.0-27.0,74552,List1B,black,man,,,,,"{""Q0"":4}",,,likert_CGRS_Q3
17847,,,survey-text,433,2501189,0.0-28.0,74552,List1B,black,man,,,,,"{""Q0"":""ccc""}",,,worker_id
24361,,,external-html,434,2526174,0.0-29.0,74552,List1B,black,man,debrief.html,,,,,,,
