rt,stimulus,button_pressed,trial_type,trial_index,time_elapsed,internal_node_id,subject,list,ppt_race,ppt_gender,url,first_guess,correct,key_press,responses,image_type,phrase_type,test_part
3472,Welcome to the experiment. Press Continue to begin.,0,html-button-response,0,3476,0.0-0.0,74856,List1A,black,woman,,,,,,,,
108177,,,external-html,1,112771,0.0-1.0,74856,List1A,black,woman,consent.html,,,,,,,
121800,"<p>On the next page, you will see portraits of 8 people and their names.</p><p>Your first task is to take a few minutes to memorise the names of these people.</p><p>You will have to recall their names during the rest of the experiment, so it is</p><p>essential that you try to memorise these people and their names as best as you can.</p><br><p><strong>You will then be tested on your memory of these names and portraits.</strong></p><br><p>The experiment will start after you have completed this memory test.</p><br><p>Ready?</p>",0,html-button-response,2,234573,0.0-2.0,74856,List1A,black,woman,,,,,,,,
32726,"<img src='img/portrait_matrix_list1.jpg' style='width:900px;height:500px;''></img><p>If you have memorised all the portraits and names and are ready to start, press Continue.</p><p><strong>Please note: Your memory of these faces will be tested 4 times during this experiment.</strong></p>",0,html-button-response,3,268303,0.0-3.0-0.0,74856,List1A,black,woman,,,,,,,,
13925,"<img src=""portrait/BW1.jpg""style=""height:400px;""></img>",3,html-button-response,4,283231,0.0-3.0-1.0,74856,List1A,black,woman,,TRUE,0,,,,,
4037,"<img src=""portrait/BW1.jpg""style=""height:400px;""></img>",0,html-button-response,5,288272,0.0-3.0-3.0-0.0,74856,List1A,black,woman,,FALSE,0,,,,,
null,CORRECT,,html-keyboard-response,6,289777,0.0-3.0-3.0-1.0-0.0,74856,List1A,black,woman,,,,null,,,,
2707,"<img src=""portrait/WW1.jpg""style=""height:400px;""></img>",1,html-button-response,7,292488,0.0-3.0-4.0,74856,List1A,black,woman,,TRUE,1,,,,,
null,CORRECT,,html-keyboard-response,8,293991,0.0-3.0-5.0-0.0,74856,List1A,black,woman,,,,null,,,,
4742,"<img src=""portrait/WW2.jpg""style=""height:400px;""></img>",2,html-button-response,9,298735,0.0-3.0-7.0,74856,List1A,black,woman,,TRUE,3,,,,,
1772,"<img src=""portrait/WW2.jpg""style=""height:400px;""></img>",3,html-button-response,10,301509,0.0-3.0-9.0-0.0,74856,List1A,black,woman,,FALSE,3,,,,,
null,CORRECT,,html-keyboard-response,11,303011,0.0-3.0-9.0-1.0-0.0,74856,List1A,black,woman,,,,null,,,,
4285,"<img src=""portrait/BM1.jpg""style=""height:400px;""></img>",7,html-button-response,12,307298,0.0-3.0-10.0,74856,List1A,black,woman,,TRUE,4,,,,,
2036,"<img src=""portrait/BM1.jpg""style=""height:400px;""></img>",4,html-button-response,13,310338,0.0-3.0-12.0-0.0,74856,List1A,black,woman,,FALSE,4,,,,,
null,CORRECT,,html-keyboard-response,14,311840,0.0-3.0-12.0-1.0-0.0,74856,List1A,black,woman,,,,null,,,,
3500,"<img src=""portrait/WM2.jpg""style=""height:400px;""></img>",5,html-button-response,15,315341,0.0-3.0-13.0,74856,List1A,black,woman,,TRUE,7,,,,,
1537,"<img src=""portrait/WM2.jpg""style=""height:400px;""></img>",7,html-button-response,16,317881,0.0-3.0-15.0-0.0,74856,List1A,black,woman,,FALSE,7,,,,,
null,CORRECT,,html-keyboard-response,17,319384,0.0-3.0-15.0-1.0-0.0,74856,List1A,black,woman,,,,null,,,,
2455,"<img src=""portrait/BM2.jpg""style=""height:400px;""></img>",6,html-button-response,18,321841,0.0-3.0-16.0,74856,List1A,black,woman,,TRUE,5,,,,,
1294,"<img src=""portrait/BM2.jpg""style=""height:400px;""></img>",5,html-button-response,19,324138,0.0-3.0-18.0-0.0,74856,List1A,black,woman,,FALSE,5,,,,,
null,CORRECT,,html-keyboard-response,20,325640,0.0-3.0-18.0-1.0-0.0,74856,List1A,black,woman,,,,null,,,,
1465,"<img src=""portrait/WM1.jpg""style=""height:400px;""></img>",6,html-button-response,21,327107,0.0-3.0-19.0,74856,List1A,black,woman,,TRUE,6,,,,,
null,CORRECT,,html-keyboard-response,22,328609,0.0-3.0-20.0-0.0,74856,List1A,black,woman,,,,null,,,,
10013,"<img src=""portrait/BW2.jpg""style=""height:400px;""></img>",2,html-button-response,23,338624,0.0-3.0-22.0,74856,List1A,black,woman,,TRUE,2,,,,,
null,CORRECT,,html-keyboard-response,24,340127,0.0-3.0-23.0-0.0,74856,List1A,black,woman,,,,null,,,,
2368,<p>You got 3 out of 8 right first time. Press Continue.</p>,0,html-button-response,25,342496,0.0-3.0-25.0,74856,List1A,black,woman,,,,,,,,
2682,"As you did not score 100%, the memory game will repeat. Press Continue.",0,html-button-response,26,346181,0.0-3.0-26.0-0.0,74856,List1A,black,woman,,,,,,,,
911965,"<img src='img/portrait_matrix_list1.jpg' style='width:900px;height:500px;''></img><p>If you have memorised all the portraits and names and are ready to start, press Continue.</p><p><strong>Please note: Your memory of these faces will be tested 4 times during this experiment.</strong></p>",0,html-button-response,27,1259149,0.0-3.1-0.1,74856,List1A,black,woman,,,,,,,,
3755,"<img src=""portrait/BW1.jpg""style=""height:400px;""></img>",0,html-button-response,28,1263909,0.0-3.1-1.1,74856,List1A,black,woman,,TRUE,0,,,,,
null,CORRECT,,html-keyboard-response,29,1265412,0.0-3.1-2.1-0.1,74856,List1A,black,woman,,,,null,,,,
5492,"<img src=""portrait/WW1.jpg""style=""height:400px;""></img>",3,html-button-response,30,1270906,0.0-3.1-4.1,74856,List1A,black,woman,,TRUE,1,,,,,
1909,"<img src=""portrait/WW1.jpg""style=""height:400px;""></img>",1,html-button-response,31,1273818,0.0-3.1-6.1-0.1,74856,List1A,black,woman,,FALSE,1,,,,,
null,CORRECT,,html-keyboard-response,32,1275320,0.0-3.1-6.1-1.1-0.1,74856,List1A,black,woman,,,,null,,,,
17790,"<img src=""portrait/WW2.jpg""style=""height:400px;""></img>",3,html-button-response,33,1293111,0.0-3.1-7.1,74856,List1A,black,woman,,TRUE,3,,,,,
null,CORRECT,,html-keyboard-response,34,1294615,0.0-3.1-8.1-0.1,74856,List1A,black,woman,,,,null,,,,
3029,"<img src=""portrait/BM1.jpg""style=""height:400px;""></img>",4,html-button-response,35,1297645,0.0-3.1-10.1,74856,List1A,black,woman,,TRUE,4,,,,,
null,CORRECT,,html-keyboard-response,36,1299148,0.0-3.1-11.1-0.1,74856,List1A,black,woman,,,,null,,,,
4036,"<img src=""portrait/WM2.jpg""style=""height:400px;""></img>",7,html-button-response,37,1303186,0.0-3.1-13.1,74856,List1A,black,woman,,TRUE,7,,,,,
null,CORRECT,,html-keyboard-response,38,1304689,0.0-3.1-14.1-0.1,74856,List1A,black,woman,,,,null,,,,
2618,"<img src=""portrait/BM2.jpg""style=""height:400px;""></img>",5,html-button-response,39,1307308,0.0-3.1-16.1,74856,List1A,black,woman,,TRUE,5,,,,,
null,CORRECT,,html-keyboard-response,40,1308811,0.0-3.1-17.1-0.1,74856,List1A,black,woman,,,,null,,,,
7153,"<img src=""portrait/WM1.jpg""style=""height:400px;""></img>",6,html-button-response,41,1315965,0.0-3.1-19.1,74856,List1A,black,woman,,TRUE,6,,,,,
null,CORRECT,,html-keyboard-response,42,1317468,0.0-3.1-20.1-0.1,74856,List1A,black,woman,,,,null,,,,
19292,"<img src=""portrait/BW2.jpg""style=""height:400px;""></img>",0,html-button-response,43,1336762,0.0-3.1-22.1,74856,List1A,black,woman,,TRUE,2,,,,,
2752,"<img src=""portrait/BW2.jpg""style=""height:400px;""></img>",2,html-button-response,44,1340516,0.0-3.1-24.1-0.1,74856,List1A,black,woman,,FALSE,2,,,,,
null,CORRECT,,html-keyboard-response,45,1342019,0.0-3.1-24.1-1.1-0.1,74856,List1A,black,woman,,,,null,,,,
2890,<p>You got 6 out of 8 right first time. Press Continue.</p>,0,html-button-response,46,1344911,0.0-3.1-25.1,74856,List1A,black,woman,,,,,,,,
1624,"As you did not score 100%, the memory game will repeat. Press Continue.",0,html-button-response,47,1347537,0.0-3.1-26.1-0.1,74856,List1A,black,woman,,,,,,,,
16170,"<img src='img/portrait_matrix_list1.jpg' style='width:900px;height:500px;''></img><p>If you have memorised all the portraits and names and are ready to start, press Continue.</p><p><strong>Please note: Your memory of these faces will be tested 4 times during this experiment.</strong></p>",0,html-button-response,48,1364709,0.0-3.2-0.2,74856,List1A,black,woman,,,,,,,,
1825,"<img src=""portrait/BW1.jpg""style=""height:400px;""></img>",0,html-button-response,49,1367538,0.0-3.2-1.2,74856,List1A,black,woman,,TRUE,0,,,,,
null,CORRECT,,html-keyboard-response,50,1369040,0.0-3.2-2.2-0.2,74856,List1A,black,woman,,,,null,,,,
7596,"<img src=""portrait/WW1.jpg""style=""height:400px;""></img>",1,html-button-response,51,1376637,0.0-3.2-4.2,74856,List1A,black,woman,,TRUE,1,,,,,
null,CORRECT,,html-keyboard-response,52,1378140,0.0-3.2-5.2-0.2,74856,List1A,black,woman,,,,null,,,,
11701,"<img src=""portrait/WW2.jpg""style=""height:400px;""></img>",3,html-button-response,53,1389843,0.0-3.2-7.2,74856,List1A,black,woman,,TRUE,3,,,,,
null,CORRECT,,html-keyboard-response,54,1391346,0.0-3.2-8.2-0.2,74856,List1A,black,woman,,,,null,,,,
3655,"<img src=""portrait/BM1.jpg""style=""height:400px;""></img>",4,html-button-response,55,1395002,0.0-3.2-10.2,74856,List1A,black,woman,,TRUE,4,,,,,
null,CORRECT,,html-keyboard-response,56,1396504,0.0-3.2-11.2-0.2,74856,List1A,black,woman,,,,null,,,,
14824,"<img src=""portrait/WM2.jpg""style=""height:400px;""></img>",7,html-button-response,57,1411330,0.0-3.2-13.2,74856,List1A,black,woman,,TRUE,7,,,,,
null,CORRECT,,html-keyboard-response,58,1412833,0.0-3.2-14.2-0.2,74856,List1A,black,woman,,,,null,,,,
4222,"<img src=""portrait/BM2.jpg""style=""height:400px;""></img>",5,html-button-response,59,1417057,0.0-3.2-16.2,74856,List1A,black,woman,,TRUE,5,,,,,
null,CORRECT,,html-keyboard-response,60,1418560,0.0-3.2-17.2-0.2,74856,List1A,black,woman,,,,null,,,,
3159,"<img src=""portrait/WM1.jpg""style=""height:400px;""></img>",6,html-button-response,61,1421723,0.0-3.2-19.2,74856,List1A,black,woman,,TRUE,6,,,,,
null,CORRECT,,html-keyboard-response,62,1423225,0.0-3.2-20.2-0.2,74856,List1A,black,woman,,,,null,,,,
2267,"<img src=""portrait/BW2.jpg""style=""height:400px;""></img>",2,html-button-response,63,1425494,0.0-3.2-22.2,74856,List1A,black,woman,,TRUE,2,,,,,
null,CORRECT,,html-keyboard-response,64,1426997,0.0-3.2-23.2-0.2,74856,List1A,black,woman,,,,null,,,,
1417,<p>You got 8 out of 8 right first time. Press Continue.</p>,0,html-button-response,65,1428416,0.0-3.2-25.2,74856,List1A,black,woman,,,,,,,,
31715,"<p>In this experiment, you will view photographs of the people from the memory game interacting.</p><p>By using the <strong>exact</strong> phrase given <i>after</i> the photograph appears and recalling the correct names of the people in the photographs, form a sentence describing the interaction. You do not need to capitalise names.</p><p>Type your answer in the space provided. Please complete every sentence before moving onto the next trial.</p><p>You will only have a few seconds to memorise each given photograph and phrase before you can respond, so try your best to focus.</p><p>An example is given below. Press 'Continue' when you are ready.</p><img src='img/speaking_example.jpg' style='width:800px;height:460px;''></img>",0,html-button-response,66,1461134,0.0-4.0,74856,List1A,black,woman,,,,,,,,
6990,"<p>Before the experiment starts, you will watch two example trials. Press 'Continue'.</p>",0,html-button-response,67,1469127,0.0-5.0,74856,List1A,black,woman,,,,,,,,
null,<img src='img/meet_eg.gif' style='height:400px;''></img>,,html-keyboard-response,68,1472130,0.0-6.0,74856,List1A,black,woman,,,,null,,,,
null,<p>is meeting</p>,,html-keyboard-response,69,1474132,0.0-7.0,74856,List1A,black,woman,,,,null,,,,
4335,<p><b>Answer:</b> kate is meeting beth</p>,0,html-button-response,70,1478468,0.0-8.0,74856,List1A,black,woman,,,,,,,,
null,<img src='img/look_eg.gif' style='height:400px;''></img>,,html-keyboard-response,71,1481470,0.0-9.0,74856,List1A,black,woman,,,,null,,,,
null,<p>are looking at each other</p>,,html-keyboard-response,72,1483471,0.0-10.0,74856,List1A,black,woman,,,,null,,,,
1524,<p><b>Answer:</b> luke and dave are looking at each other</p>,0,html-button-response,73,1484997,0.0-11.0,74856,List1A,black,woman,,,,,,,,
12443,"<p>Ready to start the experiment?</p><br><p><strong>Remember to describe the picture using a full sentence,</strong></p><p><strong>that combines the names of the people with the <i>exact</i> phrase given.</strong></p><p><strong>To receive full payment you must do this correctly.</strong></p><p><strong> You do not need to capitalise names or use punctuation.</strong></p><br><p>Press 'Continue' to begin.</p>",0,html-button-response,74,1498442,0.0-12.0,74856,List1A,black,woman,,,,,,,,
null,"<div style=""font-size:60px;"">+</div>",,html-keyboard-response,75,1499945,0.0-13.0-0.0,74856,List1A,black,woman,,,,null,,,,
null,"<img src=""stim_listA/marry6.gif""style=""height:400px;""></stim_listA>",,html-keyboard-response,76,1501948,0.0-13.0-1.0,74856,List1A,black,woman,,,,null,,,,
null,are marrying each other,,html-keyboard-response,77,1503949,0.0-13.0-2.0,74856,List1A,black,woman,,,,null,,,,
23611,,,survey-text,78,1527562,0.0-13.0-3.0,74856,List1A,black,woman,,,,,"{""Q0"":""fred and Dave are marrying each other""}","<img src=""stim_listA/marry6.gif""style=""height:400px;""></stim_listA>",are marrying each other,
null,"<div style=""font-size:60px;"">+</div>",,html-keyboard-response,79,1528064,0.0-13.0-0.1,74856,List1A,black,woman,,,,null,,,,
null,"<img src=""stim_listA/dance8.gif""style=""height:400px;""></stim_listA>",,html-keyboard-response,80,1530066,0.0-13.0-1.1,74856,List1A,black,woman,,,,null,,,,
null,are dancing with each other,,html-keyboard-response,81,1532068,0.0-13.0-2.1,74856,List1A,black,woman,,,,null,,,,
17348,,,survey-text,82,1549416,0.0-13.0-3.1,74856,List1A,black,woman,,,,,"{""Q0"":""jane and kate are ""}","<img src=""stim_listA/dance8.gif""style=""height:400px;""></stim_listA>",are dancing with each other,
null,"<div style=""font-size:60px;"">+</div>",,html-keyboard-response,83,1549919,0.0-13.0-0.2,74856,List1A,black,woman,,,,null,,,,
null,"<img src=""stim_listA/shout3.gif""style=""height:400px;""></stim_listA>",,html-keyboard-response,84,1551921,0.0-13.0-1.2,74856,List1A,black,woman,,,,null,,,,
null,is shouting at,,html-keyboard-response,85,1553922,0.0-13.0-2.2,74856,List1A,black,woman,,,,null,,,,
31742,,,survey-text,86,1585666,0.0-13.0-3.2,74856,List1A,black,woman,,,,,"{""Q0"":""jane is shouting at kate ""}","<img src=""stim_listA/shout3.gif""style=""height:400px;""></stim_listA>",is shouting at,
null,"<div style=""font-size:60px;"">+</div>",,html-keyboard-response,87,1586167,0.0-13.0-0.3,74856,List1A,black,woman,,,,null,,,,
null,"<img src=""stim_listA/touch8.gif""style=""height:400px;""></stim_listA>",,html-keyboard-response,88,1588168,0.0-13.0-1.3,74856,List1A,black,woman,,,,null,,,,
null,are touching each other,,html-keyboard-response,89,1590170,0.0-13.0-2.3,74856,List1A,black,woman,,,,null,,,,
9730,,,survey-text,90,1599901,0.0-13.0-3.3,74856,List1A,black,woman,,,,,"{""Q0"":""jane and beth""}","<img src=""stim_listA/touch8.gif""style=""height:400px;""></stim_listA>",are touching each other,
null,"<div style=""font-size:60px;"">+</div>",,html-keyboard-response,91,1600403,0.0-13.0-0.4,74856,List1A,black,woman,,,,null,,,,
null,"<img src=""stim_listA/flirt5.gif""style=""height:400px;""></stim_listA>",,html-keyboard-response,92,1602405,0.0-13.0-1.4,74856,List1A,black,woman,,,,null,,,,
null,is flirting with,,html-keyboard-response,93,1604407,0.0-13.0-2.4,74856,List1A,black,woman,,,,null,,,,
12440,,,survey-text,94,1616848,0.0-13.0-3.4,74856,List1A,black,woman,,,,,"{""Q0"":""dave is flirting with fred""}","<img src=""stim_listA/flirt5.gif""style=""height:400px;""></stim_listA>",is flirting with,
null,"<div style=""font-size:60px;"">+</div>",,html-keyboard-response,95,1617350,0.0-13.0-0.5,74856,List1A,black,woman,,,,null,,,,
null,"<img src=""stim_listA/marry2.gif""style=""height:400px;""></stim_listA>",,html-keyboard-response,96,1619352,0.0-13.0-1.5,74856,List1A,black,woman,,,,null,,,,
null,are marrying each other,,html-keyboard-response,97,1621352,0.0-13.0-2.5,74856,List1A,black,woman,,,,null,,,,
8777,,,survey-text,98,1630131,0.0-13.0-3.5,74856,List1A,black,woman,,,,,"{""Q0"":""kate and fred are marrying each other ""}","<img src=""stim_listA/marry2.gif""style=""height:400px;""></stim_listA>",are marrying each other,
null,"<div style=""font-size:60px;"">+</div>",,html-keyboard-response,99,1630633,0.0-13.0-0.6,74856,List1A,black,woman,,,,null,,,,
null,"<img src=""stim_listA/play2.gif""style=""height:400px;""></stim_listA>",,html-keyboard-response,100,1632635,0.0-13.0-1.6,74856,List1A,black,woman,,,,null,,,,
null,are playing with each other,,html-keyboard-response,101,1634636,0.0-13.0-2.6,74856,List1A,black,woman,,,,null,,,,
9438,,,survey-text,102,1644075,0.0-13.0-3.6,74856,List1A,black,woman,,,,,"{""Q0"":""kate and fred are playing with each other ""}","<img src=""stim_listA/play2.gif""style=""height:400px;""></stim_listA>",are playing with each other,
null,"<div style=""font-size:60px;"">+</div>",,html-keyboard-response,103,1644577,0.0-13.0-0.7,74856,List1A,black,woman,,,,null,,,,
null,"<img src=""stim_listA/argue8.gif""style=""height:400px;""></stim_listA>",,html-keyboard-response,104,1646579,0.0-13.0-1.7,74856,List1A,black,woman,,,,null,,,,
null,are arguing with each other,,html-keyboard-response,105,1648580,0.0-13.0-2.7,74856,List1A,black,woman,,,,null,,,,
60257,,,survey-text,106,1708837,0.0-13.0-3.7,74856,List1A,black,woman,,,,,"{""Q0"":""beth and ruth are arguing with each other ""}","<img src=""stim_listA/argue8.gif""style=""height:400px;""></stim_listA>",are arguing with each other,
null,"<div style=""font-size:60px;"">+</div>",,html-keyboard-response,107,1709340,0.0-13.0-0.8,74856,List1A,black,woman,,,,null,,,,
null,"<img src=""stim_listA/shout8.gif""style=""height:400px;""></stim_listA>",,html-keyboard-response,108,1711342,0.0-13.0-1.8,74856,List1A,black,woman,,,,null,,,,
null,are shouting at each other,,html-keyboard-response,109,1713343,0.0-13.0-2.8,74856,List1A,black,woman,,,,null,,,,
14793,,,survey-text,110,1728137,0.0-13.0-3.8,74856,List1A,black,woman,,,,,"{""Q0"":""kate and jane are shouting at each pother ""}","<img src=""stim_listA/shout8.gif""style=""height:400px;""></stim_listA>",are shouting at each other,
null,"<div style=""font-size:60px;"">+</div>",,html-keyboard-response,111,1728639,0.0-13.0-0.9,74856,List1A,black,woman,,,,null,,,,
null,"<img src=""stim_listA/talk3.gif""style=""height:400px;""></stim_listA>",,html-keyboard-response,112,1730641,0.0-13.0-1.9,74856,List1A,black,woman,,,,null,,,,
null,is talking to,,html-keyboard-response,113,1732643,0.0-13.0-2.9,74856,List1A,black,woman,,,,null,,,,
11728,,,survey-text,114,1744371,0.0-13.0-3.9,74856,List1A,black,woman,,,,,"{""Q0"":""luke is talking to jane ""}","<img src=""stim_listA/talk3.gif""style=""height:400px;""></stim_listA>",is talking to,
null,"<div style=""font-size:60px;"">+</div>",,html-keyboard-response,115,1744872,0.0-13.0-0.10,74856,List1A,black,woman,,,,null,,,,
null,"<img src=""stim_listA/flirt7.gif""style=""height:400px;""></stim_listA>",,html-keyboard-response,116,1746874,0.0-13.0-1.10,74856,List1A,black,woman,,,,null,,,,
null,is flirting with,,html-keyboard-response,117,1748876,0.0-13.0-2.10,74856,List1A,black,woman,,,,null,,,,
10085,,,survey-text,118,1758961,0.0-13.0-3.10,74856,List1A,black,woman,,,,,"{""Q0"":""jane is flirting with beth""}","<img src=""stim_listA/flirt7.gif""style=""height:400px;""></stim_listA>",is flirting with,
null,"<div style=""font-size:60px;"">+</div>",,html-keyboard-response,119,1759463,0.0-13.0-0.11,74856,List1A,black,woman,,,,null,,,,
null,"<img src=""stim_listA/marry8.gif""style=""height:400px;""></stim_listA>",,html-keyboard-response,120,1761464,0.0-13.0-1.11,74856,List1A,black,woman,,,,null,,,,
null,are marrying each other,,html-keyboard-response,121,1763465,0.0-13.0-2.11,74856,List1A,black,woman,,,,null,,,,
14487,,,survey-text,122,1777953,0.0-13.0-3.11,74856,List1A,black,woman,,,,,"{""Q0"":""jane and beth are marrying each other ""}","<img src=""stim_listA/marry8.gif""style=""height:400px;""></stim_listA>",are marrying each other,
null,"<div style=""font-size:60px;"">+</div>",,html-keyboard-response,123,1778454,0.0-13.0-0.12,74856,List1A,black,woman,,,,null,,,,
null,"<img src=""stim_listA/kiss3.gif""style=""height:400px;""></stim_listA>",,html-keyboard-response,124,1780456,0.0-13.0-1.12,74856,List1A,black,woman,,,,null,,,,
null,is kissing,,html-keyboard-response,125,1782457,0.0-13.0-2.12,74856,List1A,black,woman,,,,null,,,,
12755,,,survey-text,126,1795214,0.0-13.0-3.12,74856,List1A,black,woman,,,,,"{""Q0"":""luke and ruth are kissing each other ""}","<img src=""stim_listA/kiss3.gif""style=""height:400px;""></stim_listA>",is kissing,
null,"<div style=""font-size:60px;"">+</div>",,html-keyboard-response,127,1795715,0.0-13.0-0.13,74856,List1A,black,woman,,,,null,,,,
null,"<img src=""stim_listA/flirt2.gif""style=""height:400px;""></stim_listA>",,html-keyboard-response,128,1797717,0.0-13.0-1.13,74856,List1A,black,woman,,,,null,,,,
null,are flirting with each other,,html-keyboard-response,129,1799719,0.0-13.0-2.13,74856,List1A,black,woman,,,,null,,,,
13778,,,survey-text,130,1813498,0.0-13.0-3.13,74856,List1A,black,woman,,,,,"{""Q0"":""jane and mike are smiling with each other ""}","<img src=""stim_listA/flirt2.gif""style=""height:400px;""></stim_listA>",are flirting with each other,
null,"<div style=""font-size:60px;"">+</div>",,html-keyboard-response,131,1814000,0.0-13.0-0.14,74856,List1A,black,woman,,,,null,,,,
null,"<img src=""stim_listA/touch7.gif""style=""height:400px;""></stim_listA>",,html-keyboard-response,132,1816001,0.0-13.0-1.14,74856,List1A,black,woman,,,,null,,,,
null,is touching,,html-keyboard-response,133,1818003,0.0-13.0-2.14,74856,List1A,black,woman,,,,null,,,,
20379,,,survey-text,134,1838383,0.0-13.0-3.14,74856,List1A,black,woman,,,,,"{""Q0"":""jane is touching kate ""}","<img src=""stim_listA/touch7.gif""style=""height:400px;""></stim_listA>",is touching,
null,"<div style=""font-size:60px;"">+</div>",,html-keyboard-response,135,1838884,0.0-13.0-0.15,74856,List1A,black,woman,,,,null,,,,
null,"<img src=""stim_listA/shout6.gif""style=""height:400px;""></stim_listA>",,html-keyboard-response,136,1840886,0.0-13.0-1.15,74856,List1A,black,woman,,,,null,,,,
null,are shouting at each other,,html-keyboard-response,137,1842889,0.0-13.0-2.15,74856,List1A,black,woman,,,,null,,,,
14319,,,survey-text,138,1857208,0.0-13.0-3.15,74856,List1A,black,woman,,,,,"{""Q0"":""mike and dave are shouting at each other ""}","<img src=""stim_listA/shout6.gif""style=""height:400px;""></stim_listA>",are shouting at each other,
null,"<div style=""font-size:60px;"">+</div>",,html-keyboard-response,139,1857710,0.0-13.0-0.16,74856,List1A,black,woman,,,,null,,,,
null,"<img src=""stim_listA/play3.gif""style=""height:400px;""></stim_listA>",,html-keyboard-response,140,1859712,0.0-13.0-1.16,74856,List1A,black,woman,,,,null,,,,
null,is playing with,,html-keyboard-response,141,1861713,0.0-13.0-2.16,74856,List1A,black,woman,,,,null,,,,
9975,,,survey-text,142,1871689,0.0-13.0-3.16,74856,List1A,black,woman,,,,,"{""Q0"":""jane is playing with dave ""}","<img src=""stim_listA/play3.gif""style=""height:400px;""></stim_listA>",is playing with,
null,"<div style=""font-size:60px;"">+</div>",,html-keyboard-response,143,1872192,0.0-13.0-0.17,74856,List1A,black,woman,,,,null,,,,
null,"<img src=""stim_listA/dance3.gif""style=""height:400px;""></stim_listA>",,html-keyboard-response,144,1874194,0.0-13.0-1.17,74856,List1A,black,woman,,,,null,,,,
null,is dancing with,,html-keyboard-response,145,1876195,0.0-13.0-2.17,74856,List1A,black,woman,,,,null,,,,
6753,,,survey-text,146,1882950,0.0-13.0-3.17,74856,List1A,black,woman,,,,,"{""Q0"":""luke is dancing with jane ""}","<img src=""stim_listA/dance3.gif""style=""height:400px;""></stim_listA>",is dancing with,
null,"<div style=""font-size:60px;"">+</div>",,html-keyboard-response,147,1883452,0.0-13.0-0.18,74856,List1A,black,woman,,,,null,,,,
null,"<img src=""stim_listA/argue3.gif""style=""height:400px;""></stim_listA>",,html-keyboard-response,148,1885454,0.0-13.0-1.18,74856,List1A,black,woman,,,,null,,,,
null,is arguing with,,html-keyboard-response,149,1887455,0.0-13.0-2.18,74856,List1A,black,woman,,,,null,,,,
7918,,,survey-text,150,1895375,0.0-13.0-3.18,74856,List1A,black,woman,,,,,"{""Q0"":""dave is arguing with ruth ""}","<img src=""stim_listA/argue3.gif""style=""height:400px;""></stim_listA>",is arguing with,
null,"<div style=""font-size:60px;"">+</div>",,html-keyboard-response,151,1895876,0.0-13.0-0.19,74856,List1A,black,woman,,,,null,,,,
null,"<img src=""stim_listA/argue4.gif""style=""height:400px;""></stim_listA>",,html-keyboard-response,152,1897878,0.0-13.0-1.19,74856,List1A,black,woman,,,,null,,,,
null,are arguing with each other,,html-keyboard-response,153,1899879,0.0-13.0-2.19,74856,List1A,black,woman,,,,null,,,,
10617,,,survey-text,154,1910497,0.0-13.0-3.19,74856,List1A,black,woman,,,,,"{""Q0"":""luke and jane are arguing with each other ""}","<img src=""stim_listA/argue4.gif""style=""height:400px;""></stim_listA>",are arguing with each other,
11787,"<img src='img/portrait_matrix_list1.jpg' style='width:900px;height:500px;''></img><p>If you have memorised all the portraits and names and are ready to start, press Continue.</p><p><strong>Please note: Your memory of these faces will be tested 4 times during this experiment.</strong></p>",0,html-button-response,155,1922286,0.0-14.0-0.0,74856,List1A,black,woman,,,,,,,,
3266,"<img src=""portrait/WM1.jpg""style=""height:400px;""></img>",6,html-button-response,156,1926555,0.0-14.0-1.0,74856,List1A,black,woman,,TRUE,6,,,,,
null,CORRECT,,html-keyboard-response,157,1928058,0.0-14.0-2.0-0.0,74856,List1A,black,woman,,,,null,,,,
1722,"<img src=""portrait/WW2.jpg""style=""height:400px;""></img>",3,html-button-response,158,1929781,0.0-14.0-4.0,74856,List1A,black,woman,,TRUE,3,,,,,
null,CORRECT,,html-keyboard-response,159,1931283,0.0-14.0-5.0-0.0,74856,List1A,black,woman,,,,null,,,,
2469,"<img src=""portrait/WW1.jpg""style=""height:400px;""></img>",1,html-button-response,160,1933754,0.0-14.0-7.0,74856,List1A,black,woman,,TRUE,1,,,,,
null,CORRECT,,html-keyboard-response,161,1935257,0.0-14.0-8.0-0.0,74856,List1A,black,woman,,,,null,,,,
2018,"<img src=""portrait/BW1.jpg""style=""height:400px;""></img>",0,html-button-response,162,1937276,0.0-14.0-10.0,74856,List1A,black,woman,,TRUE,0,,,,,
null,CORRECT,,html-keyboard-response,163,1938779,0.0-14.0-11.0-0.0,74856,List1A,black,woman,,,,null,,,,
1872,"<img src=""portrait/BM2.jpg""style=""height:400px;""></img>",5,html-button-response,164,1940652,0.0-14.0-13.0,74856,List1A,black,woman,,TRUE,5,,,,,
null,CORRECT,,html-keyboard-response,165,1942154,0.0-14.0-14.0-0.0,74856,List1A,black,woman,,,,null,,,,
1822,"<img src=""portrait/BM1.jpg""style=""height:400px;""></img>",4,html-button-response,166,1943977,0.0-14.0-16.0,74856,List1A,black,woman,,TRUE,4,,,,,
null,CORRECT,,html-keyboard-response,167,1945480,0.0-14.0-17.0-0.0,74856,List1A,black,woman,,,,null,,,,
1455,"<img src=""portrait/WM2.jpg""style=""height:400px;""></img>",7,html-button-response,168,1946937,0.0-14.0-19.0,74856,List1A,black,woman,,TRUE,7,,,,,
null,CORRECT,,html-keyboard-response,169,1948441,0.0-14.0-20.0-0.0,74856,List1A,black,woman,,,,null,,,,
1682,"<img src=""portrait/BW2.jpg""style=""height:400px;""></img>",2,html-button-response,170,1950124,0.0-14.0-22.0,74856,List1A,black,woman,,TRUE,2,,,,,
null,CORRECT,,html-keyboard-response,171,1951627,0.0-14.0-23.0-0.0,74856,List1A,black,woman,,,,null,,,,
1573,<p>You got 8 out of 8 right first time. Press Continue.</p>,0,html-button-response,172,1953202,0.0-14.0-25.0,74856,List1A,black,woman,,,,,,,,
null,"<div style=""font-size:60px;"">+</div>",,html-keyboard-response,173,1954705,0.0-15.0-0.0,74856,List1A,black,woman,,,,null,,,,
null,"<img src=""stim_listA/talk5.gif""style=""height:400px;""></stim_listA>",,html-keyboard-response,174,1956706,0.0-15.0-1.0,74856,List1A,black,woman,,,,null,,,,
null,is talking to,,html-keyboard-response,175,1958707,0.0-15.0-2.0,74856,List1A,black,woman,,,,null,,,,
10527,,,survey-text,176,1969236,0.0-15.0-3.0,74856,List1A,black,woman,,,,,"{""Q0"":""fred is talking to dave ""}","<img src=""stim_listA/talk5.gif""style=""height:400px;""></stim_listA>",is talking to,
null,"<div style=""font-size:60px;"">+</div>",,html-keyboard-response,177,1969738,0.0-15.0-0.1,74856,List1A,black,woman,,,,null,,,,
null,"<img src=""stim_listA/talk8.gif""style=""height:400px;""></stim_listA>",,html-keyboard-response,178,1971739,0.0-15.0-1.1,74856,List1A,black,woman,,,,null,,,,
null,are talking to each other,,html-keyboard-response,179,1973741,0.0-15.0-2.1,74856,List1A,black,woman,,,,null,,,,
10703,,,survey-text,180,1984444,0.0-15.0-3.1,74856,List1A,black,woman,,,,,"{""Q0"":""kate and ruth are talking to each other ""}","<img src=""stim_listA/talk8.gif""style=""height:400px;""></stim_listA>",are talking to each other,
null,"<div style=""font-size:60px;"">+</div>",,html-keyboard-response,181,1984946,0.0-15.0-0.2,74856,List1A,black,woman,,,,null,,,,
null,"<img src=""stim_listA/dance7.gif""style=""height:400px;""></stim_listA>",,html-keyboard-response,182,1986948,0.0-15.0-1.2,74856,List1A,black,woman,,,,null,,,,
null,is dancing with,,html-keyboard-response,183,1988949,0.0-15.0-2.2,74856,List1A,black,woman,,,,null,,,,
20922,,,survey-text,184,2009873,0.0-15.0-3.2,74856,List1A,black,woman,,,,,"{""Q0"":""jane and beth are dancing with each other ""}","<img src=""stim_listA/dance7.gif""style=""height:400px;""></stim_listA>",is dancing with,
null,"<div style=""font-size:60px;"">+</div>",,html-keyboard-response,185,2010375,0.0-15.0-0.3,74856,List1A,black,woman,,,,null,,,,
null,"<img src=""stim_listA/talk2.gif""style=""height:400px;""></stim_listA>",,html-keyboard-response,186,2012377,0.0-15.0-1.3,74856,List1A,black,woman,,,,null,,,,
null,are talking to each other,,html-keyboard-response,187,2014378,0.0-15.0-2.3,74856,List1A,black,woman,,,,null,,,,
35985,,,survey-text,188,2050364,0.0-15.0-3.3,74856,List1A,black,woman,,,,,"{""Q0"":""mike and beth are talking to each other""}","<img src=""stim_listA/talk2.gif""style=""height:400px;""></stim_listA>",are talking to each other,
null,"<div style=""font-size:60px;"">+</div>",,html-keyboard-response,189,2050866,0.0-15.0-0.4,74856,List1A,black,woman,,,,null,,,,
null,"<img src=""stim_listA/fight8.gif""style=""height:400px;""></stim_listA>",,html-keyboard-response,190,2052868,0.0-15.0-1.4,74856,List1A,black,woman,,,,null,,,,
null,are fighting each other,,html-keyboard-response,191,2054869,0.0-15.0-2.4,74856,List1A,black,woman,,,,null,,,,
15334,,,survey-text,192,2070204,0.0-15.0-3.4,74856,List1A,black,woman,,,,,"{""Q0"":""ruth and beth are fighting each other ""}","<img src=""stim_listA/fight8.gif""style=""height:400px;""></stim_listA>",are fighting each other,
null,"<div style=""font-size:60px;"">+</div>",,html-keyboard-response,193,2070706,0.0-15.0-0.5,74856,List1A,black,woman,,,,null,,,,
null,"<img src=""stim_listA/touch2.gif""style=""height:400px;""></stim_listA>",,html-keyboard-response,194,2072708,0.0-15.0-1.5,74856,List1A,black,woman,,,,null,,,,
null,are touching each other,,html-keyboard-response,195,2074709,0.0-15.0-2.5,74856,List1A,black,woman,,,,null,,,,
22146,,,survey-text,196,2096855,0.0-15.0-3.5,74856,List1A,black,woman,,,,,"{""Q0"":""fred and beth are touching each other ""}","<img src=""stim_listA/touch2.gif""style=""height:400px;""></stim_listA>",are touching each other,
null,"<div style=""font-size:60px;"">+</div>",,html-keyboard-response,197,2097357,0.0-15.0-0.6,74856,List1A,black,woman,,,,null,,,,
null,"<img src=""stim_listA/marry7.gif""style=""height:400px;""></stim_listA>",,html-keyboard-response,198,2099359,0.0-15.0-1.6,74856,List1A,black,woman,,,,null,,,,
null,is marrying,,html-keyboard-response,199,2101360,0.0-15.0-2.6,74856,List1A,black,woman,,,,null,,,,
11592,,,survey-text,200,2112954,0.0-15.0-3.6,74856,List1A,black,woman,,,,,"{""Q0"":""kate is marrying ruth ""}","<img src=""stim_listA/marry7.gif""style=""height:400px;""></stim_listA>",is marrying,
null,"<div style=""font-size:60px;"">+</div>",,html-keyboard-response,201,2113456,0.0-15.0-0.7,74856,List1A,black,woman,,,,null,,,,
null,"<img src=""stim_listA/fight2.gif""style=""height:400px;""></stim_listA>",,html-keyboard-response,202,2115458,0.0-15.0-1.7,74856,List1A,black,woman,,,,null,,,,
null,are fighting each other,,html-keyboard-response,203,2117459,0.0-15.0-2.7,74856,List1A,black,woman,,,,null,,,,
11870,,,survey-text,204,2129329,0.0-15.0-3.7,74856,List1A,black,woman,,,,,"{""Q0"":""beth and fred are fighting each other ""}","<img src=""stim_listA/fight2.gif""style=""height:400px;""></stim_listA>",are fighting each other,
null,"<div style=""font-size:60px;"">+</div>",,html-keyboard-response,205,2129831,0.0-15.0-0.8,74856,List1A,black,woman,,,,null,,,,
null,"<img src=""stim_listA/kiss7.gif""style=""height:400px;""></stim_listA>",,html-keyboard-response,206,2131833,0.0-15.0-1.8,74856,List1A,black,woman,,,,null,,,,
null,is kissing,,html-keyboard-response,207,2133834,0.0-15.0-2.8,74856,List1A,black,woman,,,,null,,,,
11204,,,survey-text,208,2145039,0.0-15.0-3.8,74856,List1A,black,woman,,,,,"{""Q0"":""ruth is kissing beth ""}","<img src=""stim_listA/kiss7.gif""style=""height:400px;""></stim_listA>",is kissing,
null,"<div style=""font-size:60px;"">+</div>",,html-keyboard-response,209,2145541,0.0-15.0-0.9,74856,List1A,black,woman,,,,null,,,,
null,"<img src=""stim_listA/marry1.gif""style=""height:400px;""></stim_listA>",,html-keyboard-response,210,2147543,0.0-15.0-1.9,74856,List1A,black,woman,,,,null,,,,
null,is marrying,,html-keyboard-response,211,2149545,0.0-15.0-2.9,74856,List1A,black,woman,,,,null,,,,
13938,,,survey-text,212,2163484,0.0-15.0-3.9,74856,List1A,black,woman,,,,,"{""Q0"":""mike is marrying beth ""}","<img src=""stim_listA/marry1.gif""style=""height:400px;""></stim_listA>",is marrying,
null,"<div style=""font-size:60px;"">+</div>",,html-keyboard-response,213,2163987,0.0-15.0-0.10,74856,List1A,black,woman,,,,null,,,,
null,"<img src=""stim_listA/touch3.gif""style=""height:400px;""></stim_listA>",,html-keyboard-response,214,2165989,0.0-15.0-1.10,74856,List1A,black,woman,,,,null,,,,
null,is touching,,html-keyboard-response,215,2167991,0.0-15.0-2.10,74856,List1A,black,woman,,,,null,,,,
20935,,,survey-text,216,2188928,0.0-15.0-3.10,74856,List1A,black,woman,,,,,"{""Q0"":""dave is touching jane ""}","<img src=""stim_listA/touch3.gif""style=""height:400px;""></stim_listA>",is touching,
null,"<div style=""font-size:60px;"">+</div>",,html-keyboard-response,217,2189430,0.0-15.0-0.11,74856,List1A,black,woman,,,,null,,,,
null,"<img src=""stim_listA/argue2.gif""style=""height:400px;""></stim_listA>",,html-keyboard-response,218,2191432,0.0-15.0-1.11,74856,List1A,black,woman,,,,null,,,,
null,are arguing with each other,,html-keyboard-response,219,2193434,0.0-15.0-2.11,74856,List1A,black,woman,,,,null,,,,
15118,,,survey-text,220,2208552,0.0-15.0-3.11,74856,List1A,black,woman,,,,,"{""Q0"":""fred and kate are arguing with each other ""}","<img src=""stim_listA/argue2.gif""style=""height:400px;""></stim_listA>",are arguing with each other,
null,"<div style=""font-size:60px;"">+</div>",,html-keyboard-response,221,2209054,0.0-15.0-0.12,74856,List1A,black,woman,,,,null,,,,
null,"<img src=""stim_listA/touch5.gif""style=""height:400px;""></stim_listA>",,html-keyboard-response,222,2211056,0.0-15.0-1.12,74856,List1A,black,woman,,,,null,,,,
null,is touching,,html-keyboard-response,223,2213057,0.0-15.0-2.12,74856,List1A,black,woman,,,,null,,,,
11386,,,survey-text,224,2224444,0.0-15.0-3.12,74856,List1A,black,woman,,,,,"{""Q0"":""mike is touching dave""}","<img src=""stim_listA/touch5.gif""style=""height:400px;""></stim_listA>",is touching,
null,"<div style=""font-size:60px;"">+</div>",,html-keyboard-response,225,2224946,0.0-15.0-0.13,74856,List1A,black,woman,,,,null,,,,
null,"<img src=""stim_listA/play1.gif""style=""height:400px;""></stim_listA>",,html-keyboard-response,226,2226947,0.0-15.0-1.13,74856,List1A,black,woman,,,,null,,,,
null,is playing with,,html-keyboard-response,227,2228949,0.0-15.0-2.13,74856,List1A,black,woman,,,,null,,,,
13973,,,survey-text,228,2242923,0.0-15.0-3.13,74856,List1A,black,woman,,,,,"{""Q0"":""mike is playing with kate ""}","<img src=""stim_listA/play1.gif""style=""height:400px;""></stim_listA>",is playing with,
null,"<div style=""font-size:60px;"">+</div>",,html-keyboard-response,229,2243425,0.0-15.0-0.14,74856,List1A,black,woman,,,,null,,,,
null,"<img src=""stim_listA/shout1.gif""style=""height:400px;""></stim_listA>",,html-keyboard-response,230,2245427,0.0-15.0-1.14,74856,List1A,black,woman,,,,null,,,,
null,is shouting at,,html-keyboard-response,231,2247429,0.0-15.0-2.14,74856,List1A,black,woman,,,,null,,,,
10046,,,survey-text,232,2257477,0.0-15.0-3.14,74856,List1A,black,woman,,,,,"{""Q0"":""fred is shouting at beth""}","<img src=""stim_listA/shout1.gif""style=""height:400px;""></stim_listA>",is shouting at,
null,"<div style=""font-size:60px;"">+</div>",,html-keyboard-response,233,2257978,0.0-15.0-0.15,74856,List1A,black,woman,,,,null,,,,
null,"<img src=""stim_listA/fight3.gif""style=""height:400px;""></stim_listA>",,html-keyboard-response,234,2259980,0.0-15.0-1.15,74856,List1A,black,woman,,,,null,,,,
null,is fighting,,html-keyboard-response,235,2261981,0.0-15.0-2.15,74856,List1A,black,woman,,,,null,,,,
6043,,,survey-text,236,2268025,0.0-15.0-3.15,74856,List1A,black,woman,,,,,"{""Q0"":""dave is fighting jane ""}","<img src=""stim_listA/fight3.gif""style=""height:400px;""></stim_listA>",is fighting,
null,"<div style=""font-size:60px;"">+</div>",,html-keyboard-response,237,2268526,0.0-15.0-0.16,74856,List1A,black,woman,,,,null,,,,
null,"<img src=""stim_listA/play8.gif""style=""height:400px;""></stim_listA>",,html-keyboard-response,238,2270528,0.0-15.0-1.16,74856,List1A,black,woman,,,,null,,,,
null,are playing with each other,,html-keyboard-response,239,2272529,0.0-15.0-2.16,74856,List1A,black,woman,,,,null,,,,
14159,,,survey-text,240,2286690,0.0-15.0-3.16,74856,List1A,black,woman,,,,,"{""Q0"":""ruth and beth are playing with each other ""}","<img src=""stim_listA/play8.gif""style=""height:400px;""></stim_listA>",are playing with each other,
null,"<div style=""font-size:60px;"">+</div>",,html-keyboard-response,241,2287191,0.0-15.0-0.17,74856,List1A,black,woman,,,,null,,,,
null,"<img src=""stim_listA/flirt4.gif""style=""height:400px;""></stim_listA>",,html-keyboard-response,242,2289192,0.0-15.0-1.17,74856,List1A,black,woman,,,,null,,,,
null,are flirting with each other,,html-keyboard-response,243,2291194,0.0-15.0-2.17,74856,List1A,black,woman,,,,null,,,,
9093,,,survey-text,244,2300288,0.0-15.0-3.17,74856,List1A,black,woman,,,,,"{""Q0"":""dave and ruth are flirting with each other ""}","<img src=""stim_listA/flirt4.gif""style=""height:400px;""></stim_listA>",are flirting with each other,
null,"<div style=""font-size:60px;"">+</div>",,html-keyboard-response,245,2300790,0.0-15.0-0.18,74856,List1A,black,woman,,,,null,,,,
null,"<img src=""stim_listA/shout7.gif""style=""height:400px;""></stim_listA>",,html-keyboard-response,246,2302792,0.0-15.0-1.18,74856,List1A,black,woman,,,,null,,,,
null,is shouting at,,html-keyboard-response,247,2304793,0.0-15.0-2.18,74856,List1A,black,woman,,,,null,,,,
15604,,,survey-text,248,2320398,0.0-15.0-3.18,74856,List1A,black,woman,,,,,"{""Q0"":""beth is shouting at ruth ""}","<img src=""stim_listA/shout7.gif""style=""height:400px;""></stim_listA>",is shouting at,
null,"<div style=""font-size:60px;"">+</div>",,html-keyboard-response,249,2320902,0.0-15.0-0.19,74856,List1A,black,woman,,,,null,,,,
null,"<img src=""stim_listA/touch4.gif""style=""height:400px;""></stim_listA>",,html-keyboard-response,250,2322903,0.0-15.0-1.19,74856,List1A,black,woman,,,,null,,,,
null,are touching each other,,html-keyboard-response,251,2324904,0.0-15.0-2.19,74856,List1A,black,woman,,,,null,,,,
9314,,,survey-text,252,2334220,0.0-15.0-3.19,74856,List1A,black,woman,,,,,"{""Q0"":""luke and ruth are touching each other ""}","<img src=""stim_listA/touch4.gif""style=""height:400px;""></stim_listA>",are touching each other,
108688,"<img src='img/portrait_matrix_list1.jpg' style='width:900px;height:500px;''></img><p>If you have memorised all the portraits and names and are ready to start, press Continue.</p><p><strong>Please note: Your memory of these faces will be tested 4 times during this experiment.</strong></p>",0,html-button-response,253,2442910,0.0-16.0-0.0,74856,List1A,black,woman,,,,,,,,
2262,"<img src=""portrait/WW1.jpg""style=""height:400px;""></img>",1,html-button-response,254,2446174,0.0-16.0-1.0,74856,List1A,black,woman,,TRUE,1,,,,,
null,CORRECT,,html-keyboard-response,255,2447676,0.0-16.0-2.0-0.0,74856,List1A,black,woman,,,,null,,,,
1987,"<img src=""portrait/WM2.jpg""style=""height:400px;""></img>",7,html-button-response,256,2449665,0.0-16.0-4.0,74856,List1A,black,woman,,TRUE,7,,,,,
null,CORRECT,,html-keyboard-response,257,2451167,0.0-16.0-5.0-0.0,74856,List1A,black,woman,,,,null,,,,
3147,"<img src=""portrait/WW2.jpg""style=""height:400px;""></img>",3,html-button-response,258,2454315,0.0-16.0-7.0,74856,List1A,black,woman,,TRUE,3,,,,,
null,CORRECT,,html-keyboard-response,259,2455818,0.0-16.0-8.0-0.0,74856,List1A,black,woman,,,,null,,,,
1309,"<img src=""portrait/BM1.jpg""style=""height:400px;""></img>",4,html-button-response,260,2457128,0.0-16.0-10.0,74856,List1A,black,woman,,TRUE,4,,,,,
null,CORRECT,,html-keyboard-response,261,2458631,0.0-16.0-11.0-0.0,74856,List1A,black,woman,,,,null,,,,
1504,"<img src=""portrait/BW1.jpg""style=""height:400px;""></img>",0,html-button-response,262,2460136,0.0-16.0-13.0,74856,List1A,black,woman,,TRUE,0,,,,,
null,CORRECT,,html-keyboard-response,263,2461640,0.0-16.0-14.0-0.0,74856,List1A,black,woman,,,,null,,,,
1477,"<img src=""portrait/BW2.jpg""style=""height:400px;""></img>",2,html-button-response,264,2463118,0.0-16.0-16.0,74856,List1A,black,woman,,TRUE,2,,,,,
null,CORRECT,,html-keyboard-response,265,2464620,0.0-16.0-17.0-0.0,74856,List1A,black,woman,,,,null,,,,
2245,"<img src=""portrait/BM2.jpg""style=""height:400px;""></img>",5,html-button-response,266,2466867,0.0-16.0-19.0,74856,List1A,black,woman,,TRUE,5,,,,,
null,CORRECT,,html-keyboard-response,267,2468369,0.0-16.0-20.0-0.0,74856,List1A,black,woman,,,,null,,,,
2571,"<img src=""portrait/WM1.jpg""style=""height:400px;""></img>",6,html-button-response,268,2470941,0.0-16.0-22.0,74856,List1A,black,woman,,TRUE,6,,,,,
null,CORRECT,,html-keyboard-response,269,2472443,0.0-16.0-23.0-0.0,74856,List1A,black,woman,,,,null,,,,
1162,<p>You got 8 out of 8 right first time. Press Continue.</p>,0,html-button-response,270,2473606,0.0-16.0-25.0,74856,List1A,black,woman,,,,,,,,
null,"<div style=""font-size:60px;"">+</div>",,html-keyboard-response,271,2475109,0.0-17.0-0.0,74856,List1A,black,woman,,,,null,,,,
null,"<img src=""stim_listA/argue1.gif""style=""height:400px;""></stim_listA>",,html-keyboard-response,272,2477111,0.0-17.0-1.0,74856,List1A,black,woman,,,,null,,,,
null,is arguing with,,html-keyboard-response,273,2479113,0.0-17.0-2.0,74856,List1A,black,woman,,,,null,,,,
21596,,,survey-text,274,2500709,0.0-17.0-3.0,74856,List1A,black,woman,,,,,"{""Q0"":""mike is arguing with beth""}","<img src=""stim_listA/argue1.gif""style=""height:400px;""></stim_listA>",is arguing with,
null,"<div style=""font-size:60px;"">+</div>",,html-keyboard-response,275,2501211,0.0-17.0-0.1,74856,List1A,black,woman,,,,null,,,,
null,"<img src=""stim_listA/flirt8.gif""style=""height:400px;""></stim_listA>",,html-keyboard-response,276,2503213,0.0-17.0-1.1,74856,List1A,black,woman,,,,null,,,,
null,are flirting with each other,,html-keyboard-response,277,2505214,0.0-17.0-2.1,74856,List1A,black,woman,,,,null,,,,
15802,,,survey-text,278,2521017,0.0-17.0-3.1,74856,List1A,black,woman,,,,,"{""Q0"":""ruth and kate are flirting with each other ""}","<img src=""stim_listA/flirt8.gif""style=""height:400px;""></stim_listA>",are flirting with each other,
null,"<div style=""font-size:60px;"">+</div>",,html-keyboard-response,279,2521519,0.0-17.0-0.2,74856,List1A,black,woman,,,,null,,,,
null,"<img src=""stim_listA/kiss4.gif""style=""height:400px;""></stim_listA>",,html-keyboard-response,280,2523520,0.0-17.0-1.2,74856,List1A,black,woman,,,,null,,,,
null,are kissing each other,,html-keyboard-response,281,2525522,0.0-17.0-2.2,74856,List1A,black,woman,,,,null,,,,
9579,,,survey-text,282,2535101,0.0-17.0-3.2,74856,List1A,black,woman,,,,,"{""Q0"":""mike and jane are kissing each other ""}","<img src=""stim_listA/kiss4.gif""style=""height:400px;""></stim_listA>",are kissing each other,
null,"<div style=""font-size:60px;"">+</div>",,html-keyboard-response,283,2535603,0.0-17.0-0.3,74856,List1A,black,woman,,,,null,,,,
null,"<img src=""stim_listA/dance1.gif""style=""height:400px;""></stim_listA>",,html-keyboard-response,284,2537605,0.0-17.0-1.3,74856,List1A,black,woman,,,,null,,,,
null,is dancing with,,html-keyboard-response,285,2539606,0.0-17.0-2.3,74856,List1A,black,woman,,,,null,,,,
6087,,,survey-text,286,2545695,0.0-17.0-3.3,74856,List1A,black,woman,,,,,"{""Q0"":""fred is dancing with kate ""}","<img src=""stim_listA/dance1.gif""style=""height:400px;""></stim_listA>",is dancing with,
null,"<div style=""font-size:60px;"">+</div>",,html-keyboard-response,287,2546196,0.0-17.0-0.4,74856,List1A,black,woman,,,,null,,,,
null,"<img src=""stim_listA/shout2.gif""style=""height:400px;""></stim_listA>",,html-keyboard-response,288,2548198,0.0-17.0-1.4,74856,List1A,black,woman,,,,null,,,,
null,are shouting at each other,,html-keyboard-response,289,2550200,0.0-17.0-2.4,74856,List1A,black,woman,,,,null,,,,
9376,,,survey-text,290,2559577,0.0-17.0-3.4,74856,List1A,black,woman,,,,,"{""Q0"":""mike and kate are shouting at each other ""}","<img src=""stim_listA/shout2.gif""style=""height:400px;""></stim_listA>",are shouting at each other,
null,"<div style=""font-size:60px;"">+</div>",,html-keyboard-response,291,2560079,0.0-17.0-0.5,74856,List1A,black,woman,,,,null,,,,
null,"<img src=""stim_listA/fight6.gif""style=""height:400px;""></stim_listA>",,html-keyboard-response,292,2562081,0.0-17.0-1.5,74856,List1A,black,woman,,,,null,,,,
null,are fighting each other,,html-keyboard-response,293,2564082,0.0-17.0-2.5,74856,List1A,black,woman,,,,null,,,,
11460,,,survey-text,294,2575543,0.0-17.0-3.5,74856,List1A,black,woman,,,,,"{""Q0"":""luke and fred are fighting each other ""}","<img src=""stim_listA/fight6.gif""style=""height:400px;""></stim_listA>",are fighting each other,
null,"<div style=""font-size:60px;"">+</div>",,html-keyboard-response,295,2576044,0.0-17.0-0.6,74856,List1A,black,woman,,,,null,,,,
null,"<img src=""stim_listA/flirt6.gif""style=""height:400px;""></stim_listA>",,html-keyboard-response,296,2578046,0.0-17.0-1.6,74856,List1A,black,woman,,,,null,,,,
null,are flirting with each other,,html-keyboard-response,297,2580047,0.0-17.0-2.6,74856,List1A,black,woman,,,,null,,,,
12598,,,survey-text,298,2592647,0.0-17.0-3.6,74856,List1A,black,woman,,,,,"{""Q0"":""luke and mike are flirting with each other ""}","<img src=""stim_listA/flirt6.gif""style=""height:400px;""></stim_listA>",are flirting with each other,
null,"<div style=""font-size:60px;"">+</div>",,html-keyboard-response,299,2593149,0.0-17.0-0.7,74856,List1A,black,woman,,,,null,,,,
null,"<img src=""stim_listA/kiss1.gif""style=""height:400px;""></stim_listA>",,html-keyboard-response,300,2595151,0.0-17.0-1.7,74856,List1A,black,woman,,,,null,,,,
null,is kissing,,html-keyboard-response,301,2597733,0.0-17.0-2.7,74856,List1A,black,woman,,,,null,,,,
11987,,,survey-text,302,2609720,0.0-17.0-3.7,74856,List1A,black,woman,,,,,"{""Q0"":""fred is kissing beth ""}","<img src=""stim_listA/kiss1.gif""style=""height:400px;""></stim_listA>",is kissing,
null,"<div style=""font-size:60px;"">+</div>",,html-keyboard-response,303,2610222,0.0-17.0-0.8,74856,List1A,black,woman,,,,null,,,,
null,"<img src=""stim_listA/kiss5.gif""style=""height:400px;""></stim_listA>",,html-keyboard-response,304,2612224,0.0-17.0-1.8,74856,List1A,black,woman,,,,null,,,,
null,is kissing,,html-keyboard-response,305,2614224,0.0-17.0-2.8,74856,List1A,black,woman,,,,null,,,,
6462,,,survey-text,306,2620687,0.0-17.0-3.8,74856,List1A,black,woman,,,,,"{""Q0"":""fred is kissing luke ""}","<img src=""stim_listA/kiss5.gif""style=""height:400px;""></stim_listA>",is kissing,
null,"<div style=""font-size:60px;"">+</div>",,html-keyboard-response,307,2621190,0.0-17.0-0.9,74856,List1A,black,woman,,,,null,,,,
null,"<img src=""stim_listA/shout5.gif""style=""height:400px;""></stim_listA>",,html-keyboard-response,308,2623192,0.0-17.0-1.9,74856,List1A,black,woman,,,,null,,,,
null,is shouting at,,html-keyboard-response,309,2625193,0.0-17.0-2.9,74856,List1A,black,woman,,,,null,,,,
10038,,,survey-text,310,2635232,0.0-17.0-3.9,74856,List1A,black,woman,,,,,"{""Q0"":""fred is shouting at luke ""}","<img src=""stim_listA/shout5.gif""style=""height:400px;""></stim_listA>",is shouting at,
null,"<div style=""font-size:60px;"">+</div>",,html-keyboard-response,311,2635734,0.0-17.0-0.10,74856,List1A,black,woman,,,,null,,,,
null,"<img src=""stim_listA/dance6.gif""style=""height:400px;""></stim_listA>",,html-keyboard-response,312,2637735,0.0-17.0-1.10,74856,List1A,black,woman,,,,null,,,,
null,are dancing with each other,,html-keyboard-response,313,2639737,0.0-17.0-2.10,74856,List1A,black,woman,,,,null,,,,
14842,,,survey-text,314,2654580,0.0-17.0-3.10,74856,List1A,black,woman,,,,,"{""Q0"":""luke and mike are dancing with each other ""}","<img src=""stim_listA/dance6.gif""style=""height:400px;""></stim_listA>",are dancing with each other,
null,"<div style=""font-size:60px;"">+</div>",,html-keyboard-response,315,2655082,0.0-17.0-0.11,74856,List1A,black,woman,,,,null,,,,
null,"<img src=""stim_listA/talk4.gif""style=""height:400px;""></stim_listA>",,html-keyboard-response,316,2657084,0.0-17.0-1.11,74856,List1A,black,woman,,,,null,,,,
null,are talking to each other,,html-keyboard-response,317,2659085,0.0-17.0-2.11,74856,List1A,black,woman,,,,null,,,,
10269,,,survey-text,318,2669356,0.0-17.0-3.11,74856,List1A,black,woman,,,,,"{""Q0"":""dave and ruth are talking to each other ""}","<img src=""stim_listA/talk4.gif""style=""height:400px;""></stim_listA>",are talking to each other,
null,"<div style=""font-size:60px;"">+</div>",,html-keyboard-response,319,2669857,0.0-17.0-0.12,74856,List1A,black,woman,,,,null,,,,
null,"<img src=""stim_listA/play7.gif""style=""height:400px;""></stim_listA>",,html-keyboard-response,320,2671860,0.0-17.0-1.12,74856,List1A,black,woman,,,,null,,,,
null,is playing with,,html-keyboard-response,321,2673860,0.0-17.0-2.12,74856,List1A,black,woman,,,,null,,,,
6128,,,survey-text,322,2679990,0.0-17.0-3.12,74856,List1A,black,woman,,,,,"{""Q0"":""jane is playing with kate ""}","<img src=""stim_listA/play7.gif""style=""height:400px;""></stim_listA>",is playing with,
null,"<div style=""font-size:60px;"">+</div>",,html-keyboard-response,323,2680491,0.0-17.0-0.13,74856,List1A,black,woman,,,,null,,,,
null,"<img src=""stim_listA/touch1.gif""style=""height:400px;""></stim_listA>",,html-keyboard-response,324,2682493,0.0-17.0-1.13,74856,List1A,black,woman,,,,null,,,,
null,is touching,,html-keyboard-response,325,2684494,0.0-17.0-2.13,74856,List1A,black,woman,,,,null,,,,
7180,,,survey-text,326,2691675,0.0-17.0-3.13,74856,List1A,black,woman,,,,,"{""Q0"":""mike is touching kate""}","<img src=""stim_listA/touch1.gif""style=""height:400px;""></stim_listA>",is touching,
null,"<div style=""font-size:60px;"">+</div>",,html-keyboard-response,327,2692177,0.0-17.0-0.14,74856,List1A,black,woman,,,,null,,,,
null,"<img src=""stim_listA/talk6.gif""style=""height:400px;""></stim_listA>",,html-keyboard-response,328,2694179,0.0-17.0-1.14,74856,List1A,black,woman,,,,null,,,,
null,are talking to each other,,html-keyboard-response,329,2696181,0.0-17.0-2.14,74856,List1A,black,woman,,,,null,,,,
7311,,,survey-text,330,2703492,0.0-17.0-3.14,74856,List1A,black,woman,,,,,"{""Q0"":""luke and mike are talking to each other ""}","<img src=""stim_listA/talk6.gif""style=""height:400px;""></stim_listA>",are talking to each other,
null,"<div style=""font-size:60px;"">+</div>",,html-keyboard-response,331,2703996,0.0-17.0-0.15,74856,List1A,black,woman,,,,null,,,,
null,"<img src=""stim_listA/fight1.gif""style=""height:400px;""></stim_listA>",,html-keyboard-response,332,2705997,0.0-17.0-1.15,74856,List1A,black,woman,,,,null,,,,
null,is fighting,,html-keyboard-response,333,2707999,0.0-17.0-2.15,74856,List1A,black,woman,,,,null,,,,
8750,,,survey-text,334,2716751,0.0-17.0-3.15,74856,List1A,black,woman,,,,,"{""Q0"":""mike is fighting kate ""}","<img src=""stim_listA/fight1.gif""style=""height:400px;""></stim_listA>",is fighting,
null,"<div style=""font-size:60px;"">+</div>",,html-keyboard-response,335,2717252,0.0-17.0-0.16,74856,List1A,black,woman,,,,null,,,,
null,"<img src=""stim_listA/argue5.gif""style=""height:400px;""></stim_listA>",,html-keyboard-response,336,2719254,0.0-17.0-1.16,74856,List1A,black,woman,,,,null,,,,
null,is arguing with,,html-keyboard-response,337,2721256,0.0-17.0-2.16,74856,List1A,black,woman,,,,null,,,,
7295,,,survey-text,338,2728551,0.0-17.0-3.16,74856,List1A,black,woman,,,,,"{""Q0"":""mike is arguing with luke ""}","<img src=""stim_listA/argue5.gif""style=""height:400px;""></stim_listA>",is arguing with,
null,"<div style=""font-size:60px;"">+</div>",,html-keyboard-response,339,2729053,0.0-17.0-0.17,74856,List1A,black,woman,,,,null,,,,
null,"<img src=""stim_listA/flirt1.gif""style=""height:400px;""></stim_listA>",,html-keyboard-response,340,2731055,0.0-17.0-1.17,74856,List1A,black,woman,,,,null,,,,
null,is flirting with,,html-keyboard-response,341,2733057,0.0-17.0-2.17,74856,List1A,black,woman,,,,null,,,,
7430,,,survey-text,342,2740487,0.0-17.0-3.17,74856,List1A,black,woman,,,,,"{""Q0"":""fred is flirting with kate ""}","<img src=""stim_listA/flirt1.gif""style=""height:400px;""></stim_listA>",is flirting with,
null,"<div style=""font-size:60px;"">+</div>",,html-keyboard-response,343,2740990,0.0-17.0-0.18,74856,List1A,black,woman,,,,null,,,,
null,"<img src=""stim_listA/fight5.gif""style=""height:400px;""></stim_listA>",,html-keyboard-response,344,2742991,0.0-17.0-1.18,74856,List1A,black,woman,,,,null,,,,
null,is fighting,,html-keyboard-response,345,2744993,0.0-17.0-2.18,74856,List1A,black,woman,,,,null,,,,
5534,,,survey-text,346,2750529,0.0-17.0-3.18,74856,List1A,black,woman,,,,,"{""Q0"":""dave is fighting mike ""}","<img src=""stim_listA/fight5.gif""style=""height:400px;""></stim_listA>",is fighting,
null,"<div style=""font-size:60px;"">+</div>",,html-keyboard-response,347,2751031,0.0-17.0-0.19,74856,List1A,black,woman,,,,null,,,,
null,"<img src=""stim_listA/argue7.gif""style=""height:400px;""></stim_listA>",,html-keyboard-response,348,2753033,0.0-17.0-1.19,74856,List1A,black,woman,,,,null,,,,
null,is arguing with,,html-keyboard-response,349,2755035,0.0-17.0-2.19,74856,List1A,black,woman,,,,null,,,,
10285,,,survey-text,350,2765321,0.0-17.0-3.19,74856,List1A,black,woman,,,,,"{""Q0"":""ruth is arguing with Kate ""}","<img src=""stim_listA/argue7.gif""style=""height:400px;""></stim_listA>",is arguing with,
4842,"<img src='img/portrait_matrix_list1.jpg' style='width:900px;height:500px;''></img><p>If you have memorised all the portraits and names and are ready to start, press Continue.</p><p><strong>Please note: Your memory of these faces will be tested 4 times during this experiment.</strong></p>",0,html-button-response,351,2770165,0.0-18.0-0.0,74856,List1A,black,woman,,,,,,,,
1880,"<img src=""portrait/WW1.jpg""style=""height:400px;""></img>",1,html-button-response,352,2773048,0.0-18.0-1.0,74856,List1A,black,woman,,TRUE,1,,,,,
null,CORRECT,,html-keyboard-response,353,2774550,0.0-18.0-2.0-0.0,74856,List1A,black,woman,,,,null,,,,
1884,"<img src=""portrait/BW2.jpg""style=""height:400px;""></img>",2,html-button-response,354,2776436,0.0-18.0-4.0,74856,List1A,black,woman,,TRUE,2,,,,,
null,CORRECT,,html-keyboard-response,355,2777939,0.0-18.0-5.0-0.0,74856,List1A,black,woman,,,,null,,,,
2718,"<img src=""portrait/WM1.jpg""style=""height:400px;""></img>",6,html-button-response,356,2780659,0.0-18.0-7.0,74856,List1A,black,woman,,TRUE,6,,,,,
null,CORRECT,,html-keyboard-response,357,2782161,0.0-18.0-8.0-0.0,74856,List1A,black,woman,,,,null,,,,
1308,"<img src=""portrait/BM1.jpg""style=""height:400px;""></img>",4,html-button-response,358,2783471,0.0-18.0-10.0,74856,List1A,black,woman,,TRUE,4,,,,,
null,CORRECT,,html-keyboard-response,359,2784974,0.0-18.0-11.0-0.0,74856,List1A,black,woman,,,,null,,,,
2029,"<img src=""portrait/WM2.jpg""style=""height:400px;""></img>",7,html-button-response,360,2787005,0.0-18.0-13.0,74856,List1A,black,woman,,TRUE,7,,,,,
null,CORRECT,,html-keyboard-response,361,2788507,0.0-18.0-14.0-0.0,74856,List1A,black,woman,,,,null,,,,
9123,"<img src=""portrait/WW2.jpg""style=""height:400px;""></img>",3,html-button-response,362,2797632,0.0-18.0-16.0,74856,List1A,black,woman,,TRUE,3,,,,,
null,CORRECT,,html-keyboard-response,363,2799134,0.0-18.0-17.0-0.0,74856,List1A,black,woman,,,,null,,,,
1797,"<img src=""portrait/BW1.jpg""style=""height:400px;""></img>",0,html-button-response,364,2800933,0.0-18.0-19.0,74856,List1A,black,woman,,TRUE,0,,,,,
null,CORRECT,,html-keyboard-response,365,2802436,0.0-18.0-20.0-0.0,74856,List1A,black,woman,,,,null,,,,
2226,"<img src=""portrait/BM2.jpg""style=""height:400px;""></img>",5,html-button-response,366,2804664,0.0-18.0-22.0,74856,List1A,black,woman,,TRUE,5,,,,,
null,CORRECT,,html-keyboard-response,367,2806166,0.0-18.0-23.0-0.0,74856,List1A,black,woman,,,,null,,,,
1052,<p>You got 8 out of 8 right first time. Press Continue.</p>,0,html-button-response,368,2807220,0.0-18.0-25.0,74856,List1A,black,woman,,,,,,,,
null,"<div style=""font-size:60px;"">+</div>",,html-keyboard-response,369,2808722,0.0-19.0-0.0,74856,List1A,black,woman,,,,null,,,,
null,"<img src=""stim_listA/fight7.gif""style=""height:400px;""></stim_listA>",,html-keyboard-response,370,2810725,0.0-19.0-1.0,74856,List1A,black,woman,,,,null,,,,
null,is fighting,,html-keyboard-response,371,2812726,0.0-19.0-2.0,74856,List1A,black,woman,,,,null,,,,
10632,,,survey-text,372,2823360,0.0-19.0-3.0,74856,List1A,black,woman,,,,,"{""Q0"":""jane is fighting kate ""}","<img src=""stim_listA/fight7.gif""style=""height:400px;""></stim_listA>",is fighting,
null,"<div style=""font-size:60px;"">+</div>",,html-keyboard-response,373,2823861,0.0-19.0-0.1,74856,List1A,black,woman,,,,null,,,,
null,"<img src=""stim_listA/dance5.gif""style=""height:400px;""></stim_listA>",,html-keyboard-response,374,2825864,0.0-19.0-1.1,74856,List1A,black,woman,,,,null,,,,
null,is dancing with,,html-keyboard-response,375,2827865,0.0-19.0-2.1,74856,List1A,black,woman,,,,null,,,,
72234,,,survey-text,376,2900099,0.0-19.0-3.1,74856,List1A,black,woman,,,,,"{""Q0"":""fred is dancing with mike ""}","<img src=""stim_listA/dance5.gif""style=""height:400px;""></stim_listA>",is dancing with,
null,"<div style=""font-size:60px;"">+</div>",,html-keyboard-response,377,2900601,0.0-19.0-0.2,74856,List1A,black,woman,,,,null,,,,
null,"<img src=""stim_listA/marry5.gif""style=""height:400px;""></stim_listA>",,html-keyboard-response,378,2902603,0.0-19.0-1.2,74856,List1A,black,woman,,,,null,,,,
null,is marrying,,html-keyboard-response,379,2904604,0.0-19.0-2.2,74856,List1A,black,woman,,,,null,,,,
10832,,,survey-text,380,2915437,0.0-19.0-3.2,74856,List1A,black,woman,,,,,"{""Q0"":""mike is marrying luke ""}","<img src=""stim_listA/marry5.gif""style=""height:400px;""></stim_listA>",is marrying,
null,"<div style=""font-size:60px;"">+</div>",,html-keyboard-response,381,2915939,0.0-19.0-0.3,74856,List1A,black,woman,,,,null,,,,
null,"<img src=""stim_listA/play4.gif""style=""height:400px;""></stim_listA>",,html-keyboard-response,382,2917941,0.0-19.0-1.3,74856,List1A,black,woman,,,,null,,,,
null,are playing with each other,,html-keyboard-response,383,2919942,0.0-19.0-2.3,74856,List1A,black,woman,,,,null,,,,
119640,,,survey-text,384,3039584,0.0-19.0-3.3,74856,List1A,black,woman,,,,,"{""Q0"":""ruth and luke are playing with each other ""}","<img src=""stim_listA/play4.gif""style=""height:400px;""></stim_listA>",are playing with each other,
null,"<div style=""font-size:60px;"">+</div>",,html-keyboard-response,385,3040085,0.0-19.0-0.4,74856,List1A,black,woman,,,,null,,,,
null,"<img src=""stim_listA/talk1.gif""style=""height:400px;""></stim_listA>",,html-keyboard-response,386,3042087,0.0-19.0-1.4,74856,List1A,black,woman,,,,null,,,,
null,is talking to,,html-keyboard-response,387,3044088,0.0-19.0-2.4,74856,List1A,black,woman,,,,null,,,,
7193,,,survey-text,388,3051283,0.0-19.0-3.4,74856,List1A,black,woman,,,,,"{""Q0"":""fred is talking to kate ""}","<img src=""stim_listA/talk1.gif""style=""height:400px;""></stim_listA>",is talking to,
null,"<div style=""font-size:60px;"">+</div>",,html-keyboard-response,389,3051785,0.0-19.0-0.5,74856,List1A,black,woman,,,,null,,,,
null,"<img src=""stim_listA/play5.gif""style=""height:400px;""></stim_listA>",,html-keyboard-response,390,3053787,0.0-19.0-1.5,74856,List1A,black,woman,,,,null,,,,
null,is playing with,,html-keyboard-response,391,3055789,0.0-19.0-2.5,74856,List1A,black,woman,,,,null,,,,
10411,,,survey-text,392,3066201,0.0-19.0-3.5,74856,List1A,black,woman,,,,,"{""Q0"":""dave is playing with mike ""}","<img src=""stim_listA/play5.gif""style=""height:400px;""></stim_listA>",is playing with,
null,"<div style=""font-size:60px;"">+</div>",,html-keyboard-response,393,3066703,0.0-19.0-0.6,74856,List1A,black,woman,,,,null,,,,
null,"<img src=""stim_listA/touch6.gif""style=""height:400px;""></stim_listA>",,html-keyboard-response,394,3068705,0.0-19.0-1.6,74856,List1A,black,woman,,,,null,,,,
null,are touching each other,,html-keyboard-response,395,3070707,0.0-19.0-2.6,74856,List1A,black,woman,,,,null,,,,
14853,,,survey-text,396,3085561,0.0-19.0-3.6,74856,List1A,black,woman,,,,,"{""Q0"":""luke is touch fred""}","<img src=""stim_listA/touch6.gif""style=""height:400px;""></stim_listA>",are touching each other,
null,"<div style=""font-size:60px;"">+</div>",,html-keyboard-response,397,3086063,0.0-19.0-0.7,74856,List1A,black,woman,,,,null,,,,
null,"<img src=""stim_listA/marry4.gif""style=""height:400px;""></stim_listA>",,html-keyboard-response,398,3088065,0.0-19.0-1.7,74856,List1A,black,woman,,,,null,,,,
null,are marrying each other,,html-keyboard-response,399,3090066,0.0-19.0-2.7,74856,List1A,black,woman,,,,null,,,,
151371,,,survey-text,400,3241438,0.0-19.0-3.7,74856,List1A,black,woman,,,,,"{""Q0"":""luke and jane are marrying each other ""}","<img src=""stim_listA/marry4.gif""style=""height:400px;""></stim_listA>",are marrying each other,
null,"<div style=""font-size:60px;"">+</div>",,html-keyboard-response,401,3241941,0.0-19.0-0.8,74856,List1A,black,woman,,,,null,,,,
null,"<img src=""stim_listA/flirt3.gif""style=""height:400px;""></stim_listA>",,html-keyboard-response,402,3243943,0.0-19.0-1.8,74856,List1A,black,woman,,,,null,,,,
null,is flirting with,,html-keyboard-response,403,3245944,0.0-19.0-2.8,74856,List1A,black,woman,,,,null,,,,
6514,,,survey-text,404,3252460,0.0-19.0-3.8,74856,List1A,black,woman,,,,,"{""Q0"":""luke is flirting with jane ""}","<img src=""stim_listA/flirt3.gif""style=""height:400px;""></stim_listA>",is flirting with,
null,"<div style=""font-size:60px;"">+</div>",,html-keyboard-response,405,3252962,0.0-19.0-0.9,74856,List1A,black,woman,,,,null,,,,
null,"<img src=""stim_listA/marry3.gif""style=""height:400px;""></stim_listA>",,html-keyboard-response,406,3254963,0.0-19.0-1.9,74856,List1A,black,woman,,,,null,,,,
null,is marrying,,html-keyboard-response,407,3256965,0.0-19.0-2.9,74856,List1A,black,woman,,,,null,,,,
13454,,,survey-text,408,3270420,0.0-19.0-3.9,74856,List1A,black,woman,,,,,"{""Q0"":""ruth is marrying dave ""}","<img src=""stim_listA/marry3.gif""style=""height:400px;""></stim_listA>",is marrying,
null,"<div style=""font-size:60px;"">+</div>",,html-keyboard-response,409,3270922,0.0-19.0-0.10,74856,List1A,black,woman,,,,null,,,,
null,"<img src=""stim_listA/dance4.gif""style=""height:400px;""></stim_listA>",,html-keyboard-response,410,3272924,0.0-19.0-1.10,74856,List1A,black,woman,,,,null,,,,
null,are dancing with each other,,html-keyboard-response,411,3274925,0.0-19.0-2.10,74856,List1A,black,woman,,,,null,,,,
205977,,,survey-text,412,3480904,0.0-19.0-3.10,74856,List1A,black,woman,,,,,"{""Q0"":""ruth and dave are dancing with each other ""}","<img src=""stim_listA/dance4.gif""style=""height:400px;""></stim_listA>",are dancing with each other,
null,"<div style=""font-size:60px;"">+</div>",,html-keyboard-response,413,3481406,0.0-19.0-0.11,74856,List1A,black,woman,,,,null,,,,
null,"<img src=""stim_listA/argue6.gif""style=""height:400px;""></stim_listA>",,html-keyboard-response,414,3483408,0.0-19.0-1.11,74856,List1A,black,woman,,,,null,,,,
null,are arguing with each other,,html-keyboard-response,415,3485409,0.0-19.0-2.11,74856,List1A,black,woman,,,,null,,,,
39981,,,survey-text,416,3525391,0.0-19.0-3.11,74856,List1A,black,woman,,,,,"{""Q0"":""fred and dave are arguing with each other ""}","<img src=""stim_listA/argue6.gif""style=""height:400px;""></stim_listA>",are arguing with each other,
null,"<div style=""font-size:60px;"">+</div>",,html-keyboard-response,417,3525893,0.0-19.0-0.12,74856,List1A,black,woman,,,,null,,,,
null,"<img src=""stim_listA/talk7.gif""style=""height:400px;""></stim_listA>",,html-keyboard-response,418,3527895,0.0-19.0-1.12,74856,List1A,black,woman,,,,null,,,,
null,is talking to,,html-keyboard-response,419,3529897,0.0-19.0-2.12,74856,List1A,black,woman,,,,null,,,,
10457,,,survey-text,420,3540355,0.0-19.0-3.12,74856,List1A,black,woman,,,,,"{""Q0"":""jane is arguing with beth ""}","<img src=""stim_listA/talk7.gif""style=""height:400px;""></stim_listA>",is talking to,
null,"<div style=""font-size:60px;"">+</div>",,html-keyboard-response,421,3540856,0.0-19.0-0.13,74856,List1A,black,woman,,,,null,,,,
null,"<img src=""stim_listA/fight4.gif""style=""height:400px;""></stim_listA>",,html-keyboard-response,422,3542859,0.0-19.0-1.13,74856,List1A,black,woman,,,,null,,,,
null,are fighting each other,,html-keyboard-response,423,3544860,0.0-19.0-2.13,74856,List1A,black,woman,,,,null,,,,
8331,,,survey-text,424,3553193,0.0-19.0-3.13,74856,List1A,black,woman,,,,,"{""Q0"":""ruth and luke are fighting each other ""}","<img src=""stim_listA/fight4.gif""style=""height:400px;""></stim_listA>",are fighting each other,
null,"<div style=""font-size:60px;"">+</div>",,html-keyboard-response,425,3553694,0.0-19.0-0.14,74856,List1A,black,woman,,,,null,,,,
null,"<img src=""stim_listA/kiss2.gif""style=""height:400px;""></stim_listA>",,html-keyboard-response,426,3555697,0.0-19.0-1.14,74856,List1A,black,woman,,,,null,,,,
null,are kissing each other,,html-keyboard-response,427,3557698,0.0-19.0-2.14,74856,List1A,black,woman,,,,null,,,,
7396,,,survey-text,428,3565096,0.0-19.0-3.14,74856,List1A,black,woman,,,,,"{""Q0"":""kate and mike are kissing each other ""}","<img src=""stim_listA/kiss2.gif""style=""height:400px;""></stim_listA>",are kissing each other,
null,"<div style=""font-size:60px;"">+</div>",,html-keyboard-response,429,3565598,0.0-19.0-0.15,74856,List1A,black,woman,,,,null,,,,
null,"<img src=""stim_listA/play6.gif""style=""height:400px;""></stim_listA>",,html-keyboard-response,430,3567600,0.0-19.0-1.15,74856,List1A,black,woman,,,,null,,,,
null,are playing with each other,,html-keyboard-response,431,3569601,0.0-19.0-2.15,74856,List1A,black,woman,,,,null,,,,
19256,,,survey-text,432,3588859,0.0-19.0-3.15,74856,List1A,black,woman,,,,,"{""Q0"":""luke and fred are flirting with each other ""}","<img src=""stim_listA/play6.gif""style=""height:400px;""></stim_listA>",are playing with each other,
null,"<div style=""font-size:60px;"">+</div>",,html-keyboard-response,433,3589360,0.0-19.0-0.16,74856,List1A,black,woman,,,,null,,,,
null,"<img src=""stim_listA/kiss6.gif""style=""height:400px;""></stim_listA>",,html-keyboard-response,434,3591362,0.0-19.0-1.16,74856,List1A,black,woman,,,,null,,,,
null,are kissing each other,,html-keyboard-response,435,3593363,0.0-19.0-2.16,74856,List1A,black,woman,,,,null,,,,
10835,,,survey-text,436,3604199,0.0-19.0-3.16,74856,List1A,black,woman,,,,,"{""Q0"":""mike and dave are kissing each other ""}","<img src=""stim_listA/kiss6.gif""style=""height:400px;""></stim_listA>",are kissing each other,
null,"<div style=""font-size:60px;"">+</div>",,html-keyboard-response,437,3604702,0.0-19.0-0.17,74856,List1A,black,woman,,,,null,,,,
null,"<img src=""stim_listA/shout4.gif""style=""height:400px;""></stim_listA>",,html-keyboard-response,438,3606704,0.0-19.0-1.17,74856,List1A,black,woman,,,,null,,,,
null,are shouting at each other,,html-keyboard-response,439,3608706,0.0-19.0-2.17,74856,List1A,black,woman,,,,null,,,,
13565,,,survey-text,440,3622273,0.0-19.0-3.17,74856,List1A,black,woman,,,,,"{""Q0"":""jane and dave are shouting at each other ""}","<img src=""stim_listA/shout4.gif""style=""height:400px;""></stim_listA>",are shouting at each other,
null,"<div style=""font-size:60px;"">+</div>",,html-keyboard-response,441,3622775,0.0-19.0-0.18,74856,List1A,black,woman,,,,null,,,,
null,"<img src=""stim_listA/kiss8.gif""style=""height:400px;""></stim_listA>",,html-keyboard-response,442,3624776,0.0-19.0-1.18,74856,List1A,black,woman,,,,null,,,,
null,are kissing each other,,html-keyboard-response,443,3626778,0.0-19.0-2.18,74856,List1A,black,woman,,,,null,,,,
10773,,,survey-text,444,3637551,0.0-19.0-3.18,74856,List1A,black,woman,,,,,"{""Q0"":""jane and kate are kissing each other ""}","<img src=""stim_listA/kiss8.gif""style=""height:400px;""></stim_listA>",are kissing each other,
null,"<div style=""font-size:60px;"">+</div>",,html-keyboard-response,445,3638054,0.0-19.0-0.19,74856,List1A,black,woman,,,,null,,,,
null,"<img src=""stim_listA/dance2.gif""style=""height:400px;""></stim_listA>",,html-keyboard-response,446,3640056,0.0-19.0-1.19,74856,List1A,black,woman,,,,null,,,,
null,are dancing with each other,,html-keyboard-response,447,3642057,0.0-19.0-2.19,74856,List1A,black,woman,,,,null,,,,
12705,,,survey-text,448,3654763,0.0-19.0-3.19,74856,List1A,black,woman,,,,,"{""Q0"":""mike and beth are dancing with each other ""}","<img src=""stim_listA/dance2.gif""style=""height:400px;""></stim_listA>",are dancing with each other,
3373,<p>Thank you for completing that task.</p><p>The final part of this session is a short questionnaire.</p><p>Press Continue.</p>,0,html-button-response,449,3658137,0.0-20.0,74856,List1A,black,woman,,,,,,,,
29190,,,survey-text,450,3688329,0.0-21.0,74856,List1A,black,woman,,,,,"{""Q0"":""22"",""Q1"":""english "",""Q2"":""english "",""Q3"":""USA"",""Q4"":""black "",""Q5"":""female ""}",,,demographics
8885,,,survey-likert,451,3697218,0.0-22.0,74856,List1A,black,woman,,,,,"{""Q0"":4}",,,likert_ESS
14526,,,survey-likert,452,3711747,0.0-23.0,74856,List1A,black,woman,,,,,"{""Q0"":4}",,,likert_NSSAL_Q1
3518,,,survey-likert,453,3715267,0.0-24.0,74856,List1A,black,woman,,,,,"{""Q0"":4}",,,likert_NSSAL_Q2
2614,,,survey-likert,454,3717883,0.0-25.0,74856,List1A,black,woman,,,,,"{""Q0"":4}",,,likert_CGRS_Q1
3293,,,survey-likert,455,3721178,0.0-26.0,74856,List1A,black,woman,,,,,"{""Q0"":4}",,,likert_CGRS_Q2
7804,,,survey-likert,456,3728985,0.0-27.0,74856,List1A,black,woman,,,,,"{""Q0"":4}",,,likert_CGRS_Q3
7547,,,survey-text,457,3736534,0.0-28.0,74856,List1A,black,woman,,,,,"{""Q0"":""ccc""}",,,worker_id
6072,,,external-html,458,3742828,0.0-29.0,74856,List1A,black,woman,debrief.html,,,,,,,
