rt,stimulus,button_pressed,trial_type,trial_index,time_elapsed,internal_node_id,subject,list,ppt_race,ppt_gender,url,first_guess,correct,key_press,responses,image_type,phrase_type,test_part
4352,Welcome to the experiment. Press Continue to begin.,0,html-button-response,0,4358,0.0-0.0,74897,List1B,black,woman,,,,,,,,
21414,,,external-html,1,26888,0.0-1.0,74897,List1B,black,woman,consent.html,,,,,,,
14808,"<p>On the next page, you will see portraits of 8 people and their names.</p><p>Your first task is to take a few minutes to memorise the names of these people.</p><p>You will have to recall their names during the rest of the experiment, so it is</p><p>essential that you try to memorise these people and their names as best as you can.</p><br><p><strong>You will then be tested on your memory of these names and portraits.</strong></p><br><p>The experiment will start after you have completed this memory test.</p><br><p>Ready?</p>",0,html-button-response,2,41699,0.0-2.0,74897,List1B,black,woman,,,,,,,,
33322,"<img src='img/portrait_matrix_list1.jpg' style='width:900px;height:500px;''></img><p>If you have memorised all the portraits and names and are ready to start, press Continue.</p><p><strong>Please note: Your memory of these faces will be tested 4 times during this experiment.</strong></p>",0,html-button-response,3,76028,0.0-3.0-0.0,74897,List1B,black,woman,,,,,,,,
5589,"<img src=""portrait/BW1.jpg""style=""height:400px;""></img>",0,html-button-response,4,82621,0.0-3.0-1.0,74897,List1B,black,woman,,TRUE,0,,,,,
null,CORRECT,,html-keyboard-response,5,84129,0.0-3.0-2.0-0.0,74897,List1B,black,woman,,,,null,,,,
5395,"<img src=""portrait/BW2.jpg""style=""height:400px;""></img>",2,html-button-response,6,89527,0.0-3.0-4.0,74897,List1B,black,woman,,TRUE,2,,,,,
null,CORRECT,,html-keyboard-response,7,91031,0.0-3.0-5.0-0.0,74897,List1B,black,woman,,,,null,,,,
2834,"<img src=""portrait/WW1.jpg""style=""height:400px;""></img>",1,html-button-response,8,93868,0.0-3.0-7.0,74897,List1B,black,woman,,TRUE,1,,,,,
null,CORRECT,,html-keyboard-response,9,95372,0.0-3.0-8.0-0.0,74897,List1B,black,woman,,,,null,,,,
3334,"<img src=""portrait/WW2.jpg""style=""height:400px;""></img>",3,html-button-response,10,98710,0.0-3.0-10.0,74897,List1B,black,woman,,TRUE,3,,,,,
null,CORRECT,,html-keyboard-response,11,100214,0.0-3.0-11.0-0.0,74897,List1B,black,woman,,,,null,,,,
2408,"<img src=""portrait/WM1.jpg""style=""height:400px;""></img>",4,html-button-response,12,102626,0.0-3.0-13.0,74897,List1B,black,woman,,TRUE,6,,,,,
3254,"<img src=""portrait/WM1.jpg""style=""height:400px;""></img>",6,html-button-response,13,106885,0.0-3.0-15.0-0.0,74897,List1B,black,woman,,FALSE,6,,,,,
null,CORRECT,,html-keyboard-response,14,108390,0.0-3.0-15.0-1.0-0.0,74897,List1B,black,woman,,,,null,,,,
3899,"<img src=""portrait/WM2.jpg""style=""height:400px;""></img>",7,html-button-response,15,112292,0.0-3.0-16.0,74897,List1B,black,woman,,TRUE,7,,,,,
null,CORRECT,,html-keyboard-response,16,113796,0.0-3.0-17.0-0.0,74897,List1B,black,woman,,,,null,,,,
3034,"<img src=""portrait/BM1.jpg""style=""height:400px;""></img>",5,html-button-response,17,116833,0.0-3.0-19.0,74897,List1B,black,woman,,TRUE,4,,,,,
16113,"<img src=""portrait/BM1.jpg""style=""height:400px;""></img>",4,html-button-response,18,133950,0.0-3.0-21.0-0.0,74897,List1B,black,woman,,FALSE,4,,,,,
null,CORRECT,,html-keyboard-response,19,135454,0.0-3.0-21.0-1.0-0.0,74897,List1B,black,woman,,,,null,,,,
2268,"<img src=""portrait/BM2.jpg""style=""height:400px;""></img>",5,html-button-response,20,137725,0.0-3.0-22.0,74897,List1B,black,woman,,TRUE,5,,,,,
null,CORRECT,,html-keyboard-response,21,139229,0.0-3.0-23.0-0.0,74897,List1B,black,woman,,,,null,,,,
1691,<p>You got 6 out of 8 right first time. Press Continue.</p>,0,html-button-response,22,140924,0.0-3.0-25.0,74897,List1B,black,woman,,,,,,,,
4204,"As you did not score 100%, the memory game will repeat. Press Continue.",0,html-button-response,23,146132,0.0-3.0-26.0-0.0,74897,List1B,black,woman,,,,,,,,
28919,"<img src='img/portrait_matrix_list1.jpg' style='width:900px;height:500px;''></img><p>If you have memorised all the portraits and names and are ready to start, press Continue.</p><p><strong>Please note: Your memory of these faces will be tested 4 times during this experiment.</strong></p>",0,html-button-response,24,176057,0.0-3.1-0.1,74897,List1B,black,woman,,,,,,,,
8842,"<img src=""portrait/BW1.jpg""style=""height:400px;""></img>",0,html-button-response,25,185904,0.0-3.1-1.1,74897,List1B,black,woman,,TRUE,0,,,,,
null,CORRECT,,html-keyboard-response,26,187409,0.0-3.1-2.1-0.1,74897,List1B,black,woman,,,,null,,,,
2210,"<img src=""portrait/BW2.jpg""style=""height:400px;""></img>",2,html-button-response,27,189622,0.0-3.1-4.1,74897,List1B,black,woman,,TRUE,2,,,,,
null,CORRECT,,html-keyboard-response,28,191126,0.0-3.1-5.1-0.1,74897,List1B,black,woman,,,,null,,,,
2301,"<img src=""portrait/WW1.jpg""style=""height:400px;""></img>",2,html-button-response,29,193430,0.0-3.1-7.1,74897,List1B,black,woman,,TRUE,1,,,,,
2696,"<img src=""portrait/WW1.jpg""style=""height:400px;""></img>",1,html-button-response,30,197130,0.0-3.1-9.1-0.1,74897,List1B,black,woman,,FALSE,1,,,,,
null,CORRECT,,html-keyboard-response,31,198634,0.0-3.1-9.1-1.1-0.1,74897,List1B,black,woman,,,,null,,,,
2710,"<img src=""portrait/WW2.jpg""style=""height:400px;""></img>",3,html-button-response,32,201347,0.0-3.1-10.1,74897,List1B,black,woman,,TRUE,3,,,,,
null,CORRECT,,html-keyboard-response,33,202851,0.0-3.1-11.1-0.1,74897,List1B,black,woman,,,,null,,,,
2157,"<img src=""portrait/WM1.jpg""style=""height:400px;""></img>",6,html-button-response,34,205012,0.0-3.1-13.1,74897,List1B,black,woman,,TRUE,6,,,,,
null,CORRECT,,html-keyboard-response,35,206516,0.0-3.1-14.1-0.1,74897,List1B,black,woman,,,,null,,,,
4250,"<img src=""portrait/WM2.jpg""style=""height:400px;""></img>",7,html-button-response,36,210770,0.0-3.1-16.1,74897,List1B,black,woman,,TRUE,7,,,,,
null,CORRECT,,html-keyboard-response,37,212274,0.0-3.1-17.1-0.1,74897,List1B,black,woman,,,,null,,,,
2477,"<img src=""portrait/BM1.jpg""style=""height:400px;""></img>",4,html-button-response,38,214755,0.0-3.1-19.1,74897,List1B,black,woman,,TRUE,4,,,,,
null,CORRECT,,html-keyboard-response,39,216259,0.0-3.1-20.1-0.1,74897,List1B,black,woman,,,,null,,,,
1950,"<img src=""portrait/BM2.jpg""style=""height:400px;""></img>",5,html-button-response,40,218212,0.0-3.1-22.1,74897,List1B,black,woman,,TRUE,5,,,,,
null,CORRECT,,html-keyboard-response,41,219717,0.0-3.1-23.1-0.1,74897,List1B,black,woman,,,,null,,,,
1251,<p>You got 7 out of 8 right first time. Press Continue.</p>,0,html-button-response,42,220970,0.0-3.1-25.1,74897,List1B,black,woman,,,,,,,,
1563,"As you did not score 100%, the memory game will repeat. Press Continue.",0,html-button-response,43,223537,0.0-3.1-26.1-0.1,74897,List1B,black,woman,,,,,,,,
16152,"<img src='img/portrait_matrix_list1.jpg' style='width:900px;height:500px;''></img><p>If you have memorised all the portraits and names and are ready to start, press Continue.</p><p><strong>Please note: Your memory of these faces will be tested 4 times during this experiment.</strong></p>",0,html-button-response,44,240693,0.0-3.2-0.2,74897,List1B,black,woman,,,,,,,,
2365,"<img src=""portrait/BW1.jpg""style=""height:400px;""></img>",0,html-button-response,45,244062,0.0-3.2-1.2,74897,List1B,black,woman,,TRUE,0,,,,,
null,CORRECT,,html-keyboard-response,46,245566,0.0-3.2-2.2-0.2,74897,List1B,black,woman,,,,null,,,,
1791,"<img src=""portrait/BW2.jpg""style=""height:400px;""></img>",2,html-button-response,47,247361,0.0-3.2-4.2,74897,List1B,black,woman,,TRUE,2,,,,,
null,CORRECT,,html-keyboard-response,48,248865,0.0-3.2-5.2-0.2,74897,List1B,black,woman,,,,null,,,,
4276,"<img src=""portrait/WW1.jpg""style=""height:400px;""></img>",1,html-button-response,49,253144,0.0-3.2-7.2,74897,List1B,black,woman,,TRUE,1,,,,,
null,CORRECT,,html-keyboard-response,50,254648,0.0-3.2-8.2-0.2,74897,List1B,black,woman,,,,null,,,,
3183,"<img src=""portrait/WW2.jpg""style=""height:400px;""></img>",3,html-button-response,51,257834,0.0-3.2-10.2,74897,List1B,black,woman,,TRUE,3,,,,,
null,CORRECT,,html-keyboard-response,52,259338,0.0-3.2-11.2-0.2,74897,List1B,black,woman,,,,null,,,,
2135,"<img src=""portrait/WM1.jpg""style=""height:400px;""></img>",6,html-button-response,53,261476,0.0-3.2-13.2,74897,List1B,black,woman,,TRUE,6,,,,,
null,CORRECT,,html-keyboard-response,54,262980,0.0-3.2-14.2-0.2,74897,List1B,black,woman,,,,null,,,,
4802,"<img src=""portrait/WM2.jpg""style=""height:400px;""></img>",5,html-button-response,55,267785,0.0-3.2-16.2,74897,List1B,black,woman,,TRUE,7,,,,,
2412,"<img src=""portrait/WM2.jpg""style=""height:400px;""></img>",7,html-button-response,56,271201,0.0-3.2-18.2-0.2,74897,List1B,black,woman,,FALSE,7,,,,,
null,CORRECT,,html-keyboard-response,57,272706,0.0-3.2-18.2-1.2-0.2,74897,List1B,black,woman,,,,null,,,,
6209,"<img src=""portrait/BM1.jpg""style=""height:400px;""></img>",4,html-button-response,58,278918,0.0-3.2-19.2,74897,List1B,black,woman,,TRUE,4,,,,,
null,CORRECT,,html-keyboard-response,59,280421,0.0-3.2-20.2-0.2,74897,List1B,black,woman,,,,null,,,,
2285,"<img src=""portrait/BM2.jpg""style=""height:400px;""></img>",5,html-button-response,60,282710,0.0-3.2-22.2,74897,List1B,black,woman,,TRUE,5,,,,,
null,CORRECT,,html-keyboard-response,61,284213,0.0-3.2-23.2-0.2,74897,List1B,black,woman,,,,null,,,,
1209,<p>You got 7 out of 8 right first time. Press Continue.</p>,0,html-button-response,62,285425,0.0-3.2-25.2,74897,List1B,black,woman,,,,,,,,
1304,"As you did not score 100%, the memory game will repeat. Press Continue.",0,html-button-response,63,287733,0.0-3.2-26.2-0.2,74897,List1B,black,woman,,,,,,,,
5229,"<img src='img/portrait_matrix_list1.jpg' style='width:900px;height:500px;''></img><p>If you have memorised all the portraits and names and are ready to start, press Continue.</p><p><strong>Please note: Your memory of these faces will be tested 4 times during this experiment.</strong></p>",0,html-button-response,64,293966,0.0-3.3-0.3,74897,List1B,black,woman,,,,,,,,
8339,"<img src=""portrait/BW1.jpg""style=""height:400px;""></img>",0,html-button-response,65,303308,0.0-3.3-1.3,74897,List1B,black,woman,,TRUE,0,,,,,
null,CORRECT,,html-keyboard-response,66,304811,0.0-3.3-2.3-0.3,74897,List1B,black,woman,,,,null,,,,
1760,"<img src=""portrait/BW2.jpg""style=""height:400px;""></img>",2,html-button-response,67,306574,0.0-3.3-4.3,74897,List1B,black,woman,,TRUE,2,,,,,
null,CORRECT,,html-keyboard-response,68,308077,0.0-3.3-5.3-0.3,74897,List1B,black,woman,,,,null,,,,
3027,"<img src=""portrait/WW1.jpg""style=""height:400px;""></img>",1,html-button-response,69,311108,0.0-3.3-7.3,74897,List1B,black,woman,,TRUE,1,,,,,
null,CORRECT,,html-keyboard-response,70,312612,0.0-3.3-8.3-0.3,74897,List1B,black,woman,,,,null,,,,
1617,"<img src=""portrait/WW2.jpg""style=""height:400px;""></img>",3,html-button-response,71,314232,0.0-3.3-10.3,74897,List1B,black,woman,,TRUE,3,,,,,
null,CORRECT,,html-keyboard-response,72,315735,0.0-3.3-11.3-0.3,74897,List1B,black,woman,,,,null,,,,
1878,"<img src=""portrait/WM1.jpg""style=""height:400px;""></img>",6,html-button-response,73,317616,0.0-3.3-13.3,74897,List1B,black,woman,,TRUE,6,,,,,
null,CORRECT,,html-keyboard-response,74,319120,0.0-3.3-14.3-0.3,74897,List1B,black,woman,,,,null,,,,
3675,"<img src=""portrait/WM2.jpg""style=""height:400px;""></img>",7,html-button-response,75,322798,0.0-3.3-16.3,74897,List1B,black,woman,,TRUE,7,,,,,
null,CORRECT,,html-keyboard-response,76,324301,0.0-3.3-17.3-0.3,74897,List1B,black,woman,,,,null,,,,
2152,"<img src=""portrait/BM1.jpg""style=""height:400px;""></img>",4,html-button-response,77,326456,0.0-3.3-19.3,74897,List1B,black,woman,,TRUE,4,,,,,
null,CORRECT,,html-keyboard-response,78,327959,0.0-3.3-20.3-0.3,74897,List1B,black,woman,,,,null,,,,
2020,"<img src=""portrait/BM2.jpg""style=""height:400px;""></img>",5,html-button-response,79,329981,0.0-3.3-22.3,74897,List1B,black,woman,,TRUE,5,,,,,
null,CORRECT,,html-keyboard-response,80,331485,0.0-3.3-23.3-0.3,74897,List1B,black,woman,,,,null,,,,
1368,<p>You got 8 out of 8 right first time. Press Continue.</p>,0,html-button-response,81,332856,0.0-3.3-25.3,74897,List1B,black,woman,,,,,,,,
53278,"<p>In this experiment, you will view photographs of the people from the memory game interacting.</p><p>By using the <strong>exact</strong> phrase given <i>after</i> the photograph appears and recalling the correct names of the people in the photographs, form a sentence describing the interaction. You do not need to capitalise names.</p><p>Type your answer in the space provided. Please complete every sentence before moving onto the next trial.</p><p>You will only have a few seconds to memorise each given photograph and phrase before you can respond, so try your best to focus.</p><p>An example is given below. Press 'Continue' when you are ready.</p><img src='img/speaking_example.jpg' style='width:800px;height:460px;''></img>",0,html-button-response,82,387138,0.0-4.0,74897,List1B,black,woman,,,,,,,,
2220,"<p>Before the experiment starts, you will watch two example trials. Press 'Continue'.</p>",0,html-button-response,83,390360,0.0-5.0,74897,List1B,black,woman,,,,,,,,
null,<img src='img/meet_eg.gif' style='height:400px;''></img>,,html-keyboard-response,84,393365,0.0-6.0,74897,List1B,black,woman,,,,null,,,,
null,<p>is meeting</p>,,html-keyboard-response,85,395368,0.0-7.0,74897,List1B,black,woman,,,,null,,,,
3923,<p><b>Answer:</b> kate is meeting beth</p>,0,html-button-response,86,399294,0.0-8.0,74897,List1B,black,woman,,,,,,,,
null,<img src='img/look_eg.gif' style='height:400px;''></img>,,html-keyboard-response,87,402298,0.0-9.0,74897,List1B,black,woman,,,,null,,,,
null,<p>are looking at each other</p>,,html-keyboard-response,88,404301,0.0-10.0,74897,List1B,black,woman,,,,null,,,,
2890,<p><b>Answer:</b> luke and dave are looking at each other</p>,0,html-button-response,89,407193,0.0-11.0,74897,List1B,black,woman,,,,,,,,
16180,"<p>Ready to start the experiment?</p><br><p><strong>Remember to describe the picture using a full sentence,</strong></p><p><strong>that combines the names of the people with the <i>exact</i> phrase given.</strong></p><p><strong>To receive full payment you must do this correctly.</strong></p><p><strong> You do not need to capitalise names or use punctuation.</strong></p><br><p>Press 'Continue' to begin.</p>",0,html-button-response,90,424376,0.0-12.0,74897,List1B,black,woman,,,,,,,,
null,"<div style=""font-size:60px;"">+</div>",,html-keyboard-response,91,425880,0.0-13.0-0.0,74897,List1B,black,woman,,,,null,,,,
null,"<img src=""stim_listB/argue4.gif""style=""height:400px;""></stim_listB>",,html-keyboard-response,92,427884,0.0-13.0-1.0,74897,List1B,black,woman,,,,null,,,,
null,are arguing with each other,,html-keyboard-response,93,429888,0.0-13.0-2.0,74897,List1B,black,woman,,,,null,,,,
47083,,,survey-text,94,476981,0.0-13.0-3.0,74897,List1B,black,woman,,,,,"{""Q0"":""Luke and Jane are arguing with eachother""}","<img src=""stim_listB/argue4.gif""style=""height:400px;""></stim_listB>",are arguing with each other,
null,"<div style=""font-size:60px;"">+</div>",,html-keyboard-response,95,477485,0.0-13.0-0.1,74897,List1B,black,woman,,,,null,,,,
null,"<img src=""stim_listB/play4.gif""style=""height:400px;""></stim_listB>",,html-keyboard-response,96,479488,0.0-13.0-1.1,74897,List1B,black,woman,,,,null,,,,
null,are playing with each other,,html-keyboard-response,97,481491,0.0-13.0-2.1,74897,List1B,black,woman,,,,null,,,,
17983,,,survey-text,98,499478,0.0-13.0-3.1,74897,List1B,black,woman,,,,,"{""Q0"":""Luke and Ruth are playing with eachother""}","<img src=""stim_listB/play4.gif""style=""height:400px;""></stim_listB>",are playing with each other,
null,"<div style=""font-size:60px;"">+</div>",,html-keyboard-response,99,499980,0.0-13.0-0.2,74897,List1B,black,woman,,,,null,,,,
null,"<img src=""stim_listB/shout5.gif""style=""height:400px;""></stim_listB>",,html-keyboard-response,100,501984,0.0-13.0-1.2,74897,List1B,black,woman,,,,null,,,,
null,is shouting at,,html-keyboard-response,101,503987,0.0-13.0-2.2,74897,List1B,black,woman,,,,null,,,,
26611,,,survey-text,102,530601,0.0-13.0-3.2,74897,List1B,black,woman,,,,,"{""Q0"":""Fred is shouting at Luke""}","<img src=""stim_listB/shout5.gif""style=""height:400px;""></stim_listB>",is shouting at,
null,"<div style=""font-size:60px;"">+</div>",,html-keyboard-response,103,531104,0.0-13.0-0.3,74897,List1B,black,woman,,,,null,,,,
null,"<img src=""stim_listB/flirt7.gif""style=""height:400px;""></stim_listB>",,html-keyboard-response,104,533107,0.0-13.0-1.3,74897,List1B,black,woman,,,,null,,,,
null,is flirting with,,html-keyboard-response,105,535110,0.0-13.0-2.3,74897,List1B,black,woman,,,,null,,,,
15776,,,survey-text,106,550890,0.0-13.0-3.3,74897,List1B,black,woman,,,,,"{""Q0"":""Beth is flirting with Jane""}","<img src=""stim_listB/flirt7.gif""style=""height:400px;""></stim_listB>",is flirting with,
null,"<div style=""font-size:60px;"">+</div>",,html-keyboard-response,107,551393,0.0-13.0-0.4,74897,List1B,black,woman,,,,null,,,,
null,"<img src=""stim_listB/dance5.gif""style=""height:400px;""></stim_listB>",,html-keyboard-response,108,553396,0.0-13.0-1.4,74897,List1B,black,woman,,,,null,,,,
null,is dancing with,,html-keyboard-response,109,555400,0.0-13.0-2.4,74897,List1B,black,woman,,,,null,,,,
7721,,,survey-text,110,563123,0.0-13.0-3.4,74897,List1B,black,woman,,,,,"{""Q0"":""Fred is dancing with Dave""}","<img src=""stim_listB/dance5.gif""style=""height:400px;""></stim_listB>",is dancing with,
null,"<div style=""font-size:60px;"">+</div>",,html-keyboard-response,111,563626,0.0-13.0-0.5,74897,List1B,black,woman,,,,null,,,,
null,"<img src=""stim_listB/dance7.gif""style=""height:400px;""></stim_listB>",,html-keyboard-response,112,565629,0.0-13.0-1.5,74897,List1B,black,woman,,,,null,,,,
null,is dancing with,,html-keyboard-response,113,567633,0.0-13.0-2.5,74897,List1B,black,woman,,,,null,,,,
19938,,,survey-text,114,587573,0.0-13.0-3.5,74897,List1B,black,woman,,,,,"{""Q0"":""Beth is dancing with Jane""}","<img src=""stim_listB/dance7.gif""style=""height:400px;""></stim_listB>",is dancing with,
null,"<div style=""font-size:60px;"">+</div>",,html-keyboard-response,115,588076,0.0-13.0-0.6,74897,List1B,black,woman,,,,null,,,,
null,"<img src=""stim_listB/flirt3.gif""style=""height:400px;""></stim_listB>",,html-keyboard-response,116,590080,0.0-13.0-1.6,74897,List1B,black,woman,,,,null,,,,
null,is flirting with,,html-keyboard-response,117,592083,0.0-13.0-2.6,74897,List1B,black,woman,,,,null,,,,
8720,,,survey-text,118,600806,0.0-13.0-3.6,74897,List1B,black,woman,,,,,"{""Q0"":""Luke is flirting with Jane""}","<img src=""stim_listB/flirt3.gif""style=""height:400px;""></stim_listB>",is flirting with,
null,"<div style=""font-size:60px;"">+</div>",,html-keyboard-response,119,601308,0.0-13.0-0.7,74897,List1B,black,woman,,,,null,,,,
null,"<img src=""stim_listB/marry7.gif""style=""height:400px;""></stim_listB>",,html-keyboard-response,120,603311,0.0-13.0-1.7,74897,List1B,black,woman,,,,null,,,,
null,is marrying,,html-keyboard-response,121,605314,0.0-13.0-2.7,74897,List1B,black,woman,,,,null,,,,
7887,,,survey-text,122,613204,0.0-13.0-3.7,74897,List1B,black,woman,,,,,"{""Q0"":""Ruth is marrying Kate""}","<img src=""stim_listB/marry7.gif""style=""height:400px;""></stim_listB>",is marrying,
null,"<div style=""font-size:60px;"">+</div>",,html-keyboard-response,123,613706,0.0-13.0-0.8,74897,List1B,black,woman,,,,null,,,,
null,"<img src=""stim_listB/talk5.gif""style=""height:400px;""></stim_listB>",,html-keyboard-response,124,615710,0.0-13.0-1.8,74897,List1B,black,woman,,,,null,,,,
null,is talking to,,html-keyboard-response,125,617713,0.0-13.0-2.8,74897,List1B,black,woman,,,,null,,,,
9011,,,survey-text,126,626728,0.0-13.0-3.8,74897,List1B,black,woman,,,,,"{""Q0"":""Fred is talking with Dave""}","<img src=""stim_listB/talk5.gif""style=""height:400px;""></stim_listB>",is talking to,
null,"<div style=""font-size:60px;"">+</div>",,html-keyboard-response,127,627231,0.0-13.0-0.9,74897,List1B,black,woman,,,,null,,,,
null,"<img src=""stim_listB/argue6.gif""style=""height:400px;""></stim_listB>",,html-keyboard-response,128,629234,0.0-13.0-1.9,74897,List1B,black,woman,,,,null,,,,
null,are arguing with each other,,html-keyboard-response,129,631237,0.0-13.0-2.9,74897,List1B,black,woman,,,,null,,,,
10381,,,survey-text,130,641620,0.0-13.0-3.9,74897,List1B,black,woman,,,,,"{""Q0"":""Dave and Fred are arguing with eachother""}","<img src=""stim_listB/argue6.gif""style=""height:400px;""></stim_listB>",are arguing with each other,
null,"<div style=""font-size:60px;"">+</div>",,html-keyboard-response,131,642122,0.0-13.0-0.10,74897,List1B,black,woman,,,,null,,,,
null,"<img src=""stim_listB/argue7.gif""style=""height:400px;""></stim_listB>",,html-keyboard-response,132,644126,0.0-13.0-1.10,74897,List1B,black,woman,,,,null,,,,
null,is arguing with,,html-keyboard-response,133,646129,0.0-13.0-2.10,74897,List1B,black,woman,,,,null,,,,
7644,,,survey-text,134,653776,0.0-13.0-3.10,74897,List1B,black,woman,,,,,"{""Q0"":""Ruth is arguing with Kate""}","<img src=""stim_listB/argue7.gif""style=""height:400px;""></stim_listB>",is arguing with,
null,"<div style=""font-size:60px;"">+</div>",,html-keyboard-response,135,654279,0.0-13.0-0.11,74897,List1B,black,woman,,,,null,,,,
null,"<img src=""stim_listB/marry4.gif""style=""height:400px;""></stim_listB>",,html-keyboard-response,136,656283,0.0-13.0-1.11,74897,List1B,black,woman,,,,null,,,,
null,are marrying each other,,html-keyboard-response,137,658286,0.0-13.0-2.11,74897,List1B,black,woman,,,,null,,,,
9689,,,survey-text,138,667978,0.0-13.0-3.11,74897,List1B,black,woman,,,,,"{""Q0"":""Luke and Jane are marrying eachother""}","<img src=""stim_listB/marry4.gif""style=""height:400px;""></stim_listB>",are marrying each other,
null,"<div style=""font-size:60px;"">+</div>",,html-keyboard-response,139,668480,0.0-13.0-0.12,74897,List1B,black,woman,,,,null,,,,
null,"<img src=""stim_listB/dance6.gif""style=""height:400px;""></stim_listB>",,html-keyboard-response,140,670484,0.0-13.0-1.12,74897,List1B,black,woman,,,,null,,,,
null,are dancing with each other,,html-keyboard-response,141,672487,0.0-13.0-2.12,74897,List1B,black,woman,,,,null,,,,
29327,,,survey-text,142,701817,0.0-13.0-3.12,74897,List1B,black,woman,,,,,"{""Q0"":""Luke and Mike are dancing with eachother ""}","<img src=""stim_listB/dance6.gif""style=""height:400px;""></stim_listB>",are dancing with each other,
null,"<div style=""font-size:60px;"">+</div>",,html-keyboard-response,143,702320,0.0-13.0-0.13,74897,List1B,black,woman,,,,null,,,,
null,"<img src=""stim_listB/shout8.gif""style=""height:400px;""></stim_listB>",,html-keyboard-response,144,704324,0.0-13.0-1.13,74897,List1B,black,woman,,,,null,,,,
null,are shouting at each other,,html-keyboard-response,145,706327,0.0-13.0-2.13,74897,List1B,black,woman,,,,null,,,,
13112,,,survey-text,146,719441,0.0-13.0-3.13,74897,List1B,black,woman,,,,,"{""Q0"":""Beth and Kate are shouting at eachother""}","<img src=""stim_listB/shout8.gif""style=""height:400px;""></stim_listB>",are shouting at each other,
null,"<div style=""font-size:60px;"">+</div>",,html-keyboard-response,147,719944,0.0-13.0-0.14,74897,List1B,black,woman,,,,null,,,,
null,"<img src=""stim_listB/fight3.gif""style=""height:400px;""></stim_listB>",,html-keyboard-response,148,721948,0.0-13.0-1.14,74897,List1B,black,woman,,,,null,,,,
null,is fighting,,html-keyboard-response,149,723951,0.0-13.0-2.14,74897,List1B,black,woman,,,,null,,,,
11328,,,survey-text,150,735281,0.0-13.0-3.14,74897,List1B,black,woman,,,,,"{""Q0"":""Beth and Dave are fighting with eachother""}","<img src=""stim_listB/fight3.gif""style=""height:400px;""></stim_listB>",is fighting,
null,"<div style=""font-size:60px;"">+</div>",,html-keyboard-response,151,735784,0.0-13.0-0.15,74897,List1B,black,woman,,,,null,,,,
null,"<img src=""stim_listB/touch1.gif""style=""height:400px;""></stim_listB>",,html-keyboard-response,152,737788,0.0-13.0-1.15,74897,List1B,black,woman,,,,null,,,,
null,is touching,,html-keyboard-response,153,739791,0.0-13.0-2.15,74897,List1B,black,woman,,,,null,,,,
6995,,,survey-text,154,746788,0.0-13.0-3.15,74897,List1B,black,woman,,,,,"{""Q0"":""Kate and mike are touching""}","<img src=""stim_listB/touch1.gif""style=""height:400px;""></stim_listB>",is touching,
null,"<div style=""font-size:60px;"">+</div>",,html-keyboard-response,155,747291,0.0-13.0-0.16,74897,List1B,black,woman,,,,null,,,,
null,"<img src=""stim_listB/fight2.gif""style=""height:400px;""></stim_listB>",,html-keyboard-response,156,749295,0.0-13.0-1.16,74897,List1B,black,woman,,,,null,,,,
null,are fighting each other,,html-keyboard-response,157,751299,0.0-13.0-2.16,74897,List1B,black,woman,,,,null,,,,
9430,,,survey-text,158,760731,0.0-13.0-3.16,74897,List1B,black,woman,,,,,"{""Q0"":""Fred and Beth are fighting eachother""}","<img src=""stim_listB/fight2.gif""style=""height:400px;""></stim_listB>",are fighting each other,
null,"<div style=""font-size:60px;"">+</div>",,html-keyboard-response,159,761234,0.0-13.0-0.17,74897,List1B,black,woman,,,,null,,,,
null,"<img src=""stim_listB/talk8.gif""style=""height:400px;""></stim_listB>",,html-keyboard-response,160,763238,0.0-13.0-1.17,74897,List1B,black,woman,,,,null,,,,
null,are talking to each other,,html-keyboard-response,161,765240,0.0-13.0-2.17,74897,List1B,black,woman,,,,null,,,,
29510,,,survey-text,162,794753,0.0-13.0-3.17,74897,List1B,black,woman,,,,,"{""Q0"":""Kate and Ruth are talking to eachother""}","<img src=""stim_listB/talk8.gif""style=""height:400px;""></stim_listB>",are talking to each other,
null,"<div style=""font-size:60px;"">+</div>",,html-keyboard-response,163,795256,0.0-13.0-0.18,74897,List1B,black,woman,,,,null,,,,
null,"<img src=""stim_listB/touch7.gif""style=""height:400px;""></stim_listB>",,html-keyboard-response,164,797260,0.0-13.0-1.18,74897,List1B,black,woman,,,,null,,,,
null,is touching,,html-keyboard-response,165,799264,0.0-13.0-2.18,74897,List1B,black,woman,,,,null,,,,
7769,,,survey-text,166,807036,0.0-13.0-3.18,74897,List1B,black,woman,,,,,"{""Q0"":""Beth and Kate are touching""}","<img src=""stim_listB/touch7.gif""style=""height:400px;""></stim_listB>",is touching,
null,"<div style=""font-size:60px;"">+</div>",,html-keyboard-response,167,807539,0.0-13.0-0.19,74897,List1B,black,woman,,,,null,,,,
null,"<img src=""stim_listB/kiss7.gif""style=""height:400px;""></stim_listB>",,html-keyboard-response,168,809542,0.0-13.0-1.19,74897,List1B,black,woman,,,,null,,,,
null,is kissing,,html-keyboard-response,169,811545,0.0-13.0-2.19,74897,List1B,black,woman,,,,null,,,,
9954,,,survey-text,170,821501,0.0-13.0-3.19,74897,List1B,black,woman,,,,,"{""Q0"":""Ruth and Beth are kissing eachother""}","<img src=""stim_listB/kiss7.gif""style=""height:400px;""></stim_listB>",is kissing,
16228,"<img src='img/portrait_matrix_list1.jpg' style='width:900px;height:500px;''></img><p>If you have memorised all the portraits and names and are ready to start, press Continue.</p><p><strong>Please note: Your memory of these faces will be tested 4 times during this experiment.</strong></p>",0,html-button-response,171,837732,0.0-14.0-0.0,74897,List1B,black,woman,,,,,,,,
3337,"<img src=""portrait/WW1.jpg""style=""height:400px;""></img>",1,html-button-response,172,842073,0.0-14.0-1.0,74897,List1B,black,woman,,TRUE,1,,,,,
null,CORRECT,,html-keyboard-response,173,843577,0.0-14.0-2.0-0.0,74897,List1B,black,woman,,,,null,,,,
2442,"<img src=""portrait/BW1.jpg""style=""height:400px;""></img>",0,html-button-response,174,846023,0.0-14.0-4.0,74897,List1B,black,woman,,TRUE,0,,,,,
null,CORRECT,,html-keyboard-response,175,847527,0.0-14.0-5.0-0.0,74897,List1B,black,woman,,,,null,,,,
3258,"<img src=""portrait/BM2.jpg""style=""height:400px;""></img>",5,html-button-response,176,850788,0.0-14.0-7.0,74897,List1B,black,woman,,TRUE,5,,,,,
null,CORRECT,,html-keyboard-response,177,852292,0.0-14.0-8.0-0.0,74897,List1B,black,woman,,,,null,,,,
1593,"<img src=""portrait/WM1.jpg""style=""height:400px;""></img>",6,html-button-response,178,853889,0.0-14.0-10.0,74897,List1B,black,woman,,TRUE,6,,,,,
null,CORRECT,,html-keyboard-response,179,855392,0.0-14.0-11.0-0.0,74897,List1B,black,woman,,,,null,,,,
2859,"<img src=""portrait/BM1.jpg""style=""height:400px;""></img>",4,html-button-response,180,858255,0.0-14.0-13.0,74897,List1B,black,woman,,TRUE,4,,,,,
null,CORRECT,,html-keyboard-response,181,859759,0.0-14.0-14.0-0.0,74897,List1B,black,woman,,,,null,,,,
1679,"<img src=""portrait/WM2.jpg""style=""height:400px;""></img>",7,html-button-response,182,861442,0.0-14.0-16.0,74897,List1B,black,woman,,TRUE,7,,,,,
null,CORRECT,,html-keyboard-response,183,862945,0.0-14.0-17.0-0.0,74897,List1B,black,woman,,,,null,,,,
2065,"<img src=""portrait/BW2.jpg""style=""height:400px;""></img>",2,html-button-response,184,865014,0.0-14.0-19.0,74897,List1B,black,woman,,TRUE,2,,,,,
null,CORRECT,,html-keyboard-response,185,866518,0.0-14.0-20.0-0.0,74897,List1B,black,woman,,,,null,,,,
1674,"<img src=""portrait/WW2.jpg""style=""height:400px;""></img>",3,html-button-response,186,868196,0.0-14.0-22.0,74897,List1B,black,woman,,TRUE,3,,,,,
null,CORRECT,,html-keyboard-response,187,869700,0.0-14.0-23.0-0.0,74897,List1B,black,woman,,,,null,,,,
1277,<p>You got 8 out of 8 right first time. Press Continue.</p>,0,html-button-response,188,870980,0.0-14.0-25.0,74897,List1B,black,woman,,,,,,,,
null,"<div style=""font-size:60px;"">+</div>",,html-keyboard-response,189,872485,0.0-15.0-0.0,74897,List1B,black,woman,,,,null,,,,
null,"<img src=""stim_listB/talk3.gif""style=""height:400px;""></stim_listB>",,html-keyboard-response,190,874489,0.0-15.0-1.0,74897,List1B,black,woman,,,,null,,,,
null,is talking to,,html-keyboard-response,191,876493,0.0-15.0-2.0,74897,List1B,black,woman,,,,null,,,,
16481,,,survey-text,192,892977,0.0-15.0-3.0,74897,List1B,black,woman,,,,,"{""Q0"":""Luke and Jane are talking to eachother""}","<img src=""stim_listB/talk3.gif""style=""height:400px;""></stim_listB>",is talking to,
null,"<div style=""font-size:60px;"">+</div>",,html-keyboard-response,193,893480,0.0-15.0-0.1,74897,List1B,black,woman,,,,null,,,,
null,"<img src=""stim_listB/dance3.gif""style=""height:400px;""></stim_listB>",,html-keyboard-response,194,895484,0.0-15.0-1.1,74897,List1B,black,woman,,,,null,,,,
null,is dancing with,,html-keyboard-response,195,897487,0.0-15.0-2.1,74897,List1B,black,woman,,,,null,,,,
9650,,,survey-text,196,907141,0.0-15.0-3.1,74897,List1B,black,woman,,,,,"{""Q0"":""Luke and Jane are dancing with eachother ""}","<img src=""stim_listB/dance3.gif""style=""height:400px;""></stim_listB>",is dancing with,
null,"<div style=""font-size:60px;"">+</div>",,html-keyboard-response,197,907643,0.0-15.0-0.2,74897,List1B,black,woman,,,,null,,,,
null,"<img src=""stim_listB/dance8.gif""style=""height:400px;""></stim_listB>",,html-keyboard-response,198,909647,0.0-15.0-1.2,74897,List1B,black,woman,,,,null,,,,
null,are dancing with each other,,html-keyboard-response,199,911651,0.0-15.0-2.2,74897,List1B,black,woman,,,,null,,,,
10002,,,survey-text,200,921655,0.0-15.0-3.2,74897,List1B,black,woman,,,,,"{""Q0"":""Kate and Jane are dancing with eachother""}","<img src=""stim_listB/dance8.gif""style=""height:400px;""></stim_listB>",are dancing with each other,
null,"<div style=""font-size:60px;"">+</div>",,html-keyboard-response,201,922158,0.0-15.0-0.3,74897,List1B,black,woman,,,,null,,,,
null,"<img src=""stim_listB/argue3.gif""style=""height:400px;""></stim_listB>",,html-keyboard-response,202,924162,0.0-15.0-1.3,74897,List1B,black,woman,,,,null,,,,
null,is arguing with,,html-keyboard-response,203,926166,0.0-15.0-2.3,74897,List1B,black,woman,,,,null,,,,
8029,,,survey-text,204,934196,0.0-15.0-3.3,74897,List1B,black,woman,,,,,"{""Q0"":""Dave is arguing with Ruth""}","<img src=""stim_listB/argue3.gif""style=""height:400px;""></stim_listB>",is arguing with,
null,"<div style=""font-size:60px;"">+</div>",,html-keyboard-response,205,934699,0.0-15.0-0.4,74897,List1B,black,woman,,,,null,,,,
null,"<img src=""stim_listB/touch3.gif""style=""height:400px;""></stim_listB>",,html-keyboard-response,206,936704,0.0-15.0-1.4,74897,List1B,black,woman,,,,null,,,,
null,is touching,,html-keyboard-response,207,938707,0.0-15.0-2.4,74897,List1B,black,woman,,,,null,,,,
5977,,,survey-text,208,944686,0.0-15.0-3.4,74897,List1B,black,woman,,,,,"{""Q0"":""Jane is touching Dave""}","<img src=""stim_listB/touch3.gif""style=""height:400px;""></stim_listB>",is touching,
null,"<div style=""font-size:60px;"">+</div>",,html-keyboard-response,209,945189,0.0-15.0-0.5,74897,List1B,black,woman,,,,null,,,,
null,"<img src=""stim_listB/shout7.gif""style=""height:400px;""></stim_listB>",,html-keyboard-response,210,947194,0.0-15.0-1.5,74897,List1B,black,woman,,,,null,,,,
null,is shouting at,,html-keyboard-response,211,949197,0.0-15.0-2.5,74897,List1B,black,woman,,,,null,,,,
22470,,,survey-text,212,971670,0.0-15.0-3.5,74897,List1B,black,woman,,,,,"{""Q0"":""Ruth is shouting at Beth""}","<img src=""stim_listB/shout7.gif""style=""height:400px;""></stim_listB>",is shouting at,
null,"<div style=""font-size:60px;"">+</div>",,html-keyboard-response,213,972173,0.0-15.0-0.6,74897,List1B,black,woman,,,,null,,,,
null,"<img src=""stim_listB/kiss5.gif""style=""height:400px;""></stim_listB>",,html-keyboard-response,214,974176,0.0-15.0-1.6,74897,List1B,black,woman,,,,null,,,,
null,is kissing,,html-keyboard-response,215,976180,0.0-15.0-2.6,74897,List1B,black,woman,,,,null,,,,
10980,,,survey-text,216,987163,0.0-15.0-3.6,74897,List1B,black,woman,,,,,"{""Q0"":""Jane is kissing luke""}","<img src=""stim_listB/kiss5.gif""style=""height:400px;""></stim_listB>",is kissing,
null,"<div style=""font-size:60px;"">+</div>",,html-keyboard-response,217,987666,0.0-15.0-0.7,74897,List1B,black,woman,,,,null,,,,
null,"<img src=""stim_listB/argue5.gif""style=""height:400px;""></stim_listB>",,html-keyboard-response,218,989669,0.0-15.0-1.7,74897,List1B,black,woman,,,,null,,,,
null,is arguing with,,html-keyboard-response,219,991672,0.0-15.0-2.7,74897,List1B,black,woman,,,,null,,,,
8602,,,survey-text,220,1000277,0.0-15.0-3.7,74897,List1B,black,woman,,,,,"{""Q0"":""Mike is arguing with Luke ""}","<img src=""stim_listB/argue5.gif""style=""height:400px;""></stim_listB>",is arguing with,
null,"<div style=""font-size:60px;"">+</div>",,html-keyboard-response,221,1000780,0.0-15.0-0.8,74897,List1B,black,woman,,,,null,,,,
null,"<img src=""stim_listB/marry6.gif""style=""height:400px;""></stim_listB>",,html-keyboard-response,222,1002784,0.0-15.0-1.8,74897,List1B,black,woman,,,,null,,,,
null,are marrying each other,,html-keyboard-response,223,1004787,0.0-15.0-2.8,74897,List1B,black,woman,,,,null,,,,
9344,,,survey-text,224,1014134,0.0-15.0-3.8,74897,List1B,black,woman,,,,,"{""Q0"":""Fred and Dave are marrying eachother""}","<img src=""stim_listB/marry6.gif""style=""height:400px;""></stim_listB>",are marrying each other,
null,"<div style=""font-size:60px;"">+</div>",,html-keyboard-response,225,1014636,0.0-15.0-0.9,74897,List1B,black,woman,,,,null,,,,
null,"<img src=""stim_listB/touch2.gif""style=""height:400px;""></stim_listB>",,html-keyboard-response,226,1016640,0.0-15.0-1.9,74897,List1B,black,woman,,,,null,,,,
null,are touching each other,,html-keyboard-response,227,1018643,0.0-15.0-2.9,74897,List1B,black,woman,,,,null,,,,
7444,,,survey-text,228,1026090,0.0-15.0-3.9,74897,List1B,black,woman,,,,,"{""Q0"":""Beth and Fred are touching""}","<img src=""stim_listB/touch2.gif""style=""height:400px;""></stim_listB>",are touching each other,
null,"<div style=""font-size:60px;"">+</div>",,html-keyboard-response,229,1026594,0.0-15.0-0.10,74897,List1B,black,woman,,,,null,,,,
null,"<img src=""stim_listB/kiss6.gif""style=""height:400px;""></stim_listB>",,html-keyboard-response,230,1028598,0.0-15.0-1.10,74897,List1B,black,woman,,,,null,,,,
null,are kissing each other,,html-keyboard-response,231,1030601,0.0-15.0-2.10,74897,List1B,black,woman,,,,null,,,,
10929,,,survey-text,232,1041533,0.0-15.0-3.10,74897,List1B,black,woman,,,,,"{""Q0"":""Dave and Mike are kissing eachother""}","<img src=""stim_listB/kiss6.gif""style=""height:400px;""></stim_listB>",are kissing each other,
null,"<div style=""font-size:60px;"">+</div>",,html-keyboard-response,233,1042035,0.0-15.0-0.11,74897,List1B,black,woman,,,,null,,,,
null,"<img src=""stim_listB/kiss3.gif""style=""height:400px;""></stim_listB>",,html-keyboard-response,234,1044039,0.0-15.0-1.11,74897,List1B,black,woman,,,,null,,,,
null,is kissing,,html-keyboard-response,235,1046042,0.0-15.0-2.11,74897,List1B,black,woman,,,,null,,,,
7054,,,survey-text,236,1053098,0.0-15.0-3.11,74897,List1B,black,woman,,,,,"{""Q0"":""Ruth is kissing Luke""}","<img src=""stim_listB/kiss3.gif""style=""height:400px;""></stim_listB>",is kissing,
null,"<div style=""font-size:60px;"">+</div>",,html-keyboard-response,237,1053602,0.0-15.0-0.12,74897,List1B,black,woman,,,,null,,,,
null,"<img src=""stim_listB/argue8.gif""style=""height:400px;""></stim_listB>",,html-keyboard-response,238,1055605,0.0-15.0-1.12,74897,List1B,black,woman,,,,null,,,,
null,are arguing with each other,,html-keyboard-response,239,1057609,0.0-15.0-2.12,74897,List1B,black,woman,,,,null,,,,
10871,,,survey-text,240,1068483,0.0-15.0-3.12,74897,List1B,black,woman,,,,,"{""Q0"":""Jane and Beth are arguing with eachother ""}","<img src=""stim_listB/argue8.gif""style=""height:400px;""></stim_listB>",are arguing with each other,
null,"<div style=""font-size:60px;"">+</div>",,html-keyboard-response,241,1068985,0.0-15.0-0.13,74897,List1B,black,woman,,,,null,,,,
null,"<img src=""stim_listB/flirt1.gif""style=""height:400px;""></stim_listB>",,html-keyboard-response,242,1070989,0.0-15.0-1.13,74897,List1B,black,woman,,,,null,,,,
null,is flirting with,,html-keyboard-response,243,1072992,0.0-15.0-2.13,74897,List1B,black,woman,,,,null,,,,
6870,,,survey-text,244,1079864,0.0-15.0-3.13,74897,List1B,black,woman,,,,,"{""Q0"":""Fred is flirting with Kate ""}","<img src=""stim_listB/flirt1.gif""style=""height:400px;""></stim_listB>",is flirting with,
null,"<div style=""font-size:60px;"">+</div>",,html-keyboard-response,245,1080367,0.0-15.0-0.14,74897,List1B,black,woman,,,,null,,,,
null,"<img src=""stim_listB/shout2.gif""style=""height:400px;""></stim_listB>",,html-keyboard-response,246,1082371,0.0-15.0-1.14,74897,List1B,black,woman,,,,null,,,,
null,are shouting at each other,,html-keyboard-response,247,1084373,0.0-15.0-2.14,74897,List1B,black,woman,,,,null,,,,
9406,,,survey-text,248,1093782,0.0-15.0-3.14,74897,List1B,black,woman,,,,,"{""Q0"":""Kate and Mike are shouting at eachother""}","<img src=""stim_listB/shout2.gif""style=""height:400px;""></stim_listB>",are shouting at each other,
null,"<div style=""font-size:60px;"">+</div>",,html-keyboard-response,249,1094284,0.0-15.0-0.15,74897,List1B,black,woman,,,,null,,,,
null,"<img src=""stim_listB/talk2.gif""style=""height:400px;""></stim_listB>",,html-keyboard-response,250,1096288,0.0-15.0-1.15,74897,List1B,black,woman,,,,null,,,,
null,are talking to each other,,html-keyboard-response,251,1098291,0.0-15.0-2.15,74897,List1B,black,woman,,,,null,,,,
9297,,,survey-text,252,1107591,0.0-15.0-3.15,74897,List1B,black,woman,,,,,"{""Q0"":""Beth and Mike are talking to eachother ""}","<img src=""stim_listB/talk2.gif""style=""height:400px;""></stim_listB>",are talking to each other,
null,"<div style=""font-size:60px;"">+</div>",,html-keyboard-response,253,1108093,0.0-15.0-0.16,74897,List1B,black,woman,,,,null,,,,
null,"<img src=""stim_listB/shout3.gif""style=""height:400px;""></stim_listB>",,html-keyboard-response,254,1110097,0.0-15.0-1.16,74897,List1B,black,woman,,,,null,,,,
null,is shouting at,,html-keyboard-response,255,1112101,0.0-15.0-2.16,74897,List1B,black,woman,,,,null,,,,
7684,,,survey-text,256,1119787,0.0-15.0-3.16,74897,List1B,black,woman,,,,,"{""Q0"":""Luke is shouting at Ruth""}","<img src=""stim_listB/shout3.gif""style=""height:400px;""></stim_listB>",is shouting at,
null,"<div style=""font-size:60px;"">+</div>",,html-keyboard-response,257,1120291,0.0-15.0-0.17,74897,List1B,black,woman,,,,null,,,,
null,"<img src=""stim_listB/shout4.gif""style=""height:400px;""></stim_listB>",,html-keyboard-response,258,1122294,0.0-15.0-1.17,74897,List1B,black,woman,,,,null,,,,
null,are shouting at each other,,html-keyboard-response,259,1124298,0.0-15.0-2.17,74897,List1B,black,woman,,,,null,,,,
11927,,,survey-text,260,1136227,0.0-15.0-3.17,74897,List1B,black,woman,,,,,"{""Q0"":""Jane and Fred are shouting at eachother ""}","<img src=""stim_listB/shout4.gif""style=""height:400px;""></stim_listB>",are shouting at each other,
null,"<div style=""font-size:60px;"">+</div>",,html-keyboard-response,261,1136730,0.0-15.0-0.18,74897,List1B,black,woman,,,,null,,,,
null,"<img src=""stim_listB/play2.gif""style=""height:400px;""></stim_listB>",,html-keyboard-response,262,1138734,0.0-15.0-1.18,74897,List1B,black,woman,,,,null,,,,
null,are playing with each other,,html-keyboard-response,263,1140737,0.0-15.0-2.18,74897,List1B,black,woman,,,,null,,,,
9296,,,survey-text,264,1150036,0.0-15.0-3.18,74897,List1B,black,woman,,,,,"{""Q0"":""""}","<img src=""stim_listB/play2.gif""style=""height:400px;""></stim_listB>",are playing with each other,
null,"<div style=""font-size:60px;"">+</div>",,html-keyboard-response,265,1150539,0.0-15.0-0.19,74897,List1B,black,woman,,,,null,,,,
null,"<img src=""stim_listB/fight8.gif""style=""height:400px;""></stim_listB>",,html-keyboard-response,266,1152542,0.0-15.0-1.19,74897,List1B,black,woman,,,,null,,,,
null,are fighting each other,,html-keyboard-response,267,1154546,0.0-15.0-2.19,74897,List1B,black,woman,,,,null,,,,
22853,,,survey-text,268,1177402,0.0-15.0-3.19,74897,List1B,black,woman,,,,,"{""Q0"":""Ruth and Beth are fighting eachother""}","<img src=""stim_listB/fight8.gif""style=""height:400px;""></stim_listB>",are fighting each other,
5312,"<img src='img/portrait_matrix_list1.jpg' style='width:900px;height:500px;''></img><p>If you have memorised all the portraits and names and are ready to start, press Continue.</p><p><strong>Please note: Your memory of these faces will be tested 4 times during this experiment.</strong></p>",0,html-button-response,269,1182716,0.0-16.0-0.0,74897,List1B,black,woman,,,,,,,,
2420,"<img src=""portrait/BW2.jpg""style=""height:400px;""></img>",2,html-button-response,270,1186140,0.0-16.0-1.0,74897,List1B,black,woman,,TRUE,2,,,,,
null,CORRECT,,html-keyboard-response,271,1187643,0.0-16.0-2.0-0.0,74897,List1B,black,woman,,,,null,,,,
1567,"<img src=""portrait/WM2.jpg""style=""height:400px;""></img>",7,html-button-response,272,1189214,0.0-16.0-4.0,74897,List1B,black,woman,,TRUE,7,,,,,
null,CORRECT,,html-keyboard-response,273,1190717,0.0-16.0-5.0-0.0,74897,List1B,black,woman,,,,null,,,,
5926,"<img src=""portrait/BW1.jpg""style=""height:400px;""></img>",0,html-button-response,274,1196647,0.0-16.0-7.0,74897,List1B,black,woman,,TRUE,0,,,,,
null,CORRECT,,html-keyboard-response,275,1198151,0.0-16.0-8.0-0.0,74897,List1B,black,woman,,,,null,,,,
2317,"<img src=""portrait/WM1.jpg""style=""height:400px;""></img>",6,html-button-response,276,1200472,0.0-16.0-10.0,74897,List1B,black,woman,,TRUE,6,,,,,
null,CORRECT,,html-keyboard-response,277,1201975,0.0-16.0-11.0-0.0,74897,List1B,black,woman,,,,null,,,,
6402,"<img src=""portrait/WW1.jpg""style=""height:400px;""></img>",1,html-button-response,278,1208381,0.0-16.0-13.0,74897,List1B,black,woman,,TRUE,1,,,,,
null,CORRECT,,html-keyboard-response,279,1209885,0.0-16.0-14.0-0.0,74897,List1B,black,woman,,,,null,,,,
1493,"<img src=""portrait/WW2.jpg""style=""height:400px;""></img>",3,html-button-response,280,1211381,0.0-16.0-16.0,74897,List1B,black,woman,,TRUE,3,,,,,
null,CORRECT,,html-keyboard-response,281,1212885,0.0-16.0-17.0-0.0,74897,List1B,black,woman,,,,null,,,,
1908,"<img src=""portrait/BM2.jpg""style=""height:400px;""></img>",5,html-button-response,282,1214796,0.0-16.0-19.0,74897,List1B,black,woman,,TRUE,5,,,,,
null,CORRECT,,html-keyboard-response,283,1216300,0.0-16.0-20.0-0.0,74897,List1B,black,woman,,,,null,,,,
1460,"<img src=""portrait/BM1.jpg""style=""height:400px;""></img>",4,html-button-response,284,1217764,0.0-16.0-22.0,74897,List1B,black,woman,,TRUE,4,,,,,
null,CORRECT,,html-keyboard-response,285,1219268,0.0-16.0-23.0-0.0,74897,List1B,black,woman,,,,null,,,,
1258,<p>You got 8 out of 8 right first time. Press Continue.</p>,0,html-button-response,286,1220529,0.0-16.0-25.0,74897,List1B,black,woman,,,,,,,,
null,"<div style=""font-size:60px;"">+</div>",,html-keyboard-response,287,1222033,0.0-17.0-0.0,74897,List1B,black,woman,,,,null,,,,
null,"<img src=""stim_listB/play7.gif""style=""height:400px;""></stim_listB>",,html-keyboard-response,288,1224037,0.0-17.0-1.0,74897,List1B,black,woman,,,,null,,,,
null,is playing with,,html-keyboard-response,289,1226041,0.0-17.0-2.0,74897,List1B,black,woman,,,,null,,,,
9809,,,survey-text,290,1235852,0.0-17.0-3.0,74897,List1B,black,woman,,,,,"{""Q0"":""Jane is playing with Kate""}","<img src=""stim_listB/play7.gif""style=""height:400px;""></stim_listB>",is playing with,
null,"<div style=""font-size:60px;"">+</div>",,html-keyboard-response,291,1236355,0.0-17.0-0.1,74897,List1B,black,woman,,,,null,,,,
null,"<img src=""stim_listB/flirt6.gif""style=""height:400px;""></stim_listB>",,html-keyboard-response,292,1238359,0.0-17.0-1.1,74897,List1B,black,woman,,,,null,,,,
null,are flirting with each other,,html-keyboard-response,293,1240363,0.0-17.0-2.1,74897,List1B,black,woman,,,,null,,,,
9675,,,survey-text,294,1250041,0.0-17.0-3.1,74897,List1B,black,woman,,,,,"{""Q0"":""Luke and Mike are flirting with eachother""}","<img src=""stim_listB/flirt6.gif""style=""height:400px;""></stim_listB>",are flirting with each other,
null,"<div style=""font-size:60px;"">+</div>",,html-keyboard-response,295,1250544,0.0-17.0-0.2,74897,List1B,black,woman,,,,null,,,,
null,"<img src=""stim_listB/play6.gif""style=""height:400px;""></stim_listB>",,html-keyboard-response,296,1252547,0.0-17.0-1.2,74897,List1B,black,woman,,,,null,,,,
null,are playing with each other,,html-keyboard-response,297,1254551,0.0-17.0-2.2,74897,List1B,black,woman,,,,null,,,,
9386,,,survey-text,298,1263940,0.0-17.0-3.2,74897,List1B,black,woman,,,,,"{""Q0"":""Luke and Fred are playing with eachother""}","<img src=""stim_listB/play6.gif""style=""height:400px;""></stim_listB>",are playing with each other,
null,"<div style=""font-size:60px;"">+</div>",,html-keyboard-response,299,1264443,0.0-17.0-0.3,74897,List1B,black,woman,,,,null,,,,
null,"<img src=""stim_listB/talk6.gif""style=""height:400px;""></stim_listB>",,html-keyboard-response,300,1266447,0.0-17.0-1.3,74897,List1B,black,woman,,,,null,,,,
null,are talking to each other,,html-keyboard-response,301,1268451,0.0-17.0-2.3,74897,List1B,black,woman,,,,null,,,,
8601,,,survey-text,302,1277055,0.0-17.0-3.3,74897,List1B,black,woman,,,,,"{""Q0"":""""}","<img src=""stim_listB/talk6.gif""style=""height:400px;""></stim_listB>",are talking to each other,
null,"<div style=""font-size:60px;"">+</div>",,html-keyboard-response,303,1277558,0.0-17.0-0.4,74897,List1B,black,woman,,,,null,,,,
null,"<img src=""stim_listB/talk7.gif""style=""height:400px;""></stim_listB>",,html-keyboard-response,304,1279561,0.0-17.0-1.4,74897,List1B,black,woman,,,,null,,,,
null,is talking to,,html-keyboard-response,305,1281565,0.0-17.0-2.4,74897,List1B,black,woman,,,,null,,,,
6097,,,survey-text,306,1287664,0.0-17.0-3.4,74897,List1B,black,woman,,,,,"{""Q0"":""Beth is talking to Jane ""}","<img src=""stim_listB/talk7.gif""style=""height:400px;""></stim_listB>",is talking to,
null,"<div style=""font-size:60px;"">+</div>",,html-keyboard-response,307,1288167,0.0-17.0-0.5,74897,List1B,black,woman,,,,null,,,,
null,"<img src=""stim_listB/flirt5.gif""style=""height:400px;""></stim_listB>",,html-keyboard-response,308,1290171,0.0-17.0-1.5,74897,List1B,black,woman,,,,null,,,,
null,is flirting with,,html-keyboard-response,309,1292174,0.0-17.0-2.5,74897,List1B,black,woman,,,,null,,,,
7583,,,survey-text,310,1299760,0.0-17.0-3.5,74897,List1B,black,woman,,,,,"{""Q0"":""Fred is flirting with mike ""}","<img src=""stim_listB/flirt5.gif""style=""height:400px;""></stim_listB>",is flirting with,
null,"<div style=""font-size:60px;"">+</div>",,html-keyboard-response,311,1300263,0.0-17.0-0.6,74897,List1B,black,woman,,,,null,,,,
null,"<img src=""stim_listB/flirt4.gif""style=""height:400px;""></stim_listB>",,html-keyboard-response,312,1302266,0.0-17.0-1.6,74897,List1B,black,woman,,,,null,,,,
null,are flirting with each other,,html-keyboard-response,313,1304270,0.0-17.0-2.6,74897,List1B,black,woman,,,,null,,,,
12796,,,survey-text,314,1317069,0.0-17.0-3.6,74897,List1B,black,woman,,,,,"{""Q0"":""Dave and Ruth are flirting with eachother ""}","<img src=""stim_listB/flirt4.gif""style=""height:400px;""></stim_listB>",are flirting with each other,
null,"<div style=""font-size:60px;"">+</div>",,html-keyboard-response,315,1317572,0.0-17.0-0.7,74897,List1B,black,woman,,,,null,,,,
null,"<img src=""stim_listB/play1.gif""style=""height:400px;""></stim_listB>",,html-keyboard-response,316,1319576,0.0-17.0-1.7,74897,List1B,black,woman,,,,null,,,,
null,is playing with,,html-keyboard-response,317,1321579,0.0-17.0-2.7,74897,List1B,black,woman,,,,null,,,,
7937,,,survey-text,318,1329519,0.0-17.0-3.7,74897,List1B,black,woman,,,,,"{""Q0"":""Mike is playing with Kate ""}","<img src=""stim_listB/play1.gif""style=""height:400px;""></stim_listB>",is playing with,
null,"<div style=""font-size:60px;"">+</div>",,html-keyboard-response,319,1330021,0.0-17.0-0.8,74897,List1B,black,woman,,,,null,,,,
null,"<img src=""stim_listB/talk4.gif""style=""height:400px;""></stim_listB>",,html-keyboard-response,320,1332029,0.0-17.0-1.8,74897,List1B,black,woman,,,,null,,,,
null,are talking to each other,,html-keyboard-response,321,1334037,0.0-17.0-2.8,74897,List1B,black,woman,,,,null,,,,
10537,,,survey-text,322,1344576,0.0-17.0-3.8,74897,List1B,black,woman,,,,,"{""Q0"":""Ruth is playing with Dave""}","<img src=""stim_listB/talk4.gif""style=""height:400px;""></stim_listB>",are talking to each other,
null,"<div style=""font-size:60px;"">+</div>",,html-keyboard-response,323,1345080,0.0-17.0-0.9,74897,List1B,black,woman,,,,null,,,,
null,"<img src=""stim_listB/shout6.gif""style=""height:400px;""></stim_listB>",,html-keyboard-response,324,1347083,0.0-17.0-1.9,74897,List1B,black,woman,,,,null,,,,
null,are shouting at each other,,html-keyboard-response,325,1349087,0.0-17.0-2.9,74897,List1B,black,woman,,,,null,,,,
12915,,,survey-text,326,1362008,0.0-17.0-3.9,74897,List1B,black,woman,,,,,"{""Q0"":""Mike and Dave are shouting at eachother ""}","<img src=""stim_listB/shout6.gif""style=""height:400px;""></stim_listB>",are shouting at each other,
null,"<div style=""font-size:60px;"">+</div>",,html-keyboard-response,327,1362512,0.0-17.0-0.10,74897,List1B,black,woman,,,,null,,,,
null,"<img src=""stim_listB/touch6.gif""style=""height:400px;""></stim_listB>",,html-keyboard-response,328,1364515,0.0-17.0-1.10,74897,List1B,black,woman,,,,null,,,,
null,are touching each other,,html-keyboard-response,329,1366517,0.0-17.0-2.10,74897,List1B,black,woman,,,,null,,,,
10721,,,survey-text,330,1377241,0.0-17.0-3.10,74897,List1B,black,woman,,,,,"{""Q0"":""Luke and mike are touching ""}","<img src=""stim_listB/touch6.gif""style=""height:400px;""></stim_listB>",are touching each other,
null,"<div style=""font-size:60px;"">+</div>",,html-keyboard-response,331,1377744,0.0-17.0-0.11,74897,List1B,black,woman,,,,null,,,,
null,"<img src=""stim_listB/fight1.gif""style=""height:400px;""></stim_listB>",,html-keyboard-response,332,1379747,0.0-17.0-1.11,74897,List1B,black,woman,,,,null,,,,
null,is fighting,,html-keyboard-response,333,1381750,0.0-17.0-2.11,74897,List1B,black,woman,,,,null,,,,
22304,,,survey-text,334,1404057,0.0-17.0-3.11,74897,List1B,black,woman,,,,,"{""Q0"":""Luke and Kate are touching""}","<img src=""stim_listB/fight1.gif""style=""height:400px;""></stim_listB>",is fighting,
null,"<div style=""font-size:60px;"">+</div>",,html-keyboard-response,335,1404561,0.0-17.0-0.12,74897,List1B,black,woman,,,,null,,,,
null,"<img src=""stim_listB/argue1.gif""style=""height:400px;""></stim_listB>",,html-keyboard-response,336,1406563,0.0-17.0-1.12,74897,List1B,black,woman,,,,null,,,,
null,is arguing with,,html-keyboard-response,337,1408566,0.0-17.0-2.12,74897,List1B,black,woman,,,,null,,,,
9164,,,survey-text,338,1417733,0.0-17.0-3.12,74897,List1B,black,woman,,,,,"{""Q0"":""Mike is arguing with Beth ""}","<img src=""stim_listB/argue1.gif""style=""height:400px;""></stim_listB>",is arguing with,
null,"<div style=""font-size:60px;"">+</div>",,html-keyboard-response,339,1418235,0.0-17.0-0.13,74897,List1B,black,woman,,,,null,,,,
null,"<img src=""stim_listB/marry5.gif""style=""height:400px;""></stim_listB>",,html-keyboard-response,340,1420240,0.0-17.0-1.13,74897,List1B,black,woman,,,,null,,,,
null,is marrying,,html-keyboard-response,341,1422243,0.0-17.0-2.13,74897,List1B,black,woman,,,,null,,,,
12392,,,survey-text,342,1434638,0.0-17.0-3.13,74897,List1B,black,woman,,,,,"{""Q0"":""Mike is marrying Luke ""}","<img src=""stim_listB/marry5.gif""style=""height:400px;""></stim_listB>",is marrying,
null,"<div style=""font-size:60px;"">+</div>",,html-keyboard-response,343,1435142,0.0-17.0-0.14,74897,List1B,black,woman,,,,null,,,,
null,"<img src=""stim_listB/kiss1.gif""style=""height:400px;""></stim_listB>",,html-keyboard-response,344,1437146,0.0-17.0-1.14,74897,List1B,black,woman,,,,null,,,,
null,is kissing,,html-keyboard-response,345,1439149,0.0-17.0-2.14,74897,List1B,black,woman,,,,null,,,,
20152,,,survey-text,346,1459305,0.0-17.0-3.14,74897,List1B,black,woman,,,,,"{""Q0"":""Beth is kissing Fred""}","<img src=""stim_listB/kiss1.gif""style=""height:400px;""></stim_listB>",is kissing,
null,"<div style=""font-size:60px;"">+</div>",,html-keyboard-response,347,1459808,0.0-17.0-0.15,74897,List1B,black,woman,,,,null,,,,
null,"<img src=""stim_listB/marry8.gif""style=""height:400px;""></stim_listB>",,html-keyboard-response,348,1461812,0.0-17.0-1.15,74897,List1B,black,woman,,,,null,,,,
null,are marrying each other,,html-keyboard-response,349,1463815,0.0-17.0-2.15,74897,List1B,black,woman,,,,null,,,,
9354,,,survey-text,350,1473177,0.0-17.0-3.15,74897,List1B,black,woman,,,,,"{""Q0"":""Jane and Beth are marrying eachother ""}","<img src=""stim_listB/marry8.gif""style=""height:400px;""></stim_listB>",are marrying each other,
null,"<div style=""font-size:60px;"">+</div>",,html-keyboard-response,351,1473680,0.0-17.0-0.16,74897,List1B,black,woman,,,,null,,,,
null,"<img src=""stim_listB/marry2.gif""style=""height:400px;""></stim_listB>",,html-keyboard-response,352,1475684,0.0-17.0-1.16,74897,List1B,black,woman,,,,null,,,,
null,are marrying each other,,html-keyboard-response,353,1477687,0.0-17.0-2.16,74897,List1B,black,woman,,,,null,,,,
12205,,,survey-text,354,1489894,0.0-17.0-3.16,74897,List1B,black,woman,,,,,"{""Q0"":""Fred and Kate are marrying eachother ""}","<img src=""stim_listB/marry2.gif""style=""height:400px;""></stim_listB>",are marrying each other,
null,"<div style=""font-size:60px;"">+</div>",,html-keyboard-response,355,1490397,0.0-17.0-0.17,74897,List1B,black,woman,,,,null,,,,
null,"<img src=""stim_listB/marry1.gif""style=""height:400px;""></stim_listB>",,html-keyboard-response,356,1492401,0.0-17.0-1.17,74897,List1B,black,woman,,,,null,,,,
null,is marrying,,html-keyboard-response,357,1494404,0.0-17.0-2.17,74897,List1B,black,woman,,,,null,,,,
6780,,,survey-text,358,1501187,0.0-17.0-3.17,74897,List1B,black,woman,,,,,"{""Q0"":""Beth is marrying mike ""}","<img src=""stim_listB/marry1.gif""style=""height:400px;""></stim_listB>",is marrying,
null,"<div style=""font-size:60px;"">+</div>",,html-keyboard-response,359,1501689,0.0-17.0-0.18,74897,List1B,black,woman,,,,null,,,,
null,"<img src=""stim_listB/flirt2.gif""style=""height:400px;""></stim_listB>",,html-keyboard-response,360,1503693,0.0-17.0-1.18,74897,List1B,black,woman,,,,null,,,,
null,are flirting with each other,,html-keyboard-response,361,1505696,0.0-17.0-2.18,74897,List1B,black,woman,,,,null,,,,
10377,,,survey-text,362,1516076,0.0-17.0-3.18,74897,List1B,black,woman,,,,,"{""Q0"":""Beth is flirting with mike""}","<img src=""stim_listB/flirt2.gif""style=""height:400px;""></stim_listB>",are flirting with each other,
null,"<div style=""font-size:60px;"">+</div>",,html-keyboard-response,363,1516579,0.0-17.0-0.19,74897,List1B,black,woman,,,,null,,,,
null,"<img src=""stim_listB/kiss2.gif""style=""height:400px;""></stim_listB>",,html-keyboard-response,364,1518588,0.0-17.0-1.19,74897,List1B,black,woman,,,,null,,,,
null,are kissing each other,,html-keyboard-response,365,1520591,0.0-17.0-2.19,74897,List1B,black,woman,,,,null,,,,
15531,,,survey-text,366,1536126,0.0-17.0-3.19,74897,List1B,black,woman,,,,,"{""Q0"":""Mike and""}","<img src=""stim_listB/kiss2.gif""style=""height:400px;""></stim_listB>",are kissing each other,
30402,"<img src='img/portrait_matrix_list1.jpg' style='width:900px;height:500px;''></img><p>If you have memorised all the portraits and names and are ready to start, press Continue.</p><p><strong>Please note: Your memory of these faces will be tested 4 times during this experiment.</strong></p>",0,html-button-response,367,1566529,0.0-18.0-0.0,74897,List1B,black,woman,,,,,,,,
7771,"<img src=""portrait/WW1.jpg""style=""height:400px;""></img>",1,html-button-response,368,1575304,0.0-18.0-1.0,74897,List1B,black,woman,,TRUE,1,,,,,
null,CORRECT,,html-keyboard-response,369,1576812,0.0-18.0-2.0-0.0,74897,List1B,black,woman,,,,null,,,,
1471,"<img src=""portrait/BW2.jpg""style=""height:400px;""></img>",2,html-button-response,370,1578287,0.0-18.0-4.0,74897,List1B,black,woman,,TRUE,2,,,,,
null,CORRECT,,html-keyboard-response,371,1579791,0.0-18.0-5.0-0.0,74897,List1B,black,woman,,,,null,,,,
3584,"<img src=""portrait/WM1.jpg""style=""height:400px;""></img>",6,html-button-response,372,1583379,0.0-18.0-7.0,74897,List1B,black,woman,,TRUE,6,,,,,
null,CORRECT,,html-keyboard-response,373,1584883,0.0-18.0-8.0-0.0,74897,List1B,black,woman,,,,null,,,,
1784,"<img src=""portrait/BM1.jpg""style=""height:400px;""></img>",4,html-button-response,374,1586670,0.0-18.0-10.0,74897,List1B,black,woman,,TRUE,4,,,,,
null,CORRECT,,html-keyboard-response,375,1588174,0.0-18.0-11.0-0.0,74897,List1B,black,woman,,,,null,,,,
3626,"<img src=""portrait/WM2.jpg""style=""height:400px;""></img>",7,html-button-response,376,1591802,0.0-18.0-13.0,74897,List1B,black,woman,,TRUE,7,,,,,
null,CORRECT,,html-keyboard-response,377,1593306,0.0-18.0-14.0-0.0,74897,List1B,black,woman,,,,null,,,,
1461,"<img src=""portrait/BM2.jpg""style=""height:400px;""></img>",5,html-button-response,378,1594770,0.0-18.0-16.0,74897,List1B,black,woman,,TRUE,5,,,,,
null,CORRECT,,html-keyboard-response,379,1596274,0.0-18.0-17.0-0.0,74897,List1B,black,woman,,,,null,,,,
2258,"<img src=""portrait/WW2.jpg""style=""height:400px;""></img>",3,html-button-response,380,1598535,0.0-18.0-19.0,74897,List1B,black,woman,,TRUE,3,,,,,
null,CORRECT,,html-keyboard-response,381,1600039,0.0-18.0-20.0-0.0,74897,List1B,black,woman,,,,null,,,,
9594,"<img src=""portrait/BW1.jpg""style=""height:400px;""></img>",0,html-button-response,382,1609636,0.0-18.0-22.0,74897,List1B,black,woman,,TRUE,0,,,,,
null,CORRECT,,html-keyboard-response,383,1611139,0.0-18.0-23.0-0.0,74897,List1B,black,woman,,,,null,,,,
1359,<p>You got 8 out of 8 right first time. Press Continue.</p>,0,html-button-response,384,1612502,0.0-18.0-25.0,74897,List1B,black,woman,,,,,,,,
null,"<div style=""font-size:60px;"">+</div>",,html-keyboard-response,385,1614008,0.0-19.0-0.0,74897,List1B,black,woman,,,,null,,,,
null,"<img src=""stim_listB/shout1.gif""style=""height:400px;""></stim_listB>",,html-keyboard-response,386,1616012,0.0-19.0-1.0,74897,List1B,black,woman,,,,null,,,,
null,is shouting at,,html-keyboard-response,387,1618015,0.0-19.0-2.0,74897,List1B,black,woman,,,,null,,,,
13790,,,survey-text,388,1631807,0.0-19.0-3.0,74897,List1B,black,woman,,,,,"{""Q0"":""Fred is shouting at Beth""}","<img src=""stim_listB/shout1.gif""style=""height:400px;""></stim_listB>",is shouting at,
null,"<div style=""font-size:60px;"">+</div>",,html-keyboard-response,389,1632311,0.0-19.0-0.1,74897,List1B,black,woman,,,,null,,,,
null,"<img src=""stim_listB/fight6.gif""style=""height:400px;""></stim_listB>",,html-keyboard-response,390,1634315,0.0-19.0-1.1,74897,List1B,black,woman,,,,null,,,,
null,are fighting each other,,html-keyboard-response,391,1636318,0.0-19.0-2.1,74897,List1B,black,woman,,,,null,,,,
17507,,,survey-text,392,1653828,0.0-19.0-3.1,74897,List1B,black,woman,,,,,"{""Q0"":""Dave is fighting with  Luke""}","<img src=""stim_listB/fight6.gif""style=""height:400px;""></stim_listB>",are fighting each other,
null,"<div style=""font-size:60px;"">+</div>",,html-keyboard-response,393,1654331,0.0-19.0-0.2,74897,List1B,black,woman,,,,null,,,,
null,"<img src=""stim_listB/play8.gif""style=""height:400px;""></stim_listB>",,html-keyboard-response,394,1656335,0.0-19.0-1.2,74897,List1B,black,woman,,,,null,,,,
null,are playing with each other,,html-keyboard-response,395,1658338,0.0-19.0-2.2,74897,List1B,black,woman,,,,null,,,,
29522,,,survey-text,396,1687866,0.0-19.0-3.2,74897,List1B,black,woman,,,,,"{""Q0"":""""}","<img src=""stim_listB/play8.gif""style=""height:400px;""></stim_listB>",are playing with each other,
null,"<div style=""font-size:60px;"">+</div>",,html-keyboard-response,397,1688370,0.0-19.0-0.3,74897,List1B,black,woman,,,,null,,,,
null,"<img src=""stim_listB/touch5.gif""style=""height:400px;""></stim_listB>",,html-keyboard-response,398,1690374,0.0-19.0-1.3,74897,List1B,black,woman,,,,null,,,,
null,is touching,,html-keyboard-response,399,1692377,0.0-19.0-2.3,74897,List1B,black,woman,,,,null,,,,
6388,,,survey-text,400,1698768,0.0-19.0-3.3,74897,List1B,black,woman,,,,,"{""Q0"":""Mike is touching dave""}","<img src=""stim_listB/touch5.gif""style=""height:400px;""></stim_listB>",is touching,
null,"<div style=""font-size:60px;"">+</div>",,html-keyboard-response,401,1699271,0.0-19.0-0.4,74897,List1B,black,woman,,,,null,,,,
null,"<img src=""stim_listB/argue2.gif""style=""height:400px;""></stim_listB>",,html-keyboard-response,402,1701275,0.0-19.0-1.4,74897,List1B,black,woman,,,,null,,,,
null,are arguing with each other,,html-keyboard-response,403,1703278,0.0-19.0-2.4,74897,List1B,black,woman,,,,null,,,,
11784,,,survey-text,404,1715066,0.0-19.0-3.4,74897,List1B,black,woman,,,,,"{""Q0"":""""}","<img src=""stim_listB/argue2.gif""style=""height:400px;""></stim_listB>",are arguing with each other,
null,"<div style=""font-size:60px;"">+</div>",,html-keyboard-response,405,1715569,0.0-19.0-0.5,74897,List1B,black,woman,,,,null,,,,
null,"<img src=""stim_listB/kiss4.gif""style=""height:400px;""></stim_listB>",,html-keyboard-response,406,1717577,0.0-19.0-1.5,74897,List1B,black,woman,,,,null,,,,
null,are kissing each other,,html-keyboard-response,407,1719581,0.0-19.0-2.5,74897,List1B,black,woman,,,,null,,,,
51306,,,survey-text,408,1770890,0.0-19.0-3.5,74897,List1B,black,woman,,,,,"{""Q0"":""Jane and Dave are kissing each eachother ""}","<img src=""stim_listB/kiss4.gif""style=""height:400px;""></stim_listB>",are kissing each other,
null,"<div style=""font-size:60px;"">+</div>",,html-keyboard-response,409,1771393,0.0-19.0-0.6,74897,List1B,black,woman,,,,null,,,,
null,"<img src=""stim_listB/play3.gif""style=""height:400px;""></stim_listB>",,html-keyboard-response,410,1773396,0.0-19.0-1.6,74897,List1B,black,woman,,,,null,,,,
null,is playing with,,html-keyboard-response,411,1775399,0.0-19.0-2.6,74897,List1B,black,woman,,,,null,,,,
47582,,,survey-text,412,1822987,0.0-19.0-3.6,74897,List1B,black,woman,,,,,"{""Q0"":""""}","<img src=""stim_listB/play3.gif""style=""height:400px;""></stim_listB>",is playing with,
null,"<div style=""font-size:60px;"">+</div>",,html-keyboard-response,413,1823491,0.0-19.0-0.7,74897,List1B,black,woman,,,,null,,,,
null,"<img src=""stim_listB/dance1.gif""style=""height:400px;""></stim_listB>",,html-keyboard-response,414,1825495,0.0-19.0-1.7,74897,List1B,black,woman,,,,null,,,,
null,is dancing with,,html-keyboard-response,415,1827498,0.0-19.0-2.7,74897,List1B,black,woman,,,,null,,,,
18948,,,survey-text,416,1846451,0.0-19.0-3.7,74897,List1B,black,woman,,,,,"{""Q0"":""Kate is dancing with fred""}","<img src=""stim_listB/dance1.gif""style=""height:400px;""></stim_listB>",is dancing with,
null,"<div style=""font-size:60px;"">+</div>",,html-keyboard-response,417,1846954,0.0-19.0-0.8,74897,List1B,black,woman,,,,null,,,,
null,"<img src=""stim_listB/talk1.gif""style=""height:400px;""></stim_listB>",,html-keyboard-response,418,1848958,0.0-19.0-1.8,74897,List1B,black,woman,,,,null,,,,
null,is talking to,,html-keyboard-response,419,1850962,0.0-19.0-2.8,74897,List1B,black,woman,,,,null,,,,
23136,,,survey-text,420,1874100,0.0-19.0-3.8,74897,List1B,black,woman,,,,,"{""Q0"":""Kate is dancing with Dave ""}","<img src=""stim_listB/talk1.gif""style=""height:400px;""></stim_listB>",is talking to,
null,"<div style=""font-size:60px;"">+</div>",,html-keyboard-response,421,1874603,0.0-19.0-0.9,74897,List1B,black,woman,,,,null,,,,
null,"<img src=""stim_listB/touch8.gif""style=""height:400px;""></stim_listB>",,html-keyboard-response,422,1876607,0.0-19.0-1.9,74897,List1B,black,woman,,,,null,,,,
null,are touching each other,,html-keyboard-response,423,1878611,0.0-19.0-2.9,74897,List1B,black,woman,,,,null,,,,
9688,,,survey-text,424,1888302,0.0-19.0-3.9,74897,List1B,black,woman,,,,,"{""Q0"":""Jane and Beth are touching ""}","<img src=""stim_listB/touch8.gif""style=""height:400px;""></stim_listB>",are touching each other,
null,"<div style=""font-size:60px;"">+</div>",,html-keyboard-response,425,1888804,0.0-19.0-0.10,74897,List1B,black,woman,,,,null,,,,
null,"<img src=""stim_listB/kiss8.gif""style=""height:400px;""></stim_listB>",,html-keyboard-response,426,1890808,0.0-19.0-1.10,74897,List1B,black,woman,,,,null,,,,
null,are kissing each other,,html-keyboard-response,427,1892812,0.0-19.0-2.10,74897,List1B,black,woman,,,,null,,,,
10836,,,survey-text,428,1903651,0.0-19.0-3.10,74897,List1B,black,woman,,,,,"{""Q0"":""Jane and Kate are kissing eachother ""}","<img src=""stim_listB/kiss8.gif""style=""height:400px;""></stim_listB>",are kissing each other,
null,"<div style=""font-size:60px;"">+</div>",,html-keyboard-response,429,1904154,0.0-19.0-0.11,74897,List1B,black,woman,,,,null,,,,
null,"<img src=""stim_listB/dance2.gif""style=""height:400px;""></stim_listB>",,html-keyboard-response,430,1906157,0.0-19.0-1.11,74897,List1B,black,woman,,,,null,,,,
null,are dancing with each other,,html-keyboard-response,431,1908161,0.0-19.0-2.11,74897,List1B,black,woman,,,,null,,,,
40951,,,survey-text,432,1949119,0.0-19.0-3.11,74897,List1B,black,woman,,,,,"{""Q0"":""Mike and Beth are dancing with eachother ""}","<img src=""stim_listB/dance2.gif""style=""height:400px;""></stim_listB>",are dancing with each other,
null,"<div style=""font-size:60px;"">+</div>",,html-keyboard-response,433,1949626,0.0-19.0-0.12,74897,List1B,black,woman,,,,null,,,,
null,"<img src=""stim_listB/play5.gif""style=""height:400px;""></stim_listB>",,html-keyboard-response,434,1951629,0.0-19.0-1.12,74897,List1B,black,woman,,,,null,,,,
null,is playing with,,html-keyboard-response,435,1953633,0.0-19.0-2.12,74897,List1B,black,woman,,,,null,,,,
10436,,,survey-text,436,1964071,0.0-19.0-3.12,74897,List1B,black,woman,,,,,"{""Q0"":""Mike is playing cards with Dave""}","<img src=""stim_listB/play5.gif""style=""height:400px;""></stim_listB>",is playing with,
null,"<div style=""font-size:60px;"">+</div>",,html-keyboard-response,437,1964574,0.0-19.0-0.13,74897,List1B,black,woman,,,,null,,,,
null,"<img src=""stim_listB/fight7.gif""style=""height:400px;""></stim_listB>",,html-keyboard-response,438,1966579,0.0-19.0-1.13,74897,List1B,black,woman,,,,null,,,,
null,is fighting,,html-keyboard-response,439,1968582,0.0-19.0-2.13,74897,List1B,black,woman,,,,null,,,,
8536,,,survey-text,440,1977121,0.0-19.0-3.13,74897,List1B,black,woman,,,,,"{""Q0"":""Kate and Jane are fighting""}","<img src=""stim_listB/fight7.gif""style=""height:400px;""></stim_listB>",is fighting,
null,"<div style=""font-size:60px;"">+</div>",,html-keyboard-response,441,1977624,0.0-19.0-0.14,74897,List1B,black,woman,,,,null,,,,
null,"<img src=""stim_listB/dance4.gif""style=""height:400px;""></stim_listB>",,html-keyboard-response,442,1979628,0.0-19.0-1.14,74897,List1B,black,woman,,,,null,,,,
null,are dancing with each other,,html-keyboard-response,443,1981632,0.0-19.0-2.14,74897,List1B,black,woman,,,,null,,,,
11435,,,survey-text,444,1993070,0.0-19.0-3.14,74897,List1B,black,woman,,,,,"{""Q0"":""Dave and Ruth are dancing with eachother ""}","<img src=""stim_listB/dance4.gif""style=""height:400px;""></stim_listB>",are dancing with each other,
null,"<div style=""font-size:60px;"">+</div>",,html-keyboard-response,445,1993573,0.0-19.0-0.15,74897,List1B,black,woman,,,,null,,,,
null,"<img src=""stim_listB/marry3.gif""style=""height:400px;""></stim_listB>",,html-keyboard-response,446,1995577,0.0-19.0-1.15,74897,List1B,black,woman,,,,null,,,,
null,is marrying,,html-keyboard-response,447,1997585,0.0-19.0-2.15,74897,List1B,black,woman,,,,null,,,,
6606,,,survey-text,448,2004195,0.0-19.0-3.15,74897,List1B,black,woman,,,,,"{""Q0"":""Dave is marrying Ruth ""}","<img src=""stim_listB/marry3.gif""style=""height:400px;""></stim_listB>",is marrying,
null,"<div style=""font-size:60px;"">+</div>",,html-keyboard-response,449,2004698,0.0-19.0-0.16,74897,List1B,black,woman,,,,null,,,,
null,"<img src=""stim_listB/fight4.gif""style=""height:400px;""></stim_listB>",,html-keyboard-response,450,2006702,0.0-19.0-1.16,74897,List1B,black,woman,,,,null,,,,
null,are fighting each other,,html-keyboard-response,451,2008705,0.0-19.0-2.16,74897,List1B,black,woman,,,,null,,,,
13216,,,survey-text,452,2021924,0.0-19.0-3.16,74897,List1B,black,woman,,,,,"{""Q0"":""Ruth is dancing with luke""}","<img src=""stim_listB/fight4.gif""style=""height:400px;""></stim_listB>",are fighting each other,
null,"<div style=""font-size:60px;"">+</div>",,html-keyboard-response,453,2022427,0.0-19.0-0.17,74897,List1B,black,woman,,,,null,,,,
null,"<img src=""stim_listB/touch4.gif""style=""height:400px;""></stim_listB>",,html-keyboard-response,454,2024431,0.0-19.0-1.17,74897,List1B,black,woman,,,,null,,,,
null,are touching each other,,html-keyboard-response,455,2026434,0.0-19.0-2.17,74897,List1B,black,woman,,,,null,,,,
8535,,,survey-text,456,2034977,0.0-19.0-3.17,74897,List1B,black,woman,,,,,"{""Q0"":""Luke is dancing with Ruth ""}","<img src=""stim_listB/touch4.gif""style=""height:400px;""></stim_listB>",are touching each other,
null,"<div style=""font-size:60px;"">+</div>",,html-keyboard-response,457,2035480,0.0-19.0-0.18,74897,List1B,black,woman,,,,null,,,,
null,"<img src=""stim_listB/flirt8.gif""style=""height:400px;""></stim_listB>",,html-keyboard-response,458,2037484,0.0-19.0-1.18,74897,List1B,black,woman,,,,null,,,,
null,are flirting with each other,,html-keyboard-response,459,2039487,0.0-19.0-2.18,74897,List1B,black,woman,,,,null,,,,
11351,,,survey-text,460,2050841,0.0-19.0-3.18,74897,List1B,black,woman,,,,,"{""Q0"":""Kate and Ruth are flirting with eachother ""}","<img src=""stim_listB/flirt8.gif""style=""height:400px;""></stim_listB>",are flirting with each other,
null,"<div style=""font-size:60px;"">+</div>",,html-keyboard-response,461,2051344,0.0-19.0-0.19,74897,List1B,black,woman,,,,null,,,,
null,"<img src=""stim_listB/fight5.gif""style=""height:400px;""></stim_listB>",,html-keyboard-response,462,2053348,0.0-19.0-1.19,74897,List1B,black,woman,,,,null,,,,
null,is fighting,,html-keyboard-response,463,2055352,0.0-19.0-2.19,74897,List1B,black,woman,,,,null,,,,
1186,,,survey-text,464,2056541,0.0-19.0-3.19,74897,List1B,black,woman,,,,,"{""Q0"":""""}","<img src=""stim_listB/fight5.gif""style=""height:400px;""></stim_listB>",is fighting,
2200,<p>Thank you for completing that task.</p><p>The final part of this session is a short questionnaire.</p><p>Press Continue.</p>,0,html-button-response,465,2058743,0.0-20.0,74897,List1B,black,woman,,,,,,,,
21387,,,survey-text,466,2081133,0.0-21.0,74897,List1B,black,woman,,,,,"{""Q0"":""23"",""Q1"":""English"",""Q2"":""English"",""Q3"":""England"",""Q4"":""Black British "",""Q5"":""Female""}",,,demographics
11500,,,survey-likert,467,2092638,0.0-22.0,74897,List1B,black,woman,,,,,"{""Q0"":4}",,,likert_ESS
7442,,,survey-likert,468,2100084,0.0-23.0,74897,List1B,black,woman,,,,,"{""Q0"":4}",,,likert_NSSAL_Q1
2504,,,survey-likert,469,2102592,0.0-24.0,74897,List1B,black,woman,,,,,"{""Q0"":4}",,,likert_NSSAL_Q2
4114,,,survey-likert,470,2106710,0.0-25.0,74897,List1B,black,woman,,,,,"{""Q0"":3}",,,likert_CGRS_Q1
4932,,,survey-likert,471,2111647,0.0-26.0,74897,List1B,black,woman,,,,,"{""Q0"":3}",,,likert_CGRS_Q2
2529,,,survey-likert,472,2114182,0.0-27.0,74897,List1B,black,woman,,,,,"{""Q0"":3}",,,likert_CGRS_Q3
7760,,,survey-text,473,2121948,0.0-28.0,74897,List1B,black,woman,,,,,"{""Q0"":""ccc""}",,,worker_id
17653,,,external-html,474,2139741,0.0-29.0,74897,List1B,black,woman,debrief.html,,,,,,,
