rt,stimulus,button_pressed,trial_type,trial_index,time_elapsed,internal_node_id,subject,list,ppt_race,ppt_gender,url,first_guess,correct,key_press,responses,image_type,phrase_type,test_part
8149,Welcome to the experiment. Press Continue to begin.,0,html-button-response,0,8161,0.0-0.0,75393,List1A,black,man,,,,,,,,
11991,,,external-html,1,21486,0.0-1.0,75393,List1A,black,man,consent.html,,,,,,,
7877,"<p>On the next page, you will see portraits of 8 people and their names.</p><p>Your first task is to take a few minutes to memorise the names of these people.</p><p>You will have to recall their names during the rest of the experiment, so it is</p><p>essential that you try to memorise these people and their names as best as you can.</p><br><p><strong>You will then be tested on your memory of these names and portraits.</strong></p><br><p>The experiment will start after you have completed this memory test.</p><br><p>Ready?</p>",0,html-button-response,2,29369,0.0-2.0,75393,List1A,black,man,,,,,,,,
27829,"<img src='img/portrait_matrix_list1.jpg' style='width:900px;height:500px;''></img><p>If you have memorised all the portraits and names and are ready to start, press Continue.</p><p><strong>Please note: Your memory of these faces will be tested 4 times during this experiment.</strong></p>",0,html-button-response,3,58205,0.0-3.0-0.0,75393,List1A,black,man,,,,,,,,
5797,"<img src=""portrait/WM2.jpg""style=""height:400px;""></img>",5,html-button-response,4,65013,0.0-3.0-1.0,75393,List1A,black,man,,TRUE,7,,,,,
3209,"<img src=""portrait/WM2.jpg""style=""height:400px;""></img>",7,html-button-response,5,69231,0.0-3.0-3.0-0.0,75393,List1A,black,man,,FALSE,7,,,,,
null,CORRECT,,html-keyboard-response,6,70738,0.0-3.0-3.0-1.0-0.0,75393,List1A,black,man,,,,null,,,,
5731,"<img src=""portrait/BW1.jpg""style=""height:400px;""></img>",1,html-button-response,7,76474,0.0-3.0-4.0,75393,List1A,black,man,,TRUE,0,,,,,
1660,"<img src=""portrait/BW1.jpg""style=""height:400px;""></img>",0,html-button-response,8,79144,0.0-3.0-6.0-0.0,75393,List1A,black,man,,FALSE,0,,,,,
null,CORRECT,,html-keyboard-response,9,80648,0.0-3.0-6.0-1.0-0.0,75393,List1A,black,man,,,,null,,,,
8103,"<img src=""portrait/BM1.jpg""style=""height:400px;""></img>",5,html-button-response,10,88756,0.0-3.0-7.0,75393,List1A,black,man,,TRUE,4,,,,,
1989,"<img src=""portrait/BM1.jpg""style=""height:400px;""></img>",4,html-button-response,11,91751,0.0-3.0-9.0-0.0,75393,List1A,black,man,,FALSE,4,,,,,
null,CORRECT,,html-keyboard-response,12,93255,0.0-3.0-9.0-1.0-0.0,75393,List1A,black,man,,,,null,,,,
2980,"<img src=""portrait/WM1.jpg""style=""height:400px;""></img>",6,html-button-response,13,96240,0.0-3.0-10.0,75393,List1A,black,man,,TRUE,6,,,,,
null,CORRECT,,html-keyboard-response,14,97745,0.0-3.0-11.0-0.0,75393,List1A,black,man,,,,null,,,,
8254,"<img src=""portrait/BM2.jpg""style=""height:400px;""></img>",5,html-button-response,15,106005,0.0-3.0-13.0,75393,List1A,black,man,,TRUE,5,,,,,
null,CORRECT,,html-keyboard-response,16,107510,0.0-3.0-14.0-0.0,75393,List1A,black,man,,,,null,,,,
4010,"<img src=""portrait/WW1.jpg""style=""height:400px;""></img>",3,html-button-response,17,111526,0.0-3.0-16.0,75393,List1A,black,man,,TRUE,1,,,,,
1644,"<img src=""portrait/WW1.jpg""style=""height:400px;""></img>",1,html-button-response,18,114177,0.0-3.0-18.0-0.0,75393,List1A,black,man,,FALSE,1,,,,,
null,CORRECT,,html-keyboard-response,19,115680,0.0-3.0-18.0-1.0-0.0,75393,List1A,black,man,,,,null,,,,
3796,"<img src=""portrait/WW2.jpg""style=""height:400px;""></img>",2,html-button-response,20,119482,0.0-3.0-19.0,75393,List1A,black,man,,TRUE,3,,,,,
1816,"<img src=""portrait/WW2.jpg""style=""height:400px;""></img>",3,html-button-response,21,122304,0.0-3.0-21.0-0.0,75393,List1A,black,man,,FALSE,3,,,,,
null,CORRECT,,html-keyboard-response,22,123808,0.0-3.0-21.0-1.0-0.0,75393,List1A,black,man,,,,null,,,,
2826,"<img src=""portrait/BW2.jpg""style=""height:400px;""></img>",2,html-button-response,23,126638,0.0-3.0-22.0,75393,List1A,black,man,,TRUE,2,,,,,
null,CORRECT,,html-keyboard-response,24,128143,0.0-3.0-23.0-0.0,75393,List1A,black,man,,,,null,,,,
1805,<p>You got 3 out of 8 right first time. Press Continue.</p>,0,html-button-response,25,129951,0.0-3.0-25.0,75393,List1A,black,man,,,,,,,,
2768,"As you did not score 100%, the memory game will repeat. Press Continue.",0,html-button-response,26,133725,0.0-3.0-26.0-0.0,75393,List1A,black,man,,,,,,,,
13500,"<img src='img/portrait_matrix_list1.jpg' style='width:900px;height:500px;''></img><p>If you have memorised all the portraits and names and are ready to start, press Continue.</p><p><strong>Please note: Your memory of these faces will be tested 4 times during this experiment.</strong></p>",0,html-button-response,27,148232,0.0-3.1-0.1,75393,List1A,black,man,,,,,,,,
2288,"<img src=""portrait/WM2.jpg""style=""height:400px;""></img>",7,html-button-response,28,151526,0.0-3.1-1.1,75393,List1A,black,man,,TRUE,7,,,,,
null,CORRECT,,html-keyboard-response,29,153031,0.0-3.1-2.1-0.1,75393,List1A,black,man,,,,null,,,,
7438,"<img src=""portrait/BW1.jpg""style=""height:400px;""></img>",0,html-button-response,30,160475,0.0-3.1-4.1,75393,List1A,black,man,,TRUE,0,,,,,
null,CORRECT,,html-keyboard-response,31,161980,0.0-3.1-5.1-0.1,75393,List1A,black,man,,,,null,,,,
2361,"<img src=""portrait/BM1.jpg""style=""height:400px;""></img>",4,html-button-response,32,164346,0.0-3.1-7.1,75393,List1A,black,man,,TRUE,4,,,,,
null,CORRECT,,html-keyboard-response,33,165850,0.0-3.1-8.1-0.1,75393,List1A,black,man,,,,null,,,,
1512,"<img src=""portrait/WM1.jpg""style=""height:400px;""></img>",6,html-button-response,34,167366,0.0-3.1-10.1,75393,List1A,black,man,,TRUE,6,,,,,
null,CORRECT,,html-keyboard-response,35,168872,0.0-3.1-11.1-0.1,75393,List1A,black,man,,,,null,,,,
1740,"<img src=""portrait/BM2.jpg""style=""height:400px;""></img>",5,html-button-response,36,170617,0.0-3.1-13.1,75393,List1A,black,man,,TRUE,5,,,,,
null,CORRECT,,html-keyboard-response,37,172121,0.0-3.1-14.1-0.1,75393,List1A,black,man,,,,null,,,,
2176,"<img src=""portrait/WW1.jpg""style=""height:400px;""></img>",1,html-button-response,38,174301,0.0-3.1-16.1,75393,List1A,black,man,,TRUE,1,,,,,
null,CORRECT,,html-keyboard-response,39,175805,0.0-3.1-17.1-0.1,75393,List1A,black,man,,,,null,,,,
2588,"<img src=""portrait/WW2.jpg""style=""height:400px;""></img>",3,html-button-response,40,178398,0.0-3.1-19.1,75393,List1A,black,man,,TRUE,3,,,,,
null,CORRECT,,html-keyboard-response,41,179903,0.0-3.1-20.1-0.1,75393,List1A,black,man,,,,null,,,,
2031,"<img src=""portrait/BW2.jpg""style=""height:400px;""></img>",2,html-button-response,42,181940,0.0-3.1-22.1,75393,List1A,black,man,,TRUE,2,,,,,
null,CORRECT,,html-keyboard-response,43,183444,0.0-3.1-23.1-0.1,75393,List1A,black,man,,,,null,,,,
1126,<p>You got 8 out of 8 right first time. Press Continue.</p>,0,html-button-response,44,184573,0.0-3.1-25.1,75393,List1A,black,man,,,,,,,,
19224,"<p>In this experiment, you will view photographs of the people from the memory game interacting.</p><p>By using the <strong>exact</strong> phrase given <i>after</i> the photograph appears and recalling the correct names of the people in the photographs, form a sentence describing the interaction. You do not need to capitalise names.</p><p>Type your answer in the space provided. Please complete every sentence before moving onto the next trial.</p><p>You will only have a few seconds to memorise each given photograph and phrase before you can respond, so try your best to focus.</p><p>An example is given below. Press 'Continue' when you are ready.</p><img src='img/speaking_example.jpg' style='width:800px;height:460px;''></img>",0,html-button-response,45,204808,0.0-4.0,75393,List1A,black,man,,,,,,,,
1682,"<p>Before the experiment starts, you will watch two example trials. Press 'Continue'.</p>",0,html-button-response,46,207494,0.0-5.0,75393,List1A,black,man,,,,,,,,
null,<img src='img/meet_eg.gif' style='height:400px;''></img>,,html-keyboard-response,47,210500,0.0-6.0,75393,List1A,black,man,,,,null,,,,
null,<p>is meeting</p>,,html-keyboard-response,48,212502,0.0-7.0,75393,List1A,black,man,,,,null,,,,
1397,<p><b>Answer:</b> kate is meeting beth</p>,0,html-button-response,49,213901,0.0-8.0,75393,List1A,black,man,,,,,,,,
null,<img src='img/look_eg.gif' style='height:400px;''></img>,,html-keyboard-response,50,216906,0.0-9.0,75393,List1A,black,man,,,,null,,,,
null,<p>are looking at each other</p>,,html-keyboard-response,51,218909,0.0-10.0,75393,List1A,black,man,,,,null,,,,
1294,<p><b>Answer:</b> luke and dave are looking at each other</p>,0,html-button-response,52,220206,0.0-11.0,75393,List1A,black,man,,,,,,,,
9716,"<p>Ready to start the experiment?</p><br><p><strong>Remember to describe the picture using a full sentence,</strong></p><p><strong>that combines the names of the people with the <i>exact</i> phrase given.</strong></p><p><strong>To receive full payment you must do this correctly.</strong></p><p><strong> You do not need to capitalise names or use punctuation.</strong></p><br><p>Press 'Continue' to begin.</p>",0,html-button-response,53,230927,0.0-12.0,75393,List1A,black,man,,,,,,,,
null,"<div style=""font-size:60px;"">+</div>",,html-keyboard-response,54,232430,0.0-13.0-0.0,75393,List1A,black,man,,,,null,,,,
null,"<img src=""stim_listA/talk1.gif""style=""height:400px;""></stim_listA>",,html-keyboard-response,55,234433,0.0-13.0-1.0,75393,List1A,black,man,,,,null,,,,
null,is talking to,,html-keyboard-response,56,236442,0.0-13.0-2.0,75393,List1A,black,man,,,,null,,,,
13017,,,survey-text,57,249464,0.0-13.0-3.0,75393,List1A,black,man,,,,,"{""Q0"":""fred  is  talking to jane""}","<img src=""stim_listA/talk1.gif""style=""height:400px;""></stim_listA>",is talking to,
null,"<div style=""font-size:60px;"">+</div>",,html-keyboard-response,58,249968,0.0-13.0-0.1,75393,List1A,black,man,,,,null,,,,
null,"<img src=""stim_listA/play4.gif""style=""height:400px;""></stim_listA>",,html-keyboard-response,59,251971,0.0-13.0-1.1,75393,List1A,black,man,,,,null,,,,
null,are playing with each other,,html-keyboard-response,60,253974,0.0-13.0-2.1,75393,List1A,black,man,,,,null,,,,
16135,,,survey-text,61,270112,0.0-13.0-3.1,75393,List1A,black,man,,,,,"{""Q0"":""luke and dave are talking to each other""}","<img src=""stim_listA/play4.gif""style=""height:400px;""></stim_listA>",are playing with each other,
null,"<div style=""font-size:60px;"">+</div>",,html-keyboard-response,62,270615,0.0-13.0-0.2,75393,List1A,black,man,,,,null,,,,
null,"<img src=""stim_listA/play6.gif""style=""height:400px;""></stim_listA>",,html-keyboard-response,63,272618,0.0-13.0-1.2,75393,List1A,black,man,,,,null,,,,
null,are playing with each other,,html-keyboard-response,64,274622,0.0-13.0-2.2,75393,List1A,black,man,,,,null,,,,
12463,,,survey-text,65,287088,0.0-13.0-3.2,75393,List1A,black,man,,,,,"{""Q0"":""luke and fred are playing with each other""}","<img src=""stim_listA/play6.gif""style=""height:400px;""></stim_listA>",are playing with each other,
null,"<div style=""font-size:60px;"">+</div>",,html-keyboard-response,66,287591,0.0-13.0-0.3,75393,List1A,black,man,,,,null,,,,
null,"<img src=""stim_listA/shout4.gif""style=""height:400px;""></stim_listA>",,html-keyboard-response,67,289594,0.0-13.0-1.3,75393,List1A,black,man,,,,null,,,,
null,are shouting at each other,,html-keyboard-response,68,291596,0.0-13.0-2.3,75393,List1A,black,man,,,,null,,,,
12615,,,survey-text,69,304214,0.0-13.0-3.3,75393,List1A,black,man,,,,,"{""Q0"":""jane and dave are shouting at each other""}","<img src=""stim_listA/shout4.gif""style=""height:400px;""></stim_listA>",are shouting at each other,
null,"<div style=""font-size:60px;"">+</div>",,html-keyboard-response,70,304719,0.0-13.0-0.4,75393,List1A,black,man,,,,null,,,,
null,"<img src=""stim_listA/kiss1.gif""style=""height:400px;""></stim_listA>",,html-keyboard-response,71,306722,0.0-13.0-1.4,75393,List1A,black,man,,,,null,,,,
null,is kissing,,html-keyboard-response,72,308724,0.0-13.0-2.4,75393,List1A,black,man,,,,null,,,,
11582,,,survey-text,73,320308,0.0-13.0-3.4,75393,List1A,black,man,,,,,"{""Q0"":""fred and beth is kissing""}","<img src=""stim_listA/kiss1.gif""style=""height:400px;""></stim_listA>",is kissing,
null,"<div style=""font-size:60px;"">+</div>",,html-keyboard-response,74,320812,0.0-13.0-0.5,75393,List1A,black,man,,,,null,,,,
null,"<img src=""stim_listA/touch2.gif""style=""height:400px;""></stim_listA>",,html-keyboard-response,75,322817,0.0-13.0-1.5,75393,List1A,black,man,,,,null,,,,
null,are touching each other,,html-keyboard-response,76,324823,0.0-13.0-2.5,75393,List1A,black,man,,,,null,,,,
13819,,,survey-text,77,338646,0.0-13.0-3.5,75393,List1A,black,man,,,,,"{""Q0"":""Fred and beth is touching""}","<img src=""stim_listA/touch2.gif""style=""height:400px;""></stim_listA>",are touching each other,
null,"<div style=""font-size:60px;"">+</div>",,html-keyboard-response,78,339150,0.0-13.0-0.6,75393,List1A,black,man,,,,null,,,,
null,"<img src=""stim_listA/marry4.gif""style=""height:400px;""></stim_listA>",,html-keyboard-response,79,341153,0.0-13.0-1.6,75393,List1A,black,man,,,,null,,,,
null,are marrying each other,,html-keyboard-response,80,343156,0.0-13.0-2.6,75393,List1A,black,man,,,,null,,,,
13463,,,survey-text,81,356623,0.0-13.0-3.6,75393,List1A,black,man,,,,,"{""Q0"":""luke and jane are getting married""}","<img src=""stim_listA/marry4.gif""style=""height:400px;""></stim_listA>",are marrying each other,
null,"<div style=""font-size:60px;"">+</div>",,html-keyboard-response,82,357127,0.0-13.0-0.7,75393,List1A,black,man,,,,null,,,,
null,"<img src=""stim_listA/dance4.gif""style=""height:400px;""></stim_listA>",,html-keyboard-response,83,359130,0.0-13.0-1.7,75393,List1A,black,man,,,,null,,,,
null,are dancing with each other,,html-keyboard-response,84,361132,0.0-13.0-2.7,75393,List1A,black,man,,,,null,,,,
13599,,,survey-text,85,374735,0.0-13.0-3.7,75393,List1A,black,man,,,,,"{""Q0"":""dave and ruth are dancing with each other""}","<img src=""stim_listA/dance4.gif""style=""height:400px;""></stim_listA>",are dancing with each other,
null,"<div style=""font-size:60px;"">+</div>",,html-keyboard-response,86,375239,0.0-13.0-0.8,75393,List1A,black,man,,,,null,,,,
null,"<img src=""stim_listA/dance6.gif""style=""height:400px;""></stim_listA>",,html-keyboard-response,87,377243,0.0-13.0-1.8,75393,List1A,black,man,,,,null,,,,
null,are dancing with each other,,html-keyboard-response,88,379246,0.0-13.0-2.8,75393,List1A,black,man,,,,null,,,,
11862,,,survey-text,89,391113,0.0-13.0-3.8,75393,List1A,black,man,,,,,"{""Q0"":""mike and luke are dancing with each other""}","<img src=""stim_listA/dance6.gif""style=""height:400px;""></stim_listA>",are dancing with each other,
null,"<div style=""font-size:60px;"">+</div>",,html-keyboard-response,90,391615,0.0-13.0-0.9,75393,List1A,black,man,,,,null,,,,
null,"<img src=""stim_listA/marry5.gif""style=""height:400px;""></stim_listA>",,html-keyboard-response,91,393619,0.0-13.0-1.9,75393,List1A,black,man,,,,null,,,,
null,is marrying,,html-keyboard-response,92,395621,0.0-13.0-2.9,75393,List1A,black,man,,,,null,,,,
8435,,,survey-text,93,404060,0.0-13.0-3.9,75393,List1A,black,man,,,,,"{""Q0"":""mike and luke are marrying""}","<img src=""stim_listA/marry5.gif""style=""height:400px;""></stim_listA>",is marrying,
null,"<div style=""font-size:60px;"">+</div>",,html-keyboard-response,94,404564,0.0-13.0-0.10,75393,List1A,black,man,,,,null,,,,
null,"<img src=""stim_listA/argue3.gif""style=""height:400px;""></stim_listA>",,html-keyboard-response,95,406568,0.0-13.0-1.10,75393,List1A,black,man,,,,null,,,,
null,is arguing with,,html-keyboard-response,96,408571,0.0-13.0-2.10,75393,List1A,black,man,,,,null,,,,
12050,,,survey-text,97,420624,0.0-13.0-3.10,75393,List1A,black,man,,,,,"{""Q0"":""dave is arguing with jane""}","<img src=""stim_listA/argue3.gif""style=""height:400px;""></stim_listA>",is arguing with,
null,"<div style=""font-size:60px;"">+</div>",,html-keyboard-response,98,421128,0.0-13.0-0.11,75393,List1A,black,man,,,,null,,,,
null,"<img src=""stim_listA/play2.gif""style=""height:400px;""></stim_listA>",,html-keyboard-response,99,423132,0.0-13.0-1.11,75393,List1A,black,man,,,,null,,,,
null,are playing with each other,,html-keyboard-response,100,425135,0.0-13.0-2.11,75393,List1A,black,man,,,,null,,,,
10525,,,survey-text,101,435662,0.0-13.0-3.11,75393,List1A,black,man,,,,,"{""Q0"":""fred and beth are playing with eachother""}","<img src=""stim_listA/play2.gif""style=""height:400px;""></stim_listA>",are playing with each other,
null,"<div style=""font-size:60px;"">+</div>",,html-keyboard-response,102,436166,0.0-13.0-0.12,75393,List1A,black,man,,,,null,,,,
null,"<img src=""stim_listA/flirt6.gif""style=""height:400px;""></stim_listA>",,html-keyboard-response,103,438170,0.0-13.0-1.12,75393,List1A,black,man,,,,null,,,,
null,are flirting with each other,,html-keyboard-response,104,440173,0.0-13.0-2.12,75393,List1A,black,man,,,,null,,,,
9133,,,survey-text,105,449310,0.0-13.0-3.12,75393,List1A,black,man,,,,,"{""Q0"":""luke and mike are flirting with each other""}","<img src=""stim_listA/flirt6.gif""style=""height:400px;""></stim_listA>",are flirting with each other,
null,"<div style=""font-size:60px;"">+</div>",,html-keyboard-response,106,449813,0.0-13.0-0.13,75393,List1A,black,man,,,,null,,,,
null,"<img src=""stim_listA/kiss4.gif""style=""height:400px;""></stim_listA>",,html-keyboard-response,107,451816,0.0-13.0-1.13,75393,List1A,black,man,,,,null,,,,
null,are kissing each other,,html-keyboard-response,108,453818,0.0-13.0-2.13,75393,List1A,black,man,,,,null,,,,
15900,,,survey-text,109,469722,0.0-13.0-3.13,75393,List1A,black,man,,,,,"{""Q0"":""dave and jane are kissing each other""}","<img src=""stim_listA/kiss4.gif""style=""height:400px;""></stim_listA>",are kissing each other,
null,"<div style=""font-size:60px;"">+</div>",,html-keyboard-response,110,470225,0.0-13.0-0.14,75393,List1A,black,man,,,,null,,,,
null,"<img src=""stim_listA/shout1.gif""style=""height:400px;""></stim_listA>",,html-keyboard-response,111,472230,0.0-13.0-1.14,75393,List1A,black,man,,,,null,,,,
null,is shouting at,,html-keyboard-response,112,474233,0.0-13.0-2.14,75393,List1A,black,man,,,,null,,,,
9938,,,survey-text,113,484176,0.0-13.0-3.14,75393,List1A,black,man,,,,,"{""Q0"":""fred is shouting at beth""}","<img src=""stim_listA/shout1.gif""style=""height:400px;""></stim_listA>",is shouting at,
null,"<div style=""font-size:60px;"">+</div>",,html-keyboard-response,114,484679,0.0-13.0-0.15,75393,List1A,black,man,,,,null,,,,
null,"<img src=""stim_listA/touch1.gif""style=""height:400px;""></stim_listA>",,html-keyboard-response,115,486682,0.0-13.0-1.15,75393,List1A,black,man,,,,null,,,,
null,is touching,,html-keyboard-response,116,488685,0.0-13.0-2.15,75393,List1A,black,man,,,,null,,,,
6543,,,survey-text,117,495231,0.0-13.0-3.15,75393,List1A,black,man,,,,,"{""Q0"":""mike is touching ruth""}","<img src=""stim_listA/touch1.gif""style=""height:400px;""></stim_listA>",is touching,
null,"<div style=""font-size:60px;"">+</div>",,html-keyboard-response,118,495734,0.0-13.0-0.16,75393,List1A,black,man,,,,null,,,,
null,"<img src=""stim_listA/marry1.gif""style=""height:400px;""></stim_listA>",,html-keyboard-response,119,497737,0.0-13.0-1.16,75393,List1A,black,man,,,,null,,,,
null,is marrying,,html-keyboard-response,120,499739,0.0-13.0-2.16,75393,List1A,black,man,,,,null,,,,
8817,,,survey-text,121,508559,0.0-13.0-3.16,75393,List1A,black,man,,,,,"{""Q0"":""mike is marrying beth""}","<img src=""stim_listA/marry1.gif""style=""height:400px;""></stim_listA>",is marrying,
null,"<div style=""font-size:60px;"">+</div>",,html-keyboard-response,122,509062,0.0-13.0-0.17,75393,List1A,black,man,,,,null,,,,
null,"<img src=""stim_listA/fight8.gif""style=""height:400px;""></stim_listA>",,html-keyboard-response,123,511066,0.0-13.0-1.17,75393,List1A,black,man,,,,null,,,,
null,are fighting each other,,html-keyboard-response,124,513068,0.0-13.0-2.17,75393,List1A,black,man,,,,null,,,,
11313,,,survey-text,125,524383,0.0-13.0-3.17,75393,List1A,black,man,,,,,"{""Q0"":""beth and ruth are fighting each other""}","<img src=""stim_listA/fight8.gif""style=""height:400px;""></stim_listA>",are fighting each other,
null,"<div style=""font-size:60px;"">+</div>",,html-keyboard-response,126,524887,0.0-13.0-0.18,75393,List1A,black,man,,,,null,,,,
null,"<img src=""stim_listA/dance3.gif""style=""height:400px;""></stim_listA>",,html-keyboard-response,127,526891,0.0-13.0-1.18,75393,List1A,black,man,,,,null,,,,
null,is dancing with,,html-keyboard-response,128,528894,0.0-13.0-2.18,75393,List1A,black,man,,,,null,,,,
6727,,,survey-text,129,535625,0.0-13.0-3.18,75393,List1A,black,man,,,,,"{""Q0"":""mike is dancing with jane""}","<img src=""stim_listA/dance3.gif""style=""height:400px;""></stim_listA>",is dancing with,
null,"<div style=""font-size:60px;"">+</div>",,html-keyboard-response,130,536128,0.0-13.0-0.19,75393,List1A,black,man,,,,null,,,,
null,"<img src=""stim_listA/fight7.gif""style=""height:400px;""></stim_listA>",,html-keyboard-response,131,538132,0.0-13.0-1.19,75393,List1A,black,man,,,,null,,,,
null,is fighting,,html-keyboard-response,132,540135,0.0-13.0-2.19,75393,List1A,black,man,,,,null,,,,
9407,,,survey-text,133,549547,0.0-13.0-3.19,75393,List1A,black,man,,,,,"{""Q0"":""jane is fighting kate""}","<img src=""stim_listA/fight7.gif""style=""height:400px;""></stim_listA>",is fighting,
9513,"<img src='img/portrait_matrix_list1.jpg' style='width:900px;height:500px;''></img><p>If you have memorised all the portraits and names and are ready to start, press Continue.</p><p><strong>Please note: Your memory of these faces will be tested 4 times during this experiment.</strong></p>",0,html-button-response,134,559066,0.0-14.0-0.0,75393,List1A,black,man,,,,,,,,
1997,"<img src=""portrait/BM2.jpg""style=""height:400px;""></img>",5,html-button-response,135,562070,0.0-14.0-1.0,75393,List1A,black,man,,TRUE,5,,,,,
null,CORRECT,,html-keyboard-response,136,563574,0.0-14.0-2.0-0.0,75393,List1A,black,man,,,,null,,,,
1897,"<img src=""portrait/BM1.jpg""style=""height:400px;""></img>",4,html-button-response,137,565475,0.0-14.0-4.0,75393,List1A,black,man,,TRUE,4,,,,,
null,CORRECT,,html-keyboard-response,138,566980,0.0-14.0-5.0-0.0,75393,List1A,black,man,,,,null,,,,
4241,"<img src=""portrait/BW1.jpg""style=""height:400px;""></img>",0,html-button-response,139,571225,0.0-14.0-7.0,75393,List1A,black,man,,TRUE,0,,,,,
null,CORRECT,,html-keyboard-response,140,572730,0.0-14.0-8.0-0.0,75393,List1A,black,man,,,,null,,,,
2676,"<img src=""portrait/WW1.jpg""style=""height:400px;""></img>",1,html-button-response,141,575410,0.0-14.0-10.0,75393,List1A,black,man,,TRUE,1,,,,,
null,CORRECT,,html-keyboard-response,142,576916,0.0-14.0-11.0-0.0,75393,List1A,black,man,,,,null,,,,
1310,"<img src=""portrait/BW2.jpg""style=""height:400px;""></img>",2,html-button-response,143,578229,0.0-14.0-13.0,75393,List1A,black,man,,TRUE,2,,,,,
null,CORRECT,,html-keyboard-response,144,579738,0.0-14.0-14.0-0.0,75393,List1A,black,man,,,,null,,,,
1603,"<img src=""portrait/WM2.jpg""style=""height:400px;""></img>",7,html-button-response,145,581346,0.0-14.0-16.0,75393,List1A,black,man,,TRUE,7,,,,,
null,CORRECT,,html-keyboard-response,146,582850,0.0-14.0-17.0-0.0,75393,List1A,black,man,,,,null,,,,
1026,"<img src=""portrait/WM1.jpg""style=""height:400px;""></img>",6,html-button-response,147,583879,0.0-14.0-19.0,75393,List1A,black,man,,TRUE,6,,,,,
null,CORRECT,,html-keyboard-response,148,585384,0.0-14.0-20.0-0.0,75393,List1A,black,man,,,,null,,,,
1550,"<img src=""portrait/WW2.jpg""style=""height:400px;""></img>",3,html-button-response,149,586939,0.0-14.0-22.0,75393,List1A,black,man,,TRUE,3,,,,,
null,CORRECT,,html-keyboard-response,150,588445,0.0-14.0-23.0-0.0,75393,List1A,black,man,,,,null,,,,
1344,<p>You got 8 out of 8 right first time. Press Continue.</p>,0,html-button-response,151,589793,0.0-14.0-25.0,75393,List1A,black,man,,,,,,,,
null,"<div style=""font-size:60px;"">+</div>",,html-keyboard-response,152,591298,0.0-15.0-0.0,75393,List1A,black,man,,,,null,,,,
null,"<img src=""stim_listA/fight5.gif""style=""height:400px;""></stim_listA>",,html-keyboard-response,153,593301,0.0-15.0-1.0,75393,List1A,black,man,,,,null,,,,
null,is fighting,,html-keyboard-response,154,595304,0.0-15.0-2.0,75393,List1A,black,man,,,,null,,,,
6899,,,survey-text,155,602206,0.0-15.0-3.0,75393,List1A,black,man,,,,,"{""Q0"":""mike is fighting dave""}","<img src=""stim_listA/fight5.gif""style=""height:400px;""></stim_listA>",is fighting,
null,"<div style=""font-size:60px;"">+</div>",,html-keyboard-response,156,602710,0.0-15.0-0.1,75393,List1A,black,man,,,,null,,,,
null,"<img src=""stim_listA/shout3.gif""style=""height:400px;""></stim_listA>",,html-keyboard-response,157,604713,0.0-15.0-1.1,75393,List1A,black,man,,,,null,,,,
null,is shouting at,,html-keyboard-response,158,606714,0.0-15.0-2.1,75393,List1A,black,man,,,,null,,,,
8192,,,survey-text,159,614909,0.0-15.0-3.1,75393,List1A,black,man,,,,,"{""Q0"":""luke is shouting at ruth""}","<img src=""stim_listA/shout3.gif""style=""height:400px;""></stim_listA>",is shouting at,
null,"<div style=""font-size:60px;"">+</div>",,html-keyboard-response,160,615413,0.0-15.0-0.2,75393,List1A,black,man,,,,null,,,,
null,"<img src=""stim_listA/touch7.gif""style=""height:400px;""></stim_listA>",,html-keyboard-response,161,617417,0.0-15.0-1.2,75393,List1A,black,man,,,,null,,,,
null,is touching,,html-keyboard-response,162,619421,0.0-15.0-2.2,75393,List1A,black,man,,,,null,,,,
5782,,,survey-text,163,625206,0.0-15.0-3.2,75393,List1A,black,man,,,,,"{""Q0"":""jane is touching kate""}","<img src=""stim_listA/touch7.gif""style=""height:400px;""></stim_listA>",is touching,
null,"<div style=""font-size:60px;"">+</div>",,html-keyboard-response,164,625719,0.0-15.0-0.3,75393,List1A,black,man,,,,null,,,,
null,"<img src=""stim_listA/dance7.gif""style=""height:400px;""></stim_listA>",,html-keyboard-response,165,627722,0.0-15.0-1.3,75393,List1A,black,man,,,,null,,,,
null,is dancing with,,html-keyboard-response,166,629724,0.0-15.0-2.3,75393,List1A,black,man,,,,null,,,,
6523,,,survey-text,167,636252,0.0-15.0-3.3,75393,List1A,black,man,,,,,"{""Q0"":""jane is dancing with kate""}","<img src=""stim_listA/dance7.gif""style=""height:400px;""></stim_listA>",is dancing with,
null,"<div style=""font-size:60px;"">+</div>",,html-keyboard-response,168,636755,0.0-15.0-0.4,75393,List1A,black,man,,,,null,,,,
null,"<img src=""stim_listA/marry6.gif""style=""height:400px;""></stim_listA>",,html-keyboard-response,169,638758,0.0-15.0-1.4,75393,List1A,black,man,,,,null,,,,
null,are marrying each other,,html-keyboard-response,170,640761,0.0-15.0-2.4,75393,List1A,black,man,,,,null,,,,
9414,,,survey-text,171,650178,0.0-15.0-3.4,75393,List1A,black,man,,,,,"{""Q0"":""dave and fred are marrying each other""}","<img src=""stim_listA/marry6.gif""style=""height:400px;""></stim_listA>",are marrying each other,
null,"<div style=""font-size:60px;"">+</div>",,html-keyboard-response,172,650682,0.0-15.0-0.5,75393,List1A,black,man,,,,null,,,,
null,"<img src=""stim_listA/flirt8.gif""style=""height:400px;""></stim_listA>",,html-keyboard-response,173,652685,0.0-15.0-1.5,75393,List1A,black,man,,,,null,,,,
null,are flirting with each other,,html-keyboard-response,174,654688,0.0-15.0-2.5,75393,List1A,black,man,,,,null,,,,
10032,,,survey-text,175,664723,0.0-15.0-3.5,75393,List1A,black,man,,,,,"{""Q0"":""ruth and kate are flirting with each other""}","<img src=""stim_listA/flirt8.gif""style=""height:400px;""></stim_listA>",are flirting with each other,
null,"<div style=""font-size:60px;"">+</div>",,html-keyboard-response,176,665227,0.0-15.0-0.6,75393,List1A,black,man,,,,null,,,,
null,"<img src=""stim_listA/talk3.gif""style=""height:400px;""></stim_listA>",,html-keyboard-response,177,667230,0.0-15.0-1.6,75393,List1A,black,man,,,,null,,,,
null,is talking to,,html-keyboard-response,178,669233,0.0-15.0-2.6,75393,List1A,black,man,,,,null,,,,
9451,,,survey-text,179,678688,0.0-15.0-3.6,75393,List1A,black,man,,,,,"{""Q0"":""mike is talking to jane""}","<img src=""stim_listA/talk3.gif""style=""height:400px;""></stim_listA>",is talking to,
null,"<div style=""font-size:60px;"">+</div>",,html-keyboard-response,180,679192,0.0-15.0-0.7,75393,List1A,black,man,,,,null,,,,
null,"<img src=""stim_listA/dance1.gif""style=""height:400px;""></stim_listA>",,html-keyboard-response,181,681197,0.0-15.0-1.7,75393,List1A,black,man,,,,null,,,,
null,is dancing with,,html-keyboard-response,182,683202,0.0-15.0-2.7,75393,List1A,black,man,,,,null,,,,
8771,,,survey-text,183,691976,0.0-15.0-3.7,75393,List1A,black,man,,,,,"{""Q0"":""mike is dancing with kate""}","<img src=""stim_listA/dance1.gif""style=""height:400px;""></stim_listA>",is dancing with,
null,"<div style=""font-size:60px;"">+</div>",,html-keyboard-response,184,692480,0.0-15.0-0.8,75393,List1A,black,man,,,,null,,,,
null,"<img src=""stim_listA/shout6.gif""style=""height:400px;""></stim_listA>",,html-keyboard-response,185,694484,0.0-15.0-1.8,75393,List1A,black,man,,,,null,,,,
null,are shouting at each other,,html-keyboard-response,186,696488,0.0-15.0-2.8,75393,List1A,black,man,,,,null,,,,
10494,,,survey-text,187,706984,0.0-15.0-3.8,75393,List1A,black,man,,,,,"{""Q0"":""mike and dave are shouting at each other""}","<img src=""stim_listA/shout6.gif""style=""height:400px;""></stim_listA>",are shouting at each other,
null,"<div style=""font-size:60px;"">+</div>",,html-keyboard-response,188,707488,0.0-15.0-0.9,75393,List1A,black,man,,,,null,,,,
null,"<img src=""stim_listA/fight2.gif""style=""height:400px;""></stim_listA>",,html-keyboard-response,189,709491,0.0-15.0-1.9,75393,List1A,black,man,,,,null,,,,
null,are fighting each other,,html-keyboard-response,190,711493,0.0-15.0-2.9,75393,List1A,black,man,,,,null,,,,
7728,,,survey-text,191,719226,0.0-15.0-3.9,75393,List1A,black,man,,,,,"{""Q0"":""fred and beth are fighting each other""}","<img src=""stim_listA/fight2.gif""style=""height:400px;""></stim_listA>",are fighting each other,
null,"<div style=""font-size:60px;"">+</div>",,html-keyboard-response,192,719729,0.0-15.0-0.10,75393,List1A,black,man,,,,null,,,,
null,"<img src=""stim_listA/talk6.gif""style=""height:400px;""></stim_listA>",,html-keyboard-response,193,721734,0.0-15.0-1.10,75393,List1A,black,man,,,,null,,,,
null,are talking to each other,,html-keyboard-response,194,723736,0.0-15.0-2.10,75393,List1A,black,man,,,,null,,,,
8885,,,survey-text,195,732626,0.0-15.0-3.10,75393,List1A,black,man,,,,,"{""Q0"":""mike and luke are talking to each other""}","<img src=""stim_listA/talk6.gif""style=""height:400px;""></stim_listA>",are talking to each other,
null,"<div style=""font-size:60px;"">+</div>",,html-keyboard-response,196,733129,0.0-15.0-0.11,75393,List1A,black,man,,,,null,,,,
null,"<img src=""stim_listA/touch4.gif""style=""height:400px;""></stim_listA>",,html-keyboard-response,197,735132,0.0-15.0-1.11,75393,List1A,black,man,,,,null,,,,
null,are touching each other,,html-keyboard-response,198,737136,0.0-15.0-2.11,75393,List1A,black,man,,,,null,,,,
8235,,,survey-text,199,745375,0.0-15.0-3.11,75393,List1A,black,man,,,,,"{""Q0"":""luke and ruth are touching each other""}","<img src=""stim_listA/touch4.gif""style=""height:400px;""></stim_listA>",are touching each other,
null,"<div style=""font-size:60px;"">+</div>",,html-keyboard-response,200,745878,0.0-15.0-0.12,75393,List1A,black,man,,,,null,,,,
null,"<img src=""stim_listA/talk2.gif""style=""height:400px;""></stim_listA>",,html-keyboard-response,201,747883,0.0-15.0-1.12,75393,List1A,black,man,,,,null,,,,
null,are talking to each other,,html-keyboard-response,202,749885,0.0-15.0-2.12,75393,List1A,black,man,,,,null,,,,
10496,,,survey-text,203,760385,0.0-15.0-3.12,75393,List1A,black,man,,,,,"{""Q0"":""mike and beth are touching each other""}","<img src=""stim_listA/talk2.gif""style=""height:400px;""></stim_listA>",are talking to each other,
null,"<div style=""font-size:60px;"">+</div>",,html-keyboard-response,204,760889,0.0-15.0-0.13,75393,List1A,black,man,,,,null,,,,
null,"<img src=""stim_listA/play1.gif""style=""height:400px;""></stim_listA>",,html-keyboard-response,205,762893,0.0-15.0-1.13,75393,List1A,black,man,,,,null,,,,
null,is playing with,,html-keyboard-response,206,764896,0.0-15.0-2.13,75393,List1A,black,man,,,,null,,,,
8766,,,survey-text,207,773668,0.0-15.0-3.13,75393,List1A,black,man,,,,,"{""Q0"":""mike is playing with kate""}","<img src=""stim_listA/play1.gif""style=""height:400px;""></stim_listA>",is playing with,
null,"<div style=""font-size:60px;"">+</div>",,html-keyboard-response,208,774171,0.0-15.0-0.14,75393,List1A,black,man,,,,null,,,,
null,"<img src=""stim_listA/marry2.gif""style=""height:400px;""></stim_listA>",,html-keyboard-response,209,776174,0.0-15.0-1.14,75393,List1A,black,man,,,,null,,,,
null,are marrying each other,,html-keyboard-response,210,778176,0.0-15.0-2.14,75393,List1A,black,man,,,,null,,,,
7484,,,survey-text,211,785664,0.0-15.0-3.14,75393,List1A,black,man,,,,,"{""Q0"":""fred and kate are marrying each other""}","<img src=""stim_listA/marry2.gif""style=""height:400px;""></stim_listA>",are marrying each other,
null,"<div style=""font-size:60px;"">+</div>",,html-keyboard-response,212,786167,0.0-15.0-0.15,75393,List1A,black,man,,,,null,,,,
null,"<img src=""stim_listA/shout7.gif""style=""height:400px;""></stim_listA>",,html-keyboard-response,213,788171,0.0-15.0-1.15,75393,List1A,black,man,,,,null,,,,
null,is shouting at,,html-keyboard-response,214,790173,0.0-15.0-2.15,75393,List1A,black,man,,,,null,,,,
9187,,,survey-text,215,799365,0.0-15.0-3.15,75393,List1A,black,man,,,,,"{""Q0"":""ruth is shouting at beth""}","<img src=""stim_listA/shout7.gif""style=""height:400px;""></stim_listA>",is shouting at,
null,"<div style=""font-size:60px;"">+</div>",,html-keyboard-response,216,799868,0.0-15.0-0.16,75393,List1A,black,man,,,,null,,,,
null,"<img src=""stim_listA/argue2.gif""style=""height:400px;""></stim_listA>",,html-keyboard-response,217,801871,0.0-15.0-1.16,75393,List1A,black,man,,,,null,,,,
null,are arguing with each other,,html-keyboard-response,218,803874,0.0-15.0-2.16,75393,List1A,black,man,,,,null,,,,
8751,,,survey-text,219,812629,0.0-15.0-3.16,75393,List1A,black,man,,,,,"{""Q0"":""fred and kate are arguing with each other""}","<img src=""stim_listA/argue2.gif""style=""height:400px;""></stim_listA>",are arguing with each other,
null,"<div style=""font-size:60px;"">+</div>",,html-keyboard-response,220,813133,0.0-15.0-0.17,75393,List1A,black,man,,,,null,,,,
null,"<img src=""stim_listA/marry8.gif""style=""height:400px;""></stim_listA>",,html-keyboard-response,221,815136,0.0-15.0-1.17,75393,List1A,black,man,,,,null,,,,
null,are marrying each other,,html-keyboard-response,222,817138,0.0-15.0-2.17,75393,List1A,black,man,,,,null,,,,
9375,,,survey-text,223,826516,0.0-15.0-3.17,75393,List1A,black,man,,,,,"{""Q0"":""beth and ruth are marrying each other""}","<img src=""stim_listA/marry8.gif""style=""height:400px;""></stim_listA>",are marrying each other,
null,"<div style=""font-size:60px;"">+</div>",,html-keyboard-response,224,827020,0.0-15.0-0.18,75393,List1A,black,man,,,,null,,,,
null,"<img src=""stim_listA/flirt2.gif""style=""height:400px;""></stim_listA>",,html-keyboard-response,225,829023,0.0-15.0-1.18,75393,List1A,black,man,,,,null,,,,
null,are flirting with each other,,html-keyboard-response,226,831026,0.0-15.0-2.18,75393,List1A,black,man,,,,null,,,,
11064,,,survey-text,227,842093,0.0-15.0-3.18,75393,List1A,black,man,,,,,"{""Q0"":""mike and beth are flirting with each other""}","<img src=""stim_listA/flirt2.gif""style=""height:400px;""></stim_listA>",are flirting with each other,
null,"<div style=""font-size:60px;"">+</div>",,html-keyboard-response,228,842597,0.0-15.0-0.19,75393,List1A,black,man,,,,null,,,,
null,"<img src=""stim_listA/kiss8.gif""style=""height:400px;""></stim_listA>",,html-keyboard-response,229,844599,0.0-15.0-1.19,75393,List1A,black,man,,,,null,,,,
null,are kissing each other,,html-keyboard-response,230,846602,0.0-15.0-2.19,75393,List1A,black,man,,,,null,,,,
7712,,,survey-text,231,854317,0.0-15.0-3.19,75393,List1A,black,man,,,,,"{""Q0"":""jane and kate are kissing each other""}","<img src=""stim_listA/kiss8.gif""style=""height:400px;""></stim_listA>",are kissing each other,
6044,"<img src='img/portrait_matrix_list1.jpg' style='width:900px;height:500px;''></img><p>If you have memorised all the portraits and names and are ready to start, press Continue.</p><p><strong>Please note: Your memory of these faces will be tested 4 times during this experiment.</strong></p>",0,html-button-response,232,860365,0.0-16.0-0.0,75393,List1A,black,man,,,,,,,,
1359,"<img src=""portrait/BM2.jpg""style=""height:400px;""></img>",5,html-button-response,233,862730,0.0-16.0-1.0,75393,List1A,black,man,,TRUE,5,,,,,
null,CORRECT,,html-keyboard-response,234,864235,0.0-16.0-2.0-0.0,75393,List1A,black,man,,,,null,,,,
1672,"<img src=""portrait/WW1.jpg""style=""height:400px;""></img>",1,html-button-response,235,865911,0.0-16.0-4.0,75393,List1A,black,man,,TRUE,1,,,,,
null,CORRECT,,html-keyboard-response,236,867416,0.0-16.0-5.0-0.0,75393,List1A,black,man,,,,null,,,,
1597,"<img src=""portrait/BM1.jpg""style=""height:400px;""></img>",4,html-button-response,237,869018,0.0-16.0-7.0,75393,List1A,black,man,,TRUE,4,,,,,
null,CORRECT,,html-keyboard-response,238,870523,0.0-16.0-8.0-0.0,75393,List1A,black,man,,,,null,,,,
1635,"<img src=""portrait/WW2.jpg""style=""height:400px;""></img>",3,html-button-response,239,872162,0.0-16.0-10.0,75393,List1A,black,man,,TRUE,3,,,,,
null,CORRECT,,html-keyboard-response,240,873667,0.0-16.0-11.0-0.0,75393,List1A,black,man,,,,null,,,,
1160,"<img src=""portrait/BW2.jpg""style=""height:400px;""></img>",2,html-button-response,241,874831,0.0-16.0-13.0,75393,List1A,black,man,,TRUE,2,,,,,
null,CORRECT,,html-keyboard-response,242,876335,0.0-16.0-14.0-0.0,75393,List1A,black,man,,,,null,,,,
2032,"<img src=""portrait/WM2.jpg""style=""height:400px;""></img>",7,html-button-response,243,878371,0.0-16.0-16.0,75393,List1A,black,man,,TRUE,7,,,,,
null,CORRECT,,html-keyboard-response,244,879876,0.0-16.0-17.0-0.0,75393,List1A,black,man,,,,null,,,,
1111,"<img src=""portrait/WM1.jpg""style=""height:400px;""></img>",6,html-button-response,245,880993,0.0-16.0-19.0,75393,List1A,black,man,,TRUE,6,,,,,
null,CORRECT,,html-keyboard-response,246,882497,0.0-16.0-20.0-0.0,75393,List1A,black,man,,,,null,,,,
1601,"<img src=""portrait/BW1.jpg""style=""height:400px;""></img>",0,html-button-response,247,884102,0.0-16.0-22.0,75393,List1A,black,man,,TRUE,0,,,,,
null,CORRECT,,html-keyboard-response,248,885611,0.0-16.0-23.0-0.0,75393,List1A,black,man,,,,null,,,,
1240,<p>You got 8 out of 8 right first time. Press Continue.</p>,0,html-button-response,249,886854,0.0-16.0-25.0,75393,List1A,black,man,,,,,,,,
null,"<div style=""font-size:60px;"">+</div>",,html-keyboard-response,250,888361,0.0-17.0-0.0,75393,List1A,black,man,,,,null,,,,
null,"<img src=""stim_listA/kiss5.gif""style=""height:400px;""></stim_listA>",,html-keyboard-response,251,890364,0.0-17.0-1.0,75393,List1A,black,man,,,,null,,,,
null,is kissing,,html-keyboard-response,252,892366,0.0-17.0-2.0,75393,List1A,black,man,,,,null,,,,
5834,,,survey-text,253,898203,0.0-17.0-3.0,75393,List1A,black,man,,,,,"{""Q0"":""fred is kissing luke""}","<img src=""stim_listA/kiss5.gif""style=""height:400px;""></stim_listA>",is kissing,
null,"<div style=""font-size:60px;"">+</div>",,html-keyboard-response,254,898706,0.0-17.0-0.1,75393,List1A,black,man,,,,null,,,,
null,"<img src=""stim_listA/talk5.gif""style=""height:400px;""></stim_listA>",,html-keyboard-response,255,900709,0.0-17.0-1.1,75393,List1A,black,man,,,,null,,,,
null,is talking to,,html-keyboard-response,256,902712,0.0-17.0-2.1,75393,List1A,black,man,,,,null,,,,
6884,,,survey-text,257,909600,0.0-17.0-3.1,75393,List1A,black,man,,,,,"{""Q0"":""fred is talkling to dave""}","<img src=""stim_listA/talk5.gif""style=""height:400px;""></stim_listA>",is talking to,
null,"<div style=""font-size:60px;"">+</div>",,html-keyboard-response,258,910103,0.0-17.0-0.2,75393,List1A,black,man,,,,null,,,,
null,"<img src=""stim_listA/flirt4.gif""style=""height:400px;""></stim_listA>",,html-keyboard-response,259,912107,0.0-17.0-1.2,75393,List1A,black,man,,,,null,,,,
null,are flirting with each other,,html-keyboard-response,260,914110,0.0-17.0-2.2,75393,List1A,black,man,,,,null,,,,
10126,,,survey-text,261,924240,0.0-17.0-3.2,75393,List1A,black,man,,,,,"{""Q0"":""dave and ruth are flirting with each other""}","<img src=""stim_listA/flirt4.gif""style=""height:400px;""></stim_listA>",are flirting with each other,
null,"<div style=""font-size:60px;"">+</div>",,html-keyboard-response,262,924744,0.0-17.0-0.3,75393,List1A,black,man,,,,null,,,,
null,"<img src=""stim_listA/play7.gif""style=""height:400px;""></stim_listA>",,html-keyboard-response,263,926747,0.0-17.0-1.3,75393,List1A,black,man,,,,null,,,,
null,is playing with,,html-keyboard-response,264,928750,0.0-17.0-2.3,75393,List1A,black,man,,,,null,,,,
6451,,,survey-text,265,935206,0.0-17.0-3.3,75393,List1A,black,man,,,,,"{""Q0"":""jane is playing with kate""}","<img src=""stim_listA/play7.gif""style=""height:400px;""></stim_listA>",is playing with,
null,"<div style=""font-size:60px;"">+</div>",,html-keyboard-response,266,935709,0.0-17.0-0.4,75393,List1A,black,man,,,,null,,,,
null,"<img src=""stim_listA/fight6.gif""style=""height:400px;""></stim_listA>",,html-keyboard-response,267,937714,0.0-17.0-1.4,75393,List1A,black,man,,,,null,,,,
null,are fighting each other,,html-keyboard-response,268,939717,0.0-17.0-2.4,75393,List1A,black,man,,,,null,,,,
9020,,,survey-text,269,948740,0.0-17.0-3.4,75393,List1A,black,man,,,,,"{""Q0"":""luke and fred are fighting with each other""}","<img src=""stim_listA/fight6.gif""style=""height:400px;""></stim_listA>",are fighting each other,
null,"<div style=""font-size:60px;"">+</div>",,html-keyboard-response,270,949243,0.0-17.0-0.5,75393,List1A,black,man,,,,null,,,,
null,"<img src=""stim_listA/play8.gif""style=""height:400px;""></stim_listA>",,html-keyboard-response,271,951246,0.0-17.0-1.5,75393,List1A,black,man,,,,null,,,,
null,are playing with each other,,html-keyboard-response,272,953248,0.0-17.0-2.5,75393,List1A,black,man,,,,null,,,,
8697,,,survey-text,273,961948,0.0-17.0-3.5,75393,List1A,black,man,,,,,"{""Q0"":""ruth and beth are playing with each other""}","<img src=""stim_listA/play8.gif""style=""height:400px;""></stim_listA>",are playing with each other,
null,"<div style=""font-size:60px;"">+</div>",,html-keyboard-response,274,962451,0.0-17.0-0.6,75393,List1A,black,man,,,,null,,,,
null,"<img src=""stim_listA/fight4.gif""style=""height:400px;""></stim_listA>",,html-keyboard-response,275,964457,0.0-17.0-1.6,75393,List1A,black,man,,,,null,,,,
null,are fighting each other,,html-keyboard-response,276,966460,0.0-17.0-2.6,75393,List1A,black,man,,,,null,,,,
8305,,,survey-text,277,974768,0.0-17.0-3.6,75393,List1A,black,man,,,,,"{""Q0"":""luke and ruth are fighting each other""}","<img src=""stim_listA/fight4.gif""style=""height:400px;""></stim_listA>",are fighting each other,
null,"<div style=""font-size:60px;"">+</div>",,html-keyboard-response,278,975274,0.0-17.0-0.7,75393,List1A,black,man,,,,null,,,,
null,"<img src=""stim_listA/marry3.gif""style=""height:400px;""></stim_listA>",,html-keyboard-response,279,977278,0.0-17.0-1.7,75393,List1A,black,man,,,,null,,,,
null,is marrying,,html-keyboard-response,280,979281,0.0-17.0-2.7,75393,List1A,black,man,,,,null,,,,
6163,,,survey-text,281,985446,0.0-17.0-3.7,75393,List1A,black,man,,,,,"{""Q0"":""dave is marrying ruth""}","<img src=""stim_listA/marry3.gif""style=""height:400px;""></stim_listA>",is marrying,
null,"<div style=""font-size:60px;"">+</div>",,html-keyboard-response,282,985951,0.0-17.0-0.8,75393,List1A,black,man,,,,null,,,,
null,"<img src=""stim_listA/flirt5.gif""style=""height:400px;""></stim_listA>",,html-keyboard-response,283,987956,0.0-17.0-1.8,75393,List1A,black,man,,,,null,,,,
null,is flirting with,,html-keyboard-response,284,989957,0.0-17.0-2.8,75393,List1A,black,man,,,,null,,,,
6720,,,survey-text,285,996681,0.0-17.0-3.8,75393,List1A,black,man,,,,,"{""Q0"":""fred is flirting with dave""}","<img src=""stim_listA/flirt5.gif""style=""height:400px;""></stim_listA>",is flirting with,
null,"<div style=""font-size:60px;"">+</div>",,html-keyboard-response,286,997184,0.0-17.0-0.9,75393,List1A,black,man,,,,null,,,,
null,"<img src=""stim_listA/flirt3.gif""style=""height:400px;""></stim_listA>",,html-keyboard-response,287,999187,0.0-17.0-1.9,75393,List1A,black,man,,,,null,,,,
null,is flirting with,,html-keyboard-response,288,1001189,0.0-17.0-2.9,75393,List1A,black,man,,,,null,,,,
12005,,,survey-text,289,1013198,0.0-17.0-3.9,75393,List1A,black,man,,,,,"{""Q0"":""luke is flirting with jane""}","<img src=""stim_listA/flirt3.gif""style=""height:400px;""></stim_listA>",is flirting with,
null,"<div style=""font-size:60px;"">+</div>",,html-keyboard-response,290,1013701,0.0-17.0-0.10,75393,List1A,black,man,,,,null,,,,
null,"<img src=""stim_listA/flirt1.gif""style=""height:400px;""></stim_listA>",,html-keyboard-response,291,1015704,0.0-17.0-1.10,75393,List1A,black,man,,,,null,,,,
null,is flirting with,,html-keyboard-response,292,1017707,0.0-17.0-2.10,75393,List1A,black,man,,,,null,,,,
8120,,,survey-text,293,1025830,0.0-17.0-3.10,75393,List1A,black,man,,,,,"{""Q0"":""fred is flirting with kate""}","<img src=""stim_listA/flirt1.gif""style=""height:400px;""></stim_listA>",is flirting with,
null,"<div style=""font-size:60px;"">+</div>",,html-keyboard-response,294,1026333,0.0-17.0-0.11,75393,List1A,black,man,,,,null,,,,
null,"<img src=""stim_listA/dance2.gif""style=""height:400px;""></stim_listA>",,html-keyboard-response,295,1028336,0.0-17.0-1.11,75393,List1A,black,man,,,,null,,,,
null,are dancing with each other,,html-keyboard-response,296,1030338,0.0-17.0-2.11,75393,List1A,black,man,,,,null,,,,
9168,,,survey-text,297,1039511,0.0-17.0-3.11,75393,List1A,black,man,,,,,"{""Q0"":""beth and mike are dancing with each other""}","<img src=""stim_listA/dance2.gif""style=""height:400px;""></stim_listA>",are dancing with each other,
null,"<div style=""font-size:60px;"">+</div>",,html-keyboard-response,298,1040014,0.0-17.0-0.12,75393,List1A,black,man,,,,null,,,,
null,"<img src=""stim_listA/fight1.gif""style=""height:400px;""></stim_listA>",,html-keyboard-response,299,1042018,0.0-17.0-1.12,75393,List1A,black,man,,,,null,,,,
null,is fighting,,html-keyboard-response,300,1044020,0.0-17.0-2.12,75393,List1A,black,man,,,,null,,,,
5440,,,survey-text,301,1049462,0.0-17.0-3.12,75393,List1A,black,man,,,,,"{""Q0"":""mike is fighting kate""}","<img src=""stim_listA/fight1.gif""style=""height:400px;""></stim_listA>",is fighting,
null,"<div style=""font-size:60px;"">+</div>",,html-keyboard-response,302,1049966,0.0-17.0-0.13,75393,List1A,black,man,,,,null,,,,
null,"<img src=""stim_listA/argue4.gif""style=""height:400px;""></stim_listA>",,html-keyboard-response,303,1051970,0.0-17.0-1.13,75393,List1A,black,man,,,,null,,,,
null,are arguing with each other,,html-keyboard-response,304,1053972,0.0-17.0-2.13,75393,List1A,black,man,,,,null,,,,
8509,,,survey-text,305,1062486,0.0-17.0-3.13,75393,List1A,black,man,,,,,"{""Q0"":""jane and luke are arguing with each other""}","<img src=""stim_listA/argue4.gif""style=""height:400px;""></stim_listA>",are arguing with each other,
null,"<div style=""font-size:60px;"">+</div>",,html-keyboard-response,306,1062988,0.0-17.0-0.14,75393,List1A,black,man,,,,null,,,,
null,"<img src=""stim_listA/argue1.gif""style=""height:400px;""></stim_listA>",,html-keyboard-response,307,1064991,0.0-17.0-1.14,75393,List1A,black,man,,,,null,,,,
null,is arguing with,,html-keyboard-response,308,1066994,0.0-17.0-2.14,75393,List1A,black,man,,,,null,,,,
6923,,,survey-text,309,1073921,0.0-17.0-3.14,75393,List1A,black,man,,,,,"{""Q0"":""mike is arguing with beth""}","<img src=""stim_listA/argue1.gif""style=""height:400px;""></stim_listA>",is arguing with,
null,"<div style=""font-size:60px;"">+</div>",,html-keyboard-response,310,1074424,0.0-17.0-0.15,75393,List1A,black,man,,,,null,,,,
null,"<img src=""stim_listA/argue6.gif""style=""height:400px;""></stim_listA>",,html-keyboard-response,311,1076427,0.0-17.0-1.15,75393,List1A,black,man,,,,null,,,,
null,are arguing with each other,,html-keyboard-response,312,1078429,0.0-17.0-2.15,75393,List1A,black,man,,,,null,,,,
8815,,,survey-text,313,1087249,0.0-17.0-3.15,75393,List1A,black,man,,,,,"{""Q0"":""dave and fred are arguing with each other""}","<img src=""stim_listA/argue6.gif""style=""height:400px;""></stim_listA>",are arguing with each other,
null,"<div style=""font-size:60px;"">+</div>",,html-keyboard-response,314,1087752,0.0-17.0-0.16,75393,List1A,black,man,,,,null,,,,
null,"<img src=""stim_listA/play5.gif""style=""height:400px;""></stim_listA>",,html-keyboard-response,315,1089755,0.0-17.0-1.16,75393,List1A,black,man,,,,null,,,,
null,is playing with,,html-keyboard-response,316,1091757,0.0-17.0-2.16,75393,List1A,black,man,,,,null,,,,
6516,,,survey-text,317,1098277,0.0-17.0-3.16,75393,List1A,black,man,,,,,"{""Q0"":""mike is playing with dave""}","<img src=""stim_listA/play5.gif""style=""height:400px;""></stim_listA>",is playing with,
null,"<div style=""font-size:60px;"">+</div>",,html-keyboard-response,318,1098780,0.0-17.0-0.17,75393,List1A,black,man,,,,null,,,,
null,"<img src=""stim_listA/marry7.gif""style=""height:400px;""></stim_listA>",,html-keyboard-response,319,1100786,0.0-17.0-1.17,75393,List1A,black,man,,,,null,,,,
null,is marrying,,html-keyboard-response,320,1102787,0.0-17.0-2.17,75393,List1A,black,man,,,,null,,,,
6922,,,survey-text,321,1109715,0.0-17.0-3.17,75393,List1A,black,man,,,,,"{""Q0"":""jane is marrying ruth""}","<img src=""stim_listA/marry7.gif""style=""height:400px;""></stim_listA>",is marrying,
null,"<div style=""font-size:60px;"">+</div>",,html-keyboard-response,322,1110218,0.0-17.0-0.18,75393,List1A,black,man,,,,null,,,,
null,"<img src=""stim_listA/argue8.gif""style=""height:400px;""></stim_listA>",,html-keyboard-response,323,1112221,0.0-17.0-1.18,75393,List1A,black,man,,,,null,,,,
null,are arguing with each other,,html-keyboard-response,324,1114226,0.0-17.0-2.18,75393,List1A,black,man,,,,null,,,,
7728,,,survey-text,325,1121957,0.0-17.0-3.18,75393,List1A,black,man,,,,,"{""Q0"":""jane and beth are arguing with each other""}","<img src=""stim_listA/argue8.gif""style=""height:400px;""></stim_listA>",are arguing with each other,
null,"<div style=""font-size:60px;"">+</div>",,html-keyboard-response,326,1122460,0.0-17.0-0.19,75393,List1A,black,man,,,,null,,,,
null,"<img src=""stim_listA/talk8.gif""style=""height:400px;""></stim_listA>",,html-keyboard-response,327,1124463,0.0-17.0-1.19,75393,List1A,black,man,,,,null,,,,
null,are talking to each other,,html-keyboard-response,328,1126466,0.0-17.0-2.19,75393,List1A,black,man,,,,null,,,,
9760,,,survey-text,329,1136230,0.0-17.0-3.19,75393,List1A,black,man,,,,,"{""Q0"":""ruth and kate are talking with each other""}","<img src=""stim_listA/talk8.gif""style=""height:400px;""></stim_listA>",are talking to each other,
2102,"<img src='img/portrait_matrix_list1.jpg' style='width:900px;height:500px;''></img><p>If you have memorised all the portraits and names and are ready to start, press Continue.</p><p><strong>Please note: Your memory of these faces will be tested 4 times during this experiment.</strong></p>",0,html-button-response,330,1138338,0.0-18.0-0.0,75393,List1A,black,man,,,,,,,,
1959,"<img src=""portrait/BM1.jpg""style=""height:400px;""></img>",4,html-button-response,331,1141303,0.0-18.0-1.0,75393,List1A,black,man,,TRUE,4,,,,,
null,CORRECT,,html-keyboard-response,332,1142807,0.0-18.0-2.0-0.0,75393,List1A,black,man,,,,null,,,,
1639,"<img src=""portrait/BW1.jpg""style=""height:400px;""></img>",0,html-button-response,333,1144450,0.0-18.0-4.0,75393,List1A,black,man,,TRUE,0,,,,,
null,CORRECT,,html-keyboard-response,334,1145955,0.0-18.0-5.0-0.0,75393,List1A,black,man,,,,null,,,,
1704,"<img src=""portrait/WM2.jpg""style=""height:400px;""></img>",7,html-button-response,335,1147664,0.0-18.0-7.0,75393,List1A,black,man,,TRUE,7,,,,,
null,CORRECT,,html-keyboard-response,336,1149168,0.0-18.0-8.0-0.0,75393,List1A,black,man,,,,null,,,,
1486,"<img src=""portrait/BW2.jpg""style=""height:400px;""></img>",2,html-button-response,337,1150659,0.0-18.0-10.0,75393,List1A,black,man,,TRUE,2,,,,,
null,CORRECT,,html-keyboard-response,338,1152163,0.0-18.0-11.0-0.0,75393,List1A,black,man,,,,null,,,,
1288,"<img src=""portrait/BM2.jpg""style=""height:400px;""></img>",5,html-button-response,339,1153455,0.0-18.0-13.0,75393,List1A,black,man,,TRUE,5,,,,,
null,CORRECT,,html-keyboard-response,340,1154959,0.0-18.0-14.0-0.0,75393,List1A,black,man,,,,null,,,,
1472,"<img src=""portrait/WM1.jpg""style=""height:400px;""></img>",6,html-button-response,341,1156435,0.0-18.0-16.0,75393,List1A,black,man,,TRUE,6,,,,,
null,CORRECT,,html-keyboard-response,342,1157939,0.0-18.0-17.0-0.0,75393,List1A,black,man,,,,null,,,,
1280,"<img src=""portrait/WW1.jpg""style=""height:400px;""></img>",1,html-button-response,343,1159223,0.0-18.0-19.0,75393,List1A,black,man,,TRUE,1,,,,,
null,CORRECT,,html-keyboard-response,344,1160728,0.0-18.0-20.0-0.0,75393,List1A,black,man,,,,null,,,,
1362,"<img src=""portrait/WW2.jpg""style=""height:400px;""></img>",3,html-button-response,345,1162097,0.0-18.0-22.0,75393,List1A,black,man,,TRUE,3,,,,,
null,CORRECT,,html-keyboard-response,346,1163602,0.0-18.0-23.0-0.0,75393,List1A,black,man,,,,null,,,,
1276,<p>You got 8 out of 8 right first time. Press Continue.</p>,0,html-button-response,347,1164881,0.0-18.0-25.0,75393,List1A,black,man,,,,,,,,
null,"<div style=""font-size:60px;"">+</div>",,html-keyboard-response,348,1166387,0.0-19.0-0.0,75393,List1A,black,man,,,,null,,,,
null,"<img src=""stim_listA/kiss2.gif""style=""height:400px;""></stim_listA>",,html-keyboard-response,349,1168391,0.0-19.0-1.0,75393,List1A,black,man,,,,null,,,,
null,are kissing each other,,html-keyboard-response,350,1170393,0.0-19.0-2.0,75393,List1A,black,man,,,,null,,,,
8262,,,survey-text,351,1178659,0.0-19.0-3.0,75393,List1A,black,man,,,,,"{""Q0"":""mike and kate are kissing each other""}","<img src=""stim_listA/kiss2.gif""style=""height:400px;""></stim_listA>",are kissing each other,
null,"<div style=""font-size:60px;"">+</div>",,html-keyboard-response,352,1179163,0.0-19.0-0.1,75393,List1A,black,man,,,,null,,,,
null,"<img src=""stim_listA/shout2.gif""style=""height:400px;""></stim_listA>",,html-keyboard-response,353,1181167,0.0-19.0-1.1,75393,List1A,black,man,,,,null,,,,
null,are shouting at each other,,html-keyboard-response,354,1183169,0.0-19.0-2.1,75393,List1A,black,man,,,,null,,,,
8513,,,survey-text,355,1191685,0.0-19.0-3.1,75393,List1A,black,man,,,,,"{""Q0"":""mike and kate are shouting at each other""}","<img src=""stim_listA/shout2.gif""style=""height:400px;""></stim_listA>",are shouting at each other,
null,"<div style=""font-size:60px;"">+</div>",,html-keyboard-response,356,1192188,0.0-19.0-0.2,75393,List1A,black,man,,,,null,,,,
null,"<img src=""stim_listA/argue5.gif""style=""height:400px;""></stim_listA>",,html-keyboard-response,357,1194191,0.0-19.0-1.2,75393,List1A,black,man,,,,null,,,,
null,is arguing with,,html-keyboard-response,358,1196195,0.0-19.0-2.2,75393,List1A,black,man,,,,null,,,,
7489,,,survey-text,359,1203688,0.0-19.0-3.2,75393,List1A,black,man,,,,,"{""Q0"":""mike is arguing with luke""}","<img src=""stim_listA/argue5.gif""style=""height:400px;""></stim_listA>",is arguing with,
null,"<div style=""font-size:60px;"">+</div>",,html-keyboard-response,360,1204190,0.0-19.0-0.3,75393,List1A,black,man,,,,null,,,,
null,"<img src=""stim_listA/touch6.gif""style=""height:400px;""></stim_listA>",,html-keyboard-response,361,1206194,0.0-19.0-1.3,75393,List1A,black,man,,,,null,,,,
null,are touching each other,,html-keyboard-response,362,1208197,0.0-19.0-2.3,75393,List1A,black,man,,,,null,,,,
7646,,,survey-text,363,1215846,0.0-19.0-3.3,75393,List1A,black,man,,,,,"{""Q0"":""fred and luke are touching each other""}","<img src=""stim_listA/touch6.gif""style=""height:400px;""></stim_listA>",are touching each other,
null,"<div style=""font-size:60px;"">+</div>",,html-keyboard-response,364,1216348,0.0-19.0-0.4,75393,List1A,black,man,,,,null,,,,
null,"<img src=""stim_listA/touch3.gif""style=""height:400px;""></stim_listA>",,html-keyboard-response,365,1218351,0.0-19.0-1.4,75393,List1A,black,man,,,,null,,,,
null,is touching,,html-keyboard-response,366,1220355,0.0-19.0-2.4,75393,List1A,black,man,,,,null,,,,
4934,,,survey-text,367,1225294,0.0-19.0-3.4,75393,List1A,black,man,,,,,"{""Q0"":""dave is touching jane""}","<img src=""stim_listA/touch3.gif""style=""height:400px;""></stim_listA>",is touching,
null,"<div style=""font-size:60px;"">+</div>",,html-keyboard-response,368,1225798,0.0-19.0-0.5,75393,List1A,black,man,,,,null,,,,
null,"<img src=""stim_listA/flirt7.gif""style=""height:400px;""></stim_listA>",,html-keyboard-response,369,1227801,0.0-19.0-1.5,75393,List1A,black,man,,,,null,,,,
null,is flirting with,,html-keyboard-response,370,1229806,0.0-19.0-2.5,75393,List1A,black,man,,,,null,,,,
6479,,,survey-text,371,1236288,0.0-19.0-3.5,75393,List1A,black,man,,,,,"{""Q0"":""jane is flirting with beth""}","<img src=""stim_listA/flirt7.gif""style=""height:400px;""></stim_listA>",is flirting with,
null,"<div style=""font-size:60px;"">+</div>",,html-keyboard-response,372,1236810,0.0-19.0-0.6,75393,List1A,black,man,,,,null,,,,
null,"<img src=""stim_listA/kiss7.gif""style=""height:400px;""></stim_listA>",,html-keyboard-response,373,1238814,0.0-19.0-1.6,75393,List1A,black,man,,,,null,,,,
null,is kissing,,html-keyboard-response,374,1240817,0.0-19.0-2.6,75393,List1A,black,man,,,,null,,,,
5307,,,survey-text,375,1246128,0.0-19.0-3.6,75393,List1A,black,man,,,,,"{""Q0"":""ruth is kissing beth""}","<img src=""stim_listA/kiss7.gif""style=""height:400px;""></stim_listA>",is kissing,
null,"<div style=""font-size:60px;"">+</div>",,html-keyboard-response,376,1246632,0.0-19.0-0.7,75393,List1A,black,man,,,,null,,,,
null,"<img src=""stim_listA/dance5.gif""style=""height:400px;""></stim_listA>",,html-keyboard-response,377,1248636,0.0-19.0-1.7,75393,List1A,black,man,,,,null,,,,
null,is dancing with,,html-keyboard-response,378,1250638,0.0-19.0-2.7,75393,List1A,black,man,,,,null,,,,
6600,,,survey-text,379,1257243,0.0-19.0-3.7,75393,List1A,black,man,,,,,"{""Q0"":""dave is dancing with fred""}","<img src=""stim_listA/dance5.gif""style=""height:400px;""></stim_listA>",is dancing with,
null,"<div style=""font-size:60px;"">+</div>",,html-keyboard-response,380,1257745,0.0-19.0-0.8,75393,List1A,black,man,,,,null,,,,
null,"<img src=""stim_listA/argue7.gif""style=""height:400px;""></stim_listA>",,html-keyboard-response,381,1259750,0.0-19.0-1.8,75393,List1A,black,man,,,,null,,,,
null,is arguing with,,html-keyboard-response,382,1261753,0.0-19.0-2.8,75393,List1A,black,man,,,,null,,,,
9325,,,survey-text,383,1271081,0.0-19.0-3.8,75393,List1A,black,man,,,,,"{""Q0"":""kate is argung with ruth""}","<img src=""stim_listA/argue7.gif""style=""height:400px;""></stim_listA>",is arguing with,
null,"<div style=""font-size:60px;"">+</div>",,html-keyboard-response,384,1271585,0.0-19.0-0.9,75393,List1A,black,man,,,,null,,,,
null,"<img src=""stim_listA/play3.gif""style=""height:400px;""></stim_listA>",,html-keyboard-response,385,1273588,0.0-19.0-1.9,75393,List1A,black,man,,,,null,,,,
null,is playing with,,html-keyboard-response,386,1275592,0.0-19.0-2.9,75393,List1A,black,man,,,,null,,,,
6749,,,survey-text,387,1282345,0.0-19.0-3.9,75393,List1A,black,man,,,,,"{""Q0"":""dave is playing with jane""}","<img src=""stim_listA/play3.gif""style=""height:400px;""></stim_listA>",is playing with,
null,"<div style=""font-size:60px;"">+</div>",,html-keyboard-response,388,1282848,0.0-19.0-0.10,75393,List1A,black,man,,,,null,,,,
null,"<img src=""stim_listA/touch8.gif""style=""height:400px;""></stim_listA>",,html-keyboard-response,389,1284853,0.0-19.0-1.10,75393,List1A,black,man,,,,null,,,,
null,are touching each other,,html-keyboard-response,390,1286855,0.0-19.0-2.10,75393,List1A,black,man,,,,null,,,,
8319,,,survey-text,391,1295178,0.0-19.0-3.10,75393,List1A,black,man,,,,,"{""Q0"":""ruth and beth are touching each other""}","<img src=""stim_listA/touch8.gif""style=""height:400px;""></stim_listA>",are touching each other,
null,"<div style=""font-size:60px;"">+</div>",,html-keyboard-response,392,1295681,0.0-19.0-0.11,75393,List1A,black,man,,,,null,,,,
null,"<img src=""stim_listA/touch5.gif""style=""height:400px;""></stim_listA>",,html-keyboard-response,393,1297685,0.0-19.0-1.11,75393,List1A,black,man,,,,null,,,,
null,is touching,,html-keyboard-response,394,1299689,0.0-19.0-2.11,75393,List1A,black,man,,,,null,,,,
5094,,,survey-text,395,1304787,0.0-19.0-3.11,75393,List1A,black,man,,,,,"{""Q0"":""mike is touching dave""}","<img src=""stim_listA/touch5.gif""style=""height:400px;""></stim_listA>",is touching,
null,"<div style=""font-size:60px;"">+</div>",,html-keyboard-response,396,1305290,0.0-19.0-0.12,75393,List1A,black,man,,,,null,,,,
null,"<img src=""stim_listA/talk4.gif""style=""height:400px;""></stim_listA>",,html-keyboard-response,397,1307294,0.0-19.0-1.12,75393,List1A,black,man,,,,null,,,,
null,are talking to each other,,html-keyboard-response,398,1309297,0.0-19.0-2.12,75393,List1A,black,man,,,,null,,,,
7667,,,survey-text,399,1316966,0.0-19.0-3.12,75393,List1A,black,man,,,,,"{""Q0"":""ruth and dave are talking to each other""}","<img src=""stim_listA/talk4.gif""style=""height:400px;""></stim_listA>",are talking to each other,
null,"<div style=""font-size:60px;"">+</div>",,html-keyboard-response,400,1317470,0.0-19.0-0.13,75393,List1A,black,man,,,,null,,,,
null,"<img src=""stim_listA/shout8.gif""style=""height:400px;""></stim_listA>",,html-keyboard-response,401,1319474,0.0-19.0-1.13,75393,List1A,black,man,,,,null,,,,
null,are shouting at each other,,html-keyboard-response,402,1321477,0.0-19.0-2.13,75393,List1A,black,man,,,,null,,,,
9215,,,survey-text,403,1330697,0.0-19.0-3.13,75393,List1A,black,man,,,,,"{""Q0"":""jane and kate are shouting at each other""}","<img src=""stim_listA/shout8.gif""style=""height:400px;""></stim_listA>",are shouting at each other,
null,"<div style=""font-size:60px;"">+</div>",,html-keyboard-response,404,1331201,0.0-19.0-0.14,75393,List1A,black,man,,,,null,,,,
null,"<img src=""stim_listA/kiss3.gif""style=""height:400px;""></stim_listA>",,html-keyboard-response,405,1333207,0.0-19.0-1.14,75393,List1A,black,man,,,,null,,,,
null,is kissing,,html-keyboard-response,406,1335210,0.0-19.0-2.14,75393,List1A,black,man,,,,null,,,,
6515,,,survey-text,407,1341729,0.0-19.0-3.14,75393,List1A,black,man,,,,,"{""Q0"":""luke is kissing ruth""}","<img src=""stim_listA/kiss3.gif""style=""height:400px;""></stim_listA>",is kissing,
null,"<div style=""font-size:60px;"">+</div>",,html-keyboard-response,408,1342233,0.0-19.0-0.15,75393,List1A,black,man,,,,null,,,,
null,"<img src=""stim_listA/dance8.gif""style=""height:400px;""></stim_listA>",,html-keyboard-response,409,1344236,0.0-19.0-1.15,75393,List1A,black,man,,,,null,,,,
null,are dancing with each other,,html-keyboard-response,410,1346241,0.0-19.0-2.15,75393,List1A,black,man,,,,null,,,,
8780,,,survey-text,411,1355025,0.0-19.0-3.15,75393,List1A,black,man,,,,,"{""Q0"":""ruth and kate are dancing with each other""}","<img src=""stim_listA/dance8.gif""style=""height:400px;""></stim_listA>",are dancing with each other,
null,"<div style=""font-size:60px;"">+</div>",,html-keyboard-response,412,1355529,0.0-19.0-0.16,75393,List1A,black,man,,,,null,,,,
null,"<img src=""stim_listA/talk7.gif""style=""height:400px;""></stim_listA>",,html-keyboard-response,413,1357533,0.0-19.0-1.16,75393,List1A,black,man,,,,null,,,,
null,is talking to,,html-keyboard-response,414,1359535,0.0-19.0-2.16,75393,List1A,black,man,,,,null,,,,
7542,,,survey-text,415,1367081,0.0-19.0-3.16,75393,List1A,black,man,,,,,"{""Q0"":""beth is talking to jane""}","<img src=""stim_listA/talk7.gif""style=""height:400px;""></stim_listA>",is talking to,
null,"<div style=""font-size:60px;"">+</div>",,html-keyboard-response,416,1367584,0.0-19.0-0.17,75393,List1A,black,man,,,,null,,,,
null,"<img src=""stim_listA/fight3.gif""style=""height:400px;""></stim_listA>",,html-keyboard-response,417,1369588,0.0-19.0-1.17,75393,List1A,black,man,,,,null,,,,
null,is fighting,,html-keyboard-response,418,1371592,0.0-19.0-2.17,75393,List1A,black,man,,,,null,,,,
7698,,,survey-text,419,1379293,0.0-19.0-3.17,75393,List1A,black,man,,,,,"{""Q0"":""dave is fighting jane""}","<img src=""stim_listA/fight3.gif""style=""height:400px;""></stim_listA>",is fighting,
null,"<div style=""font-size:60px;"">+</div>",,html-keyboard-response,420,1379796,0.0-19.0-0.18,75393,List1A,black,man,,,,null,,,,
null,"<img src=""stim_listA/shout5.gif""style=""height:400px;""></stim_listA>",,html-keyboard-response,421,1381799,0.0-19.0-1.18,75393,List1A,black,man,,,,null,,,,
null,is shouting at,,html-keyboard-response,422,1383803,0.0-19.0-2.18,75393,List1A,black,man,,,,null,,,,
6343,,,survey-text,423,1390149,0.0-19.0-3.18,75393,List1A,black,man,,,,,"{""Q0"":""fred is shouting at luke""}","<img src=""stim_listA/shout5.gif""style=""height:400px;""></stim_listA>",is shouting at,
null,"<div style=""font-size:60px;"">+</div>",,html-keyboard-response,424,1390654,0.0-19.0-0.19,75393,List1A,black,man,,,,null,,,,
null,"<img src=""stim_listA/kiss6.gif""style=""height:400px;""></stim_listA>",,html-keyboard-response,425,1392658,0.0-19.0-1.19,75393,List1A,black,man,,,,null,,,,
null,are kissing each other,,html-keyboard-response,426,1394660,0.0-19.0-2.19,75393,List1A,black,man,,,,null,,,,
7218,,,survey-text,427,1401882,0.0-19.0-3.19,75393,List1A,black,man,,,,,"{""Q0"":""dave and mike are kissing each other""}","<img src=""stim_listA/kiss6.gif""style=""height:400px;""></stim_listA>",are kissing each other,
1720,<p>Thank you for completing that task.</p><p>The final part of this session is a short questionnaire.</p><p>Press Continue.</p>,0,html-button-response,428,1403608,0.0-20.0,75393,List1A,black,man,,,,,,,,
15976,,,survey-text,429,1420591,0.0-21.0,75393,List1A,black,man,,,,,"{""Q0"":""29"",""Q1"":""English"",""Q2"":""English"",""Q3"":""USA"",""Q4"":""Black"",""Q5"":""Male""}",,,demographics
5779,,,survey-likert,430,1426376,0.0-22.0,75393,List1A,black,man,,,,,"{""Q0"":4}",,,likert_ESS
6123,,,survey-likert,431,1432504,0.0-23.0,75393,List1A,black,man,,,,,"{""Q0"":4}",,,likert_NSSAL_Q1
2518,,,survey-likert,432,1435027,0.0-24.0,75393,List1A,black,man,,,,,"{""Q0"":4}",,,likert_NSSAL_Q2
4732,,,survey-likert,433,1439764,0.0-25.0,75393,List1A,black,man,,,,,"{""Q0"":4}",,,likert_CGRS_Q1
2570,,,survey-likert,434,1442340,0.0-26.0,75393,List1A,black,man,,,,,"{""Q0"":4}",,,likert_CGRS_Q2
1928,,,survey-likert,435,1444272,0.0-27.0,75393,List1A,black,man,,,,,"{""Q0"":4}",,,likert_CGRS_Q3
7228,,,survey-text,436,1451506,0.0-28.0,75393,List1A,black,man,,,,,"{""Q0"":""ccc""}",,,worker_id
25899,,,external-html,437,1477873,0.0-29.0,75393,List1A,black,man,debrief.html,,,,,,,
