rt,stimulus,button_pressed,trial_type,trial_index,time_elapsed,internal_node_id,subject,list,ppt_race,ppt_gender,url,first_guess,correct,key_press,responses,image_type,phrase_type,test_part
1241,Welcome to the experiment. Press Continue to begin.,0,html-button-response,0,1245,0.0-0.0,75900,List1B,black,man,,,,,,,,
8293,,,external-html,1,10571,0.0-1.0,75900,List1B,black,man,consent.html,,,,,,,
12095,"<p>On the next page, you will see portraits of 8 people and their names.</p><p>Your first task is to take a few minutes to memorise the names of these people.</p><p>You will have to recall their names during the rest of the experiment, so it is</p><p>essential that you try to memorise these people and their names as best as you can.</p><br><p><strong>You will then be tested on your memory of these names and portraits.</strong></p><br><p>The experiment will start after you have completed this memory test.</p><br><p>Ready?</p>",0,html-button-response,2,22668,0.0-2.0,75900,List1B,black,man,,,,,,,,
64885,"<img src='img/portrait_matrix_list1.jpg' style='width:900px;height:500px;''></img><p>If you have memorised all the portraits and names and are ready to start, press Continue.</p><p><strong>Please note: Your memory of these faces will be tested 4 times during this experiment.</strong></p>",0,html-button-response,3,88555,0.0-3.0-0.0,75900,List1B,black,man,,,,,,,,
2173,"<img src=""portrait/WM2.jpg""style=""height:400px;""></img>",7,html-button-response,4,91731,0.0-3.0-1.0,75900,List1B,black,man,,TRUE,7,,,,,
null,CORRECT,,html-keyboard-response,5,93235,0.0-3.0-2.0-0.0,75900,List1B,black,man,,,,null,,,,
2078,"<img src=""portrait/BM2.jpg""style=""height:400px;""></img>",5,html-button-response,6,95315,0.0-3.0-4.0,75900,List1B,black,man,,TRUE,5,,,,,
null,CORRECT,,html-keyboard-response,7,96817,0.0-3.0-5.0-0.0,75900,List1B,black,man,,,,null,,,,
2360,"<img src=""portrait/BW2.jpg""style=""height:400px;""></img>",2,html-button-response,8,99179,0.0-3.0-7.0,75900,List1B,black,man,,TRUE,2,,,,,
null,CORRECT,,html-keyboard-response,9,100684,0.0-3.0-8.0-0.0,75900,List1B,black,man,,,,null,,,,
1581,"<img src=""portrait/WW2.jpg""style=""height:400px;""></img>",3,html-button-response,10,102267,0.0-3.0-10.0,75900,List1B,black,man,,TRUE,3,,,,,
null,CORRECT,,html-keyboard-response,11,103770,0.0-3.0-11.0-0.0,75900,List1B,black,man,,,,null,,,,
2095,"<img src=""portrait/BW1.jpg""style=""height:400px;""></img>",0,html-button-response,12,105866,0.0-3.0-13.0,75900,List1B,black,man,,TRUE,0,,,,,
null,CORRECT,,html-keyboard-response,13,107369,0.0-3.0-14.0-0.0,75900,List1B,black,man,,,,null,,,,
2584,"<img src=""portrait/WW1.jpg""style=""height:400px;""></img>",1,html-button-response,14,109955,0.0-3.0-16.0,75900,List1B,black,man,,TRUE,1,,,,,
null,CORRECT,,html-keyboard-response,15,111457,0.0-3.0-17.0-0.0,75900,List1B,black,man,,,,null,,,,
1872,"<img src=""portrait/WM1.jpg""style=""height:400px;""></img>",5,html-button-response,16,113331,0.0-3.0-19.0,75900,List1B,black,man,,TRUE,6,,,,,
2700,"<img src=""portrait/WM1.jpg""style=""height:400px;""></img>",6,html-button-response,17,117035,0.0-3.0-21.0-0.0,75900,List1B,black,man,,FALSE,6,,,,,
null,CORRECT,,html-keyboard-response,18,118537,0.0-3.0-21.0-1.0-0.0,75900,List1B,black,man,,,,null,,,,
4232,"<img src=""portrait/BM1.jpg""style=""height:400px;""></img>",4,html-button-response,19,122771,0.0-3.0-22.0,75900,List1B,black,man,,TRUE,4,,,,,
null,CORRECT,,html-keyboard-response,20,124274,0.0-3.0-23.0-0.0,75900,List1B,black,man,,,,null,,,,
1510,<p>You got 7 out of 8 right first time. Press Continue.</p>,0,html-button-response,21,125787,0.0-3.0-25.0,75900,List1B,black,man,,,,,,,,
2950,"As you did not score 100%, the memory game will repeat. Press Continue.",0,html-button-response,22,129739,0.0-3.0-26.0-0.0,75900,List1B,black,man,,,,,,,,
1524,"<img src='img/portrait_matrix_list1.jpg' style='width:900px;height:500px;''></img><p>If you have memorised all the portraits and names and are ready to start, press Continue.</p><p><strong>Please note: Your memory of these faces will be tested 4 times during this experiment.</strong></p>",0,html-button-response,23,132267,0.0-3.1-0.1,75900,List1B,black,man,,,,,,,,
1278,"<img src=""portrait/WM2.jpg""style=""height:400px;""></img>",7,html-button-response,24,134547,0.0-3.1-1.1,75900,List1B,black,man,,TRUE,7,,,,,
null,CORRECT,,html-keyboard-response,25,136051,0.0-3.1-2.1-0.1,75900,List1B,black,man,,,,null,,,,
1670,"<img src=""portrait/BM2.jpg""style=""height:400px;""></img>",5,html-button-response,26,137723,0.0-3.1-4.1,75900,List1B,black,man,,TRUE,5,,,,,
null,CORRECT,,html-keyboard-response,27,139224,0.0-3.1-5.1-0.1,75900,List1B,black,man,,,,null,,,,
1642,"<img src=""portrait/BW2.jpg""style=""height:400px;""></img>",2,html-button-response,28,140867,0.0-3.1-7.1,75900,List1B,black,man,,TRUE,2,,,,,
null,CORRECT,,html-keyboard-response,29,142370,0.0-3.1-8.1-0.1,75900,List1B,black,man,,,,null,,,,
1527,"<img src=""portrait/WW2.jpg""style=""height:400px;""></img>",3,html-button-response,30,143899,0.0-3.1-10.1,75900,List1B,black,man,,TRUE,3,,,,,
null,CORRECT,,html-keyboard-response,31,145401,0.0-3.1-11.1-0.1,75900,List1B,black,man,,,,null,,,,
2681,"<img src=""portrait/BW1.jpg""style=""height:400px;""></img>",0,html-button-response,32,148083,0.0-3.1-13.1,75900,List1B,black,man,,TRUE,0,,,,,
null,CORRECT,,html-keyboard-response,33,149587,0.0-3.1-14.1-0.1,75900,List1B,black,man,,,,null,,,,
1678,"<img src=""portrait/WW1.jpg""style=""height:400px;""></img>",1,html-button-response,34,151267,0.0-3.1-16.1,75900,List1B,black,man,,TRUE,1,,,,,
null,CORRECT,,html-keyboard-response,35,152770,0.0-3.1-17.1-0.1,75900,List1B,black,man,,,,null,,,,
1870,"<img src=""portrait/WM1.jpg""style=""height:400px;""></img>",6,html-button-response,36,154643,0.0-3.1-19.1,75900,List1B,black,man,,TRUE,6,,,,,
null,CORRECT,,html-keyboard-response,37,156144,0.0-3.1-20.1-0.1,75900,List1B,black,man,,,,null,,,,
3592,"<img src=""portrait/BM1.jpg""style=""height:400px;""></img>",4,html-button-response,38,159739,0.0-3.1-22.1,75900,List1B,black,man,,TRUE,4,,,,,
null,CORRECT,,html-keyboard-response,39,161241,0.0-3.1-23.1-0.1,75900,List1B,black,man,,,,null,,,,
1120,<p>You got 8 out of 8 right first time. Press Continue.</p>,0,html-button-response,40,162363,0.0-3.1-25.1,75900,List1B,black,man,,,,,,,,
29069,"<p>In this experiment, you will view photographs of the people from the memory game interacting.</p><p>By using the <strong>exact</strong> phrase given <i>after</i> the photograph appears and recalling the correct names of the people in the photographs, form a sentence describing the interaction. You do not need to capitalise names.</p><p>Type your answer in the space provided. Please complete every sentence before moving onto the next trial.</p><p>You will only have a few seconds to memorise each given photograph and phrase before you can respond, so try your best to focus.</p><p>An example is given below. Press 'Continue' when you are ready.</p><img src='img/speaking_example.jpg' style='width:800px;height:460px;''></img>",0,html-button-response,41,192434,0.0-4.0,75900,List1B,black,man,,,,,,,,
2301,"<p>Before the experiment starts, you will watch two example trials. Press 'Continue'.</p>",0,html-button-response,42,195738,0.0-5.0,75900,List1B,black,man,,,,,,,,
null,<img src='img/meet_eg.gif' style='height:400px;''></img>,,html-keyboard-response,43,198741,0.0-6.0,75900,List1B,black,man,,,,null,,,,
null,<p>is meeting</p>,,html-keyboard-response,44,200744,0.0-7.0,75900,List1B,black,man,,,,null,,,,
1337,<p><b>Answer:</b> kate is meeting beth</p>,0,html-button-response,45,202082,0.0-8.0,75900,List1B,black,man,,,,,,,,
null,<img src='img/look_eg.gif' style='height:400px;''></img>,,html-keyboard-response,46,205086,0.0-9.0,75900,List1B,black,man,,,,null,,,,
null,<p>are looking at each other</p>,,html-keyboard-response,47,207087,0.0-10.0,75900,List1B,black,man,,,,null,,,,
2384,<p><b>Answer:</b> luke and dave are looking at each other</p>,0,html-button-response,48,209474,0.0-11.0,75900,List1B,black,man,,,,,,,,
9518,"<p>Ready to start the experiment?</p><br><p><strong>Remember to describe the picture using a full sentence,</strong></p><p><strong>that combines the names of the people with the <i>exact</i> phrase given.</strong></p><p><strong>To receive full payment you must do this correctly.</strong></p><p><strong> You do not need to capitalise names or use punctuation.</strong></p><br><p>Press 'Continue' to begin.</p>",0,html-button-response,49,219994,0.0-12.0,75900,List1B,black,man,,,,,,,,
null,"<div style=""font-size:60px;"">+</div>",,html-keyboard-response,50,221497,0.0-13.0-0.0,75900,List1B,black,man,,,,null,,,,
null,"<img src=""stim_listB/shout1.gif""style=""height:400px;""></stim_listB>",,html-keyboard-response,51,223501,0.0-13.0-1.0,75900,List1B,black,man,,,,null,,,,
null,is shouting at,,html-keyboard-response,52,225503,0.0-13.0-2.0,75900,List1B,black,man,,,,null,,,,
10585,,,survey-text,53,236090,0.0-13.0-3.0,75900,List1B,black,man,,,,,"{""Q0"":""fred is shouting at beth""}","<img src=""stim_listB/shout1.gif""style=""height:400px;""></stim_listB>",is shouting at,
null,"<div style=""font-size:60px;"">+</div>",,html-keyboard-response,54,236593,0.0-13.0-0.1,75900,List1B,black,man,,,,null,,,,
null,"<img src=""stim_listB/kiss1.gif""style=""height:400px;""></stim_listB>",,html-keyboard-response,55,238595,0.0-13.0-1.1,75900,List1B,black,man,,,,null,,,,
null,is kissing,,html-keyboard-response,56,240598,0.0-13.0-2.1,75900,List1B,black,man,,,,null,,,,
5066,,,survey-text,57,245665,0.0-13.0-3.1,75900,List1B,black,man,,,,,"{""Q0"":""fred is kissing beth""}","<img src=""stim_listB/kiss1.gif""style=""height:400px;""></stim_listB>",is kissing,
null,"<div style=""font-size:60px;"">+</div>",,html-keyboard-response,58,246166,0.0-13.0-0.2,75900,List1B,black,man,,,,null,,,,
null,"<img src=""stim_listB/marry7.gif""style=""height:400px;""></stim_listB>",,html-keyboard-response,59,248172,0.0-13.0-1.2,75900,List1B,black,man,,,,null,,,,
null,is marrying,,html-keyboard-response,60,250174,0.0-13.0-2.2,75900,List1B,black,man,,,,null,,,,
7475,,,survey-text,61,257649,0.0-13.0-3.2,75900,List1B,black,man,,,,,"{""Q0"":""jane is marrying kate""}","<img src=""stim_listB/marry7.gif""style=""height:400px;""></stim_listB>",is marrying,
null,"<div style=""font-size:60px;"">+</div>",,html-keyboard-response,62,258151,0.0-13.0-0.3,75900,List1B,black,man,,,,null,,,,
null,"<img src=""stim_listB/dance6.gif""style=""height:400px;""></stim_listB>",,html-keyboard-response,63,260154,0.0-13.0-1.3,75900,List1B,black,man,,,,null,,,,
null,are dancing with each other,,html-keyboard-response,64,262155,0.0-13.0-2.3,75900,List1B,black,man,,,,null,,,,
10205,,,survey-text,65,272361,0.0-13.0-3.3,75900,List1B,black,man,,,,,"{""Q0"":""mike and luke are dancing with each other""}","<img src=""stim_listB/dance6.gif""style=""height:400px;""></stim_listB>",are dancing with each other,
null,"<div style=""font-size:60px;"">+</div>",,html-keyboard-response,66,272863,0.0-13.0-0.4,75900,List1B,black,man,,,,null,,,,
null,"<img src=""stim_listB/marry3.gif""style=""height:400px;""></stim_listB>",,html-keyboard-response,67,274866,0.0-13.0-1.4,75900,List1B,black,man,,,,null,,,,
null,is marrying,,html-keyboard-response,68,276869,0.0-13.0-2.4,75900,List1B,black,man,,,,null,,,,
16250,,,survey-text,69,293121,0.0-13.0-3.4,75900,List1B,black,man,,,,,"{""Q0"":""dave and jane are meeting each other""}","<img src=""stim_listB/marry3.gif""style=""height:400px;""></stim_listB>",is marrying,
null,"<div style=""font-size:60px;"">+</div>",,html-keyboard-response,70,293623,0.0-13.0-0.5,75900,List1B,black,man,,,,null,,,,
null,"<img src=""stim_listB/talk8.gif""style=""height:400px;""></stim_listB>",,html-keyboard-response,71,295627,0.0-13.0-1.5,75900,List1B,black,man,,,,null,,,,
null,are talking to each other,,html-keyboard-response,72,297630,0.0-13.0-2.5,75900,List1B,black,man,,,,null,,,,
8882,,,survey-text,73,306513,0.0-13.0-3.5,75900,List1B,black,man,,,,,"{""Q0"":""kate and jane are talking to each other""}","<img src=""stim_listB/talk8.gif""style=""height:400px;""></stim_listB>",are talking to each other,
null,"<div style=""font-size:60px;"">+</div>",,html-keyboard-response,74,307014,0.0-13.0-0.6,75900,List1B,black,man,,,,null,,,,
null,"<img src=""stim_listB/talk5.gif""style=""height:400px;""></stim_listB>",,html-keyboard-response,75,309016,0.0-13.0-1.6,75900,List1B,black,man,,,,null,,,,
null,is talking to,,html-keyboard-response,76,311018,0.0-13.0-2.6,75900,List1B,black,man,,,,null,,,,
5990,,,survey-text,77,317009,0.0-13.0-3.6,75900,List1B,black,man,,,,,"{""Q0"":""dave is talking to fred""}","<img src=""stim_listB/talk5.gif""style=""height:400px;""></stim_listB>",is talking to,
null,"<div style=""font-size:60px;"">+</div>",,html-keyboard-response,78,317510,0.0-13.0-0.7,75900,List1B,black,man,,,,null,,,,
null,"<img src=""stim_listB/argue8.gif""style=""height:400px;""></stim_listB>",,html-keyboard-response,79,319512,0.0-13.0-1.7,75900,List1B,black,man,,,,null,,,,
null,are arguing with each other,,html-keyboard-response,80,321513,0.0-13.0-2.7,75900,List1B,black,man,,,,null,,,,
21742,,,survey-text,81,343256,0.0-13.0-3.7,75900,List1B,black,man,,,,,"{""Q0"":""beth is talking to ruth""}","<img src=""stim_listB/argue8.gif""style=""height:400px;""></stim_listB>",are arguing with each other,
null,"<div style=""font-size:60px;"">+</div>",,html-keyboard-response,82,343758,0.0-13.0-0.8,75900,List1B,black,man,,,,null,,,,
null,"<img src=""stim_listB/dance4.gif""style=""height:400px;""></stim_listB>",,html-keyboard-response,83,345759,0.0-13.0-1.8,75900,List1B,black,man,,,,null,,,,
null,are dancing with each other,,html-keyboard-response,84,347761,0.0-13.0-2.8,75900,List1B,black,man,,,,null,,,,
11917,,,survey-text,85,359680,0.0-13.0-3.8,75900,List1B,black,man,,,,,"{""Q0"":""dave and ruth are dancing with each other""}","<img src=""stim_listB/dance4.gif""style=""height:400px;""></stim_listB>",are dancing with each other,
null,"<div style=""font-size:60px;"">+</div>",,html-keyboard-response,86,360182,0.0-13.0-0.9,75900,List1B,black,man,,,,null,,,,
null,"<img src=""stim_listB/argue3.gif""style=""height:400px;""></stim_listB>",,html-keyboard-response,87,362185,0.0-13.0-1.9,75900,List1B,black,man,,,,null,,,,
null,is arguing with,,html-keyboard-response,88,364185,0.0-13.0-2.9,75900,List1B,black,man,,,,null,,,,
5438,,,survey-text,89,369624,0.0-13.0-3.9,75900,List1B,black,man,,,,,"{""Q0"":""dave is arguing with ruth""}","<img src=""stim_listB/argue3.gif""style=""height:400px;""></stim_listB>",is arguing with,
null,"<div style=""font-size:60px;"">+</div>",,html-keyboard-response,90,370126,0.0-13.0-0.10,75900,List1B,black,man,,,,null,,,,
null,"<img src=""stim_listB/play8.gif""style=""height:400px;""></stim_listB>",,html-keyboard-response,91,372128,0.0-13.0-1.10,75900,List1B,black,man,,,,null,,,,
null,are playing with each other,,html-keyboard-response,92,374130,0.0-13.0-2.10,75900,List1B,black,man,,,,null,,,,
56493,,,survey-text,93,430624,0.0-13.0-3.10,75900,List1B,black,man,,,,,"{""Q0"":""beth and ruth are playing with each other""}","<img src=""stim_listB/play8.gif""style=""height:400px;""></stim_listB>",are playing with each other,
null,"<div style=""font-size:60px;"">+</div>",,html-keyboard-response,94,431126,0.0-13.0-0.11,75900,List1B,black,man,,,,null,,,,
null,"<img src=""stim_listB/flirt4.gif""style=""height:400px;""></stim_listB>",,html-keyboard-response,95,433129,0.0-13.0-1.11,75900,List1B,black,man,,,,null,,,,
null,are flirting with each other,,html-keyboard-response,96,435131,0.0-13.0-2.11,75900,List1B,black,man,,,,null,,,,
7411,,,survey-text,97,442544,0.0-13.0-3.11,75900,List1B,black,man,,,,,"{""Q0"":""dave and jane are flirting with each other""}","<img src=""stim_listB/flirt4.gif""style=""height:400px;""></stim_listB>",are flirting with each other,
null,"<div style=""font-size:60px;"">+</div>",,html-keyboard-response,98,443047,0.0-13.0-0.12,75900,List1B,black,man,,,,null,,,,
null,"<img src=""stim_listB/dance5.gif""style=""height:400px;""></stim_listB>",,html-keyboard-response,99,445049,0.0-13.0-1.12,75900,List1B,black,man,,,,null,,,,
null,is dancing with,,html-keyboard-response,100,447050,0.0-13.0-2.12,75900,List1B,black,man,,,,null,,,,
9492,,,survey-text,101,456544,0.0-13.0-3.12,75900,List1B,black,man,,,,,"{""Q0"":""fred is dancing with dave""}","<img src=""stim_listB/dance5.gif""style=""height:400px;""></stim_listB>",is dancing with,
null,"<div style=""font-size:60px;"">+</div>",,html-keyboard-response,102,457045,0.0-13.0-0.13,75900,List1B,black,man,,,,null,,,,
null,"<img src=""stim_listB/marry5.gif""style=""height:400px;""></stim_listB>",,html-keyboard-response,103,459047,0.0-13.0-1.13,75900,List1B,black,man,,,,null,,,,
null,is marrying,,html-keyboard-response,104,461050,0.0-13.0-2.13,75900,List1B,black,man,,,,null,,,,
9804,,,survey-text,105,470856,0.0-13.0-3.13,75900,List1B,black,man,,,,,"{""Q0"":""luke is marrying mike""}","<img src=""stim_listB/marry5.gif""style=""height:400px;""></stim_listB>",is marrying,
null,"<div style=""font-size:60px;"">+</div>",,html-keyboard-response,106,471358,0.0-13.0-0.14,75900,List1B,black,man,,,,null,,,,
null,"<img src=""stim_listB/fight5.gif""style=""height:400px;""></stim_listB>",,html-keyboard-response,107,473359,0.0-13.0-1.14,75900,List1B,black,man,,,,null,,,,
null,is fighting,,html-keyboard-response,108,475362,0.0-13.0-2.14,75900,List1B,black,man,,,,null,,,,
8501,,,survey-text,109,483863,0.0-13.0-3.14,75900,List1B,black,man,,,,,"{""Q0"":""mike is fighting with dave""}","<img src=""stim_listB/fight5.gif""style=""height:400px;""></stim_listB>",is fighting,
null,"<div style=""font-size:60px;"">+</div>",,html-keyboard-response,110,484365,0.0-13.0-0.15,75900,List1B,black,man,,,,null,,,,
null,"<img src=""stim_listB/marry4.gif""style=""height:400px;""></stim_listB>",,html-keyboard-response,111,486369,0.0-13.0-1.15,75900,List1B,black,man,,,,null,,,,
null,are marrying each other,,html-keyboard-response,112,488371,0.0-13.0-2.15,75900,List1B,black,man,,,,null,,,,
58787,,,survey-text,113,547159,0.0-13.0-3.15,75900,List1B,black,man,,,,,"{""Q0"":""""}","<img src=""stim_listB/marry4.gif""style=""height:400px;""></stim_listB>",are marrying each other,
null,"<div style=""font-size:60px;"">+</div>",,html-keyboard-response,114,547660,0.0-13.0-0.16,75900,List1B,black,man,,,,null,,,,
null,"<img src=""stim_listB/shout7.gif""style=""height:400px;""></stim_listB>",,html-keyboard-response,115,549662,0.0-13.0-1.16,75900,List1B,black,man,,,,null,,,,
null,is shouting at,,html-keyboard-response,116,551663,0.0-13.0-2.16,75900,List1B,black,man,,,,null,,,,
9894,,,survey-text,117,561559,0.0-13.0-3.16,75900,List1B,black,man,,,,,"{""Q0"":""beth is shouting at jane""}","<img src=""stim_listB/shout7.gif""style=""height:400px;""></stim_listB>",is shouting at,
null,"<div style=""font-size:60px;"">+</div>",,html-keyboard-response,118,562060,0.0-13.0-0.17,75900,List1B,black,man,,,,null,,,,
null,"<img src=""stim_listB/talk3.gif""style=""height:400px;""></stim_listB>",,html-keyboard-response,119,564063,0.0-13.0-1.17,75900,List1B,black,man,,,,null,,,,
null,is talking to,,html-keyboard-response,120,566065,0.0-13.0-2.17,75900,List1B,black,man,,,,null,,,,
6164,,,survey-text,121,572231,0.0-13.0-3.17,75900,List1B,black,man,,,,,"{""Q0"":""ruth is talking to luke""}","<img src=""stim_listB/talk3.gif""style=""height:400px;""></stim_listB>",is talking to,
null,"<div style=""font-size:60px;"">+</div>",,html-keyboard-response,122,572732,0.0-13.0-0.18,75900,List1B,black,man,,,,null,,,,
null,"<img src=""stim_listB/argue6.gif""style=""height:400px;""></stim_listB>",,html-keyboard-response,123,574736,0.0-13.0-1.18,75900,List1B,black,man,,,,null,,,,
null,are arguing with each other,,html-keyboard-response,124,576738,0.0-13.0-2.18,75900,List1B,black,man,,,,null,,,,
8267,,,survey-text,125,585007,0.0-13.0-3.18,75900,List1B,black,man,,,,,"{""Q0"":""dave and fred are arguing with each other""}","<img src=""stim_listB/argue6.gif""style=""height:400px;""></stim_listB>",are arguing with each other,
null,"<div style=""font-size:60px;"">+</div>",,html-keyboard-response,126,585508,0.0-13.0-0.19,75900,List1B,black,man,,,,null,,,,
null,"<img src=""stim_listB/fight8.gif""style=""height:400px;""></stim_listB>",,html-keyboard-response,127,587510,0.0-13.0-1.19,75900,List1B,black,man,,,,null,,,,
null,are fighting each other,,html-keyboard-response,128,589513,0.0-13.0-2.19,75900,List1B,black,man,,,,null,,,,
8813,,,survey-text,129,598326,0.0-13.0-3.19,75900,List1B,black,man,,,,,"{""Q0"":""beth and jane are fighting each other""}","<img src=""stim_listB/fight8.gif""style=""height:400px;""></stim_listB>",are fighting each other,
65735,"<img src='img/portrait_matrix_list1.jpg' style='width:900px;height:500px;''></img><p>If you have memorised all the portraits and names and are ready to start, press Continue.</p><p><strong>Please note: Your memory of these faces will be tested 4 times during this experiment.</strong></p>",0,html-button-response,130,664062,0.0-14.0-0.0,75900,List1B,black,man,,,,,,,,
2540,"<img src=""portrait/WM1.jpg""style=""height:400px;""></img>",6,html-button-response,131,667606,0.0-14.0-1.0,75900,List1B,black,man,,TRUE,6,,,,,
null,CORRECT,,html-keyboard-response,132,669110,0.0-14.0-2.0-0.0,75900,List1B,black,man,,,,null,,,,
1288,"<img src=""portrait/WM2.jpg""style=""height:400px;""></img>",7,html-button-response,133,670400,0.0-14.0-4.0,75900,List1B,black,man,,TRUE,7,,,,,
null,CORRECT,,html-keyboard-response,134,671902,0.0-14.0-5.0-0.0,75900,List1B,black,man,,,,null,,,,
1543,"<img src=""portrait/WW2.jpg""style=""height:400px;""></img>",3,html-button-response,135,673446,0.0-14.0-7.0,75900,List1B,black,man,,TRUE,3,,,,,
null,CORRECT,,html-keyboard-response,136,674950,0.0-14.0-8.0-0.0,75900,List1B,black,man,,,,null,,,,
1879,"<img src=""portrait/BW2.jpg""style=""height:400px;""></img>",2,html-button-response,137,676830,0.0-14.0-10.0,75900,List1B,black,man,,TRUE,2,,,,,
null,CORRECT,,html-keyboard-response,138,678334,0.0-14.0-11.0-0.0,75900,List1B,black,man,,,,null,,,,
1543,"<img src=""portrait/BM1.jpg""style=""height:400px;""></img>",0,html-button-response,139,679878,0.0-14.0-13.0,75900,List1B,black,man,,TRUE,4,,,,,
1548,"<img src=""portrait/BM1.jpg""style=""height:400px;""></img>",4,html-button-response,140,682430,0.0-14.0-15.0-0.0,75900,List1B,black,man,,FALSE,4,,,,,
null,CORRECT,,html-keyboard-response,141,683934,0.0-14.0-15.0-1.0-0.0,75900,List1B,black,man,,,,null,,,,
1983,"<img src=""portrait/BM2.jpg""style=""height:400px;""></img>",5,html-button-response,142,685918,0.0-14.0-16.0,75900,List1B,black,man,,TRUE,5,,,,,
null,CORRECT,,html-keyboard-response,143,687421,0.0-14.0-17.0-0.0,75900,List1B,black,man,,,,null,,,,
1919,"<img src=""portrait/BW1.jpg""style=""height:400px;""></img>",0,html-button-response,144,689342,0.0-14.0-19.0,75900,List1B,black,man,,TRUE,0,,,,,
null,CORRECT,,html-keyboard-response,145,690846,0.0-14.0-20.0-0.0,75900,List1B,black,man,,,,null,,,,
4038,"<img src=""portrait/WW1.jpg""style=""height:400px;""></img>",1,html-button-response,146,694886,0.0-14.0-22.0,75900,List1B,black,man,,TRUE,1,,,,,
null,CORRECT,,html-keyboard-response,147,696388,0.0-14.0-23.0-0.0,75900,List1B,black,man,,,,null,,,,
1352,<p>You got 7 out of 8 right first time. Press Continue.</p>,0,html-button-response,148,697742,0.0-14.0-25.0,75900,List1B,black,man,,,,,,,,
1397,"As you did not score 100%, the memory game will repeat. Press Continue.",0,html-button-response,149,700142,0.0-14.0-26.0-0.0,75900,List1B,black,man,,,,,,,,
1525,"<img src='img/portrait_matrix_list1.jpg' style='width:900px;height:500px;''></img><p>If you have memorised all the portraits and names and are ready to start, press Continue.</p><p><strong>Please note: Your memory of these faces will be tested 4 times during this experiment.</strong></p>",0,html-button-response,150,702670,0.0-14.1-0.1,75900,List1B,black,man,,,,,,,,
1421,"<img src=""portrait/WM1.jpg""style=""height:400px;""></img>",6,html-button-response,151,705094,0.0-14.1-1.1,75900,List1B,black,man,,TRUE,6,,,,,
null,CORRECT,,html-keyboard-response,152,706597,0.0-14.1-2.1-0.1,75900,List1B,black,man,,,,null,,,,
1249,"<img src=""portrait/WM2.jpg""style=""height:400px;""></img>",7,html-button-response,153,707847,0.0-14.1-4.1,75900,List1B,black,man,,TRUE,7,,,,,
null,CORRECT,,html-keyboard-response,154,709351,0.0-14.1-5.1-0.1,75900,List1B,black,man,,,,null,,,,
1277,"<img src=""portrait/WW2.jpg""style=""height:400px;""></img>",3,html-button-response,155,710630,0.0-14.1-7.1,75900,List1B,black,man,,TRUE,3,,,,,
null,CORRECT,,html-keyboard-response,156,712134,0.0-14.1-8.1-0.1,75900,List1B,black,man,,,,null,,,,
2775,"<img src=""portrait/BW2.jpg""style=""height:400px;""></img>",2,html-button-response,157,714911,0.0-14.1-10.1,75900,List1B,black,man,,TRUE,2,,,,,
null,CORRECT,,html-keyboard-response,158,716413,0.0-14.1-11.1-0.1,75900,List1B,black,man,,,,null,,,,
2751,"<img src=""portrait/BM1.jpg""style=""height:400px;""></img>",4,html-button-response,159,719166,0.0-14.1-13.1,75900,List1B,black,man,,TRUE,4,,,,,
null,CORRECT,,html-keyboard-response,160,720670,0.0-14.1-14.1-0.1,75900,List1B,black,man,,,,null,,,,
1782,"<img src=""portrait/BM2.jpg""style=""height:400px;""></img>",5,html-button-response,161,722454,0.0-14.1-16.1,75900,List1B,black,man,,TRUE,5,,,,,
null,CORRECT,,html-keyboard-response,162,723957,0.0-14.1-17.1-0.1,75900,List1B,black,man,,,,null,,,,
4135,"<img src=""portrait/BW1.jpg""style=""height:400px;""></img>",0,html-button-response,163,728093,0.0-14.1-19.1,75900,List1B,black,man,,TRUE,0,,,,,
null,CORRECT,,html-keyboard-response,164,729597,0.0-14.1-20.1-0.1,75900,List1B,black,man,,,,null,,,,
1463,"<img src=""portrait/WW1.jpg""style=""height:400px;""></img>",1,html-button-response,165,731061,0.0-14.1-22.1,75900,List1B,black,man,,TRUE,1,,,,,
null,CORRECT,,html-keyboard-response,166,732565,0.0-14.1-23.1-0.1,75900,List1B,black,man,,,,null,,,,
1054,<p>You got 8 out of 8 right first time. Press Continue.</p>,0,html-button-response,167,733621,0.0-14.1-25.1,75900,List1B,black,man,,,,,,,,
null,"<div style=""font-size:60px;"">+</div>",,html-keyboard-response,168,735123,0.0-15.0-0.0,75900,List1B,black,man,,,,null,,,,
null,"<img src=""stim_listB/flirt1.gif""style=""height:400px;""></stim_listB>",,html-keyboard-response,169,737125,0.0-15.0-1.0,75900,List1B,black,man,,,,null,,,,
null,is flirting with,,html-keyboard-response,170,739127,0.0-15.0-2.0,75900,List1B,black,man,,,,null,,,,
16869,,,survey-text,171,755997,0.0-15.0-3.0,75900,List1B,black,man,,,,,"{""Q0"":""fred is flirting with kate""}","<img src=""stim_listB/flirt1.gif""style=""height:400px;""></stim_listB>",is flirting with,
null,"<div style=""font-size:60px;"">+</div>",,html-keyboard-response,172,756499,0.0-15.0-0.1,75900,List1B,black,man,,,,null,,,,
null,"<img src=""stim_listB/talk2.gif""style=""height:400px;""></stim_listB>",,html-keyboard-response,173,758501,0.0-15.0-1.1,75900,List1B,black,man,,,,null,,,,
null,are talking to each other,,html-keyboard-response,174,760502,0.0-15.0-2.1,75900,List1B,black,man,,,,null,,,,
9765,,,survey-text,175,770269,0.0-15.0-3.1,75900,List1B,black,man,,,,,"{""Q0"":""beth and mike are talking to each other""}","<img src=""stim_listB/talk2.gif""style=""height:400px;""></stim_listB>",are talking to each other,
null,"<div style=""font-size:60px;"">+</div>",,html-keyboard-response,176,770771,0.0-15.0-0.2,75900,List1B,black,man,,,,null,,,,
null,"<img src=""stim_listB/play7.gif""style=""height:400px;""></stim_listB>",,html-keyboard-response,177,772773,0.0-15.0-1.2,75900,List1B,black,man,,,,null,,,,
null,is playing with,,html-keyboard-response,178,774775,0.0-15.0-2.2,75900,List1B,black,man,,,,null,,,,
9028,,,survey-text,179,783805,0.0-15.0-3.2,75900,List1B,black,man,,,,,"{""Q0"":""jane is playing with kate""}","<img src=""stim_listB/play7.gif""style=""height:400px;""></stim_listB>",is playing with,
null,"<div style=""font-size:60px;"">+</div>",,html-keyboard-response,180,784307,0.0-15.0-0.3,75900,List1B,black,man,,,,null,,,,
null,"<img src=""stim_listB/flirt3.gif""style=""height:400px;""></stim_listB>",,html-keyboard-response,181,786309,0.0-15.0-1.3,75900,List1B,black,man,,,,null,,,,
null,is flirting with,,html-keyboard-response,182,788312,0.0-15.0-2.3,75900,List1B,black,man,,,,null,,,,
6179,,,survey-text,183,794492,0.0-15.0-3.3,75900,List1B,black,man,,,,,"{""Q0"":""jane is flirting with luke""}","<img src=""stim_listB/flirt3.gif""style=""height:400px;""></stim_listB>",is flirting with,
null,"<div style=""font-size:60px;"">+</div>",,html-keyboard-response,184,794994,0.0-15.0-0.4,75900,List1B,black,man,,,,null,,,,
null,"<img src=""stim_listB/shout4.gif""style=""height:400px;""></stim_listB>",,html-keyboard-response,185,796998,0.0-15.0-1.4,75900,List1B,black,man,,,,null,,,,
null,are shouting at each other,,html-keyboard-response,186,798999,0.0-15.0-2.4,75900,List1B,black,man,,,,null,,,,
10291,,,survey-text,187,809292,0.0-15.0-3.4,75900,List1B,black,man,,,,,"{""Q0"":""dave and jane are shouting at each other""}","<img src=""stim_listB/shout4.gif""style=""height:400px;""></stim_listB>",are shouting at each other,
null,"<div style=""font-size:60px;"">+</div>",,html-keyboard-response,188,809795,0.0-15.0-0.5,75900,List1B,black,man,,,,null,,,,
null,"<img src=""stim_listB/dance8.gif""style=""height:400px;""></stim_listB>",,html-keyboard-response,189,811798,0.0-15.0-1.5,75900,List1B,black,man,,,,null,,,,
null,are dancing with each other,,html-keyboard-response,190,813801,0.0-15.0-2.5,75900,List1B,black,man,,,,null,,,,
7697,,,survey-text,191,821500,0.0-15.0-3.5,75900,List1B,black,man,,,,,"{""Q0"":""ruth and kate are dancing with each other""}","<img src=""stim_listB/dance8.gif""style=""height:400px;""></stim_listB>",are dancing with each other,
null,"<div style=""font-size:60px;"">+</div>",,html-keyboard-response,192,822002,0.0-15.0-0.6,75900,List1B,black,man,,,,null,,,,
null,"<img src=""stim_listB/fight7.gif""style=""height:400px;""></stim_listB>",,html-keyboard-response,193,824005,0.0-15.0-1.6,75900,List1B,black,man,,,,null,,,,
null,is fighting,,html-keyboard-response,194,826006,0.0-15.0-2.6,75900,List1B,black,man,,,,null,,,,
5868,,,survey-text,195,831876,0.0-15.0-3.6,75900,List1B,black,man,,,,,"{""Q0"":""jane is fighting kate""}","<img src=""stim_listB/fight7.gif""style=""height:400px;""></stim_listB>",is fighting,
null,"<div style=""font-size:60px;"">+</div>",,html-keyboard-response,196,832380,0.0-15.0-0.7,75900,List1B,black,man,,,,null,,,,
null,"<img src=""stim_listB/talk1.gif""style=""height:400px;""></stim_listB>",,html-keyboard-response,197,834382,0.0-15.0-1.7,75900,List1B,black,man,,,,null,,,,
null,is talking to,,html-keyboard-response,198,836384,0.0-15.0-2.7,75900,List1B,black,man,,,,null,,,,
5195,,,survey-text,199,841580,0.0-15.0-3.7,75900,List1B,black,man,,,,,"{""Q0"":""fred is talking to kate""}","<img src=""stim_listB/talk1.gif""style=""height:400px;""></stim_listB>",is talking to,
null,"<div style=""font-size:60px;"">+</div>",,html-keyboard-response,200,842082,0.0-15.0-0.8,75900,List1B,black,man,,,,null,,,,
null,"<img src=""stim_listB/kiss7.gif""style=""height:400px;""></stim_listB>",,html-keyboard-response,201,844084,0.0-15.0-1.8,75900,List1B,black,man,,,,null,,,,
null,is kissing,,html-keyboard-response,202,846086,0.0-15.0-2.8,75900,List1B,black,man,,,,null,,,,
5437,,,survey-text,203,851524,0.0-15.0-3.8,75900,List1B,black,man,,,,,"{""Q0"":""beth is kissing ruth""}","<img src=""stim_listB/kiss7.gif""style=""height:400px;""></stim_listB>",is kissing,
null,"<div style=""font-size:60px;"">+</div>",,html-keyboard-response,204,852027,0.0-15.0-0.9,75900,List1B,black,man,,,,null,,,,
null,"<img src=""stim_listB/fight4.gif""style=""height:400px;""></stim_listB>",,html-keyboard-response,205,854030,0.0-15.0-1.9,75900,List1B,black,man,,,,null,,,,
null,are fighting each other,,html-keyboard-response,206,856031,0.0-15.0-2.9,75900,List1B,black,man,,,,null,,,,
10155,,,survey-text,207,866188,0.0-15.0-3.9,75900,List1B,black,man,,,,,"{""Q0"":""ruth and luke are fighting each other""}","<img src=""stim_listB/fight4.gif""style=""height:400px;""></stim_listB>",are fighting each other,
null,"<div style=""font-size:60px;"">+</div>",,html-keyboard-response,208,866689,0.0-15.0-0.10,75900,List1B,black,man,,,,null,,,,
null,"<img src=""stim_listB/play6.gif""style=""height:400px;""></stim_listB>",,html-keyboard-response,209,868695,0.0-15.0-1.10,75900,List1B,black,man,,,,null,,,,
null,are playing with each other,,html-keyboard-response,210,870698,0.0-15.0-2.10,75900,List1B,black,man,,,,null,,,,
10001,,,survey-text,211,880700,0.0-15.0-3.10,75900,List1B,black,man,,,,,"{""Q0"":""luke and fred are playing with each other""}","<img src=""stim_listB/play6.gif""style=""height:400px;""></stim_listB>",are playing with each other,
null,"<div style=""font-size:60px;"">+</div>",,html-keyboard-response,212,881201,0.0-15.0-0.11,75900,List1B,black,man,,,,null,,,,
null,"<img src=""stim_listB/play3.gif""style=""height:400px;""></stim_listB>",,html-keyboard-response,213,883203,0.0-15.0-1.11,75900,List1B,black,man,,,,null,,,,
null,is playing with,,html-keyboard-response,214,885205,0.0-15.0-2.11,75900,List1B,black,man,,,,null,,,,
10309,,,survey-text,215,895515,0.0-15.0-3.11,75900,List1B,black,man,,,,,"{""Q0"":""jane and dave are playing with each other""}","<img src=""stim_listB/play3.gif""style=""height:400px;""></stim_listB>",is playing with,
null,"<div style=""font-size:60px;"">+</div>",,html-keyboard-response,216,896017,0.0-15.0-0.12,75900,List1B,black,man,,,,null,,,,
null,"<img src=""stim_listB/touch1.gif""style=""height:400px;""></stim_listB>",,html-keyboard-response,217,898019,0.0-15.0-1.12,75900,List1B,black,man,,,,null,,,,
null,is touching,,html-keyboard-response,218,900020,0.0-15.0-2.12,75900,List1B,black,man,,,,null,,,,
8390,,,survey-text,219,908412,0.0-15.0-3.12,75900,List1B,black,man,,,,,"{""Q0"":""mike is touching kate""}","<img src=""stim_listB/touch1.gif""style=""height:400px;""></stim_listB>",is touching,
null,"<div style=""font-size:60px;"">+</div>",,html-keyboard-response,220,908913,0.0-15.0-0.13,75900,List1B,black,man,,,,null,,,,
null,"<img src=""stim_listB/touch4.gif""style=""height:400px;""></stim_listB>",,html-keyboard-response,221,910916,0.0-15.0-1.13,75900,List1B,black,man,,,,null,,,,
null,are touching each other,,html-keyboard-response,222,912918,0.0-15.0-2.13,75900,List1B,black,man,,,,null,,,,
11092,,,survey-text,223,924012,0.0-15.0-3.13,75900,List1B,black,man,,,,,"{""Q0"":""luke and ruth are touching each other""}","<img src=""stim_listB/touch4.gif""style=""height:400px;""></stim_listB>",are touching each other,
null,"<div style=""font-size:60px;"">+</div>",,html-keyboard-response,224,924514,0.0-15.0-0.14,75900,List1B,black,man,,,,null,,,,
null,"<img src=""stim_listB/kiss3.gif""style=""height:400px;""></stim_listB>",,html-keyboard-response,225,926517,0.0-15.0-1.14,75900,List1B,black,man,,,,null,,,,
null,is kissing,,html-keyboard-response,226,928519,0.0-15.0-2.14,75900,List1B,black,man,,,,null,,,,
5451,,,survey-text,227,933971,0.0-15.0-3.14,75900,List1B,black,man,,,,,"{""Q0"":""luke is kissing ruth""}","<img src=""stim_listB/kiss3.gif""style=""height:400px;""></stim_listB>",is kissing,
null,"<div style=""font-size:60px;"">+</div>",,html-keyboard-response,228,934473,0.0-15.0-0.15,75900,List1B,black,man,,,,null,,,,
null,"<img src=""stim_listB/fight6.gif""style=""height:400px;""></stim_listB>",,html-keyboard-response,229,936477,0.0-15.0-1.15,75900,List1B,black,man,,,,null,,,,
null,are fighting each other,,html-keyboard-response,230,938479,0.0-15.0-2.15,75900,List1B,black,man,,,,null,,,,
10244,,,survey-text,231,948723,0.0-15.0-3.15,75900,List1B,black,man,,,,,"{""Q0"":""fred and luke are fighting each other""}","<img src=""stim_listB/fight6.gif""style=""height:400px;""></stim_listB>",are fighting each other,
null,"<div style=""font-size:60px;"">+</div>",,html-keyboard-response,232,949227,0.0-15.0-0.16,75900,List1B,black,man,,,,null,,,,
null,"<img src=""stim_listB/dance2.gif""style=""height:400px;""></stim_listB>",,html-keyboard-response,233,951229,0.0-15.0-1.16,75900,List1B,black,man,,,,null,,,,
null,are dancing with each other,,html-keyboard-response,234,953231,0.0-15.0-2.16,75900,List1B,black,man,,,,null,,,,
8643,,,survey-text,235,961875,0.0-15.0-3.16,75900,List1B,black,man,,,,,"{""Q0"":""beth and mike are dancing with each other""}","<img src=""stim_listB/dance2.gif""style=""height:400px;""></stim_listB>",are dancing with each other,
null,"<div style=""font-size:60px;"">+</div>",,html-keyboard-response,236,962377,0.0-15.0-0.17,75900,List1B,black,man,,,,null,,,,
null,"<img src=""stim_listB/play2.gif""style=""height:400px;""></stim_listB>",,html-keyboard-response,237,964381,0.0-15.0-1.17,75900,List1B,black,man,,,,null,,,,
null,are playing with each other,,html-keyboard-response,238,966384,0.0-15.0-2.17,75900,List1B,black,man,,,,null,,,,
9586,,,survey-text,239,975971,0.0-15.0-3.17,75900,List1B,black,man,,,,,"{""Q0"":""fred and beth are playing with each other""}","<img src=""stim_listB/play2.gif""style=""height:400px;""></stim_listB>",are playing with each other,
null,"<div style=""font-size:60px;"">+</div>",,html-keyboard-response,240,976472,0.0-15.0-0.18,75900,List1B,black,man,,,,null,,,,
null,"<img src=""stim_listB/talk6.gif""style=""height:400px;""></stim_listB>",,html-keyboard-response,241,978476,0.0-15.0-1.18,75900,List1B,black,man,,,,null,,,,
null,are talking to each other,,html-keyboard-response,242,980478,0.0-15.0-2.18,75900,List1B,black,man,,,,null,,,,
15123,,,survey-text,243,995603,0.0-15.0-3.18,75900,List1B,black,man,,,,,"{""Q0"":""mike and luke are talking to each other""}","<img src=""stim_listB/talk6.gif""style=""height:400px;""></stim_listB>",are talking to each other,
null,"<div style=""font-size:60px;"">+</div>",,html-keyboard-response,244,996106,0.0-15.0-0.19,75900,List1B,black,man,,,,null,,,,
null,"<img src=""stim_listB/shout5.gif""style=""height:400px;""></stim_listB>",,html-keyboard-response,245,998110,0.0-15.0-1.19,75900,List1B,black,man,,,,null,,,,
null,is shouting at,,html-keyboard-response,246,1000113,0.0-15.0-2.19,75900,List1B,black,man,,,,null,,,,
8064,,,survey-text,247,1008179,0.0-15.0-3.19,75900,List1B,black,man,,,,,"{""Q0"":""fred is shouting at luke""}","<img src=""stim_listB/shout5.gif""style=""height:400px;""></stim_listB>",is shouting at,
3727,"<img src='img/portrait_matrix_list1.jpg' style='width:900px;height:500px;''></img><p>If you have memorised all the portraits and names and are ready to start, press Continue.</p><p><strong>Please note: Your memory of these faces will be tested 4 times during this experiment.</strong></p>",0,html-button-response,248,1011907,0.0-16.0-0.0,75900,List1B,black,man,,,,,,,,
2020,"<img src=""portrait/WM1.jpg""style=""height:400px;""></img>",5,html-button-response,249,1014931,0.0-16.0-1.0,75900,List1B,black,man,,TRUE,6,,,,,
4645,"<img src=""portrait/WM1.jpg""style=""height:400px;""></img>",6,html-button-response,250,1020579,0.0-16.0-3.0-0.0,75900,List1B,black,man,,FALSE,6,,,,,
null,CORRECT,,html-keyboard-response,251,1022082,0.0-16.0-3.0-1.0-0.0,75900,List1B,black,man,,,,null,,,,
2295,"<img src=""portrait/BW1.jpg""style=""height:400px;""></img>",0,html-button-response,252,1024379,0.0-16.0-4.0,75900,List1B,black,man,,TRUE,0,,,,,
null,CORRECT,,html-keyboard-response,253,1025884,0.0-16.0-5.0-0.0,75900,List1B,black,man,,,,null,,,,
1525,"<img src=""portrait/WW2.jpg""style=""height:400px;""></img>",3,html-button-response,254,1027411,0.0-16.0-7.0,75900,List1B,black,man,,TRUE,3,,,,,
null,CORRECT,,html-keyboard-response,255,1028915,0.0-16.0-8.0-0.0,75900,List1B,black,man,,,,null,,,,
2062,"<img src=""portrait/BM1.jpg""style=""height:400px;""></img>",4,html-button-response,256,1030978,0.0-16.0-10.0,75900,List1B,black,man,,TRUE,4,,,,,
null,CORRECT,,html-keyboard-response,257,1032482,0.0-16.0-11.0-0.0,75900,List1B,black,man,,,,null,,,,
1575,"<img src=""portrait/WW1.jpg""style=""height:400px;""></img>",1,html-button-response,258,1034059,0.0-16.0-13.0,75900,List1B,black,man,,TRUE,1,,,,,
null,CORRECT,,html-keyboard-response,259,1035562,0.0-16.0-14.0-0.0,75900,List1B,black,man,,,,null,,,,
2519,"<img src=""portrait/BW2.jpg""style=""height:400px;""></img>",2,html-button-response,260,1038082,0.0-16.0-16.0,75900,List1B,black,man,,TRUE,2,,,,,
null,CORRECT,,html-keyboard-response,261,1039586,0.0-16.0-17.0-0.0,75900,List1B,black,man,,,,null,,,,
1807,"<img src=""portrait/WM2.jpg""style=""height:400px;""></img>",7,html-button-response,262,1041394,0.0-16.0-19.0,75900,List1B,black,man,,TRUE,7,,,,,
null,CORRECT,,html-keyboard-response,263,1042897,0.0-16.0-20.0-0.0,75900,List1B,black,man,,,,null,,,,
2336,"<img src=""portrait/BM2.jpg""style=""height:400px;""></img>",5,html-button-response,264,1045234,0.0-16.0-22.0,75900,List1B,black,man,,TRUE,5,,,,,
null,CORRECT,,html-keyboard-response,265,1046739,0.0-16.0-23.0-0.0,75900,List1B,black,man,,,,null,,,,
638,<p>You got 7 out of 8 right first time. Press Continue.</p>,0,html-button-response,266,1047378,0.0-16.0-25.0,75900,List1B,black,man,,,,,,,,
855,"As you did not score 100%, the memory game will repeat. Press Continue.",0,html-button-response,267,1049234,0.0-16.0-26.0-0.0,75900,List1B,black,man,,,,,,,,
1150,"<img src='img/portrait_matrix_list1.jpg' style='width:900px;height:500px;''></img><p>If you have memorised all the portraits and names and are ready to start, press Continue.</p><p><strong>Please note: Your memory of these faces will be tested 4 times during this experiment.</strong></p>",0,html-button-response,268,1051386,0.0-16.1-0.1,75900,List1B,black,man,,,,,,,,
3332,"<img src=""portrait/WM1.jpg""style=""height:400px;""></img>",6,html-button-response,269,1055723,0.0-16.1-1.1,75900,List1B,black,man,,TRUE,6,,,,,
null,CORRECT,,html-keyboard-response,270,1057226,0.0-16.1-2.1-0.1,75900,List1B,black,man,,,,null,,,,
2446,"<img src=""portrait/BW1.jpg""style=""height:400px;""></img>",0,html-button-response,271,1059674,0.0-16.1-4.1,75900,List1B,black,man,,TRUE,0,,,,,
null,CORRECT,,html-keyboard-response,272,1061177,0.0-16.1-5.1-0.1,75900,List1B,black,man,,,,null,,,,
1720,"<img src=""portrait/WW2.jpg""style=""height:400px;""></img>",3,html-button-response,273,1062898,0.0-16.1-7.1,75900,List1B,black,man,,TRUE,3,,,,,
null,CORRECT,,html-keyboard-response,274,1064402,0.0-16.1-8.1-0.1,75900,List1B,black,man,,,,null,,,,
2109,"<img src=""portrait/BM1.jpg""style=""height:400px;""></img>",4,html-button-response,275,1066514,0.0-16.1-10.1,75900,List1B,black,man,,TRUE,4,,,,,
null,CORRECT,,html-keyboard-response,276,1068018,0.0-16.1-11.1-0.1,75900,List1B,black,man,,,,null,,,,
1327,"<img src=""portrait/WW1.jpg""style=""height:400px;""></img>",1,html-button-response,277,1069347,0.0-16.1-13.1,75900,List1B,black,man,,TRUE,1,,,,,
null,CORRECT,,html-keyboard-response,278,1070850,0.0-16.1-14.1-0.1,75900,List1B,black,man,,,,null,,,,
1703,"<img src=""portrait/BW2.jpg""style=""height:400px;""></img>",2,html-button-response,279,1072555,0.0-16.1-16.1,75900,List1B,black,man,,TRUE,2,,,,,
null,CORRECT,,html-keyboard-response,280,1074059,0.0-16.1-17.1-0.1,75900,List1B,black,man,,,,null,,,,
1469,"<img src=""portrait/WM2.jpg""style=""height:400px;""></img>",7,html-button-response,281,1075530,0.0-16.1-19.1,75900,List1B,black,man,,TRUE,7,,,,,
null,CORRECT,,html-keyboard-response,282,1077032,0.0-16.1-20.1-0.1,75900,List1B,black,man,,,,null,,,,
1336,"<img src=""portrait/BM2.jpg""style=""height:400px;""></img>",5,html-button-response,283,1078371,0.0-16.1-22.1,75900,List1B,black,man,,TRUE,5,,,,,
null,CORRECT,,html-keyboard-response,284,1079876,0.0-16.1-23.1-0.1,75900,List1B,black,man,,,,null,,,,
1051,<p>You got 8 out of 8 right first time. Press Continue.</p>,0,html-button-response,285,1080930,0.0-16.1-25.1,75900,List1B,black,man,,,,,,,,
null,"<div style=""font-size:60px;"">+</div>",,html-keyboard-response,286,1082433,0.0-17.0-0.0,75900,List1B,black,man,,,,null,,,,
null,"<img src=""stim_listB/argue1.gif""style=""height:400px;""></stim_listB>",,html-keyboard-response,287,1084435,0.0-17.0-1.0,75900,List1B,black,man,,,,null,,,,
null,is arguing with,,html-keyboard-response,288,1086436,0.0-17.0-2.0,75900,List1B,black,man,,,,null,,,,
17061,,,survey-text,289,1103498,0.0-17.0-3.0,75900,List1B,black,man,,,,,"{""Q0"":""mike and beth are talking to each other""}","<img src=""stim_listB/argue1.gif""style=""height:400px;""></stim_listB>",is arguing with,
null,"<div style=""font-size:60px;"">+</div>",,html-keyboard-response,290,1104000,0.0-17.0-0.1,75900,List1B,black,man,,,,null,,,,
null,"<img src=""stim_listB/marry6.gif""style=""height:400px;""></stim_listB>",,html-keyboard-response,291,1106001,0.0-17.0-1.1,75900,List1B,black,man,,,,null,,,,
null,are marrying each other,,html-keyboard-response,292,1108004,0.0-17.0-2.1,75900,List1B,black,man,,,,null,,,,
7741,,,survey-text,293,1115746,0.0-17.0-3.1,75900,List1B,black,man,,,,,"{""Q0"":""fred and dave are marrying each other""}","<img src=""stim_listB/marry6.gif""style=""height:400px;""></stim_listB>",are marrying each other,
null,"<div style=""font-size:60px;"">+</div>",,html-keyboard-response,294,1116247,0.0-17.0-0.2,75900,List1B,black,man,,,,null,,,,
null,"<img src=""stim_listB/marry8.gif""style=""height:400px;""></stim_listB>",,html-keyboard-response,295,1118249,0.0-17.0-1.2,75900,List1B,black,man,,,,null,,,,
null,are marrying each other,,html-keyboard-response,296,1120254,0.0-17.0-2.2,75900,List1B,black,man,,,,null,,,,
9747,,,survey-text,297,1130002,0.0-17.0-3.2,75900,List1B,black,man,,,,,"{""Q0"":""jane and beth are marrying each other""}","<img src=""stim_listB/marry8.gif""style=""height:400px;""></stim_listB>",are marrying each other,
null,"<div style=""font-size:60px;"">+</div>",,html-keyboard-response,298,1130505,0.0-17.0-0.3,75900,List1B,black,man,,,,null,,,,
null,"<img src=""stim_listB/talk7.gif""style=""height:400px;""></stim_listB>",,html-keyboard-response,299,1132507,0.0-17.0-1.3,75900,List1B,black,man,,,,null,,,,
null,is talking to,,html-keyboard-response,300,1134508,0.0-17.0-2.3,75900,List1B,black,man,,,,null,,,,
7877,,,survey-text,301,1142386,0.0-17.0-3.3,75900,List1B,black,man,,,,,"{""Q0"":""beth is talking to jane""}","<img src=""stim_listB/talk7.gif""style=""height:400px;""></stim_listB>",is talking to,
null,"<div style=""font-size:60px;"">+</div>",,html-keyboard-response,302,1142889,0.0-17.0-0.4,75900,List1B,black,man,,,,null,,,,
null,"<img src=""stim_listB/dance1.gif""style=""height:400px;""></stim_listB>",,html-keyboard-response,303,1144891,0.0-17.0-1.4,75900,List1B,black,man,,,,null,,,,
null,is dancing with,,html-keyboard-response,304,1146894,0.0-17.0-2.4,75900,List1B,black,man,,,,null,,,,
8154,,,survey-text,305,1155049,0.0-17.0-3.4,75900,List1B,black,man,,,,,"{""Q0"":""""}","<img src=""stim_listB/dance1.gif""style=""height:400px;""></stim_listB>",is dancing with,
null,"<div style=""font-size:60px;"">+</div>",,html-keyboard-response,306,1155553,0.0-17.0-0.5,75900,List1B,black,man,,,,null,,,,
null,"<img src=""stim_listB/argue7.gif""style=""height:400px;""></stim_listB>",,html-keyboard-response,307,1157556,0.0-17.0-1.5,75900,List1B,black,man,,,,null,,,,
null,is arguing with,,html-keyboard-response,308,1159559,0.0-17.0-2.5,75900,List1B,black,man,,,,null,,,,
19242,,,survey-text,309,1178802,0.0-17.0-3.5,75900,List1B,black,man,,,,,"{""Q0"":""kate is arguing with ruth""}","<img src=""stim_listB/argue7.gif""style=""height:400px;""></stim_listB>",is arguing with,
null,"<div style=""font-size:60px;"">+</div>",,html-keyboard-response,310,1179303,0.0-17.0-0.6,75900,List1B,black,man,,,,null,,,,
null,"<img src=""stim_listB/flirt6.gif""style=""height:400px;""></stim_listB>",,html-keyboard-response,311,1181305,0.0-17.0-1.6,75900,List1B,black,man,,,,null,,,,
null,are flirting with each other,,html-keyboard-response,312,1183307,0.0-17.0-2.6,75900,List1B,black,man,,,,null,,,,
10357,,,survey-text,313,1193665,0.0-17.0-3.6,75900,List1B,black,man,,,,,"{""Q0"":""luke and mike are flirting with each other""}","<img src=""stim_listB/flirt6.gif""style=""height:400px;""></stim_listB>",are flirting with each other,
null,"<div style=""font-size:60px;"">+</div>",,html-keyboard-response,314,1194166,0.0-17.0-0.7,75900,List1B,black,man,,,,null,,,,
null,"<img src=""stim_listB/fight1.gif""style=""height:400px;""></stim_listB>",,html-keyboard-response,315,1196169,0.0-17.0-1.7,75900,List1B,black,man,,,,null,,,,
null,is fighting,,html-keyboard-response,316,1198171,0.0-17.0-2.7,75900,List1B,black,man,,,,null,,,,
5276,,,survey-text,317,1203448,0.0-17.0-3.7,75900,List1B,black,man,,,,,"{""Q0"":""kate is fighting mike""}","<img src=""stim_listB/fight1.gif""style=""height:400px;""></stim_listB>",is fighting,
null,"<div style=""font-size:60px;"">+</div>",,html-keyboard-response,318,1203950,0.0-17.0-0.8,75900,List1B,black,man,,,,null,,,,
null,"<img src=""stim_listB/dance7.gif""style=""height:400px;""></stim_listB>",,html-keyboard-response,319,1205954,0.0-17.0-1.8,75900,List1B,black,man,,,,null,,,,
null,is dancing with,,html-keyboard-response,320,1207956,0.0-17.0-2.8,75900,List1B,black,man,,,,null,,,,
5979,,,survey-text,321,1213937,0.0-17.0-3.8,75900,List1B,black,man,,,,,"{""Q0"":""beth is dancing with jane""}","<img src=""stim_listB/dance7.gif""style=""height:400px;""></stim_listB>",is dancing with,
null,"<div style=""font-size:60px;"">+</div>",,html-keyboard-response,322,1214439,0.0-17.0-0.9,75900,List1B,black,man,,,,null,,,,
null,"<img src=""stim_listB/marry2.gif""style=""height:400px;""></stim_listB>",,html-keyboard-response,323,1216442,0.0-17.0-1.9,75900,List1B,black,man,,,,null,,,,
null,are marrying each other,,html-keyboard-response,324,1218443,0.0-17.0-2.9,75900,List1B,black,man,,,,null,,,,
13341,,,survey-text,325,1231785,0.0-17.0-3.9,75900,List1B,black,man,,,,,"{""Q0"":""fred and kate are marrying each other""}","<img src=""stim_listB/marry2.gif""style=""height:400px;""></stim_listB>",are marrying each other,
null,"<div style=""font-size:60px;"">+</div>",,html-keyboard-response,326,1232287,0.0-17.0-0.10,75900,List1B,black,man,,,,null,,,,
null,"<img src=""stim_listB/play4.gif""style=""height:400px;""></stim_listB>",,html-keyboard-response,327,1234289,0.0-17.0-1.10,75900,List1B,black,man,,,,null,,,,
null,are playing with each other,,html-keyboard-response,328,1236290,0.0-17.0-2.10,75900,List1B,black,man,,,,null,,,,
9710,,,survey-text,329,1246001,0.0-17.0-3.10,75900,List1B,black,man,,,,,"{""Q0"":""luke and ruth are playing with each other""}","<img src=""stim_listB/play4.gif""style=""height:400px;""></stim_listB>",are playing with each other,
null,"<div style=""font-size:60px;"">+</div>",,html-keyboard-response,330,1246505,0.0-17.0-0.11,75900,List1B,black,man,,,,null,,,,
null,"<img src=""stim_listB/argue2.gif""style=""height:400px;""></stim_listB>",,html-keyboard-response,331,1248507,0.0-17.0-1.11,75900,List1B,black,man,,,,null,,,,
null,are arguing with each other,,html-keyboard-response,332,1250508,0.0-17.0-2.11,75900,List1B,black,man,,,,null,,,,
10179,,,survey-text,333,1260689,0.0-17.0-3.11,75900,List1B,black,man,,,,,"{""Q0"":""fred and kate are arguing with each other""}","<img src=""stim_listB/argue2.gif""style=""height:400px;""></stim_listB>",are arguing with each other,
null,"<div style=""font-size:60px;"">+</div>",,html-keyboard-response,334,1261190,0.0-17.0-0.12,75900,List1B,black,man,,,,null,,,,
null,"<img src=""stim_listB/touch7.gif""style=""height:400px;""></stim_listB>",,html-keyboard-response,335,1263194,0.0-17.0-1.12,75900,List1B,black,man,,,,null,,,,
null,is touching,,html-keyboard-response,336,1265196,0.0-17.0-2.12,75900,List1B,black,man,,,,null,,,,
7691,,,survey-text,337,1272889,0.0-17.0-3.12,75900,List1B,black,man,,,,,"{""Q0"":""jane is touching kate""}","<img src=""stim_listB/touch7.gif""style=""height:400px;""></stim_listB>",is touching,
null,"<div style=""font-size:60px;"">+</div>",,html-keyboard-response,338,1273392,0.0-17.0-0.13,75900,List1B,black,man,,,,null,,,,
null,"<img src=""stim_listB/play1.gif""style=""height:400px;""></stim_listB>",,html-keyboard-response,339,1275393,0.0-17.0-1.13,75900,List1B,black,man,,,,null,,,,
null,is playing with,,html-keyboard-response,340,1277396,0.0-17.0-2.13,75900,List1B,black,man,,,,null,,,,
7867,,,survey-text,341,1285264,0.0-17.0-3.13,75900,List1B,black,man,,,,,"{""Q0"":""jane is playing with mike""}","<img src=""stim_listB/play1.gif""style=""height:400px;""></stim_listB>",is playing with,
null,"<div style=""font-size:60px;"">+</div>",,html-keyboard-response,342,1285767,0.0-17.0-0.14,75900,List1B,black,man,,,,null,,,,
null,"<img src=""stim_listB/kiss6.gif""style=""height:400px;""></stim_listB>",,html-keyboard-response,343,1287769,0.0-17.0-1.14,75900,List1B,black,man,,,,null,,,,
null,are kissing each other,,html-keyboard-response,344,1289772,0.0-17.0-2.14,75900,List1B,black,man,,,,null,,,,
6580,,,survey-text,345,1296352,0.0-17.0-3.14,75900,List1B,black,man,,,,,"{""Q0"":""mike and dave are kissing each other""}","<img src=""stim_listB/kiss6.gif""style=""height:400px;""></stim_listB>",are kissing each other,
null,"<div style=""font-size:60px;"">+</div>",,html-keyboard-response,346,1296854,0.0-17.0-0.15,75900,List1B,black,man,,,,null,,,,
null,"<img src=""stim_listB/flirt2.gif""style=""height:400px;""></stim_listB>",,html-keyboard-response,347,1298857,0.0-17.0-1.15,75900,List1B,black,man,,,,null,,,,
null,are flirting with each other,,html-keyboard-response,348,1300858,0.0-17.0-2.15,75900,List1B,black,man,,,,null,,,,
8085,,,survey-text,349,1308944,0.0-17.0-3.15,75900,List1B,black,man,,,,,"{""Q0"":""beth and mike are flirting with each other""}","<img src=""stim_listB/flirt2.gif""style=""height:400px;""></stim_listB>",are flirting with each other,
null,"<div style=""font-size:60px;"">+</div>",,html-keyboard-response,350,1309446,0.0-17.0-0.16,75900,List1B,black,man,,,,null,,,,
null,"<img src=""stim_listB/flirt8.gif""style=""height:400px;""></stim_listB>",,html-keyboard-response,351,1311450,0.0-17.0-1.16,75900,List1B,black,man,,,,null,,,,
null,are flirting with each other,,html-keyboard-response,352,1313453,0.0-17.0-2.16,75900,List1B,black,man,,,,null,,,,
11746,,,survey-text,353,1325200,0.0-17.0-3.16,75900,List1B,black,man,,,,,"{""Q0"":""ruth and kate are flirting with each other""}","<img src=""stim_listB/flirt8.gif""style=""height:400px;""></stim_listB>",are flirting with each other,
null,"<div style=""font-size:60px;"">+</div>",,html-keyboard-response,354,1325702,0.0-17.0-0.17,75900,List1B,black,man,,,,null,,,,
null,"<img src=""stim_listB/dance3.gif""style=""height:400px;""></stim_listB>",,html-keyboard-response,355,1327705,0.0-17.0-1.17,75900,List1B,black,man,,,,null,,,,
null,is dancing with,,html-keyboard-response,356,1329707,0.0-17.0-2.17,75900,List1B,black,man,,,,null,,,,
5203,,,survey-text,357,1334912,0.0-17.0-3.17,75900,List1B,black,man,,,,,"{""Q0"":""jane is dancing with luke""}","<img src=""stim_listB/dance3.gif""style=""height:400px;""></stim_listB>",is dancing with,
null,"<div style=""font-size:60px;"">+</div>",,html-keyboard-response,358,1335413,0.0-17.0-0.18,75900,List1B,black,man,,,,null,,,,
null,"<img src=""stim_listB/kiss5.gif""style=""height:400px;""></stim_listB>",,html-keyboard-response,359,1337418,0.0-17.0-1.18,75900,List1B,black,man,,,,null,,,,
null,is kissing,,html-keyboard-response,360,1339419,0.0-17.0-2.18,75900,List1B,black,man,,,,null,,,,
6604,,,survey-text,361,1346024,0.0-17.0-3.18,75900,List1B,black,man,,,,,"{""Q0"":""fred is kissing luke""}","<img src=""stim_listB/kiss5.gif""style=""height:400px;""></stim_listB>",is kissing,
null,"<div style=""font-size:60px;"">+</div>",,html-keyboard-response,362,1346525,0.0-17.0-0.19,75900,List1B,black,man,,,,null,,,,
null,"<img src=""stim_listB/argue5.gif""style=""height:400px;""></stim_listB>",,html-keyboard-response,363,1348528,0.0-17.0-1.19,75900,List1B,black,man,,,,null,,,,
null,is arguing with,,html-keyboard-response,364,1350530,0.0-17.0-2.19,75900,List1B,black,man,,,,null,,,,
6885,,,survey-text,365,1357416,0.0-17.0-3.19,75900,List1B,black,man,,,,,"{""Q0"":""luke is arguing with mike""}","<img src=""stim_listB/argue5.gif""style=""height:400px;""></stim_listB>",is arguing with,
1774,"<img src='img/portrait_matrix_list1.jpg' style='width:900px;height:500px;''></img><p>If you have memorised all the portraits and names and are ready to start, press Continue.</p><p><strong>Please note: Your memory of these faces will be tested 4 times during this experiment.</strong></p>",0,html-button-response,366,1359192,0.0-18.0-0.0,75900,List1B,black,man,,,,,,,,
1413,"<img src=""portrait/WW1.jpg""style=""height:400px;""></img>",1,html-button-response,367,1361608,0.0-18.0-1.0,75900,List1B,black,man,,TRUE,1,,,,,
null,CORRECT,,html-keyboard-response,368,1363111,0.0-18.0-2.0-0.0,75900,List1B,black,man,,,,null,,,,
1359,"<img src=""portrait/WW2.jpg""style=""height:400px;""></img>",3,html-button-response,369,1364472,0.0-18.0-4.0,75900,List1B,black,man,,TRUE,3,,,,,
null,CORRECT,,html-keyboard-response,370,1365975,0.0-18.0-5.0-0.0,75900,List1B,black,man,,,,null,,,,
1520,"<img src=""portrait/WM2.jpg""style=""height:400px;""></img>",7,html-button-response,371,1367497,0.0-18.0-7.0,75900,List1B,black,man,,TRUE,7,,,,,
null,CORRECT,,html-keyboard-response,372,1369000,0.0-18.0-8.0-0.0,75900,List1B,black,man,,,,null,,,,
1037,"<img src=""portrait/BM1.jpg""style=""height:400px;""></img>",4,html-button-response,373,1370040,0.0-18.0-10.0,75900,List1B,black,man,,TRUE,4,,,,,
null,CORRECT,,html-keyboard-response,374,1371543,0.0-18.0-11.0-0.0,75900,List1B,black,man,,,,null,,,,
1415,"<img src=""portrait/BW1.jpg""style=""height:400px;""></img>",0,html-button-response,375,1372960,0.0-18.0-13.0,75900,List1B,black,man,,TRUE,0,,,,,
null,CORRECT,,html-keyboard-response,376,1374462,0.0-18.0-14.0-0.0,75900,List1B,black,man,,,,null,,,,
1238,"<img src=""portrait/BW2.jpg""style=""height:400px;""></img>",2,html-button-response,377,1375704,0.0-18.0-16.0,75900,List1B,black,man,,TRUE,2,,,,,
null,CORRECT,,html-keyboard-response,378,1377207,0.0-18.0-17.0-0.0,75900,List1B,black,man,,,,null,,,,
1494,"<img src=""portrait/WM1.jpg""style=""height:400px;""></img>",6,html-button-response,379,1378704,0.0-18.0-19.0,75900,List1B,black,man,,TRUE,6,,,,,
null,CORRECT,,html-keyboard-response,380,1380207,0.0-18.0-20.0-0.0,75900,List1B,black,man,,,,null,,,,
998,"<img src=""portrait/BM2.jpg""style=""height:400px;""></img>",5,html-button-response,381,1381208,0.0-18.0-22.0,75900,List1B,black,man,,TRUE,5,,,,,
null,CORRECT,,html-keyboard-response,382,1382711,0.0-18.0-23.0-0.0,75900,List1B,black,man,,,,null,,,,
831,<p>You got 8 out of 8 right first time. Press Continue.</p>,0,html-button-response,383,1383544,0.0-18.0-25.0,75900,List1B,black,man,,,,,,,,
null,"<div style=""font-size:60px;"">+</div>",,html-keyboard-response,384,1385049,0.0-19.0-0.0,75900,List1B,black,man,,,,null,,,,
null,"<img src=""stim_listB/flirt5.gif""style=""height:400px;""></stim_listB>",,html-keyboard-response,385,1387053,0.0-19.0-1.0,75900,List1B,black,man,,,,null,,,,
null,is flirting with,,html-keyboard-response,386,1389056,0.0-19.0-2.0,75900,List1B,black,man,,,,null,,,,
17510,,,survey-text,387,1406568,0.0-19.0-3.0,75900,List1B,black,man,,,,,"{""Q0"":""fred is flirting with dave""}","<img src=""stim_listB/flirt5.gif""style=""height:400px;""></stim_listB>",is flirting with,
null,"<div style=""font-size:60px;"">+</div>",,html-keyboard-response,388,1407070,0.0-19.0-0.1,75900,List1B,black,man,,,,null,,,,
null,"<img src=""stim_listB/touch8.gif""style=""height:400px;""></stim_listB>",,html-keyboard-response,389,1409073,0.0-19.0-1.1,75900,List1B,black,man,,,,null,,,,
null,are touching each other,,html-keyboard-response,390,1411074,0.0-19.0-2.1,75900,List1B,black,man,,,,null,,,,
11533,,,survey-text,391,1422607,0.0-19.0-3.1,75900,List1B,black,man,,,,,"{""Q0"":""""}","<img src=""stim_listB/touch8.gif""style=""height:400px;""></stim_listB>",are touching each other,
null,"<div style=""font-size:60px;"">+</div>",,html-keyboard-response,392,1423109,0.0-19.0-0.2,75900,List1B,black,man,,,,null,,,,
null,"<img src=""stim_listB/touch3.gif""style=""height:400px;""></stim_listB>",,html-keyboard-response,393,1425111,0.0-19.0-1.2,75900,List1B,black,man,,,,null,,,,
null,is touching,,html-keyboard-response,394,1427114,0.0-19.0-2.2,75900,List1B,black,man,,,,null,,,,
7757,,,survey-text,395,1434871,0.0-19.0-3.2,75900,List1B,black,man,,,,,"{""Q0"":""jane is touching dave""}","<img src=""stim_listB/touch3.gif""style=""height:400px;""></stim_listB>",is touching,
null,"<div style=""font-size:60px;"">+</div>",,html-keyboard-response,396,1435374,0.0-19.0-0.3,75900,List1B,black,man,,,,null,,,,
null,"<img src=""stim_listB/fight2.gif""style=""height:400px;""></stim_listB>",,html-keyboard-response,397,1437378,0.0-19.0-1.3,75900,List1B,black,man,,,,null,,,,
null,are fighting each other,,html-keyboard-response,398,1439382,0.0-19.0-2.3,75900,List1B,black,man,,,,null,,,,
13416,,,survey-text,399,1452799,0.0-19.0-3.3,75900,List1B,black,man,,,,,"{""Q0"":""beth and fred are fighting with each other""}","<img src=""stim_listB/fight2.gif""style=""height:400px;""></stim_listB>",are fighting each other,
null,"<div style=""font-size:60px;"">+</div>",,html-keyboard-response,400,1453301,0.0-19.0-0.4,75900,List1B,black,man,,,,null,,,,
null,"<img src=""stim_listB/argue4.gif""style=""height:400px;""></stim_listB>",,html-keyboard-response,401,1455303,0.0-19.0-1.4,75900,List1B,black,man,,,,null,,,,
null,are arguing with each other,,html-keyboard-response,402,1457304,0.0-19.0-2.4,75900,List1B,black,man,,,,null,,,,
8525,,,survey-text,403,1465831,0.0-19.0-3.4,75900,List1B,black,man,,,,,"{""Q0"":""jane and luke are arguing with each other""}","<img src=""stim_listB/argue4.gif""style=""height:400px;""></stim_listB>",are arguing with each other,
null,"<div style=""font-size:60px;"">+</div>",,html-keyboard-response,404,1466334,0.0-19.0-0.5,75900,List1B,black,man,,,,null,,,,
null,"<img src=""stim_listB/shout2.gif""style=""height:400px;""></stim_listB>",,html-keyboard-response,405,1468337,0.0-19.0-1.5,75900,List1B,black,man,,,,null,,,,
null,are shouting at each other,,html-keyboard-response,406,1470339,0.0-19.0-2.5,75900,List1B,black,man,,,,null,,,,
8490,,,survey-text,407,1478831,0.0-19.0-3.5,75900,List1B,black,man,,,,,"{""Q0"":""kate and mike are shouting at each other""}","<img src=""stim_listB/shout2.gif""style=""height:400px;""></stim_listB>",are shouting at each other,
null,"<div style=""font-size:60px;"">+</div>",,html-keyboard-response,408,1479332,0.0-19.0-0.6,75900,List1B,black,man,,,,null,,,,
null,"<img src=""stim_listB/marry1.gif""style=""height:400px;""></stim_listB>",,html-keyboard-response,409,1481335,0.0-19.0-1.6,75900,List1B,black,man,,,,null,,,,
null,is marrying,,html-keyboard-response,410,1483337,0.0-19.0-2.6,75900,List1B,black,man,,,,null,,,,
7348,,,survey-text,411,1490687,0.0-19.0-3.6,75900,List1B,black,man,,,,,"{""Q0"":""mike is marrying beth""}","<img src=""stim_listB/marry1.gif""style=""height:400px;""></stim_listB>",is marrying,
null,"<div style=""font-size:60px;"">+</div>",,html-keyboard-response,412,1491188,0.0-19.0-0.7,75900,List1B,black,man,,,,null,,,,
null,"<img src=""stim_listB/touch5.gif""style=""height:400px;""></stim_listB>",,html-keyboard-response,413,1493191,0.0-19.0-1.7,75900,List1B,black,man,,,,null,,,,
null,is touching,,html-keyboard-response,414,1495192,0.0-19.0-2.7,75900,List1B,black,man,,,,null,,,,
7413,,,survey-text,415,1502606,0.0-19.0-3.7,75900,List1B,black,man,,,,,"{""Q0"":""dave is touching mike""}","<img src=""stim_listB/touch5.gif""style=""height:400px;""></stim_listB>",is touching,
null,"<div style=""font-size:60px;"">+</div>",,html-keyboard-response,416,1503108,0.0-19.0-0.8,75900,List1B,black,man,,,,null,,,,
null,"<img src=""stim_listB/touch6.gif""style=""height:400px;""></stim_listB>",,html-keyboard-response,417,1505112,0.0-19.0-1.8,75900,List1B,black,man,,,,null,,,,
null,are touching each other,,html-keyboard-response,418,1507114,0.0-19.0-2.8,75900,List1B,black,man,,,,null,,,,
7268,,,survey-text,419,1514382,0.0-19.0-3.8,75900,List1B,black,man,,,,,"{""Q0"":""luke and fred are touching each other""}","<img src=""stim_listB/touch6.gif""style=""height:400px;""></stim_listB>",are touching each other,
null,"<div style=""font-size:60px;"">+</div>",,html-keyboard-response,420,1514884,0.0-19.0-0.9,75900,List1B,black,man,,,,null,,,,
null,"<img src=""stim_listB/talk4.gif""style=""height:400px;""></stim_listB>",,html-keyboard-response,421,1516887,0.0-19.0-1.9,75900,List1B,black,man,,,,null,,,,
null,are talking to each other,,html-keyboard-response,422,1518890,0.0-19.0-2.9,75900,List1B,black,man,,,,null,,,,
9883,,,survey-text,423,1528774,0.0-19.0-3.9,75900,List1B,black,man,,,,,"{""Q0"":""ruth and dave are talking to each other""}","<img src=""stim_listB/talk4.gif""style=""height:400px;""></stim_listB>",are talking to each other,
null,"<div style=""font-size:60px;"">+</div>",,html-keyboard-response,424,1529277,0.0-19.0-0.10,75900,List1B,black,man,,,,null,,,,
null,"<img src=""stim_listB/shout3.gif""style=""height:400px;""></stim_listB>",,html-keyboard-response,425,1531279,0.0-19.0-1.10,75900,List1B,black,man,,,,null,,,,
null,is shouting at,,html-keyboard-response,426,1533282,0.0-19.0-2.10,75900,List1B,black,man,,,,null,,,,
5898,,,survey-text,427,1539182,0.0-19.0-3.10,75900,List1B,black,man,,,,,"{""Q0"":""ruth is shouting at luke""}","<img src=""stim_listB/shout3.gif""style=""height:400px;""></stim_listB>",is shouting at,
null,"<div style=""font-size:60px;"">+</div>",,html-keyboard-response,428,1539684,0.0-19.0-0.11,75900,List1B,black,man,,,,null,,,,
null,"<img src=""stim_listB/shout6.gif""style=""height:400px;""></stim_listB>",,html-keyboard-response,429,1541685,0.0-19.0-1.11,75900,List1B,black,man,,,,null,,,,
null,are shouting at each other,,html-keyboard-response,430,1543688,0.0-19.0-2.11,75900,List1B,black,man,,,,null,,,,
516,,,survey-text,431,1544206,0.0-19.0-3.11,75900,List1B,black,man,,,,,"{""Q0"":""""}","<img src=""stim_listB/shout6.gif""style=""height:400px;""></stim_listB>",are shouting at each other,
null,"<div style=""font-size:60px;"">+</div>",,html-keyboard-response,432,1544709,0.0-19.0-0.12,75900,List1B,black,man,,,,null,,,,
null,"<img src=""stim_listB/touch2.gif""style=""height:400px;""></stim_listB>",,html-keyboard-response,433,1546713,0.0-19.0-1.12,75900,List1B,black,man,,,,null,,,,
null,are touching each other,,html-keyboard-response,434,1548715,0.0-19.0-2.12,75900,List1B,black,man,,,,null,,,,
8833,,,survey-text,435,1557550,0.0-19.0-3.12,75900,List1B,black,man,,,,,"{""Q0"":""beth and fred are touching each other""}","<img src=""stim_listB/touch2.gif""style=""height:400px;""></stim_listB>",are touching each other,
null,"<div style=""font-size:60px;"">+</div>",,html-keyboard-response,436,1558051,0.0-19.0-0.13,75900,List1B,black,man,,,,null,,,,
null,"<img src=""stim_listB/flirt7.gif""style=""height:400px;""></stim_listB>",,html-keyboard-response,437,1560053,0.0-19.0-1.13,75900,List1B,black,man,,,,null,,,,
null,is flirting with,,html-keyboard-response,438,1562054,0.0-19.0-2.13,75900,List1B,black,man,,,,null,,,,
9806,,,survey-text,439,1571861,0.0-19.0-3.13,75900,List1B,black,man,,,,,"{""Q0"":""jane and beth are flirting with each other""}","<img src=""stim_listB/flirt7.gif""style=""height:400px;""></stim_listB>",is flirting with,
null,"<div style=""font-size:60px;"">+</div>",,html-keyboard-response,440,1572363,0.0-19.0-0.14,75900,List1B,black,man,,,,null,,,,
null,"<img src=""stim_listB/fight3.gif""style=""height:400px;""></stim_listB>",,html-keyboard-response,441,1574365,0.0-19.0-1.14,75900,List1B,black,man,,,,null,,,,
null,is fighting,,html-keyboard-response,442,1576367,0.0-19.0-2.14,75900,List1B,black,man,,,,null,,,,
4701,,,survey-text,443,1581070,0.0-19.0-3.14,75900,List1B,black,man,,,,,"{""Q0"":""jane is fighting dave""}","<img src=""stim_listB/fight3.gif""style=""height:400px;""></stim_listB>",is fighting,
null,"<div style=""font-size:60px;"">+</div>",,html-keyboard-response,444,1581572,0.0-19.0-0.15,75900,List1B,black,man,,,,null,,,,
null,"<img src=""stim_listB/kiss8.gif""style=""height:400px;""></stim_listB>",,html-keyboard-response,445,1583576,0.0-19.0-1.15,75900,List1B,black,man,,,,null,,,,
null,are kissing each other,,html-keyboard-response,446,1585579,0.0-19.0-2.15,75900,List1B,black,man,,,,null,,,,
8841,,,survey-text,447,1594422,0.0-19.0-3.15,75900,List1B,black,man,,,,,"{""Q0"":""jane and kate are kissing each other""}","<img src=""stim_listB/kiss8.gif""style=""height:400px;""></stim_listB>",are kissing each other,
null,"<div style=""font-size:60px;"">+</div>",,html-keyboard-response,448,1594923,0.0-19.0-0.16,75900,List1B,black,man,,,,null,,,,
null,"<img src=""stim_listB/shout8.gif""style=""height:400px;""></stim_listB>",,html-keyboard-response,449,1596927,0.0-19.0-1.16,75900,List1B,black,man,,,,null,,,,
null,are shouting at each other,,html-keyboard-response,450,1598929,0.0-19.0-2.16,75900,List1B,black,man,,,,null,,,,
9571,,,survey-text,451,1608501,0.0-19.0-3.16,75900,List1B,black,man,,,,,"{""Q0"":""jane and kate are shouting at each other""}","<img src=""stim_listB/shout8.gif""style=""height:400px;""></stim_listB>",are shouting at each other,
null,"<div style=""font-size:60px;"">+</div>",,html-keyboard-response,452,1609003,0.0-19.0-0.17,75900,List1B,black,man,,,,null,,,,
null,"<img src=""stim_listB/kiss4.gif""style=""height:400px;""></stim_listB>",,html-keyboard-response,453,1611005,0.0-19.0-1.17,75900,List1B,black,man,,,,null,,,,
null,are kissing each other,,html-keyboard-response,454,1613006,0.0-19.0-2.17,75900,List1B,black,man,,,,null,,,,
8637,,,survey-text,455,1621646,0.0-19.0-3.17,75900,List1B,black,man,,,,,"{""Q0"":""jane and dave are kissing each other""}","<img src=""stim_listB/kiss4.gif""style=""height:400px;""></stim_listB>",are kissing each other,
null,"<div style=""font-size:60px;"">+</div>",,html-keyboard-response,456,1622148,0.0-19.0-0.18,75900,List1B,black,man,,,,null,,,,
null,"<img src=""stim_listB/kiss2.gif""style=""height:400px;""></stim_listB>",,html-keyboard-response,457,1624151,0.0-19.0-1.18,75900,List1B,black,man,,,,null,,,,
null,are kissing each other,,html-keyboard-response,458,1626154,0.0-19.0-2.18,75900,List1B,black,man,,,,null,,,,
10538,,,survey-text,459,1636693,0.0-19.0-3.18,75900,List1B,black,man,,,,,"{""Q0"":""mike and kate are kissing each other""}","<img src=""stim_listB/kiss2.gif""style=""height:400px;""></stim_listB>",are kissing each other,
null,"<div style=""font-size:60px;"">+</div>",,html-keyboard-response,460,1637196,0.0-19.0-0.19,75900,List1B,black,man,,,,null,,,,
null,"<img src=""stim_listB/play5.gif""style=""height:400px;""></stim_listB>",,html-keyboard-response,461,1639198,0.0-19.0-1.19,75900,List1B,black,man,,,,null,,,,
null,is playing with,,html-keyboard-response,462,1641201,0.0-19.0-2.19,75900,List1B,black,man,,,,null,,,,
11892,,,survey-text,463,1653093,0.0-19.0-3.19,75900,List1B,black,man,,,,,"{""Q0"":""mike is playing with dave""}","<img src=""stim_listB/play5.gif""style=""height:400px;""></stim_listB>",is playing with,
2375,<p>Thank you for completing that task.</p><p>The final part of this session is a short questionnaire.</p><p>Press Continue.</p>,0,html-button-response,464,1655469,0.0-20.0,75900,List1B,black,man,,,,,,,,
18707,,,survey-text,465,1675181,0.0-21.0,75900,List1B,black,man,,,,,"{""Q0"":""20"",""Q1"":""english"",""Q2"":""english"",""Q3"":""england"",""Q4"":""black"",""Q5"":""male""}",,,demographics
7950,,,survey-likert,466,1683134,0.0-22.0,75900,List1B,black,man,,,,,"{""Q0"":4}",,,likert_ESS
5335,,,survey-likert,467,1688470,0.0-23.0,75900,List1B,black,man,,,,,"{""Q0"":4}",,,likert_NSSAL_Q1
4412,,,survey-likert,468,1692885,0.0-24.0,75900,List1B,black,man,,,,,"{""Q0"":4}",,,likert_NSSAL_Q2
2887,,,survey-likert,469,1695774,0.0-25.0,75900,List1B,black,man,,,,,"{""Q0"":4}",,,likert_CGRS_Q1
2398,,,survey-likert,470,1698174,0.0-26.0,75900,List1B,black,man,,,,,"{""Q0"":4}",,,likert_CGRS_Q2
1877,,,survey-likert,471,1700053,0.0-27.0,75900,List1B,black,man,,,,,"{""Q0"":4}",,,likert_CGRS_Q3
6406,,,survey-text,472,1706460,0.0-28.0,75900,List1B,black,man,,,,,"{""Q0"":""ccc""}",,,worker_id
2890,,,external-html,473,1709421,0.0-29.0,75900,List1B,black,man,debrief.html,,,,,,,
