rt,stimulus,button_pressed,trial_type,trial_index,time_elapsed,internal_node_id,subject,list,ppt_race,ppt_gender,url,first_guess,correct,key_press,responses,image_type,phrase_type,test_part
2714,Welcome to the experiment. Press Continue to begin.,0,html-button-response,0,2725,0.0-0.0,76345,List1A,white,woman,,,,,,,,
73371,,,external-html,1,77169,0.0-1.0,76345,List1A,white,woman,consent.html,,,,,,,
13801,"<p>On the next page, you will see portraits of 8 people and their names.</p><p>Your first task is to take a few minutes to memorise the names of these people.</p><p>You will have to recall their names during the rest of the experiment, so it is</p><p>essential that you try to memorise these people and their names as best as you can.</p><br><p><strong>You will then be tested on your memory of these names and portraits.</strong></p><br><p>The experiment will start after you have completed this memory test.</p><br><p>Ready?</p>",0,html-button-response,2,90976,0.0-2.0,76345,List1A,white,woman,,,,,,,,
141970,"<img src='img/portrait_matrix_list1.jpg' style='width:900px;height:500px;''></img><p>If you have memorised all the portraits and names and are ready to start, press Continue.</p><p><strong>Please note: Your memory of these faces will be tested 4 times during this experiment.</strong></p>",0,html-button-response,3,233954,0.0-3.0-0.0,76345,List1A,white,woman,,,,,,,,
3074,"<img src=""portrait/WM1.jpg""style=""height:400px;""></img>",6,html-button-response,4,238050,0.0-3.0-1.0,76345,List1A,white,woman,,TRUE,6,,,,,
null,CORRECT,,html-keyboard-response,5,239563,0.0-3.0-2.0-0.0,76345,List1A,white,woman,,,,null,,,,
4465,"<img src=""portrait/BW1.jpg""style=""height:400px;""></img>",0,html-button-response,6,244035,0.0-3.0-4.0,76345,List1A,white,woman,,TRUE,0,,,,,
null,CORRECT,,html-keyboard-response,7,245576,0.0-3.0-5.0-0.0,76345,List1A,white,woman,,,,null,,,,
4019,"<img src=""portrait/BM2.jpg""style=""height:400px;""></img>",5,html-button-response,8,249602,0.0-3.0-7.0,76345,List1A,white,woman,,TRUE,5,,,,,
null,CORRECT,,html-keyboard-response,9,251120,0.0-3.0-8.0-0.0,76345,List1A,white,woman,,,,null,,,,
3235,"<img src=""portrait/WW2.jpg""style=""height:400px;""></img>",3,html-button-response,10,254362,0.0-3.0-10.0,76345,List1A,white,woman,,TRUE,3,,,,,
null,CORRECT,,html-keyboard-response,11,255879,0.0-3.0-11.0-0.0,76345,List1A,white,woman,,,,null,,,,
2046,"<img src=""portrait/WM2.jpg""style=""height:400px;""></img>",7,html-button-response,12,257930,0.0-3.0-13.0,76345,List1A,white,woman,,TRUE,7,,,,,
null,CORRECT,,html-keyboard-response,13,259459,0.0-3.0-14.0-0.0,76345,List1A,white,woman,,,,null,,,,
2608,"<img src=""portrait/BW2.jpg""style=""height:400px;""></img>",2,html-button-response,14,262074,0.0-3.0-16.0,76345,List1A,white,woman,,TRUE,2,,,,,
null,CORRECT,,html-keyboard-response,15,263592,0.0-3.0-17.0-0.0,76345,List1A,white,woman,,,,null,,,,
3076,"<img src=""portrait/WW1.jpg""style=""height:400px;""></img>",1,html-button-response,16,266673,0.0-3.0-19.0,76345,List1A,white,woman,,TRUE,1,,,,,
null,CORRECT,,html-keyboard-response,17,268197,0.0-3.0-20.0-0.0,76345,List1A,white,woman,,,,null,,,,
2352,"<img src=""portrait/BM1.jpg""style=""height:400px;""></img>",4,html-button-response,18,270553,0.0-3.0-22.0,76345,List1A,white,woman,,TRUE,4,,,,,
null,CORRECT,,html-keyboard-response,19,272080,0.0-3.0-23.0-0.0,76345,List1A,white,woman,,,,null,,,,
2210,<p>You got 8 out of 8 right first time. Press Continue.</p>,0,html-button-response,20,274297,0.0-3.0-25.0,76345,List1A,white,woman,,,,,,,,
59069,"<p>In this experiment, you will view photographs of the people from the memory game interacting.</p><p>By using the <strong>exact</strong> phrase given <i>after</i> the photograph appears and recalling the correct names of the people in the photographs, form a sentence describing the interaction. You do not need to capitalise names.</p><p>Type your answer in the space provided. Please complete every sentence before moving onto the next trial.</p><p>You will only have a few seconds to memorise each given photograph and phrase before you can respond, so try your best to focus.</p><p>An example is given below. Press 'Continue' when you are ready.</p><img src='img/speaking_example.jpg' style='width:800px;height:460px;''></img>",0,html-button-response,21,334386,0.0-4.0,76345,List1A,white,woman,,,,,,,,
3321,"<p>Before the experiment starts, you will watch two example trials. Press 'Continue'.</p>",0,html-button-response,22,338713,0.0-5.0,76345,List1A,white,woman,,,,,,,,
null,<img src='img/meet_eg.gif' style='height:400px;''></img>,,html-keyboard-response,23,341732,0.0-6.0,76345,List1A,white,woman,,,,null,,,,
null,<p>is meeting</p>,,html-keyboard-response,24,343739,0.0-7.0,76345,List1A,white,woman,,,,null,,,,
2147,<p><b>Answer:</b> kate is meeting beth</p>,0,html-button-response,25,345889,0.0-8.0,76345,List1A,white,woman,,,,,,,,
null,<img src='img/look_eg.gif' style='height:400px;''></img>,,html-keyboard-response,26,348922,0.0-9.0,76345,List1A,white,woman,,,,null,,,,
null,<p>are looking at each other</p>,,html-keyboard-response,27,350937,0.0-10.0,76345,List1A,white,woman,,,,null,,,,
4381,<p><b>Answer:</b> luke and dave are looking at each other</p>,0,html-button-response,28,355322,0.0-11.0,76345,List1A,white,woman,,,,,,,,
15926,"<p>Ready to start the experiment?</p><br><p><strong>Remember to describe the picture using a full sentence,</strong></p><p><strong>that combines the names of the people with the <i>exact</i> phrase given.</strong></p><p><strong>To receive full payment you must do this correctly.</strong></p><p><strong> You do not need to capitalise names or use punctuation.</strong></p><br><p>Press 'Continue' to begin.</p>",0,html-button-response,29,372257,0.0-12.0,76345,List1A,white,woman,,,,,,,,
null,"<div style=""font-size:60px;"">+</div>",,html-keyboard-response,30,373773,0.0-13.0-0.0,76345,List1A,white,woman,,,,null,,,,
null,"<img src=""stim_listA/touch2.gif""style=""height:400px;""></stim_listA>",,html-keyboard-response,31,375802,0.0-13.0-1.0,76345,List1A,white,woman,,,,null,,,,
null,are touching each other,,html-keyboard-response,32,377808,0.0-13.0-2.0,76345,List1A,white,woman,,,,null,,,,
13077,,,survey-text,33,390889,0.0-13.0-3.0,76345,List1A,white,woman,,,,,"{""Q0"":""beth and fred are touching each other""}","<img src=""stim_listA/touch2.gif""style=""height:400px;""></stim_listA>",are touching each other,
null,"<div style=""font-size:60px;"">+</div>",,html-keyboard-response,34,391401,0.0-13.0-0.1,76345,List1A,white,woman,,,,null,,,,
null,"<img src=""stim_listA/shout4.gif""style=""height:400px;""></stim_listA>",,html-keyboard-response,35,393405,0.0-13.0-1.1,76345,List1A,white,woman,,,,null,,,,
null,are shouting at each other,,html-keyboard-response,36,395413,0.0-13.0-2.1,76345,List1A,white,woman,,,,null,,,,
16200,,,survey-text,37,411617,0.0-13.0-3.1,76345,List1A,white,woman,,,,,"{""Q0"":""jane and dave are""}","<img src=""stim_listA/shout4.gif""style=""height:400px;""></stim_listA>",are shouting at each other,
null,"<div style=""font-size:60px;"">+</div>",,html-keyboard-response,38,412128,0.0-13.0-0.2,76345,List1A,white,woman,,,,null,,,,
null,"<img src=""stim_listA/fight6.gif""style=""height:400px;""></stim_listA>",,html-keyboard-response,39,414148,0.0-13.0-1.2,76345,List1A,white,woman,,,,null,,,,
null,are fighting each other,,html-keyboard-response,40,416167,0.0-13.0-2.2,76345,List1A,white,woman,,,,null,,,,
13485,,,survey-text,41,429657,0.0-13.0-3.2,76345,List1A,white,woman,,,,,"{""Q0"":""fred and dave are fighting each other""}","<img src=""stim_listA/fight6.gif""style=""height:400px;""></stim_listA>",are fighting each other,
null,"<div style=""font-size:60px;"">+</div>",,html-keyboard-response,42,430174,0.0-13.0-0.3,76345,List1A,white,woman,,,,null,,,,
null,"<img src=""stim_listA/play6.gif""style=""height:400px;""></stim_listA>",,html-keyboard-response,43,432202,0.0-13.0-1.3,76345,List1A,white,woman,,,,null,,,,
null,are playing with each other,,html-keyboard-response,44,434213,0.0-13.0-2.3,76345,List1A,white,woman,,,,null,,,,
14785,,,survey-text,45,449000,0.0-13.0-3.3,76345,List1A,white,woman,,,,,"{""Q0"":""fred and luke are playing with each other""}","<img src=""stim_listA/play6.gif""style=""height:400px;""></stim_listA>",are playing with each other,
null,"<div style=""font-size:60px;"">+</div>",,html-keyboard-response,46,449504,0.0-13.0-0.4,76345,List1A,white,woman,,,,null,,,,
null,"<img src=""stim_listA/touch3.gif""style=""height:400px;""></stim_listA>",,html-keyboard-response,47,451510,0.0-13.0-1.4,76345,List1A,white,woman,,,,null,,,,
null,is touching,,html-keyboard-response,48,453518,0.0-13.0-2.4,76345,List1A,white,woman,,,,null,,,,
12318,,,survey-text,49,465840,0.0-13.0-3.4,76345,List1A,white,woman,,,,,"{""Q0"":""jane is touching dave""}","<img src=""stim_listA/touch3.gif""style=""height:400px;""></stim_listA>",is touching,
null,"<div style=""font-size:60px;"">+</div>",,html-keyboard-response,50,466359,0.0-13.0-0.5,76345,List1A,white,woman,,,,null,,,,
null,"<img src=""stim_listA/talk5.gif""style=""height:400px;""></stim_listA>",,html-keyboard-response,51,468365,0.0-13.0-1.5,76345,List1A,white,woman,,,,null,,,,
null,is talking to,,html-keyboard-response,52,470368,0.0-13.0-2.5,76345,List1A,white,woman,,,,null,,,,
9213,,,survey-text,53,479585,0.0-13.0-3.5,76345,List1A,white,woman,,,,,"{""Q0"":""fred is talking to dave""}","<img src=""stim_listA/talk5.gif""style=""height:400px;""></stim_listA>",is talking to,
null,"<div style=""font-size:60px;"">+</div>",,html-keyboard-response,54,480095,0.0-13.0-0.6,76345,List1A,white,woman,,,,null,,,,
null,"<img src=""stim_listA/kiss6.gif""style=""height:400px;""></stim_listA>",,html-keyboard-response,55,482115,0.0-13.0-1.6,76345,List1A,white,woman,,,,null,,,,
null,are kissing each other,,html-keyboard-response,56,484120,0.0-13.0-2.6,76345,List1A,white,woman,,,,null,,,,
11325,,,survey-text,57,495448,0.0-13.0-3.6,76345,List1A,white,woman,,,,,"{""Q0"":""mike and dave are kissing each other""}","<img src=""stim_listA/kiss6.gif""style=""height:400px;""></stim_listA>",are kissing each other,
null,"<div style=""font-size:60px;"">+</div>",,html-keyboard-response,58,495951,0.0-13.0-0.7,76345,List1A,white,woman,,,,null,,,,
null,"<img src=""stim_listA/talk8.gif""style=""height:400px;""></stim_listA>",,html-keyboard-response,59,497958,0.0-13.0-1.7,76345,List1A,white,woman,,,,null,,,,
null,are talking to each other,,html-keyboard-response,60,499962,0.0-13.0-2.7,76345,List1A,white,woman,,,,null,,,,
8530,,,survey-text,61,508496,0.0-13.0-3.7,76345,List1A,white,woman,,,,,"{""Q0"":""jane and beth are talking to each other""}","<img src=""stim_listA/talk8.gif""style=""height:400px;""></stim_listA>",are talking to each other,
null,"<div style=""font-size:60px;"">+</div>",,html-keyboard-response,62,509008,0.0-13.0-0.8,76345,List1A,white,woman,,,,null,,,,
null,"<img src=""stim_listA/shout5.gif""style=""height:400px;""></stim_listA>",,html-keyboard-response,63,511017,0.0-13.0-1.8,76345,List1A,white,woman,,,,null,,,,
null,is shouting at,,html-keyboard-response,64,513023,0.0-13.0-2.8,76345,List1A,white,woman,,,,null,,,,
7077,,,survey-text,65,520105,0.0-13.0-3.8,76345,List1A,white,woman,,,,,"{""Q0"":""fred  is shouting at luke""}","<img src=""stim_listA/shout5.gif""style=""height:400px;""></stim_listA>",is shouting at,
null,"<div style=""font-size:60px;"">+</div>",,html-keyboard-response,66,520615,0.0-13.0-0.9,76345,List1A,white,woman,,,,null,,,,
null,"<img src=""stim_listA/dance4.gif""style=""height:400px;""></stim_listA>",,html-keyboard-response,67,522622,0.0-13.0-1.9,76345,List1A,white,woman,,,,null,,,,
null,are dancing with each other,,html-keyboard-response,68,524637,0.0-13.0-2.9,76345,List1A,white,woman,,,,null,,,,
8879,,,survey-text,69,533521,0.0-13.0-3.9,76345,List1A,white,woman,,,,,"{""Q0"":""jane and dave are dancing with each other""}","<img src=""stim_listA/dance4.gif""style=""height:400px;""></stim_listA>",are dancing with each other,
null,"<div style=""font-size:60px;"">+</div>",,html-keyboard-response,70,534024,0.0-13.0-0.10,76345,List1A,white,woman,,,,null,,,,
null,"<img src=""stim_listA/play4.gif""style=""height:400px;""></stim_listA>",,html-keyboard-response,71,536061,0.0-13.0-1.10,76345,List1A,white,woman,,,,null,,,,
null,are playing with each other,,html-keyboard-response,72,538072,0.0-13.0-2.10,76345,List1A,white,woman,,,,null,,,,
9605,,,survey-text,73,547681,0.0-13.0-3.10,76345,List1A,white,woman,,,,,"{""Q0"":""jane and luke are playing with each other""}","<img src=""stim_listA/play4.gif""style=""height:400px;""></stim_listA>",are playing with each other,
null,"<div style=""font-size:60px;"">+</div>",,html-keyboard-response,74,548193,0.0-13.0-0.11,76345,List1A,white,woman,,,,null,,,,
null,"<img src=""stim_listA/fight4.gif""style=""height:400px;""></stim_listA>",,html-keyboard-response,75,550227,0.0-13.0-1.11,76345,List1A,white,woman,,,,null,,,,
null,are fighting each other,,html-keyboard-response,76,552229,0.0-13.0-2.11,76345,List1A,white,woman,,,,null,,,,
9040,,,survey-text,77,561273,0.0-13.0-3.11,76345,List1A,white,woman,,,,,"{""Q0"":""jane and luke are fighting each other""}","<img src=""stim_listA/fight4.gif""style=""height:400px;""></stim_listA>",are fighting each other,
null,"<div style=""font-size:60px;"">+</div>",,html-keyboard-response,78,561777,0.0-13.0-0.12,76345,List1A,white,woman,,,,null,,,,
null,"<img src=""stim_listA/kiss3.gif""style=""height:400px;""></stim_listA>",,html-keyboard-response,79,563793,0.0-13.0-1.12,76345,List1A,white,woman,,,,null,,,,
null,is kissing,,html-keyboard-response,80,565796,0.0-13.0-2.12,76345,List1A,white,woman,,,,null,,,,
6677,,,survey-text,81,572476,0.0-13.0-3.12,76345,List1A,white,woman,,,,,"{""Q0"":""jane is kissing luke""}","<img src=""stim_listA/kiss3.gif""style=""height:400px;""></stim_listA>",is kissing,
null,"<div style=""font-size:60px;"">+</div>",,html-keyboard-response,82,572981,0.0-13.0-0.13,76345,List1A,white,woman,,,,null,,,,
null,"<img src=""stim_listA/shout2.gif""style=""height:400px;""></stim_listA>",,html-keyboard-response,83,575000,0.0-13.0-1.13,76345,List1A,white,woman,,,,null,,,,
null,are shouting at each other,,html-keyboard-response,84,577004,0.0-13.0-2.13,76345,List1A,white,woman,,,,null,,,,
11235,,,survey-text,85,588243,0.0-13.0-3.13,76345,List1A,white,woman,,,,,"{""Q0"":""beth and mike are shouting at each other""}","<img src=""stim_listA/shout2.gif""style=""height:400px;""></stim_listA>",are shouting at each other,
null,"<div style=""font-size:60px;"">+</div>",,html-keyboard-response,86,588747,0.0-13.0-0.14,76345,List1A,white,woman,,,,null,,,,
null,"<img src=""stim_listA/play8.gif""style=""height:400px;""></stim_listA>",,html-keyboard-response,87,590765,0.0-13.0-1.14,76345,List1A,white,woman,,,,null,,,,
null,are playing with each other,,html-keyboard-response,88,592780,0.0-13.0-2.14,76345,List1A,white,woman,,,,null,,,,
8818,,,survey-text,89,601603,0.0-13.0-3.14,76345,List1A,white,woman,,,,,"{""Q0"":""jane and beth are playing with each other""}","<img src=""stim_listA/play8.gif""style=""height:400px;""></stim_listA>",are playing with each other,
null,"<div style=""font-size:60px;"">+</div>",,html-keyboard-response,90,602110,0.0-13.0-0.15,76345,List1A,white,woman,,,,null,,,,
null,"<img src=""stim_listA/flirt5.gif""style=""height:400px;""></stim_listA>",,html-keyboard-response,91,604118,0.0-13.0-1.15,76345,List1A,white,woman,,,,null,,,,
null,is flirting with,,html-keyboard-response,92,606123,0.0-13.0-2.15,76345,List1A,white,woman,,,,null,,,,
11548,,,survey-text,93,617675,0.0-13.0-3.15,76345,List1A,white,woman,,,,,"{""Q0"":""fred is flirting with dave""}","<img src=""stim_listA/flirt5.gif""style=""height:400px;""></stim_listA>",is flirting with,
null,"<div style=""font-size:60px;"">+</div>",,html-keyboard-response,94,618179,0.0-13.0-0.16,76345,List1A,white,woman,,,,null,,,,
null,"<img src=""stim_listA/dance2.gif""style=""height:400px;""></stim_listA>",,html-keyboard-response,95,620198,0.0-13.0-1.16,76345,List1A,white,woman,,,,null,,,,
null,are dancing with each other,,html-keyboard-response,96,622206,0.0-13.0-2.16,76345,List1A,white,woman,,,,null,,,,
11329,,,survey-text,97,633538,0.0-13.0-3.16,76345,List1A,white,woman,,,,,"{""Q0"":""beth and mike are dancing with each other""}","<img src=""stim_listA/dance2.gif""style=""height:400px;""></stim_listA>",are dancing with each other,
null,"<div style=""font-size:60px;"">+</div>",,html-keyboard-response,98,634048,0.0-13.0-0.17,76345,List1A,white,woman,,,,null,,,,
null,"<img src=""stim_listA/dance7.gif""style=""height:400px;""></stim_listA>",,html-keyboard-response,99,636061,0.0-13.0-1.17,76345,List1A,white,woman,,,,null,,,,
null,is dancing with,,html-keyboard-response,100,638066,0.0-13.0-2.17,76345,List1A,white,woman,,,,null,,,,
7526,,,survey-text,101,645595,0.0-13.0-3.17,76345,List1A,white,woman,,,,,"{""Q0"":""jane is  dancing with beth""}","<img src=""stim_listA/dance7.gif""style=""height:400px;""></stim_listA>",is dancing with,
null,"<div style=""font-size:60px;"">+</div>",,html-keyboard-response,102,646102,0.0-13.0-0.18,76345,List1A,white,woman,,,,null,,,,
null,"<img src=""stim_listA/flirt1.gif""style=""height:400px;""></stim_listA>",,html-keyboard-response,103,648112,0.0-13.0-1.18,76345,List1A,white,woman,,,,null,,,,
null,is flirting with,,html-keyboard-response,104,650116,0.0-13.0-2.18,76345,List1A,white,woman,,,,null,,,,
14995,,,survey-text,105,665115,0.0-13.0-3.18,76345,List1A,white,woman,,,,,"{""Q0"":""fred is flirting with beth""}","<img src=""stim_listA/flirt1.gif""style=""height:400px;""></stim_listA>",is flirting with,
null,"<div style=""font-size:60px;"">+</div>",,html-keyboard-response,106,665628,0.0-13.0-0.19,76345,List1A,white,woman,,,,null,,,,
null,"<img src=""stim_listA/dance5.gif""style=""height:400px;""></stim_listA>",,html-keyboard-response,107,667635,0.0-13.0-1.19,76345,List1A,white,woman,,,,null,,,,
null,is dancing with,,html-keyboard-response,108,669644,0.0-13.0-2.19,76345,List1A,white,woman,,,,null,,,,
7963,,,survey-text,109,677611,0.0-13.0-3.19,76345,List1A,white,woman,,,,,"{""Q0"":""fred is dancing with dave""}","<img src=""stim_listA/dance5.gif""style=""height:400px;""></stim_listA>",is dancing with,
30904,"<img src='img/portrait_matrix_list1.jpg' style='width:900px;height:500px;''></img><p>If you have memorised all the portraits and names and are ready to start, press Continue.</p><p><strong>Please note: Your memory of these faces will be tested 4 times during this experiment.</strong></p>",0,html-button-response,110,708520,0.0-14.0-0.0,76345,List1A,white,woman,,,,,,,,
6105,"<img src=""portrait/WW2.jpg""style=""height:400px;""></img>",1,html-button-response,111,715631,0.0-14.0-1.0,76345,List1A,white,woman,,TRUE,3,,,,,
6001,"<img src=""portrait/WW2.jpg""style=""height:400px;""></img>",3,html-button-response,112,722656,0.0-14.0-3.0-0.0,76345,List1A,white,woman,,FALSE,3,,,,,
null,CORRECT,,html-keyboard-response,113,724175,0.0-14.0-3.0-1.0-0.0,76345,List1A,white,woman,,,,null,,,,
2802,"<img src=""portrait/WM1.jpg""style=""height:400px;""></img>",6,html-button-response,114,726984,0.0-14.0-4.0,76345,List1A,white,woman,,TRUE,6,,,,,
null,CORRECT,,html-keyboard-response,115,728503,0.0-14.0-5.0-0.0,76345,List1A,white,woman,,,,null,,,,
2364,"<img src=""portrait/WM2.jpg""style=""height:400px;""></img>",7,html-button-response,116,730872,0.0-14.0-7.0,76345,List1A,white,woman,,TRUE,7,,,,,
null,CORRECT,,html-keyboard-response,117,732383,0.0-14.0-8.0-0.0,76345,List1A,white,woman,,,,null,,,,
3371,"<img src=""portrait/WW1.jpg""style=""height:400px;""></img>",1,html-button-response,118,735759,0.0-14.0-10.0,76345,List1A,white,woman,,TRUE,1,,,,,
null,CORRECT,,html-keyboard-response,119,737285,0.0-14.0-11.0-0.0,76345,List1A,white,woman,,,,null,,,,
7827,"<img src=""portrait/BM2.jpg""style=""height:400px;""></img>",5,html-button-response,120,745120,0.0-14.0-13.0,76345,List1A,white,woman,,TRUE,5,,,,,
null,CORRECT,,html-keyboard-response,121,746647,0.0-14.0-14.0-0.0,76345,List1A,white,woman,,,,null,,,,
4059,"<img src=""portrait/BM1.jpg""style=""height:400px;""></img>",4,html-button-response,122,750712,0.0-14.0-16.0,76345,List1A,white,woman,,TRUE,4,,,,,
null,CORRECT,,html-keyboard-response,123,752227,0.0-14.0-17.0-0.0,76345,List1A,white,woman,,,,null,,,,
2336,"<img src=""portrait/BW2.jpg""style=""height:400px;""></img>",2,html-button-response,124,754568,0.0-14.0-19.0,76345,List1A,white,woman,,TRUE,2,,,,,
null,CORRECT,,html-keyboard-response,125,756090,0.0-14.0-20.0-0.0,76345,List1A,white,woman,,,,null,,,,
5056,"<img src=""portrait/BW1.jpg""style=""height:400px;""></img>",0,html-button-response,126,761151,0.0-14.0-22.0,76345,List1A,white,woman,,TRUE,0,,,,,
null,CORRECT,,html-keyboard-response,127,762681,0.0-14.0-23.0-0.0,76345,List1A,white,woman,,,,null,,,,
3065,<p>You got 7 out of 8 right first time. Press Continue.</p>,0,html-button-response,128,765751,0.0-14.0-25.0,76345,List1A,white,woman,,,,,,,,
12524,"As you did not score 100%, the memory game will repeat. Press Continue.",0,html-button-response,129,779292,0.0-14.0-26.0-0.0,76345,List1A,white,woman,,,,,,,,
10168,"<img src='img/portrait_matrix_list1.jpg' style='width:900px;height:500px;''></img><p>If you have memorised all the portraits and names and are ready to start, press Continue.</p><p><strong>Please note: Your memory of these faces will be tested 4 times during this experiment.</strong></p>",0,html-button-response,130,790485,0.0-14.1-0.1,76345,List1A,white,woman,,,,,,,,
2107,"<img src=""portrait/WW2.jpg""style=""height:400px;""></img>",3,html-button-response,131,793598,0.0-14.1-1.1,76345,List1A,white,woman,,TRUE,3,,,,,
null,CORRECT,,html-keyboard-response,132,795154,0.0-14.1-2.1-0.1,76345,List1A,white,woman,,,,null,,,,
3102,"<img src=""portrait/WM1.jpg""style=""height:400px;""></img>",6,html-button-response,133,798262,0.0-14.1-4.1,76345,List1A,white,woman,,TRUE,6,,,,,
null,CORRECT,,html-keyboard-response,134,799772,0.0-14.1-5.1-0.1,76345,List1A,white,woman,,,,null,,,,
1565,"<img src=""portrait/WM2.jpg""style=""height:400px;""></img>",7,html-button-response,135,801342,0.0-14.1-7.1,76345,List1A,white,woman,,TRUE,7,,,,,
null,CORRECT,,html-keyboard-response,136,802866,0.0-14.1-8.1-0.1,76345,List1A,white,woman,,,,null,,,,
2927,"<img src=""portrait/WW1.jpg""style=""height:400px;""></img>",1,html-button-response,137,805797,0.0-14.1-10.1,76345,List1A,white,woman,,TRUE,1,,,,,
null,CORRECT,,html-keyboard-response,138,807330,0.0-14.1-11.1-0.1,76345,List1A,white,woman,,,,null,,,,
3077,"<img src=""portrait/BM2.jpg""style=""height:400px;""></img>",5,html-button-response,139,810413,0.0-14.1-13.1,76345,List1A,white,woman,,TRUE,5,,,,,
null,CORRECT,,html-keyboard-response,140,811941,0.0-14.1-14.1-0.1,76345,List1A,white,woman,,,,null,,,,
1975,"<img src=""portrait/BM1.jpg""style=""height:400px;""></img>",4,html-button-response,141,813926,0.0-14.1-16.1,76345,List1A,white,woman,,TRUE,4,,,,,
null,CORRECT,,html-keyboard-response,142,815435,0.0-14.1-17.1-0.1,76345,List1A,white,woman,,,,null,,,,
2342,"<img src=""portrait/BW2.jpg""style=""height:400px;""></img>",2,html-button-response,143,817781,0.0-14.1-19.1,76345,List1A,white,woman,,TRUE,2,,,,,
null,CORRECT,,html-keyboard-response,144,819310,0.0-14.1-20.1-0.1,76345,List1A,white,woman,,,,null,,,,
3281,"<img src=""portrait/BW1.jpg""style=""height:400px;""></img>",0,html-button-response,145,822597,0.0-14.1-22.1,76345,List1A,white,woman,,TRUE,0,,,,,
null,CORRECT,,html-keyboard-response,146,824127,0.0-14.1-23.1-0.1,76345,List1A,white,woman,,,,null,,,,
1665,<p>You got 8 out of 8 right first time. Press Continue.</p>,0,html-button-response,147,825796,0.0-14.1-25.1,76345,List1A,white,woman,,,,,,,,
null,"<div style=""font-size:60px;"">+</div>",,html-keyboard-response,148,827319,0.0-15.0-0.0,76345,List1A,white,woman,,,,null,,,,
null,"<img src=""stim_listA/talk7.gif""style=""height:400px;""></stim_listA>",,html-keyboard-response,149,829340,0.0-15.0-1.0,76345,List1A,white,woman,,,,null,,,,
null,is talking to,,html-keyboard-response,150,831344,0.0-15.0-2.0,76345,List1A,white,woman,,,,null,,,,
8431,,,survey-text,151,839777,0.0-15.0-3.0,76345,List1A,white,woman,,,,,"{""Q0"":""beth is talking to jane""}","<img src=""stim_listA/talk7.gif""style=""height:400px;""></stim_listA>",is talking to,
null,"<div style=""font-size:60px;"">+</div>",,html-keyboard-response,152,840284,0.0-15.0-0.1,76345,List1A,white,woman,,,,null,,,,
null,"<img src=""stim_listA/play7.gif""style=""height:400px;""></stim_listA>",,html-keyboard-response,153,842299,0.0-15.0-1.1,76345,List1A,white,woman,,,,null,,,,
null,is playing with,,html-keyboard-response,154,844304,0.0-15.0-2.1,76345,List1A,white,woman,,,,null,,,,
7558,,,survey-text,155,851865,0.0-15.0-3.1,76345,List1A,white,woman,,,,,"{""Q0"":""kate is playing with jane""}","<img src=""stim_listA/play7.gif""style=""height:400px;""></stim_listA>",is playing with,
null,"<div style=""font-size:60px;"">+</div>",,html-keyboard-response,156,852376,0.0-15.0-0.2,76345,List1A,white,woman,,,,null,,,,
null,"<img src=""stim_listA/touch4.gif""style=""height:400px;""></stim_listA>",,html-keyboard-response,157,854383,0.0-15.0-1.2,76345,List1A,white,woman,,,,null,,,,
null,are touching each other,,html-keyboard-response,158,856385,0.0-15.0-2.2,76345,List1A,white,woman,,,,null,,,,
8717,,,survey-text,159,865106,0.0-15.0-3.2,76345,List1A,white,woman,,,,,"{""Q0"":""luke and jane are touching each other""}","<img src=""stim_listA/touch4.gif""style=""height:400px;""></stim_listA>",are touching each other,
null,"<div style=""font-size:60px;"">+</div>",,html-keyboard-response,160,865618,0.0-15.0-0.3,76345,List1A,white,woman,,,,null,,,,
null,"<img src=""stim_listA/fight1.gif""style=""height:400px;""></stim_listA>",,html-keyboard-response,161,867635,0.0-15.0-1.3,76345,List1A,white,woman,,,,null,,,,
null,is fighting,,html-keyboard-response,162,869640,0.0-15.0-2.3,76345,List1A,white,woman,,,,null,,,,
8141,,,survey-text,163,877786,0.0-15.0-3.3,76345,List1A,white,woman,,,,,"{""Q0"":""mike is fighting kate""}","<img src=""stim_listA/fight1.gif""style=""height:400px;""></stim_listA>",is fighting,
null,"<div style=""font-size:60px;"">+</div>",,html-keyboard-response,164,878304,0.0-15.0-0.4,76345,List1A,white,woman,,,,null,,,,
null,"<img src=""stim_listA/argue4.gif""style=""height:400px;""></stim_listA>",,html-keyboard-response,165,880334,0.0-15.0-1.4,76345,List1A,white,woman,,,,null,,,,
null,are arguing with each other,,html-keyboard-response,166,882338,0.0-15.0-2.4,76345,List1A,white,woman,,,,null,,,,
10508,,,survey-text,167,892850,0.0-15.0-3.4,76345,List1A,white,woman,,,,,"{""Q0"":""jane and luke are arguing with each other""}","<img src=""stim_listA/argue4.gif""style=""height:400px;""></stim_listA>",are arguing with each other,
null,"<div style=""font-size:60px;"">+</div>",,html-keyboard-response,168,893358,0.0-15.0-0.5,76345,List1A,white,woman,,,,null,,,,
null,"<img src=""stim_listA/shout7.gif""style=""height:400px;""></stim_listA>",,html-keyboard-response,169,895382,0.0-15.0-1.5,76345,List1A,white,woman,,,,null,,,,
null,is shouting at,,html-keyboard-response,170,897401,0.0-15.0-2.5,76345,List1A,white,woman,,,,null,,,,
7450,,,survey-text,171,904855,0.0-15.0-3.5,76345,List1A,white,woman,,,,,"{""Q0"":""beth is shouting at jane""}","<img src=""stim_listA/shout7.gif""style=""height:400px;""></stim_listA>",is shouting at,
null,"<div style=""font-size:60px;"">+</div>",,html-keyboard-response,172,905362,0.0-15.0-0.6,76345,List1A,white,woman,,,,null,,,,
null,"<img src=""stim_listA/marry8.gif""style=""height:400px;""></stim_listA>",,html-keyboard-response,173,907370,0.0-15.0-1.6,76345,List1A,white,woman,,,,null,,,,
null,are marrying each other,,html-keyboard-response,174,909374,0.0-15.0-2.6,76345,List1A,white,woman,,,,null,,,,
9798,,,survey-text,175,919174,0.0-15.0-3.6,76345,List1A,white,woman,,,,,"{""Q0"":""beth and jane are marrying each other""}","<img src=""stim_listA/marry8.gif""style=""height:400px;""></stim_listA>",are marrying each other,
null,"<div style=""font-size:60px;"">+</div>",,html-keyboard-response,176,919689,0.0-15.0-0.7,76345,List1A,white,woman,,,,null,,,,
null,"<img src=""stim_listA/dance8.gif""style=""height:400px;""></stim_listA>",,html-keyboard-response,177,921709,0.0-15.0-1.7,76345,List1A,white,woman,,,,null,,,,
null,are dancing with each other,,html-keyboard-response,178,923713,0.0-15.0-2.7,76345,List1A,white,woman,,,,null,,,,
8835,,,survey-text,179,932551,0.0-15.0-3.7,76345,List1A,white,woman,,,,,"{""Q0"":""kate and jane are dancing with each other""}","<img src=""stim_listA/dance8.gif""style=""height:400px;""></stim_listA>",are dancing with each other,
null,"<div style=""font-size:60px;"">+</div>",,html-keyboard-response,180,933055,0.0-15.0-0.8,76345,List1A,white,woman,,,,null,,,,
null,"<img src=""stim_listA/play5.gif""style=""height:400px;""></stim_listA>",,html-keyboard-response,181,935073,0.0-15.0-1.8,76345,List1A,white,woman,,,,null,,,,
null,is playing with,,html-keyboard-response,182,937077,0.0-15.0-2.8,76345,List1A,white,woman,,,,null,,,,
6941,,,survey-text,183,944022,0.0-15.0-3.8,76345,List1A,white,woman,,,,,"{""Q0"":""mike is playing with dave""}","<img src=""stim_listA/play5.gif""style=""height:400px;""></stim_listA>",is playing with,
null,"<div style=""font-size:60px;"">+</div>",,html-keyboard-response,184,944532,0.0-15.0-0.9,76345,List1A,white,woman,,,,null,,,,
null,"<img src=""stim_listA/marry6.gif""style=""height:400px;""></stim_listA>",,html-keyboard-response,185,946546,0.0-15.0-1.9,76345,List1A,white,woman,,,,null,,,,
null,are marrying each other,,html-keyboard-response,186,948549,0.0-15.0-2.9,76345,List1A,white,woman,,,,null,,,,
7822,,,survey-text,187,956374,0.0-15.0-3.9,76345,List1A,white,woman,,,,,"{""Q0"":""fred and dave are marrying each other""}","<img src=""stim_listA/marry6.gif""style=""height:400px;""></stim_listA>",are marrying each other,
null,"<div style=""font-size:60px;"">+</div>",,html-keyboard-response,188,956880,0.0-15.0-0.10,76345,List1A,white,woman,,,,null,,,,
null,"<img src=""stim_listA/kiss2.gif""style=""height:400px;""></stim_listA>",,html-keyboard-response,189,958929,0.0-15.0-1.10,76345,List1A,white,woman,,,,null,,,,
null,are kissing each other,,html-keyboard-response,190,960936,0.0-15.0-2.10,76345,List1A,white,woman,,,,null,,,,
9685,,,survey-text,191,970625,0.0-15.0-3.10,76345,List1A,white,woman,,,,,"{""Q0"":""kate and mike are kissing each other""}","<img src=""stim_listA/kiss2.gif""style=""height:400px;""></stim_listA>",are kissing each other,
null,"<div style=""font-size:60px;"">+</div>",,html-keyboard-response,192,971136,0.0-15.0-0.11,76345,List1A,white,woman,,,,null,,,,
null,"<img src=""stim_listA/flirt7.gif""style=""height:400px;""></stim_listA>",,html-keyboard-response,193,973163,0.0-15.0-1.11,76345,List1A,white,woman,,,,null,,,,
null,is flirting with,,html-keyboard-response,194,975167,0.0-15.0-2.11,76345,List1A,white,woman,,,,null,,,,
8383,,,survey-text,195,983554,0.0-15.0-3.11,76345,List1A,white,woman,,,,,"{""Q0"":""beth is flirting with jane""}","<img src=""stim_listA/flirt7.gif""style=""height:400px;""></stim_listA>",is flirting with,
null,"<div style=""font-size:60px;"">+</div>",,html-keyboard-response,196,984068,0.0-15.0-0.12,76345,List1A,white,woman,,,,null,,,,
null,"<img src=""stim_listA/dance3.gif""style=""height:400px;""></stim_listA>",,html-keyboard-response,197,986092,0.0-15.0-1.12,76345,List1A,white,woman,,,,null,,,,
null,is dancing with,,html-keyboard-response,198,988101,0.0-15.0-2.12,76345,List1A,white,woman,,,,null,,,,
6440,,,survey-text,199,994545,0.0-15.0-3.12,76345,List1A,white,woman,,,,,"{""Q0"":""luke is dancing with jane""}","<img src=""stim_listA/dance3.gif""style=""height:400px;""></stim_listA>",is dancing with,
null,"<div style=""font-size:60px;"">+</div>",,html-keyboard-response,200,995072,0.0-15.0-0.13,76345,List1A,white,woman,,,,null,,,,
null,"<img src=""stim_listA/flirt8.gif""style=""height:400px;""></stim_listA>",,html-keyboard-response,201,997096,0.0-15.0-1.13,76345,List1A,white,woman,,,,null,,,,
null,are flirting with each other,,html-keyboard-response,202,999105,0.0-15.0-2.13,76345,List1A,white,woman,,,,null,,,,
8901,,,survey-text,203,1008009,0.0-15.0-3.13,76345,List1A,white,woman,,,,,"{""Q0"":""kate and jane are flirting with each other""}","<img src=""stim_listA/flirt8.gif""style=""height:400px;""></stim_listA>",are flirting with each other,
null,"<div style=""font-size:60px;"">+</div>",,html-keyboard-response,204,1008517,0.0-15.0-0.14,76345,List1A,white,woman,,,,null,,,,
null,"<img src=""stim_listA/argue1.gif""style=""height:400px;""></stim_listA>",,html-keyboard-response,205,1010530,0.0-15.0-1.14,76345,List1A,white,woman,,,,null,,,,
null,is arguing with,,html-keyboard-response,206,1012533,0.0-15.0-2.14,76345,List1A,white,woman,,,,null,,,,
7192,,,survey-text,207,1019729,0.0-15.0-3.14,76345,List1A,white,woman,,,,,"{""Q0"":""mike is arguing with beth""}","<img src=""stim_listA/argue1.gif""style=""height:400px;""></stim_listA>",is arguing with,
null,"<div style=""font-size:60px;"">+</div>",,html-keyboard-response,208,1020237,0.0-15.0-0.15,76345,List1A,white,woman,,,,null,,,,
null,"<img src=""stim_listA/talk4.gif""style=""height:400px;""></stim_listA>",,html-keyboard-response,209,1022245,0.0-15.0-1.15,76345,List1A,white,woman,,,,null,,,,
null,are talking to each other,,html-keyboard-response,210,1024248,0.0-15.0-2.15,76345,List1A,white,woman,,,,null,,,,
14837,,,survey-text,211,1039090,0.0-15.0-3.15,76345,List1A,white,woman,,,,,"{""Q0"":""dave and jane are talking to each other""}","<img src=""stim_listA/talk4.gif""style=""height:400px;""></stim_listA>",are talking to each other,
null,"<div style=""font-size:60px;"">+</div>",,html-keyboard-response,212,1039607,0.0-15.0-0.16,76345,List1A,white,woman,,,,null,,,,
null,"<img src=""stim_listA/flirt6.gif""style=""height:400px;""></stim_listA>",,html-keyboard-response,213,1041619,0.0-15.0-1.16,76345,List1A,white,woman,,,,null,,,,
null,are flirting with each other,,html-keyboard-response,214,1043623,0.0-15.0-2.16,76345,List1A,white,woman,,,,null,,,,
9686,,,survey-text,215,1053313,0.0-15.0-3.16,76345,List1A,white,woman,,,,,"{""Q0"":""luke and mike are flirting with each other""}","<img src=""stim_listA/flirt6.gif""style=""height:400px;""></stim_listA>",are flirting with each other,
null,"<div style=""font-size:60px;"">+</div>",,html-keyboard-response,216,1053822,0.0-15.0-0.17,76345,List1A,white,woman,,,,null,,,,
null,"<img src=""stim_listA/play2.gif""style=""height:400px;""></stim_listA>",,html-keyboard-response,217,1055832,0.0-15.0-1.17,76345,List1A,white,woman,,,,null,,,,
null,are playing with each other,,html-keyboard-response,218,1057842,0.0-15.0-2.17,76345,List1A,white,woman,,,,null,,,,
9751,,,survey-text,219,1067601,0.0-15.0-3.17,76345,List1A,white,woman,,,,,"{""Q0"":""beth and fred are playing with each other""}","<img src=""stim_listA/play2.gif""style=""height:400px;""></stim_listA>",are playing with each other,
null,"<div style=""font-size:60px;"">+</div>",,html-keyboard-response,220,1068108,0.0-15.0-0.18,76345,List1A,white,woman,,,,null,,,,
null,"<img src=""stim_listA/fight3.gif""style=""height:400px;""></stim_listA>",,html-keyboard-response,221,1070124,0.0-15.0-1.18,76345,List1A,white,woman,,,,null,,,,
null,is fighting,,html-keyboard-response,222,1072134,0.0-15.0-2.18,76345,List1A,white,woman,,,,null,,,,
9180,,,survey-text,223,1081318,0.0-15.0-3.18,76345,List1A,white,woman,,,,,"{""Q0"":""jane is fighting dave""}","<img src=""stim_listA/fight3.gif""style=""height:400px;""></stim_listA>",is fighting,
null,"<div style=""font-size:60px;"">+</div>",,html-keyboard-response,224,1081829,0.0-15.0-0.19,76345,List1A,white,woman,,,,null,,,,
null,"<img src=""stim_listA/talk1.gif""style=""height:400px;""></stim_listA>",,html-keyboard-response,225,1083844,0.0-15.0-1.19,76345,List1A,white,woman,,,,null,,,,
null,is talking to,,html-keyboard-response,226,1085847,0.0-15.0-2.19,76345,List1A,white,woman,,,,null,,,,
6531,,,survey-text,227,1092382,0.0-15.0-3.19,76345,List1A,white,woman,,,,,"{""Q0"":""fred is talking to kate""}","<img src=""stim_listA/talk1.gif""style=""height:400px;""></stim_listA>",is talking to,
7067,"<img src='img/portrait_matrix_list1.jpg' style='width:900px;height:500px;''></img><p>If you have memorised all the portraits and names and are ready to start, press Continue.</p><p><strong>Please note: Your memory of these faces will be tested 4 times during this experiment.</strong></p>",0,html-button-response,228,1099454,0.0-16.0-0.0,76345,List1A,white,woman,,,,,,,,
2584,"<img src=""portrait/BM1.jpg""style=""height:400px;""></img>",4,html-button-response,229,1103047,0.0-16.0-1.0,76345,List1A,white,woman,,TRUE,4,,,,,
null,CORRECT,,html-keyboard-response,230,1104572,0.0-16.0-2.0-0.0,76345,List1A,white,woman,,,,null,,,,
2765,"<img src=""portrait/BW2.jpg""style=""height:400px;""></img>",2,html-button-response,231,1107343,0.0-16.0-4.0,76345,List1A,white,woman,,TRUE,2,,,,,
null,CORRECT,,html-keyboard-response,232,1108864,0.0-16.0-5.0-0.0,76345,List1A,white,woman,,,,null,,,,
2186,"<img src=""portrait/WW2.jpg""style=""height:400px;""></img>",3,html-button-response,233,1111055,0.0-16.0-7.0,76345,List1A,white,woman,,TRUE,3,,,,,
null,CORRECT,,html-keyboard-response,234,1112578,0.0-16.0-8.0-0.0,76345,List1A,white,woman,,,,null,,,,
2895,"<img src=""portrait/BM2.jpg""style=""height:400px;""></img>",5,html-button-response,235,1115479,0.0-16.0-10.0,76345,List1A,white,woman,,TRUE,5,,,,,
null,CORRECT,,html-keyboard-response,236,1117004,0.0-16.0-11.0-0.0,76345,List1A,white,woman,,,,null,,,,
1661,"<img src=""portrait/WM1.jpg""style=""height:400px;""></img>",6,html-button-response,237,1118671,0.0-16.0-13.0,76345,List1A,white,woman,,TRUE,6,,,,,
null,CORRECT,,html-keyboard-response,238,1120194,0.0-16.0-14.0-0.0,76345,List1A,white,woman,,,,null,,,,
1566,"<img src=""portrait/WM2.jpg""style=""height:400px;""></img>",7,html-button-response,239,1121767,0.0-16.0-16.0,76345,List1A,white,woman,,TRUE,7,,,,,
null,CORRECT,,html-keyboard-response,240,1123300,0.0-16.0-17.0-0.0,76345,List1A,white,woman,,,,null,,,,
1598,"<img src=""portrait/WW1.jpg""style=""height:400px;""></img>",1,html-button-response,241,1124903,0.0-16.0-19.0,76345,List1A,white,woman,,TRUE,1,,,,,
null,CORRECT,,html-keyboard-response,242,1126414,0.0-16.0-20.0-0.0,76345,List1A,white,woman,,,,null,,,,
1890,"<img src=""portrait/BW1.jpg""style=""height:400px;""></img>",0,html-button-response,243,1128310,0.0-16.0-22.0,76345,List1A,white,woman,,TRUE,0,,,,,
null,CORRECT,,html-keyboard-response,244,1129826,0.0-16.0-23.0-0.0,76345,List1A,white,woman,,,,null,,,,
2374,<p>You got 8 out of 8 right first time. Press Continue.</p>,0,html-button-response,245,1132206,0.0-16.0-25.0,76345,List1A,white,woman,,,,,,,,
null,"<div style=""font-size:60px;"">+</div>",,html-keyboard-response,246,1133717,0.0-17.0-0.0,76345,List1A,white,woman,,,,null,,,,
null,"<img src=""stim_listA/shout3.gif""style=""height:400px;""></stim_listA>",,html-keyboard-response,247,1135723,0.0-17.0-1.0,76345,List1A,white,woman,,,,null,,,,
null,is shouting at,,html-keyboard-response,248,1137726,0.0-17.0-2.0,76345,List1A,white,woman,,,,null,,,,
7915,,,survey-text,249,1145644,0.0-17.0-3.0,76345,List1A,white,woman,,,,,"{""Q0"":""jane is shouting at luke""}","<img src=""stim_listA/shout3.gif""style=""height:400px;""></stim_listA>",is shouting at,
null,"<div style=""font-size:60px;"">+</div>",,html-keyboard-response,250,1146149,0.0-17.0-0.1,76345,List1A,white,woman,,,,null,,,,
null,"<img src=""stim_listA/flirt2.gif""style=""height:400px;""></stim_listA>",,html-keyboard-response,251,1148181,0.0-17.0-1.1,76345,List1A,white,woman,,,,null,,,,
null,are flirting with each other,,html-keyboard-response,252,1150187,0.0-17.0-2.1,76345,List1A,white,woman,,,,null,,,,
8390,,,survey-text,253,1158580,0.0-17.0-3.1,76345,List1A,white,woman,,,,,"{""Q0"":""beth and mike are flirting with each other""}","<img src=""stim_listA/flirt2.gif""style=""height:400px;""></stim_listA>",are flirting with each other,
null,"<div style=""font-size:60px;"">+</div>",,html-keyboard-response,254,1159084,0.0-17.0-0.2,76345,List1A,white,woman,,,,null,,,,
null,"<img src=""stim_listA/fight8.gif""style=""height:400px;""></stim_listA>",,html-keyboard-response,255,1161121,0.0-17.0-1.2,76345,List1A,white,woman,,,,null,,,,
null,are fighting each other,,html-keyboard-response,256,1163132,0.0-17.0-2.2,76345,List1A,white,woman,,,,null,,,,
7844,,,survey-text,257,1170980,0.0-17.0-3.2,76345,List1A,white,woman,,,,,"{""Q0"":""beth and jane are fighting each other""}","<img src=""stim_listA/fight8.gif""style=""height:400px;""></stim_listA>",are fighting each other,
null,"<div style=""font-size:60px;"">+</div>",,html-keyboard-response,258,1171484,0.0-17.0-0.3,76345,List1A,white,woman,,,,null,,,,
null,"<img src=""stim_listA/touch6.gif""style=""height:400px;""></stim_listA>",,html-keyboard-response,259,1173488,0.0-17.0-1.3,76345,List1A,white,woman,,,,null,,,,
null,are touching each other,,html-keyboard-response,260,1175492,0.0-17.0-2.3,76345,List1A,white,woman,,,,null,,,,
8485,,,survey-text,261,1183980,0.0-17.0-3.3,76345,List1A,white,woman,,,,,"{""Q0"":""luke and fred are touching each other""}","<img src=""stim_listA/touch6.gif""style=""height:400px;""></stim_listA>",are touching each other,
null,"<div style=""font-size:60px;"">+</div>",,html-keyboard-response,262,1184487,0.0-17.0-0.4,76345,List1A,white,woman,,,,null,,,,
null,"<img src=""stim_listA/play3.gif""style=""height:400px;""></stim_listA>",,html-keyboard-response,263,1186496,0.0-17.0-1.4,76345,List1A,white,woman,,,,null,,,,
null,is playing with,,html-keyboard-response,264,1188499,0.0-17.0-2.4,76345,List1A,white,woman,,,,null,,,,
6629,,,survey-text,265,1195132,0.0-17.0-3.4,76345,List1A,white,woman,,,,,"{""Q0"":""jane is playing with dave""}","<img src=""stim_listA/play3.gif""style=""height:400px;""></stim_listA>",is playing with,
null,"<div style=""font-size:60px;"">+</div>",,html-keyboard-response,266,1195641,0.0-17.0-0.5,76345,List1A,white,woman,,,,null,,,,
null,"<img src=""stim_listA/flirt3.gif""style=""height:400px;""></stim_listA>",,html-keyboard-response,267,1197654,0.0-17.0-1.5,76345,List1A,white,woman,,,,null,,,,
null,is flirting with,,html-keyboard-response,268,1199658,0.0-17.0-2.5,76345,List1A,white,woman,,,,null,,,,
6218,,,survey-text,269,1205878,0.0-17.0-3.5,76345,List1A,white,woman,,,,,"{""Q0"":""luke is flirting with  jane""}","<img src=""stim_listA/flirt3.gif""style=""height:400px;""></stim_listA>",is flirting with,
null,"<div style=""font-size:60px;"">+</div>",,html-keyboard-response,270,1206382,0.0-17.0-0.6,76345,List1A,white,woman,,,,null,,,,
null,"<img src=""stim_listA/talk6.gif""style=""height:400px;""></stim_listA>",,html-keyboard-response,271,1208387,0.0-17.0-1.6,76345,List1A,white,woman,,,,null,,,,
null,are talking to each other,,html-keyboard-response,272,1210393,0.0-17.0-2.6,76345,List1A,white,woman,,,,null,,,,
8591,,,survey-text,273,1218990,0.0-17.0-3.6,76345,List1A,white,woman,,,,,"{""Q0"":""luke and mike are talking to each other""}","<img src=""stim_listA/talk6.gif""style=""height:400px;""></stim_listA>",are talking to each other,
null,"<div style=""font-size:60px;"">+</div>",,html-keyboard-response,274,1219504,0.0-17.0-0.7,76345,List1A,white,woman,,,,null,,,,
null,"<img src=""stim_listA/talk2.gif""style=""height:400px;""></stim_listA>",,html-keyboard-response,275,1221526,0.0-17.0-1.7,76345,List1A,white,woman,,,,null,,,,
null,are talking to each other,,html-keyboard-response,276,1223534,0.0-17.0-2.7,76345,List1A,white,woman,,,,null,,,,
9213,,,survey-text,277,1232750,0.0-17.0-3.7,76345,List1A,white,woman,,,,,"{""Q0"":""beth and mike are talking to each other""}","<img src=""stim_listA/talk2.gif""style=""height:400px;""></stim_listA>",are talking to each other,
null,"<div style=""font-size:60px;"">+</div>",,html-keyboard-response,278,1233259,0.0-17.0-0.8,76345,List1A,white,woman,,,,null,,,,
null,"<img src=""stim_listA/kiss7.gif""style=""height:400px;""></stim_listA>",,html-keyboard-response,279,1235276,0.0-17.0-1.8,76345,List1A,white,woman,,,,null,,,,
null,is kissing,,html-keyboard-response,280,1237281,0.0-17.0-2.8,76345,List1A,white,woman,,,,null,,,,
8480,,,survey-text,281,1245766,0.0-17.0-3.8,76345,List1A,white,woman,,,,,"{""Q0"":""beth is kissing jane""}","<img src=""stim_listA/kiss7.gif""style=""height:400px;""></stim_listA>",is kissing,
null,"<div style=""font-size:60px;"">+</div>",,html-keyboard-response,282,1246293,0.0-17.0-0.9,76345,List1A,white,woman,,,,null,,,,
null,"<img src=""stim_listA/shout8.gif""style=""height:400px;""></stim_listA>",,html-keyboard-response,283,1248303,0.0-17.0-1.9,76345,List1A,white,woman,,,,null,,,,
null,are shouting at each other,,html-keyboard-response,284,1250309,0.0-17.0-2.9,76345,List1A,white,woman,,,,null,,,,
8287,,,survey-text,285,1258599,0.0-17.0-3.9,76345,List1A,white,woman,,,,,"{""Q0"":""jane and kate are shouting at each other""}","<img src=""stim_listA/shout8.gif""style=""height:400px;""></stim_listA>",are shouting at each other,
null,"<div style=""font-size:60px;"">+</div>",,html-keyboard-response,286,1259105,0.0-17.0-0.10,76345,List1A,white,woman,,,,null,,,,
null,"<img src=""stim_listA/play1.gif""style=""height:400px;""></stim_listA>",,html-keyboard-response,287,1261121,0.0-17.0-1.10,76345,List1A,white,woman,,,,null,,,,
null,is playing with,,html-keyboard-response,288,1263135,0.0-17.0-2.10,76345,List1A,white,woman,,,,null,,,,
7278,,,survey-text,289,1270417,0.0-17.0-3.10,76345,List1A,white,woman,,,,,"{""Q0"":""mike  is playing with kate""}","<img src=""stim_listA/play1.gif""style=""height:400px;""></stim_listA>",is playing with,
null,"<div style=""font-size:60px;"">+</div>",,html-keyboard-response,290,1270921,0.0-17.0-0.11,76345,List1A,white,woman,,,,null,,,,
null,"<img src=""stim_listA/argue2.gif""style=""height:400px;""></stim_listA>",,html-keyboard-response,291,1272942,0.0-17.0-1.11,76345,List1A,white,woman,,,,null,,,,
null,are arguing with each other,,html-keyboard-response,292,1274958,0.0-17.0-2.11,76345,List1A,white,woman,,,,null,,,,
9800,,,survey-text,293,1284761,0.0-17.0-3.11,76345,List1A,white,woman,,,,,"{""Q0"":""kate and fred are arguing with each other""}","<img src=""stim_listA/argue2.gif""style=""height:400px;""></stim_listA>",are arguing with each other,
null,"<div style=""font-size:60px;"">+</div>",,html-keyboard-response,294,1285273,0.0-17.0-0.12,76345,List1A,white,woman,,,,null,,,,
null,"<img src=""stim_listA/marry1.gif""style=""height:400px;""></stim_listA>",,html-keyboard-response,295,1287308,0.0-17.0-1.12,76345,List1A,white,woman,,,,null,,,,
null,is marrying,,html-keyboard-response,296,1289316,0.0-17.0-2.12,76345,List1A,white,woman,,,,null,,,,
7881,,,survey-text,297,1297200,0.0-17.0-3.12,76345,List1A,white,woman,,,,,"{""Q0"":""mike is marrying beth""}","<img src=""stim_listA/marry1.gif""style=""height:400px;""></stim_listA>",is marrying,
null,"<div style=""font-size:60px;"">+</div>",,html-keyboard-response,298,1297704,0.0-17.0-0.13,76345,List1A,white,woman,,,,null,,,,
null,"<img src=""stim_listA/shout1.gif""style=""height:400px;""></stim_listA>",,html-keyboard-response,299,1299710,0.0-17.0-1.13,76345,List1A,white,woman,,,,null,,,,
null,is shouting at,,html-keyboard-response,300,1301720,0.0-17.0-2.13,76345,List1A,white,woman,,,,null,,,,
7069,,,survey-text,301,1308793,0.0-17.0-3.13,76345,List1A,white,woman,,,,,"{""Q0"":""fred is shouting at beth""}","<img src=""stim_listA/shout1.gif""style=""height:400px;""></stim_listA>",is shouting at,
null,"<div style=""font-size:60px;"">+</div>",,html-keyboard-response,302,1309299,0.0-17.0-0.14,76345,List1A,white,woman,,,,null,,,,
null,"<img src=""stim_listA/touch1.gif""style=""height:400px;""></stim_listA>",,html-keyboard-response,303,1311304,0.0-17.0-1.14,76345,List1A,white,woman,,,,null,,,,
null,is touching,,html-keyboard-response,304,1313307,0.0-17.0-2.14,76345,List1A,white,woman,,,,null,,,,
6762,,,survey-text,305,1320073,0.0-17.0-3.14,76345,List1A,white,woman,,,,,"{""Q0"":""mike is touching kate""}","<img src=""stim_listA/touch1.gif""style=""height:400px;""></stim_listA>",is touching,
null,"<div style=""font-size:60px;"">+</div>",,html-keyboard-response,306,1320577,0.0-17.0-0.15,76345,List1A,white,woman,,,,null,,,,
null,"<img src=""stim_listA/fight2.gif""style=""height:400px;""></stim_listA>",,html-keyboard-response,307,1322593,0.0-17.0-1.15,76345,List1A,white,woman,,,,null,,,,
null,are fighting each other,,html-keyboard-response,308,1324611,0.0-17.0-2.15,76345,List1A,white,woman,,,,null,,,,
7811,,,survey-text,309,1332425,0.0-17.0-3.15,76345,List1A,white,woman,,,,,"{""Q0"":""beth and fred are fighting each other""}","<img src=""stim_listA/fight2.gif""style=""height:400px;""></stim_listA>",are fighting each other,
null,"<div style=""font-size:60px;"">+</div>",,html-keyboard-response,310,1332941,0.0-17.0-0.16,76345,List1A,white,woman,,,,null,,,,
null,"<img src=""stim_listA/touch7.gif""style=""height:400px;""></stim_listA>",,html-keyboard-response,311,1334947,0.0-17.0-1.16,76345,List1A,white,woman,,,,null,,,,
null,is touching,,html-keyboard-response,312,1336951,0.0-17.0-2.16,76345,List1A,white,woman,,,,null,,,,
5944,,,survey-text,313,1342898,0.0-17.0-3.16,76345,List1A,white,woman,,,,,"{""Q0"":""kate is touching jane""}","<img src=""stim_listA/touch7.gif""style=""height:400px;""></stim_listA>",is touching,
null,"<div style=""font-size:60px;"">+</div>",,html-keyboard-response,314,1343403,0.0-17.0-0.17,76345,List1A,white,woman,,,,null,,,,
null,"<img src=""stim_listA/flirt4.gif""style=""height:400px;""></stim_listA>",,html-keyboard-response,315,1345410,0.0-17.0-1.17,76345,List1A,white,woman,,,,null,,,,
null,are flirting with each other,,html-keyboard-response,316,1347422,0.0-17.0-2.17,76345,List1A,white,woman,,,,null,,,,
8583,,,survey-text,317,1356010,0.0-17.0-3.17,76345,List1A,white,woman,,,,,"{""Q0"":""jane and dave are flirting with each other""}","<img src=""stim_listA/flirt4.gif""style=""height:400px;""></stim_listA>",are flirting with each other,
null,"<div style=""font-size:60px;"">+</div>",,html-keyboard-response,318,1356516,0.0-17.0-0.18,76345,List1A,white,woman,,,,null,,,,
null,"<img src=""stim_listA/kiss8.gif""style=""height:400px;""></stim_listA>",,html-keyboard-response,319,1358544,0.0-17.0-1.18,76345,List1A,white,woman,,,,null,,,,
null,are kissing each other,,html-keyboard-response,320,1360552,0.0-17.0-2.18,76345,List1A,white,woman,,,,null,,,,
12287,,,survey-text,321,1372842,0.0-17.0-3.18,76345,List1A,white,woman,,,,,"{""Q0"":""jane and kate are kissing each other""}","<img src=""stim_listA/kiss8.gif""style=""height:400px;""></stim_listA>",are kissing each other,
null,"<div style=""font-size:60px;"">+</div>",,html-keyboard-response,322,1373347,0.0-17.0-0.19,76345,List1A,white,woman,,,,null,,,,
null,"<img src=""stim_listA/argue3.gif""style=""height:400px;""></stim_listA>",,html-keyboard-response,323,1375361,0.0-17.0-1.19,76345,List1A,white,woman,,,,null,,,,
null,is arguing with,,html-keyboard-response,324,1377369,0.0-17.0-2.19,76345,List1A,white,woman,,,,null,,,,
7236,,,survey-text,325,1384609,0.0-17.0-3.19,76345,List1A,white,woman,,,,,"{""Q0"":""jane is arguing with dave""}","<img src=""stim_listA/argue3.gif""style=""height:400px;""></stim_listA>",is arguing with,
4140,"<img src='img/portrait_matrix_list1.jpg' style='width:900px;height:500px;''></img><p>If you have memorised all the portraits and names and are ready to start, press Continue.</p><p><strong>Please note: Your memory of these faces will be tested 4 times during this experiment.</strong></p>",0,html-button-response,326,1388754,0.0-18.0-0.0,76345,List1A,white,woman,,,,,,,,
7715,"<img src=""portrait/BW1.jpg""style=""height:400px;""></img>",0,html-button-response,327,1397490,0.0-18.0-1.0,76345,List1A,white,woman,,TRUE,0,,,,,
null,CORRECT,,html-keyboard-response,328,1399018,0.0-18.0-2.0-0.0,76345,List1A,white,woman,,,,null,,,,
1667,"<img src=""portrait/WW2.jpg""style=""height:400px;""></img>",3,html-button-response,329,1400690,0.0-18.0-4.0,76345,List1A,white,woman,,TRUE,3,,,,,
null,CORRECT,,html-keyboard-response,330,1402217,0.0-18.0-5.0-0.0,76345,List1A,white,woman,,,,null,,,,
2859,"<img src=""portrait/BM2.jpg""style=""height:400px;""></img>",5,html-button-response,331,1405083,0.0-18.0-7.0,76345,List1A,white,woman,,TRUE,5,,,,,
null,CORRECT,,html-keyboard-response,332,1406604,0.0-18.0-8.0-0.0,76345,List1A,white,woman,,,,null,,,,
1977,"<img src=""portrait/BW2.jpg""style=""height:400px;""></img>",2,html-button-response,333,1408586,0.0-18.0-10.0,76345,List1A,white,woman,,TRUE,2,,,,,
null,CORRECT,,html-keyboard-response,334,1410106,0.0-18.0-11.0-0.0,76345,List1A,white,woman,,,,null,,,,
2012,"<img src=""portrait/WM1.jpg""style=""height:400px;""></img>",6,html-button-response,335,1412123,0.0-18.0-13.0,76345,List1A,white,woman,,TRUE,6,,,,,
null,CORRECT,,html-keyboard-response,336,1413637,0.0-18.0-14.0-0.0,76345,List1A,white,woman,,,,null,,,,
2199,"<img src=""portrait/WW1.jpg""style=""height:400px;""></img>",1,html-button-response,337,1415842,0.0-18.0-16.0,76345,List1A,white,woman,,TRUE,1,,,,,
null,CORRECT,,html-keyboard-response,338,1417364,0.0-18.0-17.0-0.0,76345,List1A,white,woman,,,,null,,,,
2457,"<img src=""portrait/BM1.jpg""style=""height:400px;""></img>",4,html-button-response,339,1419827,0.0-18.0-19.0,76345,List1A,white,woman,,TRUE,4,,,,,
null,CORRECT,,html-keyboard-response,340,1421337,0.0-18.0-20.0-0.0,76345,List1A,white,woman,,,,null,,,,
1892,"<img src=""portrait/WM2.jpg""style=""height:400px;""></img>",7,html-button-response,341,1423234,0.0-18.0-22.0,76345,List1A,white,woman,,TRUE,7,,,,,
null,CORRECT,,html-keyboard-response,342,1424755,0.0-18.0-23.0-0.0,76345,List1A,white,woman,,,,null,,,,
1514,<p>You got 8 out of 8 right first time. Press Continue.</p>,0,html-button-response,343,1426274,0.0-18.0-25.0,76345,List1A,white,woman,,,,,,,,
null,"<div style=""font-size:60px;"">+</div>",,html-keyboard-response,344,1427802,0.0-19.0-0.0,76345,List1A,white,woman,,,,null,,,,
null,"<img src=""stim_listA/touch8.gif""style=""height:400px;""></stim_listA>",,html-keyboard-response,345,1429809,0.0-19.0-1.0,76345,List1A,white,woman,,,,null,,,,
null,are touching each other,,html-keyboard-response,346,1431820,0.0-19.0-2.0,76345,List1A,white,woman,,,,null,,,,
15184,,,survey-text,347,1447010,0.0-19.0-3.0,76345,List1A,white,woman,,,,,"{""Q0"":""beth and jane are touching each other""}","<img src=""stim_listA/touch8.gif""style=""height:400px;""></stim_listA>",are touching each other,
null,"<div style=""font-size:60px;"">+</div>",,html-keyboard-response,348,1447521,0.0-19.0-0.1,76345,List1A,white,woman,,,,null,,,,
null,"<img src=""stim_listA/fight7.gif""style=""height:400px;""></stim_listA>",,html-keyboard-response,349,1449528,0.0-19.0-1.1,76345,List1A,white,woman,,,,null,,,,
null,is fighting,,html-keyboard-response,350,1451535,0.0-19.0-2.1,76345,List1A,white,woman,,,,null,,,,
5992,,,survey-text,351,1457531,0.0-19.0-3.1,76345,List1A,white,woman,,,,,"{""Q0"":""kate is fighting jane""}","<img src=""stim_listA/fight7.gif""style=""height:400px;""></stim_listA>",is fighting,
null,"<div style=""font-size:60px;"">+</div>",,html-keyboard-response,352,1458050,0.0-19.0-0.2,76345,List1A,white,woman,,,,null,,,,
null,"<img src=""stim_listA/argue6.gif""style=""height:400px;""></stim_listA>",,html-keyboard-response,353,1460069,0.0-19.0-1.2,76345,List1A,white,woman,,,,null,,,,
null,are arguing with each other,,html-keyboard-response,354,1462083,0.0-19.0-2.2,76345,List1A,white,woman,,,,null,,,,
11004,,,survey-text,355,1473090,0.0-19.0-3.2,76345,List1A,white,woman,,,,,"{""Q0"":""fred and dave are arguing with each other""}","<img src=""stim_listA/argue6.gif""style=""height:400px;""></stim_listA>",are arguing with each other,
null,"<div style=""font-size:60px;"">+</div>",,html-keyboard-response,356,1473601,0.0-19.0-0.3,76345,List1A,white,woman,,,,null,,,,
null,"<img src=""stim_listA/touch5.gif""style=""height:400px;""></stim_listA>",,html-keyboard-response,357,1475634,0.0-19.0-1.3,76345,List1A,white,woman,,,,null,,,,
null,is touching,,html-keyboard-response,358,1477637,0.0-19.0-2.3,76345,List1A,white,woman,,,,null,,,,
7057,,,survey-text,359,1484698,0.0-19.0-3.3,76345,List1A,white,woman,,,,,"{""Q0"":""mike is touching dave""}","<img src=""stim_listA/touch5.gif""style=""height:400px;""></stim_listA>",is touching,
null,"<div style=""font-size:60px;"">+</div>",,html-keyboard-response,360,1485201,0.0-19.0-0.4,76345,List1A,white,woman,,,,null,,,,
null,"<img src=""stim_listA/argue5.gif""style=""height:400px;""></stim_listA>",,html-keyboard-response,361,1487208,0.0-19.0-1.4,76345,List1A,white,woman,,,,null,,,,
null,is arguing with,,html-keyboard-response,362,1489211,0.0-19.0-2.4,76345,List1A,white,woman,,,,null,,,,
6579,,,survey-text,363,1495794,0.0-19.0-3.4,76345,List1A,white,woman,,,,,"{""Q0"":""mike is arguing with luke""}","<img src=""stim_listA/argue5.gif""style=""height:400px;""></stim_listA>",is arguing with,
null,"<div style=""font-size:60px;"">+</div>",,html-keyboard-response,364,1496298,0.0-19.0-0.5,76345,List1A,white,woman,,,,null,,,,
null,"<img src=""stim_listA/dance1.gif""style=""height:400px;""></stim_listA>",,html-keyboard-response,365,1498305,0.0-19.0-1.5,76345,List1A,white,woman,,,,null,,,,
null,is dancing with,,html-keyboard-response,366,1500314,0.0-19.0-2.5,76345,List1A,white,woman,,,,null,,,,
7558,,,survey-text,367,1507876,0.0-19.0-3.5,76345,List1A,white,woman,,,,,"{""Q0"":""fred is dancing with kate""}","<img src=""stim_listA/dance1.gif""style=""height:400px;""></stim_listA>",is dancing with,
null,"<div style=""font-size:60px;"">+</div>",,html-keyboard-response,368,1508393,0.0-19.0-0.6,76345,List1A,white,woman,,,,null,,,,
null,"<img src=""stim_listA/dance6.gif""style=""height:400px;""></stim_listA>",,html-keyboard-response,369,1510404,0.0-19.0-1.6,76345,List1A,white,woman,,,,null,,,,
null,are dancing with each other,,html-keyboard-response,370,1512423,0.0-19.0-2.6,76345,List1A,white,woman,,,,null,,,,
8505,,,survey-text,371,1520932,0.0-19.0-3.6,76345,List1A,white,woman,,,,,"{""Q0"":""mike and luke are dancing with each other""}","<img src=""stim_listA/dance6.gif""style=""height:400px;""></stim_listA>",are dancing with each other,
null,"<div style=""font-size:60px;"">+</div>",,html-keyboard-response,372,1521441,0.0-19.0-0.7,76345,List1A,white,woman,,,,null,,,,
null,"<img src=""stim_listA/shout6.gif""style=""height:400px;""></stim_listA>",,html-keyboard-response,373,1523454,0.0-19.0-1.7,76345,List1A,white,woman,,,,null,,,,
null,are shouting at each other,,html-keyboard-response,374,1525458,0.0-19.0-2.7,76345,List1A,white,woman,,,,null,,,,
7950,,,survey-text,375,1533412,0.0-19.0-3.7,76345,List1A,white,woman,,,,,"{""Q0"":""mike and dave are shouting at each other""}","<img src=""stim_listA/shout6.gif""style=""height:400px;""></stim_listA>",are shouting at each other,
null,"<div style=""font-size:60px;"">+</div>",,html-keyboard-response,376,1533922,0.0-19.0-0.8,76345,List1A,white,woman,,,,null,,,,
null,"<img src=""stim_listA/marry7.gif""style=""height:400px;""></stim_listA>",,html-keyboard-response,377,1535930,0.0-19.0-1.8,76345,List1A,white,woman,,,,null,,,,
null,is marrying,,html-keyboard-response,378,1537949,0.0-19.0-2.8,76345,List1A,white,woman,,,,null,,,,
8306,,,survey-text,379,1546260,0.0-19.0-3.8,76345,List1A,white,woman,,,,,"{""Q0"":""kate is marrying jane""}","<img src=""stim_listA/marry7.gif""style=""height:400px;""></stim_listA>",is marrying,
null,"<div style=""font-size:60px;"">+</div>",,html-keyboard-response,380,1546763,0.0-19.0-0.9,76345,List1A,white,woman,,,,null,,,,
null,"<img src=""stim_listA/talk3.gif""style=""height:400px;""></stim_listA>",,html-keyboard-response,381,1548777,0.0-19.0-1.9,76345,List1A,white,woman,,,,null,,,,
null,is talking to,,html-keyboard-response,382,1550779,0.0-19.0-2.9,76345,List1A,white,woman,,,,null,,,,
6333,,,survey-text,383,1557116,0.0-19.0-3.9,76345,List1A,white,woman,,,,,"{""Q0"":""luke is talking to jane""}","<img src=""stim_listA/talk3.gif""style=""height:400px;""></stim_listA>",is talking to,
null,"<div style=""font-size:60px;"">+</div>",,html-keyboard-response,384,1557622,0.0-19.0-0.10,76345,List1A,white,woman,,,,null,,,,
null,"<img src=""stim_listA/kiss4.gif""style=""height:400px;""></stim_listA>",,html-keyboard-response,385,1559631,0.0-19.0-1.10,76345,List1A,white,woman,,,,null,,,,
null,are kissing each other,,html-keyboard-response,386,1561635,0.0-19.0-2.10,76345,List1A,white,woman,,,,null,,,,
7254,,,survey-text,387,1568893,0.0-19.0-3.10,76345,List1A,white,woman,,,,,"{""Q0"":""jane and dave are kissing each other""}","<img src=""stim_listA/kiss4.gif""style=""height:400px;""></stim_listA>",are kissing each other,
null,"<div style=""font-size:60px;"">+</div>",,html-keyboard-response,388,1569410,0.0-19.0-0.11,76345,List1A,white,woman,,,,null,,,,
null,"<img src=""stim_listA/kiss1.gif""style=""height:400px;""></stim_listA>",,html-keyboard-response,389,1571431,0.0-19.0-1.11,76345,List1A,white,woman,,,,null,,,,
null,is kissing,,html-keyboard-response,390,1573435,0.0-19.0-2.11,76345,List1A,white,woman,,,,null,,,,
5374,,,survey-text,391,1578813,0.0-19.0-3.11,76345,List1A,white,woman,,,,,"{""Q0"":""fred is kissing beth""}","<img src=""stim_listA/kiss1.gif""style=""height:400px;""></stim_listA>",is kissing,
null,"<div style=""font-size:60px;"">+</div>",,html-keyboard-response,392,1579318,0.0-19.0-0.12,76345,List1A,white,woman,,,,null,,,,
null,"<img src=""stim_listA/marry5.gif""style=""height:400px;""></stim_listA>",,html-keyboard-response,393,1581342,0.0-19.0-1.12,76345,List1A,white,woman,,,,null,,,,
null,is marrying,,html-keyboard-response,394,1583347,0.0-19.0-2.12,76345,List1A,white,woman,,,,null,,,,
7278,,,survey-text,395,1590629,0.0-19.0-3.12,76345,List1A,white,woman,,,,,"{""Q0"":""mike is marrying luke""}","<img src=""stim_listA/marry5.gif""style=""height:400px;""></stim_listA>",is marrying,
null,"<div style=""font-size:60px;"">+</div>",,html-keyboard-response,396,1591134,0.0-19.0-0.13,76345,List1A,white,woman,,,,null,,,,
null,"<img src=""stim_listA/argue8.gif""style=""height:400px;""></stim_listA>",,html-keyboard-response,397,1593146,0.0-19.0-1.13,76345,List1A,white,woman,,,,null,,,,
null,are arguing with each other,,html-keyboard-response,398,1595163,0.0-19.0-2.13,76345,List1A,white,woman,,,,null,,,,
8085,,,survey-text,399,1603253,0.0-19.0-3.13,76345,List1A,white,woman,,,,,"{""Q0"":""beth and jane are arguing with each other""}","<img src=""stim_listA/argue8.gif""style=""height:400px;""></stim_listA>",are arguing with each other,
null,"<div style=""font-size:60px;"">+</div>",,html-keyboard-response,400,1603758,0.0-19.0-0.14,76345,List1A,white,woman,,,,null,,,,
null,"<img src=""stim_listA/marry2.gif""style=""height:400px;""></stim_listA>",,html-keyboard-response,401,1605776,0.0-19.0-1.14,76345,List1A,white,woman,,,,null,,,,
null,are marrying each other,,html-keyboard-response,402,1607788,0.0-19.0-2.14,76345,List1A,white,woman,,,,null,,,,
8301,,,survey-text,403,1616093,0.0-19.0-3.14,76345,List1A,white,woman,,,,,"{""Q0"":""kate and fred are marrying each other""}","<img src=""stim_listA/marry2.gif""style=""height:400px;""></stim_listA>",are marrying each other,
null,"<div style=""font-size:60px;"">+</div>",,html-keyboard-response,404,1616600,0.0-19.0-0.15,76345,List1A,white,woman,,,,null,,,,
null,"<img src=""stim_listA/argue7.gif""style=""height:400px;""></stim_listA>",,html-keyboard-response,405,1618617,0.0-19.0-1.15,76345,List1A,white,woman,,,,null,,,,
null,is arguing with,,html-keyboard-response,406,1620624,0.0-19.0-2.15,76345,List1A,white,woman,,,,null,,,,
6599,,,survey-text,407,1627227,0.0-19.0-3.15,76345,List1A,white,woman,,,,,"{""Q0"":""kate is arguing with jane""}","<img src=""stim_listA/argue7.gif""style=""height:400px;""></stim_listA>",is arguing with,
null,"<div style=""font-size:60px;"">+</div>",,html-keyboard-response,408,1627730,0.0-19.0-0.16,76345,List1A,white,woman,,,,null,,,,
null,"<img src=""stim_listA/marry3.gif""style=""height:400px;""></stim_listA>",,html-keyboard-response,409,1629750,0.0-19.0-1.16,76345,List1A,white,woman,,,,null,,,,
null,is marrying,,html-keyboard-response,410,1631755,0.0-19.0-2.16,76345,List1A,white,woman,,,,null,,,,
6157,,,survey-text,411,1637915,0.0-19.0-3.16,76345,List1A,white,woman,,,,,"{""Q0"":""jane is marrying dave""}","<img src=""stim_listA/marry3.gif""style=""height:400px;""></stim_listA>",is marrying,
null,"<div style=""font-size:60px;"">+</div>",,html-keyboard-response,412,1638419,0.0-19.0-0.17,76345,List1A,white,woman,,,,null,,,,
null,"<img src=""stim_listA/kiss5.gif""style=""height:400px;""></stim_listA>",,html-keyboard-response,413,1640436,0.0-19.0-1.17,76345,List1A,white,woman,,,,null,,,,
null,is kissing,,html-keyboard-response,414,1642440,0.0-19.0-2.17,76345,List1A,white,woman,,,,null,,,,
6814,,,survey-text,415,1649259,0.0-19.0-3.17,76345,List1A,white,woman,,,,,"{""Q0"":""fred is kissing luke""}","<img src=""stim_listA/kiss5.gif""style=""height:400px;""></stim_listA>",is kissing,
null,"<div style=""font-size:60px;"">+</div>",,html-keyboard-response,416,1649778,0.0-19.0-0.18,76345,List1A,white,woman,,,,null,,,,
null,"<img src=""stim_listA/marry4.gif""style=""height:400px;""></stim_listA>",,html-keyboard-response,417,1651785,0.0-19.0-1.18,76345,List1A,white,woman,,,,null,,,,
null,are marrying each other,,html-keyboard-response,418,1653797,0.0-19.0-2.18,76345,List1A,white,woman,,,,null,,,,
8226,,,survey-text,419,1662027,0.0-19.0-3.18,76345,List1A,white,woman,,,,,"{""Q0"":""jane and luke are  marrying each other""}","<img src=""stim_listA/marry4.gif""style=""height:400px;""></stim_listA>",are marrying each other,
null,"<div style=""font-size:60px;"">+</div>",,html-keyboard-response,420,1662544,0.0-19.0-0.19,76345,List1A,white,woman,,,,null,,,,
null,"<img src=""stim_listA/fight5.gif""style=""height:400px;""></stim_listA>",,html-keyboard-response,421,1664562,0.0-19.0-1.19,76345,List1A,white,woman,,,,null,,,,
null,is fighting,,html-keyboard-response,422,1666569,0.0-19.0-2.19,76345,List1A,white,woman,,,,null,,,,
5319,,,survey-text,423,1671892,0.0-19.0-3.19,76345,List1A,white,woman,,,,,"{""Q0"":""mike is fighting dave""}","<img src=""stim_listA/fight5.gif""style=""height:400px;""></stim_listA>",is fighting,
3322,<p>Thank you for completing that task.</p><p>The final part of this session is a short questionnaire.</p><p>Press Continue.</p>,0,html-button-response,424,1675219,0.0-20.0,76345,List1A,white,woman,,,,,,,,
26596,,,survey-text,425,1702837,0.0-21.0,76345,List1A,white,woman,,,,,"{""Q0"":""56"",""Q1"":""English"",""Q2"":""English"",""Q3"":""United Kingdom"",""Q4"":""caucasian"",""Q5"":""female""}",,,demographics
12463,,,survey-likert,426,1715310,0.0-22.0,76345,List1A,white,woman,,,,,"{""Q0"":4}",,,likert_ESS
25424,,,survey-likert,427,1740741,0.0-23.0,76345,List1A,white,woman,,,,,"{""Q0"":5}",,,likert_NSSAL_Q1
11918,,,survey-likert,428,1752666,0.0-24.0,76345,List1A,white,woman,,,,,"{""Q0"":5}",,,likert_NSSAL_Q2
7304,,,survey-likert,429,1759977,0.0-25.0,76345,List1A,white,woman,,,,,"{""Q0"":4}",,,likert_CGRS_Q1
8985,,,survey-likert,430,1768969,0.0-26.0,76345,List1A,white,woman,,,,,"{""Q0"":4}",,,likert_CGRS_Q2
2937,,,survey-likert,431,1771913,0.0-27.0,76345,List1A,white,woman,,,,,"{""Q0"":4}",,,likert_CGRS_Q3
5234,,,survey-text,432,1777153,0.0-28.0,76345,List1A,white,woman,,,,,"{""Q0"":""ccc""}",,,worker_id
44317,,,external-html,433,1821595,0.0-29.0,76345,List1A,white,woman,debrief.html,,,,,,,
