rt,stimulus,button_pressed,trial_type,trial_index,time_elapsed,internal_node_id,subject,list,ppt_race,ppt_gender,url,first_guess,correct,key_press,responses,image_type,phrase_type,test_part
10208,Welcome to the experiment. Press Continue to begin.,0,html-button-response,0,10263,0.0-0.0,7643,List2A,black,man,,,,,,,,
239352,,,external-html,1,251136,0.0-1.0,7643,List2A,black,man,consent.html,,,,,,,
31256,"<p>On the next page, you will see portraits of 8 people and their names.</p><p>Your first task is to take a few minutes to memorise the names of these people.</p><p>You will have to recall their names during the rest of the experiment, so it is</p><p>essential that you try to memorise these people and their names as best as you can.</p><br><p><strong>You will then be tested on your memory of these names and portraits.</strong></p><br><p>The experiment will start after you have completed this memory test.</p><br><p>Ready?</p>",0,html-button-response,2,282398,0.0-2.0,7643,List2A,black,man,,,,,,,,
164078,"<img src='img/portrait_matrix_list2.jpg' style='width:900px;height:500px;''></img><p>If you have memorised all the portraits and names and are ready to start, press Continue.</p><p><strong>Please note: Your memory of these faces will be tested 4 times during this experiment.</strong></p>",0,html-button-response,3,447495,0.0-3.0-0.0,7643,List2A,black,man,,,,,,,,
3610,"<img src=""portrait/WW2.jpg""style=""height:400px;""></img>",3,html-button-response,4,452110,0.0-3.0-1.0,7643,List2A,black,man,,TRUE,3,,,,,
null,CORRECT,,html-keyboard-response,5,453615,0.0-3.0-2.0-0.0,7643,List2A,black,man,,,,null,,,,
4518,"<img src=""portrait/WW1.jpg""style=""height:400px;""></img>",1,html-button-response,6,458135,0.0-3.0-4.0,7643,List2A,black,man,,TRUE,1,,,,,
null,CORRECT,,html-keyboard-response,7,459637,0.0-3.0-5.0-0.0,7643,List2A,black,man,,,,null,,,,
4225,"<img src=""portrait/WM2.jpg""style=""height:400px;""></img>",7,html-button-response,8,463865,0.0-3.0-7.0,7643,List2A,black,man,,TRUE,7,,,,,
null,CORRECT,,html-keyboard-response,9,465367,0.0-3.0-8.0-0.0,7643,List2A,black,man,,,,null,,,,
3388,"<img src=""portrait/BW1.jpg""style=""height:400px;""></img>",0,html-button-response,10,468757,0.0-3.0-10.0,7643,List2A,black,man,,TRUE,0,,,,,
null,CORRECT,,html-keyboard-response,11,470258,0.0-3.0-11.0-0.0,7643,List2A,black,man,,,,null,,,,
6168,"<img src=""portrait/WM1.jpg""style=""height:400px;""></img>",6,html-button-response,12,476429,0.0-3.0-13.0,7643,List2A,black,man,,TRUE,6,,,,,
null,CORRECT,,html-keyboard-response,13,477931,0.0-3.0-14.0-0.0,7643,List2A,black,man,,,,null,,,,
3227,"<img src=""portrait/BM2.jpg""style=""height:400px;""></img>",5,html-button-response,14,481160,0.0-3.0-16.0,7643,List2A,black,man,,TRUE,5,,,,,
null,CORRECT,,html-keyboard-response,15,482662,0.0-3.0-17.0-0.0,7643,List2A,black,man,,,,null,,,,
5123,"<img src=""portrait/BW2.jpg""style=""height:400px;""></img>",2,html-button-response,16,487787,0.0-3.0-19.0,7643,List2A,black,man,,TRUE,2,,,,,
null,CORRECT,,html-keyboard-response,17,489289,0.0-3.0-20.0-0.0,7643,List2A,black,man,,,,null,,,,
8698,"<img src=""portrait/BM1.jpg""style=""height:400px;""></img>",4,html-button-response,18,497990,0.0-3.0-22.0,7643,List2A,black,man,,TRUE,4,,,,,
null,CORRECT,,html-keyboard-response,19,499492,0.0-3.0-23.0-0.0,7643,List2A,black,man,,,,null,,,,
2606,<p>You got 8 out of 8 right first time. Press Continue.</p>,0,html-button-response,20,502100,0.0-3.0-25.0,7643,List2A,black,man,,,,,,,,
105937,"<p>In this experiment, you will view photographs of the people from the memory game interacting.</p><p>By using the <strong>exact</strong> phrase given <i>after</i> the photograph appears and recalling the correct names of the people in the photographs, form a sentence describing the interaction. You do not need to capitalise names.</p><p>Type your answer in the space provided. Please complete every sentence before moving onto the next trial.</p><p>You will only have a few seconds to memorise each given photograph and phrase before you can respond, so try your best to focus.</p><p>An example is given below. Press 'Continue' when you are ready.</p><img src='img/speaking_example.jpg' style='width:800px;height:460px;''></img>",0,html-button-response,21,609041,0.0-4.0,7643,List2A,black,man,,,,,,,,
10254,"<p>Before the experiment starts, you will watch two example trials. Press 'Continue'.</p>",0,html-button-response,22,620298,0.0-5.0,7643,List2A,black,man,,,,,,,,
null,<img src='img/meet_eg.gif' style='height:400px;''></img>,,html-keyboard-response,23,623300,0.0-6.0,7643,List2A,black,man,,,,null,,,,
null,<p>is meeting</p>,,html-keyboard-response,24,625302,0.0-7.0,7643,List2A,black,man,,,,null,,,,
7331,<p><b>Answer:</b> jane is meeting ruth</p>,0,html-button-response,25,632635,0.0-8.0,7643,List2A,black,man,,,,,,,,
null,<img src='img/look_eg.gif' style='height:400px;''></img>,,html-keyboard-response,26,635637,0.0-9.0,7643,List2A,black,man,,,,null,,,,
null,<p>are looking at each other</p>,,html-keyboard-response,27,637638,0.0-10.0,7643,List2A,black,man,,,,null,,,,
2915,<p><b>Answer:</b> fred and mike are looking at each other</p>,0,html-button-response,28,640555,0.0-11.0,7643,List2A,black,man,,,,,,,,
21103,"<p>Ready to start the experiment?</p><br><p><strong>Remember to describe the picture using a full sentence,</strong></p><p><strong>that combines the names of the people with the <i>exact</i> phrase given.</strong></p><p><strong>To receive full payment you must do this correctly.</strong></p><p><strong> You do not need to capitalise names or use punctuation.</strong></p><br><p>Press 'Continue' to begin.</p>",0,html-button-response,29,662660,0.0-12.0,7643,List2A,black,man,,,,,,,,
null,"<div style=""font-size:60px;"">+</div>",,html-keyboard-response,30,664163,0.0-13.0-0.0,7643,List2A,black,man,,,,null,,,,
null,"<img src=""stim_listA/shout5.gif""style=""height:400px;""></stim_listA>",,html-keyboard-response,31,666166,0.0-13.0-1.0,7643,List2A,black,man,,,,null,,,,
null,is shouting at,,html-keyboard-response,32,668168,0.0-13.0-2.0,7643,List2A,black,man,,,,null,,,,
12180,,,survey-text,33,680388,0.0-13.0-3.0,7643,List2A,black,man,,,,,"{""Q0"":""Luke is shouting at Fred""}","<img src=""stim_listA/shout5.gif""style=""height:400px;""></stim_listA>",is shouting at,
null,"<div style=""font-size:60px;"">+</div>",,html-keyboard-response,34,680890,0.0-13.0-0.1,7643,List2A,black,man,,,,null,,,,
null,"<img src=""stim_listA/shout8.gif""style=""height:400px;""></stim_listA>",,html-keyboard-response,35,682892,0.0-13.0-1.1,7643,List2A,black,man,,,,null,,,,
null,are shouting at each other,,html-keyboard-response,36,684894,0.0-13.0-2.1,7643,List2A,black,man,,,,null,,,,
18192,,,survey-text,37,703088,0.0-13.0-3.1,7643,List2A,black,man,,,,,"{""Q0"":""kate and jane are shouting at each other.""}","<img src=""stim_listA/shout8.gif""style=""height:400px;""></stim_listA>",are shouting at each other,
null,"<div style=""font-size:60px;"">+</div>",,html-keyboard-response,38,703592,0.0-13.0-0.2,7643,List2A,black,man,,,,null,,,,
null,"<img src=""stim_listA/kiss8.gif""style=""height:400px;""></stim_listA>",,html-keyboard-response,39,705595,0.0-13.0-1.2,7643,List2A,black,man,,,,null,,,,
null,are kissing each other,,html-keyboard-response,40,707596,0.0-13.0-2.2,7643,List2A,black,man,,,,null,,,,
22620,,,survey-text,41,730217,0.0-13.0-3.2,7643,List2A,black,man,,,,,"{""Q0"":""kate and jane are kissing each other.""}","<img src=""stim_listA/kiss8.gif""style=""height:400px;""></stim_listA>",are kissing each other,
null,"<div style=""font-size:60px;"">+</div>",,html-keyboard-response,42,730718,0.0-13.0-0.3,7643,List2A,black,man,,,,null,,,,
null,"<img src=""stim_listA/touch7.gif""style=""height:400px;""></stim_listA>",,html-keyboard-response,43,732721,0.0-13.0-1.3,7643,List2A,black,man,,,,null,,,,
null,is touching,,html-keyboard-response,44,734723,0.0-13.0-2.3,7643,List2A,black,man,,,,null,,,,
19737,,,survey-text,45,754462,0.0-13.0-3.3,7643,List2A,black,man,,,,,"{""Q0"":""kate is touching jane""}","<img src=""stim_listA/touch7.gif""style=""height:400px;""></stim_listA>",is touching,
null,"<div style=""font-size:60px;"">+</div>",,html-keyboard-response,46,754964,0.0-13.0-0.4,7643,List2A,black,man,,,,null,,,,
null,"<img src=""stim_listA/dance3.gif""style=""height:400px;""></stim_listA>",,html-keyboard-response,47,756967,0.0-13.0-1.4,7643,List2A,black,man,,,,null,,,,
null,is dancing with,,html-keyboard-response,48,758968,0.0-13.0-2.4,7643,List2A,black,man,,,,null,,,,
29928,,,survey-text,49,788897,0.0-13.0-3.4,7643,List2A,black,man,,,,,"{""Q0"":""fred is dancing with kate.""}","<img src=""stim_listA/dance3.gif""style=""height:400px;""></stim_listA>",is dancing with,
null,"<div style=""font-size:60px;"">+</div>",,html-keyboard-response,50,789399,0.0-13.0-0.5,7643,List2A,black,man,,,,null,,,,
null,"<img src=""stim_listA/argue2.gif""style=""height:400px;""></stim_listA>",,html-keyboard-response,51,791401,0.0-13.0-1.5,7643,List2A,black,man,,,,null,,,,
null,are arguing with each other,,html-keyboard-response,52,793403,0.0-13.0-2.5,7643,List2A,black,man,,,,null,,,,
35722,,,survey-text,53,829127,0.0-13.0-3.5,7643,List2A,black,man,,,,,"{""Q0"":""jane and luke are arguing with each other""}","<img src=""stim_listA/argue2.gif""style=""height:400px;""></stim_listA>",are arguing with each other,
null,"<div style=""font-size:60px;"">+</div>",,html-keyboard-response,54,829629,0.0-13.0-0.6,7643,List2A,black,man,,,,null,,,,
null,"<img src=""stim_listA/touch3.gif""style=""height:400px;""></stim_listA>",,html-keyboard-response,55,831632,0.0-13.0-1.6,7643,List2A,black,man,,,,null,,,,
null,is touching,,html-keyboard-response,56,833633,0.0-13.0-2.6,7643,List2A,black,man,,,,null,,,,
14708,,,survey-text,57,848342,0.0-13.0-3.6,7643,List2A,black,man,,,,,"{""Q0"":""kate is touching mike.""}","<img src=""stim_listA/touch3.gif""style=""height:400px;""></stim_listA>",is touching,
null,"<div style=""font-size:60px;"">+</div>",,html-keyboard-response,58,848844,0.0-13.0-0.7,7643,List2A,black,man,,,,null,,,,
null,"<img src=""stim_listA/flirt2.gif""style=""height:400px;""></stim_listA>",,html-keyboard-response,59,850847,0.0-13.0-1.7,7643,List2A,black,man,,,,null,,,,
null,are flirting with each other,,html-keyboard-response,60,852848,0.0-13.0-2.7,7643,List2A,black,man,,,,null,,,,
30276,,,survey-text,61,883126,0.0-13.0-3.7,7643,List2A,black,man,,,,,"{""Q0"":""dave and ruth are flirting with each other.""}","<img src=""stim_listA/flirt2.gif""style=""height:400px;""></stim_listA>",are flirting with each other,
null,"<div style=""font-size:60px;"">+</div>",,html-keyboard-response,62,883627,0.0-13.0-0.8,7643,List2A,black,man,,,,null,,,,
null,"<img src=""stim_listA/play2.gif""style=""height:400px;""></stim_listA>",,html-keyboard-response,63,885629,0.0-13.0-1.8,7643,List2A,black,man,,,,null,,,,
null,are playing with each other,,html-keyboard-response,64,887630,0.0-13.0-2.8,7643,List2A,black,man,,,,null,,,,
44664,,,survey-text,65,932296,0.0-13.0-3.8,7643,List2A,black,man,,,,,"{""Q0"":""Luke and Ruth are playing with each other.""}","<img src=""stim_listA/play2.gif""style=""height:400px;""></stim_listA>",are playing with each other,
null,"<div style=""font-size:60px;"">+</div>",,html-keyboard-response,66,932880,0.0-13.0-0.9,7643,List2A,black,man,,,,null,,,,
null,"<img src=""stim_listA/flirt7.gif""style=""height:400px;""></stim_listA>",,html-keyboard-response,67,934885,0.0-13.0-1.9,7643,List2A,black,man,,,,null,,,,
null,is flirting with,,html-keyboard-response,68,936887,0.0-13.0-2.9,7643,List2A,black,man,,,,null,,,,
11715,,,survey-text,69,948604,0.0-13.0-3.9,7643,List2A,black,man,,,,,"{""Q0"":""kate is flirting with ruth.""}","<img src=""stim_listA/flirt7.gif""style=""height:400px;""></stim_listA>",is flirting with,
null,"<div style=""font-size:60px;"">+</div>",,html-keyboard-response,70,949106,0.0-13.0-0.10,7643,List2A,black,man,,,,null,,,,
null,"<img src=""stim_listA/talk2.gif""style=""height:400px;""></stim_listA>",,html-keyboard-response,71,951108,0.0-13.0-1.10,7643,List2A,black,man,,,,null,,,,
null,are talking to each other,,html-keyboard-response,72,953109,0.0-13.0-2.10,7643,List2A,black,man,,,,null,,,,
27523,,,survey-text,73,980634,0.0-13.0-3.10,7643,List2A,black,man,,,,,"{""Q0"":""dave and ruth are talking with each other.""}","<img src=""stim_listA/talk2.gif""style=""height:400px;""></stim_listA>",are talking to each other,
null,"<div style=""font-size:60px;"">+</div>",,html-keyboard-response,74,981136,0.0-13.0-0.11,7643,List2A,black,man,,,,null,,,,
null,"<img src=""stim_listA/marry8.gif""style=""height:400px;""></stim_listA>",,html-keyboard-response,75,983139,0.0-13.0-1.11,7643,List2A,black,man,,,,null,,,,
null,are marrying each other,,html-keyboard-response,76,985140,0.0-13.0-2.11,7643,List2A,black,man,,,,null,,,,
17588,,,survey-text,77,1002766,0.0-13.0-3.11,7643,List2A,black,man,,,,,"{""Q0"":""ruth and  kate are marrying each other.""}","<img src=""stim_listA/marry8.gif""style=""height:400px;""></stim_listA>",are marrying each other,
null,"<div style=""font-size:60px;"">+</div>",,html-keyboard-response,78,1003275,0.0-13.0-0.12,7643,List2A,black,man,,,,null,,,,
null,"<img src=""stim_listA/fight1.gif""style=""height:400px;""></stim_listA>",,html-keyboard-response,79,1005284,0.0-13.0-1.12,7643,List2A,black,man,,,,null,,,,
null,is fighting,,html-keyboard-response,80,1007285,0.0-13.0-2.12,7643,List2A,black,man,,,,null,,,,
8826,,,survey-text,81,1016114,0.0-13.0-3.12,7643,List2A,black,man,,,,,"{""Q0"":""jane is fighting dave.""}","<img src=""stim_listA/fight1.gif""style=""height:400px;""></stim_listA>",is fighting,
null,"<div style=""font-size:60px;"">+</div>",,html-keyboard-response,82,1016615,0.0-13.0-0.13,7643,List2A,black,man,,,,null,,,,
null,"<img src=""stim_listA/play7.gif""style=""height:400px;""></stim_listA>",,html-keyboard-response,83,1018618,0.0-13.0-1.13,7643,List2A,black,man,,,,null,,,,
null,is playing with,,html-keyboard-response,84,1020619,0.0-13.0-2.13,7643,List2A,black,man,,,,null,,,,
10253,,,survey-text,85,1030874,0.0-13.0-3.13,7643,List2A,black,man,,,,,"{""Q0"":""jane is playing with kate.""}","<img src=""stim_listA/play7.gif""style=""height:400px;""></stim_listA>",is playing with,
null,"<div style=""font-size:60px;"">+</div>",,html-keyboard-response,86,1031375,0.0-13.0-0.14,7643,List2A,black,man,,,,null,,,,
null,"<img src=""stim_listA/marry6.gif""style=""height:400px;""></stim_listA>",,html-keyboard-response,87,1033378,0.0-13.0-1.14,7643,List2A,black,man,,,,null,,,,
null,are marrying each other,,html-keyboard-response,88,1035379,0.0-13.0-2.14,7643,List2A,black,man,,,,null,,,,
14549,,,survey-text,89,1049930,0.0-13.0-3.14,7643,List2A,black,man,,,,,"{""Q0"":""Luke and Mike are marrying each other.""}","<img src=""stim_listA/marry6.gif""style=""height:400px;""></stim_listA>",are marrying each other,
null,"<div style=""font-size:60px;"">+</div>",,html-keyboard-response,90,1050431,0.0-13.0-0.15,7643,List2A,black,man,,,,null,,,,
null,"<img src=""stim_listA/marry7.gif""style=""height:400px;""></stim_listA>",,html-keyboard-response,91,1052435,0.0-13.0-1.15,7643,List2A,black,man,,,,null,,,,
null,is marrying,,html-keyboard-response,92,1054436,0.0-13.0-2.15,7643,List2A,black,man,,,,null,,,,
22523,,,survey-text,93,1076961,0.0-13.0-3.15,7643,List2A,black,man,,,,,"{""Q0"":""kate is marrying jane""}","<img src=""stim_listA/marry7.gif""style=""height:400px;""></stim_listA>",is marrying,
null,"<div style=""font-size:60px;"">+</div>",,html-keyboard-response,94,1077463,0.0-13.0-0.16,7643,List2A,black,man,,,,null,,,,
null,"<img src=""stim_listA/shout3.gif""style=""height:400px;""></stim_listA>",,html-keyboard-response,95,1079466,0.0-13.0-1.16,7643,List2A,black,man,,,,null,,,,
null,is shouting at,,html-keyboard-response,96,1081467,0.0-13.0-2.16,7643,List2A,black,man,,,,null,,,,
8995,,,survey-text,97,1090463,0.0-13.0-3.16,7643,List2A,black,man,,,,,"{""Q0"":""fred is shouting at beth""}","<img src=""stim_listA/shout3.gif""style=""height:400px;""></stim_listA>",is shouting at,
null,"<div style=""font-size:60px;"">+</div>",,html-keyboard-response,98,1090965,0.0-13.0-0.17,7643,List2A,black,man,,,,null,,,,
null,"<img src=""stim_listA/touch4.gif""style=""height:400px;""></stim_listA>",,html-keyboard-response,99,1092968,0.0-13.0-1.17,7643,List2A,black,man,,,,null,,,,
null,are touching each other,,html-keyboard-response,100,1094969,0.0-13.0-2.17,7643,List2A,black,man,,,,null,,,,
29500,,,survey-text,101,1124471,0.0-13.0-3.17,7643,List2A,black,man,,,,,"{""Q0"":""fred is touching beth""}","<img src=""stim_listA/touch4.gif""style=""height:400px;""></stim_listA>",are touching each other,
null,"<div style=""font-size:60px;"">+</div>",,html-keyboard-response,102,1124973,0.0-13.0-0.18,7643,List2A,black,man,,,,null,,,,
null,"<img src=""stim_listA/play1.gif""style=""height:400px;""></stim_listA>",,html-keyboard-response,103,1126975,0.0-13.0-1.18,7643,List2A,black,man,,,,null,,,,
null,is playing with,,html-keyboard-response,104,1128976,0.0-13.0-2.18,7643,List2A,black,man,,,,null,,,,
15282,,,survey-text,105,1144259,0.0-13.0-3.18,7643,List2A,black,man,,,,,"{""Q0"":""dave is playing with jane""}","<img src=""stim_listA/play1.gif""style=""height:400px;""></stim_listA>",is playing with,
null,"<div style=""font-size:60px;"">+</div>",,html-keyboard-response,106,1144761,0.0-13.0-0.19,7643,List2A,black,man,,,,null,,,,
null,"<img src=""stim_listA/shout2.gif""style=""height:400px;""></stim_listA>",,html-keyboard-response,107,1146764,0.0-13.0-1.19,7643,List2A,black,man,,,,null,,,,
null,are shouting at each other,,html-keyboard-response,108,1148765,0.0-13.0-2.19,7643,List2A,black,man,,,,null,,,,
11801,,,survey-text,109,1160567,0.0-13.0-3.19,7643,List2A,black,man,,,,,"{""Q0"":""jane and dave are shouting at each other""}","<img src=""stim_listA/shout2.gif""style=""height:400px;""></stim_listA>",are shouting at each other,
22090,"<img src='img/portrait_matrix_list2.jpg' style='width:900px;height:500px;''></img><p>If you have memorised all the portraits and names and are ready to start, press Continue.</p><p><strong>Please note: Your memory of these faces will be tested 4 times during this experiment.</strong></p>",0,html-button-response,110,1182661,0.0-14.0-0.0,7643,List2A,black,man,,,,,,,,
3361,"<img src=""portrait/WM1.jpg""style=""height:400px;""></img>",6,html-button-response,111,1187026,0.0-14.0-1.0,7643,List2A,black,man,,TRUE,6,,,,,
null,CORRECT,,html-keyboard-response,112,1188529,0.0-14.0-2.0-0.0,7643,List2A,black,man,,,,null,,,,
2611,"<img src=""portrait/BW2.jpg""style=""height:400px;""></img>",2,html-button-response,113,1191142,0.0-14.0-4.0,7643,List2A,black,man,,TRUE,2,,,,,
null,CORRECT,,html-keyboard-response,114,1192645,0.0-14.0-5.0-0.0,7643,List2A,black,man,,,,null,,,,
1852,"<img src=""portrait/BM1.jpg""style=""height:400px;""></img>",4,html-button-response,115,1194499,0.0-14.0-7.0,7643,List2A,black,man,,TRUE,4,,,,,
null,CORRECT,,html-keyboard-response,116,1196001,0.0-14.0-8.0-0.0,7643,List2A,black,man,,,,null,,,,
3616,"<img src=""portrait/WW1.jpg""style=""height:400px;""></img>",1,html-button-response,117,1199619,0.0-14.0-10.0,7643,List2A,black,man,,TRUE,1,,,,,
null,CORRECT,,html-keyboard-response,118,1201122,0.0-14.0-11.0-0.0,7643,List2A,black,man,,,,null,,,,
2323,"<img src=""portrait/WW2.jpg""style=""height:400px;""></img>",3,html-button-response,119,1203447,0.0-14.0-13.0,7643,List2A,black,man,,TRUE,3,,,,,
null,CORRECT,,html-keyboard-response,120,1204949,0.0-14.0-14.0-0.0,7643,List2A,black,man,,,,null,,,,
5173,"<img src=""portrait/BW1.jpg""style=""height:400px;""></img>",0,html-button-response,121,1210124,0.0-14.0-16.0,7643,List2A,black,man,,TRUE,0,,,,,
null,CORRECT,,html-keyboard-response,122,1211626,0.0-14.0-17.0-0.0,7643,List2A,black,man,,,,null,,,,
6533,"<img src=""portrait/WM2.jpg""style=""height:400px;""></img>",7,html-button-response,123,1218162,0.0-14.0-19.0,7643,List2A,black,man,,TRUE,7,,,,,
null,CORRECT,,html-keyboard-response,124,1219665,0.0-14.0-20.0-0.0,7643,List2A,black,man,,,,null,,,,
5045,"<img src=""portrait/BM2.jpg""style=""height:400px;""></img>",5,html-button-response,125,1224712,0.0-14.0-22.0,7643,List2A,black,man,,TRUE,5,,,,,
null,CORRECT,,html-keyboard-response,126,1226214,0.0-14.0-23.0-0.0,7643,List2A,black,man,,,,null,,,,
5571,<p>You got 8 out of 8 right first time. Press Continue.</p>,0,html-button-response,127,1231787,0.0-14.0-25.0,7643,List2A,black,man,,,,,,,,
null,"<div style=""font-size:60px;"">+</div>",,html-keyboard-response,128,1233290,0.0-15.0-0.0,7643,List2A,black,man,,,,null,,,,
null,"<img src=""stim_listA/kiss7.gif""style=""height:400px;""></stim_listA>",,html-keyboard-response,129,1235293,0.0-15.0-1.0,7643,List2A,black,man,,,,null,,,,
null,is kissing,,html-keyboard-response,130,1237294,0.0-15.0-2.0,7643,List2A,black,man,,,,null,,,,
11701,,,survey-text,131,1248997,0.0-15.0-3.0,7643,List2A,black,man,,,,,"{""Q0"":""beth is kissing ruth""}","<img src=""stim_listA/kiss7.gif""style=""height:400px;""></stim_listA>",is kissing,
null,"<div style=""font-size:60px;"">+</div>",,html-keyboard-response,132,1249498,0.0-15.0-0.1,7643,List2A,black,man,,,,null,,,,
null,"<img src=""stim_listA/fight5.gif""style=""height:400px;""></stim_listA>",,html-keyboard-response,133,1251501,0.0-15.0-1.1,7643,List2A,black,man,,,,null,,,,
null,is fighting,,html-keyboard-response,134,1253502,0.0-15.0-2.1,7643,List2A,black,man,,,,null,,,,
7150,,,survey-text,135,1260654,0.0-15.0-3.1,7643,List2A,black,man,,,,,"{""Q0"":""mike is fighting dave""}","<img src=""stim_listA/fight5.gif""style=""height:400px;""></stim_listA>",is fighting,
null,"<div style=""font-size:60px;"">+</div>",,html-keyboard-response,136,1261155,0.0-15.0-0.2,7643,List2A,black,man,,,,null,,,,
null,"<img src=""stim_listA/marry5.gif""style=""height:400px;""></stim_listA>",,html-keyboard-response,137,1263161,0.0-15.0-1.2,7643,List2A,black,man,,,,null,,,,
null,is marrying,,html-keyboard-response,138,1265162,0.0-15.0-2.2,7643,List2A,black,man,,,,null,,,,
9060,,,survey-text,139,1274224,0.0-15.0-3.2,7643,List2A,black,man,,,,,"{""Q0"":""fred is marrying dave""}","<img src=""stim_listA/marry5.gif""style=""height:400px;""></stim_listA>",is marrying,
null,"<div style=""font-size:60px;"">+</div>",,html-keyboard-response,140,1274725,0.0-15.0-0.3,7643,List2A,black,man,,,,null,,,,
null,"<img src=""stim_listA/touch5.gif""style=""height:400px;""></stim_listA>",,html-keyboard-response,141,1276728,0.0-15.0-1.3,7643,List2A,black,man,,,,null,,,,
null,is touching,,html-keyboard-response,142,1278729,0.0-15.0-2.3,7643,List2A,black,man,,,,null,,,,
10144,,,survey-text,143,1288875,0.0-15.0-3.3,7643,List2A,black,man,,,,,"{""Q0"":""mike is touching dave""}","<img src=""stim_listA/touch5.gif""style=""height:400px;""></stim_listA>",is touching,
null,"<div style=""font-size:60px;"">+</div>",,html-keyboard-response,144,1289379,0.0-15.0-0.4,7643,List2A,black,man,,,,null,,,,
null,"<img src=""stim_listA/dance1.gif""style=""height:400px;""></stim_listA>",,html-keyboard-response,145,1291382,0.0-15.0-1.4,7643,List2A,black,man,,,,null,,,,
null,is dancing with,,html-keyboard-response,146,1293384,0.0-15.0-2.4,7643,List2A,black,man,,,,null,,,,
8387,,,survey-text,147,1301773,0.0-15.0-3.4,7643,List2A,black,man,,,,,"{""Q0"":""jane is dancing with luke""}","<img src=""stim_listA/dance1.gif""style=""height:400px;""></stim_listA>",is dancing with,
null,"<div style=""font-size:60px;"">+</div>",,html-keyboard-response,148,1302275,0.0-15.0-0.5,7643,List2A,black,man,,,,null,,,,
null,"<img src=""stim_listA/shout6.gif""style=""height:400px;""></stim_listA>",,html-keyboard-response,149,1304278,0.0-15.0-1.5,7643,List2A,black,man,,,,null,,,,
null,are shouting at each other,,html-keyboard-response,150,1306279,0.0-15.0-2.5,7643,List2A,black,man,,,,null,,,,
10520,,,survey-text,151,1316801,0.0-15.0-3.5,7643,List2A,black,man,,,,,"{""Q0"":""mike and dave are shouting at each other""}","<img src=""stim_listA/shout6.gif""style=""height:400px;""></stim_listA>",are shouting at each other,
null,"<div style=""font-size:60px;"">+</div>",,html-keyboard-response,152,1317303,0.0-15.0-0.6,7643,List2A,black,man,,,,null,,,,
null,"<img src=""stim_listA/play6.gif""style=""height:400px;""></stim_listA>",,html-keyboard-response,153,1319305,0.0-15.0-1.6,7643,List2A,black,man,,,,null,,,,
null,are playing with each other,,html-keyboard-response,154,1321307,0.0-15.0-2.6,7643,List2A,black,man,,,,null,,,,
15218,,,survey-text,155,1336527,0.0-15.0-3.6,7643,List2A,black,man,,,,,"{""Q0"":""fred and luke are playing with each other""}","<img src=""stim_listA/play6.gif""style=""height:400px;""></stim_listA>",are playing with each other,
null,"<div style=""font-size:60px;"">+</div>",,html-keyboard-response,156,1337028,0.0-15.0-0.7,7643,List2A,black,man,,,,null,,,,
null,"<img src=""stim_listA/argue1.gif""style=""height:400px;""></stim_listA>",,html-keyboard-response,157,1339032,0.0-15.0-1.7,7643,List2A,black,man,,,,null,,,,
null,is arguing with,,html-keyboard-response,158,1341034,0.0-15.0-2.7,7643,List2A,black,man,,,,null,,,,
8539,,,survey-text,159,1349575,0.0-15.0-3.7,7643,List2A,black,man,,,,,"{""Q0"":""ruth is arguing with dave""}","<img src=""stim_listA/argue1.gif""style=""height:400px;""></stim_listA>",is arguing with,
null,"<div style=""font-size:60px;"">+</div>",,html-keyboard-response,160,1350076,0.0-15.0-0.8,7643,List2A,black,man,,,,null,,,,
null,"<img src=""stim_listA/dance4.gif""style=""height:400px;""></stim_listA>",,html-keyboard-response,161,1352079,0.0-15.0-1.8,7643,List2A,black,man,,,,null,,,,
null,are dancing with each other,,html-keyboard-response,162,1354080,0.0-15.0-2.8,7643,List2A,black,man,,,,null,,,,
44458,,,survey-text,163,1398539,0.0-15.0-3.8,7643,List2A,black,man,,,,,"{""Q0"":""mike and kate are dancing with each other""}","<img src=""stim_listA/dance4.gif""style=""height:400px;""></stim_listA>",are dancing with each other,
null,"<div style=""font-size:60px;"">+</div>",,html-keyboard-response,164,1399041,0.0-15.0-0.9,7643,List2A,black,man,,,,null,,,,
null,"<img src=""stim_listA/fight3.gif""style=""height:400px;""></stim_listA>",,html-keyboard-response,165,1401044,0.0-15.0-1.9,7643,List2A,black,man,,,,null,,,,
null,is fighting,,html-keyboard-response,166,1403045,0.0-15.0-2.9,7643,List2A,black,man,,,,null,,,,
9317,,,survey-text,167,1412364,0.0-15.0-3.9,7643,List2A,black,man,,,,,"{""Q0"":""mike is fighting with kate""}","<img src=""stim_listA/fight3.gif""style=""height:400px;""></stim_listA>",is fighting,
null,"<div style=""font-size:60px;"">+</div>",,html-keyboard-response,168,1412865,0.0-15.0-0.10,7643,List2A,black,man,,,,null,,,,
null,"<img src=""stim_listA/touch1.gif""style=""height:400px;""></stim_listA>",,html-keyboard-response,169,1414868,0.0-15.0-1.10,7643,List2A,black,man,,,,null,,,,
null,is touching,,html-keyboard-response,170,1416869,0.0-15.0-2.10,7643,List2A,black,man,,,,null,,,,
13193,,,survey-text,171,1430064,0.0-15.0-3.10,7643,List2A,black,man,,,,,"{""Q0"":""dave is touching jane""}","<img src=""stim_listA/touch1.gif""style=""height:400px;""></stim_listA>",is touching,
null,"<div style=""font-size:60px;"">+</div>",,html-keyboard-response,172,1430566,0.0-15.0-0.11,7643,List2A,black,man,,,,null,,,,
null,"<img src=""stim_listA/fight7.gif""style=""height:400px;""></stim_listA>",,html-keyboard-response,173,1432568,0.0-15.0-1.11,7643,List2A,black,man,,,,null,,,,
null,is fighting,,html-keyboard-response,174,1434570,0.0-15.0-2.11,7643,List2A,black,man,,,,null,,,,
19602,,,survey-text,175,1454174,0.0-15.0-3.11,7643,List2A,black,man,,,,,"{""Q0"":""jane is fighting kate""}","<img src=""stim_listA/fight7.gif""style=""height:400px;""></stim_listA>",is fighting,
null,"<div style=""font-size:60px;"">+</div>",,html-keyboard-response,176,1454676,0.0-15.0-0.12,7643,List2A,black,man,,,,null,,,,
null,"<img src=""stim_listA/argue8.gif""style=""height:400px;""></stim_listA>",,html-keyboard-response,177,1456678,0.0-15.0-1.12,7643,List2A,black,man,,,,null,,,,
null,are arguing with each other,,html-keyboard-response,178,1458679,0.0-15.0-2.12,7643,List2A,black,man,,,,null,,,,
35415,,,survey-text,179,1494097,0.0-15.0-3.12,7643,List2A,black,man,,,,,"{""Q0"":""kate and ruth are fighting with each other""}","<img src=""stim_listA/argue8.gif""style=""height:400px;""></stim_listA>",are arguing with each other,
null,"<div style=""font-size:60px;"">+</div>",,html-keyboard-response,180,1494598,0.0-15.0-0.13,7643,List2A,black,man,,,,null,,,,
null,"<img src=""stim_listA/play4.gif""style=""height:400px;""></stim_listA>",,html-keyboard-response,181,1496601,0.0-15.0-1.13,7643,List2A,black,man,,,,null,,,,
null,are playing with each other,,html-keyboard-response,182,1498602,0.0-15.0-2.13,7643,List2A,black,man,,,,null,,,,
11896,,,survey-text,183,1510500,0.0-15.0-3.13,7643,List2A,black,man,,,,,"{""Q0"":""beth and fred are playing with each other""}","<img src=""stim_listA/play4.gif""style=""height:400px;""></stim_listA>",are playing with each other,
null,"<div style=""font-size:60px;"">+</div>",,html-keyboard-response,184,1511002,0.0-15.0-0.14,7643,List2A,black,man,,,,null,,,,
null,"<img src=""stim_listA/talk5.gif""style=""height:400px;""></stim_listA>",,html-keyboard-response,185,1513005,0.0-15.0-1.14,7643,List2A,black,man,,,,null,,,,
null,is talking to,,html-keyboard-response,186,1515006,0.0-15.0-2.14,7643,List2A,black,man,,,,null,,,,
10971,,,survey-text,187,1525979,0.0-15.0-3.14,7643,List2A,black,man,,,,,"{""Q0"":""mike is talking to luke""}","<img src=""stim_listA/talk5.gif""style=""height:400px;""></stim_listA>",is talking to,
null,"<div style=""font-size:60px;"">+</div>",,html-keyboard-response,188,1526480,0.0-15.0-0.15,7643,List2A,black,man,,,,null,,,,
null,"<img src=""stim_listA/kiss6.gif""style=""height:400px;""></stim_listA>",,html-keyboard-response,189,1528483,0.0-15.0-1.15,7643,List2A,black,man,,,,null,,,,
null,are kissing each other,,html-keyboard-response,190,1530484,0.0-15.0-2.15,7643,List2A,black,man,,,,null,,,,
12463,,,survey-text,191,1542949,0.0-15.0-3.15,7643,List2A,black,man,,,,,"{""Q0"":""dave and mike are kissing each other""}","<img src=""stim_listA/kiss6.gif""style=""height:400px;""></stim_listA>",are kissing each other,
null,"<div style=""font-size:60px;"">+</div>",,html-keyboard-response,192,1543450,0.0-15.0-0.16,7643,List2A,black,man,,,,null,,,,
null,"<img src=""stim_listA/dance5.gif""style=""height:400px;""></stim_listA>",,html-keyboard-response,193,1545452,0.0-15.0-1.16,7643,List2A,black,man,,,,null,,,,
null,is dancing with,,html-keyboard-response,194,1547454,0.0-15.0-2.16,7643,List2A,black,man,,,,null,,,,
8324,,,survey-text,195,1555782,0.0-15.0-3.16,7643,List2A,black,man,,,,,"{""Q0"":""mike is dancing with luke""}","<img src=""stim_listA/dance5.gif""style=""height:400px;""></stim_listA>",is dancing with,
null,"<div style=""font-size:60px;"">+</div>",,html-keyboard-response,196,1556284,0.0-15.0-0.17,7643,List2A,black,man,,,,null,,,,
null,"<img src=""stim_listA/flirt6.gif""style=""height:400px;""></stim_listA>",,html-keyboard-response,197,1558287,0.0-15.0-1.17,7643,List2A,black,man,,,,null,,,,
null,are flirting with each other,,html-keyboard-response,198,1560288,0.0-15.0-2.17,7643,List2A,black,man,,,,null,,,,
17053,,,survey-text,199,1577345,0.0-15.0-3.17,7643,List2A,black,man,,,,,"{""Q0"":""fred and dave are flirting with each other""}","<img src=""stim_listA/flirt6.gif""style=""height:400px;""></stim_listA>",are flirting with each other,
null,"<div style=""font-size:60px;"">+</div>",,html-keyboard-response,200,1577847,0.0-15.0-0.18,7643,List2A,black,man,,,,null,,,,
null,"<img src=""stim_listA/touch8.gif""style=""height:400px;""></stim_listA>",,html-keyboard-response,201,1579849,0.0-15.0-1.18,7643,List2A,black,man,,,,null,,,,
null,are touching each other,,html-keyboard-response,202,1581851,0.0-15.0-2.18,7643,List2A,black,man,,,,null,,,,
11290,,,survey-text,203,1593147,0.0-15.0-3.18,7643,List2A,black,man,,,,,"{""Q0"":""beth and ruth are touching each other""}","<img src=""stim_listA/touch8.gif""style=""height:400px;""></stim_listA>",are touching each other,
null,"<div style=""font-size:60px;"">+</div>",,html-keyboard-response,204,1593650,0.0-15.0-0.19,7643,List2A,black,man,,,,null,,,,
null,"<img src=""stim_listA/argue5.gif""style=""height:400px;""></stim_listA>",,html-keyboard-response,205,1595653,0.0-15.0-1.19,7643,List2A,black,man,,,,null,,,,
null,is arguing with,,html-keyboard-response,206,1597655,0.0-15.0-2.19,7643,List2A,black,man,,,,null,,,,
11904,,,survey-text,207,1609560,0.0-15.0-3.19,7643,List2A,black,man,,,,,"{""Q0"":""dave is arguing with fred""}","<img src=""stim_listA/argue5.gif""style=""height:400px;""></stim_listA>",is arguing with,
31894,"<img src='img/portrait_matrix_list2.jpg' style='width:900px;height:500px;''></img><p>If you have memorised all the portraits and names and are ready to start, press Continue.</p><p><strong>Please note: Your memory of these faces will be tested 4 times during this experiment.</strong></p>",0,html-button-response,208,1641483,0.0-16.0-0.0,7643,List2A,black,man,,,,,,,,
1769,"<img src=""portrait/WW2.jpg""style=""height:400px;""></img>",3,html-button-response,209,1644254,0.0-16.0-1.0,7643,List2A,black,man,,TRUE,3,,,,,
null,CORRECT,,html-keyboard-response,210,1645756,0.0-16.0-2.0-0.0,7643,List2A,black,man,,,,null,,,,
2801,"<img src=""portrait/WM1.jpg""style=""height:400px;""></img>",6,html-button-response,211,1648559,0.0-16.0-4.0,7643,List2A,black,man,,TRUE,6,,,,,
null,CORRECT,,html-keyboard-response,212,1650061,0.0-16.0-5.0-0.0,7643,List2A,black,man,,,,null,,,,
3825,"<img src=""portrait/BW1.jpg""style=""height:400px;""></img>",0,html-button-response,213,1653889,0.0-16.0-7.0,7643,List2A,black,man,,TRUE,0,,,,,
null,CORRECT,,html-keyboard-response,214,1655391,0.0-16.0-8.0-0.0,7643,List2A,black,man,,,,null,,,,
2883,"<img src=""portrait/WM2.jpg""style=""height:400px;""></img>",7,html-button-response,215,1658278,0.0-16.0-10.0,7643,List2A,black,man,,TRUE,7,,,,,
null,CORRECT,,html-keyboard-response,216,1659779,0.0-16.0-11.0-0.0,7643,List2A,black,man,,,,null,,,,
2816,"<img src=""portrait/BM2.jpg""style=""height:400px;""></img>",5,html-button-response,217,1662598,0.0-16.0-13.0,7643,List2A,black,man,,TRUE,5,,,,,
null,CORRECT,,html-keyboard-response,218,1664100,0.0-16.0-14.0-0.0,7643,List2A,black,man,,,,null,,,,
1686,"<img src=""portrait/BM1.jpg""style=""height:400px;""></img>",4,html-button-response,219,1665788,0.0-16.0-16.0,7643,List2A,black,man,,TRUE,4,,,,,
null,CORRECT,,html-keyboard-response,220,1667290,0.0-16.0-17.0-0.0,7643,List2A,black,man,,,,null,,,,
3267,"<img src=""portrait/BW2.jpg""style=""height:400px;""></img>",2,html-button-response,221,1670560,0.0-16.0-19.0,7643,List2A,black,man,,TRUE,2,,,,,
null,CORRECT,,html-keyboard-response,222,1672062,0.0-16.0-20.0-0.0,7643,List2A,black,man,,,,null,,,,
2678,"<img src=""portrait/WW1.jpg""style=""height:400px;""></img>",1,html-button-response,223,1674741,0.0-16.0-22.0,7643,List2A,black,man,,TRUE,1,,,,,
null,CORRECT,,html-keyboard-response,224,1676244,0.0-16.0-23.0-0.0,7643,List2A,black,man,,,,null,,,,
1901,<p>You got 8 out of 8 right first time. Press Continue.</p>,0,html-button-response,225,1678147,0.0-16.0-25.0,7643,List2A,black,man,,,,,,,,
null,"<div style=""font-size:60px;"">+</div>",,html-keyboard-response,226,1679650,0.0-17.0-0.0,7643,List2A,black,man,,,,null,,,,
null,"<img src=""stim_listA/marry3.gif""style=""height:400px;""></stim_listA>",,html-keyboard-response,227,1681652,0.0-17.0-1.0,7643,List2A,black,man,,,,null,,,,
null,is marrying,,html-keyboard-response,228,1683654,0.0-17.0-2.0,7643,List2A,black,man,,,,null,,,,
8988,,,survey-text,229,1692644,0.0-17.0-3.0,7643,List2A,black,man,,,,,"{""Q0"":""mike is marrying beth""}","<img src=""stim_listA/marry3.gif""style=""height:400px;""></stim_listA>",is marrying,
null,"<div style=""font-size:60px;"">+</div>",,html-keyboard-response,230,1693146,0.0-17.0-0.1,7643,List2A,black,man,,,,null,,,,
null,"<img src=""stim_listA/talk6.gif""style=""height:400px;""></stim_listA>",,html-keyboard-response,231,1695148,0.0-17.0-1.1,7643,List2A,black,man,,,,null,,,,
null,are talking to each other,,html-keyboard-response,232,1697150,0.0-17.0-2.1,7643,List2A,black,man,,,,null,,,,
17310,,,survey-text,233,1714462,0.0-17.0-3.1,7643,List2A,black,man,,,,,"{""Q0"":""dave and fred are talking to each other""}","<img src=""stim_listA/talk6.gif""style=""height:400px;""></stim_listA>",are talking to each other,
null,"<div style=""font-size:60px;"">+</div>",,html-keyboard-response,234,1714964,0.0-17.0-0.2,7643,List2A,black,man,,,,null,,,,
null,"<img src=""stim_listA/argue6.gif""style=""height:400px;""></stim_listA>",,html-keyboard-response,235,1716967,0.0-17.0-1.2,7643,List2A,black,man,,,,null,,,,
null,are arguing with each other,,html-keyboard-response,236,1718968,0.0-17.0-2.2,7643,List2A,black,man,,,,null,,,,
10695,,,survey-text,237,1729665,0.0-17.0-3.2,7643,List2A,black,man,,,,,"{""Q0"":""luke and mike are arguing with each other""}","<img src=""stim_listA/argue6.gif""style=""height:400px;""></stim_listA>",are arguing with each other,
null,"<div style=""font-size:60px;"">+</div>",,html-keyboard-response,238,1730169,0.0-17.0-0.3,7643,List2A,black,man,,,,null,,,,
null,"<img src=""stim_listA/argue7.gif""style=""height:400px;""></stim_listA>",,html-keyboard-response,239,1732172,0.0-17.0-1.3,7643,List2A,black,man,,,,null,,,,
null,is arguing with,,html-keyboard-response,240,1734173,0.0-17.0-2.3,7643,List2A,black,man,,,,null,,,,
12070,,,survey-text,241,1746245,0.0-17.0-3.3,7643,List2A,black,man,,,,,"{""Q0"":""jane is arguing with beth""}","<img src=""stim_listA/argue7.gif""style=""height:400px;""></stim_listA>",is arguing with,
null,"<div style=""font-size:60px;"">+</div>",,html-keyboard-response,242,1746747,0.0-17.0-0.4,7643,List2A,black,man,,,,null,,,,
null,"<img src=""stim_listA/marry2.gif""style=""height:400px;""></stim_listA>",,html-keyboard-response,243,1748749,0.0-17.0-1.4,7643,List2A,black,man,,,,null,,,,
null,are marrying each other,,html-keyboard-response,244,1750750,0.0-17.0-2.4,7643,List2A,black,man,,,,null,,,,
19158,,,survey-text,245,1769911,0.0-17.0-3.4,7643,List2A,black,man,,,,,"{""Q0"":""luke and jane are marrying each other""}","<img src=""stim_listA/marry2.gif""style=""height:400px;""></stim_listA>",are marrying each other,
null,"<div style=""font-size:60px;"">+</div>",,html-keyboard-response,246,1770413,0.0-17.0-0.5,7643,List2A,black,man,,,,null,,,,
null,"<img src=""stim_listA/play8.gif""style=""height:400px;""></stim_listA>",,html-keyboard-response,247,1772416,0.0-17.0-1.5,7643,List2A,black,man,,,,null,,,,
null,are playing with each other,,html-keyboard-response,248,1774417,0.0-17.0-2.5,7643,List2A,black,man,,,,null,,,,
12131,,,survey-text,249,1786550,0.0-17.0-3.5,7643,List2A,black,man,,,,,"{""Q0"":""ruth and beth are playing with each other""}","<img src=""stim_listA/play8.gif""style=""height:400px;""></stim_listA>",are playing with each other,
null,"<div style=""font-size:60px;"">+</div>",,html-keyboard-response,250,1787051,0.0-17.0-0.6,7643,List2A,black,man,,,,null,,,,
null,"<img src=""stim_listA/talk8.gif""style=""height:400px;""></stim_listA>",,html-keyboard-response,251,1789055,0.0-17.0-1.6,7643,List2A,black,man,,,,null,,,,
null,are talking to each other,,html-keyboard-response,252,1791056,0.0-17.0-2.6,7643,List2A,black,man,,,,null,,,,
19728,,,survey-text,253,1810786,0.0-17.0-3.6,7643,List2A,black,man,,,,,"{""Q0"":""beth and jane are talking with each other ""}","<img src=""stim_listA/talk8.gif""style=""height:400px;""></stim_listA>",are talking to each other,
null,"<div style=""font-size:60px;"">+</div>",,html-keyboard-response,254,1811287,0.0-17.0-0.7,7643,List2A,black,man,,,,null,,,,
null,"<img src=""stim_listA/fight2.gif""style=""height:400px;""></stim_listA>",,html-keyboard-response,255,1813290,0.0-17.0-1.7,7643,List2A,black,man,,,,null,,,,
null,are fighting each other,,html-keyboard-response,256,1815291,0.0-17.0-2.7,7643,List2A,black,man,,,,null,,,,
12255,,,survey-text,257,1827548,0.0-17.0-3.7,7643,List2A,black,man,,,,,"{""Q0"":""ruth and luke are fighting with each other""}","<img src=""stim_listA/fight2.gif""style=""height:400px;""></stim_listA>",are fighting each other,
null,"<div style=""font-size:60px;"">+</div>",,html-keyboard-response,258,1828049,0.0-17.0-0.8,7643,List2A,black,man,,,,null,,,,
null,"<img src=""stim_listA/flirt1.gif""style=""height:400px;""></stim_listA>",,html-keyboard-response,259,1830052,0.0-17.0-1.8,7643,List2A,black,man,,,,null,,,,
null,is flirting with,,html-keyboard-response,260,1832053,0.0-17.0-2.8,7643,List2A,black,man,,,,null,,,,
9688,,,survey-text,261,1841743,0.0-17.0-3.8,7643,List2A,black,man,,,,,"{""Q0"":""luke is flirting with jane""}","<img src=""stim_listA/flirt1.gif""style=""height:400px;""></stim_listA>",is flirting with,
null,"<div style=""font-size:60px;"">+</div>",,html-keyboard-response,262,1842245,0.0-17.0-0.9,7643,List2A,black,man,,,,null,,,,
null,"<img src=""stim_listA/marry4.gif""style=""height:400px;""></stim_listA>",,html-keyboard-response,263,1844248,0.0-17.0-1.9,7643,List2A,black,man,,,,null,,,,
null,are marrying each other,,html-keyboard-response,264,1846249,0.0-17.0-2.9,7643,List2A,black,man,,,,null,,,,
11459,,,survey-text,265,1857710,0.0-17.0-3.9,7643,List2A,black,man,,,,,"{""Q0"":""fred and kate are marrying each other""}","<img src=""stim_listA/marry4.gif""style=""height:400px;""></stim_listA>",are marrying each other,
null,"<div style=""font-size:60px;"">+</div>",,html-keyboard-response,266,1858211,0.0-17.0-0.10,7643,List2A,black,man,,,,null,,,,
null,"<img src=""stim_listA/flirt5.gif""style=""height:400px;""></stim_listA>",,html-keyboard-response,267,1860214,0.0-17.0-1.10,7643,List2A,black,man,,,,null,,,,
null,is flirting with,,html-keyboard-response,268,1862216,0.0-17.0-2.10,7643,List2A,black,man,,,,null,,,,
9898,,,survey-text,269,1872116,0.0-17.0-3.10,7643,List2A,black,man,,,,,"{""Q0"":""mike is flirting with luke""}","<img src=""stim_listA/flirt5.gif""style=""height:400px;""></stim_listA>",is flirting with,
null,"<div style=""font-size:60px;"">+</div>",,html-keyboard-response,270,1872618,0.0-17.0-0.11,7643,List2A,black,man,,,,null,,,,
null,"<img src=""stim_listA/play3.gif""style=""height:400px;""></stim_listA>",,html-keyboard-response,271,1874620,0.0-17.0-1.11,7643,List2A,black,man,,,,null,,,,
null,is playing with,,html-keyboard-response,272,1876621,0.0-17.0-2.11,7643,List2A,black,man,,,,null,,,,
9304,,,survey-text,273,1885926,0.0-17.0-3.11,7643,List2A,black,man,,,,,"{""Q0"":""mike is playing with kate""}","<img src=""stim_listA/play3.gif""style=""height:400px;""></stim_listA>",is playing with,
null,"<div style=""font-size:60px;"">+</div>",,html-keyboard-response,274,1886428,0.0-17.0-0.12,7643,List2A,black,man,,,,null,,,,
null,"<img src=""stim_listA/fight6.gif""style=""height:400px;""></stim_listA>",,html-keyboard-response,275,1888431,0.0-17.0-1.12,7643,List2A,black,man,,,,null,,,,
null,are fighting each other,,html-keyboard-response,276,1890433,0.0-17.0-2.12,7643,List2A,black,man,,,,null,,,,
16804,,,survey-text,277,1907240,0.0-17.0-3.12,7643,List2A,black,man,,,,,"{""Q0"":""fred and luke are fighting each other""}","<img src=""stim_listA/fight6.gif""style=""height:400px;""></stim_listA>",are fighting each other,
null,"<div style=""font-size:60px;"">+</div>",,html-keyboard-response,278,1907742,0.0-17.0-0.13,7643,List2A,black,man,,,,null,,,,
null,"<img src=""stim_listA/argue4.gif""style=""height:400px;""></stim_listA>",,html-keyboard-response,279,1909745,0.0-17.0-1.13,7643,List2A,black,man,,,,null,,,,
null,are arguing with each other,,html-keyboard-response,280,1911746,0.0-17.0-2.13,7643,List2A,black,man,,,,null,,,,
12263,,,survey-text,281,1924011,0.0-17.0-3.13,7643,List2A,black,man,,,,,"{""Q0"":""fred and kate are arguing with each other""}","<img src=""stim_listA/argue4.gif""style=""height:400px;""></stim_listA>",are arguing with each other,
null,"<div style=""font-size:60px;"">+</div>",,html-keyboard-response,282,1924513,0.0-17.0-0.14,7643,List2A,black,man,,,,null,,,,
null,"<img src=""stim_listA/dance7.gif""style=""height:400px;""></stim_listA>",,html-keyboard-response,283,1926515,0.0-17.0-1.14,7643,List2A,black,man,,,,null,,,,
null,is dancing with,,html-keyboard-response,284,1928517,0.0-17.0-2.14,7643,List2A,black,man,,,,null,,,,
11079,,,survey-text,285,1939598,0.0-17.0-3.14,7643,List2A,black,man,,,,,"{""Q0"":""kate is dancing with ruth""}","<img src=""stim_listA/dance7.gif""style=""height:400px;""></stim_listA>",is dancing with,
null,"<div style=""font-size:60px;"">+</div>",,html-keyboard-response,286,1940104,0.0-17.0-0.15,7643,List2A,black,man,,,,null,,,,
null,"<img src=""stim_listA/argue3.gif""style=""height:400px;""></stim_listA>",,html-keyboard-response,287,1942106,0.0-17.0-1.15,7643,List2A,black,man,,,,null,,,,
null,is arguing with,,html-keyboard-response,288,1944108,0.0-17.0-2.15,7643,List2A,black,man,,,,null,,,,
11413,,,survey-text,289,1955523,0.0-17.0-3.15,7643,List2A,black,man,,,,,"{""Q0"":""mike is arguing with beth""}","<img src=""stim_listA/argue3.gif""style=""height:400px;""></stim_listA>",is arguing with,
null,"<div style=""font-size:60px;"">+</div>",,html-keyboard-response,290,1956024,0.0-17.0-0.16,7643,List2A,black,man,,,,null,,,,
null,"<img src=""stim_listA/kiss5.gif""style=""height:400px;""></stim_listA>",,html-keyboard-response,291,1958027,0.0-17.0-1.16,7643,List2A,black,man,,,,null,,,,
null,is kissing,,html-keyboard-response,292,1960028,0.0-17.0-2.16,7643,List2A,black,man,,,,null,,,,
9857,,,survey-text,293,1969887,0.0-17.0-3.16,7643,List2A,black,man,,,,,"{""Q0"":""luke is kissing fred""}","<img src=""stim_listA/kiss5.gif""style=""height:400px;""></stim_listA>",is kissing,
null,"<div style=""font-size:60px;"">+</div>",,html-keyboard-response,294,1970389,0.0-17.0-0.17,7643,List2A,black,man,,,,null,,,,
null,"<img src=""stim_listA/touch6.gif""style=""height:400px;""></stim_listA>",,html-keyboard-response,295,1972392,0.0-17.0-1.17,7643,List2A,black,man,,,,null,,,,
null,are touching each other,,html-keyboard-response,296,1974393,0.0-17.0-2.17,7643,List2A,black,man,,,,null,,,,
10645,,,survey-text,297,1985039,0.0-17.0-3.17,7643,List2A,black,man,,,,,"{""Q0"":""fred and luke are touching each other""}","<img src=""stim_listA/touch6.gif""style=""height:400px;""></stim_listA>",are touching each other,
null,"<div style=""font-size:60px;"">+</div>",,html-keyboard-response,298,1985542,0.0-17.0-0.18,7643,List2A,black,man,,,,null,,,,
null,"<img src=""stim_listA/dance8.gif""style=""height:400px;""></stim_listA>",,html-keyboard-response,299,1987545,0.0-17.0-1.18,7643,List2A,black,man,,,,null,,,,
null,are dancing with each other,,html-keyboard-response,300,1989546,0.0-17.0-2.18,7643,List2A,black,man,,,,null,,,,
11185,,,survey-text,301,2000733,0.0-17.0-3.18,7643,List2A,black,man,,,,,"{""Q0"":""beth and jane are dancing with each other""}","<img src=""stim_listA/dance8.gif""style=""height:400px;""></stim_listA>",are dancing with each other,
null,"<div style=""font-size:60px;"">+</div>",,html-keyboard-response,302,2001234,0.0-17.0-0.19,7643,List2A,black,man,,,,null,,,,
null,"<img src=""stim_listA/dance6.gif""style=""height:400px;""></stim_listA>",,html-keyboard-response,303,2003237,0.0-17.0-1.19,7643,List2A,black,man,,,,null,,,,
null,are dancing with each other,,html-keyboard-response,304,2005238,0.0-17.0-2.19,7643,List2A,black,man,,,,null,,,,
18503,,,survey-text,305,2023743,0.0-17.0-3.19,7643,List2A,black,man,,,,,"{""Q0"":""dave and fred are dancing with each other""}","<img src=""stim_listA/dance6.gif""style=""height:400px;""></stim_listA>",are dancing with each other,
5491,"<img src='img/portrait_matrix_list2.jpg' style='width:900px;height:500px;''></img><p>If you have memorised all the portraits and names and are ready to start, press Continue.</p><p><strong>Please note: Your memory of these faces will be tested 4 times during this experiment.</strong></p>",0,html-button-response,306,2029277,0.0-18.0-0.0,7643,List2A,black,man,,,,,,,,
1585,"<img src=""portrait/WW2.jpg""style=""height:400px;""></img>",3,html-button-response,307,2031865,0.0-18.0-1.0,7643,List2A,black,man,,TRUE,3,,,,,
null,CORRECT,,html-keyboard-response,308,2033367,0.0-18.0-2.0-0.0,7643,List2A,black,man,,,,null,,,,
1557,"<img src=""portrait/BW2.jpg""style=""height:400px;""></img>",2,html-button-response,309,2034927,0.0-18.0-4.0,7643,List2A,black,man,,TRUE,2,,,,,
null,CORRECT,,html-keyboard-response,310,2036429,0.0-18.0-5.0-0.0,7643,List2A,black,man,,,,null,,,,
2734,"<img src=""portrait/WM2.jpg""style=""height:400px;""></img>",7,html-button-response,311,2039166,0.0-18.0-7.0,7643,List2A,black,man,,TRUE,7,,,,,
null,CORRECT,,html-keyboard-response,312,2040668,0.0-18.0-8.0-0.0,7643,List2A,black,man,,,,null,,,,
3511,"<img src=""portrait/WW1.jpg""style=""height:400px;""></img>",1,html-button-response,313,2044181,0.0-18.0-10.0,7643,List2A,black,man,,TRUE,1,,,,,
null,CORRECT,,html-keyboard-response,314,2045684,0.0-18.0-11.0-0.0,7643,List2A,black,man,,,,null,,,,
2305,"<img src=""portrait/BM2.jpg""style=""height:400px;""></img>",5,html-button-response,315,2047991,0.0-18.0-13.0,7643,List2A,black,man,,TRUE,5,,,,,
null,CORRECT,,html-keyboard-response,316,2049494,0.0-18.0-14.0-0.0,7643,List2A,black,man,,,,null,,,,
3512,"<img src=""portrait/WM1.jpg""style=""height:400px;""></img>",6,html-button-response,317,2053084,0.0-18.0-16.0,7643,List2A,black,man,,TRUE,6,,,,,
null,CORRECT,,html-keyboard-response,318,2054586,0.0-18.0-17.0-0.0,7643,List2A,black,man,,,,null,,,,
2282,"<img src=""portrait/BM1.jpg""style=""height:400px;""></img>",4,html-button-response,319,2056871,0.0-18.0-19.0,7643,List2A,black,man,,TRUE,4,,,,,
null,CORRECT,,html-keyboard-response,320,2058374,0.0-18.0-20.0-0.0,7643,List2A,black,man,,,,null,,,,
2620,"<img src=""portrait/BW1.jpg""style=""height:400px;""></img>",0,html-button-response,321,2060996,0.0-18.0-22.0,7643,List2A,black,man,,TRUE,0,,,,,
null,CORRECT,,html-keyboard-response,322,2062498,0.0-18.0-23.0-0.0,7643,List2A,black,man,,,,null,,,,
2477,<p>You got 8 out of 8 right first time. Press Continue.</p>,0,html-button-response,323,2064977,0.0-18.0-25.0,7643,List2A,black,man,,,,,,,,
null,"<div style=""font-size:60px;"">+</div>",,html-keyboard-response,324,2066479,0.0-19.0-0.0,7643,List2A,black,man,,,,null,,,,
null,"<img src=""stim_listA/fight4.gif""style=""height:400px;""></stim_listA>",,html-keyboard-response,325,2068482,0.0-19.0-1.0,7643,List2A,black,man,,,,null,,,,
null,are fighting each other,,html-keyboard-response,326,2070484,0.0-19.0-2.0,7643,List2A,black,man,,,,null,,,,
15599,,,survey-text,327,2086084,0.0-19.0-3.0,7643,List2A,black,man,,,,,"{""Q0"":""beth and fred are fighting each other""}","<img src=""stim_listA/fight4.gif""style=""height:400px;""></stim_listA>",are fighting each other,
null,"<div style=""font-size:60px;"">+</div>",,html-keyboard-response,328,2086586,0.0-19.0-0.1,7643,List2A,black,man,,,,null,,,,
null,"<img src=""stim_listA/talk1.gif""style=""height:400px;""></stim_listA>",,html-keyboard-response,329,2088590,0.0-19.0-1.1,7643,List2A,black,man,,,,null,,,,
null,is talking to,,html-keyboard-response,330,2090591,0.0-19.0-2.1,7643,List2A,black,man,,,,null,,,,
9977,,,survey-text,331,2100570,0.0-19.0-3.1,7643,List2A,black,man,,,,,"{""Q0"":""jane is talking to luke""}","<img src=""stim_listA/talk1.gif""style=""height:400px;""></stim_listA>",is talking to,
null,"<div style=""font-size:60px;"">+</div>",,html-keyboard-response,332,2101072,0.0-19.0-0.2,7643,List2A,black,man,,,,null,,,,
null,"<img src=""stim_listA/talk3.gif""style=""height:400px;""></stim_listA>",,html-keyboard-response,333,2103074,0.0-19.0-1.2,7643,List2A,black,man,,,,null,,,,
null,is talking to,,html-keyboard-response,334,2105075,0.0-19.0-2.2,7643,List2A,black,man,,,,null,,,,
7393,,,survey-text,335,2112470,0.0-19.0-3.2,7643,List2A,black,man,,,,,"{""Q0"":""fred is talking to kate""}","<img src=""stim_listA/talk3.gif""style=""height:400px;""></stim_listA>",is talking to,
null,"<div style=""font-size:60px;"">+</div>",,html-keyboard-response,336,2112971,0.0-19.0-0.3,7643,List2A,black,man,,,,null,,,,
null,"<img src=""stim_listA/shout4.gif""style=""height:400px;""></stim_listA>",,html-keyboard-response,337,2114974,0.0-19.0-1.3,7643,List2A,black,man,,,,null,,,,
null,are shouting at each other,,html-keyboard-response,338,2116975,0.0-19.0-2.3,7643,List2A,black,man,,,,null,,,,
15891,,,survey-text,339,2132866,0.0-19.0-3.3,7643,List2A,black,man,,,,,"{""Q0"":""mike and kate are shouting at each other""}","<img src=""stim_listA/shout4.gif""style=""height:400px;""></stim_listA>",are shouting at each other,
null,"<div style=""font-size:60px;"">+</div>",,html-keyboard-response,340,2133368,0.0-19.0-0.4,7643,List2A,black,man,,,,null,,,,
null,"<img src=""stim_listA/kiss1.gif""style=""height:400px;""></stim_listA>",,html-keyboard-response,341,2135371,0.0-19.0-1.4,7643,List2A,black,man,,,,null,,,,
null,is kissing,,html-keyboard-response,342,2137373,0.0-19.0-2.4,7643,List2A,black,man,,,,null,,,,
18062,,,survey-text,343,2155437,0.0-19.0-3.4,7643,List2A,black,man,,,,,"{""Q0"":""luke is kissing ruth""}","<img src=""stim_listA/kiss1.gif""style=""height:400px;""></stim_listA>",is kissing,
null,"<div style=""font-size:60px;"">+</div>",,html-keyboard-response,344,2155939,0.0-19.0-0.5,7643,List2A,black,man,,,,null,,,,
null,"<img src=""stim_listA/talk7.gif""style=""height:400px;""></stim_listA>",,html-keyboard-response,345,2157942,0.0-19.0-1.5,7643,List2A,black,man,,,,null,,,,
null,is talking to,,html-keyboard-response,346,2159943,0.0-19.0-2.5,7643,List2A,black,man,,,,null,,,,
9680,,,survey-text,347,2169625,0.0-19.0-3.5,7643,List2A,black,man,,,,,"{""Q0"":""ruth is talking to kate""}","<img src=""stim_listA/talk7.gif""style=""height:400px;""></stim_listA>",is talking to,
null,"<div style=""font-size:60px;"">+</div>",,html-keyboard-response,348,2170126,0.0-19.0-0.6,7643,List2A,black,man,,,,null,,,,
null,"<img src=""stim_listA/marry1.gif""style=""height:400px;""></stim_listA>",,html-keyboard-response,349,2172129,0.0-19.0-1.6,7643,List2A,black,man,,,,null,,,,
null,is marrying,,html-keyboard-response,350,2174130,0.0-19.0-2.6,7643,List2A,black,man,,,,null,,,,
8544,,,survey-text,351,2182677,0.0-19.0-3.6,7643,List2A,black,man,,,,,"{""Q0"":""ruth is marrying dave""}","<img src=""stim_listA/marry1.gif""style=""height:400px;""></stim_listA>",is marrying,
null,"<div style=""font-size:60px;"">+</div>",,html-keyboard-response,352,2183179,0.0-19.0-0.7,7643,List2A,black,man,,,,null,,,,
null,"<img src=""stim_listA/shout7.gif""style=""height:400px;""></stim_listA>",,html-keyboard-response,353,2185181,0.0-19.0-1.7,7643,List2A,black,man,,,,null,,,,
null,is shouting at,,html-keyboard-response,354,2187182,0.0-19.0-2.7,7643,List2A,black,man,,,,null,,,,
8973,,,survey-text,355,2196158,0.0-19.0-3.7,7643,List2A,black,man,,,,,"{""Q0"":""beth is shouting at ruth""}","<img src=""stim_listA/shout7.gif""style=""height:400px;""></stim_listA>",is shouting at,
null,"<div style=""font-size:60px;"">+</div>",,html-keyboard-response,356,2196660,0.0-19.0-0.8,7643,List2A,black,man,,,,null,,,,
null,"<img src=""stim_listA/flirt4.gif""style=""height:400px;""></stim_listA>",,html-keyboard-response,357,2198663,0.0-19.0-1.8,7643,List2A,black,man,,,,null,,,,
null,are flirting with each other,,html-keyboard-response,358,2200665,0.0-19.0-2.8,7643,List2A,black,man,,,,null,,,,
11727,,,survey-text,359,2212394,0.0-19.0-3.8,7643,List2A,black,man,,,,,"{""Q0"":""mike and beth are flirting with each other""}","<img src=""stim_listA/flirt4.gif""style=""height:400px;""></stim_listA>",are flirting with each other,
null,"<div style=""font-size:60px;"">+</div>",,html-keyboard-response,360,2212896,0.0-19.0-0.9,7643,List2A,black,man,,,,null,,,,
null,"<img src=""stim_listA/shout1.gif""style=""height:400px;""></stim_listA>",,html-keyboard-response,361,2214898,0.0-19.0-1.9,7643,List2A,black,man,,,,null,,,,
null,is shouting at,,html-keyboard-response,362,2216900,0.0-19.0-2.9,7643,List2A,black,man,,,,null,,,,
8392,,,survey-text,363,2225294,0.0-19.0-3.9,7643,List2A,black,man,,,,,"{""Q0"":""luke is shouting at ruth""}","<img src=""stim_listA/shout1.gif""style=""height:400px;""></stim_listA>",is shouting at,
null,"<div style=""font-size:60px;"">+</div>",,html-keyboard-response,364,2225796,0.0-19.0-0.10,7643,List2A,black,man,,,,null,,,,
null,"<img src=""stim_listA/kiss3.gif""style=""height:400px;""></stim_listA>",,html-keyboard-response,365,2227799,0.0-19.0-1.10,7643,List2A,black,man,,,,null,,,,
null,is kissing,,html-keyboard-response,366,2229800,0.0-19.0-2.10,7643,List2A,black,man,,,,null,,,,
7619,,,survey-text,367,2237421,0.0-19.0-3.10,7643,List2A,black,man,,,,,"{""Q0"":""beth is kissing fred""}","<img src=""stim_listA/kiss3.gif""style=""height:400px;""></stim_listA>",is kissing,
null,"<div style=""font-size:60px;"">+</div>",,html-keyboard-response,368,2237923,0.0-19.0-0.11,7643,List2A,black,man,,,,null,,,,
null,"<img src=""stim_listA/flirt3.gif""style=""height:400px;""></stim_listA>",,html-keyboard-response,369,2239925,0.0-19.0-1.11,7643,List2A,black,man,,,,null,,,,
null,is flirting with,,html-keyboard-response,370,2241927,0.0-19.0-2.11,7643,List2A,black,man,,,,null,,,,
20568,,,survey-text,371,2262497,0.0-19.0-3.11,7643,List2A,black,man,,,,,"{""Q0"":""fred is flirting with kate""}","<img src=""stim_listA/flirt3.gif""style=""height:400px;""></stim_listA>",is flirting with,
null,"<div style=""font-size:60px;"">+</div>",,html-keyboard-response,372,2262999,0.0-19.0-0.12,7643,List2A,black,man,,,,null,,,,
null,"<img src=""stim_listA/touch2.gif""style=""height:400px;""></stim_listA>",,html-keyboard-response,373,2265001,0.0-19.0-1.12,7643,List2A,black,man,,,,null,,,,
null,are touching each other,,html-keyboard-response,374,2267003,0.0-19.0-2.12,7643,List2A,black,man,,,,null,,,,
11844,,,survey-text,375,2278849,0.0-19.0-3.12,7643,List2A,black,man,,,,,"{""Q0"":""ruth and luke are touching each other""}","<img src=""stim_listA/touch2.gif""style=""height:400px;""></stim_listA>",are touching each other,
null,"<div style=""font-size:60px;"">+</div>",,html-keyboard-response,376,2279354,0.0-19.0-0.13,7643,List2A,black,man,,,,null,,,,
null,"<img src=""stim_listA/talk4.gif""style=""height:400px;""></stim_listA>",,html-keyboard-response,377,2281356,0.0-19.0-1.13,7643,List2A,black,man,,,,null,,,,
null,are talking to each other,,html-keyboard-response,378,2283358,0.0-19.0-2.13,7643,List2A,black,man,,,,null,,,,
13707,,,survey-text,379,2297067,0.0-19.0-3.13,7643,List2A,black,man,,,,,"{""Q0"":""mike and beth are talking to each other""}","<img src=""stim_listA/talk4.gif""style=""height:400px;""></stim_listA>",are talking to each other,
null,"<div style=""font-size:60px;"">+</div>",,html-keyboard-response,380,2297568,0.0-19.0-0.14,7643,List2A,black,man,,,,null,,,,
null,"<img src=""stim_listA/dance2.gif""style=""height:400px;""></stim_listA>",,html-keyboard-response,381,2299571,0.0-19.0-1.14,7643,List2A,black,man,,,,null,,,,
null,are dancing with each other,,html-keyboard-response,382,2301572,0.0-19.0-2.14,7643,List2A,black,man,,,,null,,,,
12295,,,survey-text,383,2313868,0.0-19.0-3.14,7643,List2A,black,man,,,,,"{""Q0"":""dave and ruth are dancing with each other""}","<img src=""stim_listA/dance2.gif""style=""height:400px;""></stim_listA>",are dancing with each other,
null,"<div style=""font-size:60px;"">+</div>",,html-keyboard-response,384,2314370,0.0-19.0-0.15,7643,List2A,black,man,,,,null,,,,
null,"<img src=""stim_listA/play5.gif""style=""height:400px;""></stim_listA>",,html-keyboard-response,385,2316372,0.0-19.0-1.15,7643,List2A,black,man,,,,null,,,,
null,is playing with,,html-keyboard-response,386,2318374,0.0-19.0-2.15,7643,List2A,black,man,,,,null,,,,
9174,,,survey-text,387,2327549,0.0-19.0-3.15,7643,List2A,black,man,,,,,"{""Q0"":""mike is playing with dave""}","<img src=""stim_listA/play5.gif""style=""height:400px;""></stim_listA>",is playing with,
null,"<div style=""font-size:60px;"">+</div>",,html-keyboard-response,388,2328052,0.0-19.0-0.16,7643,List2A,black,man,,,,null,,,,
null,"<img src=""stim_listA/flirt8.gif""style=""height:400px;""></stim_listA>",,html-keyboard-response,389,2330054,0.0-19.0-1.16,7643,List2A,black,man,,,,null,,,,
null,are flirting with each other,,html-keyboard-response,390,2332056,0.0-19.0-2.16,7643,List2A,black,man,,,,null,,,,
11385,,,survey-text,391,2343443,0.0-19.0-3.16,7643,List2A,black,man,,,,,"{""Q0"":""beth and jane are flirting with each other""}","<img src=""stim_listA/flirt8.gif""style=""height:400px;""></stim_listA>",are flirting with each other,
null,"<div style=""font-size:60px;"">+</div>",,html-keyboard-response,392,2343945,0.0-19.0-0.17,7643,List2A,black,man,,,,null,,,,
null,"<img src=""stim_listA/fight8.gif""style=""height:400px;""></stim_listA>",,html-keyboard-response,393,2345947,0.0-19.0-1.17,7643,List2A,black,man,,,,null,,,,
null,are fighting each other,,html-keyboard-response,394,2347949,0.0-19.0-2.17,7643,List2A,black,man,,,,null,,,,
15390,,,survey-text,395,2363341,0.0-19.0-3.17,7643,List2A,black,man,,,,,"{""Q0"":""beth and ruth are fighting each other""}","<img src=""stim_listA/fight8.gif""style=""height:400px;""></stim_listA>",are fighting each other,
null,"<div style=""font-size:60px;"">+</div>",,html-keyboard-response,396,2363843,0.0-19.0-0.18,7643,List2A,black,man,,,,null,,,,
null,"<img src=""stim_listA/kiss4.gif""style=""height:400px;""></stim_listA>",,html-keyboard-response,397,2365846,0.0-19.0-1.18,7643,List2A,black,man,,,,null,,,,
null,are kissing each other,,html-keyboard-response,398,2367847,0.0-19.0-2.18,7643,List2A,black,man,,,,null,,,,
11652,,,survey-text,399,2379501,0.0-19.0-3.18,7643,List2A,black,man,,,,,"{""Q0"":""mike and kate are kissing each other""}","<img src=""stim_listA/kiss4.gif""style=""height:400px;""></stim_listA>",are kissing each other,
null,"<div style=""font-size:60px;"">+</div>",,html-keyboard-response,400,2380003,0.0-19.0-0.19,7643,List2A,black,man,,,,null,,,,
null,"<img src=""stim_listA/kiss2.gif""style=""height:400px;""></stim_listA>",,html-keyboard-response,401,2382006,0.0-19.0-1.19,7643,List2A,black,man,,,,null,,,,
null,are kissing each other,,html-keyboard-response,402,2384007,0.0-19.0-2.19,7643,List2A,black,man,,,,null,,,,
13084,,,survey-text,403,2397094,0.0-19.0-3.19,7643,List2A,black,man,,,,,"{""Q0"":""jane and dave are kissing each other""}","<img src=""stim_listA/kiss2.gif""style=""height:400px;""></stim_listA>",are kissing each other,
4588,<p>Thank you for completing that task.</p><p>The final part of this session is a short questionnaire.</p><p>Press Continue.</p>,0,html-button-response,404,2401684,0.0-20.0,7643,List2A,black,man,,,,,,,,
48388,,,survey-text,405,2451076,0.0-21.0,7643,List2A,black,man,,,,,"{""Q0"":""51"",""Q1"":""English"",""Q2"":""English"",""Q3"":""United States"",""Q4"":""Biracial Afro Caribbean American / White European American"",""Q5"":""male""}",,,demographics
8546,,,survey-likert,406,2459707,0.0-22.0,7643,List2A,black,man,,,,,"{""Q0"":3}",,,likert_ESS
266,,,survey-likert,407,2459985,0.0-23.0,7643,List2A,black,man,,,,,"{""Q0"":""""}",,,likert_NSSAL_Q1
17224,,,survey-likert,408,2477212,0.0-24.0,7643,List2A,black,man,,,,,"{""Q0"":4}",,,likert_NSSAL_Q2
7447,,,survey-likert,409,2484665,0.0-25.0,7643,List2A,black,man,,,,,"{""Q0"":4}",,,likert_CGRS_Q1
4960,,,survey-likert,410,2489628,0.0-26.0,7643,List2A,black,man,,,,,"{""Q0"":3}",,,likert_CGRS_Q2
3853,,,survey-likert,411,2493486,0.0-27.0,7643,List2A,black,man,,,,,"{""Q0"":4}",,,likert_CGRS_Q3
24875,,,survey-text,412,2518365,0.0-28.0,7643,List2A,black,man,,,,,"{""Q0"":""ccc""}",,,worker_id
74816,,,external-html,413,2593738,0.0-29.0,7643,List2A,black,man,debrief.html,,,,,,,
