rt,stimulus,button_pressed,trial_type,trial_index,time_elapsed,internal_node_id,subject,list,ppt_race,ppt_gender,url,first_guess,correct,key_press,responses,image_type,phrase_type,test_part
1770,Welcome to the experiment. Press Continue to begin.,0,html-button-response,0,1774,0.0-0.0,76465,List2B,white,woman,,,,,,,,
30451,,,external-html,1,33251,0.0-1.0,76465,List2B,white,woman,consent.html,,,,,,,
10521,"<p>On the next page, you will see portraits of 8 people and their names.</p><p>Your first task is to take a few minutes to memorise the names of these people.</p><p>You will have to recall their names during the rest of the experiment, so it is</p><p>essential that you try to memorise these people and their names as best as you can.</p><br><p><strong>You will then be tested on your memory of these names and portraits.</strong></p><br><p>The experiment will start after you have completed this memory test.</p><br><p>Ready?</p>",0,html-button-response,2,43774,0.0-2.0,76465,List2B,white,woman,,,,,,,,
143325,"<img src='img/portrait_matrix_list2.jpg' style='width:900px;height:500px;''></img><p>If you have memorised all the portraits and names and are ready to start, press Continue.</p><p><strong>Please note: Your memory of these faces will be tested 4 times during this experiment.</strong></p>",0,html-button-response,3,188102,0.0-3.0-0.0,76465,List2B,white,woman,,,,,,,,
2475,"<img src=""portrait/WM1.jpg""style=""height:400px;""></img>",6,html-button-response,4,191580,0.0-3.0-1.0,76465,List2B,white,woman,,TRUE,6,,,,,
null,CORRECT,,html-keyboard-response,5,193085,0.0-3.0-2.0-0.0,76465,List2B,white,woman,,,,null,,,,
2500,"<img src=""portrait/BW1.jpg""style=""height:400px;""></img>",0,html-button-response,6,195586,0.0-3.0-4.0,76465,List2B,white,woman,,TRUE,0,,,,,
null,CORRECT,,html-keyboard-response,7,197089,0.0-3.0-5.0-0.0,76465,List2B,white,woman,,,,null,,,,
2088,"<img src=""portrait/BM1.jpg""style=""height:400px;""></img>",4,html-button-response,8,199179,0.0-3.0-7.0,76465,List2B,white,woman,,TRUE,4,,,,,
null,CORRECT,,html-keyboard-response,9,200682,0.0-3.0-8.0-0.0,76465,List2B,white,woman,,,,null,,,,
1997,"<img src=""portrait/BM2.jpg""style=""height:400px;""></img>",5,html-button-response,10,202681,0.0-3.0-10.0,76465,List2B,white,woman,,TRUE,5,,,,,
null,CORRECT,,html-keyboard-response,11,204183,0.0-3.0-11.0-0.0,76465,List2B,white,woman,,,,null,,,,
2386,"<img src=""portrait/WW1.jpg""style=""height:400px;""></img>",1,html-button-response,12,206570,0.0-3.0-13.0,76465,List2B,white,woman,,TRUE,1,,,,,
null,CORRECT,,html-keyboard-response,13,208072,0.0-3.0-14.0-0.0,76465,List2B,white,woman,,,,null,,,,
5293,"<img src=""portrait/BW2.jpg""style=""height:400px;""></img>",2,html-button-response,14,213367,0.0-3.0-16.0,76465,List2B,white,woman,,TRUE,2,,,,,
null,CORRECT,,html-keyboard-response,15,214870,0.0-3.0-17.0-0.0,76465,List2B,white,woman,,,,null,,,,
2143,"<img src=""portrait/WM2.jpg""style=""height:400px;""></img>",7,html-button-response,16,217014,0.0-3.0-19.0,76465,List2B,white,woman,,TRUE,7,,,,,
null,CORRECT,,html-keyboard-response,17,218518,0.0-3.0-20.0-0.0,76465,List2B,white,woman,,,,null,,,,
1620,"<img src=""portrait/WW2.jpg""style=""height:400px;""></img>",3,html-button-response,18,220139,0.0-3.0-22.0,76465,List2B,white,woman,,TRUE,3,,,,,
null,CORRECT,,html-keyboard-response,19,221642,0.0-3.0-23.0-0.0,76465,List2B,white,woman,,,,null,,,,
1418,<p>You got 8 out of 8 right first time. Press Continue.</p>,0,html-button-response,20,223063,0.0-3.0-25.0,76465,List2B,white,woman,,,,,,,,
40563,"<p>In this experiment, you will view photographs of the people from the memory game interacting.</p><p>By using the <strong>exact</strong> phrase given <i>after</i> the photograph appears and recalling the correct names of the people in the photographs, form a sentence describing the interaction. You do not need to capitalise names.</p><p>Type your answer in the space provided. Please complete every sentence before moving onto the next trial.</p><p>You will only have a few seconds to memorise each given photograph and phrase before you can respond, so try your best to focus.</p><p>An example is given below. Press 'Continue' when you are ready.</p><img src='img/speaking_example.jpg' style='width:800px;height:460px;''></img>",0,html-button-response,21,264628,0.0-4.0,76465,List2B,white,woman,,,,,,,,
2129,"<p>Before the experiment starts, you will watch two example trials. Press 'Continue'.</p>",0,html-button-response,22,267759,0.0-5.0,76465,List2B,white,woman,,,,,,,,
null,<img src='img/meet_eg.gif' style='height:400px;''></img>,,html-keyboard-response,23,270762,0.0-6.0,76465,List2B,white,woman,,,,null,,,,
null,<p>is meeting</p>,,html-keyboard-response,24,272764,0.0-7.0,76465,List2B,white,woman,,,,null,,,,
3168,<p><b>Answer:</b> jane is meeting ruth</p>,0,html-button-response,25,275933,0.0-8.0,76465,List2B,white,woman,,,,,,,,
null,<img src='img/look_eg.gif' style='height:400px;''></img>,,html-keyboard-response,26,278938,0.0-9.0,76465,List2B,white,woman,,,,null,,,,
null,<p>are looking at each other</p>,,html-keyboard-response,27,280940,0.0-10.0,76465,List2B,white,woman,,,,null,,,,
5363,<p><b>Answer:</b> fred and mike are looking at each other</p>,0,html-button-response,28,286305,0.0-11.0,76465,List2B,white,woman,,,,,,,,
9544,"<p>Ready to start the experiment?</p><br><p><strong>Remember to describe the picture using a full sentence,</strong></p><p><strong>that combines the names of the people with the <i>exact</i> phrase given.</strong></p><p><strong>To receive full payment you must do this correctly.</strong></p><p><strong> You do not need to capitalise names or use punctuation.</strong></p><br><p>Press 'Continue' to begin.</p>",0,html-button-response,29,296850,0.0-12.0,76465,List2B,white,woman,,,,,,,,
null,"<div style=""font-size:60px;"">+</div>",,html-keyboard-response,30,298356,0.0-13.0-0.0,76465,List2B,white,woman,,,,null,,,,
null,"<img src=""stim_listB/argue1.gif""style=""height:400px;""></stim_listB>",,html-keyboard-response,31,300359,0.0-13.0-1.0,76465,List2B,white,woman,,,,null,,,,
null,is arguing with,,html-keyboard-response,32,302360,0.0-13.0-2.0,76465,List2B,white,woman,,,,null,,,,
10106,,,survey-text,33,312469,0.0-13.0-3.0,76465,List2B,white,woman,,,,,"{""Q0"":""Dave is arguing with Ruth""}","<img src=""stim_listB/argue1.gif""style=""height:400px;""></stim_listB>",is arguing with,
null,"<div style=""font-size:60px;"">+</div>",,html-keyboard-response,34,312971,0.0-13.0-0.1,76465,List2B,white,woman,,,,null,,,,
null,"<img src=""stim_listB/touch1.gif""style=""height:400px;""></stim_listB>",,html-keyboard-response,35,314973,0.0-13.0-1.1,76465,List2B,white,woman,,,,null,,,,
null,is touching,,html-keyboard-response,36,316975,0.0-13.0-2.1,76465,List2B,white,woman,,,,null,,,,
6543,,,survey-text,37,323520,0.0-13.0-3.1,76465,List2B,white,woman,,,,,"{""Q0"":""Jane is touching Dave""}","<img src=""stim_listB/touch1.gif""style=""height:400px;""></stim_listB>",is touching,
null,"<div style=""font-size:60px;"">+</div>",,html-keyboard-response,38,324022,0.0-13.0-0.2,76465,List2B,white,woman,,,,null,,,,
null,"<img src=""stim_listB/marry4.gif""style=""height:400px;""></stim_listB>",,html-keyboard-response,39,326024,0.0-13.0-1.2,76465,List2B,white,woman,,,,null,,,,
null,are marrying each other,,html-keyboard-response,40,328026,0.0-13.0-2.2,76465,List2B,white,woman,,,,null,,,,
17738,,,survey-text,41,345766,0.0-13.0-3.2,76465,List2B,white,woman,,,,,"{""Q0"":""Fred and Kate are marrying each other""}","<img src=""stim_listB/marry4.gif""style=""height:400px;""></stim_listB>",are marrying each other,
null,"<div style=""font-size:60px;"">+</div>",,html-keyboard-response,42,346267,0.0-13.0-0.3,76465,List2B,white,woman,,,,null,,,,
null,"<img src=""stim_listB/dance5.gif""style=""height:400px;""></stim_listB>",,html-keyboard-response,43,348269,0.0-13.0-1.3,76465,List2B,white,woman,,,,null,,,,
null,is dancing with,,html-keyboard-response,44,350271,0.0-13.0-2.3,76465,List2B,white,woman,,,,null,,,,
5663,,,survey-text,45,355935,0.0-13.0-3.3,76465,List2B,white,woman,,,,,"{""Q0"":""Luke is dancing with Mike""}","<img src=""stim_listB/dance5.gif""style=""height:400px;""></stim_listB>",is dancing with,
null,"<div style=""font-size:60px;"">+</div>",,html-keyboard-response,46,356437,0.0-13.0-0.4,76465,List2B,white,woman,,,,null,,,,
null,"<img src=""stim_listB/marry5.gif""style=""height:400px;""></stim_listB>",,html-keyboard-response,47,358440,0.0-13.0-1.4,76465,List2B,white,woman,,,,null,,,,
null,is marrying,,html-keyboard-response,48,360441,0.0-13.0-2.4,76465,List2B,white,woman,,,,null,,,,
6336,,,survey-text,49,366779,0.0-13.0-3.4,76465,List2B,white,woman,,,,,"{""Q0"":""Dave is marrying Fred""}","<img src=""stim_listB/marry5.gif""style=""height:400px;""></stim_listB>",is marrying,
null,"<div style=""font-size:60px;"">+</div>",,html-keyboard-response,50,367280,0.0-13.0-0.5,76465,List2B,white,woman,,,,null,,,,
null,"<img src=""stim_listB/fight7.gif""style=""height:400px;""></stim_listB>",,html-keyboard-response,51,369282,0.0-13.0-1.5,76465,List2B,white,woman,,,,null,,,,
null,is fighting,,html-keyboard-response,52,371284,0.0-13.0-2.5,76465,List2B,white,woman,,,,null,,,,
5241,,,survey-text,53,376525,0.0-13.0-3.5,76465,List2B,white,woman,,,,,"{""Q0"":""Kate is fighting Jane""}","<img src=""stim_listB/fight7.gif""style=""height:400px;""></stim_listB>",is fighting,
null,"<div style=""font-size:60px;"">+</div>",,html-keyboard-response,54,377027,0.0-13.0-0.6,76465,List2B,white,woman,,,,null,,,,
null,"<img src=""stim_listB/shout5.gif""style=""height:400px;""></stim_listB>",,html-keyboard-response,55,379030,0.0-13.0-1.6,76465,List2B,white,woman,,,,null,,,,
null,is shouting at,,html-keyboard-response,56,381031,0.0-13.0-2.6,76465,List2B,white,woman,,,,null,,,,
8786,,,survey-text,57,389818,0.0-13.0-3.6,76465,List2B,white,woman,,,,,"{""Q0"":""Luke is shouting at Fred""}","<img src=""stim_listB/shout5.gif""style=""height:400px;""></stim_listB>",is shouting at,
null,"<div style=""font-size:60px;"">+</div>",,html-keyboard-response,58,390320,0.0-13.0-0.7,76465,List2B,white,woman,,,,null,,,,
null,"<img src=""stim_listB/kiss6.gif""style=""height:400px;""></stim_listB>",,html-keyboard-response,59,392323,0.0-13.0-1.7,76465,List2B,white,woman,,,,null,,,,
null,are kissing each other,,html-keyboard-response,60,394325,0.0-13.0-2.7,76465,List2B,white,woman,,,,null,,,,
8835,,,survey-text,61,403162,0.0-13.0-3.7,76465,List2B,white,woman,,,,,"{""Q0"":""Mike and Dave are kissing each other""}","<img src=""stim_listB/kiss6.gif""style=""height:400px;""></stim_listB>",are kissing each other,
null,"<div style=""font-size:60px;"">+</div>",,html-keyboard-response,62,403664,0.0-13.0-0.8,76465,List2B,white,woman,,,,null,,,,
null,"<img src=""stim_listB/play2.gif""style=""height:400px;""></stim_listB>",,html-keyboard-response,63,405666,0.0-13.0-1.8,76465,List2B,white,woman,,,,null,,,,
null,are playing with each other,,html-keyboard-response,64,407668,0.0-13.0-2.8,76465,List2B,white,woman,,,,null,,,,
16970,,,survey-text,65,424639,0.0-13.0-3.8,76465,List2B,white,woman,,,,,"{""Q0"":""Ruth and Luke are playing each other""}","<img src=""stim_listB/play2.gif""style=""height:400px;""></stim_listB>",are playing with each other,
null,"<div style=""font-size:60px;"">+</div>",,html-keyboard-response,66,425141,0.0-13.0-0.9,76465,List2B,white,woman,,,,null,,,,
null,"<img src=""stim_listB/kiss5.gif""style=""height:400px;""></stim_listB>",,html-keyboard-response,67,427143,0.0-13.0-1.9,76465,List2B,white,woman,,,,null,,,,
null,is kissing,,html-keyboard-response,68,429145,0.0-13.0-2.9,76465,List2B,white,woman,,,,null,,,,
4565,,,survey-text,69,433711,0.0-13.0-3.9,76465,List2B,white,woman,,,,,"{""Q0"":""Luke is kissing Fred""}","<img src=""stim_listB/kiss5.gif""style=""height:400px;""></stim_listB>",is kissing,
null,"<div style=""font-size:60px;"">+</div>",,html-keyboard-response,70,434214,0.0-13.0-0.10,76465,List2B,white,woman,,,,null,,,,
null,"<img src=""stim_listB/talk8.gif""style=""height:400px;""></stim_listB>",,html-keyboard-response,71,436216,0.0-13.0-1.10,76465,List2B,white,woman,,,,null,,,,
null,are talking to each other,,html-keyboard-response,72,438218,0.0-13.0-2.10,76465,List2B,white,woman,,,,null,,,,
10284,,,survey-text,73,448503,0.0-13.0-3.10,76465,List2B,white,woman,,,,,"{""Q0"":""Jane and Beth are talking to each other""}","<img src=""stim_listB/talk8.gif""style=""height:400px;""></stim_listB>",are talking to each other,
null,"<div style=""font-size:60px;"">+</div>",,html-keyboard-response,74,449005,0.0-13.0-0.11,76465,List2B,white,woman,,,,null,,,,
null,"<img src=""stim_listB/argue6.gif""style=""height:400px;""></stim_listB>",,html-keyboard-response,75,451006,0.0-13.0-1.11,76465,List2B,white,woman,,,,null,,,,
null,are arguing with each other,,html-keyboard-response,76,453008,0.0-13.0-2.11,76465,List2B,white,woman,,,,null,,,,
8651,,,survey-text,77,461660,0.0-13.0-3.11,76465,List2B,white,woman,,,,,"{""Q0"":""Luke and Mike are arguing with each other""}","<img src=""stim_listB/argue6.gif""style=""height:400px;""></stim_listB>",are arguing with each other,
null,"<div style=""font-size:60px;"">+</div>",,html-keyboard-response,78,462162,0.0-13.0-0.12,76465,List2B,white,woman,,,,null,,,,
null,"<img src=""stim_listB/flirt8.gif""style=""height:400px;""></stim_listB>",,html-keyboard-response,79,464164,0.0-13.0-1.12,76465,List2B,white,woman,,,,null,,,,
null,are flirting with each other,,html-keyboard-response,80,466166,0.0-13.0-2.12,76465,List2B,white,woman,,,,null,,,,
8558,,,survey-text,81,474726,0.0-13.0-3.12,76465,List2B,white,woman,,,,,"{""Q0"":""Jane and Beth are flirting with each other""}","<img src=""stim_listB/flirt8.gif""style=""height:400px;""></stim_listB>",are flirting with each other,
null,"<div style=""font-size:60px;"">+</div>",,html-keyboard-response,82,475227,0.0-13.0-0.13,76465,List2B,white,woman,,,,null,,,,
null,"<img src=""stim_listB/fight5.gif""style=""height:400px;""></stim_listB>",,html-keyboard-response,83,477230,0.0-13.0-1.13,76465,List2B,white,woman,,,,null,,,,
null,is fighting,,html-keyboard-response,84,479232,0.0-13.0-2.13,76465,List2B,white,woman,,,,null,,,,
7747,,,survey-text,85,486980,0.0-13.0-3.13,76465,List2B,white,woman,,,,,"{""Q0"":""Dave is fighting Mike""}","<img src=""stim_listB/fight5.gif""style=""height:400px;""></stim_listB>",is fighting,
null,"<div style=""font-size:60px;"">+</div>",,html-keyboard-response,86,487482,0.0-13.0-0.14,76465,List2B,white,woman,,,,null,,,,
null,"<img src=""stim_listB/fight6.gif""style=""height:400px;""></stim_listB>",,html-keyboard-response,87,489485,0.0-13.0-1.14,76465,List2B,white,woman,,,,null,,,,
null,are fighting each other,,html-keyboard-response,88,491486,0.0-13.0-2.14,76465,List2B,white,woman,,,,null,,,,
7518,,,survey-text,89,499005,0.0-13.0-3.14,76465,List2B,white,woman,,,,,"{""Q0"":""Luke and Fred are fighting each other""}","<img src=""stim_listB/fight6.gif""style=""height:400px;""></stim_listB>",are fighting each other,
null,"<div style=""font-size:60px;"">+</div>",,html-keyboard-response,90,499507,0.0-13.0-0.15,76465,List2B,white,woman,,,,null,,,,
null,"<img src=""stim_listB/fight2.gif""style=""height:400px;""></stim_listB>",,html-keyboard-response,91,501509,0.0-13.0-1.15,76465,List2B,white,woman,,,,null,,,,
null,are fighting each other,,html-keyboard-response,92,503510,0.0-13.0-2.15,76465,List2B,white,woman,,,,null,,,,
8022,,,survey-text,93,511533,0.0-13.0-3.15,76465,List2B,white,woman,,,,,"{""Q0"":""Ruth and Luke are fighting each other""}","<img src=""stim_listB/fight2.gif""style=""height:400px;""></stim_listB>",are fighting each other,
null,"<div style=""font-size:60px;"">+</div>",,html-keyboard-response,94,512035,0.0-13.0-0.16,76465,List2B,white,woman,,,,null,,,,
null,"<img src=""stim_listB/marry3.gif""style=""height:400px;""></stim_listB>",,html-keyboard-response,95,514038,0.0-13.0-1.16,76465,List2B,white,woman,,,,null,,,,
null,is marrying,,html-keyboard-response,96,516040,0.0-13.0-2.16,76465,List2B,white,woman,,,,null,,,,
5086,,,survey-text,97,521127,0.0-13.0-3.16,76465,List2B,white,woman,,,,,"{""Q0"":""Mike is marrying Beth""}","<img src=""stim_listB/marry3.gif""style=""height:400px;""></stim_listB>",is marrying,
null,"<div style=""font-size:60px;"">+</div>",,html-keyboard-response,98,521629,0.0-13.0-0.17,76465,List2B,white,woman,,,,null,,,,
null,"<img src=""stim_listB/kiss4.gif""style=""height:400px;""></stim_listB>",,html-keyboard-response,99,523631,0.0-13.0-1.17,76465,List2B,white,woman,,,,null,,,,
null,are kissing each other,,html-keyboard-response,100,525634,0.0-13.0-2.17,76465,List2B,white,woman,,,,null,,,,
7895,,,survey-text,101,533530,0.0-13.0-3.17,76465,List2B,white,woman,,,,,"{""Q0"":""Mike and Kate are kissing each other""}","<img src=""stim_listB/kiss4.gif""style=""height:400px;""></stim_listB>",are kissing each other,
null,"<div style=""font-size:60px;"">+</div>",,html-keyboard-response,102,534032,0.0-13.0-0.18,76465,List2B,white,woman,,,,null,,,,
null,"<img src=""stim_listB/argue2.gif""style=""height:400px;""></stim_listB>",,html-keyboard-response,103,536034,0.0-13.0-1.18,76465,List2B,white,woman,,,,null,,,,
null,are arguing with each other,,html-keyboard-response,104,538037,0.0-13.0-2.18,76465,List2B,white,woman,,,,null,,,,
11117,,,survey-text,105,549155,0.0-13.0-3.18,76465,List2B,white,woman,,,,,"{""Q0"":""Luke and Jane are arguing with each other""}","<img src=""stim_listB/argue2.gif""style=""height:400px;""></stim_listB>",are arguing with each other,
null,"<div style=""font-size:60px;"">+</div>",,html-keyboard-response,106,549656,0.0-13.0-0.19,76465,List2B,white,woman,,,,null,,,,
null,"<img src=""stim_listB/dance7.gif""style=""height:400px;""></stim_listB>",,html-keyboard-response,107,551658,0.0-13.0-1.19,76465,List2B,white,woman,,,,null,,,,
null,is dancing with,,html-keyboard-response,108,553661,0.0-13.0-2.19,76465,List2B,white,woman,,,,null,,,,
5875,,,survey-text,109,559538,0.0-13.0-3.19,76465,List2B,white,woman,,,,,"{""Q0"":""Ruth is dancing with Kate""}","<img src=""stim_listB/dance7.gif""style=""height:400px;""></stim_listB>",is dancing with,
12132,"<img src='img/portrait_matrix_list2.jpg' style='width:900px;height:500px;''></img><p>If you have memorised all the portraits and names and are ready to start, press Continue.</p><p><strong>Please note: Your memory of these faces will be tested 4 times during this experiment.</strong></p>",0,html-button-response,110,571671,0.0-14.0-0.0,76465,List2B,white,woman,,,,,,,,
4872,"<img src=""portrait/WM1.jpg""style=""height:400px;""></img>",6,html-button-response,111,577545,0.0-14.0-1.0,76465,List2B,white,woman,,TRUE,6,,,,,
null,CORRECT,,html-keyboard-response,112,579048,0.0-14.0-2.0-0.0,76465,List2B,white,woman,,,,null,,,,
1992,"<img src=""portrait/BM1.jpg""style=""height:400px;""></img>",4,html-button-response,113,581041,0.0-14.0-4.0,76465,List2B,white,woman,,TRUE,4,,,,,
null,CORRECT,,html-keyboard-response,114,582544,0.0-14.0-5.0-0.0,76465,List2B,white,woman,,,,null,,,,
2044,"<img src=""portrait/BW2.jpg""style=""height:400px;""></img>",2,html-button-response,115,584590,0.0-14.0-7.0,76465,List2B,white,woman,,TRUE,2,,,,,
null,CORRECT,,html-keyboard-response,116,586093,0.0-14.0-8.0-0.0,76465,List2B,white,woman,,,,null,,,,
1846,"<img src=""portrait/WM2.jpg""style=""height:400px;""></img>",7,html-button-response,117,587942,0.0-14.0-10.0,76465,List2B,white,woman,,TRUE,7,,,,,
null,CORRECT,,html-keyboard-response,118,589445,0.0-14.0-11.0-0.0,76465,List2B,white,woman,,,,null,,,,
1818,"<img src=""portrait/BW1.jpg""style=""height:400px;""></img>",0,html-button-response,119,591263,0.0-14.0-13.0,76465,List2B,white,woman,,TRUE,0,,,,,
null,CORRECT,,html-keyboard-response,120,592766,0.0-14.0-14.0-0.0,76465,List2B,white,woman,,,,null,,,,
1560,"<img src=""portrait/WW2.jpg""style=""height:400px;""></img>",3,html-button-response,121,594328,0.0-14.0-16.0,76465,List2B,white,woman,,TRUE,3,,,,,
null,CORRECT,,html-keyboard-response,122,595831,0.0-14.0-17.0-0.0,76465,List2B,white,woman,,,,null,,,,
1850,"<img src=""portrait/BM2.jpg""style=""height:400px;""></img>",5,html-button-response,123,597683,0.0-14.0-19.0,76465,List2B,white,woman,,TRUE,5,,,,,
null,CORRECT,,html-keyboard-response,124,599186,0.0-14.0-20.0-0.0,76465,List2B,white,woman,,,,null,,,,
1880,"<img src=""portrait/WW1.jpg""style=""height:400px;""></img>",1,html-button-response,125,601068,0.0-14.0-22.0,76465,List2B,white,woman,,TRUE,1,,,,,
null,CORRECT,,html-keyboard-response,126,602571,0.0-14.0-23.0-0.0,76465,List2B,white,woman,,,,null,,,,
2929,<p>You got 8 out of 8 right first time. Press Continue.</p>,0,html-button-response,127,605501,0.0-14.0-25.0,76465,List2B,white,woman,,,,,,,,
null,"<div style=""font-size:60px;"">+</div>",,html-keyboard-response,128,607005,0.0-15.0-0.0,76465,List2B,white,woman,,,,null,,,,
null,"<img src=""stim_listB/argue4.gif""style=""height:400px;""></stim_listB>",,html-keyboard-response,129,609007,0.0-15.0-1.0,76465,List2B,white,woman,,,,null,,,,
null,are arguing with each other,,html-keyboard-response,130,611009,0.0-15.0-2.0,76465,List2B,white,woman,,,,null,,,,
9236,,,survey-text,131,620248,0.0-15.0-3.0,76465,List2B,white,woman,,,,,"{""Q0"":""Fred and Kate are arguing with each other""}","<img src=""stim_listB/argue4.gif""style=""height:400px;""></stim_listB>",are arguing with each other,
null,"<div style=""font-size:60px;"">+</div>",,html-keyboard-response,132,620750,0.0-15.0-0.1,76465,List2B,white,woman,,,,null,,,,
null,"<img src=""stim_listB/play1.gif""style=""height:400px;""></stim_listB>",,html-keyboard-response,133,622752,0.0-15.0-1.1,76465,List2B,white,woman,,,,null,,,,
null,is playing with,,html-keyboard-response,134,624755,0.0-15.0-2.1,76465,List2B,white,woman,,,,null,,,,
5963,,,survey-text,135,630719,0.0-15.0-3.1,76465,List2B,white,woman,,,,,"{""Q0"":""Jane is playing with Dave""}","<img src=""stim_listB/play1.gif""style=""height:400px;""></stim_listB>",is playing with,
null,"<div style=""font-size:60px;"">+</div>",,html-keyboard-response,136,631221,0.0-15.0-0.2,76465,List2B,white,woman,,,,null,,,,
null,"<img src=""stim_listB/argue8.gif""style=""height:400px;""></stim_listB>",,html-keyboard-response,137,633224,0.0-15.0-1.2,76465,List2B,white,woman,,,,null,,,,
null,are arguing with each other,,html-keyboard-response,138,635226,0.0-15.0-2.2,76465,List2B,white,woman,,,,null,,,,
10467,,,survey-text,139,645694,0.0-15.0-3.2,76465,List2B,white,woman,,,,,"{""Q0"":""Ruth and Kate are arguing with each other""}","<img src=""stim_listB/argue8.gif""style=""height:400px;""></stim_listB>",are arguing with each other,
null,"<div style=""font-size:60px;"">+</div>",,html-keyboard-response,140,646195,0.0-15.0-0.3,76465,List2B,white,woman,,,,null,,,,
null,"<img src=""stim_listB/marry8.gif""style=""height:400px;""></stim_listB>",,html-keyboard-response,141,648197,0.0-15.0-1.3,76465,List2B,white,woman,,,,null,,,,
null,are marrying each other,,html-keyboard-response,142,650199,0.0-15.0-2.3,76465,List2B,white,woman,,,,null,,,,
15501,,,survey-text,143,665701,0.0-15.0-3.3,76465,List2B,white,woman,,,,,"{""Q0"":""Kate and Ruth are marrying each other""}","<img src=""stim_listB/marry8.gif""style=""height:400px;""></stim_listB>",are marrying each other,
null,"<div style=""font-size:60px;"">+</div>",,html-keyboard-response,144,666203,0.0-15.0-0.4,76465,List2B,white,woman,,,,null,,,,
null,"<img src=""stim_listB/fight1.gif""style=""height:400px;""></stim_listB>",,html-keyboard-response,145,668205,0.0-15.0-1.4,76465,List2B,white,woman,,,,null,,,,
null,is fighting,,html-keyboard-response,146,670207,0.0-15.0-2.4,76465,List2B,white,woman,,,,null,,,,
7767,,,survey-text,147,677975,0.0-15.0-3.4,76465,List2B,white,woman,,,,,"{""Q0"":""Jane is fighting Dave""}","<img src=""stim_listB/fight1.gif""style=""height:400px;""></stim_listB>",is fighting,
null,"<div style=""font-size:60px;"">+</div>",,html-keyboard-response,148,678477,0.0-15.0-0.5,76465,List2B,white,woman,,,,null,,,,
null,"<img src=""stim_listB/shout3.gif""style=""height:400px;""></stim_listB>",,html-keyboard-response,149,680479,0.0-15.0-1.5,76465,List2B,white,woman,,,,null,,,,
null,is shouting at,,html-keyboard-response,150,682481,0.0-15.0-2.5,76465,List2B,white,woman,,,,null,,,,
6542,,,survey-text,151,689024,0.0-15.0-3.5,76465,List2B,white,woman,,,,,"{""Q0"":""Beth is shouting at Fred""}","<img src=""stim_listB/shout3.gif""style=""height:400px;""></stim_listB>",is shouting at,
null,"<div style=""font-size:60px;"">+</div>",,html-keyboard-response,152,689526,0.0-15.0-0.6,76465,List2B,white,woman,,,,null,,,,
null,"<img src=""stim_listB/touch3.gif""style=""height:400px;""></stim_listB>",,html-keyboard-response,153,691529,0.0-15.0-1.6,76465,List2B,white,woman,,,,null,,,,
null,is touching,,html-keyboard-response,154,693531,0.0-15.0-2.6,76465,List2B,white,woman,,,,null,,,,
17336,,,survey-text,155,710869,0.0-15.0-3.6,76465,List2B,white,woman,,,,,"{""Q0"":""Mike is touching Kate""}","<img src=""stim_listB/touch3.gif""style=""height:400px;""></stim_listB>",is touching,
null,"<div style=""font-size:60px;"">+</div>",,html-keyboard-response,156,711371,0.0-15.0-0.7,76465,List2B,white,woman,,,,null,,,,
null,"<img src=""stim_listB/marry6.gif""style=""height:400px;""></stim_listB>",,html-keyboard-response,157,713372,0.0-15.0-1.7,76465,List2B,white,woman,,,,null,,,,
null,are marrying each other,,html-keyboard-response,158,715374,0.0-15.0-2.7,76465,List2B,white,woman,,,,null,,,,
7297,,,survey-text,159,722672,0.0-15.0-3.7,76465,List2B,white,woman,,,,,"{""Q0"":""Mike and Luke are marrying each other""}","<img src=""stim_listB/marry6.gif""style=""height:400px;""></stim_listB>",are marrying each other,
null,"<div style=""font-size:60px;"">+</div>",,html-keyboard-response,160,723173,0.0-15.0-0.8,76465,List2B,white,woman,,,,null,,,,
null,"<img src=""stim_listB/touch6.gif""style=""height:400px;""></stim_listB>",,html-keyboard-response,161,725175,0.0-15.0-1.8,76465,List2B,white,woman,,,,null,,,,
null,are touching each other,,html-keyboard-response,162,727178,0.0-15.0-2.8,76465,List2B,white,woman,,,,null,,,,
9002,,,survey-text,163,736180,0.0-15.0-3.8,76465,List2B,white,woman,,,,,"{""Q0"":""Luke and Fred are touching each other""}","<img src=""stim_listB/touch6.gif""style=""height:400px;""></stim_listB>",are touching each other,
null,"<div style=""font-size:60px;"">+</div>",,html-keyboard-response,164,736682,0.0-15.0-0.9,76465,List2B,white,woman,,,,null,,,,
null,"<img src=""stim_listB/play7.gif""style=""height:400px;""></stim_listB>",,html-keyboard-response,165,738685,0.0-15.0-1.9,76465,List2B,white,woman,,,,null,,,,
null,is playing with,,html-keyboard-response,166,740687,0.0-15.0-2.9,76465,List2B,white,woman,,,,null,,,,
6751,,,survey-text,167,747439,0.0-15.0-3.9,76465,List2B,white,woman,,,,,"{""Q0"":""Kate is playing with Jane""}","<img src=""stim_listB/play7.gif""style=""height:400px;""></stim_listB>",is playing with,
null,"<div style=""font-size:60px;"">+</div>",,html-keyboard-response,168,747941,0.0-15.0-0.10,76465,List2B,white,woman,,,,null,,,,
null,"<img src=""stim_listB/dance4.gif""style=""height:400px;""></stim_listB>",,html-keyboard-response,169,749944,0.0-15.0-1.10,76465,List2B,white,woman,,,,null,,,,
null,are dancing with each other,,html-keyboard-response,170,751946,0.0-15.0-2.10,76465,List2B,white,woman,,,,null,,,,
9378,,,survey-text,171,761325,0.0-15.0-3.10,76465,List2B,white,woman,,,,,"{""Q0"":""Mike and Beth are dancing with each other""}","<img src=""stim_listB/dance4.gif""style=""height:400px;""></stim_listB>",are dancing with each other,
null,"<div style=""font-size:60px;"">+</div>",,html-keyboard-response,172,761827,0.0-15.0-0.11,76465,List2B,white,woman,,,,null,,,,
null,"<img src=""stim_listB/argue5.gif""style=""height:400px;""></stim_listB>",,html-keyboard-response,173,763830,0.0-15.0-1.11,76465,List2B,white,woman,,,,null,,,,
null,is arguing with,,html-keyboard-response,174,765832,0.0-15.0-2.11,76465,List2B,white,woman,,,,null,,,,
5215,,,survey-text,175,771049,0.0-15.0-3.11,76465,List2B,white,woman,,,,,"{""Q0"":""Dave is arguing with Fred""}","<img src=""stim_listB/argue5.gif""style=""height:400px;""></stim_listB>",is arguing with,
null,"<div style=""font-size:60px;"">+</div>",,html-keyboard-response,176,771551,0.0-15.0-0.12,76465,List2B,white,woman,,,,null,,,,
null,"<img src=""stim_listB/shout1.gif""style=""height:400px;""></stim_listB>",,html-keyboard-response,177,773553,0.0-15.0-1.12,76465,List2B,white,woman,,,,null,,,,
null,is shouting at,,html-keyboard-response,178,775555,0.0-15.0-2.12,76465,List2B,white,woman,,,,null,,,,
7260,,,survey-text,179,782817,0.0-15.0-3.12,76465,List2B,white,woman,,,,,"{""Q0"":""Ruth is shouting at Luke""}","<img src=""stim_listB/shout1.gif""style=""height:400px;""></stim_listB>",is shouting at,
null,"<div style=""font-size:60px;"">+</div>",,html-keyboard-response,180,783319,0.0-15.0-0.13,76465,List2B,white,woman,,,,null,,,,
null,"<img src=""stim_listB/flirt6.gif""style=""height:400px;""></stim_listB>",,html-keyboard-response,181,785321,0.0-15.0-1.13,76465,List2B,white,woman,,,,null,,,,
null,are flirting with each other,,html-keyboard-response,182,787323,0.0-15.0-2.13,76465,List2B,white,woman,,,,null,,,,
8670,,,survey-text,183,795994,0.0-15.0-3.13,76465,List2B,white,woman,,,,,"{""Q0"":""Fred and Dave are flirting with each other""}","<img src=""stim_listB/flirt6.gif""style=""height:400px;""></stim_listB>",are flirting with each other,
null,"<div style=""font-size:60px;"">+</div>",,html-keyboard-response,184,796496,0.0-15.0-0.14,76465,List2B,white,woman,,,,null,,,,
null,"<img src=""stim_listB/touch5.gif""style=""height:400px;""></stim_listB>",,html-keyboard-response,185,798498,0.0-15.0-1.14,76465,List2B,white,woman,,,,null,,,,
null,is touching,,html-keyboard-response,186,800500,0.0-15.0-2.14,76465,List2B,white,woman,,,,null,,,,
5761,,,survey-text,187,806262,0.0-15.0-3.14,76465,List2B,white,woman,,,,,"{""Q0"":""Mike is touching Dave""}","<img src=""stim_listB/touch5.gif""style=""height:400px;""></stim_listB>",is touching,
null,"<div style=""font-size:60px;"">+</div>",,html-keyboard-response,188,806764,0.0-15.0-0.15,76465,List2B,white,woman,,,,null,,,,
null,"<img src=""stim_listB/argue3.gif""style=""height:400px;""></stim_listB>",,html-keyboard-response,189,808766,0.0-15.0-1.15,76465,List2B,white,woman,,,,null,,,,
null,is arguing with,,html-keyboard-response,190,810769,0.0-15.0-2.15,76465,List2B,white,woman,,,,null,,,,
6796,,,survey-text,191,817566,0.0-15.0-3.15,76465,List2B,white,woman,,,,,"{""Q0"":""Beth is arguing with Mike""}","<img src=""stim_listB/argue3.gif""style=""height:400px;""></stim_listB>",is arguing with,
null,"<div style=""font-size:60px;"">+</div>",,html-keyboard-response,192,818068,0.0-15.0-0.16,76465,List2B,white,woman,,,,null,,,,
null,"<img src=""stim_listB/dance1.gif""style=""height:400px;""></stim_listB>",,html-keyboard-response,193,820071,0.0-15.0-1.16,76465,List2B,white,woman,,,,null,,,,
null,is dancing with,,html-keyboard-response,194,822073,0.0-15.0-2.16,76465,List2B,white,woman,,,,null,,,,
7026,,,survey-text,195,829100,0.0-15.0-3.16,76465,List2B,white,woman,,,,,"{""Q0"":""Jane is dancing with Luke""}","<img src=""stim_listB/dance1.gif""style=""height:400px;""></stim_listB>",is dancing with,
null,"<div style=""font-size:60px;"">+</div>",,html-keyboard-response,196,829602,0.0-15.0-0.17,76465,List2B,white,woman,,,,null,,,,
null,"<img src=""stim_listB/play8.gif""style=""height:400px;""></stim_listB>",,html-keyboard-response,197,831605,0.0-15.0-1.17,76465,List2B,white,woman,,,,null,,,,
null,are playing with each other,,html-keyboard-response,198,833607,0.0-15.0-2.17,76465,List2B,white,woman,,,,null,,,,
12258,,,survey-text,199,845867,0.0-15.0-3.17,76465,List2B,white,woman,,,,,"{""Q0"":""Beth and Ruth are playing with each other""}","<img src=""stim_listB/play8.gif""style=""height:400px;""></stim_listB>",are playing with each other,
null,"<div style=""font-size:60px;"">+</div>",,html-keyboard-response,200,846369,0.0-15.0-0.18,76465,List2B,white,woman,,,,null,,,,
null,"<img src=""stim_listB/flirt1.gif""style=""height:400px;""></stim_listB>",,html-keyboard-response,201,848370,0.0-15.0-1.18,76465,List2B,white,woman,,,,null,,,,
null,is flirting with,,html-keyboard-response,202,850371,0.0-15.0-2.18,76465,List2B,white,woman,,,,null,,,,
9513,,,survey-text,203,859886,0.0-15.0-3.18,76465,List2B,white,woman,,,,,"{""Q0"":""Luke is flirting with Jane""}","<img src=""stim_listB/flirt1.gif""style=""height:400px;""></stim_listB>",is flirting with,
null,"<div style=""font-size:60px;"">+</div>",,html-keyboard-response,204,860388,0.0-15.0-0.19,76465,List2B,white,woman,,,,null,,,,
null,"<img src=""stim_listB/talk3.gif""style=""height:400px;""></stim_listB>",,html-keyboard-response,205,862390,0.0-15.0-1.19,76465,List2B,white,woman,,,,null,,,,
null,is talking to,,html-keyboard-response,206,864392,0.0-15.0-2.19,76465,List2B,white,woman,,,,null,,,,
6827,,,survey-text,207,871219,0.0-15.0-3.19,76465,List2B,white,woman,,,,,"{""Q0"":""Fred is talking to Kate""}","<img src=""stim_listB/talk3.gif""style=""height:400px;""></stim_listB>",is talking to,
23486,"<img src='img/portrait_matrix_list2.jpg' style='width:900px;height:500px;''></img><p>If you have memorised all the portraits and names and are ready to start, press Continue.</p><p><strong>Please note: Your memory of these faces will be tested 4 times during this experiment.</strong></p>",0,html-button-response,208,894707,0.0-16.0-0.0,76465,List2B,white,woman,,,,,,,,
1576,"<img src=""portrait/WW2.jpg""style=""height:400px;""></img>",3,html-button-response,209,897286,0.0-16.0-1.0,76465,List2B,white,woman,,TRUE,3,,,,,
null,CORRECT,,html-keyboard-response,210,898789,0.0-16.0-2.0-0.0,76465,List2B,white,woman,,,,null,,,,
2108,"<img src=""portrait/WM1.jpg""style=""height:400px;""></img>",6,html-button-response,211,900899,0.0-16.0-4.0,76465,List2B,white,woman,,TRUE,6,,,,,
null,CORRECT,,html-keyboard-response,212,902402,0.0-16.0-5.0-0.0,76465,List2B,white,woman,,,,null,,,,
1610,"<img src=""portrait/BW2.jpg""style=""height:400px;""></img>",2,html-button-response,213,904013,0.0-16.0-7.0,76465,List2B,white,woman,,TRUE,2,,,,,
null,CORRECT,,html-keyboard-response,214,905517,0.0-16.0-8.0-0.0,76465,List2B,white,woman,,,,null,,,,
1367,"<img src=""portrait/BW1.jpg""style=""height:400px;""></img>",0,html-button-response,215,906885,0.0-16.0-10.0,76465,List2B,white,woman,,TRUE,0,,,,,
null,CORRECT,,html-keyboard-response,216,908388,0.0-16.0-11.0-0.0,76465,List2B,white,woman,,,,null,,,,
1632,"<img src=""portrait/BM1.jpg""style=""height:400px;""></img>",4,html-button-response,217,910022,0.0-16.0-13.0,76465,List2B,white,woman,,TRUE,4,,,,,
null,CORRECT,,html-keyboard-response,218,911525,0.0-16.0-14.0-0.0,76465,List2B,white,woman,,,,null,,,,
1230,"<img src=""portrait/WM2.jpg""style=""height:400px;""></img>",7,html-button-response,219,912756,0.0-16.0-16.0,76465,List2B,white,woman,,TRUE,7,,,,,
null,CORRECT,,html-keyboard-response,220,914259,0.0-16.0-17.0-0.0,76465,List2B,white,woman,,,,null,,,,
1333,"<img src=""portrait/BM2.jpg""style=""height:400px;""></img>",5,html-button-response,221,915594,0.0-16.0-19.0,76465,List2B,white,woman,,TRUE,5,,,,,
null,CORRECT,,html-keyboard-response,222,917097,0.0-16.0-20.0-0.0,76465,List2B,white,woman,,,,null,,,,
1809,"<img src=""portrait/WW1.jpg""style=""height:400px;""></img>",1,html-button-response,223,918908,0.0-16.0-22.0,76465,List2B,white,woman,,TRUE,1,,,,,
null,CORRECT,,html-keyboard-response,224,920411,0.0-16.0-23.0-0.0,76465,List2B,white,woman,,,,null,,,,
2335,<p>You got 8 out of 8 right first time. Press Continue.</p>,0,html-button-response,225,922747,0.0-16.0-25.0,76465,List2B,white,woman,,,,,,,,
null,"<div style=""font-size:60px;"">+</div>",,html-keyboard-response,226,924251,0.0-17.0-0.0,76465,List2B,white,woman,,,,null,,,,
null,"<img src=""stim_listB/touch8.gif""style=""height:400px;""></stim_listB>",,html-keyboard-response,227,926253,0.0-17.0-1.0,76465,List2B,white,woman,,,,null,,,,
null,are touching each other,,html-keyboard-response,228,928257,0.0-17.0-2.0,76465,List2B,white,woman,,,,null,,,,
9134,,,survey-text,229,937392,0.0-17.0-3.0,76465,List2B,white,woman,,,,,"{""Q0"":""Beth and Ruth are touching each other""}","<img src=""stim_listB/touch8.gif""style=""height:400px;""></stim_listB>",are touching each other,
null,"<div style=""font-size:60px;"">+</div>",,html-keyboard-response,230,937894,0.0-17.0-0.1,76465,List2B,white,woman,,,,null,,,,
null,"<img src=""stim_listB/talk7.gif""style=""height:400px;""></stim_listB>",,html-keyboard-response,231,939896,0.0-17.0-1.1,76465,List2B,white,woman,,,,null,,,,
null,is talking to,,html-keyboard-response,232,941899,0.0-17.0-2.1,76465,List2B,white,woman,,,,null,,,,
14024,,,survey-text,233,955923,0.0-17.0-3.1,76465,List2B,white,woman,,,,,"{""Q0"":""Ruth is talking to Kate""}","<img src=""stim_listB/talk7.gif""style=""height:400px;""></stim_listB>",is talking to,
null,"<div style=""font-size:60px;"">+</div>",,html-keyboard-response,234,956425,0.0-17.0-0.2,76465,List2B,white,woman,,,,null,,,,
null,"<img src=""stim_listB/flirt7.gif""style=""height:400px;""></stim_listB>",,html-keyboard-response,235,958427,0.0-17.0-1.2,76465,List2B,white,woman,,,,null,,,,
null,is flirting with,,html-keyboard-response,236,960428,0.0-17.0-2.2,76465,List2B,white,woman,,,,null,,,,
6629,,,survey-text,237,967058,0.0-17.0-3.2,76465,List2B,white,woman,,,,,"{""Q0"":""Kate is flirting with Ruth""}","<img src=""stim_listB/flirt7.gif""style=""height:400px;""></stim_listB>",is flirting with,
null,"<div style=""font-size:60px;"">+</div>",,html-keyboard-response,238,967559,0.0-17.0-0.3,76465,List2B,white,woman,,,,null,,,,
null,"<img src=""stim_listB/marry2.gif""style=""height:400px;""></stim_listB>",,html-keyboard-response,239,969561,0.0-17.0-1.3,76465,List2B,white,woman,,,,null,,,,
null,are marrying each other,,html-keyboard-response,240,971564,0.0-17.0-2.3,76465,List2B,white,woman,,,,null,,,,
9599,,,survey-text,241,981164,0.0-17.0-3.3,76465,List2B,white,woman,,,,,"{""Q0"":""Luke and Jane are marrying each other""}","<img src=""stim_listB/marry2.gif""style=""height:400px;""></stim_listB>",are marrying each other,
null,"<div style=""font-size:60px;"">+</div>",,html-keyboard-response,242,981666,0.0-17.0-0.4,76465,List2B,white,woman,,,,null,,,,
null,"<img src=""stim_listB/dance3.gif""style=""height:400px;""></stim_listB>",,html-keyboard-response,243,983669,0.0-17.0-1.4,76465,List2B,white,woman,,,,null,,,,
null,is dancing with,,html-keyboard-response,244,985671,0.0-17.0-2.4,76465,List2B,white,woman,,,,null,,,,
7870,,,survey-text,245,993543,0.0-17.0-3.4,76465,List2B,white,woman,,,,,"{""Q0"":""Fred is dancing with Kate""}","<img src=""stim_listB/dance3.gif""style=""height:400px;""></stim_listB>",is dancing with,
null,"<div style=""font-size:60px;"">+</div>",,html-keyboard-response,246,994045,0.0-17.0-0.5,76465,List2B,white,woman,,,,null,,,,
null,"<img src=""stim_listB/kiss2.gif""style=""height:400px;""></stim_listB>",,html-keyboard-response,247,996047,0.0-17.0-1.5,76465,List2B,white,woman,,,,null,,,,
null,are kissing each other,,html-keyboard-response,248,998049,0.0-17.0-2.5,76465,List2B,white,woman,,,,null,,,,
13819,,,survey-text,249,1011869,0.0-17.0-3.5,76465,List2B,white,woman,,,,,"{""Q0"":""Dave and Jane are kissing each other""}","<img src=""stim_listB/kiss2.gif""style=""height:400px;""></stim_listB>",are kissing each other,
null,"<div style=""font-size:60px;"">+</div>",,html-keyboard-response,250,1012371,0.0-17.0-0.6,76465,List2B,white,woman,,,,null,,,,
null,"<img src=""stim_listB/touch2.gif""style=""height:400px;""></stim_listB>",,html-keyboard-response,251,1014373,0.0-17.0-1.6,76465,List2B,white,woman,,,,null,,,,
null,are touching each other,,html-keyboard-response,252,1016375,0.0-17.0-2.6,76465,List2B,white,woman,,,,null,,,,
10325,,,survey-text,253,1026701,0.0-17.0-3.6,76465,List2B,white,woman,,,,,"{""Q0"":""Ruth and Luke are touching each other""}","<img src=""stim_listB/touch2.gif""style=""height:400px;""></stim_listB>",are touching each other,
null,"<div style=""font-size:60px;"">+</div>",,html-keyboard-response,254,1027202,0.0-17.0-0.7,76465,List2B,white,woman,,,,null,,,,
null,"<img src=""stim_listB/play3.gif""style=""height:400px;""></stim_listB>",,html-keyboard-response,255,1029205,0.0-17.0-1.7,76465,List2B,white,woman,,,,null,,,,
null,is playing with,,html-keyboard-response,256,1031207,0.0-17.0-2.7,76465,List2B,white,woman,,,,null,,,,
7685,,,survey-text,257,1038893,0.0-17.0-3.7,76465,List2B,white,woman,,,,,"{""Q0"":""Kate is playing with Mike""}","<img src=""stim_listB/play3.gif""style=""height:400px;""></stim_listB>",is playing with,
null,"<div style=""font-size:60px;"">+</div>",,html-keyboard-response,258,1039396,0.0-17.0-0.8,76465,List2B,white,woman,,,,null,,,,
null,"<img src=""stim_listB/fight3.gif""style=""height:400px;""></stim_listB>",,html-keyboard-response,259,1041398,0.0-17.0-1.8,76465,List2B,white,woman,,,,null,,,,
null,is fighting,,html-keyboard-response,260,1043400,0.0-17.0-2.8,76465,List2B,white,woman,,,,null,,,,
7250,,,survey-text,261,1050652,0.0-17.0-3.8,76465,List2B,white,woman,,,,,"{""Q0"":""Mike is fighting Kate""}","<img src=""stim_listB/fight3.gif""style=""height:400px;""></stim_listB>",is fighting,
null,"<div style=""font-size:60px;"">+</div>",,html-keyboard-response,262,1051153,0.0-17.0-0.9,76465,List2B,white,woman,,,,null,,,,
null,"<img src=""stim_listB/shout7.gif""style=""height:400px;""></stim_listB>",,html-keyboard-response,263,1053156,0.0-17.0-1.9,76465,List2B,white,woman,,,,null,,,,
null,is shouting at,,html-keyboard-response,264,1055157,0.0-17.0-2.9,76465,List2B,white,woman,,,,null,,,,
7219,,,survey-text,265,1062377,0.0-17.0-3.9,76465,List2B,white,woman,,,,,"{""Q0"":""Ruth is shouting at Beth""}","<img src=""stim_listB/shout7.gif""style=""height:400px;""></stim_listB>",is shouting at,
null,"<div style=""font-size:60px;"">+</div>",,html-keyboard-response,266,1062878,0.0-17.0-0.10,76465,List2B,white,woman,,,,null,,,,
null,"<img src=""stim_listB/talk1.gif""style=""height:400px;""></stim_listB>",,html-keyboard-response,267,1064881,0.0-17.0-1.10,76465,List2B,white,woman,,,,null,,,,
null,is talking to,,html-keyboard-response,268,1066883,0.0-17.0-2.10,76465,List2B,white,woman,,,,null,,,,
6588,,,survey-text,269,1073473,0.0-17.0-3.10,76465,List2B,white,woman,,,,,"{""Q0"":""Luke is talking to Jane""}","<img src=""stim_listB/talk1.gif""style=""height:400px;""></stim_listB>",is talking to,
null,"<div style=""font-size:60px;"">+</div>",,html-keyboard-response,270,1073975,0.0-17.0-0.11,76465,List2B,white,woman,,,,null,,,,
null,"<img src=""stim_listB/talk2.gif""style=""height:400px;""></stim_listB>",,html-keyboard-response,271,1075977,0.0-17.0-1.11,76465,List2B,white,woman,,,,null,,,,
null,are talking to each other,,html-keyboard-response,272,1077979,0.0-17.0-2.11,76465,List2B,white,woman,,,,null,,,,
11616,,,survey-text,273,1089597,0.0-17.0-3.11,76465,List2B,white,woman,,,,,"{""Q0"":""Ruth and Dave are talking to each other""}","<img src=""stim_listB/talk2.gif""style=""height:400px;""></stim_listB>",are talking to each other,
null,"<div style=""font-size:60px;"">+</div>",,html-keyboard-response,274,1090099,0.0-17.0-0.12,76465,List2B,white,woman,,,,null,,,,
null,"<img src=""stim_listB/touch4.gif""style=""height:400px;""></stim_listB>",,html-keyboard-response,275,1092101,0.0-17.0-1.12,76465,List2B,white,woman,,,,null,,,,
null,are touching each other,,html-keyboard-response,276,1094103,0.0-17.0-2.12,76465,List2B,white,woman,,,,null,,,,
8920,,,survey-text,277,1103025,0.0-17.0-3.12,76465,List2B,white,woman,,,,,"{""Q0"":""Fred and Beth are touching each other""}","<img src=""stim_listB/touch4.gif""style=""height:400px;""></stim_listB>",are touching each other,
null,"<div style=""font-size:60px;"">+</div>",,html-keyboard-response,278,1103527,0.0-17.0-0.13,76465,List2B,white,woman,,,,null,,,,
null,"<img src=""stim_listB/shout6.gif""style=""height:400px;""></stim_listB>",,html-keyboard-response,279,1105529,0.0-17.0-1.13,76465,List2B,white,woman,,,,null,,,,
null,are shouting at each other,,html-keyboard-response,280,1107532,0.0-17.0-2.13,76465,List2B,white,woman,,,,null,,,,
8292,,,survey-text,281,1115825,0.0-17.0-3.13,76465,List2B,white,woman,,,,,"{""Q0"":""Mike and Dave are shouting at each other""}","<img src=""stim_listB/shout6.gif""style=""height:400px;""></stim_listB>",are shouting at each other,
null,"<div style=""font-size:60px;"">+</div>",,html-keyboard-response,282,1116327,0.0-17.0-0.14,76465,List2B,white,woman,,,,null,,,,
null,"<img src=""stim_listB/touch7.gif""style=""height:400px;""></stim_listB>",,html-keyboard-response,283,1118329,0.0-17.0-1.14,76465,List2B,white,woman,,,,null,,,,
null,is touching,,html-keyboard-response,284,1120331,0.0-17.0-2.14,76465,List2B,white,woman,,,,null,,,,
9241,,,survey-text,285,1129574,0.0-17.0-3.14,76465,List2B,white,woman,,,,,"{""Q0"":""Jane is touching Kate""}","<img src=""stim_listB/touch7.gif""style=""height:400px;""></stim_listB>",is touching,
null,"<div style=""font-size:60px;"">+</div>",,html-keyboard-response,286,1130076,0.0-17.0-0.15,76465,List2B,white,woman,,,,null,,,,
null,"<img src=""stim_listB/kiss8.gif""style=""height:400px;""></stim_listB>",,html-keyboard-response,287,1132078,0.0-17.0-1.15,76465,List2B,white,woman,,,,null,,,,
null,are kissing each other,,html-keyboard-response,288,1134080,0.0-17.0-2.15,76465,List2B,white,woman,,,,null,,,,
14149,,,survey-text,289,1148230,0.0-17.0-3.15,76465,List2B,white,woman,,,,,"{""Q0"":""Kate and Jane are kissing each other""}","<img src=""stim_listB/kiss8.gif""style=""height:400px;""></stim_listB>",are kissing each other,
null,"<div style=""font-size:60px;"">+</div>",,html-keyboard-response,290,1148732,0.0-17.0-0.16,76465,List2B,white,woman,,,,null,,,,
null,"<img src=""stim_listB/kiss7.gif""style=""height:400px;""></stim_listB>",,html-keyboard-response,291,1150734,0.0-17.0-1.16,76465,List2B,white,woman,,,,null,,,,
null,is kissing,,html-keyboard-response,292,1152736,0.0-17.0-2.16,76465,List2B,white,woman,,,,null,,,,
6057,,,survey-text,293,1158794,0.0-17.0-3.16,76465,List2B,white,woman,,,,,"{""Q0"":""Beth is kissing Ruth""}","<img src=""stim_listB/kiss7.gif""style=""height:400px;""></stim_listB>",is kissing,
null,"<div style=""font-size:60px;"">+</div>",,html-keyboard-response,294,1159296,0.0-17.0-0.17,76465,List2B,white,woman,,,,null,,,,
null,"<img src=""stim_listB/flirt4.gif""style=""height:400px;""></stim_listB>",,html-keyboard-response,295,1161298,0.0-17.0-1.17,76465,List2B,white,woman,,,,null,,,,
null,are flirting with each other,,html-keyboard-response,296,1163299,0.0-17.0-2.17,76465,List2B,white,woman,,,,null,,,,
11114,,,survey-text,297,1174414,0.0-17.0-3.17,76465,List2B,white,woman,,,,,"{""Q0"":""Beth and Mike are flirting with each other""}","<img src=""stim_listB/flirt4.gif""style=""height:400px;""></stim_listB>",are flirting with each other,
null,"<div style=""font-size:60px;"">+</div>",,html-keyboard-response,298,1174916,0.0-17.0-0.18,76465,List2B,white,woman,,,,null,,,,
null,"<img src=""stim_listB/talk5.gif""style=""height:400px;""></stim_listB>",,html-keyboard-response,299,1176919,0.0-17.0-1.18,76465,List2B,white,woman,,,,null,,,,
null,is talking to,,html-keyboard-response,300,1178921,0.0-17.0-2.18,76465,List2B,white,woman,,,,null,,,,
5807,,,survey-text,301,1184730,0.0-17.0-3.18,76465,List2B,white,woman,,,,,"{""Q0"":""Luke is talking to Mike""}","<img src=""stim_listB/talk5.gif""style=""height:400px;""></stim_listB>",is talking to,
null,"<div style=""font-size:60px;"">+</div>",,html-keyboard-response,302,1185231,0.0-17.0-0.19,76465,List2B,white,woman,,,,null,,,,
null,"<img src=""stim_listB/flirt2.gif""style=""height:400px;""></stim_listB>",,html-keyboard-response,303,1187232,0.0-17.0-1.19,76465,List2B,white,woman,,,,null,,,,
null,are flirting with each other,,html-keyboard-response,304,1189234,0.0-17.0-2.19,76465,List2B,white,woman,,,,null,,,,
8811,,,survey-text,305,1198046,0.0-17.0-3.19,76465,List2B,white,woman,,,,,"{""Q0"":""Ruth and Dave are flirting with each other""}","<img src=""stim_listB/flirt2.gif""style=""height:400px;""></stim_listB>",are flirting with each other,
15041,"<img src='img/portrait_matrix_list2.jpg' style='width:900px;height:500px;''></img><p>If you have memorised all the portraits and names and are ready to start, press Continue.</p><p><strong>Please note: Your memory of these faces will be tested 4 times during this experiment.</strong></p>",0,html-button-response,306,1213088,0.0-18.0-0.0,76465,List2B,white,woman,,,,,,,,
1498,"<img src=""portrait/BW1.jpg""style=""height:400px;""></img>",0,html-button-response,307,1215589,0.0-18.0-1.0,76465,List2B,white,woman,,TRUE,0,,,,,
null,CORRECT,,html-keyboard-response,308,1217092,0.0-18.0-2.0-0.0,76465,List2B,white,woman,,,,null,,,,
2608,"<img src=""portrait/BM1.jpg""style=""height:400px;""></img>",4,html-button-response,309,1219702,0.0-18.0-4.0,76465,List2B,white,woman,,TRUE,4,,,,,
null,CORRECT,,html-keyboard-response,310,1221205,0.0-18.0-5.0-0.0,76465,List2B,white,woman,,,,null,,,,
1972,"<img src=""portrait/WM1.jpg""style=""height:400px;""></img>",6,html-button-response,311,1223179,0.0-18.0-7.0,76465,List2B,white,woman,,TRUE,6,,,,,
null,CORRECT,,html-keyboard-response,312,1224683,0.0-18.0-8.0-0.0,76465,List2B,white,woman,,,,null,,,,
1658,"<img src=""portrait/BW2.jpg""style=""height:400px;""></img>",2,html-button-response,313,1226344,0.0-18.0-10.0,76465,List2B,white,woman,,TRUE,2,,,,,
null,CORRECT,,html-keyboard-response,314,1227848,0.0-18.0-11.0-0.0,76465,List2B,white,woman,,,,null,,,,
1382,"<img src=""portrait/WW2.jpg""style=""height:400px;""></img>",3,html-button-response,315,1229233,0.0-18.0-13.0,76465,List2B,white,woman,,TRUE,3,,,,,
null,CORRECT,,html-keyboard-response,316,1230736,0.0-18.0-14.0-0.0,76465,List2B,white,woman,,,,null,,,,
1431,"<img src=""portrait/WM2.jpg""style=""height:400px;""></img>",7,html-button-response,317,1232170,0.0-18.0-16.0,76465,List2B,white,woman,,TRUE,7,,,,,
null,CORRECT,,html-keyboard-response,318,1233672,0.0-18.0-17.0-0.0,76465,List2B,white,woman,,,,null,,,,
2117,"<img src=""portrait/WW1.jpg""style=""height:400px;""></img>",1,html-button-response,319,1235792,0.0-18.0-19.0,76465,List2B,white,woman,,TRUE,1,,,,,
null,CORRECT,,html-keyboard-response,320,1237295,0.0-18.0-20.0-0.0,76465,List2B,white,woman,,,,null,,,,
1424,"<img src=""portrait/BM2.jpg""style=""height:400px;""></img>",5,html-button-response,321,1238722,0.0-18.0-22.0,76465,List2B,white,woman,,TRUE,5,,,,,
null,CORRECT,,html-keyboard-response,322,1240224,0.0-18.0-23.0-0.0,76465,List2B,white,woman,,,,null,,,,
3643,<p>You got 8 out of 8 right first time. Press Continue.</p>,0,html-button-response,323,1243868,0.0-18.0-25.0,76465,List2B,white,woman,,,,,,,,
null,"<div style=""font-size:60px;"">+</div>",,html-keyboard-response,324,1245372,0.0-19.0-0.0,76465,List2B,white,woman,,,,null,,,,
null,"<img src=""stim_listB/shout4.gif""style=""height:400px;""></stim_listB>",,html-keyboard-response,325,1247375,0.0-19.0-1.0,76465,List2B,white,woman,,,,null,,,,
null,are shouting at each other,,html-keyboard-response,326,1249377,0.0-19.0-2.0,76465,List2B,white,woman,,,,null,,,,
8004,,,survey-text,327,1257382,0.0-19.0-3.0,76465,List2B,white,woman,,,,,"{""Q0"":""Mike and Kate are shouting at each other""}","<img src=""stim_listB/shout4.gif""style=""height:400px;""></stim_listB>",are shouting at each other,
null,"<div style=""font-size:60px;"">+</div>",,html-keyboard-response,328,1257885,0.0-19.0-0.1,76465,List2B,white,woman,,,,null,,,,
null,"<img src=""stim_listB/flirt5.gif""style=""height:400px;""></stim_listB>",,html-keyboard-response,329,1259887,0.0-19.0-1.1,76465,List2B,white,woman,,,,null,,,,
null,is flirting with,,html-keyboard-response,330,1261889,0.0-19.0-2.1,76465,List2B,white,woman,,,,null,,,,
5778,,,survey-text,331,1267668,0.0-19.0-3.1,76465,List2B,white,woman,,,,,"{""Q0"":""Mike is flirting with Luke""}","<img src=""stim_listB/flirt5.gif""style=""height:400px;""></stim_listB>",is flirting with,
null,"<div style=""font-size:60px;"">+</div>",,html-keyboard-response,332,1268170,0.0-19.0-0.2,76465,List2B,white,woman,,,,null,,,,
null,"<img src=""stim_listB/talk6.gif""style=""height:400px;""></stim_listB>",,html-keyboard-response,333,1270173,0.0-19.0-1.2,76465,List2B,white,woman,,,,null,,,,
null,are talking to each other,,html-keyboard-response,334,1272175,0.0-19.0-2.2,76465,List2B,white,woman,,,,null,,,,
8200,,,survey-text,335,1280376,0.0-19.0-3.2,76465,List2B,white,woman,,,,,"{""Q0"":""Dave and Fred are talking to each other""}","<img src=""stim_listB/talk6.gif""style=""height:400px;""></stim_listB>",are talking to each other,
null,"<div style=""font-size:60px;"">+</div>",,html-keyboard-response,336,1280878,0.0-19.0-0.3,76465,List2B,white,woman,,,,null,,,,
null,"<img src=""stim_listB/flirt3.gif""style=""height:400px;""></stim_listB>",,html-keyboard-response,337,1282881,0.0-19.0-1.3,76465,List2B,white,woman,,,,null,,,,
null,is flirting with,,html-keyboard-response,338,1284883,0.0-19.0-2.3,76465,List2B,white,woman,,,,null,,,,
6049,,,survey-text,339,1290934,0.0-19.0-3.3,76465,List2B,white,woman,,,,,"{""Q0"":""Fred is flirting with Kate""}","<img src=""stim_listB/flirt3.gif""style=""height:400px;""></stim_listB>",is flirting with,
null,"<div style=""font-size:60px;"">+</div>",,html-keyboard-response,340,1291436,0.0-19.0-0.4,76465,List2B,white,woman,,,,null,,,,
null,"<img src=""stim_listB/shout2.gif""style=""height:400px;""></stim_listB>",,html-keyboard-response,341,1293438,0.0-19.0-1.4,76465,List2B,white,woman,,,,null,,,,
null,are shouting at each other,,html-keyboard-response,342,1295440,0.0-19.0-2.4,76465,List2B,white,woman,,,,null,,,,
9235,,,survey-text,343,1304677,0.0-19.0-3.4,76465,List2B,white,woman,,,,,"{""Q0"":""Jane and Dave are shouting at each other""}","<img src=""stim_listB/shout2.gif""style=""height:400px;""></stim_listB>",are shouting at each other,
null,"<div style=""font-size:60px;"">+</div>",,html-keyboard-response,344,1305179,0.0-19.0-0.5,76465,List2B,white,woman,,,,null,,,,
null,"<img src=""stim_listB/kiss1.gif""style=""height:400px;""></stim_listB>",,html-keyboard-response,345,1307181,0.0-19.0-1.5,76465,List2B,white,woman,,,,null,,,,
null,is kissing,,html-keyboard-response,346,1309184,0.0-19.0-2.5,76465,List2B,white,woman,,,,null,,,,
7327,,,survey-text,347,1316511,0.0-19.0-3.5,76465,List2B,white,woman,,,,,"{""Q0"":""Luke is kissing Ruth""}","<img src=""stim_listB/kiss1.gif""style=""height:400px;""></stim_listB>",is kissing,
null,"<div style=""font-size:60px;"">+</div>",,html-keyboard-response,348,1317013,0.0-19.0-0.6,76465,List2B,white,woman,,,,null,,,,
null,"<img src=""stim_listB/dance6.gif""style=""height:400px;""></stim_listB>",,html-keyboard-response,349,1319016,0.0-19.0-1.6,76465,List2B,white,woman,,,,null,,,,
null,are dancing with each other,,html-keyboard-response,350,1321018,0.0-19.0-2.6,76465,List2B,white,woman,,,,null,,,,
10528,,,survey-text,351,1331547,0.0-19.0-3.6,76465,List2B,white,woman,,,,,"{""Q0"":""Fred and Dave are dancing with each other""}","<img src=""stim_listB/dance6.gif""style=""height:400px;""></stim_listB>",are dancing with each other,
null,"<div style=""font-size:60px;"">+</div>",,html-keyboard-response,352,1332050,0.0-19.0-0.7,76465,List2B,white,woman,,,,null,,,,
null,"<img src=""stim_listB/kiss3.gif""style=""height:400px;""></stim_listB>",,html-keyboard-response,353,1334052,0.0-19.0-1.7,76465,List2B,white,woman,,,,null,,,,
null,is kissing,,html-keyboard-response,354,1336053,0.0-19.0-2.7,76465,List2B,white,woman,,,,null,,,,
5702,,,survey-text,355,1341756,0.0-19.0-3.7,76465,List2B,white,woman,,,,,"{""Q0"":""Beth is kissing Fred""}","<img src=""stim_listB/kiss3.gif""style=""height:400px;""></stim_listB>",is kissing,
null,"<div style=""font-size:60px;"">+</div>",,html-keyboard-response,356,1342257,0.0-19.0-0.8,76465,List2B,white,woman,,,,null,,,,
null,"<img src=""stim_listB/argue7.gif""style=""height:400px;""></stim_listB>",,html-keyboard-response,357,1344258,0.0-19.0-1.8,76465,List2B,white,woman,,,,null,,,,
null,is arguing with,,html-keyboard-response,358,1346260,0.0-19.0-2.8,76465,List2B,white,woman,,,,null,,,,
7019,,,survey-text,359,1353280,0.0-19.0-3.8,76465,List2B,white,woman,,,,,"{""Q0"":""Jane is arguing with Beth""}","<img src=""stim_listB/argue7.gif""style=""height:400px;""></stim_listB>",is arguing with,
null,"<div style=""font-size:60px;"">+</div>",,html-keyboard-response,360,1353782,0.0-19.0-0.9,76465,List2B,white,woman,,,,null,,,,
null,"<img src=""stim_listB/play4.gif""style=""height:400px;""></stim_listB>",,html-keyboard-response,361,1355784,0.0-19.0-1.9,76465,List2B,white,woman,,,,null,,,,
null,are playing with each other,,html-keyboard-response,362,1357786,0.0-19.0-2.9,76465,List2B,white,woman,,,,null,,,,
10026,,,survey-text,363,1367814,0.0-19.0-3.9,76465,List2B,white,woman,,,,,"{""Q0"":""Beth and Fred are playing with each other""}","<img src=""stim_listB/play4.gif""style=""height:400px;""></stim_listB>",are playing with each other,
null,"<div style=""font-size:60px;"">+</div>",,html-keyboard-response,364,1368316,0.0-19.0-0.10,76465,List2B,white,woman,,,,null,,,,
null,"<img src=""stim_listB/marry1.gif""style=""height:400px;""></stim_listB>",,html-keyboard-response,365,1370318,0.0-19.0-1.10,76465,List2B,white,woman,,,,null,,,,
null,is marrying,,html-keyboard-response,366,1372321,0.0-19.0-2.10,76465,List2B,white,woman,,,,null,,,,
15206,,,survey-text,367,1387529,0.0-19.0-3.10,76465,List2B,white,woman,,,,,"{""Q0"":""Dave is marrying Ruth""}","<img src=""stim_listB/marry1.gif""style=""height:400px;""></stim_listB>",is marrying,
null,"<div style=""font-size:60px;"">+</div>",,html-keyboard-response,368,1388030,0.0-19.0-0.11,76465,List2B,white,woman,,,,null,,,,
null,"<img src=""stim_listB/play6.gif""style=""height:400px;""></stim_listB>",,html-keyboard-response,369,1390033,0.0-19.0-1.11,76465,List2B,white,woman,,,,null,,,,
null,are playing with each other,,html-keyboard-response,370,1392035,0.0-19.0-2.11,76465,List2B,white,woman,,,,null,,,,
10561,,,survey-text,371,1402598,0.0-19.0-3.11,76465,List2B,white,woman,,,,,"{""Q0"":""Luke and Fred are playing with each other""}","<img src=""stim_listB/play6.gif""style=""height:400px;""></stim_listB>",are playing with each other,
null,"<div style=""font-size:60px;"">+</div>",,html-keyboard-response,372,1403099,0.0-19.0-0.12,76465,List2B,white,woman,,,,null,,,,
null,"<img src=""stim_listB/talk4.gif""style=""height:400px;""></stim_listB>",,html-keyboard-response,373,1405101,0.0-19.0-1.12,76465,List2B,white,woman,,,,null,,,,
null,are talking to each other,,html-keyboard-response,374,1407104,0.0-19.0-2.12,76465,List2B,white,woman,,,,null,,,,
10272,,,survey-text,375,1417377,0.0-19.0-3.12,76465,List2B,white,woman,,,,,"{""Q0"":""Mike and Beth are talking to each other""}","<img src=""stim_listB/talk4.gif""style=""height:400px;""></stim_listB>",are talking to each other,
null,"<div style=""font-size:60px;"">+</div>",,html-keyboard-response,376,1417879,0.0-19.0-0.13,76465,List2B,white,woman,,,,null,,,,
null,"<img src=""stim_listB/fight4.gif""style=""height:400px;""></stim_listB>",,html-keyboard-response,377,1419881,0.0-19.0-1.13,76465,List2B,white,woman,,,,null,,,,
null,are fighting each other,,html-keyboard-response,378,1421883,0.0-19.0-2.13,76465,List2B,white,woman,,,,null,,,,
11264,,,survey-text,379,1433149,0.0-19.0-3.13,76465,List2B,white,woman,,,,,"{""Q0"":""Fred and Beth are fighting each other""}","<img src=""stim_listB/fight4.gif""style=""height:400px;""></stim_listB>",are fighting each other,
null,"<div style=""font-size:60px;"">+</div>",,html-keyboard-response,380,1433651,0.0-19.0-0.14,76465,List2B,white,woman,,,,null,,,,
null,"<img src=""stim_listB/play5.gif""style=""height:400px;""></stim_listB>",,html-keyboard-response,381,1435653,0.0-19.0-1.14,76465,List2B,white,woman,,,,null,,,,
null,is playing with,,html-keyboard-response,382,1437656,0.0-19.0-2.14,76465,List2B,white,woman,,,,null,,,,
16372,,,survey-text,383,1454029,0.0-19.0-3.14,76465,List2B,white,woman,,,,,"{""Q0"":""Mike is playing with Ruth""}","<img src=""stim_listB/play5.gif""style=""height:400px;""></stim_listB>",is playing with,
null,"<div style=""font-size:60px;"">+</div>",,html-keyboard-response,384,1454531,0.0-19.0-0.15,76465,List2B,white,woman,,,,null,,,,
null,"<img src=""stim_listB/fight8.gif""style=""height:400px;""></stim_listB>",,html-keyboard-response,385,1456533,0.0-19.0-1.15,76465,List2B,white,woman,,,,null,,,,
null,are fighting each other,,html-keyboard-response,386,1458536,0.0-19.0-2.15,76465,List2B,white,woman,,,,null,,,,
9472,,,survey-text,387,1468010,0.0-19.0-3.15,76465,List2B,white,woman,,,,,"{""Q0"":""Ruth and Beth are fighting each other""}","<img src=""stim_listB/fight8.gif""style=""height:400px;""></stim_listB>",are fighting each other,
null,"<div style=""font-size:60px;"">+</div>",,html-keyboard-response,388,1468512,0.0-19.0-0.16,76465,List2B,white,woman,,,,null,,,,
null,"<img src=""stim_listB/shout8.gif""style=""height:400px;""></stim_listB>",,html-keyboard-response,389,1470514,0.0-19.0-1.16,76465,List2B,white,woman,,,,null,,,,
null,are shouting at each other,,html-keyboard-response,390,1472518,0.0-19.0-2.16,76465,List2B,white,woman,,,,null,,,,
12694,,,survey-text,391,1485213,0.0-19.0-3.16,76465,List2B,white,woman,,,,,"{""Q0"":""Jane and Kate are shouting at each other""}","<img src=""stim_listB/shout8.gif""style=""height:400px;""></stim_listB>",are shouting at each other,
null,"<div style=""font-size:60px;"">+</div>",,html-keyboard-response,392,1485715,0.0-19.0-0.17,76465,List2B,white,woman,,,,null,,,,
null,"<img src=""stim_listB/marry7.gif""style=""height:400px;""></stim_listB>",,html-keyboard-response,393,1487718,0.0-19.0-1.17,76465,List2B,white,woman,,,,null,,,,
null,is marrying,,html-keyboard-response,394,1489720,0.0-19.0-2.17,76465,List2B,white,woman,,,,null,,,,
6186,,,survey-text,395,1495907,0.0-19.0-3.17,76465,List2B,white,woman,,,,,"{""Q0"":""Jane is marrying Beth""}","<img src=""stim_listB/marry7.gif""style=""height:400px;""></stim_listB>",is marrying,
null,"<div style=""font-size:60px;"">+</div>",,html-keyboard-response,396,1496409,0.0-19.0-0.18,76465,List2B,white,woman,,,,null,,,,
null,"<img src=""stim_listB/dance8.gif""style=""height:400px;""></stim_listB>",,html-keyboard-response,397,1498412,0.0-19.0-1.18,76465,List2B,white,woman,,,,null,,,,
null,are dancing with each other,,html-keyboard-response,398,1500414,0.0-19.0-2.18,76465,List2B,white,woman,,,,null,,,,
8877,,,survey-text,399,1509292,0.0-19.0-3.18,76465,List2B,white,woman,,,,,"{""Q0"":""Jane and Beth are dancing with each other""}","<img src=""stim_listB/dance8.gif""style=""height:400px;""></stim_listB>",are dancing with each other,
null,"<div style=""font-size:60px;"">+</div>",,html-keyboard-response,400,1509794,0.0-19.0-0.19,76465,List2B,white,woman,,,,null,,,,
null,"<img src=""stim_listB/dance2.gif""style=""height:400px;""></stim_listB>",,html-keyboard-response,401,1511796,0.0-19.0-1.19,76465,List2B,white,woman,,,,null,,,,
null,are dancing with each other,,html-keyboard-response,402,1513798,0.0-19.0-2.19,76465,List2B,white,woman,,,,null,,,,
12670,,,survey-text,403,1526469,0.0-19.0-3.19,76465,List2B,white,woman,,,,,"{""Q0"":""Dave and Ruth are dancing with each other""}","<img src=""stim_listB/dance2.gif""style=""height:400px;""></stim_listB>",are dancing with each other,
2096,<p>Thank you for completing that task.</p><p>The final part of this session is a short questionnaire.</p><p>Press Continue.</p>,0,html-button-response,404,1528566,0.0-20.0,76465,List2B,white,woman,,,,,,,,
22074,,,survey-text,405,1551643,0.0-21.0,76465,List2B,white,woman,,,,,"{""Q0"":""19"",""Q1"":""English"",""Q2"":""English"",""Q3"":""England"",""Q4"":""White"",""Q5"":""Female""}",,,demographics
7855,,,survey-likert,406,1559500,0.0-22.0,76465,List2B,white,woman,,,,,"{""Q0"":4}",,,likert_ESS
5263,,,survey-likert,407,1564769,0.0-23.0,76465,List2B,white,woman,,,,,"{""Q0"":4}",,,likert_NSSAL_Q1
4466,,,survey-likert,408,1569241,0.0-24.0,76465,List2B,white,woman,,,,,"{""Q0"":4}",,,likert_NSSAL_Q2
3103,,,survey-likert,409,1572350,0.0-25.0,76465,List2B,white,woman,,,,,"{""Q0"":4}",,,likert_CGRS_Q1
2254,,,survey-likert,410,1574610,0.0-26.0,76465,List2B,white,woman,,,,,"{""Q0"":4}",,,likert_CGRS_Q2
2078,,,survey-likert,411,1576694,0.0-27.0,76465,List2B,white,woman,,,,,"{""Q0"":4}",,,likert_CGRS_Q3
7472,,,survey-text,412,1584172,0.0-28.0,76465,List2B,white,woman,,,,,"{""Q0"":""ccc""}",,,worker_id
15191,,,external-html,413,1599411,0.0-29.0,76465,List2B,white,woman,debrief.html,,,,,,,
