rt,stimulus,button_pressed,trial_type,trial_index,time_elapsed,internal_node_id,subject,list,ppt_race,ppt_gender,url,first_guess,correct,key_press,responses,image_type,phrase_type,test_part
2292,Welcome to the experiment. Press Continue to begin.,0,html-button-response,0,2294,0.0-0.0,76586,List1A,white,man,,,,,,,,
13261,,,external-html,1,16591,0.0-1.0,76586,List1A,white,man,consent.html,,,,,,,
14282,"<p>On the next page, you will see portraits of 8 people and their names.</p><p>Your first task is to take a few minutes to memorise the names of these people.</p><p>You will have to recall their names during the rest of the experiment, so it is</p><p>essential that you try to memorise these people and their names as best as you can.</p><br><p><strong>You will then be tested on your memory of these names and portraits.</strong></p><br><p>The experiment will start after you have completed this memory test.</p><br><p>Ready?</p>",0,html-button-response,2,30874,0.0-2.0,76586,List1A,white,man,,,,,,,,
123717,"<img src='img/portrait_matrix_list1.jpg' style='width:900px;height:500px;''></img><p>If you have memorised all the portraits and names and are ready to start, press Continue.</p><p><strong>Please note: Your memory of these faces will be tested 4 times during this experiment.</strong></p>",0,html-button-response,3,155593,0.0-3.0-0.0,76586,List1A,white,man,,,,,,,,
2588,"<img src=""portrait/WW2.jpg""style=""height:400px;""></img>",3,html-button-response,4,159184,0.0-3.0-1.0,76586,List1A,white,man,,TRUE,3,,,,,
null,CORRECT,,html-keyboard-response,5,160691,0.0-3.0-2.0-0.0,76586,List1A,white,man,,,,null,,,,
2716,"<img src=""portrait/WW1.jpg""style=""height:400px;""></img>",1,html-button-response,6,163408,0.0-3.0-4.0,76586,List1A,white,man,,TRUE,1,,,,,
null,CORRECT,,html-keyboard-response,7,164911,0.0-3.0-5.0-0.0,76586,List1A,white,man,,,,null,,,,
1817,"<img src=""portrait/BM1.jpg""style=""height:400px;""></img>",4,html-button-response,8,166729,0.0-3.0-7.0,76586,List1A,white,man,,TRUE,4,,,,,
null,CORRECT,,html-keyboard-response,9,168231,0.0-3.0-8.0-0.0,76586,List1A,white,man,,,,null,,,,
2057,"<img src=""portrait/WM2.jpg""style=""height:400px;""></img>",7,html-button-response,10,170289,0.0-3.0-10.0,76586,List1A,white,man,,TRUE,7,,,,,
null,CORRECT,,html-keyboard-response,11,171793,0.0-3.0-11.0-0.0,76586,List1A,white,man,,,,null,,,,
2925,"<img src=""portrait/WM1.jpg""style=""height:400px;""></img>",6,html-button-response,12,174721,0.0-3.0-13.0,76586,List1A,white,man,,TRUE,6,,,,,
null,CORRECT,,html-keyboard-response,13,176223,0.0-3.0-14.0-0.0,76586,List1A,white,man,,,,null,,,,
2314,"<img src=""portrait/BW1.jpg""style=""height:400px;""></img>",0,html-button-response,14,178538,0.0-3.0-16.0,76586,List1A,white,man,,TRUE,0,,,,,
null,CORRECT,,html-keyboard-response,15,180041,0.0-3.0-17.0-0.0,76586,List1A,white,man,,,,null,,,,
1929,"<img src=""portrait/BW2.jpg""style=""height:400px;""></img>",2,html-button-response,16,181970,0.0-3.0-19.0,76586,List1A,white,man,,TRUE,2,,,,,
null,CORRECT,,html-keyboard-response,17,183472,0.0-3.0-20.0-0.0,76586,List1A,white,man,,,,null,,,,
1706,"<img src=""portrait/BM2.jpg""style=""height:400px;""></img>",5,html-button-response,18,185179,0.0-3.0-22.0,76586,List1A,white,man,,TRUE,5,,,,,
null,CORRECT,,html-keyboard-response,19,186681,0.0-3.0-23.0-0.0,76586,List1A,white,man,,,,null,,,,
1704,<p>You got 8 out of 8 right first time. Press Continue.</p>,0,html-button-response,20,188387,0.0-3.0-25.0,76586,List1A,white,man,,,,,,,,
73089,"<p>In this experiment, you will view photographs of the people from the memory game interacting.</p><p>By using the <strong>exact</strong> phrase given <i>after</i> the photograph appears and recalling the correct names of the people in the photographs, form a sentence describing the interaction. You do not need to capitalise names.</p><p>Type your answer in the space provided. Please complete every sentence before moving onto the next trial.</p><p>You will only have a few seconds to memorise each given photograph and phrase before you can respond, so try your best to focus.</p><p>An example is given below. Press 'Continue' when you are ready.</p><img src='img/speaking_example.jpg' style='width:800px;height:460px;''></img>",0,html-button-response,21,262478,0.0-4.0,76586,List1A,white,man,,,,,,,,
2935,"<p>Before the experiment starts, you will watch two example trials. Press 'Continue'.</p>",0,html-button-response,22,266415,0.0-5.0,76586,List1A,white,man,,,,,,,,
null,<img src='img/meet_eg.gif' style='height:400px;''></img>,,html-keyboard-response,23,269418,0.0-6.0,76586,List1A,white,man,,,,null,,,,
null,<p>is meeting</p>,,html-keyboard-response,24,271419,0.0-7.0,76586,List1A,white,man,,,,null,,,,
5356,<p><b>Answer:</b> kate is meeting beth</p>,0,html-button-response,25,276776,0.0-8.0,76586,List1A,white,man,,,,,,,,
null,<img src='img/look_eg.gif' style='height:400px;''></img>,,html-keyboard-response,26,279779,0.0-9.0,76586,List1A,white,man,,,,null,,,,
null,<p>are looking at each other</p>,,html-keyboard-response,27,281780,0.0-10.0,76586,List1A,white,man,,,,null,,,,
4094,<p><b>Answer:</b> luke and dave are looking at each other</p>,0,html-button-response,28,285875,0.0-11.0,76586,List1A,white,man,,,,,,,,
12392,"<p>Ready to start the experiment?</p><br><p><strong>Remember to describe the picture using a full sentence,</strong></p><p><strong>that combines the names of the people with the <i>exact</i> phrase given.</strong></p><p><strong>To receive full payment you must do this correctly.</strong></p><p><strong> You do not need to capitalise names or use punctuation.</strong></p><br><p>Press 'Continue' to begin.</p>",0,html-button-response,29,299268,0.0-12.0,76586,List1A,white,man,,,,,,,,
null,"<div style=""font-size:60px;"">+</div>",,html-keyboard-response,30,300771,0.0-13.0-0.0,76586,List1A,white,man,,,,null,,,,
null,"<img src=""stim_listA/play5.gif""style=""height:400px;""></stim_listA>",,html-keyboard-response,31,302775,0.0-13.0-1.0,76586,List1A,white,man,,,,null,,,,
null,is playing with,,html-keyboard-response,32,304777,0.0-13.0-2.0,76586,List1A,white,man,,,,null,,,,
9173,,,survey-text,33,313951,0.0-13.0-3.0,76586,List1A,white,man,,,,,"{""Q0"":""mike is playing with dave""}","<img src=""stim_listA/play5.gif""style=""height:400px;""></stim_listA>",is playing with,
null,"<div style=""font-size:60px;"">+</div>",,html-keyboard-response,34,314453,0.0-13.0-0.1,76586,List1A,white,man,,,,null,,,,
null,"<img src=""stim_listA/kiss3.gif""style=""height:400px;""></stim_listA>",,html-keyboard-response,35,316455,0.0-13.0-1.1,76586,List1A,white,man,,,,null,,,,
null,is kissing,,html-keyboard-response,36,318456,0.0-13.0-2.1,76586,List1A,white,man,,,,null,,,,
6519,,,survey-text,37,324976,0.0-13.0-3.1,76586,List1A,white,man,,,,,"{""Q0"":""ruth is kissing luke""}","<img src=""stim_listA/kiss3.gif""style=""height:400px;""></stim_listA>",is kissing,
null,"<div style=""font-size:60px;"">+</div>",,html-keyboard-response,38,325477,0.0-13.0-0.2,76586,List1A,white,man,,,,null,,,,
null,"<img src=""stim_listA/dance5.gif""style=""height:400px;""></stim_listA>",,html-keyboard-response,39,327479,0.0-13.0-1.2,76586,List1A,white,man,,,,null,,,,
null,is dancing with,,html-keyboard-response,40,329481,0.0-13.0-2.2,76586,List1A,white,man,,,,null,,,,
5104,,,survey-text,41,334586,0.0-13.0-3.2,76586,List1A,white,man,,,,,"{""Q0"":""fred is dancing with dave""}","<img src=""stim_listA/dance5.gif""style=""height:400px;""></stim_listA>",is dancing with,
null,"<div style=""font-size:60px;"">+</div>",,html-keyboard-response,42,335087,0.0-13.0-0.3,76586,List1A,white,man,,,,null,,,,
null,"<img src=""stim_listA/marry8.gif""style=""height:400px;""></stim_listA>",,html-keyboard-response,43,337089,0.0-13.0-1.3,76586,List1A,white,man,,,,null,,,,
null,are marrying each other,,html-keyboard-response,44,339091,0.0-13.0-2.3,76586,List1A,white,man,,,,null,,,,
6447,,,survey-text,45,345539,0.0-13.0-3.3,76586,List1A,white,man,,,,,"{""Q0"":""Jane and beth are marrying each other""}","<img src=""stim_listA/marry8.gif""style=""height:400px;""></stim_listA>",are marrying each other,
null,"<div style=""font-size:60px;"">+</div>",,html-keyboard-response,46,346041,0.0-13.0-0.4,76586,List1A,white,man,,,,null,,,,
null,"<img src=""stim_listA/flirt3.gif""style=""height:400px;""></stim_listA>",,html-keyboard-response,47,348043,0.0-13.0-1.4,76586,List1A,white,man,,,,null,,,,
null,is flirting with,,html-keyboard-response,48,350044,0.0-13.0-2.4,76586,List1A,white,man,,,,null,,,,
8848,,,survey-text,49,358893,0.0-13.0-3.4,76586,List1A,white,man,,,,,"{""Q0"":""luke is flirting with jane""}","<img src=""stim_listA/flirt3.gif""style=""height:400px;""></stim_listA>",is flirting with,
null,"<div style=""font-size:60px;"">+</div>",,html-keyboard-response,50,359395,0.0-13.0-0.5,76586,List1A,white,man,,,,null,,,,
null,"<img src=""stim_listA/play2.gif""style=""height:400px;""></stim_listA>",,html-keyboard-response,51,361398,0.0-13.0-1.5,76586,List1A,white,man,,,,null,,,,
null,are playing with each other,,html-keyboard-response,52,363399,0.0-13.0-2.5,76586,List1A,white,man,,,,null,,,,
11647,,,survey-text,53,375047,0.0-13.0-3.5,76586,List1A,white,man,,,,,"{""Q0"":""beth and fred are playing with each other""}","<img src=""stim_listA/play2.gif""style=""height:400px;""></stim_listA>",are playing with each other,
null,"<div style=""font-size:60px;"">+</div>",,html-keyboard-response,54,375549,0.0-13.0-0.6,76586,List1A,white,man,,,,null,,,,
null,"<img src=""stim_listA/marry3.gif""style=""height:400px;""></stim_listA>",,html-keyboard-response,55,377551,0.0-13.0-1.6,76586,List1A,white,man,,,,null,,,,
null,is marrying,,html-keyboard-response,56,379554,0.0-13.0-2.6,76586,List1A,white,man,,,,null,,,,
20103,,,survey-text,57,399658,0.0-13.0-3.6,76586,List1A,white,man,,,,,"{""Q0"":""ruth and dave are marrying each other""}","<img src=""stim_listA/marry3.gif""style=""height:400px;""></stim_listA>",is marrying,
null,"<div style=""font-size:60px;"">+</div>",,html-keyboard-response,58,400159,0.0-13.0-0.7,76586,List1A,white,man,,,,null,,,,
null,"<img src=""stim_listA/dance8.gif""style=""height:400px;""></stim_listA>",,html-keyboard-response,59,402162,0.0-13.0-1.7,76586,List1A,white,man,,,,null,,,,
null,are dancing with each other,,html-keyboard-response,60,404163,0.0-13.0-2.7,76586,List1A,white,man,,,,null,,,,
6992,,,survey-text,61,411156,0.0-13.0-3.7,76586,List1A,white,man,,,,,"{""Q0"":""jane and ruth are dancing with each other""}","<img src=""stim_listA/dance8.gif""style=""height:400px;""></stim_listA>",are dancing with each other,
null,"<div style=""font-size:60px;"">+</div>",,html-keyboard-response,62,411658,0.0-13.0-0.8,76586,List1A,white,man,,,,null,,,,
null,"<img src=""stim_listA/fight3.gif""style=""height:400px;""></stim_listA>",,html-keyboard-response,63,413660,0.0-13.0-1.8,76586,List1A,white,man,,,,null,,,,
null,is fighting,,html-keyboard-response,64,415661,0.0-13.0-2.8,76586,List1A,white,man,,,,null,,,,
14913,,,survey-text,65,430574,0.0-13.0-3.8,76586,List1A,white,man,,,,,"{""Q0"":""jane is fighting dave""}","<img src=""stim_listA/fight3.gif""style=""height:400px;""></stim_listA>",is fighting,
null,"<div style=""font-size:60px;"">+</div>",,html-keyboard-response,66,431076,0.0-13.0-0.9,76586,List1A,white,man,,,,null,,,,
null,"<img src=""stim_listA/shout3.gif""style=""height:400px;""></stim_listA>",,html-keyboard-response,67,433079,0.0-13.0-1.9,76586,List1A,white,man,,,,null,,,,
null,is shouting at,,html-keyboard-response,68,435080,0.0-13.0-2.9,76586,List1A,white,man,,,,null,,,,
5038,,,survey-text,69,440120,0.0-13.0-3.9,76586,List1A,white,man,,,,,"{""Q0"":""luke is shouting at ruth""}","<img src=""stim_listA/shout3.gif""style=""height:400px;""></stim_listA>",is shouting at,
null,"<div style=""font-size:60px;"">+</div>",,html-keyboard-response,70,440622,0.0-13.0-0.10,76586,List1A,white,man,,,,null,,,,
null,"<img src=""stim_listA/touch2.gif""style=""height:400px;""></stim_listA>",,html-keyboard-response,71,442625,0.0-13.0-1.10,76586,List1A,white,man,,,,null,,,,
null,are touching each other,,html-keyboard-response,72,444627,0.0-13.0-2.10,76586,List1A,white,man,,,,null,,,,
22028,,,survey-text,73,466656,0.0-13.0-3.10,76586,List1A,white,man,,,,,"{""Q0"":""fred and beth are playing with each other""}","<img src=""stim_listA/touch2.gif""style=""height:400px;""></stim_listA>",are touching each other,
null,"<div style=""font-size:60px;"">+</div>",,html-keyboard-response,74,467156,0.0-13.0-0.11,76586,List1A,white,man,,,,null,,,,
null,"<img src=""stim_listA/kiss7.gif""style=""height:400px;""></stim_listA>",,html-keyboard-response,75,469160,0.0-13.0-1.11,76586,List1A,white,man,,,,null,,,,
null,is kissing,,html-keyboard-response,76,471163,0.0-13.0-2.11,76586,List1A,white,man,,,,null,,,,
6869,,,survey-text,77,478032,0.0-13.0-3.11,76586,List1A,white,man,,,,,"{""Q0"":""ruth is kissing beth""}","<img src=""stim_listA/kiss7.gif""style=""height:400px;""></stim_listA>",is kissing,
null,"<div style=""font-size:60px;"">+</div>",,html-keyboard-response,78,478533,0.0-13.0-0.12,76586,List1A,white,man,,,,null,,,,
null,"<img src=""stim_listA/fight5.gif""style=""height:400px;""></stim_listA>",,html-keyboard-response,79,480535,0.0-13.0-1.12,76586,List1A,white,man,,,,null,,,,
null,is fighting,,html-keyboard-response,80,482536,0.0-13.0-2.12,76586,List1A,white,man,,,,null,,,,
7943,,,survey-text,81,490481,0.0-13.0-3.12,76586,List1A,white,man,,,,,"{""Q0"":""mike is fighting dave""}","<img src=""stim_listA/fight5.gif""style=""height:400px;""></stim_listA>",is fighting,
null,"<div style=""font-size:60px;"">+</div>",,html-keyboard-response,82,490983,0.0-13.0-0.13,76586,List1A,white,man,,,,null,,,,
null,"<img src=""stim_listA/talk3.gif""style=""height:400px;""></stim_listA>",,html-keyboard-response,83,492984,0.0-13.0-1.13,76586,List1A,white,man,,,,null,,,,
null,is talking to,,html-keyboard-response,84,494985,0.0-13.0-2.13,76586,List1A,white,man,,,,null,,,,
6697,,,survey-text,85,501683,0.0-13.0-3.13,76586,List1A,white,man,,,,,"{""Q0"":""luke is talking to jane""}","<img src=""stim_listA/talk3.gif""style=""height:400px;""></stim_listA>",is talking to,
null,"<div style=""font-size:60px;"">+</div>",,html-keyboard-response,86,502185,0.0-13.0-0.14,76586,List1A,white,man,,,,null,,,,
null,"<img src=""stim_listA/dance7.gif""style=""height:400px;""></stim_listA>",,html-keyboard-response,87,504188,0.0-13.0-1.14,76586,List1A,white,man,,,,null,,,,
null,is dancing with,,html-keyboard-response,88,506191,0.0-13.0-2.14,76586,List1A,white,man,,,,null,,,,
5877,,,survey-text,89,512068,0.0-13.0-3.14,76586,List1A,white,man,,,,,"{""Q0"":""beth is dancing with jane""}","<img src=""stim_listA/dance7.gif""style=""height:400px;""></stim_listA>",is dancing with,
null,"<div style=""font-size:60px;"">+</div>",,html-keyboard-response,90,512570,0.0-13.0-0.15,76586,List1A,white,man,,,,null,,,,
null,"<img src=""stim_listA/touch5.gif""style=""height:400px;""></stim_listA>",,html-keyboard-response,91,514573,0.0-13.0-1.15,76586,List1A,white,man,,,,null,,,,
null,is touching,,html-keyboard-response,92,516574,0.0-13.0-2.15,76586,List1A,white,man,,,,null,,,,
5543,,,survey-text,93,522118,0.0-13.0-3.15,76586,List1A,white,man,,,,,"{""Q0"":""mike is touching dave""}","<img src=""stim_listA/touch5.gif""style=""height:400px;""></stim_listA>",is touching,
null,"<div style=""font-size:60px;"">+</div>",,html-keyboard-response,94,522619,0.0-13.0-0.16,76586,List1A,white,man,,,,null,,,,
null,"<img src=""stim_listA/shout5.gif""style=""height:400px;""></stim_listA>",,html-keyboard-response,95,524622,0.0-13.0-1.16,76586,List1A,white,man,,,,null,,,,
null,is shouting at,,html-keyboard-response,96,526623,0.0-13.0-2.16,76586,List1A,white,man,,,,null,,,,
5736,,,survey-text,97,532361,0.0-13.0-3.16,76586,List1A,white,man,,,,,"{""Q0"":""fred is shouting at luke""}","<img src=""stim_listA/shout5.gif""style=""height:400px;""></stim_listA>",is shouting at,
null,"<div style=""font-size:60px;"">+</div>",,html-keyboard-response,98,532863,0.0-13.0-0.17,76586,List1A,white,man,,,,null,,,,
null,"<img src=""stim_listA/shout8.gif""style=""height:400px;""></stim_listA>",,html-keyboard-response,99,534865,0.0-13.0-1.17,76586,List1A,white,man,,,,null,,,,
null,are shouting at each other,,html-keyboard-response,100,536867,0.0-13.0-2.17,76586,List1A,white,man,,,,null,,,,
5877,,,survey-text,101,542745,0.0-13.0-3.17,76586,List1A,white,man,,,,,"{""Q0"":""jane and kate are shouting at each other""}","<img src=""stim_listA/shout8.gif""style=""height:400px;""></stim_listA>",are shouting at each other,
null,"<div style=""font-size:60px;"">+</div>",,html-keyboard-response,102,543247,0.0-13.0-0.18,76586,List1A,white,man,,,,null,,,,
null,"<img src=""stim_listA/marry2.gif""style=""height:400px;""></stim_listA>",,html-keyboard-response,103,545248,0.0-13.0-1.18,76586,List1A,white,man,,,,null,,,,
null,are marrying each other,,html-keyboard-response,104,547249,0.0-13.0-2.18,76586,List1A,white,man,,,,null,,,,
9129,,,survey-text,105,556379,0.0-13.0-3.18,76586,List1A,white,man,,,,,"{""Q0"":""kate and fred are marrying each other""}","<img src=""stim_listA/marry2.gif""style=""height:400px;""></stim_listA>",are marrying each other,
null,"<div style=""font-size:60px;"">+</div>",,html-keyboard-response,106,556882,0.0-13.0-0.19,76586,List1A,white,man,,,,null,,,,
null,"<img src=""stim_listA/talk4.gif""style=""height:400px;""></stim_listA>",,html-keyboard-response,107,558885,0.0-13.0-1.19,76586,List1A,white,man,,,,null,,,,
null,are talking to each other,,html-keyboard-response,108,560886,0.0-13.0-2.19,76586,List1A,white,man,,,,null,,,,
6589,,,survey-text,109,567476,0.0-13.0-3.19,76586,List1A,white,man,,,,,"{""Q0"":""beth and dave are talking to each other""}","<img src=""stim_listA/talk4.gif""style=""height:400px;""></stim_listA>",are talking to each other,
14241,"<img src='img/portrait_matrix_list1.jpg' style='width:900px;height:500px;''></img><p>If you have memorised all the portraits and names and are ready to start, press Continue.</p><p><strong>Please note: Your memory of these faces will be tested 4 times during this experiment.</strong></p>",0,html-button-response,110,581718,0.0-14.0-0.0,76586,List1A,white,man,,,,,,,,
1701,"<img src=""portrait/WW2.jpg""style=""height:400px;""></img>",3,html-button-response,111,584422,0.0-14.0-1.0,76586,List1A,white,man,,TRUE,3,,,,,
null,CORRECT,,html-keyboard-response,112,585924,0.0-14.0-2.0-0.0,76586,List1A,white,man,,,,null,,,,
1497,"<img src=""portrait/BM2.jpg""style=""height:400px;""></img>",5,html-button-response,113,587423,0.0-14.0-4.0,76586,List1A,white,man,,TRUE,5,,,,,
null,CORRECT,,html-keyboard-response,114,588926,0.0-14.0-5.0-0.0,76586,List1A,white,man,,,,null,,,,
1784,"<img src=""portrait/WM1.jpg""style=""height:400px;""></img>",6,html-button-response,115,590711,0.0-14.0-7.0,76586,List1A,white,man,,TRUE,6,,,,,
null,CORRECT,,html-keyboard-response,116,592215,0.0-14.0-8.0-0.0,76586,List1A,white,man,,,,null,,,,
1262,"<img src=""portrait/WM2.jpg""style=""height:400px;""></img>",7,html-button-response,117,593479,0.0-14.0-10.0,76586,List1A,white,man,,TRUE,7,,,,,
null,CORRECT,,html-keyboard-response,118,594982,0.0-14.0-11.0-0.0,76586,List1A,white,man,,,,null,,,,
1680,"<img src=""portrait/BW2.jpg""style=""height:400px;""></img>",2,html-button-response,119,596664,0.0-14.0-13.0,76586,List1A,white,man,,TRUE,2,,,,,
null,CORRECT,,html-keyboard-response,120,598167,0.0-14.0-14.0-0.0,76586,List1A,white,man,,,,null,,,,
2136,"<img src=""portrait/WW1.jpg""style=""height:400px;""></img>",1,html-button-response,121,600305,0.0-14.0-16.0,76586,List1A,white,man,,TRUE,1,,,,,
null,CORRECT,,html-keyboard-response,122,601808,0.0-14.0-17.0-0.0,76586,List1A,white,man,,,,null,,,,
1167,"<img src=""portrait/BM1.jpg""style=""height:400px;""></img>",4,html-button-response,123,602977,0.0-14.0-19.0,76586,List1A,white,man,,TRUE,4,,,,,
null,CORRECT,,html-keyboard-response,124,604480,0.0-14.0-20.0-0.0,76586,List1A,white,man,,,,null,,,,
2430,"<img src=""portrait/BW1.jpg""style=""height:400px;""></img>",0,html-button-response,125,606912,0.0-14.0-22.0,76586,List1A,white,man,,TRUE,0,,,,,
null,CORRECT,,html-keyboard-response,126,608414,0.0-14.0-23.0-0.0,76586,List1A,white,man,,,,null,,,,
960,<p>You got 8 out of 8 right first time. Press Continue.</p>,0,html-button-response,127,609376,0.0-14.0-25.0,76586,List1A,white,man,,,,,,,,
null,"<div style=""font-size:60px;"">+</div>",,html-keyboard-response,128,610878,0.0-15.0-0.0,76586,List1A,white,man,,,,null,,,,
null,"<img src=""stim_listA/kiss4.gif""style=""height:400px;""></stim_listA>",,html-keyboard-response,129,612881,0.0-15.0-1.0,76586,List1A,white,man,,,,null,,,,
null,are kissing each other,,html-keyboard-response,130,614883,0.0-15.0-2.0,76586,List1A,white,man,,,,null,,,,
19888,,,survey-text,131,634771,0.0-15.0-3.0,76586,List1A,white,man,,,,,"{""Q0"":""jane and dave are kissing each other""}","<img src=""stim_listA/kiss4.gif""style=""height:400px;""></stim_listA>",are kissing each other,
null,"<div style=""font-size:60px;"">+</div>",,html-keyboard-response,132,635273,0.0-15.0-0.1,76586,List1A,white,man,,,,null,,,,
null,"<img src=""stim_listA/flirt5.gif""style=""height:400px;""></stim_listA>",,html-keyboard-response,133,637275,0.0-15.0-1.1,76586,List1A,white,man,,,,null,,,,
null,is flirting with,,html-keyboard-response,134,639278,0.0-15.0-2.1,76586,List1A,white,man,,,,null,,,,
6655,,,survey-text,135,645933,0.0-15.0-3.1,76586,List1A,white,man,,,,,"{""Q0"":""dave is flirting with fred""}","<img src=""stim_listA/flirt5.gif""style=""height:400px;""></stim_listA>",is flirting with,
null,"<div style=""font-size:60px;"">+</div>",,html-keyboard-response,136,646434,0.0-15.0-0.2,76586,List1A,white,man,,,,null,,,,
null,"<img src=""stim_listA/shout4.gif""style=""height:400px;""></stim_listA>",,html-keyboard-response,137,648436,0.0-15.0-1.2,76586,List1A,white,man,,,,null,,,,
null,are shouting at each other,,html-keyboard-response,138,650438,0.0-15.0-2.2,76586,List1A,white,man,,,,null,,,,
6471,,,survey-text,139,656910,0.0-15.0-3.2,76586,List1A,white,man,,,,,"{""Q0"":""jane and dave are shouting at each other""}","<img src=""stim_listA/shout4.gif""style=""height:400px;""></stim_listA>",are shouting at each other,
null,"<div style=""font-size:60px;"">+</div>",,html-keyboard-response,140,657412,0.0-15.0-0.3,76586,List1A,white,man,,,,null,,,,
null,"<img src=""stim_listA/shout2.gif""style=""height:400px;""></stim_listA>",,html-keyboard-response,141,659414,0.0-15.0-1.3,76586,List1A,white,man,,,,null,,,,
null,are shouting at each other,,html-keyboard-response,142,661416,0.0-15.0-2.3,76586,List1A,white,man,,,,null,,,,
5888,,,survey-text,143,667304,0.0-15.0-3.3,76586,List1A,white,man,,,,,"{""Q0"":""jane and mike are shouting at each other""}","<img src=""stim_listA/shout2.gif""style=""height:400px;""></stim_listA>",are shouting at each other,
null,"<div style=""font-size:60px;"">+</div>",,html-keyboard-response,144,667806,0.0-15.0-0.4,76586,List1A,white,man,,,,null,,,,
null,"<img src=""stim_listA/play3.gif""style=""height:400px;""></stim_listA>",,html-keyboard-response,145,669808,0.0-15.0-1.4,76586,List1A,white,man,,,,null,,,,
null,is playing with,,html-keyboard-response,146,671810,0.0-15.0-2.4,76586,List1A,white,man,,,,null,,,,
4927,,,survey-text,147,676737,0.0-15.0-3.4,76586,List1A,white,man,,,,,"{""Q0"":""mike is playing with jane""}","<img src=""stim_listA/play3.gif""style=""height:400px;""></stim_listA>",is playing with,
null,"<div style=""font-size:60px;"">+</div>",,html-keyboard-response,148,677240,0.0-15.0-0.5,76586,List1A,white,man,,,,null,,,,
null,"<img src=""stim_listA/fight2.gif""style=""height:400px;""></stim_listA>",,html-keyboard-response,149,679243,0.0-15.0-1.5,76586,List1A,white,man,,,,null,,,,
null,are fighting each other,,html-keyboard-response,150,681244,0.0-15.0-2.5,76586,List1A,white,man,,,,null,,,,
7022,,,survey-text,151,688267,0.0-15.0-3.5,76586,List1A,white,man,,,,,"{""Q0"":""ruth and fred are fighting each other""}","<img src=""stim_listA/fight2.gif""style=""height:400px;""></stim_listA>",are fighting each other,
null,"<div style=""font-size:60px;"">+</div>",,html-keyboard-response,152,688768,0.0-15.0-0.6,76586,List1A,white,man,,,,null,,,,
null,"<img src=""stim_listA/argue5.gif""style=""height:400px;""></stim_listA>",,html-keyboard-response,153,690770,0.0-15.0-1.6,76586,List1A,white,man,,,,null,,,,
null,is arguing with,,html-keyboard-response,154,692772,0.0-15.0-2.6,76586,List1A,white,man,,,,null,,,,
6272,,,survey-text,155,699045,0.0-15.0-3.6,76586,List1A,white,man,,,,,"{""Q0"":""mike is arguing with luke""}","<img src=""stim_listA/argue5.gif""style=""height:400px;""></stim_listA>",is arguing with,
null,"<div style=""font-size:60px;"">+</div>",,html-keyboard-response,156,699547,0.0-15.0-0.7,76586,List1A,white,man,,,,null,,,,
null,"<img src=""stim_listA/flirt8.gif""style=""height:400px;""></stim_listA>",,html-keyboard-response,157,701549,0.0-15.0-1.7,76586,List1A,white,man,,,,null,,,,
null,are flirting with each other,,html-keyboard-response,158,703550,0.0-15.0-2.7,76586,List1A,white,man,,,,null,,,,
7015,,,survey-text,159,710566,0.0-15.0-3.7,76586,List1A,white,man,,,,,"{""Q0"":""ruth and kate are flirting with each other""}","<img src=""stim_listA/flirt8.gif""style=""height:400px;""></stim_listA>",are flirting with each other,
null,"<div style=""font-size:60px;"">+</div>",,html-keyboard-response,160,711067,0.0-15.0-0.8,76586,List1A,white,man,,,,null,,,,
null,"<img src=""stim_listA/flirt7.gif""style=""height:400px;""></stim_listA>",,html-keyboard-response,161,713070,0.0-15.0-1.8,76586,List1A,white,man,,,,null,,,,
null,is flirting with,,html-keyboard-response,162,715072,0.0-15.0-2.8,76586,List1A,white,man,,,,null,,,,
6583,,,survey-text,163,721655,0.0-15.0-3.8,76586,List1A,white,man,,,,,"{""Q0"":""ruth is flirting with jane""}","<img src=""stim_listA/flirt7.gif""style=""height:400px;""></stim_listA>",is flirting with,
null,"<div style=""font-size:60px;"">+</div>",,html-keyboard-response,164,722156,0.0-15.0-0.9,76586,List1A,white,man,,,,null,,,,
null,"<img src=""stim_listA/dance6.gif""style=""height:400px;""></stim_listA>",,html-keyboard-response,165,724159,0.0-15.0-1.9,76586,List1A,white,man,,,,null,,,,
null,are dancing with each other,,html-keyboard-response,166,726162,0.0-15.0-2.9,76586,List1A,white,man,,,,null,,,,
7606,,,survey-text,167,733769,0.0-15.0-3.9,76586,List1A,white,man,,,,,"{""Q0"":""mike and luke are dancing with each other""}","<img src=""stim_listA/dance6.gif""style=""height:400px;""></stim_listA>",are dancing with each other,
null,"<div style=""font-size:60px;"">+</div>",,html-keyboard-response,168,734272,0.0-15.0-0.10,76586,List1A,white,man,,,,null,,,,
null,"<img src=""stim_listA/argue2.gif""style=""height:400px;""></stim_listA>",,html-keyboard-response,169,736274,0.0-15.0-1.10,76586,List1A,white,man,,,,null,,,,
null,are arguing with each other,,html-keyboard-response,170,738275,0.0-15.0-2.10,76586,List1A,white,man,,,,null,,,,
8519,,,survey-text,171,746795,0.0-15.0-3.10,76586,List1A,white,man,,,,,"{""Q0"":""kate and fred are arguing with each other""}","<img src=""stim_listA/argue2.gif""style=""height:400px;""></stim_listA>",are arguing with each other,
null,"<div style=""font-size:60px;"">+</div>",,html-keyboard-response,172,747296,0.0-15.0-0.11,76586,List1A,white,man,,,,null,,,,
null,"<img src=""stim_listA/talk8.gif""style=""height:400px;""></stim_listA>",,html-keyboard-response,173,749299,0.0-15.0-1.11,76586,List1A,white,man,,,,null,,,,
null,are talking to each other,,html-keyboard-response,174,751299,0.0-15.0-2.11,76586,List1A,white,man,,,,null,,,,
6311,,,survey-text,175,757612,0.0-15.0-3.11,76586,List1A,white,man,,,,,"{""Q0"":""ruth and kate are talking to each other""}","<img src=""stim_listA/talk8.gif""style=""height:400px;""></stim_listA>",are talking to each other,
null,"<div style=""font-size:60px;"">+</div>",,html-keyboard-response,176,758113,0.0-15.0-0.12,76586,List1A,white,man,,,,null,,,,
null,"<img src=""stim_listA/flirt6.gif""style=""height:400px;""></stim_listA>",,html-keyboard-response,177,760115,0.0-15.0-1.12,76586,List1A,white,man,,,,null,,,,
null,are flirting with each other,,html-keyboard-response,178,762116,0.0-15.0-2.12,76586,List1A,white,man,,,,null,,,,
10379,,,survey-text,179,772496,0.0-15.0-3.12,76586,List1A,white,man,,,,,"{""Q0"":""luke and mike are flirting with each other""}","<img src=""stim_listA/flirt6.gif""style=""height:400px;""></stim_listA>",are flirting with each other,
null,"<div style=""font-size:60px;"">+</div>",,html-keyboard-response,180,772998,0.0-15.0-0.13,76586,List1A,white,man,,,,null,,,,
null,"<img src=""stim_listA/touch6.gif""style=""height:400px;""></stim_listA>",,html-keyboard-response,181,775000,0.0-15.0-1.13,76586,List1A,white,man,,,,null,,,,
null,are touching each other,,html-keyboard-response,182,777002,0.0-15.0-2.13,76586,List1A,white,man,,,,null,,,,
11924,,,survey-text,183,788928,0.0-15.0-3.13,76586,List1A,white,man,,,,,"{""Q0"":""luke and fred are touching each other""}","<img src=""stim_listA/touch6.gif""style=""height:400px;""></stim_listA>",are touching each other,
null,"<div style=""font-size:60px;"">+</div>",,html-keyboard-response,184,789429,0.0-15.0-0.14,76586,List1A,white,man,,,,null,,,,
null,"<img src=""stim_listA/dance3.gif""style=""height:400px;""></stim_listA>",,html-keyboard-response,185,791432,0.0-15.0-1.14,76586,List1A,white,man,,,,null,,,,
null,is dancing with,,html-keyboard-response,186,793434,0.0-15.0-2.14,76586,List1A,white,man,,,,null,,,,
9294,,,survey-text,187,802730,0.0-15.0-3.14,76586,List1A,white,man,,,,,"{""Q0"":""luke is dancing with jane""}","<img src=""stim_listA/dance3.gif""style=""height:400px;""></stim_listA>",is dancing with,
null,"<div style=""font-size:60px;"">+</div>",,html-keyboard-response,188,803231,0.0-15.0-0.15,76586,List1A,white,man,,,,null,,,,
null,"<img src=""stim_listA/kiss2.gif""style=""height:400px;""></stim_listA>",,html-keyboard-response,189,805233,0.0-15.0-1.15,76586,List1A,white,man,,,,null,,,,
null,are kissing each other,,html-keyboard-response,190,807234,0.0-15.0-2.15,76586,List1A,white,man,,,,null,,,,
6128,,,survey-text,191,813364,0.0-15.0-3.15,76586,List1A,white,man,,,,,"{""Q0"":""kate and mike are kissing each other""}","<img src=""stim_listA/kiss2.gif""style=""height:400px;""></stim_listA>",are kissing each other,
null,"<div style=""font-size:60px;"">+</div>",,html-keyboard-response,192,813865,0.0-15.0-0.16,76586,List1A,white,man,,,,null,,,,
null,"<img src=""stim_listA/marry5.gif""style=""height:400px;""></stim_listA>",,html-keyboard-response,193,815867,0.0-15.0-1.16,76586,List1A,white,man,,,,null,,,,
null,is marrying,,html-keyboard-response,194,817868,0.0-15.0-2.16,76586,List1A,white,man,,,,null,,,,
5584,,,survey-text,195,823453,0.0-15.0-3.16,76586,List1A,white,man,,,,,"{""Q0"":""luke is marrying mike""}","<img src=""stim_listA/marry5.gif""style=""height:400px;""></stim_listA>",is marrying,
null,"<div style=""font-size:60px;"">+</div>",,html-keyboard-response,196,823954,0.0-15.0-0.17,76586,List1A,white,man,,,,null,,,,
null,"<img src=""stim_listA/kiss6.gif""style=""height:400px;""></stim_listA>",,html-keyboard-response,197,825957,0.0-15.0-1.17,76586,List1A,white,man,,,,null,,,,
null,are kissing each other,,html-keyboard-response,198,827959,0.0-15.0-2.17,76586,List1A,white,man,,,,null,,,,
6062,,,survey-text,199,834022,0.0-15.0-3.17,76586,List1A,white,man,,,,,"{""Q0"":""dave and mike are kissing each other""}","<img src=""stim_listA/kiss6.gif""style=""height:400px;""></stim_listA>",are kissing each other,
null,"<div style=""font-size:60px;"">+</div>",,html-keyboard-response,200,834524,0.0-15.0-0.18,76586,List1A,white,man,,,,null,,,,
null,"<img src=""stim_listA/flirt4.gif""style=""height:400px;""></stim_listA>",,html-keyboard-response,201,836528,0.0-15.0-1.18,76586,List1A,white,man,,,,null,,,,
null,are flirting with each other,,html-keyboard-response,202,838530,0.0-15.0-2.18,76586,List1A,white,man,,,,null,,,,
6228,,,survey-text,203,844760,0.0-15.0-3.18,76586,List1A,white,man,,,,,"{""Q0"":""ruth and dave are flirting with each other""}","<img src=""stim_listA/flirt4.gif""style=""height:400px;""></stim_listA>",are flirting with each other,
null,"<div style=""font-size:60px;"">+</div>",,html-keyboard-response,204,845262,0.0-15.0-0.19,76586,List1A,white,man,,,,null,,,,
null,"<img src=""stim_listA/marry7.gif""style=""height:400px;""></stim_listA>",,html-keyboard-response,205,847265,0.0-15.0-1.19,76586,List1A,white,man,,,,null,,,,
null,is marrying,,html-keyboard-response,206,849266,0.0-15.0-2.19,76586,List1A,white,man,,,,null,,,,
6119,,,survey-text,207,855386,0.0-15.0-3.19,76586,List1A,white,man,,,,,"{""Q0"":""kate is marrying ruth""}","<img src=""stim_listA/marry7.gif""style=""height:400px;""></stim_listA>",is marrying,
3095,"<img src='img/portrait_matrix_list1.jpg' style='width:900px;height:500px;''></img><p>If you have memorised all the portraits and names and are ready to start, press Continue.</p><p><strong>Please note: Your memory of these faces will be tested 4 times during this experiment.</strong></p>",0,html-button-response,208,858482,0.0-16.0-0.0,76586,List1A,white,man,,,,,,,,
1310,"<img src=""portrait/BM1.jpg""style=""height:400px;""></img>",4,html-button-response,209,860794,0.0-16.0-1.0,76586,List1A,white,man,,TRUE,4,,,,,
null,CORRECT,,html-keyboard-response,210,862298,0.0-16.0-2.0-0.0,76586,List1A,white,man,,,,null,,,,
1976,"<img src=""portrait/WM1.jpg""style=""height:400px;""></img>",6,html-button-response,211,864275,0.0-16.0-4.0,76586,List1A,white,man,,TRUE,6,,,,,
null,CORRECT,,html-keyboard-response,212,865779,0.0-16.0-5.0-0.0,76586,List1A,white,man,,,,null,,,,
1503,"<img src=""portrait/WW2.jpg""style=""height:400px;""></img>",3,html-button-response,213,867283,0.0-16.0-7.0,76586,List1A,white,man,,TRUE,3,,,,,
null,CORRECT,,html-keyboard-response,214,868786,0.0-16.0-8.0-0.0,76586,List1A,white,man,,,,null,,,,
1552,"<img src=""portrait/WM2.jpg""style=""height:400px;""></img>",7,html-button-response,215,870339,0.0-16.0-10.0,76586,List1A,white,man,,TRUE,7,,,,,
null,CORRECT,,html-keyboard-response,216,871842,0.0-16.0-11.0-0.0,76586,List1A,white,man,,,,null,,,,
1584,"<img src=""portrait/BW1.jpg""style=""height:400px;""></img>",0,html-button-response,217,873428,0.0-16.0-13.0,76586,List1A,white,man,,TRUE,0,,,,,
null,CORRECT,,html-keyboard-response,218,874931,0.0-16.0-14.0-0.0,76586,List1A,white,man,,,,null,,,,
2384,"<img src=""portrait/BM2.jpg""style=""height:400px;""></img>",5,html-button-response,219,877316,0.0-16.0-16.0,76586,List1A,white,man,,TRUE,5,,,,,
null,CORRECT,,html-keyboard-response,220,878818,0.0-16.0-17.0-0.0,76586,List1A,white,man,,,,null,,,,
2802,"<img src=""portrait/WW1.jpg""style=""height:400px;""></img>",1,html-button-response,221,881621,0.0-16.0-19.0,76586,List1A,white,man,,TRUE,1,,,,,
null,CORRECT,,html-keyboard-response,222,883125,0.0-16.0-20.0-0.0,76586,List1A,white,man,,,,null,,,,
3581,"<img src=""portrait/BW2.jpg""style=""height:400px;""></img>",2,html-button-response,223,886708,0.0-16.0-22.0,76586,List1A,white,man,,TRUE,2,,,,,
null,CORRECT,,html-keyboard-response,224,888210,0.0-16.0-23.0-0.0,76586,List1A,white,man,,,,null,,,,
721,<p>You got 8 out of 8 right first time. Press Continue.</p>,0,html-button-response,225,888932,0.0-16.0-25.0,76586,List1A,white,man,,,,,,,,
null,"<div style=""font-size:60px;"">+</div>",,html-keyboard-response,226,890434,0.0-17.0-0.0,76586,List1A,white,man,,,,null,,,,
null,"<img src=""stim_listA/talk6.gif""style=""height:400px;""></stim_listA>",,html-keyboard-response,227,892437,0.0-17.0-1.0,76586,List1A,white,man,,,,null,,,,
null,are talking to each other,,html-keyboard-response,228,894439,0.0-17.0-2.0,76586,List1A,white,man,,,,null,,,,
9327,,,survey-text,229,903766,0.0-17.0-3.0,76586,List1A,white,man,,,,,"{""Q0"":""mike and luke are talking to each other""}","<img src=""stim_listA/talk6.gif""style=""height:400px;""></stim_listA>",are talking to each other,
null,"<div style=""font-size:60px;"">+</div>",,html-keyboard-response,230,904268,0.0-17.0-0.1,76586,List1A,white,man,,,,null,,,,
null,"<img src=""stim_listA/shout7.gif""style=""height:400px;""></stim_listA>",,html-keyboard-response,231,906270,0.0-17.0-1.1,76586,List1A,white,man,,,,null,,,,
null,is shouting at,,html-keyboard-response,232,908273,0.0-17.0-2.1,76586,List1A,white,man,,,,null,,,,
4229,,,survey-text,233,912503,0.0-17.0-3.1,76586,List1A,white,man,,,,,"{""Q0"":""beth is shouting at ruth""}","<img src=""stim_listA/shout7.gif""style=""height:400px;""></stim_listA>",is shouting at,
null,"<div style=""font-size:60px;"">+</div>",,html-keyboard-response,234,913006,0.0-17.0-0.2,76586,List1A,white,man,,,,null,,,,
null,"<img src=""stim_listA/argue6.gif""style=""height:400px;""></stim_listA>",,html-keyboard-response,235,915008,0.0-17.0-1.2,76586,List1A,white,man,,,,null,,,,
null,are arguing with each other,,html-keyboard-response,236,917010,0.0-17.0-2.2,76586,List1A,white,man,,,,null,,,,
8486,,,survey-text,237,925497,0.0-17.0-3.2,76586,List1A,white,man,,,,,"{""Q0"":""dave and fred are arguing with each other""}","<img src=""stim_listA/argue6.gif""style=""height:400px;""></stim_listA>",are arguing with each other,
null,"<div style=""font-size:60px;"">+</div>",,html-keyboard-response,238,925998,0.0-17.0-0.3,76586,List1A,white,man,,,,null,,,,
null,"<img src=""stim_listA/kiss1.gif""style=""height:400px;""></stim_listA>",,html-keyboard-response,239,928000,0.0-17.0-1.3,76586,List1A,white,man,,,,null,,,,
null,is kissing,,html-keyboard-response,240,930002,0.0-17.0-2.3,76586,List1A,white,man,,,,null,,,,
6679,,,survey-text,241,936682,0.0-17.0-3.3,76586,List1A,white,man,,,,,"{""Q0"":""fred is kissing beth""}","<img src=""stim_listA/kiss1.gif""style=""height:400px;""></stim_listA>",is kissing,
null,"<div style=""font-size:60px;"">+</div>",,html-keyboard-response,242,937183,0.0-17.0-0.4,76586,List1A,white,man,,,,null,,,,
null,"<img src=""stim_listA/play4.gif""style=""height:400px;""></stim_listA>",,html-keyboard-response,243,939186,0.0-17.0-1.4,76586,List1A,white,man,,,,null,,,,
null,are playing with each other,,html-keyboard-response,244,941189,0.0-17.0-2.4,76586,List1A,white,man,,,,null,,,,
7726,,,survey-text,245,948916,0.0-17.0-3.4,76586,List1A,white,man,,,,,"{""Q0"":""ruth and luke are playing with each other""}","<img src=""stim_listA/play4.gif""style=""height:400px;""></stim_listA>",are playing with each other,
null,"<div style=""font-size:60px;"">+</div>",,html-keyboard-response,246,949416,0.0-17.0-0.5,76586,List1A,white,man,,,,null,,,,
null,"<img src=""stim_listA/play1.gif""style=""height:400px;""></stim_listA>",,html-keyboard-response,247,951418,0.0-17.0-1.5,76586,List1A,white,man,,,,null,,,,
null,is playing with,,html-keyboard-response,248,953420,0.0-17.0-2.5,76586,List1A,white,man,,,,null,,,,
5248,,,survey-text,249,958670,0.0-17.0-3.5,76586,List1A,white,man,,,,,"{""Q0"":""mike is playing with kate""}","<img src=""stim_listA/play1.gif""style=""height:400px;""></stim_listA>",is playing with,
null,"<div style=""font-size:60px;"">+</div>",,html-keyboard-response,250,959172,0.0-17.0-0.6,76586,List1A,white,man,,,,null,,,,
null,"<img src=""stim_listA/flirt1.gif""style=""height:400px;""></stim_listA>",,html-keyboard-response,251,961174,0.0-17.0-1.6,76586,List1A,white,man,,,,null,,,,
null,is flirting with,,html-keyboard-response,252,963176,0.0-17.0-2.6,76586,List1A,white,man,,,,null,,,,
4845,,,survey-text,253,968022,0.0-17.0-3.6,76586,List1A,white,man,,,,,"{""Q0"":""fred is flirting with kate""}","<img src=""stim_listA/flirt1.gif""style=""height:400px;""></stim_listA>",is flirting with,
null,"<div style=""font-size:60px;"">+</div>",,html-keyboard-response,254,968523,0.0-17.0-0.7,76586,List1A,white,man,,,,null,,,,
null,"<img src=""stim_listA/talk2.gif""style=""height:400px;""></stim_listA>",,html-keyboard-response,255,970525,0.0-17.0-1.7,76586,List1A,white,man,,,,null,,,,
null,are talking to each other,,html-keyboard-response,256,972527,0.0-17.0-2.7,76586,List1A,white,man,,,,null,,,,
6119,,,survey-text,257,978648,0.0-17.0-3.7,76586,List1A,white,man,,,,,"{""Q0"":""beth and mike are talking to each other""}","<img src=""stim_listA/talk2.gif""style=""height:400px;""></stim_listA>",are talking to each other,
null,"<div style=""font-size:60px;"">+</div>",,html-keyboard-response,258,979149,0.0-17.0-0.8,76586,List1A,white,man,,,,null,,,,
null,"<img src=""stim_listA/touch3.gif""style=""height:400px;""></stim_listA>",,html-keyboard-response,259,981152,0.0-17.0-1.8,76586,List1A,white,man,,,,null,,,,
null,is touching,,html-keyboard-response,260,983154,0.0-17.0-2.8,76586,List1A,white,man,,,,null,,,,
5581,,,survey-text,261,988736,0.0-17.0-3.8,76586,List1A,white,man,,,,,"{""Q0"":""dave is touching jane""}","<img src=""stim_listA/touch3.gif""style=""height:400px;""></stim_listA>",is touching,
null,"<div style=""font-size:60px;"">+</div>",,html-keyboard-response,262,989238,0.0-17.0-0.9,76586,List1A,white,man,,,,null,,,,
null,"<img src=""stim_listA/touch8.gif""style=""height:400px;""></stim_listA>",,html-keyboard-response,263,991239,0.0-17.0-1.9,76586,List1A,white,man,,,,null,,,,
null,are touching each other,,html-keyboard-response,264,993241,0.0-17.0-2.9,76586,List1A,white,man,,,,null,,,,
5938,,,survey-text,265,999179,0.0-17.0-3.9,76586,List1A,white,man,,,,,"{""Q0"":""ruth and beth are touching each other""}","<img src=""stim_listA/touch8.gif""style=""height:400px;""></stim_listA>",are touching each other,
null,"<div style=""font-size:60px;"">+</div>",,html-keyboard-response,266,999681,0.0-17.0-0.10,76586,List1A,white,man,,,,null,,,,
null,"<img src=""stim_listA/talk7.gif""style=""height:400px;""></stim_listA>",,html-keyboard-response,267,1001683,0.0-17.0-1.10,76586,List1A,white,man,,,,null,,,,
null,is talking to,,html-keyboard-response,268,1003686,0.0-17.0-2.10,76586,List1A,white,man,,,,null,,,,
7326,,,survey-text,269,1011013,0.0-17.0-3.10,76586,List1A,white,man,,,,,"{""Q0"":""jane is talking to beth""}","<img src=""stim_listA/talk7.gif""style=""height:400px;""></stim_listA>",is talking to,
null,"<div style=""font-size:60px;"">+</div>",,html-keyboard-response,270,1011514,0.0-17.0-0.11,76586,List1A,white,man,,,,null,,,,
null,"<img src=""stim_listA/flirt2.gif""style=""height:400px;""></stim_listA>",,html-keyboard-response,271,1013516,0.0-17.0-1.11,76586,List1A,white,man,,,,null,,,,
null,are flirting with each other,,html-keyboard-response,272,1015517,0.0-17.0-2.11,76586,List1A,white,man,,,,null,,,,
7808,,,survey-text,273,1023326,0.0-17.0-3.11,76586,List1A,white,man,,,,,"{""Q0"":""beth and mike are flirting with each other""}","<img src=""stim_listA/flirt2.gif""style=""height:400px;""></stim_listA>",are flirting with each other,
null,"<div style=""font-size:60px;"">+</div>",,html-keyboard-response,274,1023827,0.0-17.0-0.12,76586,List1A,white,man,,,,null,,,,
null,"<img src=""stim_listA/fight6.gif""style=""height:400px;""></stim_listA>",,html-keyboard-response,275,1025831,0.0-17.0-1.12,76586,List1A,white,man,,,,null,,,,
null,are fighting each other,,html-keyboard-response,276,1027833,0.0-17.0-2.12,76586,List1A,white,man,,,,null,,,,
8966,,,survey-text,277,1036800,0.0-17.0-3.12,76586,List1A,white,man,,,,,"{""Q0"":""luke and fred are fighting each other""}","<img src=""stim_listA/fight6.gif""style=""height:400px;""></stim_listA>",are fighting each other,
null,"<div style=""font-size:60px;"">+</div>",,html-keyboard-response,278,1037301,0.0-17.0-0.13,76586,List1A,white,man,,,,null,,,,
null,"<img src=""stim_listA/play8.gif""style=""height:400px;""></stim_listA>",,html-keyboard-response,279,1039303,0.0-17.0-1.13,76586,List1A,white,man,,,,null,,,,
null,are playing with each other,,html-keyboard-response,280,1041305,0.0-17.0-2.13,76586,List1A,white,man,,,,null,,,,
14608,,,survey-text,281,1055914,0.0-17.0-3.13,76586,List1A,white,man,,,,,"{""Q0"":""ruth and beth are playing with each other""}","<img src=""stim_listA/play8.gif""style=""height:400px;""></stim_listA>",are playing with each other,
null,"<div style=""font-size:60px;"">+</div>",,html-keyboard-response,282,1056416,0.0-17.0-0.14,76586,List1A,white,man,,,,null,,,,
null,"<img src=""stim_listA/argue3.gif""style=""height:400px;""></stim_listA>",,html-keyboard-response,283,1058418,0.0-17.0-1.14,76586,List1A,white,man,,,,null,,,,
null,is arguing with,,html-keyboard-response,284,1060420,0.0-17.0-2.14,76586,List1A,white,man,,,,null,,,,
6406,,,survey-text,285,1066828,0.0-17.0-3.14,76586,List1A,white,man,,,,,"{""Q0"":""dave is arguing with ruth""}","<img src=""stim_listA/argue3.gif""style=""height:400px;""></stim_listA>",is arguing with,
null,"<div style=""font-size:60px;"">+</div>",,html-keyboard-response,286,1067329,0.0-17.0-0.15,76586,List1A,white,man,,,,null,,,,
null,"<img src=""stim_listA/play6.gif""style=""height:400px;""></stim_listA>",,html-keyboard-response,287,1069332,0.0-17.0-1.15,76586,List1A,white,man,,,,null,,,,
null,are playing with each other,,html-keyboard-response,288,1071334,0.0-17.0-2.15,76586,List1A,white,man,,,,null,,,,
7359,,,survey-text,289,1078694,0.0-17.0-3.15,76586,List1A,white,man,,,,,"{""Q0"":""luke and fred are playing with each other""}","<img src=""stim_listA/play6.gif""style=""height:400px;""></stim_listA>",are playing with each other,
null,"<div style=""font-size:60px;"">+</div>",,html-keyboard-response,290,1079195,0.0-17.0-0.16,76586,List1A,white,man,,,,null,,,,
null,"<img src=""stim_listA/dance2.gif""style=""height:400px;""></stim_listA>",,html-keyboard-response,291,1081197,0.0-17.0-1.16,76586,List1A,white,man,,,,null,,,,
null,are dancing with each other,,html-keyboard-response,292,1083199,0.0-17.0-2.16,76586,List1A,white,man,,,,null,,,,
8358,,,survey-text,293,1091559,0.0-17.0-3.16,76586,List1A,white,man,,,,,"{""Q0"":""mike and beth are dancing with each other""}","<img src=""stim_listA/dance2.gif""style=""height:400px;""></stim_listA>",are dancing with each other,
null,"<div style=""font-size:60px;"">+</div>",,html-keyboard-response,294,1092061,0.0-17.0-0.17,76586,List1A,white,man,,,,null,,,,
null,"<img src=""stim_listA/fight7.gif""style=""height:400px;""></stim_listA>",,html-keyboard-response,295,1094064,0.0-17.0-1.17,76586,List1A,white,man,,,,null,,,,
null,is fighting,,html-keyboard-response,296,1096065,0.0-17.0-2.17,76586,List1A,white,man,,,,null,,,,
4838,,,survey-text,297,1100904,0.0-17.0-3.17,76586,List1A,white,man,,,,,"{""Q0"":""kate is fighting jane""}","<img src=""stim_listA/fight7.gif""style=""height:400px;""></stim_listA>",is fighting,
null,"<div style=""font-size:60px;"">+</div>",,html-keyboard-response,298,1101406,0.0-17.0-0.18,76586,List1A,white,man,,,,null,,,,
null,"<img src=""stim_listA/touch1.gif""style=""height:400px;""></stim_listA>",,html-keyboard-response,299,1103409,0.0-17.0-1.18,76586,List1A,white,man,,,,null,,,,
null,is touching,,html-keyboard-response,300,1105410,0.0-17.0-2.18,76586,List1A,white,man,,,,null,,,,
5038,,,survey-text,301,1110450,0.0-17.0-3.18,76586,List1A,white,man,,,,,"{""Q0"":""mike is touching kate""}","<img src=""stim_listA/touch1.gif""style=""height:400px;""></stim_listA>",is touching,
null,"<div style=""font-size:60px;"">+</div>",,html-keyboard-response,302,1110951,0.0-17.0-0.19,76586,List1A,white,man,,,,null,,,,
null,"<img src=""stim_listA/shout1.gif""style=""height:400px;""></stim_listA>",,html-keyboard-response,303,1112954,0.0-17.0-1.19,76586,List1A,white,man,,,,null,,,,
null,is shouting at,,html-keyboard-response,304,1114956,0.0-17.0-2.19,76586,List1A,white,man,,,,null,,,,
4823,,,survey-text,305,1119780,0.0-17.0-3.19,76586,List1A,white,man,,,,,"{""Q0"":""fred is shouting at beth""}","<img src=""stim_listA/shout1.gif""style=""height:400px;""></stim_listA>",is shouting at,
1277,"<img src='img/portrait_matrix_list1.jpg' style='width:900px;height:500px;''></img><p>If you have memorised all the portraits and names and are ready to start, press Continue.</p><p><strong>Please note: Your memory of these faces will be tested 4 times during this experiment.</strong></p>",0,html-button-response,306,1121059,0.0-18.0-0.0,76586,List1A,white,man,,,,,,,,
1911,"<img src=""portrait/WM1.jpg""style=""height:400px;""></img>",6,html-button-response,307,1123972,0.0-18.0-1.0,76586,List1A,white,man,,TRUE,6,,,,,
null,CORRECT,,html-keyboard-response,308,1125475,0.0-18.0-2.0-0.0,76586,List1A,white,man,,,,null,,,,
1103,"<img src=""portrait/BM1.jpg""style=""height:400px;""></img>",4,html-button-response,309,1126580,0.0-18.0-4.0,76586,List1A,white,man,,TRUE,4,,,,,
null,CORRECT,,html-keyboard-response,310,1128082,0.0-18.0-5.0-0.0,76586,List1A,white,man,,,,null,,,,
2033,"<img src=""portrait/WM2.jpg""style=""height:400px;""></img>",7,html-button-response,311,1130117,0.0-18.0-7.0,76586,List1A,white,man,,TRUE,7,,,,,
null,CORRECT,,html-keyboard-response,312,1131619,0.0-18.0-8.0-0.0,76586,List1A,white,man,,,,null,,,,
3056,"<img src=""portrait/BW2.jpg""style=""height:400px;""></img>",2,html-button-response,313,1134677,0.0-18.0-10.0,76586,List1A,white,man,,TRUE,2,,,,,
null,CORRECT,,html-keyboard-response,314,1136179,0.0-18.0-11.0-0.0,76586,List1A,white,man,,,,null,,,,
2489,"<img src=""portrait/WW1.jpg""style=""height:400px;""></img>",1,html-button-response,315,1138670,0.0-18.0-13.0,76586,List1A,white,man,,TRUE,1,,,,,
null,CORRECT,,html-keyboard-response,316,1140171,0.0-18.0-14.0-0.0,76586,List1A,white,man,,,,null,,,,
1473,"<img src=""portrait/WW2.jpg""style=""height:400px;""></img>",3,html-button-response,317,1141646,0.0-18.0-16.0,76586,List1A,white,man,,TRUE,3,,,,,
null,CORRECT,,html-keyboard-response,318,1143150,0.0-18.0-17.0-0.0,76586,List1A,white,man,,,,null,,,,
1639,"<img src=""portrait/BM2.jpg""style=""height:400px;""></img>",5,html-button-response,319,1144791,0.0-18.0-19.0,76586,List1A,white,man,,TRUE,5,,,,,
null,CORRECT,,html-keyboard-response,320,1146293,0.0-18.0-20.0-0.0,76586,List1A,white,man,,,,null,,,,
1320,"<img src=""portrait/BW1.jpg""style=""height:400px;""></img>",0,html-button-response,321,1147615,0.0-18.0-22.0,76586,List1A,white,man,,TRUE,0,,,,,
null,CORRECT,,html-keyboard-response,322,1149119,0.0-18.0-23.0-0.0,76586,List1A,white,man,,,,null,,,,
1159,<p>You got 8 out of 8 right first time. Press Continue.</p>,0,html-button-response,323,1150280,0.0-18.0-25.0,76586,List1A,white,man,,,,,,,,
null,"<div style=""font-size:60px;"">+</div>",,html-keyboard-response,324,1151781,0.0-19.0-0.0,76586,List1A,white,man,,,,null,,,,
null,"<img src=""stim_listA/dance1.gif""style=""height:400px;""></stim_listA>",,html-keyboard-response,325,1153784,0.0-19.0-1.0,76586,List1A,white,man,,,,null,,,,
null,is dancing with,,html-keyboard-response,326,1155786,0.0-19.0-2.0,76586,List1A,white,man,,,,null,,,,
4597,,,survey-text,327,1160385,0.0-19.0-3.0,76586,List1A,white,man,,,,,"{""Q0"":""fred is dancing with kate""}","<img src=""stim_listA/dance1.gif""style=""height:400px;""></stim_listA>",is dancing with,
null,"<div style=""font-size:60px;"">+</div>",,html-keyboard-response,328,1160886,0.0-19.0-0.1,76586,List1A,white,man,,,,null,,,,
null,"<img src=""stim_listA/argue8.gif""style=""height:400px;""></stim_listA>",,html-keyboard-response,329,1162889,0.0-19.0-1.1,76586,List1A,white,man,,,,null,,,,
null,are arguing with each other,,html-keyboard-response,330,1164891,0.0-19.0-2.1,76586,List1A,white,man,,,,null,,,,
7281,,,survey-text,331,1172174,0.0-19.0-3.1,76586,List1A,white,man,,,,,"{""Q0"":""jane and beth are arguing with each other""}","<img src=""stim_listA/argue8.gif""style=""height:400px;""></stim_listA>",are arguing with each other,
null,"<div style=""font-size:60px;"">+</div>",,html-keyboard-response,332,1172676,0.0-19.0-0.2,76586,List1A,white,man,,,,null,,,,
null,"<img src=""stim_listA/fight8.gif""style=""height:400px;""></stim_listA>",,html-keyboard-response,333,1174678,0.0-19.0-1.2,76586,List1A,white,man,,,,null,,,,
null,are fighting each other,,html-keyboard-response,334,1176680,0.0-19.0-2.2,76586,List1A,white,man,,,,null,,,,
5879,,,survey-text,335,1182560,0.0-19.0-3.2,76586,List1A,white,man,,,,,"{""Q0"":""ruth and beth are fighting each other""}","<img src=""stim_listA/fight8.gif""style=""height:400px;""></stim_listA>",are fighting each other,
null,"<div style=""font-size:60px;"">+</div>",,html-keyboard-response,336,1183062,0.0-19.0-0.3,76586,List1A,white,man,,,,null,,,,
null,"<img src=""stim_listA/touch4.gif""style=""height:400px;""></stim_listA>",,html-keyboard-response,337,1185064,0.0-19.0-1.3,76586,List1A,white,man,,,,null,,,,
null,are touching each other,,html-keyboard-response,338,1187066,0.0-19.0-2.3,76586,List1A,white,man,,,,null,,,,
6869,,,survey-text,339,1193937,0.0-19.0-3.3,76586,List1A,white,man,,,,,"{""Q0"":""luke and ruth are touching each other""}","<img src=""stim_listA/touch4.gif""style=""height:400px;""></stim_listA>",are touching each other,
null,"<div style=""font-size:60px;"">+</div>",,html-keyboard-response,340,1194438,0.0-19.0-0.4,76586,List1A,white,man,,,,null,,,,
null,"<img src=""stim_listA/marry4.gif""style=""height:400px;""></stim_listA>",,html-keyboard-response,341,1196440,0.0-19.0-1.4,76586,List1A,white,man,,,,null,,,,
null,are marrying each other,,html-keyboard-response,342,1198441,0.0-19.0-2.4,76586,List1A,white,man,,,,null,,,,
6952,,,survey-text,343,1205395,0.0-19.0-3.4,76586,List1A,white,man,,,,,"{""Q0"":""jane and luke are marrying each other""}","<img src=""stim_listA/marry4.gif""style=""height:400px;""></stim_listA>",are marrying each other,
null,"<div style=""font-size:60px;"">+</div>",,html-keyboard-response,344,1205896,0.0-19.0-0.5,76586,List1A,white,man,,,,null,,,,
null,"<img src=""stim_listA/play7.gif""style=""height:400px;""></stim_listA>",,html-keyboard-response,345,1207899,0.0-19.0-1.5,76586,List1A,white,man,,,,null,,,,
null,is playing with,,html-keyboard-response,346,1209900,0.0-19.0-2.5,76586,List1A,white,man,,,,null,,,,
6999,,,survey-text,347,1216901,0.0-19.0-3.5,76586,List1A,white,man,,,,,"{""Q0"":""kate is playing with jane""}","<img src=""stim_listA/play7.gif""style=""height:400px;""></stim_listA>",is playing with,
null,"<div style=""font-size:60px;"">+</div>",,html-keyboard-response,348,1217403,0.0-19.0-0.6,76586,List1A,white,man,,,,null,,,,
null,"<img src=""stim_listA/marry6.gif""style=""height:400px;""></stim_listA>",,html-keyboard-response,349,1219405,0.0-19.0-1.6,76586,List1A,white,man,,,,null,,,,
null,are marrying each other,,html-keyboard-response,350,1221406,0.0-19.0-2.6,76586,List1A,white,man,,,,null,,,,
8518,,,survey-text,351,1229926,0.0-19.0-3.6,76586,List1A,white,man,,,,,"{""Q0"":""dave and fred are marrying each other""}","<img src=""stim_listA/marry6.gif""style=""height:400px;""></stim_listA>",are marrying each other,
null,"<div style=""font-size:60px;"">+</div>",,html-keyboard-response,352,1230427,0.0-19.0-0.7,76586,List1A,white,man,,,,null,,,,
null,"<img src=""stim_listA/kiss5.gif""style=""height:400px;""></stim_listA>",,html-keyboard-response,353,1232430,0.0-19.0-1.7,76586,List1A,white,man,,,,null,,,,
null,is kissing,,html-keyboard-response,354,1234431,0.0-19.0-2.7,76586,List1A,white,man,,,,null,,,,
3967,,,survey-text,355,1238400,0.0-19.0-3.7,76586,List1A,white,man,,,,,"{""Q0"":""fred is kissing luke""}","<img src=""stim_listA/kiss5.gif""style=""height:400px;""></stim_listA>",is kissing,
null,"<div style=""font-size:60px;"">+</div>",,html-keyboard-response,356,1238901,0.0-19.0-0.8,76586,List1A,white,man,,,,null,,,,
null,"<img src=""stim_listA/fight1.gif""style=""height:400px;""></stim_listA>",,html-keyboard-response,357,1240905,0.0-19.0-1.8,76586,List1A,white,man,,,,null,,,,
null,is fighting,,html-keyboard-response,358,1242907,0.0-19.0-2.8,76586,List1A,white,man,,,,null,,,,
4389,,,survey-text,359,1247297,0.0-19.0-3.8,76586,List1A,white,man,,,,,"{""Q0"":""mike is fighting kate""}","<img src=""stim_listA/fight1.gif""style=""height:400px;""></stim_listA>",is fighting,
null,"<div style=""font-size:60px;"">+</div>",,html-keyboard-response,360,1247799,0.0-19.0-0.9,76586,List1A,white,man,,,,null,,,,
null,"<img src=""stim_listA/argue4.gif""style=""height:400px;""></stim_listA>",,html-keyboard-response,361,1249801,0.0-19.0-1.9,76586,List1A,white,man,,,,null,,,,
null,are arguing with each other,,html-keyboard-response,362,1251803,0.0-19.0-2.9,76586,List1A,white,man,,,,null,,,,
9743,,,survey-text,363,1261547,0.0-19.0-3.9,76586,List1A,white,man,,,,,"{""Q0"":""jane and luke are arguing with each other""}","<img src=""stim_listA/argue4.gif""style=""height:400px;""></stim_listA>",are arguing with each other,
null,"<div style=""font-size:60px;"">+</div>",,html-keyboard-response,364,1262049,0.0-19.0-0.10,76586,List1A,white,man,,,,null,,,,
null,"<img src=""stim_listA/talk1.gif""style=""height:400px;""></stim_listA>",,html-keyboard-response,365,1264052,0.0-19.0-1.10,76586,List1A,white,man,,,,null,,,,
null,is talking to,,html-keyboard-response,366,1266053,0.0-19.0-2.10,76586,List1A,white,man,,,,null,,,,
3886,,,survey-text,367,1269940,0.0-19.0-3.10,76586,List1A,white,man,,,,,"{""Q0"":""fred is talking to kate""}","<img src=""stim_listA/talk1.gif""style=""height:400px;""></stim_listA>",is talking to,
null,"<div style=""font-size:60px;"">+</div>",,html-keyboard-response,368,1270442,0.0-19.0-0.11,76586,List1A,white,man,,,,null,,,,
null,"<img src=""stim_listA/dance4.gif""style=""height:400px;""></stim_listA>",,html-keyboard-response,369,1272445,0.0-19.0-1.11,76586,List1A,white,man,,,,null,,,,
null,are dancing with each other,,html-keyboard-response,370,1274446,0.0-19.0-2.11,76586,List1A,white,man,,,,null,,,,
9183,,,survey-text,371,1283630,0.0-19.0-3.11,76586,List1A,white,man,,,,,"{""Q0"":""dave and ruth are dancing with each other""}","<img src=""stim_listA/dance4.gif""style=""height:400px;""></stim_listA>",are dancing with each other,
null,"<div style=""font-size:60px;"">+</div>",,html-keyboard-response,372,1284131,0.0-19.0-0.12,76586,List1A,white,man,,,,null,,,,
null,"<img src=""stim_listA/marry1.gif""style=""height:400px;""></stim_listA>",,html-keyboard-response,373,1286134,0.0-19.0-1.12,76586,List1A,white,man,,,,null,,,,
null,is marrying,,html-keyboard-response,374,1288136,0.0-19.0-2.12,76586,List1A,white,man,,,,null,,,,
4615,,,survey-text,375,1292751,0.0-19.0-3.12,76586,List1A,white,man,,,,,"{""Q0"":""mike is marrying beth""}","<img src=""stim_listA/marry1.gif""style=""height:400px;""></stim_listA>",is marrying,
null,"<div style=""font-size:60px;"">+</div>",,html-keyboard-response,376,1293252,0.0-19.0-0.13,76586,List1A,white,man,,,,null,,,,
null,"<img src=""stim_listA/argue7.gif""style=""height:400px;""></stim_listA>",,html-keyboard-response,377,1295255,0.0-19.0-1.13,76586,List1A,white,man,,,,null,,,,
null,is arguing with,,html-keyboard-response,378,1297257,0.0-19.0-2.13,76586,List1A,white,man,,,,null,,,,
6397,,,survey-text,379,1303656,0.0-19.0-3.13,76586,List1A,white,man,,,,,"{""Q0"":""kate is arguing with ruth""}","<img src=""stim_listA/argue7.gif""style=""height:400px;""></stim_listA>",is arguing with,
null,"<div style=""font-size:60px;"">+</div>",,html-keyboard-response,380,1304157,0.0-19.0-0.14,76586,List1A,white,man,,,,null,,,,
null,"<img src=""stim_listA/kiss8.gif""style=""height:400px;""></stim_listA>",,html-keyboard-response,381,1306159,0.0-19.0-1.14,76586,List1A,white,man,,,,null,,,,
null,are kissing each other,,html-keyboard-response,382,1308161,0.0-19.0-2.14,76586,List1A,white,man,,,,null,,,,
7472,,,survey-text,383,1315634,0.0-19.0-3.14,76586,List1A,white,man,,,,,"{""Q0"":""jane and kate are kissing each other""}","<img src=""stim_listA/kiss8.gif""style=""height:400px;""></stim_listA>",are kissing each other,
null,"<div style=""font-size:60px;"">+</div>",,html-keyboard-response,384,1316136,0.0-19.0-0.15,76586,List1A,white,man,,,,null,,,,
null,"<img src=""stim_listA/touch7.gif""style=""height:400px;""></stim_listA>",,html-keyboard-response,385,1318139,0.0-19.0-1.15,76586,List1A,white,man,,,,null,,,,
null,is touching,,html-keyboard-response,386,1320141,0.0-19.0-2.15,76586,List1A,white,man,,,,null,,,,
5953,,,survey-text,387,1326094,0.0-19.0-3.15,76586,List1A,white,man,,,,,"{""Q0"":""kate is touching jane""}","<img src=""stim_listA/touch7.gif""style=""height:400px;""></stim_listA>",is touching,
null,"<div style=""font-size:60px;"">+</div>",,html-keyboard-response,388,1326595,0.0-19.0-0.16,76586,List1A,white,man,,,,null,,,,
null,"<img src=""stim_listA/talk5.gif""style=""height:400px;""></stim_listA>",,html-keyboard-response,389,1328598,0.0-19.0-1.16,76586,List1A,white,man,,,,null,,,,
null,is talking to,,html-keyboard-response,390,1330599,0.0-19.0-2.16,76586,List1A,white,man,,,,null,,,,
5566,,,survey-text,391,1336166,0.0-19.0-3.16,76586,List1A,white,man,,,,,"{""Q0"":""fred is talking to dave""}","<img src=""stim_listA/talk5.gif""style=""height:400px;""></stim_listA>",is talking to,
null,"<div style=""font-size:60px;"">+</div>",,html-keyboard-response,392,1336668,0.0-19.0-0.17,76586,List1A,white,man,,,,null,,,,
null,"<img src=""stim_listA/fight4.gif""style=""height:400px;""></stim_listA>",,html-keyboard-response,393,1338671,0.0-19.0-1.17,76586,List1A,white,man,,,,null,,,,
null,are fighting each other,,html-keyboard-response,394,1340673,0.0-19.0-2.17,76586,List1A,white,man,,,,null,,,,
6661,,,survey-text,395,1347336,0.0-19.0-3.17,76586,List1A,white,man,,,,,"{""Q0"":""luke and ruth are fighting each other""}","<img src=""stim_listA/fight4.gif""style=""height:400px;""></stim_listA>",are fighting each other,
null,"<div style=""font-size:60px;"">+</div>",,html-keyboard-response,396,1347837,0.0-19.0-0.18,76586,List1A,white,man,,,,null,,,,
null,"<img src=""stim_listA/shout6.gif""style=""height:400px;""></stim_listA>",,html-keyboard-response,397,1349839,0.0-19.0-1.18,76586,List1A,white,man,,,,null,,,,
null,are shouting at each other,,html-keyboard-response,398,1351841,0.0-19.0-2.18,76586,List1A,white,man,,,,null,,,,
5543,,,survey-text,399,1357385,0.0-19.0-3.18,76586,List1A,white,man,,,,,"{""Q0"":""dave and mike are shouting at each other""}","<img src=""stim_listA/shout6.gif""style=""height:400px;""></stim_listA>",are shouting at each other,
null,"<div style=""font-size:60px;"">+</div>",,html-keyboard-response,400,1357886,0.0-19.0-0.19,76586,List1A,white,man,,,,null,,,,
null,"<img src=""stim_listA/argue1.gif""style=""height:400px;""></stim_listA>",,html-keyboard-response,401,1359889,0.0-19.0-1.19,76586,List1A,white,man,,,,null,,,,
null,is arguing with,,html-keyboard-response,402,1361891,0.0-19.0-2.19,76586,List1A,white,man,,,,null,,,,
4800,,,survey-text,403,1366691,0.0-19.0-3.19,76586,List1A,white,man,,,,,"{""Q0"":""mike is arguing with beth""}","<img src=""stim_listA/argue1.gif""style=""height:400px;""></stim_listA>",is arguing with,
2752,<p>Thank you for completing that task.</p><p>The final part of this session is a short questionnaire.</p><p>Press Continue.</p>,0,html-button-response,404,1369443,0.0-20.0,76586,List1A,white,man,,,,,,,,
42046,,,survey-text,405,1412491,0.0-21.0,76586,List1A,white,man,,,,,"{""Q0"":""27"",""Q1"":""English"",""Q2"":""English"",""Q3"":""England"",""Q4"":""Caucasian"",""Q5"":""Male""}",,,demographics
19266,,,survey-likert,406,1431759,0.0-22.0,76586,List1A,white,man,,,,,"{""Q0"":4}",,,likert_ESS
4515,,,survey-likert,407,1436279,0.0-23.0,76586,List1A,white,man,,,,,"{""Q0"":4}",,,likert_NSSAL_Q1
8549,,,survey-likert,408,1444832,0.0-24.0,76586,List1A,white,man,,,,,"{""Q0"":4}",,,likert_NSSAL_Q2
3453,,,survey-likert,409,1448289,0.0-25.0,76586,List1A,white,man,,,,,"{""Q0"":4}",,,likert_CGRS_Q1
7349,,,survey-likert,410,1455642,0.0-26.0,76586,List1A,white,man,,,,,"{""Q0"":4}",,,likert_CGRS_Q2
3069,,,survey-likert,411,1458715,0.0-27.0,76586,List1A,white,man,,,,,"{""Q0"":4}",,,likert_CGRS_Q3
10045,,,survey-text,412,1468764,0.0-28.0,76586,List1A,white,man,,,,,"{""Q0"":""ccc""}",,,worker_id
47223,,,external-html,413,1516033,0.0-29.0,76586,List1A,white,man,debrief.html,,,,,,,
