rt,stimulus,button_pressed,trial_type,trial_index,time_elapsed,internal_node_id,subject,list,ppt_race,ppt_gender,url,first_guess,correct,key_press,responses,image_type,phrase_type,test_part
2615,Welcome to the experiment. Press Continue to begin.,0,html-button-response,0,2617,0.0-0.0,77213,List2B,black,man,,,,,,,,
85850,,,external-html,1,89581,0.0-1.0,77213,List2B,black,man,consent.html,,,,,,,
6856,"<p>On the next page, you will see portraits of 8 people and their names.</p><p>Your first task is to take a few minutes to memorise the names of these people.</p><p>You will have to recall their names during the rest of the experiment, so it is</p><p>essential that you try to memorise these people and their names as best as you can.</p><br><p><strong>You will then be tested on your memory of these names and portraits.</strong></p><br><p>The experiment will start after you have completed this memory test.</p><br><p>Ready?</p>",0,html-button-response,2,96439,0.0-2.0,77213,List2B,black,man,,,,,,,,
71850,"<img src='img/portrait_matrix_list2.jpg' style='width:900px;height:500px;''></img><p>If you have memorised all the portraits and names and are ready to start, press Continue.</p><p><strong>Please note: Your memory of these faces will be tested 4 times during this experiment.</strong></p>",0,html-button-response,3,169292,0.0-3.0-0.0,77213,List2B,black,man,,,,,,,,
3441,"<img src=""portrait/WM2.jpg""style=""height:400px;""></img>",4,html-button-response,4,173735,0.0-3.0-1.0,77213,List2B,black,man,,TRUE,7,,,,,
4234,"<img src=""portrait/WM2.jpg""style=""height:400px;""></img>",7,html-button-response,5,178972,0.0-3.0-3.0-0.0,77213,List2B,black,man,,FALSE,7,,,,,
null,CORRECT,,html-keyboard-response,6,180477,0.0-3.0-3.0-1.0-0.0,77213,List2B,black,man,,,,null,,,,
18354,"<img src=""portrait/BM2.jpg""style=""height:400px;""></img>",5,html-button-response,7,198832,0.0-3.0-4.0,77213,List2B,black,man,,TRUE,5,,,,,
null,CORRECT,,html-keyboard-response,8,200333,0.0-3.0-5.0-0.0,77213,List2B,black,man,,,,null,,,,
8295,"<img src=""portrait/BW1.jpg""style=""height:400px;""></img>",0,html-button-response,9,208629,0.0-3.0-7.0,77213,List2B,black,man,,TRUE,0,,,,,
null,CORRECT,,html-keyboard-response,10,210134,0.0-3.0-8.0-0.0,77213,List2B,black,man,,,,null,,,,
6669,"<img src=""portrait/WW2.jpg""style=""height:400px;""></img>",3,html-button-response,11,216804,0.0-3.0-10.0,77213,List2B,black,man,,TRUE,3,,,,,
null,CORRECT,,html-keyboard-response,12,218306,0.0-3.0-11.0-0.0,77213,List2B,black,man,,,,null,,,,
4494,"<img src=""portrait/WW1.jpg""style=""height:400px;""></img>",1,html-button-response,13,222801,0.0-3.0-13.0,77213,List2B,black,man,,TRUE,1,,,,,
null,CORRECT,,html-keyboard-response,14,224304,0.0-3.0-14.0-0.0,77213,List2B,black,man,,,,null,,,,
4207,"<img src=""portrait/WM1.jpg""style=""height:400px;""></img>",5,html-button-response,15,228512,0.0-3.0-16.0,77213,List2B,black,man,,TRUE,6,,,,,
1943,"<img src=""portrait/WM1.jpg""style=""height:400px;""></img>",6,html-button-response,16,231458,0.0-3.0-18.0-0.0,77213,List2B,black,man,,FALSE,6,,,,,
null,CORRECT,,html-keyboard-response,17,232961,0.0-3.0-18.0-1.0-0.0,77213,List2B,black,man,,,,null,,,,
5106,"<img src=""portrait/BM1.jpg""style=""height:400px;""></img>",4,html-button-response,18,238068,0.0-3.0-19.0,77213,List2B,black,man,,TRUE,4,,,,,
null,CORRECT,,html-keyboard-response,19,239570,0.0-3.0-20.0-0.0,77213,List2B,black,man,,,,null,,,,
3397,"<img src=""portrait/BW2.jpg""style=""height:400px;""></img>",2,html-button-response,20,242968,0.0-3.0-22.0,77213,List2B,black,man,,TRUE,2,,,,,
null,CORRECT,,html-keyboard-response,21,244470,0.0-3.0-23.0-0.0,77213,List2B,black,man,,,,null,,,,
1826,<p>You got 6 out of 8 right first time. Press Continue.</p>,0,html-button-response,22,246297,0.0-3.0-25.0,77213,List2B,black,man,,,,,,,,
2670,"As you did not score 100%, the memory game will repeat. Press Continue.",0,html-button-response,23,249970,0.0-3.0-26.0-0.0,77213,List2B,black,man,,,,,,,,
16214,"<img src='img/portrait_matrix_list2.jpg' style='width:900px;height:500px;''></img><p>If you have memorised all the portraits and names and are ready to start, press Continue.</p><p><strong>Please note: Your memory of these faces will be tested 4 times during this experiment.</strong></p>",0,html-button-response,24,267186,0.0-3.1-0.1,77213,List2B,black,man,,,,,,,,
4582,"<img src=""portrait/WM2.jpg""style=""height:400px;""></img>",7,html-button-response,25,272772,0.0-3.1-1.1,77213,List2B,black,man,,TRUE,7,,,,,
null,CORRECT,,html-keyboard-response,26,274275,0.0-3.1-2.1-0.1,77213,List2B,black,man,,,,null,,,,
3420,"<img src=""portrait/BM2.jpg""style=""height:400px;""></img>",5,html-button-response,27,277695,0.0-3.1-4.1,77213,List2B,black,man,,TRUE,5,,,,,
null,CORRECT,,html-keyboard-response,28,279197,0.0-3.1-5.1-0.1,77213,List2B,black,man,,,,null,,,,
2573,"<img src=""portrait/BW1.jpg""style=""height:400px;""></img>",0,html-button-response,29,281770,0.0-3.1-7.1,77213,List2B,black,man,,TRUE,0,,,,,
null,CORRECT,,html-keyboard-response,30,283272,0.0-3.1-8.1-0.1,77213,List2B,black,man,,,,null,,,,
3065,"<img src=""portrait/WW2.jpg""style=""height:400px;""></img>",3,html-button-response,31,286339,0.0-3.1-10.1,77213,List2B,black,man,,TRUE,3,,,,,
null,CORRECT,,html-keyboard-response,32,287842,0.0-3.1-11.1-0.1,77213,List2B,black,man,,,,null,,,,
3115,"<img src=""portrait/WW1.jpg""style=""height:400px;""></img>",1,html-button-response,33,290959,0.0-3.1-13.1,77213,List2B,black,man,,TRUE,1,,,,,
null,CORRECT,,html-keyboard-response,34,292462,0.0-3.1-14.1-0.1,77213,List2B,black,man,,,,null,,,,
3053,"<img src=""portrait/WM1.jpg""style=""height:400px;""></img>",6,html-button-response,35,295517,0.0-3.1-16.1,77213,List2B,black,man,,TRUE,6,,,,,
null,CORRECT,,html-keyboard-response,36,297020,0.0-3.1-17.1-0.1,77213,List2B,black,man,,,,null,,,,
2584,"<img src=""portrait/BM1.jpg""style=""height:400px;""></img>",4,html-button-response,37,299605,0.0-3.1-19.1,77213,List2B,black,man,,TRUE,4,,,,,
null,CORRECT,,html-keyboard-response,38,301109,0.0-3.1-20.1-0.1,77213,List2B,black,man,,,,null,,,,
4500,"<img src=""portrait/BW2.jpg""style=""height:400px;""></img>",3,html-button-response,39,305611,0.0-3.1-22.1,77213,List2B,black,man,,TRUE,2,,,,,
4356,"<img src=""portrait/BW2.jpg""style=""height:400px;""></img>",2,html-button-response,40,310968,0.0-3.1-24.1-0.1,77213,List2B,black,man,,FALSE,2,,,,,
null,CORRECT,,html-keyboard-response,41,312471,0.0-3.1-24.1-1.1-0.1,77213,List2B,black,man,,,,null,,,,
1649,<p>You got 7 out of 8 right first time. Press Continue.</p>,0,html-button-response,42,314121,0.0-3.1-25.1,77213,List2B,black,man,,,,,,,,
1431,"As you did not score 100%, the memory game will repeat. Press Continue.",0,html-button-response,43,316554,0.0-3.1-26.1-0.1,77213,List2B,black,man,,,,,,,,
2364,"<img src='img/portrait_matrix_list2.jpg' style='width:900px;height:500px;''></img><p>If you have memorised all the portraits and names and are ready to start, press Continue.</p><p><strong>Please note: Your memory of these faces will be tested 4 times during this experiment.</strong></p>",0,html-button-response,44,319921,0.0-3.2-0.2,77213,List2B,black,man,,,,,,,,
3618,"<img src=""portrait/WM2.jpg""style=""height:400px;""></img>",7,html-button-response,45,324542,0.0-3.2-1.2,77213,List2B,black,man,,TRUE,7,,,,,
null,CORRECT,,html-keyboard-response,46,326045,0.0-3.2-2.2-0.2,77213,List2B,black,man,,,,null,,,,
2000,"<img src=""portrait/BM2.jpg""style=""height:400px;""></img>",5,html-button-response,47,328047,0.0-3.2-4.2,77213,List2B,black,man,,TRUE,5,,,,,
null,CORRECT,,html-keyboard-response,48,329548,0.0-3.2-5.2-0.2,77213,List2B,black,man,,,,null,,,,
1884,"<img src=""portrait/BW1.jpg""style=""height:400px;""></img>",0,html-button-response,49,331433,0.0-3.2-7.2,77213,List2B,black,man,,TRUE,0,,,,,
null,CORRECT,,html-keyboard-response,50,332935,0.0-3.2-8.2-0.2,77213,List2B,black,man,,,,null,,,,
5132,"<img src=""portrait/WW2.jpg""style=""height:400px;""></img>",3,html-button-response,51,338068,0.0-3.2-10.2,77213,List2B,black,man,,TRUE,3,,,,,
null,CORRECT,,html-keyboard-response,52,339571,0.0-3.2-11.2-0.2,77213,List2B,black,man,,,,null,,,,
4189,"<img src=""portrait/WW1.jpg""style=""height:400px;""></img>",1,html-button-response,53,343761,0.0-3.2-13.2,77213,List2B,black,man,,TRUE,1,,,,,
null,CORRECT,,html-keyboard-response,54,345265,0.0-3.2-14.2-0.2,77213,List2B,black,man,,,,null,,,,
2534,"<img src=""portrait/WM1.jpg""style=""height:400px;""></img>",6,html-button-response,55,347800,0.0-3.2-16.2,77213,List2B,black,man,,TRUE,6,,,,,
null,CORRECT,,html-keyboard-response,56,349303,0.0-3.2-17.2-0.2,77213,List2B,black,man,,,,null,,,,
1773,"<img src=""portrait/BM1.jpg""style=""height:400px;""></img>",4,html-button-response,57,351076,0.0-3.2-19.2,77213,List2B,black,man,,TRUE,4,,,,,
null,CORRECT,,html-keyboard-response,58,352579,0.0-3.2-20.2-0.2,77213,List2B,black,man,,,,null,,,,
2298,"<img src=""portrait/BW2.jpg""style=""height:400px;""></img>",2,html-button-response,59,354877,0.0-3.2-22.2,77213,List2B,black,man,,TRUE,2,,,,,
null,CORRECT,,html-keyboard-response,60,356380,0.0-3.2-23.2-0.2,77213,List2B,black,man,,,,null,,,,
2064,<p>You got 8 out of 8 right first time. Press Continue.</p>,0,html-button-response,61,358444,0.0-3.2-25.2,77213,List2B,black,man,,,,,,,,
31990,"<p>In this experiment, you will view photographs of the people from the memory game interacting.</p><p>By using the <strong>exact</strong> phrase given <i>after</i> the photograph appears and recalling the correct names of the people in the photographs, form a sentence describing the interaction. You do not need to capitalise names.</p><p>Type your answer in the space provided. Please complete every sentence before moving onto the next trial.</p><p>You will only have a few seconds to memorise each given photograph and phrase before you can respond, so try your best to focus.</p><p>An example is given below. Press 'Continue' when you are ready.</p><img src='img/speaking_example.jpg' style='width:800px;height:460px;''></img>",0,html-button-response,62,391437,0.0-4.0,77213,List2B,black,man,,,,,,,,
2220,"<p>Before the experiment starts, you will watch two example trials. Press 'Continue'.</p>",0,html-button-response,63,394659,0.0-5.0,77213,List2B,black,man,,,,,,,,
null,<img src='img/meet_eg.gif' style='height:400px;''></img>,,html-keyboard-response,64,397660,0.0-6.0,77213,List2B,black,man,,,,null,,,,
null,<p>is meeting</p>,,html-keyboard-response,65,399661,0.0-7.0,77213,List2B,black,man,,,,null,,,,
4670,<p><b>Answer:</b> jane is meeting ruth</p>,0,html-button-response,66,404333,0.0-8.0,77213,List2B,black,man,,,,,,,,
null,<img src='img/look_eg.gif' style='height:400px;''></img>,,html-keyboard-response,67,407336,0.0-9.0,77213,List2B,black,man,,,,null,,,,
null,<p>are looking at each other</p>,,html-keyboard-response,68,409337,0.0-10.0,77213,List2B,black,man,,,,null,,,,
1301,<p><b>Answer:</b> fred and mike are looking at each other</p>,0,html-button-response,69,410639,0.0-11.0,77213,List2B,black,man,,,,,,,,
3790,"<p>Ready to start the experiment?</p><br><p><strong>Remember to describe the picture using a full sentence,</strong></p><p><strong>that combines the names of the people with the <i>exact</i> phrase given.</strong></p><p><strong>To receive full payment you must do this correctly.</strong></p><p><strong> You do not need to capitalise names or use punctuation.</strong></p><br><p>Press 'Continue' to begin.</p>",0,html-button-response,70,415430,0.0-12.0,77213,List2B,black,man,,,,,,,,
null,"<div style=""font-size:60px;"">+</div>",,html-keyboard-response,71,416933,0.0-13.0-0.0,77213,List2B,black,man,,,,null,,,,
null,"<img src=""stim_listB/dance5.gif""style=""height:400px;""></stim_listB>",,html-keyboard-response,72,418934,0.0-13.0-1.0,77213,List2B,black,man,,,,null,,,,
null,is dancing with,,html-keyboard-response,73,420935,0.0-13.0-2.0,77213,List2B,black,man,,,,null,,,,
12771,,,survey-text,74,433707,0.0-13.0-3.0,77213,List2B,black,man,,,,,"{""Q0"":""Mike is dancing with Luke""}","<img src=""stim_listB/dance5.gif""style=""height:400px;""></stim_listB>",is dancing with,
null,"<div style=""font-size:60px;"">+</div>",,html-keyboard-response,75,434209,0.0-13.0-0.1,77213,List2B,black,man,,,,null,,,,
null,"<img src=""stim_listB/argue3.gif""style=""height:400px;""></stim_listB>",,html-keyboard-response,76,436211,0.0-13.0-1.1,77213,List2B,black,man,,,,null,,,,
null,is arguing with,,html-keyboard-response,77,438212,0.0-13.0-2.1,77213,List2B,black,man,,,,null,,,,
9595,,,survey-text,78,447808,0.0-13.0-3.1,77213,List2B,black,man,,,,,"{""Q0"":""Mike is arguing with beth""}","<img src=""stim_listB/argue3.gif""style=""height:400px;""></stim_listB>",is arguing with,
null,"<div style=""font-size:60px;"">+</div>",,html-keyboard-response,79,448311,0.0-13.0-0.2,77213,List2B,black,man,,,,null,,,,
null,"<img src=""stim_listB/marry1.gif""style=""height:400px;""></stim_listB>",,html-keyboard-response,80,450312,0.0-13.0-1.2,77213,List2B,black,man,,,,null,,,,
null,is marrying,,html-keyboard-response,81,452313,0.0-13.0-2.2,77213,List2B,black,man,,,,null,,,,
10525,,,survey-text,82,462838,0.0-13.0-3.2,77213,List2B,black,man,,,,,"{""Q0"":""ruth is marrying dave""}","<img src=""stim_listB/marry1.gif""style=""height:400px;""></stim_listB>",is marrying,
null,"<div style=""font-size:60px;"">+</div>",,html-keyboard-response,83,463340,0.0-13.0-0.3,77213,List2B,black,man,,,,null,,,,
null,"<img src=""stim_listB/argue6.gif""style=""height:400px;""></stim_listB>",,html-keyboard-response,84,465343,0.0-13.0-1.3,77213,List2B,black,man,,,,null,,,,
null,are arguing with each other,,html-keyboard-response,85,467346,0.0-13.0-2.3,77213,List2B,black,man,,,,null,,,,
18396,,,survey-text,86,485742,0.0-13.0-3.3,77213,List2B,black,man,,,,,"{""Q0"":""mike and luke are arguing with each other ""}","<img src=""stim_listB/argue6.gif""style=""height:400px;""></stim_listB>",are arguing with each other,
null,"<div style=""font-size:60px;"">+</div>",,html-keyboard-response,87,486243,0.0-13.0-0.4,77213,List2B,black,man,,,,null,,,,
null,"<img src=""stim_listB/marry8.gif""style=""height:400px;""></stim_listB>",,html-keyboard-response,88,488246,0.0-13.0-1.4,77213,List2B,black,man,,,,null,,,,
null,are marrying each other,,html-keyboard-response,89,490247,0.0-13.0-2.4,77213,List2B,black,man,,,,null,,,,
10632,,,survey-text,90,500881,0.0-13.0-3.4,77213,List2B,black,man,,,,,"{""Q0"":""kate and ruth are marrying each other""}","<img src=""stim_listB/marry8.gif""style=""height:400px;""></stim_listB>",are marrying each other,
null,"<div style=""font-size:60px;"">+</div>",,html-keyboard-response,91,501382,0.0-13.0-0.5,77213,List2B,black,man,,,,null,,,,
null,"<img src=""stim_listB/shout4.gif""style=""height:400px;""></stim_listB>",,html-keyboard-response,92,503385,0.0-13.0-1.5,77213,List2B,black,man,,,,null,,,,
null,are shouting at each other,,html-keyboard-response,93,505387,0.0-13.0-2.5,77213,List2B,black,man,,,,null,,,,
11522,,,survey-text,94,516909,0.0-13.0-3.5,77213,List2B,black,man,,,,,"{""Q0"":""kate and mike are shouting at each other""}","<img src=""stim_listB/shout4.gif""style=""height:400px;""></stim_listB>",are shouting at each other,
null,"<div style=""font-size:60px;"">+</div>",,html-keyboard-response,95,517411,0.0-13.0-0.6,77213,List2B,black,man,,,,null,,,,
null,"<img src=""stim_listB/kiss1.gif""style=""height:400px;""></stim_listB>",,html-keyboard-response,96,519412,0.0-13.0-1.6,77213,List2B,black,man,,,,null,,,,
null,is kissing,,html-keyboard-response,97,521414,0.0-13.0-2.6,77213,List2B,black,man,,,,null,,,,
9378,,,survey-text,98,530794,0.0-13.0-3.6,77213,List2B,black,man,,,,,"{""Q0"":""luke is kissing ruth""}","<img src=""stim_listB/kiss1.gif""style=""height:400px;""></stim_listB>",is kissing,
null,"<div style=""font-size:60px;"">+</div>",,html-keyboard-response,99,531295,0.0-13.0-0.7,77213,List2B,black,man,,,,null,,,,
null,"<img src=""stim_listB/kiss7.gif""style=""height:400px;""></stim_listB>",,html-keyboard-response,100,533296,0.0-13.0-1.7,77213,List2B,black,man,,,,null,,,,
null,is kissing,,html-keyboard-response,101,535298,0.0-13.0-2.7,77213,List2B,black,man,,,,null,,,,
6869,,,survey-text,102,542168,0.0-13.0-3.7,77213,List2B,black,man,,,,,"{""Q0"":""beth is kissing ruth""}","<img src=""stim_listB/kiss7.gif""style=""height:400px;""></stim_listB>",is kissing,
null,"<div style=""font-size:60px;"">+</div>",,html-keyboard-response,103,542670,0.0-13.0-0.8,77213,List2B,black,man,,,,null,,,,
null,"<img src=""stim_listB/touch3.gif""style=""height:400px;""></stim_listB>",,html-keyboard-response,104,544672,0.0-13.0-1.8,77213,List2B,black,man,,,,null,,,,
null,is touching,,html-keyboard-response,105,546674,0.0-13.0-2.8,77213,List2B,black,man,,,,null,,,,
8640,,,survey-text,106,555316,0.0-13.0-3.8,77213,List2B,black,man,,,,,"{""Q0"":""mike is touching kate""}","<img src=""stim_listB/touch3.gif""style=""height:400px;""></stim_listB>",is touching,
null,"<div style=""font-size:60px;"">+</div>",,html-keyboard-response,107,555818,0.0-13.0-0.9,77213,List2B,black,man,,,,null,,,,
null,"<img src=""stim_listB/flirt3.gif""style=""height:400px;""></stim_listB>",,html-keyboard-response,108,557819,0.0-13.0-1.9,77213,List2B,black,man,,,,null,,,,
null,is flirting with,,html-keyboard-response,109,559821,0.0-13.0-2.9,77213,List2B,black,man,,,,null,,,,
9036,,,survey-text,110,568858,0.0-13.0-3.9,77213,List2B,black,man,,,,,"{""Q0"":""fred is flirting with kate""}","<img src=""stim_listB/flirt3.gif""style=""height:400px;""></stim_listB>",is flirting with,
null,"<div style=""font-size:60px;"">+</div>",,html-keyboard-response,111,569359,0.0-13.0-0.10,77213,List2B,black,man,,,,null,,,,
null,"<img src=""stim_listB/shout6.gif""style=""height:400px;""></stim_listB>",,html-keyboard-response,112,571361,0.0-13.0-1.10,77213,List2B,black,man,,,,null,,,,
null,are shouting at each other,,html-keyboard-response,113,573362,0.0-13.0-2.10,77213,List2B,black,man,,,,null,,,,
14621,,,survey-text,114,587985,0.0-13.0-3.10,77213,List2B,black,man,,,,,"{""Q0"":""mike and dave are shouting at each other""}","<img src=""stim_listB/shout6.gif""style=""height:400px;""></stim_listB>",are shouting at each other,
null,"<div style=""font-size:60px;"">+</div>",,html-keyboard-response,115,588487,0.0-13.0-0.11,77213,List2B,black,man,,,,null,,,,
null,"<img src=""stim_listB/kiss4.gif""style=""height:400px;""></stim_listB>",,html-keyboard-response,116,590488,0.0-13.0-1.11,77213,List2B,black,man,,,,null,,,,
null,are kissing each other,,html-keyboard-response,117,592489,0.0-13.0-2.11,77213,List2B,black,man,,,,null,,,,
13315,,,survey-text,118,605804,0.0-13.0-3.11,77213,List2B,black,man,,,,,"{""Q0"":""mike and kate are kissing each other""}","<img src=""stim_listB/kiss4.gif""style=""height:400px;""></stim_listB>",are kissing each other,
null,"<div style=""font-size:60px;"">+</div>",,html-keyboard-response,119,606305,0.0-13.0-0.12,77213,List2B,black,man,,,,null,,,,
null,"<img src=""stim_listB/talk8.gif""style=""height:400px;""></stim_listB>",,html-keyboard-response,120,608307,0.0-13.0-1.12,77213,List2B,black,man,,,,null,,,,
null,are talking to each other,,html-keyboard-response,121,610308,0.0-13.0-2.12,77213,List2B,black,man,,,,null,,,,
30481,,,survey-text,122,640790,0.0-13.0-3.12,77213,List2B,black,man,,,,,"{""Q0"":""beth and jane are looking at each other""}","<img src=""stim_listB/talk8.gif""style=""height:400px;""></stim_listB>",are talking to each other,
null,"<div style=""font-size:60px;"">+</div>",,html-keyboard-response,123,641291,0.0-13.0-0.13,77213,List2B,black,man,,,,null,,,,
null,"<img src=""stim_listB/shout1.gif""style=""height:400px;""></stim_listB>",,html-keyboard-response,124,643293,0.0-13.0-1.13,77213,List2B,black,man,,,,null,,,,
null,is shouting at,,html-keyboard-response,125,645294,0.0-13.0-2.13,77213,List2B,black,man,,,,null,,,,
16566,,,survey-text,126,661862,0.0-13.0-3.13,77213,List2B,black,man,,,,,"{""Q0"":""ruth is shouting at luke ""}","<img src=""stim_listB/shout1.gif""style=""height:400px;""></stim_listB>",is shouting at,
null,"<div style=""font-size:60px;"">+</div>",,html-keyboard-response,127,662363,0.0-13.0-0.14,77213,List2B,black,man,,,,null,,,,
null,"<img src=""stim_listB/flirt6.gif""style=""height:400px;""></stim_listB>",,html-keyboard-response,128,664365,0.0-13.0-1.14,77213,List2B,black,man,,,,null,,,,
null,are flirting with each other,,html-keyboard-response,129,666367,0.0-13.0-2.14,77213,List2B,black,man,,,,null,,,,
18941,,,survey-text,130,685308,0.0-13.0-3.14,77213,List2B,black,man,,,,,"{""Q0"":""fred and dave are flirting with each other""}","<img src=""stim_listB/flirt6.gif""style=""height:400px;""></stim_listB>",are flirting with each other,
null,"<div style=""font-size:60px;"">+</div>",,html-keyboard-response,131,685810,0.0-13.0-0.15,77213,List2B,black,man,,,,null,,,,
null,"<img src=""stim_listB/play2.gif""style=""height:400px;""></stim_listB>",,html-keyboard-response,132,687812,0.0-13.0-1.15,77213,List2B,black,man,,,,null,,,,
null,are playing with each other,,html-keyboard-response,133,689814,0.0-13.0-2.15,77213,List2B,black,man,,,,null,,,,
18152,,,survey-text,134,707967,0.0-13.0-3.15,77213,List2B,black,man,,,,,"{""Q0"":""luke and ruth are playing with each other""}","<img src=""stim_listB/play2.gif""style=""height:400px;""></stim_listB>",are playing with each other,
null,"<div style=""font-size:60px;"">+</div>",,html-keyboard-response,135,708468,0.0-13.0-0.16,77213,List2B,black,man,,,,null,,,,
null,"<img src=""stim_listB/touch8.gif""style=""height:400px;""></stim_listB>",,html-keyboard-response,136,710469,0.0-13.0-1.16,77213,List2B,black,man,,,,null,,,,
null,are touching each other,,html-keyboard-response,137,712470,0.0-13.0-2.16,77213,List2B,black,man,,,,null,,,,
11545,,,survey-text,138,724016,0.0-13.0-3.16,77213,List2B,black,man,,,,,"{""Q0"":""beth and ruth are touching each other""}","<img src=""stim_listB/touch8.gif""style=""height:400px;""></stim_listB>",are touching each other,
null,"<div style=""font-size:60px;"">+</div>",,html-keyboard-response,139,724517,0.0-13.0-0.17,77213,List2B,black,man,,,,null,,,,
null,"<img src=""stim_listB/fight4.gif""style=""height:400px;""></stim_listB>",,html-keyboard-response,140,726519,0.0-13.0-1.17,77213,List2B,black,man,,,,null,,,,
null,are fighting each other,,html-keyboard-response,141,728520,0.0-13.0-2.17,77213,List2B,black,man,,,,null,,,,
12160,,,survey-text,142,740682,0.0-13.0-3.17,77213,List2B,black,man,,,,,"{""Q0"":""fred and beth are fighting each other""}","<img src=""stim_listB/fight4.gif""style=""height:400px;""></stim_listB>",are fighting each other,
null,"<div style=""font-size:60px;"">+</div>",,html-keyboard-response,143,741185,0.0-13.0-0.18,77213,List2B,black,man,,,,null,,,,
null,"<img src=""stim_listB/play7.gif""style=""height:400px;""></stim_listB>",,html-keyboard-response,144,743187,0.0-13.0-1.18,77213,List2B,black,man,,,,null,,,,
null,is playing with,,html-keyboard-response,145,745188,0.0-13.0-2.18,77213,List2B,black,man,,,,null,,,,
9768,,,survey-text,146,754956,0.0-13.0-3.18,77213,List2B,black,man,,,,,"{""Q0"":""kate is playing with jane""}","<img src=""stim_listB/play7.gif""style=""height:400px;""></stim_listB>",is playing with,
null,"<div style=""font-size:60px;"">+</div>",,html-keyboard-response,147,755458,0.0-13.0-0.19,77213,List2B,black,man,,,,null,,,,
null,"<img src=""stim_listB/dance4.gif""style=""height:400px;""></stim_listB>",,html-keyboard-response,148,757460,0.0-13.0-1.19,77213,List2B,black,man,,,,null,,,,
null,are dancing with each other,,html-keyboard-response,149,759461,0.0-13.0-2.19,77213,List2B,black,man,,,,null,,,,
15517,,,survey-text,150,774980,0.0-13.0-3.19,77213,List2B,black,man,,,,,"{""Q0"":""mike and beth are dancing with each other""}","<img src=""stim_listB/dance4.gif""style=""height:400px;""></stim_listB>",are dancing with each other,
6120,"<img src='img/portrait_matrix_list2.jpg' style='width:900px;height:500px;''></img><p>If you have memorised all the portraits and names and are ready to start, press Continue.</p><p><strong>Please note: Your memory of these faces will be tested 4 times during this experiment.</strong></p>",0,html-button-response,151,781100,0.0-14.0-0.0,77213,List2B,black,man,,,,,,,,
2008,"<img src=""portrait/BM1.jpg""style=""height:400px;""></img>",4,html-button-response,152,784111,0.0-14.0-1.0,77213,List2B,black,man,,TRUE,4,,,,,
null,CORRECT,,html-keyboard-response,153,785614,0.0-14.0-2.0-0.0,77213,List2B,black,man,,,,null,,,,
1924,"<img src=""portrait/WW1.jpg""style=""height:400px;""></img>",1,html-button-response,154,787539,0.0-14.0-4.0,77213,List2B,black,man,,TRUE,1,,,,,
null,CORRECT,,html-keyboard-response,155,789043,0.0-14.0-5.0-0.0,77213,List2B,black,man,,,,null,,,,
2393,"<img src=""portrait/BM2.jpg""style=""height:400px;""></img>",5,html-button-response,156,791437,0.0-14.0-7.0,77213,List2B,black,man,,TRUE,5,,,,,
null,CORRECT,,html-keyboard-response,157,792940,0.0-14.0-8.0-0.0,77213,List2B,black,man,,,,null,,,,
2382,"<img src=""portrait/BW2.jpg""style=""height:400px;""></img>",2,html-button-response,158,795323,0.0-14.0-10.0,77213,List2B,black,man,,TRUE,2,,,,,
null,CORRECT,,html-keyboard-response,159,796825,0.0-14.0-11.0-0.0,77213,List2B,black,man,,,,null,,,,
1995,"<img src=""portrait/BW1.jpg""style=""height:400px;""></img>",0,html-button-response,160,798821,0.0-14.0-13.0,77213,List2B,black,man,,TRUE,0,,,,,
null,CORRECT,,html-keyboard-response,161,800323,0.0-14.0-14.0-0.0,77213,List2B,black,man,,,,null,,,,
2192,"<img src=""portrait/WW2.jpg""style=""height:400px;""></img>",3,html-button-response,162,802517,0.0-14.0-16.0,77213,List2B,black,man,,TRUE,3,,,,,
null,CORRECT,,html-keyboard-response,163,804019,0.0-14.0-17.0-0.0,77213,List2B,black,man,,,,null,,,,
3710,"<img src=""portrait/WM2.jpg""style=""height:400px;""></img>",7,html-button-response,164,807730,0.0-14.0-19.0,77213,List2B,black,man,,TRUE,7,,,,,
null,CORRECT,,html-keyboard-response,165,809233,0.0-14.0-20.0-0.0,77213,List2B,black,man,,,,null,,,,
1200,"<img src=""portrait/WM1.jpg""style=""height:400px;""></img>",6,html-button-response,166,810434,0.0-14.0-22.0,77213,List2B,black,man,,TRUE,6,,,,,
null,CORRECT,,html-keyboard-response,167,811936,0.0-14.0-23.0-0.0,77213,List2B,black,man,,,,null,,,,
1504,<p>You got 8 out of 8 right first time. Press Continue.</p>,0,html-button-response,168,813440,0.0-14.0-25.0,77213,List2B,black,man,,,,,,,,
null,"<div style=""font-size:60px;"">+</div>",,html-keyboard-response,169,814942,0.0-15.0-0.0,77213,List2B,black,man,,,,null,,,,
null,"<img src=""stim_listB/argue1.gif""style=""height:400px;""></stim_listB>",,html-keyboard-response,170,816945,0.0-15.0-1.0,77213,List2B,black,man,,,,null,,,,
null,is arguing with,,html-keyboard-response,171,818947,0.0-15.0-2.0,77213,List2B,black,man,,,,null,,,,
7938,,,survey-text,172,826886,0.0-15.0-3.0,77213,List2B,black,man,,,,,"{""Q0"":""ruth is arguing with dave""}","<img src=""stim_listB/argue1.gif""style=""height:400px;""></stim_listB>",is arguing with,
null,"<div style=""font-size:60px;"">+</div>",,html-keyboard-response,173,827387,0.0-15.0-0.1,77213,List2B,black,man,,,,null,,,,
null,"<img src=""stim_listB/shout5.gif""style=""height:400px;""></stim_listB>",,html-keyboard-response,174,829388,0.0-15.0-1.1,77213,List2B,black,man,,,,null,,,,
null,is shouting at,,html-keyboard-response,175,831389,0.0-15.0-2.1,77213,List2B,black,man,,,,null,,,,
9106,,,survey-text,176,840497,0.0-15.0-3.1,77213,List2B,black,man,,,,,"{""Q0"":""luke is shouting at fred""}","<img src=""stim_listB/shout5.gif""style=""height:400px;""></stim_listB>",is shouting at,
null,"<div style=""font-size:60px;"">+</div>",,html-keyboard-response,177,840998,0.0-15.0-0.2,77213,List2B,black,man,,,,null,,,,
null,"<img src=""stim_listB/talk5.gif""style=""height:400px;""></stim_listB>",,html-keyboard-response,178,843000,0.0-15.0-1.2,77213,List2B,black,man,,,,null,,,,
null,is talking to,,html-keyboard-response,179,845001,0.0-15.0-2.2,77213,List2B,black,man,,,,null,,,,
8950,,,survey-text,180,853952,0.0-15.0-3.2,77213,List2B,black,man,,,,,"{""Q0"":""mike is talking to luke""}","<img src=""stim_listB/talk5.gif""style=""height:400px;""></stim_listB>",is talking to,
null,"<div style=""font-size:60px;"">+</div>",,html-keyboard-response,181,854454,0.0-15.0-0.3,77213,List2B,black,man,,,,null,,,,
null,"<img src=""stim_listB/dance3.gif""style=""height:400px;""></stim_listB>",,html-keyboard-response,182,856456,0.0-15.0-1.3,77213,List2B,black,man,,,,null,,,,
null,is dancing with,,html-keyboard-response,183,858457,0.0-15.0-2.3,77213,List2B,black,man,,,,null,,,,
10548,,,survey-text,184,869006,0.0-15.0-3.3,77213,List2B,black,man,,,,,"{""Q0"":""kate is dancing with fred""}","<img src=""stim_listB/dance3.gif""style=""height:400px;""></stim_listB>",is dancing with,
null,"<div style=""font-size:60px;"">+</div>",,html-keyboard-response,185,869508,0.0-15.0-0.4,77213,List2B,black,man,,,,null,,,,
null,"<img src=""stim_listB/play1.gif""style=""height:400px;""></stim_listB>",,html-keyboard-response,186,871510,0.0-15.0-1.4,77213,List2B,black,man,,,,null,,,,
null,is playing with,,html-keyboard-response,187,873510,0.0-15.0-2.4,77213,List2B,black,man,,,,null,,,,
9133,,,survey-text,188,882645,0.0-15.0-3.4,77213,List2B,black,man,,,,,"{""Q0"":""jane is playing with dave""}","<img src=""stim_listB/play1.gif""style=""height:400px;""></stim_listB>",is playing with,
null,"<div style=""font-size:60px;"">+</div>",,html-keyboard-response,189,883146,0.0-15.0-0.5,77213,List2B,black,man,,,,null,,,,
null,"<img src=""stim_listB/talk3.gif""style=""height:400px;""></stim_listB>",,html-keyboard-response,190,885149,0.0-15.0-1.5,77213,List2B,black,man,,,,null,,,,
null,is talking to,,html-keyboard-response,191,887150,0.0-15.0-2.5,77213,List2B,black,man,,,,null,,,,
7420,,,survey-text,192,894572,0.0-15.0-3.5,77213,List2B,black,man,,,,,"{""Q0"":""kate is talking to fred""}","<img src=""stim_listB/talk3.gif""style=""height:400px;""></stim_listB>",is talking to,
null,"<div style=""font-size:60px;"">+</div>",,html-keyboard-response,193,895074,0.0-15.0-0.6,77213,List2B,black,man,,,,null,,,,
null,"<img src=""stim_listB/marry2.gif""style=""height:400px;""></stim_listB>",,html-keyboard-response,194,897075,0.0-15.0-1.6,77213,List2B,black,man,,,,null,,,,
null,are marrying each other,,html-keyboard-response,195,899077,0.0-15.0-2.6,77213,List2B,black,man,,,,null,,,,
11687,,,survey-text,196,910765,0.0-15.0-3.6,77213,List2B,black,man,,,,,"{""Q0"":""luke and jane are marrying each other""}","<img src=""stim_listB/marry2.gif""style=""height:400px;""></stim_listB>",are marrying each other,
null,"<div style=""font-size:60px;"">+</div>",,html-keyboard-response,197,911266,0.0-15.0-0.7,77213,List2B,black,man,,,,null,,,,
null,"<img src=""stim_listB/fight2.gif""style=""height:400px;""></stim_listB>",,html-keyboard-response,198,913268,0.0-15.0-1.7,77213,List2B,black,man,,,,null,,,,
null,are fighting each other,,html-keyboard-response,199,915270,0.0-15.0-2.7,77213,List2B,black,man,,,,null,,,,
13087,,,survey-text,200,928357,0.0-15.0-3.7,77213,List2B,black,man,,,,,"{""Q0"":""ruth and luke are fighting each other""}","<img src=""stim_listB/fight2.gif""style=""height:400px;""></stim_listB>",are fighting each other,
null,"<div style=""font-size:60px;"">+</div>",,html-keyboard-response,201,928859,0.0-15.0-0.8,77213,List2B,black,man,,,,null,,,,
null,"<img src=""stim_listB/play5.gif""style=""height:400px;""></stim_listB>",,html-keyboard-response,202,930860,0.0-15.0-1.8,77213,List2B,black,man,,,,null,,,,
null,is playing with,,html-keyboard-response,203,932862,0.0-15.0-2.8,77213,List2B,black,man,,,,null,,,,
8274,,,survey-text,204,941137,0.0-15.0-3.8,77213,List2B,black,man,,,,,"{""Q0"":""mike is playing with dave""}","<img src=""stim_listB/play5.gif""style=""height:400px;""></stim_listB>",is playing with,
null,"<div style=""font-size:60px;"">+</div>",,html-keyboard-response,205,941639,0.0-15.0-0.9,77213,List2B,black,man,,,,null,,,,
null,"<img src=""stim_listB/marry3.gif""style=""height:400px;""></stim_listB>",,html-keyboard-response,206,943640,0.0-15.0-1.9,77213,List2B,black,man,,,,null,,,,
null,is marrying,,html-keyboard-response,207,945641,0.0-15.0-2.9,77213,List2B,black,man,,,,null,,,,
7936,,,survey-text,208,953578,0.0-15.0-3.9,77213,List2B,black,man,,,,,"{""Q0"":""mike is marrying beth""}","<img src=""stim_listB/marry3.gif""style=""height:400px;""></stim_listB>",is marrying,
null,"<div style=""font-size:60px;"">+</div>",,html-keyboard-response,209,954079,0.0-15.0-0.10,77213,List2B,black,man,,,,null,,,,
null,"<img src=""stim_listB/flirt7.gif""style=""height:400px;""></stim_listB>",,html-keyboard-response,210,956081,0.0-15.0-1.10,77213,List2B,black,man,,,,null,,,,
null,is flirting with,,html-keyboard-response,211,958082,0.0-15.0-2.10,77213,List2B,black,man,,,,null,,,,
9074,,,survey-text,212,967156,0.0-15.0-3.10,77213,List2B,black,man,,,,,"{""Q0"":""ruth is flirting with kate""}","<img src=""stim_listB/flirt7.gif""style=""height:400px;""></stim_listB>",is flirting with,
null,"<div style=""font-size:60px;"">+</div>",,html-keyboard-response,213,967658,0.0-15.0-0.11,77213,List2B,black,man,,,,null,,,,
null,"<img src=""stim_listB/argue8.gif""style=""height:400px;""></stim_listB>",,html-keyboard-response,214,969659,0.0-15.0-1.11,77213,List2B,black,man,,,,null,,,,
null,are arguing with each other,,html-keyboard-response,215,971660,0.0-15.0-2.11,77213,List2B,black,man,,,,null,,,,
13367,,,survey-text,216,985028,0.0-15.0-3.11,77213,List2B,black,man,,,,,"{""Q0"":""kate and ruth are arguing with each other""}","<img src=""stim_listB/argue8.gif""style=""height:400px;""></stim_listB>",are arguing with each other,
null,"<div style=""font-size:60px;"">+</div>",,html-keyboard-response,217,985530,0.0-15.0-0.12,77213,List2B,black,man,,,,null,,,,
null,"<img src=""stim_listB/argue4.gif""style=""height:400px;""></stim_listB>",,html-keyboard-response,218,987532,0.0-15.0-1.12,77213,List2B,black,man,,,,null,,,,
null,are arguing with each other,,html-keyboard-response,219,989532,0.0-15.0-2.12,77213,List2B,black,man,,,,null,,,,
12556,,,survey-text,220,1002089,0.0-15.0-3.12,77213,List2B,black,man,,,,,"{""Q0"":""fred and kate are arguing with each other""}","<img src=""stim_listB/argue4.gif""style=""height:400px;""></stim_listB>",are arguing with each other,
null,"<div style=""font-size:60px;"">+</div>",,html-keyboard-response,221,1002590,0.0-15.0-0.13,77213,List2B,black,man,,,,null,,,,
null,"<img src=""stim_listB/dance8.gif""style=""height:400px;""></stim_listB>",,html-keyboard-response,222,1004592,0.0-15.0-1.13,77213,List2B,black,man,,,,null,,,,
null,are dancing with each other,,html-keyboard-response,223,1006594,0.0-15.0-2.13,77213,List2B,black,man,,,,null,,,,
11448,,,survey-text,224,1018044,0.0-15.0-3.13,77213,List2B,black,man,,,,,"{""Q0"":""beth and jane are dancing with each other""}","<img src=""stim_listB/dance8.gif""style=""height:400px;""></stim_listB>",are dancing with each other,
null,"<div style=""font-size:60px;"">+</div>",,html-keyboard-response,225,1018545,0.0-15.0-0.14,77213,List2B,black,man,,,,null,,,,
null,"<img src=""stim_listB/shout2.gif""style=""height:400px;""></stim_listB>",,html-keyboard-response,226,1020546,0.0-15.0-1.14,77213,List2B,black,man,,,,null,,,,
null,are shouting at each other,,html-keyboard-response,227,1022548,0.0-15.0-2.14,77213,List2B,black,man,,,,null,,,,
10410,,,survey-text,228,1032958,0.0-15.0-3.14,77213,List2B,black,man,,,,,"{""Q0"":""dave and jane are shouting at each other""}","<img src=""stim_listB/shout2.gif""style=""height:400px;""></stim_listB>",are shouting at each other,
null,"<div style=""font-size:60px;"">+</div>",,html-keyboard-response,229,1033460,0.0-15.0-0.15,77213,List2B,black,man,,,,null,,,,
null,"<img src=""stim_listB/shout8.gif""style=""height:400px;""></stim_listB>",,html-keyboard-response,230,1035462,0.0-15.0-1.15,77213,List2B,black,man,,,,null,,,,
null,are shouting at each other,,html-keyboard-response,231,1037464,0.0-15.0-2.15,77213,List2B,black,man,,,,null,,,,
13768,,,survey-text,232,1051233,0.0-15.0-3.15,77213,List2B,black,man,,,,,"{""Q0"":""kate and jane are shouting at each other""}","<img src=""stim_listB/shout8.gif""style=""height:400px;""></stim_listB>",are shouting at each other,
null,"<div style=""font-size:60px;"">+</div>",,html-keyboard-response,233,1051734,0.0-15.0-0.16,77213,List2B,black,man,,,,null,,,,
null,"<img src=""stim_listB/flirt1.gif""style=""height:400px;""></stim_listB>",,html-keyboard-response,234,1053735,0.0-15.0-1.16,77213,List2B,black,man,,,,null,,,,
null,is flirting with,,html-keyboard-response,235,1055737,0.0-15.0-2.16,77213,List2B,black,man,,,,null,,,,
7603,,,survey-text,236,1063341,0.0-15.0-3.16,77213,List2B,black,man,,,,,"{""Q0"":""luke is flirting with jane""}","<img src=""stim_listB/flirt1.gif""style=""height:400px;""></stim_listB>",is flirting with,
null,"<div style=""font-size:60px;"">+</div>",,html-keyboard-response,237,1063842,0.0-15.0-0.17,77213,List2B,black,man,,,,null,,,,
null,"<img src=""stim_listB/flirt8.gif""style=""height:400px;""></stim_listB>",,html-keyboard-response,238,1065844,0.0-15.0-1.17,77213,List2B,black,man,,,,null,,,,
null,are flirting with each other,,html-keyboard-response,239,1067844,0.0-15.0-2.17,77213,List2B,black,man,,,,null,,,,
14565,,,survey-text,240,1082411,0.0-15.0-3.17,77213,List2B,black,man,,,,,"{""Q0"":""beth and jane are flirting with each other""}","<img src=""stim_listB/flirt8.gif""style=""height:400px;""></stim_listB>",are flirting with each other,
null,"<div style=""font-size:60px;"">+</div>",,html-keyboard-response,241,1082913,0.0-15.0-0.18,77213,List2B,black,man,,,,null,,,,
null,"<img src=""stim_listB/marry6.gif""style=""height:400px;""></stim_listB>",,html-keyboard-response,242,1084915,0.0-15.0-1.18,77213,List2B,black,man,,,,null,,,,
null,are marrying each other,,html-keyboard-response,243,1086916,0.0-15.0-2.18,77213,List2B,black,man,,,,null,,,,
12452,,,survey-text,244,1099369,0.0-15.0-3.18,77213,List2B,black,man,,,,,"{""Q0"":""mike and luke are marrying each other""}","<img src=""stim_listB/marry6.gif""style=""height:400px;""></stim_listB>",are marrying each other,
null,"<div style=""font-size:60px;"">+</div>",,html-keyboard-response,245,1099870,0.0-15.0-0.19,77213,List2B,black,man,,,,null,,,,
null,"<img src=""stim_listB/flirt2.gif""style=""height:400px;""></stim_listB>",,html-keyboard-response,246,1101872,0.0-15.0-1.19,77213,List2B,black,man,,,,null,,,,
null,are flirting with each other,,html-keyboard-response,247,1103873,0.0-15.0-2.19,77213,List2B,black,man,,,,null,,,,
12406,,,survey-text,248,1116279,0.0-15.0-3.19,77213,List2B,black,man,,,,,"{""Q0"":""dave and ruth are flirting with each other""}","<img src=""stim_listB/flirt2.gif""style=""height:400px;""></stim_listB>",are flirting with each other,
2617,"<img src='img/portrait_matrix_list2.jpg' style='width:900px;height:500px;''></img><p>If you have memorised all the portraits and names and are ready to start, press Continue.</p><p><strong>Please note: Your memory of these faces will be tested 4 times during this experiment.</strong></p>",0,html-button-response,249,1118898,0.0-16.0-0.0,77213,List2B,black,man,,,,,,,,
3997,"<img src=""portrait/WM1.jpg""style=""height:400px;""></img>",6,html-button-response,250,1123896,0.0-16.0-1.0,77213,List2B,black,man,,TRUE,6,,,,,
null,CORRECT,,html-keyboard-response,251,1125398,0.0-16.0-2.0-0.0,77213,List2B,black,man,,,,null,,,,
1885,"<img src=""portrait/WW2.jpg""style=""height:400px;""></img>",3,html-button-response,252,1127284,0.0-16.0-4.0,77213,List2B,black,man,,TRUE,3,,,,,
null,CORRECT,,html-keyboard-response,253,1128787,0.0-16.0-5.0-0.0,77213,List2B,black,man,,,,null,,,,
1956,"<img src=""portrait/BW2.jpg""style=""height:400px;""></img>",2,html-button-response,254,1130744,0.0-16.0-7.0,77213,List2B,black,man,,TRUE,2,,,,,
null,CORRECT,,html-keyboard-response,255,1132248,0.0-16.0-8.0-0.0,77213,List2B,black,man,,,,null,,,,
1266,"<img src=""portrait/BM1.jpg""style=""height:400px;""></img>",4,html-button-response,256,1133516,0.0-16.0-10.0,77213,List2B,black,man,,TRUE,4,,,,,
null,CORRECT,,html-keyboard-response,257,1135017,0.0-16.0-11.0-0.0,77213,List2B,black,man,,,,null,,,,
1957,"<img src=""portrait/BW1.jpg""style=""height:400px;""></img>",0,html-button-response,258,1136976,0.0-16.0-13.0,77213,List2B,black,man,,TRUE,0,,,,,
null,CORRECT,,html-keyboard-response,259,1138479,0.0-16.0-14.0-0.0,77213,List2B,black,man,,,,null,,,,
1717,"<img src=""portrait/BM2.jpg""style=""height:400px;""></img>",5,html-button-response,260,1140198,0.0-16.0-16.0,77213,List2B,black,man,,TRUE,5,,,,,
null,CORRECT,,html-keyboard-response,261,1141700,0.0-16.0-17.0-0.0,77213,List2B,black,man,,,,null,,,,
2867,"<img src=""portrait/WM2.jpg""style=""height:400px;""></img>",7,html-button-response,262,1144567,0.0-16.0-19.0,77213,List2B,black,man,,TRUE,7,,,,,
null,CORRECT,,html-keyboard-response,263,1146070,0.0-16.0-20.0-0.0,77213,List2B,black,man,,,,null,,,,
1660,"<img src=""portrait/WW1.jpg""style=""height:400px;""></img>",1,html-button-response,264,1147731,0.0-16.0-22.0,77213,List2B,black,man,,TRUE,1,,,,,
null,CORRECT,,html-keyboard-response,265,1149233,0.0-16.0-23.0-0.0,77213,List2B,black,man,,,,null,,,,
1562,<p>You got 8 out of 8 right first time. Press Continue.</p>,0,html-button-response,266,1150796,0.0-16.0-25.0,77213,List2B,black,man,,,,,,,,
null,"<div style=""font-size:60px;"">+</div>",,html-keyboard-response,267,1152299,0.0-17.0-0.0,77213,List2B,black,man,,,,null,,,,
null,"<img src=""stim_listB/play4.gif""style=""height:400px;""></stim_listB>",,html-keyboard-response,268,1154301,0.0-17.0-1.0,77213,List2B,black,man,,,,null,,,,
null,are playing with each other,,html-keyboard-response,269,1156303,0.0-17.0-2.0,77213,List2B,black,man,,,,null,,,,
12192,,,survey-text,270,1168495,0.0-17.0-3.0,77213,List2B,black,man,,,,,"{""Q0"":""fred and beth are playing with each other""}","<img src=""stim_listB/play4.gif""style=""height:400px;""></stim_listB>",are playing with each other,
null,"<div style=""font-size:60px;"">+</div>",,html-keyboard-response,271,1168996,0.0-17.0-0.1,77213,List2B,black,man,,,,null,,,,
null,"<img src=""stim_listB/talk1.gif""style=""height:400px;""></stim_listB>",,html-keyboard-response,272,1170998,0.0-17.0-1.1,77213,List2B,black,man,,,,null,,,,
null,is talking to,,html-keyboard-response,273,1172999,0.0-17.0-2.1,77213,List2B,black,man,,,,null,,,,
12535,,,survey-text,274,1185536,0.0-17.0-3.1,77213,List2B,black,man,,,,,"{""Q0"":""mike is talking to jane""}","<img src=""stim_listB/talk1.gif""style=""height:400px;""></stim_listB>",is talking to,
null,"<div style=""font-size:60px;"">+</div>",,html-keyboard-response,275,1186037,0.0-17.0-0.2,77213,List2B,black,man,,,,null,,,,
null,"<img src=""stim_listB/touch5.gif""style=""height:400px;""></stim_listB>",,html-keyboard-response,276,1188039,0.0-17.0-1.2,77213,List2B,black,man,,,,null,,,,
null,is touching,,html-keyboard-response,277,1190040,0.0-17.0-2.2,77213,List2B,black,man,,,,null,,,,
10706,,,survey-text,278,1200746,0.0-17.0-3.2,77213,List2B,black,man,,,,,"{""Q0"":""mike is touching dave""}","<img src=""stim_listB/touch5.gif""style=""height:400px;""></stim_listB>",is touching,
null,"<div style=""font-size:60px;"">+</div>",,html-keyboard-response,279,1201248,0.0-17.0-0.3,77213,List2B,black,man,,,,null,,,,
null,"<img src=""stim_listB/fight6.gif""style=""height:400px;""></stim_listB>",,html-keyboard-response,280,1203250,0.0-17.0-1.3,77213,List2B,black,man,,,,null,,,,
null,are fighting each other,,html-keyboard-response,281,1205251,0.0-17.0-2.3,77213,List2B,black,man,,,,null,,,,
12120,,,survey-text,282,1217372,0.0-17.0-3.3,77213,List2B,black,man,,,,,"{""Q0"":""fred and luke are fighting each other""}","<img src=""stim_listB/fight6.gif""style=""height:400px;""></stim_listB>",are fighting each other,
null,"<div style=""font-size:60px;"">+</div>",,html-keyboard-response,283,1217873,0.0-17.0-0.4,77213,List2B,black,man,,,,null,,,,
null,"<img src=""stim_listB/shout7.gif""style=""height:400px;""></stim_listB>",,html-keyboard-response,284,1219874,0.0-17.0-1.4,77213,List2B,black,man,,,,null,,,,
null,is shouting at,,html-keyboard-response,285,1221875,0.0-17.0-2.4,77213,List2B,black,man,,,,null,,,,
7681,,,survey-text,286,1229558,0.0-17.0-3.4,77213,List2B,black,man,,,,,"{""Q0"":""beth is shouting at ruth""}","<img src=""stim_listB/shout7.gif""style=""height:400px;""></stim_listB>",is shouting at,
null,"<div style=""font-size:60px;"">+</div>",,html-keyboard-response,287,1230059,0.0-17.0-0.5,77213,List2B,black,man,,,,null,,,,
null,"<img src=""stim_listB/fight7.gif""style=""height:400px;""></stim_listB>",,html-keyboard-response,288,1232062,0.0-17.0-1.5,77213,List2B,black,man,,,,null,,,,
null,is fighting,,html-keyboard-response,289,1234062,0.0-17.0-2.5,77213,List2B,black,man,,,,null,,,,
9689,,,survey-text,290,1243753,0.0-17.0-3.5,77213,List2B,black,man,,,,,"{""Q0"":""kate is fighting jane""}","<img src=""stim_listB/fight7.gif""style=""height:400px;""></stim_listB>",is fighting,
null,"<div style=""font-size:60px;"">+</div>",,html-keyboard-response,291,1244255,0.0-17.0-0.6,77213,List2B,black,man,,,,null,,,,
null,"<img src=""stim_listB/touch2.gif""style=""height:400px;""></stim_listB>",,html-keyboard-response,292,1246257,0.0-17.0-1.6,77213,List2B,black,man,,,,null,,,,
null,are touching each other,,html-keyboard-response,293,1248258,0.0-17.0-2.6,77213,List2B,black,man,,,,null,,,,
13773,,,survey-text,294,1262033,0.0-17.0-3.6,77213,List2B,black,man,,,,,"{""Q0"":""luke and ruth are touching each other""}","<img src=""stim_listB/touch2.gif""style=""height:400px;""></stim_listB>",are touching each other,
null,"<div style=""font-size:60px;"">+</div>",,html-keyboard-response,295,1262534,0.0-17.0-0.7,77213,List2B,black,man,,,,null,,,,
null,"<img src=""stim_listB/kiss6.gif""style=""height:400px;""></stim_listB>",,html-keyboard-response,296,1264535,0.0-17.0-1.7,77213,List2B,black,man,,,,null,,,,
null,are kissing each other,,html-keyboard-response,297,1266536,0.0-17.0-2.7,77213,List2B,black,man,,,,null,,,,
10665,,,survey-text,298,1277202,0.0-17.0-3.7,77213,List2B,black,man,,,,,"{""Q0"":""mike and dave are kissing each other""}","<img src=""stim_listB/kiss6.gif""style=""height:400px;""></stim_listB>",are kissing each other,
null,"<div style=""font-size:60px;"">+</div>",,html-keyboard-response,299,1277704,0.0-17.0-0.8,77213,List2B,black,man,,,,null,,,,
null,"<img src=""stim_listB/argue7.gif""style=""height:400px;""></stim_listB>",,html-keyboard-response,300,1279706,0.0-17.0-1.8,77213,List2B,black,man,,,,null,,,,
null,is arguing with,,html-keyboard-response,301,1281708,0.0-17.0-2.8,77213,List2B,black,man,,,,null,,,,
9600,,,survey-text,302,1291308,0.0-17.0-3.8,77213,List2B,black,man,,,,,"{""Q0"":""beth is arguing with jane""}","<img src=""stim_listB/argue7.gif""style=""height:400px;""></stim_listB>",is arguing with,
null,"<div style=""font-size:60px;"">+</div>",,html-keyboard-response,303,1291810,0.0-17.0-0.9,77213,List2B,black,man,,,,null,,,,
null,"<img src=""stim_listB/kiss8.gif""style=""height:400px;""></stim_listB>",,html-keyboard-response,304,1293812,0.0-17.0-1.9,77213,List2B,black,man,,,,null,,,,
null,are kissing each other,,html-keyboard-response,305,1295813,0.0-17.0-2.9,77213,List2B,black,man,,,,null,,,,
13894,,,survey-text,306,1309708,0.0-17.0-3.9,77213,List2B,black,man,,,,,"{""Q0"":""kate and jane are kissing each other""}","<img src=""stim_listB/kiss8.gif""style=""height:400px;""></stim_listB>",are kissing each other,
null,"<div style=""font-size:60px;"">+</div>",,html-keyboard-response,307,1310210,0.0-17.0-0.10,77213,List2B,black,man,,,,null,,,,
null,"<img src=""stim_listB/touch4.gif""style=""height:400px;""></stim_listB>",,html-keyboard-response,308,1312212,0.0-17.0-1.10,77213,List2B,black,man,,,,null,,,,
null,are touching each other,,html-keyboard-response,309,1314213,0.0-17.0-2.10,77213,List2B,black,man,,,,null,,,,
12885,,,survey-text,310,1327098,0.0-17.0-3.10,77213,List2B,black,man,,,,,"{""Q0"":""beth and fred are touching each other""}","<img src=""stim_listB/touch4.gif""style=""height:400px;""></stim_listB>",are touching each other,
null,"<div style=""font-size:60px;"">+</div>",,html-keyboard-response,311,1327600,0.0-17.0-0.11,77213,List2B,black,man,,,,null,,,,
null,"<img src=""stim_listB/dance2.gif""style=""height:400px;""></stim_listB>",,html-keyboard-response,312,1329601,0.0-17.0-1.11,77213,List2B,black,man,,,,null,,,,
null,are dancing with each other,,html-keyboard-response,313,1331602,0.0-17.0-2.11,77213,List2B,black,man,,,,null,,,,
13039,,,survey-text,314,1344642,0.0-17.0-3.11,77213,List2B,black,man,,,,,"{""Q0"":""ruth and dave are dancing with each oher""}","<img src=""stim_listB/dance2.gif""style=""height:400px;""></stim_listB>",are dancing with each other,
null,"<div style=""font-size:60px;"">+</div>",,html-keyboard-response,315,1345142,0.0-17.0-0.12,77213,List2B,black,man,,,,null,,,,
null,"<img src=""stim_listB/dance6.gif""style=""height:400px;""></stim_listB>",,html-keyboard-response,316,1347144,0.0-17.0-1.12,77213,List2B,black,man,,,,null,,,,
null,are dancing with each other,,html-keyboard-response,317,1349145,0.0-17.0-2.12,77213,List2B,black,man,,,,null,,,,
13677,,,survey-text,318,1362824,0.0-17.0-3.12,77213,List2B,black,man,,,,,"{""Q0"":""fred and dave are dancing with each other""}","<img src=""stim_listB/dance6.gif""style=""height:400px;""></stim_listB>",are dancing with each other,
null,"<div style=""font-size:60px;"">+</div>",,html-keyboard-response,319,1363325,0.0-17.0-0.13,77213,List2B,black,man,,,,null,,,,
null,"<img src=""stim_listB/kiss2.gif""style=""height:400px;""></stim_listB>",,html-keyboard-response,320,1365327,0.0-17.0-1.13,77213,List2B,black,man,,,,null,,,,
null,are kissing each other,,html-keyboard-response,321,1367328,0.0-17.0-2.13,77213,List2B,black,man,,,,null,,,,
12835,,,survey-text,322,1380163,0.0-17.0-3.13,77213,List2B,black,man,,,,,"{""Q0"":""dave and jane are kissing each other""}","<img src=""stim_listB/kiss2.gif""style=""height:400px;""></stim_listB>",are kissing each other,
null,"<div style=""font-size:60px;"">+</div>",,html-keyboard-response,323,1380666,0.0-17.0-0.14,77213,List2B,black,man,,,,null,,,,
null,"<img src=""stim_listB/touch7.gif""style=""height:400px;""></stim_listB>",,html-keyboard-response,324,1382668,0.0-17.0-1.14,77213,List2B,black,man,,,,null,,,,
null,is touching,,html-keyboard-response,325,1384669,0.0-17.0-2.14,77213,List2B,black,man,,,,null,,,,
8180,,,survey-text,326,1392850,0.0-17.0-3.14,77213,List2B,black,man,,,,,"{""Q0"":""kate is touching jane""}","<img src=""stim_listB/touch7.gif""style=""height:400px;""></stim_listB>",is touching,
null,"<div style=""font-size:60px;"">+</div>",,html-keyboard-response,327,1393351,0.0-17.0-0.15,77213,List2B,black,man,,,,null,,,,
null,"<img src=""stim_listB/kiss5.gif""style=""height:400px;""></stim_listB>",,html-keyboard-response,328,1395353,0.0-17.0-1.15,77213,List2B,black,man,,,,null,,,,
null,is kissing,,html-keyboard-response,329,1397353,0.0-17.0-2.15,77213,List2B,black,man,,,,null,,,,
7081,,,survey-text,330,1404436,0.0-17.0-3.15,77213,List2B,black,man,,,,,"{""Q0"":""luke is kissing fred""}","<img src=""stim_listB/kiss5.gif""style=""height:400px;""></stim_listB>",is kissing,
null,"<div style=""font-size:60px;"">+</div>",,html-keyboard-response,331,1404937,0.0-17.0-0.16,77213,List2B,black,man,,,,null,,,,
null,"<img src=""stim_listB/marry7.gif""style=""height:400px;""></stim_listB>",,html-keyboard-response,332,1406939,0.0-17.0-1.16,77213,List2B,black,man,,,,null,,,,
null,is marrying,,html-keyboard-response,333,1408940,0.0-17.0-2.16,77213,List2B,black,man,,,,null,,,,
6468,,,survey-text,334,1415408,0.0-17.0-3.16,77213,List2B,black,man,,,,,"{""Q0"":""beth is marrying jane""}","<img src=""stim_listB/marry7.gif""style=""height:400px;""></stim_listB>",is marrying,
null,"<div style=""font-size:60px;"">+</div>",,html-keyboard-response,335,1415909,0.0-17.0-0.17,77213,List2B,black,man,,,,null,,,,
null,"<img src=""stim_listB/marry4.gif""style=""height:400px;""></stim_listB>",,html-keyboard-response,336,1417911,0.0-17.0-1.17,77213,List2B,black,man,,,,null,,,,
null,are marrying each other,,html-keyboard-response,337,1419913,0.0-17.0-2.17,77213,List2B,black,man,,,,null,,,,
10748,,,survey-text,338,1430661,0.0-17.0-3.17,77213,List2B,black,man,,,,,"{""Q0"":""fred and kate are marrying each other""}","<img src=""stim_listB/marry4.gif""style=""height:400px;""></stim_listB>",are marrying each other,
null,"<div style=""font-size:60px;"">+</div>",,html-keyboard-response,339,1431163,0.0-17.0-0.18,77213,List2B,black,man,,,,null,,,,
null,"<img src=""stim_listB/flirt5.gif""style=""height:400px;""></stim_listB>",,html-keyboard-response,340,1433165,0.0-17.0-1.18,77213,List2B,black,man,,,,null,,,,
null,is flirting with,,html-keyboard-response,341,1435167,0.0-17.0-2.18,77213,List2B,black,man,,,,null,,,,
8578,,,survey-text,342,1443746,0.0-17.0-3.18,77213,List2B,black,man,,,,,"{""Q0"":""mike is flirting with luke""}","<img src=""stim_listB/flirt5.gif""style=""height:400px;""></stim_listB>",is flirting with,
null,"<div style=""font-size:60px;"">+</div>",,html-keyboard-response,343,1444247,0.0-17.0-0.19,77213,List2B,black,man,,,,null,,,,
null,"<img src=""stim_listB/dance7.gif""style=""height:400px;""></stim_listB>",,html-keyboard-response,344,1446250,0.0-17.0-1.19,77213,List2B,black,man,,,,null,,,,
null,is dancing with,,html-keyboard-response,345,1448250,0.0-17.0-2.19,77213,List2B,black,man,,,,null,,,,
8077,,,survey-text,346,1456328,0.0-17.0-3.19,77213,List2B,black,man,,,,,"{""Q0"":""ruth is dancing with kate""}","<img src=""stim_listB/dance7.gif""style=""height:400px;""></stim_listB>",is dancing with,
3259,"<img src='img/portrait_matrix_list2.jpg' style='width:900px;height:500px;''></img><p>If you have memorised all the portraits and names and are ready to start, press Continue.</p><p><strong>Please note: Your memory of these faces will be tested 4 times during this experiment.</strong></p>",0,html-button-response,347,1459589,0.0-18.0-0.0,77213,List2B,black,man,,,,,,,,
3840,"<img src=""portrait/BW2.jpg""style=""height:400px;""></img>",2,html-button-response,348,1464432,0.0-18.0-1.0,77213,List2B,black,man,,TRUE,2,,,,,
null,CORRECT,,html-keyboard-response,349,1465935,0.0-18.0-2.0-0.0,77213,List2B,black,man,,,,null,,,,
2121,"<img src=""portrait/WM2.jpg""style=""height:400px;""></img>",7,html-button-response,350,1468057,0.0-18.0-4.0,77213,List2B,black,man,,TRUE,7,,,,,
null,CORRECT,,html-keyboard-response,351,1469559,0.0-18.0-5.0-0.0,77213,List2B,black,man,,,,null,,,,
2228,"<img src=""portrait/BM2.jpg""style=""height:400px;""></img>",5,html-button-response,352,1471788,0.0-18.0-7.0,77213,List2B,black,man,,TRUE,5,,,,,
null,CORRECT,,html-keyboard-response,353,1473291,0.0-18.0-8.0-0.0,77213,List2B,black,man,,,,null,,,,
1549,"<img src=""portrait/WW2.jpg""style=""height:400px;""></img>",3,html-button-response,354,1474841,0.0-18.0-10.0,77213,List2B,black,man,,TRUE,3,,,,,
null,CORRECT,,html-keyboard-response,355,1476343,0.0-18.0-11.0-0.0,77213,List2B,black,man,,,,null,,,,
1741,"<img src=""portrait/WM1.jpg""style=""height:400px;""></img>",6,html-button-response,356,1478086,0.0-18.0-13.0,77213,List2B,black,man,,TRUE,6,,,,,
null,CORRECT,,html-keyboard-response,357,1479589,0.0-18.0-14.0-0.0,77213,List2B,black,man,,,,null,,,,
1855,"<img src=""portrait/WW1.jpg""style=""height:400px;""></img>",1,html-button-response,358,1481445,0.0-18.0-16.0,77213,List2B,black,man,,TRUE,1,,,,,
null,CORRECT,,html-keyboard-response,359,1482947,0.0-18.0-17.0-0.0,77213,List2B,black,man,,,,null,,,,
1810,"<img src=""portrait/BW1.jpg""style=""height:400px;""></img>",0,html-button-response,360,1484758,0.0-18.0-19.0,77213,List2B,black,man,,TRUE,0,,,,,
null,CORRECT,,html-keyboard-response,361,1486261,0.0-18.0-20.0-0.0,77213,List2B,black,man,,,,null,,,,
1698,"<img src=""portrait/BM1.jpg""style=""height:400px;""></img>",4,html-button-response,362,1487960,0.0-18.0-22.0,77213,List2B,black,man,,TRUE,4,,,,,
null,CORRECT,,html-keyboard-response,363,1489464,0.0-18.0-23.0-0.0,77213,List2B,black,man,,,,null,,,,
1413,<p>You got 8 out of 8 right first time. Press Continue.</p>,0,html-button-response,364,1490878,0.0-18.0-25.0,77213,List2B,black,man,,,,,,,,
null,"<div style=""font-size:60px;"">+</div>",,html-keyboard-response,365,1492381,0.0-19.0-0.0,77213,List2B,black,man,,,,null,,,,
null,"<img src=""stim_listB/touch1.gif""style=""height:400px;""></stim_listB>",,html-keyboard-response,366,1494382,0.0-19.0-1.0,77213,List2B,black,man,,,,null,,,,
null,is touching,,html-keyboard-response,367,1496383,0.0-19.0-2.0,77213,List2B,black,man,,,,null,,,,
12547,,,survey-text,368,1508932,0.0-19.0-3.0,77213,List2B,black,man,,,,,"{""Q0"":""jane is touching dave""}","<img src=""stim_listB/touch1.gif""style=""height:400px;""></stim_listB>",is touching,
null,"<div style=""font-size:60px;"">+</div>",,html-keyboard-response,369,1509433,0.0-19.0-0.1,77213,List2B,black,man,,,,null,,,,
null,"<img src=""stim_listB/fight3.gif""style=""height:400px;""></stim_listB>",,html-keyboard-response,370,1511434,0.0-19.0-1.1,77213,List2B,black,man,,,,null,,,,
null,is fighting,,html-keyboard-response,371,1513435,0.0-19.0-2.1,77213,List2B,black,man,,,,null,,,,
8447,,,survey-text,372,1521883,0.0-19.0-3.1,77213,List2B,black,man,,,,,"{""Q0"":""mike is fighting kate""}","<img src=""stim_listB/fight3.gif""style=""height:400px;""></stim_listB>",is fighting,
null,"<div style=""font-size:60px;"">+</div>",,html-keyboard-response,373,1522384,0.0-19.0-0.2,77213,List2B,black,man,,,,null,,,,
null,"<img src=""stim_listB/talk4.gif""style=""height:400px;""></stim_listB>",,html-keyboard-response,374,1524386,0.0-19.0-1.2,77213,List2B,black,man,,,,null,,,,
null,are talking to each other,,html-keyboard-response,375,1526388,0.0-19.0-2.2,77213,List2B,black,man,,,,null,,,,
11591,,,survey-text,376,1537979,0.0-19.0-3.2,77213,List2B,black,man,,,,,"{""Q0"":""mike and beth are talking with each other""}","<img src=""stim_listB/talk4.gif""style=""height:400px;""></stim_listB>",are talking to each other,
null,"<div style=""font-size:60px;"">+</div>",,html-keyboard-response,377,1538480,0.0-19.0-0.3,77213,List2B,black,man,,,,null,,,,
null,"<img src=""stim_listB/dance1.gif""style=""height:400px;""></stim_listB>",,html-keyboard-response,378,1540482,0.0-19.0-1.3,77213,List2B,black,man,,,,null,,,,
null,is dancing with,,html-keyboard-response,379,1542484,0.0-19.0-2.3,77213,List2B,black,man,,,,null,,,,
7124,,,survey-text,380,1549608,0.0-19.0-3.3,77213,List2B,black,man,,,,,"{""Q0"":""luke is dancing jane""}","<img src=""stim_listB/dance1.gif""style=""height:400px;""></stim_listB>",is dancing with,
null,"<div style=""font-size:60px;"">+</div>",,html-keyboard-response,381,1550111,0.0-19.0-0.4,77213,List2B,black,man,,,,null,,,,
null,"<img src=""stim_listB/marry5.gif""style=""height:400px;""></stim_listB>",,html-keyboard-response,382,1552113,0.0-19.0-1.4,77213,List2B,black,man,,,,null,,,,
null,is marrying,,html-keyboard-response,383,1554114,0.0-19.0-2.4,77213,List2B,black,man,,,,null,,,,
7049,,,survey-text,384,1561164,0.0-19.0-3.4,77213,List2B,black,man,,,,,"{""Q0"":""dave is marrying fred""}","<img src=""stim_listB/marry5.gif""style=""height:400px;""></stim_listB>",is marrying,
null,"<div style=""font-size:60px;"">+</div>",,html-keyboard-response,385,1561666,0.0-19.0-0.5,77213,List2B,black,man,,,,null,,,,
null,"<img src=""stim_listB/play3.gif""style=""height:400px;""></stim_listB>",,html-keyboard-response,386,1563668,0.0-19.0-1.5,77213,List2B,black,man,,,,null,,,,
null,is playing with,,html-keyboard-response,387,1565670,0.0-19.0-2.5,77213,List2B,black,man,,,,null,,,,
9584,,,survey-text,388,1575255,0.0-19.0-3.5,77213,List2B,black,man,,,,,"{""Q0"":""kate is playing with mike""}","<img src=""stim_listB/play3.gif""style=""height:400px;""></stim_listB>",is playing with,
null,"<div style=""font-size:60px;"">+</div>",,html-keyboard-response,389,1575756,0.0-19.0-0.6,77213,List2B,black,man,,,,null,,,,
null,"<img src=""stim_listB/play8.gif""style=""height:400px;""></stim_listB>",,html-keyboard-response,390,1577758,0.0-19.0-1.6,77213,List2B,black,man,,,,null,,,,
null,are playing with each other,,html-keyboard-response,391,1579759,0.0-19.0-2.6,77213,List2B,black,man,,,,null,,,,
11523,,,survey-text,392,1591283,0.0-19.0-3.6,77213,List2B,black,man,,,,,"{""Q0"":""beth and ruth are playing with each other""}","<img src=""stim_listB/play8.gif""style=""height:400px;""></stim_listB>",are playing with each other,
null,"<div style=""font-size:60px;"">+</div>",,html-keyboard-response,393,1591785,0.0-19.0-0.7,77213,List2B,black,man,,,,null,,,,
null,"<img src=""stim_listB/touch6.gif""style=""height:400px;""></stim_listB>",,html-keyboard-response,394,1593788,0.0-19.0-1.7,77213,List2B,black,man,,,,null,,,,
null,are touching each other,,html-keyboard-response,395,1595789,0.0-19.0-2.7,77213,List2B,black,man,,,,null,,,,
11735,,,survey-text,396,1607525,0.0-19.0-3.7,77213,List2B,black,man,,,,,"{""Q0"":""fred and luke are touching each other""}","<img src=""stim_listB/touch6.gif""style=""height:400px;""></stim_listB>",are touching each other,
null,"<div style=""font-size:60px;"">+</div>",,html-keyboard-response,397,1608027,0.0-19.0-0.8,77213,List2B,black,man,,,,null,,,,
null,"<img src=""stim_listB/argue5.gif""style=""height:400px;""></stim_listB>",,html-keyboard-response,398,1610028,0.0-19.0-1.8,77213,List2B,black,man,,,,null,,,,
null,is arguing with,,html-keyboard-response,399,1612030,0.0-19.0-2.8,77213,List2B,black,man,,,,null,,,,
17062,,,survey-text,400,1629094,0.0-19.0-3.8,77213,List2B,black,man,,,,,"{""Q0"":""fred is arguing with dave""}","<img src=""stim_listB/argue5.gif""style=""height:400px;""></stim_listB>",is arguing with,
null,"<div style=""font-size:60px;"">+</div>",,html-keyboard-response,401,1629596,0.0-19.0-0.9,77213,List2B,black,man,,,,null,,,,
null,"<img src=""stim_listB/play6.gif""style=""height:400px;""></stim_listB>",,html-keyboard-response,402,1631598,0.0-19.0-1.9,77213,List2B,black,man,,,,null,,,,
null,are playing with each other,,html-keyboard-response,403,1633601,0.0-19.0-2.9,77213,List2B,black,man,,,,null,,,,
11647,,,survey-text,404,1645249,0.0-19.0-3.9,77213,List2B,black,man,,,,,"{""Q0"":""fred and luke are playing with each other""}","<img src=""stim_listB/play6.gif""style=""height:400px;""></stim_listB>",are playing with each other,
null,"<div style=""font-size:60px;"">+</div>",,html-keyboard-response,405,1645751,0.0-19.0-0.10,77213,List2B,black,man,,,,null,,,,
null,"<img src=""stim_listB/talk2.gif""style=""height:400px;""></stim_listB>",,html-keyboard-response,406,1647753,0.0-19.0-1.10,77213,List2B,black,man,,,,null,,,,
null,are talking to each other,,html-keyboard-response,407,1649754,0.0-19.0-2.10,77213,List2B,black,man,,,,null,,,,
12816,,,survey-text,408,1662571,0.0-19.0-3.10,77213,List2B,black,man,,,,,"{""Q0"":""ruth and dave are talking to each other""}","<img src=""stim_listB/talk2.gif""style=""height:400px;""></stim_listB>",are talking to each other,
null,"<div style=""font-size:60px;"">+</div>",,html-keyboard-response,409,1663074,0.0-19.0-0.11,77213,List2B,black,man,,,,null,,,,
null,"<img src=""stim_listB/argue2.gif""style=""height:400px;""></stim_listB>",,html-keyboard-response,410,1665076,0.0-19.0-1.11,77213,List2B,black,man,,,,null,,,,
null,are arguing with each other,,html-keyboard-response,411,1667077,0.0-19.0-2.11,77213,List2B,black,man,,,,null,,,,
15538,,,survey-text,412,1682616,0.0-19.0-3.11,77213,List2B,black,man,,,,,"{""Q0"":""luke and jane are arguing with each other""}","<img src=""stim_listB/argue2.gif""style=""height:400px;""></stim_listB>",are arguing with each other,
null,"<div style=""font-size:60px;"">+</div>",,html-keyboard-response,413,1683118,0.0-19.0-0.12,77213,List2B,black,man,,,,null,,,,
null,"<img src=""stim_listB/fight8.gif""style=""height:400px;""></stim_listB>",,html-keyboard-response,414,1685121,0.0-19.0-1.12,77213,List2B,black,man,,,,null,,,,
null,are fighting each other,,html-keyboard-response,415,1687121,0.0-19.0-2.12,77213,List2B,black,man,,,,null,,,,
18594,,,survey-text,416,1705715,0.0-19.0-3.12,77213,List2B,black,man,,,,,"{""Q0"":""ruth and beth are fighting with each other""}","<img src=""stim_listB/fight8.gif""style=""height:400px;""></stim_listB>",are fighting each other,
null,"<div style=""font-size:60px;"">+</div>",,html-keyboard-response,417,1706216,0.0-19.0-0.13,77213,List2B,black,man,,,,null,,,,
null,"<img src=""stim_listB/talk7.gif""style=""height:400px;""></stim_listB>",,html-keyboard-response,418,1708218,0.0-19.0-1.13,77213,List2B,black,man,,,,null,,,,
null,is talking to,,html-keyboard-response,419,1710219,0.0-19.0-2.13,77213,List2B,black,man,,,,null,,,,
11807,,,survey-text,420,1722028,0.0-19.0-3.13,77213,List2B,black,man,,,,,"{""Q0"":""ruth is talking to kate""}","<img src=""stim_listB/talk7.gif""style=""height:400px;""></stim_listB>",is talking to,
null,"<div style=""font-size:60px;"">+</div>",,html-keyboard-response,421,1722529,0.0-19.0-0.14,77213,List2B,black,man,,,,null,,,,
null,"<img src=""stim_listB/talk6.gif""style=""height:400px;""></stim_listB>",,html-keyboard-response,422,1724531,0.0-19.0-1.14,77213,List2B,black,man,,,,null,,,,
null,are talking to each other,,html-keyboard-response,423,1726532,0.0-19.0-2.14,77213,List2B,black,man,,,,null,,,,
14191,,,survey-text,424,1740725,0.0-19.0-3.14,77213,List2B,black,man,,,,,"{""Q0"":""fred and dave are talking to each other""}","<img src=""stim_listB/talk6.gif""style=""height:400px;""></stim_listB>",are talking to each other,
null,"<div style=""font-size:60px;"">+</div>",,html-keyboard-response,425,1741226,0.0-19.0-0.15,77213,List2B,black,man,,,,null,,,,
null,"<img src=""stim_listB/fight5.gif""style=""height:400px;""></stim_listB>",,html-keyboard-response,426,1743228,0.0-19.0-1.15,77213,List2B,black,man,,,,null,,,,
null,is fighting,,html-keyboard-response,427,1745229,0.0-19.0-2.15,77213,List2B,black,man,,,,null,,,,
12172,,,survey-text,428,1757402,0.0-19.0-3.15,77213,List2B,black,man,,,,,"{""Q0"":""dave is fighting mike""}","<img src=""stim_listB/fight5.gif""style=""height:400px;""></stim_listB>",is fighting,
null,"<div style=""font-size:60px;"">+</div>",,html-keyboard-response,429,1757904,0.0-19.0-0.16,77213,List2B,black,man,,,,null,,,,
null,"<img src=""stim_listB/fight1.gif""style=""height:400px;""></stim_listB>",,html-keyboard-response,430,1759905,0.0-19.0-1.16,77213,List2B,black,man,,,,null,,,,
null,is fighting,,html-keyboard-response,431,1761907,0.0-19.0-2.16,77213,List2B,black,man,,,,null,,,,
17483,,,survey-text,432,1779390,0.0-19.0-3.16,77213,List2B,black,man,,,,,"{""Q0"":""jane is fighting  dave ""}","<img src=""stim_listB/fight1.gif""style=""height:400px;""></stim_listB>",is fighting,
null,"<div style=""font-size:60px;"">+</div>",,html-keyboard-response,433,1779892,0.0-19.0-0.17,77213,List2B,black,man,,,,null,,,,
null,"<img src=""stim_listB/flirt4.gif""style=""height:400px;""></stim_listB>",,html-keyboard-response,434,1781894,0.0-19.0-1.17,77213,List2B,black,man,,,,null,,,,
null,are flirting with each other,,html-keyboard-response,435,1783895,0.0-19.0-2.17,77213,List2B,black,man,,,,null,,,,
16876,,,survey-text,436,1800772,0.0-19.0-3.17,77213,List2B,black,man,,,,,"{""Q0"":""mike and beth are flirting with each other""}","<img src=""stim_listB/flirt4.gif""style=""height:400px;""></stim_listB>",are flirting with each other,
null,"<div style=""font-size:60px;"">+</div>",,html-keyboard-response,437,1801274,0.0-19.0-0.18,77213,List2B,black,man,,,,null,,,,
null,"<img src=""stim_listB/shout3.gif""style=""height:400px;""></stim_listB>",,html-keyboard-response,438,1803276,0.0-19.0-1.18,77213,List2B,black,man,,,,null,,,,
null,is shouting at,,html-keyboard-response,439,1805276,0.0-19.0-2.18,77213,List2B,black,man,,,,null,,,,
12572,,,survey-text,440,1817850,0.0-19.0-3.18,77213,List2B,black,man,,,,,"{""Q0"":""beth is shouting at fred""}","<img src=""stim_listB/shout3.gif""style=""height:400px;""></stim_listB>",is shouting at,
null,"<div style=""font-size:60px;"">+</div>",,html-keyboard-response,441,1818353,0.0-19.0-0.19,77213,List2B,black,man,,,,null,,,,
null,"<img src=""stim_listB/kiss3.gif""style=""height:400px;""></stim_listB>",,html-keyboard-response,442,1820354,0.0-19.0-1.19,77213,List2B,black,man,,,,null,,,,
null,is kissing,,html-keyboard-response,443,1822355,0.0-19.0-2.19,77213,List2B,black,man,,,,null,,,,
8278,,,survey-text,444,1830635,0.0-19.0-3.19,77213,List2B,black,man,,,,,"{""Q0"":""beth is kissing fred""}","<img src=""stim_listB/kiss3.gif""style=""height:400px;""></stim_listB>",is kissing,
2358,<p>Thank you for completing that task.</p><p>The final part of this session is a short questionnaire.</p><p>Press Continue.</p>,0,html-button-response,445,1832993,0.0-20.0,77213,List2B,black,man,,,,,,,,
37690,,,survey-text,446,1871685,0.0-21.0,77213,List2B,black,man,,,,,"{""Q0"":""23"",""Q1"":""English"",""Q2"":""English"",""Q3"":""U.S.A"",""Q4"":""Black"",""Q5"":""Male""}",,,demographics
7826,,,survey-likert,447,1879513,0.0-22.0,77213,List2B,black,man,,,,,"{""Q0"":4}",,,likert_ESS
6763,,,survey-likert,448,1886280,0.0-23.0,77213,List2B,black,man,,,,,"{""Q0"":4}",,,likert_NSSAL_Q1
5783,,,survey-likert,449,1892067,0.0-24.0,77213,List2B,black,man,,,,,"{""Q0"":4}",,,likert_NSSAL_Q2
4192,,,survey-likert,450,1896262,0.0-25.0,77213,List2B,black,man,,,,,"{""Q0"":4}",,,likert_CGRS_Q1
3073,,,survey-likert,451,1899339,0.0-26.0,77213,List2B,black,man,,,,,"{""Q0"":4}",,,likert_CGRS_Q2
5129,,,survey-likert,452,1904471,0.0-27.0,77213,List2B,black,man,,,,,"{""Q0"":4}",,,likert_CGRS_Q3
10076,,,survey-text,453,1914552,0.0-28.0,77213,List2B,black,man,,,,,"{""Q0"":""ccc""}",,,worker_id
31999,,,external-html,454,1946760,0.0-29.0,77213,List2B,black,man,debrief.html,,,,,,,
