rt,stimulus,button_pressed,trial_type,trial_index,time_elapsed,internal_node_id,subject,list,ppt_race,ppt_gender,url,first_guess,correct,key_press,responses,image_type,phrase_type,test_part
43347,Welcome to the experiment. Press Continue to begin.,0,html-button-response,0,43352,0.0-0.0,77270,List1B,black,man,,,,,,,,
296054,,,external-html,1,340501,0.0-1.0,77270,List1B,black,man,consent.html,,,,,,,
30179,"<p>On the next page, you will see portraits of 8 people and their names.</p><p>Your first task is to take a few minutes to memorise the names of these people.</p><p>You will have to recall their names during the rest of the experiment, so it is</p><p>essential that you try to memorise these people and their names as best as you can.</p><br><p><strong>You will then be tested on your memory of these names and portraits.</strong></p><br><p>The experiment will start after you have completed this memory test.</p><br><p>Ready?</p>",0,html-button-response,2,370682,0.0-2.0,77270,List1B,black,man,,,,,,,,
79156,"<img src='img/portrait_matrix_list1.jpg' style='width:900px;height:500px;''></img><p>If you have memorised all the portraits and names and are ready to start, press Continue.</p><p><strong>Please note: Your memory of these faces will be tested 4 times during this experiment.</strong></p>",0,html-button-response,3,450844,0.0-3.0-0.0,77270,List1B,black,man,,,,,,,,
5253,"<img src=""portrait/BW2.jpg""style=""height:400px;""></img>",2,html-button-response,4,457103,0.0-3.0-1.0,77270,List1B,black,man,,TRUE,2,,,,,
null,CORRECT,,html-keyboard-response,5,458635,0.0-3.0-2.0-0.0,77270,List1B,black,man,,,,null,,,,
4152,"<img src=""portrait/BM1.jpg""style=""height:400px;""></img>",4,html-button-response,6,462790,0.0-3.0-4.0,77270,List1B,black,man,,TRUE,4,,,,,
null,CORRECT,,html-keyboard-response,7,464313,0.0-3.0-5.0-0.0,77270,List1B,black,man,,,,null,,,,
4376,"<img src=""portrait/BM2.jpg""style=""height:400px;""></img>",5,html-button-response,8,468691,0.0-3.0-7.0,77270,List1B,black,man,,TRUE,5,,,,,
null,CORRECT,,html-keyboard-response,9,470199,0.0-3.0-8.0-0.0,77270,List1B,black,man,,,,null,,,,
5238,"<img src=""portrait/WW1.jpg""style=""height:400px;""></img>",1,html-button-response,10,475440,0.0-3.0-10.0,77270,List1B,black,man,,TRUE,1,,,,,
null,CORRECT,,html-keyboard-response,11,476948,0.0-3.0-11.0-0.0,77270,List1B,black,man,,,,null,,,,
3031,"<img src=""portrait/WW2.jpg""style=""height:400px;""></img>",3,html-button-response,12,479981,0.0-3.0-13.0,77270,List1B,black,man,,TRUE,3,,,,,
null,CORRECT,,html-keyboard-response,13,481487,0.0-3.0-14.0-0.0,77270,List1B,black,man,,,,null,,,,
3990,"<img src=""portrait/WM2.jpg""style=""height:400px;""></img>",7,html-button-response,14,485479,0.0-3.0-16.0,77270,List1B,black,man,,TRUE,7,,,,,
null,CORRECT,,html-keyboard-response,15,486987,0.0-3.0-17.0-0.0,77270,List1B,black,man,,,,null,,,,
5533,"<img src=""portrait/WM1.jpg""style=""height:400px;""></img>",6,html-button-response,16,492522,0.0-3.0-19.0,77270,List1B,black,man,,TRUE,6,,,,,
null,CORRECT,,html-keyboard-response,17,494043,0.0-3.0-20.0-0.0,77270,List1B,black,man,,,,null,,,,
4959,"<img src=""portrait/BW1.jpg""style=""height:400px;""></img>",0,html-button-response,18,499004,0.0-3.0-22.0,77270,List1B,black,man,,TRUE,0,,,,,
null,CORRECT,,html-keyboard-response,19,500524,0.0-3.0-23.0-0.0,77270,List1B,black,man,,,,null,,,,
2438,<p>You got 8 out of 8 right first time. Press Continue.</p>,0,html-button-response,20,502964,0.0-3.0-25.0,77270,List1B,black,man,,,,,,,,
127486,"<p>In this experiment, you will view photographs of the people from the memory game interacting.</p><p>By using the <strong>exact</strong> phrase given <i>after</i> the photograph appears and recalling the correct names of the people in the photographs, form a sentence describing the interaction. You do not need to capitalise names.</p><p>Type your answer in the space provided. Please complete every sentence before moving onto the next trial.</p><p>You will only have a few seconds to memorise each given photograph and phrase before you can respond, so try your best to focus.</p><p>An example is given below. Press 'Continue' when you are ready.</p><img src='img/speaking_example.jpg' style='width:800px;height:460px;''></img>",0,html-button-response,21,631455,0.0-4.0,77270,List1B,black,man,,,,,,,,
2554,"<p>Before the experiment starts, you will watch two example trials. Press 'Continue'.</p>",0,html-button-response,22,635022,0.0-5.0,77270,List1B,black,man,,,,,,,,
null,<img src='img/meet_eg.gif' style='height:400px;''></img>,,html-keyboard-response,23,638028,0.0-6.0,77270,List1B,black,man,,,,null,,,,
null,<p>is meeting</p>,,html-keyboard-response,24,640033,0.0-7.0,77270,List1B,black,man,,,,null,,,,
6256,<p><b>Answer:</b> kate is meeting beth</p>,0,html-button-response,25,646290,0.0-8.0,77270,List1B,black,man,,,,,,,,
null,<img src='img/look_eg.gif' style='height:400px;''></img>,,html-keyboard-response,26,649297,0.0-9.0,77270,List1B,black,man,,,,null,,,,
null,<p>are looking at each other</p>,,html-keyboard-response,27,651299,0.0-10.0,77270,List1B,black,man,,,,null,,,,
11925,<p><b>Answer:</b> luke and dave are looking at each other</p>,0,html-button-response,28,663226,0.0-11.0,77270,List1B,black,man,,,,,,,,
36882,"<p>Ready to start the experiment?</p><br><p><strong>Remember to describe the picture using a full sentence,</strong></p><p><strong>that combines the names of the people with the <i>exact</i> phrase given.</strong></p><p><strong>To receive full payment you must do this correctly.</strong></p><p><strong> You do not need to capitalise names or use punctuation.</strong></p><br><p>Press 'Continue' to begin.</p>",0,html-button-response,29,701111,0.0-12.0,77270,List1B,black,man,,,,,,,,
null,"<div style=""font-size:60px;"">+</div>",,html-keyboard-response,30,702640,0.0-13.0-0.0,77270,List1B,black,man,,,,null,,,,
null,"<img src=""stim_listB/fight6.gif""style=""height:400px;""></stim_listB>",,html-keyboard-response,31,704643,0.0-13.0-1.0,77270,List1B,black,man,,,,null,,,,
null,are fighting each other,,html-keyboard-response,32,706646,0.0-13.0-2.0,77270,List1B,black,man,,,,null,,,,
21818,,,survey-text,33,728466,0.0-13.0-3.0,77270,List1B,black,man,,,,,"{""Q0"":""fred and luke are fighting each other.""}","<img src=""stim_listB/fight6.gif""style=""height:400px;""></stim_listB>",are fighting each other,
null,"<div style=""font-size:60px;"">+</div>",,html-keyboard-response,34,728969,0.0-13.0-0.1,77270,List1B,black,man,,,,null,,,,
null,"<img src=""stim_listB/marry2.gif""style=""height:400px;""></stim_listB>",,html-keyboard-response,35,730975,0.0-13.0-1.1,77270,List1B,black,man,,,,null,,,,
null,are marrying each other,,html-keyboard-response,36,732980,0.0-13.0-2.1,77270,List1B,black,man,,,,null,,,,
26490,,,survey-text,37,759471,0.0-13.0-3.1,77270,List1B,black,man,,,,,"{""Q0"":""fred and kate are marrying each other.""}","<img src=""stim_listB/marry2.gif""style=""height:400px;""></stim_listB>",are marrying each other,
null,"<div style=""font-size:60px;"">+</div>",,html-keyboard-response,38,759973,0.0-13.0-0.2,77270,List1B,black,man,,,,null,,,,
null,"<img src=""stim_listB/kiss7.gif""style=""height:400px;""></stim_listB>",,html-keyboard-response,39,761975,0.0-13.0-1.2,77270,List1B,black,man,,,,null,,,,
null,is kissing,,html-keyboard-response,40,763979,0.0-13.0-2.2,77270,List1B,black,man,,,,null,,,,
35116,,,survey-text,41,799096,0.0-13.0-3.2,77270,List1B,black,man,,,,,"{""Q0"":""ruth is kissing beth.""}","<img src=""stim_listB/kiss7.gif""style=""height:400px;""></stim_listB>",is kissing,
null,"<div style=""font-size:60px;"">+</div>",,html-keyboard-response,42,799599,0.0-13.0-0.3,77270,List1B,black,man,,,,null,,,,
null,"<img src=""stim_listB/flirt4.gif""style=""height:400px;""></stim_listB>",,html-keyboard-response,43,801603,0.0-13.0-1.3,77270,List1B,black,man,,,,null,,,,
null,are flirting with each other,,html-keyboard-response,44,803607,0.0-13.0-2.3,77270,List1B,black,man,,,,null,,,,
35385,,,survey-text,45,838993,0.0-13.0-3.3,77270,List1B,black,man,,,,,"{""Q0"":""dave and jane are flirting with each other.""}","<img src=""stim_listB/flirt4.gif""style=""height:400px;""></stim_listB>",are flirting with each other,
null,"<div style=""font-size:60px;"">+</div>",,html-keyboard-response,46,839519,0.0-13.0-0.4,77270,List1B,black,man,,,,null,,,,
null,"<img src=""stim_listB/talk2.gif""style=""height:400px;""></stim_listB>",,html-keyboard-response,47,841523,0.0-13.0-1.4,77270,List1B,black,man,,,,null,,,,
null,are talking to each other,,html-keyboard-response,48,843533,0.0-13.0-2.4,77270,List1B,black,man,,,,null,,,,
28423,,,survey-text,49,871958,0.0-13.0-3.4,77270,List1B,black,man,,,,,"{""Q0"":""mike and beth are talking to each other.""}","<img src=""stim_listB/talk2.gif""style=""height:400px;""></stim_listB>",are talking to each other,
null,"<div style=""font-size:60px;"">+</div>",,html-keyboard-response,50,872465,0.0-13.0-0.5,77270,List1B,black,man,,,,null,,,,
null,"<img src=""stim_listB/touch4.gif""style=""height:400px;""></stim_listB>",,html-keyboard-response,51,874471,0.0-13.0-1.5,77270,List1B,black,man,,,,null,,,,
null,are touching each other,,html-keyboard-response,52,876478,0.0-13.0-2.5,77270,List1B,black,man,,,,null,,,,
39439,,,survey-text,53,915918,0.0-13.0-3.5,77270,List1B,black,man,,,,,"{""Q0"":""ruth and luke are touching each other.""}","<img src=""stim_listB/touch4.gif""style=""height:400px;""></stim_listB>",are touching each other,
null,"<div style=""font-size:60px;"">+</div>",,html-keyboard-response,54,916435,0.0-13.0-0.6,77270,List1B,black,man,,,,null,,,,
null,"<img src=""stim_listB/dance8.gif""style=""height:400px;""></stim_listB>",,html-keyboard-response,55,918445,0.0-13.0-1.6,77270,List1B,black,man,,,,null,,,,
null,are dancing with each other,,html-keyboard-response,56,920463,0.0-13.0-2.6,77270,List1B,black,man,,,,null,,,,
38063,,,survey-text,57,958527,0.0-13.0-3.6,77270,List1B,black,man,,,,,"{""Q0"":""ruth and kate are dancing with each other.""}","<img src=""stim_listB/dance8.gif""style=""height:400px;""></stim_listB>",are dancing with each other,
null,"<div style=""font-size:60px;"">+</div>",,html-keyboard-response,58,959031,0.0-13.0-0.7,77270,List1B,black,man,,,,null,,,,
null,"<img src=""stim_listB/argue3.gif""style=""height:400px;""></stim_listB>",,html-keyboard-response,59,961035,0.0-13.0-1.7,77270,List1B,black,man,,,,null,,,,
null,is arguing with,,html-keyboard-response,60,963040,0.0-13.0-2.7,77270,List1B,black,man,,,,null,,,,
58161,,,survey-text,61,1021203,0.0-13.0-3.7,77270,List1B,black,man,,,,,"{""Q0"":""dave is arguing with ruth.""}","<img src=""stim_listB/argue3.gif""style=""height:400px;""></stim_listB>",is arguing with,
null,"<div style=""font-size:60px;"">+</div>",,html-keyboard-response,62,1021708,0.0-13.0-0.8,77270,List1B,black,man,,,,null,,,,
null,"<img src=""stim_listB/shout6.gif""style=""height:400px;""></stim_listB>",,html-keyboard-response,63,1023712,0.0-13.0-1.8,77270,List1B,black,man,,,,null,,,,
null,are shouting at each other,,html-keyboard-response,64,1025725,0.0-13.0-2.8,77270,List1B,black,man,,,,null,,,,
34321,,,survey-text,65,1060047,0.0-13.0-3.8,77270,List1B,black,man,,,,,"{""Q0"":""mike and dave are shouting at each other.""}","<img src=""stim_listB/shout6.gif""style=""height:400px;""></stim_listB>",are shouting at each other,
null,"<div style=""font-size:60px;"">+</div>",,html-keyboard-response,66,1060552,0.0-13.0-0.9,77270,List1B,black,man,,,,null,,,,
null,"<img src=""stim_listB/kiss2.gif""style=""height:400px;""></stim_listB>",,html-keyboard-response,67,1062557,0.0-13.0-1.9,77270,List1B,black,man,,,,null,,,,
null,are kissing each other,,html-keyboard-response,68,1064567,0.0-13.0-2.9,77270,List1B,black,man,,,,null,,,,
48716,,,survey-text,69,1113284,0.0-13.0-3.9,77270,List1B,black,man,,,,,"{""Q0"":""mike and kate are kissing each other.""}","<img src=""stim_listB/kiss2.gif""style=""height:400px;""></stim_listB>",are kissing each other,
null,"<div style=""font-size:60px;"">+</div>",,html-keyboard-response,70,1113796,0.0-13.0-0.10,77270,List1B,black,man,,,,null,,,,
null,"<img src=""stim_listB/dance5.gif""style=""height:400px;""></stim_listB>",,html-keyboard-response,71,1115800,0.0-13.0-1.10,77270,List1B,black,man,,,,null,,,,
null,is dancing with,,html-keyboard-response,72,1117802,0.0-13.0-2.10,77270,List1B,black,man,,,,null,,,,
23411,,,survey-text,73,1141215,0.0-13.0-3.10,77270,List1B,black,man,,,,,"{""Q0"":""fred is dancing with dave.""}","<img src=""stim_listB/dance5.gif""style=""height:400px;""></stim_listB>",is dancing with,
null,"<div style=""font-size:60px;"">+</div>",,html-keyboard-response,74,1141727,0.0-13.0-0.11,77270,List1B,black,man,,,,null,,,,
null,"<img src=""stim_listB/kiss4.gif""style=""height:400px;""></stim_listB>",,html-keyboard-response,75,1143730,0.0-13.0-1.11,77270,List1B,black,man,,,,null,,,,
null,are kissing each other,,html-keyboard-response,76,1145734,0.0-13.0-2.11,77270,List1B,black,man,,,,null,,,,
19993,,,survey-text,77,1165728,0.0-13.0-3.11,77270,List1B,black,man,,,,,"{""Q0"":""dave and jane are kissing each other.""}","<img src=""stim_listB/kiss4.gif""style=""height:400px;""></stim_listB>",are kissing each other,
null,"<div style=""font-size:60px;"">+</div>",,html-keyboard-response,78,1166235,0.0-13.0-0.12,77270,List1B,black,man,,,,null,,,,
null,"<img src=""stim_listB/marry1.gif""style=""height:400px;""></stim_listB>",,html-keyboard-response,79,1168241,0.0-13.0-1.12,77270,List1B,black,man,,,,null,,,,
null,is marrying,,html-keyboard-response,80,1170245,0.0-13.0-2.12,77270,List1B,black,man,,,,null,,,,
67277,,,survey-text,81,1237523,0.0-13.0-3.12,77270,List1B,black,man,,,,,"{""Q0"":""beth is marrying mike.""}","<img src=""stim_listB/marry1.gif""style=""height:400px;""></stim_listB>",is marrying,
null,"<div style=""font-size:60px;"">+</div>",,html-keyboard-response,82,1238028,0.0-13.0-0.13,77270,List1B,black,man,,,,null,,,,
null,"<img src=""stim_listB/marry3.gif""style=""height:400px;""></stim_listB>",,html-keyboard-response,83,1240031,0.0-13.0-1.13,77270,List1B,black,man,,,,null,,,,
null,is marrying,,html-keyboard-response,84,1242042,0.0-13.0-2.13,77270,List1B,black,man,,,,null,,,,
25967,,,survey-text,85,1268011,0.0-13.0-3.13,77270,List1B,black,man,,,,,"{""Q0"":""ruth is marrying dave.""}","<img src=""stim_listB/marry3.gif""style=""height:400px;""></stim_listB>",is marrying,
null,"<div style=""font-size:60px;"">+</div>",,html-keyboard-response,86,1268513,0.0-13.0-0.14,77270,List1B,black,man,,,,null,,,,
null,"<img src=""stim_listB/touch8.gif""style=""height:400px;""></stim_listB>",,html-keyboard-response,87,1270534,0.0-13.0-1.14,77270,List1B,black,man,,,,null,,,,
null,are touching each other,,html-keyboard-response,88,1272542,0.0-13.0-2.14,77270,List1B,black,man,,,,null,,,,
74339,,,survey-text,89,1346883,0.0-13.0-3.14,77270,List1B,black,man,,,,,"{""Q0"":""ruth and beth are touching each other.""}","<img src=""stim_listB/touch8.gif""style=""height:400px;""></stim_listB>",are touching each other,
null,"<div style=""font-size:60px;"">+</div>",,html-keyboard-response,90,1347410,0.0-13.0-0.15,77270,List1B,black,man,,,,null,,,,
null,"<img src=""stim_listB/talk4.gif""style=""height:400px;""></stim_listB>",,html-keyboard-response,91,1349414,0.0-13.0-1.15,77270,List1B,black,man,,,,null,,,,
null,are talking to each other,,html-keyboard-response,92,1351423,0.0-13.0-2.15,77270,List1B,black,man,,,,null,,,,
23968,,,survey-text,93,1375393,0.0-13.0-3.15,77270,List1B,black,man,,,,,"{""Q0"":""dave and ruth are talking to each other.""}","<img src=""stim_listB/talk4.gif""style=""height:400px;""></stim_listB>",are talking to each other,
null,"<div style=""font-size:60px;"">+</div>",,html-keyboard-response,94,1375898,0.0-13.0-0.16,77270,List1B,black,man,,,,null,,,,
null,"<img src=""stim_listB/flirt2.gif""style=""height:400px;""></stim_listB>",,html-keyboard-response,95,1377901,0.0-13.0-1.16,77270,List1B,black,man,,,,null,,,,
null,are flirting with each other,,html-keyboard-response,96,1379912,0.0-13.0-2.16,77270,List1B,black,man,,,,null,,,,
22168,,,survey-text,97,1402081,0.0-13.0-3.16,77270,List1B,black,man,,,,,"{""Q0"":""mike and beth are flirting with each other.""}","<img src=""stim_listB/flirt2.gif""style=""height:400px;""></stim_listB>",are flirting with each other,
null,"<div style=""font-size:60px;"">+</div>",,html-keyboard-response,98,1402586,0.0-13.0-0.17,77270,List1B,black,man,,,,null,,,,
null,"<img src=""stim_listB/play7.gif""style=""height:400px;""></stim_listB>",,html-keyboard-response,99,1404591,0.0-13.0-1.17,77270,List1B,black,man,,,,null,,,,
null,is playing with,,html-keyboard-response,100,1406593,0.0-13.0-2.17,77270,List1B,black,man,,,,null,,,,
38125,,,survey-text,101,1444719,0.0-13.0-3.17,77270,List1B,black,man,,,,,"{""Q0"":""jane is playing with kate.""}","<img src=""stim_listB/play7.gif""style=""height:400px;""></stim_listB>",is playing with,
null,"<div style=""font-size:60px;"">+</div>",,html-keyboard-response,102,1445225,0.0-13.0-0.18,77270,List1B,black,man,,,,null,,,,
null,"<img src=""stim_listB/touch7.gif""style=""height:400px;""></stim_listB>",,html-keyboard-response,103,1447229,0.0-13.0-1.18,77270,List1B,black,man,,,,null,,,,
null,is touching,,html-keyboard-response,104,1449233,0.0-13.0-2.18,77270,List1B,black,man,,,,null,,,,
42805,,,survey-text,105,1492039,0.0-13.0-3.18,77270,List1B,black,man,,,,,"{""Q0"":""jane is touching kate.""}","<img src=""stim_listB/touch7.gif""style=""height:400px;""></stim_listB>",is touching,
null,"<div style=""font-size:60px;"">+</div>",,html-keyboard-response,106,1492554,0.0-13.0-0.19,77270,List1B,black,man,,,,null,,,,
null,"<img src=""stim_listB/fight8.gif""style=""height:400px;""></stim_listB>",,html-keyboard-response,107,1494556,0.0-13.0-1.19,77270,List1B,black,man,,,,null,,,,
null,are fighting each other,,html-keyboard-response,108,1496565,0.0-13.0-2.19,77270,List1B,black,man,,,,null,,,,
28815,,,survey-text,109,1525381,0.0-13.0-3.19,77270,List1B,black,man,,,,,"{""Q0"":""ruth and beth are fighting each other.""}","<img src=""stim_listB/fight8.gif""style=""height:400px;""></stim_listB>",are fighting each other,
46184,"<img src='img/portrait_matrix_list1.jpg' style='width:900px;height:500px;''></img><p>If you have memorised all the portraits and names and are ready to start, press Continue.</p><p><strong>Please note: Your memory of these faces will be tested 4 times during this experiment.</strong></p>",0,html-button-response,110,1571566,0.0-14.0-0.0,77270,List1B,black,man,,,,,,,,
4761,"<img src=""portrait/WM2.jpg""style=""height:400px;""></img>",7,html-button-response,111,1577334,0.0-14.0-1.0,77270,List1B,black,man,,TRUE,7,,,,,
null,CORRECT,,html-keyboard-response,112,1578845,0.0-14.0-2.0-0.0,77270,List1B,black,man,,,,null,,,,
6491,"<img src=""portrait/WW2.jpg""style=""height:400px;""></img>",3,html-button-response,113,1585338,0.0-14.0-4.0,77270,List1B,black,man,,TRUE,3,,,,,
null,CORRECT,,html-keyboard-response,114,1586875,0.0-14.0-5.0-0.0,77270,List1B,black,man,,,,null,,,,
4148,"<img src=""portrait/WW1.jpg""style=""height:400px;""></img>",1,html-button-response,115,1591025,0.0-14.0-7.0,77270,List1B,black,man,,TRUE,1,,,,,
null,CORRECT,,html-keyboard-response,116,1592553,0.0-14.0-8.0-0.0,77270,List1B,black,man,,,,null,,,,
3310,"<img src=""portrait/BM2.jpg""style=""height:400px;""></img>",5,html-button-response,117,1595866,0.0-14.0-10.0,77270,List1B,black,man,,TRUE,5,,,,,
null,CORRECT,,html-keyboard-response,118,1597371,0.0-14.0-11.0-0.0,77270,List1B,black,man,,,,null,,,,
2379,"<img src=""portrait/BM1.jpg""style=""height:400px;""></img>",4,html-button-response,119,1599753,0.0-14.0-13.0,77270,List1B,black,man,,TRUE,4,,,,,
null,CORRECT,,html-keyboard-response,120,1601285,0.0-14.0-14.0-0.0,77270,List1B,black,man,,,,null,,,,
3582,"<img src=""portrait/BW1.jpg""style=""height:400px;""></img>",0,html-button-response,121,1604869,0.0-14.0-16.0,77270,List1B,black,man,,TRUE,0,,,,,
null,CORRECT,,html-keyboard-response,122,1606376,0.0-14.0-17.0-0.0,77270,List1B,black,man,,,,null,,,,
3419,"<img src=""portrait/BW2.jpg""style=""height:400px;""></img>",2,html-button-response,123,1609798,0.0-14.0-19.0,77270,List1B,black,man,,TRUE,2,,,,,
null,CORRECT,,html-keyboard-response,124,1611305,0.0-14.0-20.0-0.0,77270,List1B,black,man,,,,null,,,,
3567,"<img src=""portrait/WM1.jpg""style=""height:400px;""></img>",6,html-button-response,125,1614875,0.0-14.0-22.0,77270,List1B,black,man,,TRUE,6,,,,,
null,CORRECT,,html-keyboard-response,126,1616384,0.0-14.0-23.0-0.0,77270,List1B,black,man,,,,null,,,,
7226,<p>You got 8 out of 8 right first time. Press Continue.</p>,0,html-button-response,127,1623612,0.0-14.0-25.0,77270,List1B,black,man,,,,,,,,
null,"<div style=""font-size:60px;"">+</div>",,html-keyboard-response,128,1625134,0.0-15.0-0.0,77270,List1B,black,man,,,,null,,,,
null,"<img src=""stim_listB/talk8.gif""style=""height:400px;""></stim_listB>",,html-keyboard-response,129,1627142,0.0-15.0-1.0,77270,List1B,black,man,,,,null,,,,
null,are talking to each other,,html-keyboard-response,130,1629146,0.0-15.0-2.0,77270,List1B,black,man,,,,null,,,,
41051,,,survey-text,131,1670198,0.0-15.0-3.0,77270,List1B,black,man,,,,,"{""Q0"":""ruth and kate are talking to each other.""}","<img src=""stim_listB/talk8.gif""style=""height:400px;""></stim_listB>",are talking to each other,
null,"<div style=""font-size:60px;"">+</div>",,html-keyboard-response,132,1670704,0.0-15.0-0.1,77270,List1B,black,man,,,,null,,,,
null,"<img src=""stim_listB/dance2.gif""style=""height:400px;""></stim_listB>",,html-keyboard-response,133,1672707,0.0-15.0-1.1,77270,List1B,black,man,,,,null,,,,
null,are dancing with each other,,html-keyboard-response,134,1674709,0.0-15.0-2.1,77270,List1B,black,man,,,,null,,,,
23248,,,survey-text,135,1697958,0.0-15.0-3.1,77270,List1B,black,man,,,,,"{""Q0"":""mike and beth are dancing with each other.""}","<img src=""stim_listB/dance2.gif""style=""height:400px;""></stim_listB>",are dancing with each other,
null,"<div style=""font-size:60px;"">+</div>",,html-keyboard-response,136,1698469,0.0-15.0-0.2,77270,List1B,black,man,,,,null,,,,
null,"<img src=""stim_listB/touch6.gif""style=""height:400px;""></stim_listB>",,html-keyboard-response,137,1700473,0.0-15.0-1.2,77270,List1B,black,man,,,,null,,,,
null,are touching each other,,html-keyboard-response,138,1702483,0.0-15.0-2.2,77270,List1B,black,man,,,,null,,,,
19348,,,survey-text,139,1721832,0.0-15.0-3.2,77270,List1B,black,man,,,,,"{""Q0"":""fred and luke are touching each other.""}","<img src=""stim_listB/touch6.gif""style=""height:400px;""></stim_listB>",are touching each other,
null,"<div style=""font-size:60px;"">+</div>",,html-keyboard-response,140,1722356,0.0-15.0-0.3,77270,List1B,black,man,,,,null,,,,
null,"<img src=""stim_listB/kiss3.gif""style=""height:400px;""></stim_listB>",,html-keyboard-response,141,1724363,0.0-15.0-1.3,77270,List1B,black,man,,,,null,,,,
null,is kissing,,html-keyboard-response,142,1726367,0.0-15.0-2.3,77270,List1B,black,man,,,,null,,,,
23180,,,survey-text,143,1749548,0.0-15.0-3.3,77270,List1B,black,man,,,,,"{""Q0"":""ruth is kissing luke.""}","<img src=""stim_listB/kiss3.gif""style=""height:400px;""></stim_listB>",is kissing,
null,"<div style=""font-size:60px;"">+</div>",,html-keyboard-response,144,1750050,0.0-15.0-0.4,77270,List1B,black,man,,,,null,,,,
null,"<img src=""stim_listB/play5.gif""style=""height:400px;""></stim_listB>",,html-keyboard-response,145,1752054,0.0-15.0-1.4,77270,List1B,black,man,,,,null,,,,
null,is playing with,,html-keyboard-response,146,1754070,0.0-15.0-2.4,77270,List1B,black,man,,,,null,,,,
23598,,,survey-text,147,1777670,0.0-15.0-3.4,77270,List1B,black,man,,,,,"{""Q0"":""dave is playing with mike.""}","<img src=""stim_listB/play5.gif""style=""height:400px;""></stim_listB>",is playing with,
null,"<div style=""font-size:60px;"">+</div>",,html-keyboard-response,148,1778175,0.0-15.0-0.5,77270,List1B,black,man,,,,null,,,,
null,"<img src=""stim_listB/kiss1.gif""style=""height:400px;""></stim_listB>",,html-keyboard-response,149,1780179,0.0-15.0-1.5,77270,List1B,black,man,,,,null,,,,
null,is kissing,,html-keyboard-response,150,1782193,0.0-15.0-2.5,77270,List1B,black,man,,,,null,,,,
29603,,,survey-text,151,1811797,0.0-15.0-3.5,77270,List1B,black,man,,,,,"{""Q0"":""beth is kissing fred.""}","<img src=""stim_listB/kiss1.gif""style=""height:400px;""></stim_listB>",is kissing,
null,"<div style=""font-size:60px;"">+</div>",,html-keyboard-response,152,1812302,0.0-15.0-0.6,77270,List1B,black,man,,,,null,,,,
null,"<img src=""stim_listB/argue8.gif""style=""height:400px;""></stim_listB>",,html-keyboard-response,153,1814307,0.0-15.0-1.6,77270,List1B,black,man,,,,null,,,,
null,are arguing with each other,,html-keyboard-response,154,1816320,0.0-15.0-2.6,77270,List1B,black,man,,,,null,,,,
65977,,,survey-text,155,1882298,0.0-15.0-3.6,77270,List1B,black,man,,,,,"{""Q0"":""beth and jane are arguing with each other.""}","<img src=""stim_listB/argue8.gif""style=""height:400px;""></stim_listB>",are arguing with each other,
null,"<div style=""font-size:60px;"">+</div>",,html-keyboard-response,156,1882802,0.0-15.0-0.7,77270,List1B,black,man,,,,null,,,,
null,"<img src=""stim_listB/play8.gif""style=""height:400px;""></stim_listB>",,html-keyboard-response,157,1884808,0.0-15.0-1.7,77270,List1B,black,man,,,,null,,,,
null,are playing with each other,,html-keyboard-response,158,1886810,0.0-15.0-2.7,77270,List1B,black,man,,,,null,,,,
147209,,,survey-text,159,2034021,0.0-15.0-3.7,77270,List1B,black,man,,,,,"{""Q0"":""beth and ruth are playing with each other.""}","<img src=""stim_listB/play8.gif""style=""height:400px;""></stim_listB>",are playing with each other,
null,"<div style=""font-size:60px;"">+</div>",,html-keyboard-response,160,2034537,0.0-15.0-0.8,77270,List1B,black,man,,,,null,,,,
null,"<img src=""stim_listB/play3.gif""style=""height:400px;""></stim_listB>",,html-keyboard-response,161,2036541,0.0-15.0-1.8,77270,List1B,black,man,,,,null,,,,
null,is playing with,,html-keyboard-response,162,2038555,0.0-15.0-2.8,77270,List1B,black,man,,,,null,,,,
26060,,,survey-text,163,2064617,0.0-15.0-3.8,77270,List1B,black,man,,,,,"{""Q0"":""jane is playing with dave.""}","<img src=""stim_listB/play3.gif""style=""height:400px;""></stim_listB>",is playing with,
null,"<div style=""font-size:60px;"">+</div>",,html-keyboard-response,164,2065120,0.0-15.0-0.9,77270,List1B,black,man,,,,null,,,,
null,"<img src=""stim_listB/talk6.gif""style=""height:400px;""></stim_listB>",,html-keyboard-response,165,2067123,0.0-15.0-1.9,77270,List1B,black,man,,,,null,,,,
null,are talking to each other,,html-keyboard-response,166,2069125,0.0-15.0-2.9,77270,List1B,black,man,,,,null,,,,
21725,,,survey-text,167,2090852,0.0-15.0-3.9,77270,List1B,black,man,,,,,"{""Q0"":""mike and luke are talking to each other.""}","<img src=""stim_listB/talk6.gif""style=""height:400px;""></stim_listB>",are talking to each other,
null,"<div style=""font-size:60px;"">+</div>",,html-keyboard-response,168,2091362,0.0-15.0-0.10,77270,List1B,black,man,,,,null,,,,
null,"<img src=""stim_listB/marry5.gif""style=""height:400px;""></stim_listB>",,html-keyboard-response,169,2093368,0.0-15.0-1.10,77270,List1B,black,man,,,,null,,,,
null,is marrying,,html-keyboard-response,170,2095373,0.0-15.0-2.10,77270,List1B,black,man,,,,null,,,,
18976,,,survey-text,171,2114350,0.0-15.0-3.10,77270,List1B,black,man,,,,,"{""Q0"":""luke is marrying mike.""}","<img src=""stim_listB/marry5.gif""style=""height:400px;""></stim_listB>",is marrying,
null,"<div style=""font-size:60px;"">+</div>",,html-keyboard-response,172,2114853,0.0-15.0-0.11,77270,List1B,black,man,,,,null,,,,
null,"<img src=""stim_listB/shout3.gif""style=""height:400px;""></stim_listB>",,html-keyboard-response,173,2116858,0.0-15.0-1.11,77270,List1B,black,man,,,,null,,,,
null,is shouting at,,html-keyboard-response,174,2118861,0.0-15.0-2.11,77270,List1B,black,man,,,,null,,,,
17951,,,survey-text,175,2136813,0.0-15.0-3.11,77270,List1B,black,man,,,,,"{""Q0"":""ruth is shouting at luke.""}","<img src=""stim_listB/shout3.gif""style=""height:400px;""></stim_listB>",is shouting at,
null,"<div style=""font-size:60px;"">+</div>",,html-keyboard-response,176,2137320,0.0-15.0-0.12,77270,List1B,black,man,,,,null,,,,
null,"<img src=""stim_listB/play1.gif""style=""height:400px;""></stim_listB>",,html-keyboard-response,177,2139322,0.0-15.0-1.12,77270,List1B,black,man,,,,null,,,,
null,is playing with,,html-keyboard-response,178,2141335,0.0-15.0-2.12,77270,List1B,black,man,,,,null,,,,
536321,,,survey-text,179,2677658,0.0-15.0-3.12,77270,List1B,black,man,,,,,"{""Q0"":""kate is playing with mike.""}","<img src=""stim_listB/play1.gif""style=""height:400px;""></stim_listB>",is playing with,
null,"<div style=""font-size:60px;"">+</div>",,html-keyboard-response,180,2678161,0.0-15.0-0.13,77270,List1B,black,man,,,,null,,,,
null,"<img src=""stim_listB/shout8.gif""style=""height:400px;""></stim_listB>",,html-keyboard-response,181,2680165,0.0-15.0-1.13,77270,List1B,black,man,,,,null,,,,
null,are shouting at each other,,html-keyboard-response,182,2682170,0.0-15.0-2.13,77270,List1B,black,man,,,,null,,,,
30810,,,survey-text,183,2712982,0.0-15.0-3.13,77270,List1B,black,man,,,,,"{""Q0"":""jane and kate are shouting at each other.""}","<img src=""stim_listB/shout8.gif""style=""height:400px;""></stim_listB>",are shouting at each other,
null,"<div style=""font-size:60px;"">+</div>",,html-keyboard-response,184,2713485,0.0-15.0-0.14,77270,List1B,black,man,,,,null,,,,
null,"<img src=""stim_listB/marry4.gif""style=""height:400px;""></stim_listB>",,html-keyboard-response,185,2715490,0.0-15.0-1.14,77270,List1B,black,man,,,,null,,,,
null,are marrying each other,,html-keyboard-response,186,2717492,0.0-15.0-2.14,77270,List1B,black,man,,,,null,,,,
42176,,,survey-text,187,2759669,0.0-15.0-3.14,77270,List1B,black,man,,,,,"{""Q0"":""luke and jane are marrying each other.""}","<img src=""stim_listB/marry4.gif""style=""height:400px;""></stim_listB>",are marrying each other,
null,"<div style=""font-size:60px;"">+</div>",,html-keyboard-response,188,2760173,0.0-15.0-0.15,77270,List1B,black,man,,,,null,,,,
null,"<img src=""stim_listB/dance3.gif""style=""height:400px;""></stim_listB>",,html-keyboard-response,189,2762179,0.0-15.0-1.15,77270,List1B,black,man,,,,null,,,,
null,is dancing with,,html-keyboard-response,190,2764194,0.0-15.0-2.15,77270,List1B,black,man,,,,null,,,,
34209,,,survey-text,191,2798405,0.0-15.0-3.15,77270,List1B,black,man,,,,,"{""Q0"":""jane is dancing with luke.""}","<img src=""stim_listB/dance3.gif""style=""height:400px;""></stim_listB>",is dancing with,
null,"<div style=""font-size:60px;"">+</div>",,html-keyboard-response,192,2798908,0.0-15.0-0.16,77270,List1B,black,man,,,,null,,,,
null,"<img src=""stim_listB/argue1.gif""style=""height:400px;""></stim_listB>",,html-keyboard-response,193,2800912,0.0-15.0-1.16,77270,List1B,black,man,,,,null,,,,
null,is arguing with,,html-keyboard-response,194,2802921,0.0-15.0-2.16,77270,List1B,black,man,,,,null,,,,
38661,,,survey-text,195,2841584,0.0-15.0-3.16,77270,List1B,black,man,,,,,"{""Q0"":""beth is arguing with mike.""}","<img src=""stim_listB/argue1.gif""style=""height:400px;""></stim_listB>",is arguing with,
null,"<div style=""font-size:60px;"">+</div>",,html-keyboard-response,196,2842095,0.0-15.0-0.17,77270,List1B,black,man,,,,null,,,,
null,"<img src=""stim_listB/talk1.gif""style=""height:400px;""></stim_listB>",,html-keyboard-response,197,2844099,0.0-15.0-1.17,77270,List1B,black,man,,,,null,,,,
null,is talking to,,html-keyboard-response,198,2846103,0.0-15.0-2.17,77270,List1B,black,man,,,,null,,,,
18457,,,survey-text,199,2864562,0.0-15.0-3.17,77270,List1B,black,man,,,,,"{""Q0"":""kate is talking to fred.""}","<img src=""stim_listB/talk1.gif""style=""height:400px;""></stim_listB>",is talking to,
null,"<div style=""font-size:60px;"">+</div>",,html-keyboard-response,200,2865065,0.0-15.0-0.18,77270,List1B,black,man,,,,null,,,,
null,"<img src=""stim_listB/fight5.gif""style=""height:400px;""></stim_listB>",,html-keyboard-response,201,2867074,0.0-15.0-1.18,77270,List1B,black,man,,,,null,,,,
null,is fighting,,html-keyboard-response,202,2869077,0.0-15.0-2.18,77270,List1B,black,man,,,,null,,,,
29969,,,survey-text,203,2899047,0.0-15.0-3.18,77270,List1B,black,man,,,,,"{""Q0"":""dave is fighting mike.""}","<img src=""stim_listB/fight5.gif""style=""height:400px;""></stim_listB>",is fighting,
null,"<div style=""font-size:60px;"">+</div>",,html-keyboard-response,204,2899553,0.0-15.0-0.19,77270,List1B,black,man,,,,null,,,,
null,"<img src=""stim_listB/fight3.gif""style=""height:400px;""></stim_listB>",,html-keyboard-response,205,2901569,0.0-15.0-1.19,77270,List1B,black,man,,,,null,,,,
null,is fighting,,html-keyboard-response,206,2903579,0.0-15.0-2.19,77270,List1B,black,man,,,,null,,,,
32350,,,survey-text,207,2935931,0.0-15.0-3.19,77270,List1B,black,man,,,,,"{""Q0"":""jane is fighting dave.""}","<img src=""stim_listB/fight3.gif""style=""height:400px;""></stim_listB>",is fighting,
18698,"<img src='img/portrait_matrix_list1.jpg' style='width:900px;height:500px;''></img><p>If you have memorised all the portraits and names and are ready to start, press Continue.</p><p><strong>Please note: Your memory of these faces will be tested 4 times during this experiment.</strong></p>",0,html-button-response,208,2954629,0.0-16.0-0.0,77270,List1B,black,man,,,,,,,,
2625,"<img src=""portrait/WM1.jpg""style=""height:400px;""></img>",6,html-button-response,209,2958262,0.0-16.0-1.0,77270,List1B,black,man,,TRUE,6,,,,,
null,CORRECT,,html-keyboard-response,210,2959795,0.0-16.0-2.0-0.0,77270,List1B,black,man,,,,null,,,,
5120,"<img src=""portrait/WW1.jpg""style=""height:400px;""></img>",1,html-button-response,211,2964916,0.0-16.0-4.0,77270,List1B,black,man,,TRUE,1,,,,,
null,CORRECT,,html-keyboard-response,212,2966425,0.0-16.0-5.0-0.0,77270,List1B,black,man,,,,null,,,,
3283,"<img src=""portrait/BM2.jpg""style=""height:400px;""></img>",5,html-button-response,213,2969710,0.0-16.0-7.0,77270,List1B,black,man,,TRUE,5,,,,,
null,CORRECT,,html-keyboard-response,214,2971237,0.0-16.0-8.0-0.0,77270,List1B,black,man,,,,null,,,,
1749,"<img src=""portrait/WM2.jpg""style=""height:400px;""></img>",7,html-button-response,215,2972987,0.0-16.0-10.0,77270,List1B,black,man,,TRUE,7,,,,,
null,CORRECT,,html-keyboard-response,216,2974499,0.0-16.0-11.0-0.0,77270,List1B,black,man,,,,null,,,,
3437,"<img src=""portrait/BW1.jpg""style=""height:400px;""></img>",0,html-button-response,217,2977938,0.0-16.0-13.0,77270,List1B,black,man,,TRUE,0,,,,,
null,CORRECT,,html-keyboard-response,218,2979446,0.0-16.0-14.0-0.0,77270,List1B,black,man,,,,null,,,,
3313,"<img src=""portrait/BW2.jpg""style=""height:400px;""></img>",2,html-button-response,219,2982761,0.0-16.0-16.0,77270,List1B,black,man,,TRUE,2,,,,,
null,CORRECT,,html-keyboard-response,220,2984268,0.0-16.0-17.0-0.0,77270,List1B,black,man,,,,null,,,,
2359,"<img src=""portrait/BM1.jpg""style=""height:400px;""></img>",4,html-button-response,221,2986629,0.0-16.0-19.0,77270,List1B,black,man,,TRUE,4,,,,,
null,CORRECT,,html-keyboard-response,222,2988144,0.0-16.0-20.0-0.0,77270,List1B,black,man,,,,null,,,,
2657,"<img src=""portrait/WW2.jpg""style=""height:400px;""></img>",3,html-button-response,223,2990803,0.0-16.0-22.0,77270,List1B,black,man,,TRUE,3,,,,,
null,CORRECT,,html-keyboard-response,224,2992328,0.0-16.0-23.0-0.0,77270,List1B,black,man,,,,null,,,,
9266,<p>You got 8 out of 8 right first time. Press Continue.</p>,0,html-button-response,225,3001595,0.0-16.0-25.0,77270,List1B,black,man,,,,,,,,
null,"<div style=""font-size:60px;"">+</div>",,html-keyboard-response,226,3003105,0.0-17.0-0.0,77270,List1B,black,man,,,,null,,,,
null,"<img src=""stim_listB/fight1.gif""style=""height:400px;""></stim_listB>",,html-keyboard-response,227,3005114,0.0-17.0-1.0,77270,List1B,black,man,,,,null,,,,
null,is fighting,,html-keyboard-response,228,3007116,0.0-17.0-2.0,77270,List1B,black,man,,,,null,,,,
24804,,,survey-text,229,3031922,0.0-17.0-3.0,77270,List1B,black,man,,,,,"{""Q0"":""kate is fighting mike.""}","<img src=""stim_listB/fight1.gif""style=""height:400px;""></stim_listB>",is fighting,
null,"<div style=""font-size:60px;"">+</div>",,html-keyboard-response,230,3032426,0.0-17.0-0.1,77270,List1B,black,man,,,,null,,,,
null,"<img src=""stim_listB/marry7.gif""style=""height:400px;""></stim_listB>",,html-keyboard-response,231,3034434,0.0-17.0-1.1,77270,List1B,black,man,,,,null,,,,
null,is marrying,,html-keyboard-response,232,3036449,0.0-17.0-2.1,77270,List1B,black,man,,,,null,,,,
23283,,,survey-text,233,3059733,0.0-17.0-3.1,77270,List1B,black,man,,,,,"{""Q0"":""ruth is marrying kate.""}","<img src=""stim_listB/marry7.gif""style=""height:400px;""></stim_listB>",is marrying,
null,"<div style=""font-size:60px;"">+</div>",,html-keyboard-response,234,3060238,0.0-17.0-0.2,77270,List1B,black,man,,,,null,,,,
null,"<img src=""stim_listB/touch1.gif""style=""height:400px;""></stim_listB>",,html-keyboard-response,235,3062241,0.0-17.0-1.2,77270,List1B,black,man,,,,null,,,,
null,is touching,,html-keyboard-response,236,3064244,0.0-17.0-2.2,77270,List1B,black,man,,,,null,,,,
15982,,,survey-text,237,3080227,0.0-17.0-3.2,77270,List1B,black,man,,,,,"{""Q0"":""kate is touching mike.""}","<img src=""stim_listB/touch1.gif""style=""height:400px;""></stim_listB>",is touching,
null,"<div style=""font-size:60px;"">+</div>",,html-keyboard-response,238,3080747,0.0-17.0-0.3,77270,List1B,black,man,,,,null,,,,
null,"<img src=""stim_listB/argue4.gif""style=""height:400px;""></stim_listB>",,html-keyboard-response,239,3082757,0.0-17.0-1.3,77270,List1B,black,man,,,,null,,,,
null,are arguing with each other,,html-keyboard-response,240,3084762,0.0-17.0-2.3,77270,List1B,black,man,,,,null,,,,
36595,,,survey-text,241,3121359,0.0-17.0-3.3,77270,List1B,black,man,,,,,"{""Q0"":""luke and jane are arguing with each other.""}","<img src=""stim_listB/argue4.gif""style=""height:400px;""></stim_listB>",are arguing with each other,
null,"<div style=""font-size:60px;"">+</div>",,html-keyboard-response,242,3121869,0.0-17.0-0.4,77270,List1B,black,man,,,,null,,,,
null,"<img src=""stim_listB/flirt1.gif""style=""height:400px;""></stim_listB>",,html-keyboard-response,243,3123872,0.0-17.0-1.4,77270,List1B,black,man,,,,null,,,,
null,is flirting with,,html-keyboard-response,244,3125877,0.0-17.0-2.4,77270,List1B,black,man,,,,null,,,,
39969,,,survey-text,245,3165847,0.0-17.0-3.4,77270,List1B,black,man,,,,,"{""Q0"":""kate is flirting with fred.""}","<img src=""stim_listB/flirt1.gif""style=""height:400px;""></stim_listB>",is flirting with,
null,"<div style=""font-size:60px;"">+</div>",,html-keyboard-response,246,3166351,0.0-17.0-0.5,77270,List1B,black,man,,,,null,,,,
null,"<img src=""stim_listB/play4.gif""style=""height:400px;""></stim_listB>",,html-keyboard-response,247,3168357,0.0-17.0-1.5,77270,List1B,black,man,,,,null,,,,
null,are playing with each other,,html-keyboard-response,248,3170362,0.0-17.0-2.5,77270,List1B,black,man,,,,null,,,,
17275,,,survey-text,249,3187639,0.0-17.0-3.5,77270,List1B,black,man,,,,,"{""Q0"":""luke and ruth are playing with each other.""}","<img src=""stim_listB/play4.gif""style=""height:400px;""></stim_listB>",are playing with each other,
null,"<div style=""font-size:60px;"">+</div>",,html-keyboard-response,250,3188156,0.0-17.0-0.6,77270,List1B,black,man,,,,null,,,,
null,"<img src=""stim_listB/kiss6.gif""style=""height:400px;""></stim_listB>",,html-keyboard-response,251,3190163,0.0-17.0-1.6,77270,List1B,black,man,,,,null,,,,
null,are kissing each other,,html-keyboard-response,252,3192179,0.0-17.0-2.6,77270,List1B,black,man,,,,null,,,,
37491,,,survey-text,253,3229672,0.0-17.0-3.6,77270,List1B,black,man,,,,,"{""Q0"":""mike and dave are kissing each other. ""}","<img src=""stim_listB/kiss6.gif""style=""height:400px;""></stim_listB>",are kissing each other,
null,"<div style=""font-size:60px;"">+</div>",,html-keyboard-response,254,3230174,0.0-17.0-0.7,77270,List1B,black,man,,,,null,,,,
null,"<img src=""stim_listB/play6.gif""style=""height:400px;""></stim_listB>",,html-keyboard-response,255,3232179,0.0-17.0-1.7,77270,List1B,black,man,,,,null,,,,
null,are playing with each other,,html-keyboard-response,256,3234185,0.0-17.0-2.7,77270,List1B,black,man,,,,null,,,,
19990,,,survey-text,257,3254176,0.0-17.0-3.7,77270,List1B,black,man,,,,,"{""Q0"":""fred and luke are playing with each other.""}","<img src=""stim_listB/play6.gif""style=""height:400px;""></stim_listB>",are playing with each other,
null,"<div style=""font-size:60px;"">+</div>",,html-keyboard-response,258,3254681,0.0-17.0-0.8,77270,List1B,black,man,,,,null,,,,
null,"<img src=""stim_listB/shout2.gif""style=""height:400px;""></stim_listB>",,html-keyboard-response,259,3256685,0.0-17.0-1.8,77270,List1B,black,man,,,,null,,,,
null,are shouting at each other,,html-keyboard-response,260,3258690,0.0-17.0-2.8,77270,List1B,black,man,,,,null,,,,
48325,,,survey-text,261,3307016,0.0-17.0-3.8,77270,List1B,black,man,,,,,"{""Q0"":""mike and kate are shouting at each other.""}","<img src=""stim_listB/shout2.gif""style=""height:400px;""></stim_listB>",are shouting at each other,
null,"<div style=""font-size:60px;"">+</div>",,html-keyboard-response,262,3307530,0.0-17.0-0.9,77270,List1B,black,man,,,,null,,,,
null,"<img src=""stim_listB/shout7.gif""style=""height:400px;""></stim_listB>",,html-keyboard-response,263,3309535,0.0-17.0-1.9,77270,List1B,black,man,,,,null,,,,
null,is shouting at,,html-keyboard-response,264,3311541,0.0-17.0-2.9,77270,List1B,black,man,,,,null,,,,
26538,,,survey-text,265,3338080,0.0-17.0-3.9,77270,List1B,black,man,,,,,"{""Q0"":""ruth is shouting at beth.""}","<img src=""stim_listB/shout7.gif""style=""height:400px;""></stim_listB>",is shouting at,
null,"<div style=""font-size:60px;"">+</div>",,html-keyboard-response,266,3338582,0.0-17.0-0.10,77270,List1B,black,man,,,,null,,,,
null,"<img src=""stim_listB/dance1.gif""style=""height:400px;""></stim_listB>",,html-keyboard-response,267,3340587,0.0-17.0-1.10,77270,List1B,black,man,,,,null,,,,
null,is dancing with,,html-keyboard-response,268,3342590,0.0-17.0-2.10,77270,List1B,black,man,,,,null,,,,
25987,,,survey-text,269,3368579,0.0-17.0-3.10,77270,List1B,black,man,,,,,"{""Q0"":""kate is dancing with fred.""}","<img src=""stim_listB/dance1.gif""style=""height:400px;""></stim_listB>",is dancing with,
null,"<div style=""font-size:60px;"">+</div>",,html-keyboard-response,270,3369086,0.0-17.0-0.11,77270,List1B,black,man,,,,null,,,,
null,"<img src=""stim_listB/marry8.gif""style=""height:400px;""></stim_listB>",,html-keyboard-response,271,3371089,0.0-17.0-1.11,77270,List1B,black,man,,,,null,,,,
null,are marrying each other,,html-keyboard-response,272,3373093,0.0-17.0-2.11,77270,List1B,black,man,,,,null,,,,
78252,,,survey-text,273,3451345,0.0-17.0-3.11,77270,List1B,black,man,,,,,"{""Q0"":""beth and jane are marrying each other.""}","<img src=""stim_listB/marry8.gif""style=""height:400px;""></stim_listB>",are marrying each other,
null,"<div style=""font-size:60px;"">+</div>",,html-keyboard-response,274,3451850,0.0-17.0-0.12,77270,List1B,black,man,,,,null,,,,
null,"<img src=""stim_listB/argue2.gif""style=""height:400px;""></stim_listB>",,html-keyboard-response,275,3453854,0.0-17.0-1.12,77270,List1B,black,man,,,,null,,,,
null,are arguing with each other,,html-keyboard-response,276,3455856,0.0-17.0-2.12,77270,List1B,black,man,,,,null,,,,
29157,,,survey-text,277,3485014,0.0-17.0-3.12,77270,List1B,black,man,,,,,"{""Q0"":""fred and kate are arguing with each other.""}","<img src=""stim_listB/argue2.gif""style=""height:400px;""></stim_listB>",are arguing with each other,
null,"<div style=""font-size:60px;"">+</div>",,html-keyboard-response,278,3485539,0.0-17.0-0.13,77270,List1B,black,man,,,,null,,,,
null,"<img src=""stim_listB/dance7.gif""style=""height:400px;""></stim_listB>",,html-keyboard-response,279,3487542,0.0-17.0-1.13,77270,List1B,black,man,,,,null,,,,
null,is dancing with,,html-keyboard-response,280,3489546,0.0-17.0-2.13,77270,List1B,black,man,,,,null,,,,
32984,,,survey-text,281,3522531,0.0-17.0-3.13,77270,List1B,black,man,,,,,"{""Q0"":""jane is dancing with beth.""}","<img src=""stim_listB/dance7.gif""style=""height:400px;""></stim_listB>",is dancing with,
null,"<div style=""font-size:60px;"">+</div>",,html-keyboard-response,282,3523048,0.0-17.0-0.14,77270,List1B,black,man,,,,null,,,,
null,"<img src=""stim_listB/flirt8.gif""style=""height:400px;""></stim_listB>",,html-keyboard-response,283,3525052,0.0-17.0-1.14,77270,List1B,black,man,,,,null,,,,
null,are flirting with each other,,html-keyboard-response,284,3527059,0.0-17.0-2.14,77270,List1B,black,man,,,,null,,,,
32468,,,survey-text,285,3559527,0.0-17.0-3.14,77270,List1B,black,man,,,,,"{""Q0"":""kate and ruth are flirting with each other.""}","<img src=""stim_listB/flirt8.gif""style=""height:400px;""></stim_listB>",are flirting with each other,
null,"<div style=""font-size:60px;"">+</div>",,html-keyboard-response,286,3560032,0.0-17.0-0.15,77270,List1B,black,man,,,,null,,,,
null,"<img src=""stim_listB/flirt3.gif""style=""height:400px;""></stim_listB>",,html-keyboard-response,287,3562040,0.0-17.0-1.15,77270,List1B,black,man,,,,null,,,,
null,is flirting with,,html-keyboard-response,288,3564043,0.0-17.0-2.15,77270,List1B,black,man,,,,null,,,,
26093,,,survey-text,289,3590137,0.0-17.0-3.15,77270,List1B,black,man,,,,,"{""Q0"":""jane is flirting with luke.""}","<img src=""stim_listB/flirt3.gif""style=""height:400px;""></stim_listB>",is flirting with,
null,"<div style=""font-size:60px;"">+</div>",,html-keyboard-response,290,3590642,0.0-17.0-0.16,77270,List1B,black,man,,,,null,,,,
null,"<img src=""stim_listB/dance6.gif""style=""height:400px;""></stim_listB>",,html-keyboard-response,291,3592648,0.0-17.0-1.16,77270,List1B,black,man,,,,null,,,,
null,are dancing with each other,,html-keyboard-response,292,3594660,0.0-17.0-2.16,77270,List1B,black,man,,,,null,,,,
18347,,,survey-text,293,3613009,0.0-17.0-3.16,77270,List1B,black,man,,,,,"{""Q0"":""mike and luke are dancing with each other,""}","<img src=""stim_listB/dance6.gif""style=""height:400px;""></stim_listB>",are dancing with each other,
null,"<div style=""font-size:60px;"">+</div>",,html-keyboard-response,294,3613514,0.0-17.0-0.17,77270,List1B,black,man,,,,null,,,,
null,"<img src=""stim_listB/kiss5.gif""style=""height:400px;""></stim_listB>",,html-keyboard-response,295,3615519,0.0-17.0-1.17,77270,List1B,black,man,,,,null,,,,
null,is kissing,,html-keyboard-response,296,3617524,0.0-17.0-2.17,77270,List1B,black,man,,,,null,,,,
17399,,,survey-text,297,3634924,0.0-17.0-3.17,77270,List1B,black,man,,,,,"{""Q0"":""luke is kissing fred.""}","<img src=""stim_listB/kiss5.gif""style=""height:400px;""></stim_listB>",is kissing,
null,"<div style=""font-size:60px;"">+</div>",,html-keyboard-response,298,3635430,0.0-17.0-0.18,77270,List1B,black,man,,,,null,,,,
null,"<img src=""stim_listB/kiss8.gif""style=""height:400px;""></stim_listB>",,html-keyboard-response,299,3637436,0.0-17.0-1.18,77270,List1B,black,man,,,,null,,,,
null,are kissing each other,,html-keyboard-response,300,3639444,0.0-17.0-2.18,77270,List1B,black,man,,,,null,,,,
50954,,,survey-text,301,3690400,0.0-17.0-3.18,77270,List1B,black,man,,,,,"{""Q0"":""jane and kate are kissing each other.""}","<img src=""stim_listB/kiss8.gif""style=""height:400px;""></stim_listB>",are kissing each other,
null,"<div style=""font-size:60px;"">+</div>",,html-keyboard-response,302,3690901,0.0-17.0-0.19,77270,List1B,black,man,,,,null,,,,
null,"<img src=""stim_listB/shout1.gif""style=""height:400px;""></stim_listB>",,html-keyboard-response,303,3692909,0.0-17.0-1.19,77270,List1B,black,man,,,,null,,,,
null,is shouting at,,html-keyboard-response,304,3694924,0.0-17.0-2.19,77270,List1B,black,man,,,,null,,,,
31378,,,survey-text,305,3726303,0.0-17.0-3.19,77270,List1B,black,man,,,,,"{""Q0"":""beth is shouting at fred.""}","<img src=""stim_listB/shout1.gif""style=""height:400px;""></stim_listB>",is shouting at,
18289,"<img src='img/portrait_matrix_list1.jpg' style='width:900px;height:500px;''></img><p>If you have memorised all the portraits and names and are ready to start, press Continue.</p><p><strong>Please note: Your memory of these faces will be tested 4 times during this experiment.</strong></p>",0,html-button-response,306,3744593,0.0-18.0-0.0,77270,List1B,black,man,,,,,,,,
1216,"<img src=""portrait/WW2.jpg""style=""height:400px;""></img>",3,html-button-response,307,3746826,0.0-18.0-1.0,77270,List1B,black,man,,TRUE,3,,,,,
null,CORRECT,,html-keyboard-response,308,3748345,0.0-18.0-2.0-0.0,77270,List1B,black,man,,,,null,,,,
9510,"<img src=""portrait/BM1.jpg""style=""height:400px;""></img>",4,html-button-response,309,3757857,0.0-18.0-4.0,77270,List1B,black,man,,TRUE,4,,,,,
null,CORRECT,,html-keyboard-response,310,3759375,0.0-18.0-5.0-0.0,77270,List1B,black,man,,,,null,,,,
2069,"<img src=""portrait/WW1.jpg""style=""height:400px;""></img>",1,html-button-response,311,3761445,0.0-18.0-7.0,77270,List1B,black,man,,TRUE,1,,,,,
null,CORRECT,,html-keyboard-response,312,3762952,0.0-18.0-8.0-0.0,77270,List1B,black,man,,,,null,,,,
1727,"<img src=""portrait/BM2.jpg""style=""height:400px;""></img>",5,html-button-response,313,3764681,0.0-18.0-10.0,77270,List1B,black,man,,TRUE,5,,,,,
null,CORRECT,,html-keyboard-response,314,3766191,0.0-18.0-11.0-0.0,77270,List1B,black,man,,,,null,,,,
1751,"<img src=""portrait/BW2.jpg""style=""height:400px;""></img>",2,html-button-response,315,3767945,0.0-18.0-13.0,77270,List1B,black,man,,TRUE,2,,,,,
null,CORRECT,,html-keyboard-response,316,3769453,0.0-18.0-14.0-0.0,77270,List1B,black,man,,,,null,,,,
1498,"<img src=""portrait/WM2.jpg""style=""height:400px;""></img>",7,html-button-response,317,3770954,0.0-18.0-16.0,77270,List1B,black,man,,TRUE,7,,,,,
null,CORRECT,,html-keyboard-response,318,3772463,0.0-18.0-17.0-0.0,77270,List1B,black,man,,,,null,,,,
3945,"<img src=""portrait/BW1.jpg""style=""height:400px;""></img>",0,html-button-response,319,3776411,0.0-18.0-19.0,77270,List1B,black,man,,TRUE,0,,,,,
null,CORRECT,,html-keyboard-response,320,3777924,0.0-18.0-20.0-0.0,77270,List1B,black,man,,,,null,,,,
1503,"<img src=""portrait/WM1.jpg""style=""height:400px;""></img>",6,html-button-response,321,3779429,0.0-18.0-22.0,77270,List1B,black,man,,TRUE,6,,,,,
null,CORRECT,,html-keyboard-response,322,3780940,0.0-18.0-23.0-0.0,77270,List1B,black,man,,,,null,,,,
3216,<p>You got 8 out of 8 right first time. Press Continue.</p>,0,html-button-response,323,3784158,0.0-18.0-25.0,77270,List1B,black,man,,,,,,,,
null,"<div style=""font-size:60px;"">+</div>",,html-keyboard-response,324,3785666,0.0-19.0-0.0,77270,List1B,black,man,,,,null,,,,
null,"<img src=""stim_listB/marry6.gif""style=""height:400px;""></stim_listB>",,html-keyboard-response,325,3787671,0.0-19.0-1.0,77270,List1B,black,man,,,,null,,,,
null,are marrying each other,,html-keyboard-response,326,3789675,0.0-19.0-2.0,77270,List1B,black,man,,,,null,,,,
8388,,,survey-text,327,3798065,0.0-19.0-3.0,77270,List1B,black,man,,,,,"{""Q0"":""fred and dave are marrying each other.""}","<img src=""stim_listB/marry6.gif""style=""height:400px;""></stim_listB>",are marrying each other,
null,"<div style=""font-size:60px;"">+</div>",,html-keyboard-response,328,3798582,0.0-19.0-0.1,77270,List1B,black,man,,,,null,,,,
null,"<img src=""stim_listB/shout4.gif""style=""height:400px;""></stim_listB>",,html-keyboard-response,329,3800585,0.0-19.0-1.1,77270,List1B,black,man,,,,null,,,,
null,are shouting at each other,,html-keyboard-response,330,3802593,0.0-19.0-2.1,77270,List1B,black,man,,,,null,,,,
8596,,,survey-text,331,3811190,0.0-19.0-3.1,77270,List1B,black,man,,,,,"{""Q0"":""dave and jane are shouting at each other.""}","<img src=""stim_listB/shout4.gif""style=""height:400px;""></stim_listB>",are shouting at each other,
null,"<div style=""font-size:60px;"">+</div>",,html-keyboard-response,332,3811693,0.0-19.0-0.2,77270,List1B,black,man,,,,null,,,,
null,"<img src=""stim_listB/shout5.gif""style=""height:400px;""></stim_listB>",,html-keyboard-response,333,3813698,0.0-19.0-1.2,77270,List1B,black,man,,,,null,,,,
null,is shouting at,,html-keyboard-response,334,3815716,0.0-19.0-2.2,77270,List1B,black,man,,,,null,,,,
5175,,,survey-text,335,3820893,0.0-19.0-3.2,77270,List1B,black,man,,,,,"{""Q0"":""luke is shouting at fred.""}","<img src=""stim_listB/shout5.gif""style=""height:400px;""></stim_listB>",is shouting at,
null,"<div style=""font-size:60px;"">+</div>",,html-keyboard-response,336,3821406,0.0-19.0-0.3,77270,List1B,black,man,,,,null,,,,
null,"<img src=""stim_listB/argue5.gif""style=""height:400px;""></stim_listB>",,html-keyboard-response,337,3823411,0.0-19.0-1.3,77270,List1B,black,man,,,,null,,,,
null,is arguing with,,html-keyboard-response,338,3825425,0.0-19.0-2.3,77270,List1B,black,man,,,,null,,,,
10001,,,survey-text,339,3835427,0.0-19.0-3.3,77270,List1B,black,man,,,,,"{""Q0"":""luke is arguing with mike.""}","<img src=""stim_listB/argue5.gif""style=""height:400px;""></stim_listB>",is arguing with,
null,"<div style=""font-size:60px;"">+</div>",,html-keyboard-response,340,3835928,0.0-19.0-0.4,77270,List1B,black,man,,,,null,,,,
null,"<img src=""stim_listB/flirt7.gif""style=""height:400px;""></stim_listB>",,html-keyboard-response,341,3837936,0.0-19.0-1.4,77270,List1B,black,man,,,,null,,,,
null,is flirting with,,html-keyboard-response,342,3839939,0.0-19.0-2.4,77270,List1B,black,man,,,,null,,,,
7079,,,survey-text,343,3847020,0.0-19.0-3.4,77270,List1B,black,man,,,,,"{""Q0"":""jane is flirting with beth.""}","<img src=""stim_listB/flirt7.gif""style=""height:400px;""></stim_listB>",is flirting with,
null,"<div style=""font-size:60px;"">+</div>",,html-keyboard-response,344,3847537,0.0-19.0-0.5,77270,List1B,black,man,,,,null,,,,
null,"<img src=""stim_listB/talk3.gif""style=""height:400px;""></stim_listB>",,html-keyboard-response,345,3849541,0.0-19.0-1.5,77270,List1B,black,man,,,,null,,,,
null,is talking to,,html-keyboard-response,346,3851548,0.0-19.0-2.5,77270,List1B,black,man,,,,null,,,,
7255,,,survey-text,347,3858805,0.0-19.0-3.5,77270,List1B,black,man,,,,,"{""Q0"":""jane is talking to luke.""}","<img src=""stim_listB/talk3.gif""style=""height:400px;""></stim_listB>",is talking to,
null,"<div style=""font-size:60px;"">+</div>",,html-keyboard-response,348,3859318,0.0-19.0-0.6,77270,List1B,black,man,,,,null,,,,
null,"<img src=""stim_listB/fight4.gif""style=""height:400px;""></stim_listB>",,html-keyboard-response,349,3861322,0.0-19.0-1.6,77270,List1B,black,man,,,,null,,,,
null,are fighting each other,,html-keyboard-response,350,3863326,0.0-19.0-2.6,77270,List1B,black,man,,,,null,,,,
8910,,,survey-text,351,3872237,0.0-19.0-3.6,77270,List1B,black,man,,,,,"{""Q0"":""luke and ruth are fighting each other.""}","<img src=""stim_listB/fight4.gif""style=""height:400px;""></stim_listB>",are fighting each other,
null,"<div style=""font-size:60px;"">+</div>",,html-keyboard-response,352,3872740,0.0-19.0-0.7,77270,List1B,black,man,,,,null,,,,
null,"<img src=""stim_listB/flirt5.gif""style=""height:400px;""></stim_listB>",,html-keyboard-response,353,3874744,0.0-19.0-1.7,77270,List1B,black,man,,,,null,,,,
null,is flirting with,,html-keyboard-response,354,3876747,0.0-19.0-2.7,77270,List1B,black,man,,,,null,,,,
5632,,,survey-text,355,3882381,0.0-19.0-3.7,77270,List1B,black,man,,,,,"{""Q0"":""dave is flirting with fred.""}","<img src=""stim_listB/flirt5.gif""style=""height:400px;""></stim_listB>",is flirting with,
null,"<div style=""font-size:60px;"">+</div>",,html-keyboard-response,356,3882886,0.0-19.0-0.8,77270,List1B,black,man,,,,null,,,,
null,"<img src=""stim_listB/talk5.gif""style=""height:400px;""></stim_listB>",,html-keyboard-response,357,3884890,0.0-19.0-1.8,77270,List1B,black,man,,,,null,,,,
null,is talking to,,html-keyboard-response,358,3886893,0.0-19.0-2.8,77270,List1B,black,man,,,,null,,,,
4852,,,survey-text,359,3891746,0.0-19.0-3.8,77270,List1B,black,man,,,,,"{""Q0"":""dave is talking to fred.""}","<img src=""stim_listB/talk5.gif""style=""height:400px;""></stim_listB>",is talking to,
null,"<div style=""font-size:60px;"">+</div>",,html-keyboard-response,360,3892255,0.0-19.0-0.9,77270,List1B,black,man,,,,null,,,,
null,"<img src=""stim_listB/touch5.gif""style=""height:400px;""></stim_listB>",,html-keyboard-response,361,3894260,0.0-19.0-1.9,77270,List1B,black,man,,,,null,,,,
null,is touching,,html-keyboard-response,362,3896266,0.0-19.0-2.9,77270,List1B,black,man,,,,null,,,,
7749,,,survey-text,363,3904017,0.0-19.0-3.9,77270,List1B,black,man,,,,,"{""Q0"":""dave is touching mike.""}","<img src=""stim_listB/touch5.gif""style=""height:400px;""></stim_listB>",is touching,
null,"<div style=""font-size:60px;"">+</div>",,html-keyboard-response,364,3904524,0.0-19.0-0.10,77270,List1B,black,man,,,,null,,,,
null,"<img src=""stim_listB/argue7.gif""style=""height:400px;""></stim_listB>",,html-keyboard-response,365,3906528,0.0-19.0-1.10,77270,List1B,black,man,,,,null,,,,
null,is arguing with,,html-keyboard-response,366,3908531,0.0-19.0-2.10,77270,List1B,black,man,,,,null,,,,
6097,,,survey-text,367,3914630,0.0-19.0-3.10,77270,List1B,black,man,,,,,"{""Q0"":""ruth is arguing with kate.""}","<img src=""stim_listB/argue7.gif""style=""height:400px;""></stim_listB>",is arguing with,
null,"<div style=""font-size:60px;"">+</div>",,html-keyboard-response,368,3915140,0.0-19.0-0.11,77270,List1B,black,man,,,,null,,,,
null,"<img src=""stim_listB/flirt6.gif""style=""height:400px;""></stim_listB>",,html-keyboard-response,369,3917146,0.0-19.0-1.11,77270,List1B,black,man,,,,null,,,,
null,are flirting with each other,,html-keyboard-response,370,3919149,0.0-19.0-2.11,77270,List1B,black,man,,,,null,,,,
11150,,,survey-text,371,3930301,0.0-19.0-3.11,77270,List1B,black,man,,,,,"{""Q0"":""mike and luke are flirting with each other.""}","<img src=""stim_listB/flirt6.gif""style=""height:400px;""></stim_listB>",are flirting with each other,
null,"<div style=""font-size:60px;"">+</div>",,html-keyboard-response,372,3930805,0.0-19.0-0.12,77270,List1B,black,man,,,,null,,,,
null,"<img src=""stim_listB/argue6.gif""style=""height:400px;""></stim_listB>",,html-keyboard-response,373,3932807,0.0-19.0-1.12,77270,List1B,black,man,,,,null,,,,
null,are arguing with each other,,html-keyboard-response,374,3934809,0.0-19.0-2.12,77270,List1B,black,man,,,,null,,,,
9391,,,survey-text,375,3944202,0.0-19.0-3.12,77270,List1B,black,man,,,,,"{""Q0"":""fred and dave are arguing with each other.""}","<img src=""stim_listB/argue6.gif""style=""height:400px;""></stim_listB>",are arguing with each other,
null,"<div style=""font-size:60px;"">+</div>",,html-keyboard-response,376,3944703,0.0-19.0-0.13,77270,List1B,black,man,,,,null,,,,
null,"<img src=""stim_listB/touch2.gif""style=""height:400px;""></stim_listB>",,html-keyboard-response,377,3946708,0.0-19.0-1.13,77270,List1B,black,man,,,,null,,,,
null,are touching each other,,html-keyboard-response,378,3948714,0.0-19.0-2.13,77270,List1B,black,man,,,,null,,,,
7564,,,survey-text,379,3956279,0.0-19.0-3.13,77270,List1B,black,man,,,,,"{""Q0"":""fred and beth are touching each other.""}","<img src=""stim_listB/touch2.gif""style=""height:400px;""></stim_listB>",are touching each other,
null,"<div style=""font-size:60px;"">+</div>",,html-keyboard-response,380,3956781,0.0-19.0-0.14,77270,List1B,black,man,,,,null,,,,
null,"<img src=""stim_listB/play2.gif""style=""height:400px;""></stim_listB>",,html-keyboard-response,381,3958787,0.0-19.0-1.14,77270,List1B,black,man,,,,null,,,,
null,are playing with each other,,html-keyboard-response,382,3960793,0.0-19.0-2.14,77270,List1B,black,man,,,,null,,,,
7678,,,survey-text,383,3968473,0.0-19.0-3.14,77270,List1B,black,man,,,,,"{""Q0"":""fred and beth are playing with each other.""}","<img src=""stim_listB/play2.gif""style=""height:400px;""></stim_listB>",are playing with each other,
null,"<div style=""font-size:60px;"">+</div>",,html-keyboard-response,384,3968975,0.0-19.0-0.15,77270,List1B,black,man,,,,null,,,,
null,"<img src=""stim_listB/fight7.gif""style=""height:400px;""></stim_listB>",,html-keyboard-response,385,3970982,0.0-19.0-1.15,77270,List1B,black,man,,,,null,,,,
null,is fighting,,html-keyboard-response,386,3972987,0.0-19.0-2.15,77270,List1B,black,man,,,,null,,,,
7758,,,survey-text,387,3980746,0.0-19.0-3.15,77270,List1B,black,man,,,,,"{""Q0"":""jane is fighting kate.""}","<img src=""stim_listB/fight7.gif""style=""height:400px;""></stim_listB>",is fighting,
null,"<div style=""font-size:60px;"">+</div>",,html-keyboard-response,388,3981249,0.0-19.0-0.16,77270,List1B,black,man,,,,null,,,,
null,"<img src=""stim_listB/fight2.gif""style=""height:400px;""></stim_listB>",,html-keyboard-response,389,3983254,0.0-19.0-1.16,77270,List1B,black,man,,,,null,,,,
null,are fighting each other,,html-keyboard-response,390,3985264,0.0-19.0-2.16,77270,List1B,black,man,,,,null,,,,
8879,,,survey-text,391,3994145,0.0-19.0-3.16,77270,List1B,black,man,,,,,"{""Q0"":""fred and beth are fighting each other.""}","<img src=""stim_listB/fight2.gif""style=""height:400px;""></stim_listB>",are fighting each other,
null,"<div style=""font-size:60px;"">+</div>",,html-keyboard-response,392,3994647,0.0-19.0-0.17,77270,List1B,black,man,,,,null,,,,
null,"<img src=""stim_listB/dance4.gif""style=""height:400px;""></stim_listB>",,html-keyboard-response,393,3996655,0.0-19.0-1.17,77270,List1B,black,man,,,,null,,,,
null,are dancing with each other,,html-keyboard-response,394,3998663,0.0-19.0-2.17,77270,List1B,black,man,,,,null,,,,
9582,,,survey-text,395,4008246,0.0-19.0-3.17,77270,List1B,black,man,,,,,"{""Q0"":""dave and ruth are dancing with each other.""}","<img src=""stim_listB/dance4.gif""style=""height:400px;""></stim_listB>",are dancing with each other,
null,"<div style=""font-size:60px;"">+</div>",,html-keyboard-response,396,4008750,0.0-19.0-0.18,77270,List1B,black,man,,,,null,,,,
null,"<img src=""stim_listB/talk7.gif""style=""height:400px;""></stim_listB>",,html-keyboard-response,397,4010754,0.0-19.0-1.18,77270,List1B,black,man,,,,null,,,,
null,is talking to,,html-keyboard-response,398,4012759,0.0-19.0-2.18,77270,List1B,black,man,,,,null,,,,
7889,,,survey-text,399,4020651,0.0-19.0-3.18,77270,List1B,black,man,,,,,"{""Q0"":""jane is talking to beth.""}","<img src=""stim_listB/talk7.gif""style=""height:400px;""></stim_listB>",is talking to,
null,"<div style=""font-size:60px;"">+</div>",,html-keyboard-response,400,4021155,0.0-19.0-0.19,77270,List1B,black,man,,,,null,,,,
null,"<img src=""stim_listB/touch3.gif""style=""height:400px;""></stim_listB>",,html-keyboard-response,401,4023160,0.0-19.0-1.19,77270,List1B,black,man,,,,null,,,,
null,is touching,,html-keyboard-response,402,4025166,0.0-19.0-2.19,77270,List1B,black,man,,,,null,,,,
4866,,,survey-text,403,4030034,0.0-19.0-3.19,77270,List1B,black,man,,,,,"{""Q0"":""jane is touching dave.""}","<img src=""stim_listB/touch3.gif""style=""height:400px;""></stim_listB>",is touching,
1671,<p>Thank you for completing that task.</p><p>The final part of this session is a short questionnaire.</p><p>Press Continue.</p>,0,html-button-response,404,4031706,0.0-20.0,77270,List1B,black,man,,,,,,,,
31088,,,survey-text,405,4063816,0.0-21.0,77270,List1B,black,man,,,,,"{""Q0"":""34"",""Q1"":""Arabic"",""Q2"":""English"",""Q3"":""United Kingdom"",""Q4"":""Black"",""Q5"":""Male""}",,,demographics
29540,,,survey-likert,406,4093358,0.0-22.0,77270,List1B,black,man,,,,,"{""Q0"":2}",,,likert_ESS
28981,,,survey-likert,407,4122343,0.0-23.0,77270,List1B,black,man,,,,,"{""Q0"":3}",,,likert_NSSAL_Q1
3061,,,survey-likert,408,4125408,0.0-24.0,77270,List1B,black,man,,,,,"{""Q0"":3}",,,likert_NSSAL_Q2
10097,,,survey-likert,409,4135510,0.0-25.0,77270,List1B,black,man,,,,,"{""Q0"":4}",,,likert_CGRS_Q1
4377,,,survey-likert,410,4139892,0.0-26.0,77270,List1B,black,man,,,,,"{""Q0"":4}",,,likert_CGRS_Q2
2688,,,survey-likert,411,4142584,0.0-27.0,77270,List1B,black,man,,,,,"{""Q0"":4}",,,likert_CGRS_Q3
4023,,,survey-text,412,4146612,0.0-28.0,77270,List1B,black,man,,,,,"{""Q0"":""ccc""}",,,worker_id
18129,,,external-html,413,4164881,0.0-29.0,77270,List1B,black,man,debrief.html,,,,,,,
