rt,stimulus,button_pressed,trial_type,trial_index,time_elapsed,internal_node_id,subject,list,ppt_race,ppt_gender,url,first_guess,correct,key_press,responses,image_type,phrase_type,test_part
3184,Welcome to the experiment. Press Continue to begin.,0,html-button-response,0,3193,0.0-0.0,77424,List1A,black,man,,,,,,,,
10423,,,external-html,1,14825,0.0-1.0,77424,List1A,black,man,consent.html,,,,,,,
3049,"<p>On the next page, you will see portraits of 8 people and their names.</p><p>Your first task is to take a few minutes to memorise the names of these people.</p><p>You will have to recall their names during the rest of the experiment, so it is</p><p>essential that you try to memorise these people and their names as best as you can.</p><br><p><strong>You will then be tested on your memory of these names and portraits.</strong></p><br><p>The experiment will start after you have completed this memory test.</p><br><p>Ready?</p>",0,html-button-response,2,17882,0.0-2.0,77424,List1A,black,man,,,,,,,,
51030,"<img src='img/portrait_matrix_list1.jpg' style='width:900px;height:500px;''></img><p>If you have memorised all the portraits and names and are ready to start, press Continue.</p><p><strong>Please note: Your memory of these faces will be tested 4 times during this experiment.</strong></p>",0,html-button-response,3,69920,0.0-3.0-0.0,77424,List1A,black,man,,,,,,,,
5631,"<img src=""portrait/WM1.jpg""style=""height:400px;""></img>",6,html-button-response,4,76571,0.0-3.0-1.0,77424,List1A,black,man,,TRUE,6,,,,,
null,CORRECT,,html-keyboard-response,5,78081,0.0-3.0-2.0-0.0,77424,List1A,black,man,,,,null,,,,
2960,"<img src=""portrait/BM2.jpg""style=""height:400px;""></img>",5,html-button-response,6,81048,0.0-3.0-4.0,77424,List1A,black,man,,TRUE,5,,,,,
null,CORRECT,,html-keyboard-response,7,82560,0.0-3.0-5.0-0.0,77424,List1A,black,man,,,,null,,,,
2798,"<img src=""portrait/WM2.jpg""style=""height:400px;""></img>",7,html-button-response,8,85363,0.0-3.0-7.0,77424,List1A,black,man,,TRUE,7,,,,,
null,CORRECT,,html-keyboard-response,9,86869,0.0-3.0-8.0-0.0,77424,List1A,black,man,,,,null,,,,
3409,"<img src=""portrait/WW2.jpg""style=""height:400px;""></img>",1,html-button-response,10,90283,0.0-3.0-10.0,77424,List1A,black,man,,TRUE,3,,,,,
6005,"<img src=""portrait/WW2.jpg""style=""height:400px;""></img>",3,html-button-response,11,97295,0.0-3.0-12.0-0.0,77424,List1A,black,man,,FALSE,3,,,,,
null,CORRECT,,html-keyboard-response,12,98802,0.0-3.0-12.0-1.0-0.0,77424,List1A,black,man,,,,null,,,,
2944,"<img src=""portrait/BM1.jpg""style=""height:400px;""></img>",4,html-button-response,13,101751,0.0-3.0-13.0,77424,List1A,black,man,,TRUE,4,,,,,
null,CORRECT,,html-keyboard-response,14,103258,0.0-3.0-14.0-0.0,77424,List1A,black,man,,,,null,,,,
2371,"<img src=""portrait/WW1.jpg""style=""height:400px;""></img>",1,html-button-response,15,105633,0.0-3.0-16.0,77424,List1A,black,man,,TRUE,1,,,,,
null,CORRECT,,html-keyboard-response,16,107140,0.0-3.0-17.0-0.0,77424,List1A,black,man,,,,null,,,,
2926,"<img src=""portrait/BW1.jpg""style=""height:400px;""></img>",2,html-button-response,17,110070,0.0-3.0-19.0,77424,List1A,black,man,,TRUE,0,,,,,
2625,"<img src=""portrait/BW1.jpg""style=""height:400px;""></img>",0,html-button-response,18,113703,0.0-3.0-21.0-0.0,77424,List1A,black,man,,FALSE,0,,,,,
null,CORRECT,,html-keyboard-response,19,115210,0.0-3.0-21.0-1.0-0.0,77424,List1A,black,man,,,,null,,,,
3374,"<img src=""portrait/BW2.jpg""style=""height:400px;""></img>",2,html-button-response,20,118589,0.0-3.0-22.0,77424,List1A,black,man,,TRUE,2,,,,,
null,CORRECT,,html-keyboard-response,21,120096,0.0-3.0-23.0-0.0,77424,List1A,black,man,,,,null,,,,
3630,<p>You got 6 out of 8 right first time. Press Continue.</p>,0,html-button-response,22,123731,0.0-3.0-25.0,77424,List1A,black,man,,,,,,,,
3628,"As you did not score 100%, the memory game will repeat. Press Continue.",0,html-button-response,23,128366,0.0-3.0-26.0-0.0,77424,List1A,black,man,,,,,,,,
2097,"<img src='img/portrait_matrix_list1.jpg' style='width:900px;height:500px;''></img><p>If you have memorised all the portraits and names and are ready to start, press Continue.</p><p><strong>Please note: Your memory of these faces will be tested 4 times during this experiment.</strong></p>",0,html-button-response,24,131476,0.0-3.1-0.1,77424,List1A,black,man,,,,,,,,
4656,"<img src=""portrait/WM1.jpg""style=""height:400px;""></img>",6,html-button-response,25,137141,0.0-3.1-1.1,77424,List1A,black,man,,TRUE,6,,,,,
null,CORRECT,,html-keyboard-response,26,138647,0.0-3.1-2.1-0.1,77424,List1A,black,man,,,,null,,,,
3213,"<img src=""portrait/BM2.jpg""style=""height:400px;""></img>",5,html-button-response,27,141866,0.0-3.1-4.1,77424,List1A,black,man,,TRUE,5,,,,,
null,CORRECT,,html-keyboard-response,28,143372,0.0-3.1-5.1-0.1,77424,List1A,black,man,,,,null,,,,
3528,"<img src=""portrait/WM2.jpg""style=""height:400px;""></img>",7,html-button-response,29,146907,0.0-3.1-7.1,77424,List1A,black,man,,TRUE,7,,,,,
null,CORRECT,,html-keyboard-response,30,148412,0.0-3.1-8.1-0.1,77424,List1A,black,man,,,,null,,,,
4230,"<img src=""portrait/WW2.jpg""style=""height:400px;""></img>",3,html-button-response,31,152649,0.0-3.1-10.1,77424,List1A,black,man,,TRUE,3,,,,,
null,CORRECT,,html-keyboard-response,32,154154,0.0-3.1-11.1-0.1,77424,List1A,black,man,,,,null,,,,
2532,"<img src=""portrait/BM1.jpg""style=""height:400px;""></img>",4,html-button-response,33,156692,0.0-3.1-13.1,77424,List1A,black,man,,TRUE,4,,,,,
null,CORRECT,,html-keyboard-response,34,158199,0.0-3.1-14.1-0.1,77424,List1A,black,man,,,,null,,,,
8217,"<img src=""portrait/WW1.jpg""style=""height:400px;""></img>",1,html-button-response,35,166423,0.0-3.1-16.1,77424,List1A,black,man,,TRUE,1,,,,,
null,CORRECT,,html-keyboard-response,36,167928,0.0-3.1-17.1-0.1,77424,List1A,black,man,,,,null,,,,
3724,"<img src=""portrait/BW1.jpg""style=""height:400px;""></img>",0,html-button-response,37,171655,0.0-3.1-19.1,77424,List1A,black,man,,TRUE,0,,,,,
null,CORRECT,,html-keyboard-response,38,173160,0.0-3.1-20.1-0.1,77424,List1A,black,man,,,,null,,,,
1417,"<img src=""portrait/BW2.jpg""style=""height:400px;""></img>",2,html-button-response,39,174582,0.0-3.1-22.1,77424,List1A,black,man,,TRUE,2,,,,,
null,CORRECT,,html-keyboard-response,40,176088,0.0-3.1-23.1-0.1,77424,List1A,black,man,,,,null,,,,
1357,<p>You got 8 out of 8 right first time. Press Continue.</p>,0,html-button-response,41,177448,0.0-3.1-25.1,77424,List1A,black,man,,,,,,,,
53538,"<p>In this experiment, you will view photographs of the people from the memory game interacting.</p><p>By using the <strong>exact</strong> phrase given <i>after</i> the photograph appears and recalling the correct names of the people in the photographs, form a sentence describing the interaction. You do not need to capitalise names.</p><p>Type your answer in the space provided. Please complete every sentence before moving onto the next trial.</p><p>You will only have a few seconds to memorise each given photograph and phrase before you can respond, so try your best to focus.</p><p>An example is given below. Press 'Continue' when you are ready.</p><img src='img/speaking_example.jpg' style='width:800px;height:460px;''></img>",0,html-button-response,42,231994,0.0-4.0,77424,List1A,black,man,,,,,,,,
2538,"<p>Before the experiment starts, you will watch two example trials. Press 'Continue'.</p>",0,html-button-response,43,235537,0.0-5.0,77424,List1A,black,man,,,,,,,,
null,<img src='img/meet_eg.gif' style='height:400px;''></img>,,html-keyboard-response,44,238543,0.0-6.0,77424,List1A,black,man,,,,null,,,,
null,<p>is meeting</p>,,html-keyboard-response,45,240547,0.0-7.0,77424,List1A,black,man,,,,null,,,,
3390,<p><b>Answer:</b> kate is meeting beth</p>,0,html-button-response,46,243939,0.0-8.0,77424,List1A,black,man,,,,,,,,
null,<img src='img/look_eg.gif' style='height:400px;''></img>,,html-keyboard-response,47,246945,0.0-9.0,77424,List1A,black,man,,,,null,,,,
null,<p>are looking at each other</p>,,html-keyboard-response,48,248949,0.0-10.0,77424,List1A,black,man,,,,null,,,,
3838,<p><b>Answer:</b> luke and dave are looking at each other</p>,0,html-button-response,49,252790,0.0-11.0,77424,List1A,black,man,,,,,,,,
20355,"<p>Ready to start the experiment?</p><br><p><strong>Remember to describe the picture using a full sentence,</strong></p><p><strong>that combines the names of the people with the <i>exact</i> phrase given.</strong></p><p><strong>To receive full payment you must do this correctly.</strong></p><p><strong> You do not need to capitalise names or use punctuation.</strong></p><br><p>Press 'Continue' to begin.</p>",0,html-button-response,50,274151,0.0-12.0,77424,List1A,black,man,,,,,,,,
null,"<div style=""font-size:60px;"">+</div>",,html-keyboard-response,51,275657,0.0-13.0-0.0,77424,List1A,black,man,,,,null,,,,
null,"<img src=""stim_listA/flirt5.gif""style=""height:400px;""></stim_listA>",,html-keyboard-response,52,277664,0.0-13.0-1.0,77424,List1A,black,man,,,,null,,,,
null,is flirting with,,html-keyboard-response,53,279668,0.0-13.0-2.0,77424,List1A,black,man,,,,null,,,,
14061,,,survey-text,54,293735,0.0-13.0-3.0,77424,List1A,black,man,,,,,"{""Q0"":""fred is flirting with dave""}","<img src=""stim_listA/flirt5.gif""style=""height:400px;""></stim_listA>",is flirting with,
null,"<div style=""font-size:60px;"">+</div>",,html-keyboard-response,55,294240,0.0-13.0-0.1,77424,List1A,black,man,,,,null,,,,
null,"<img src=""stim_listA/talk3.gif""style=""height:400px;""></stim_listA>",,html-keyboard-response,56,296243,0.0-13.0-1.1,77424,List1A,black,man,,,,null,,,,
null,is talking to,,html-keyboard-response,57,298247,0.0-13.0-2.1,77424,List1A,black,man,,,,null,,,,
14402,,,survey-text,58,312651,0.0-13.0-3.1,77424,List1A,black,man,,,,,"{""Q0"":""luke is talking to jane""}","<img src=""stim_listA/talk3.gif""style=""height:400px;""></stim_listA>",is talking to,
null,"<div style=""font-size:60px;"">+</div>",,html-keyboard-response,59,313164,0.0-13.0-0.2,77424,List1A,black,man,,,,null,,,,
null,"<img src=""stim_listA/touch4.gif""style=""height:400px;""></stim_listA>",,html-keyboard-response,60,315169,0.0-13.0-1.2,77424,List1A,black,man,,,,null,,,,
null,are touching each other,,html-keyboard-response,61,317173,0.0-13.0-2.2,77424,List1A,black,man,,,,null,,,,
27290,,,survey-text,62,344467,0.0-13.0-3.2,77424,List1A,black,man,,,,,"{""Q0"":""luke and jane are touching each other""}","<img src=""stim_listA/touch4.gif""style=""height:400px;""></stim_listA>",are touching each other,
null,"<div style=""font-size:60px;"">+</div>",,html-keyboard-response,63,344973,0.0-13.0-0.3,77424,List1A,black,man,,,,null,,,,
null,"<img src=""stim_listA/argue8.gif""style=""height:400px;""></stim_listA>",,html-keyboard-response,64,346978,0.0-13.0-1.3,77424,List1A,black,man,,,,null,,,,
null,are arguing with each other,,html-keyboard-response,65,348990,0.0-13.0-2.3,77424,List1A,black,man,,,,null,,,,
18224,,,survey-text,66,367217,0.0-13.0-3.3,77424,List1A,black,man,,,,,"{""Q0"":""beth and ruth are arguing with each other""}","<img src=""stim_listA/argue8.gif""style=""height:400px;""></stim_listA>",are arguing with each other,
null,"<div style=""font-size:60px;"">+</div>",,html-keyboard-response,67,367722,0.0-13.0-0.4,77424,List1A,black,man,,,,null,,,,
null,"<img src=""stim_listA/dance1.gif""style=""height:400px;""></stim_listA>",,html-keyboard-response,68,369734,0.0-13.0-1.4,77424,List1A,black,man,,,,null,,,,
null,is dancing with,,html-keyboard-response,69,371738,0.0-13.0-2.4,77424,List1A,black,man,,,,null,,,,
13505,,,survey-text,70,385247,0.0-13.0-3.4,77424,List1A,black,man,,,,,"{""Q0"":""fred is dancing with kate""}","<img src=""stim_listA/dance1.gif""style=""height:400px;""></stim_listA>",is dancing with,
null,"<div style=""font-size:60px;"">+</div>",,html-keyboard-response,71,385752,0.0-13.0-0.5,77424,List1A,black,man,,,,null,,,,
null,"<img src=""stim_listA/flirt3.gif""style=""height:400px;""></stim_listA>",,html-keyboard-response,72,387756,0.0-13.0-1.5,77424,List1A,black,man,,,,null,,,,
null,is flirting with,,html-keyboard-response,73,389762,0.0-13.0-2.5,77424,List1A,black,man,,,,null,,,,
11238,,,survey-text,74,401004,0.0-13.0-3.5,77424,List1A,black,man,,,,,"{""Q0"":""luke is flirtng with ruth""}","<img src=""stim_listA/flirt3.gif""style=""height:400px;""></stim_listA>",is flirting with,
null,"<div style=""font-size:60px;"">+</div>",,html-keyboard-response,75,401509,0.0-13.0-0.6,77424,List1A,black,man,,,,null,,,,
null,"<img src=""stim_listA/kiss8.gif""style=""height:400px;""></stim_listA>",,html-keyboard-response,76,403514,0.0-13.0-1.6,77424,List1A,black,man,,,,null,,,,
null,are kissing each other,,html-keyboard-response,77,405518,0.0-13.0-2.6,77424,List1A,black,man,,,,null,,,,
15721,,,survey-text,78,421243,0.0-13.0-3.6,77424,List1A,black,man,,,,,"{""Q0"":""ruth and jane are kissing each other""}","<img src=""stim_listA/kiss8.gif""style=""height:400px;""></stim_listA>",are kissing each other,
null,"<div style=""font-size:60px;"">+</div>",,html-keyboard-response,79,421747,0.0-13.0-0.7,77424,List1A,black,man,,,,null,,,,
null,"<img src=""stim_listA/kiss5.gif""style=""height:400px;""></stim_listA>",,html-keyboard-response,80,423752,0.0-13.0-1.7,77424,List1A,black,man,,,,null,,,,
null,is kissing,,html-keyboard-response,81,425755,0.0-13.0-2.7,77424,List1A,black,man,,,,null,,,,
7933,,,survey-text,82,433694,0.0-13.0-3.7,77424,List1A,black,man,,,,,"{""Q0"":""fred is kissing luke""}","<img src=""stim_listA/kiss5.gif""style=""height:400px;""></stim_listA>",is kissing,
null,"<div style=""font-size:60px;"">+</div>",,html-keyboard-response,83,434198,0.0-13.0-0.8,77424,List1A,black,man,,,,null,,,,
null,"<img src=""stim_listA/play1.gif""style=""height:400px;""></stim_listA>",,html-keyboard-response,84,436203,0.0-13.0-1.8,77424,List1A,black,man,,,,null,,,,
null,is playing with,,html-keyboard-response,85,438206,0.0-13.0-2.8,77424,List1A,black,man,,,,null,,,,
11127,,,survey-text,86,449337,0.0-13.0-3.8,77424,List1A,black,man,,,,,"{""Q0"":""mike is playing with kate""}","<img src=""stim_listA/play1.gif""style=""height:400px;""></stim_listA>",is playing with,
null,"<div style=""font-size:60px;"">+</div>",,html-keyboard-response,87,449841,0.0-13.0-0.9,77424,List1A,black,man,,,,null,,,,
null,"<img src=""stim_listA/talk4.gif""style=""height:400px;""></stim_listA>",,html-keyboard-response,88,451846,0.0-13.0-1.9,77424,List1A,black,man,,,,null,,,,
null,are talking to each other,,html-keyboard-response,89,453848,0.0-13.0-2.9,77424,List1A,black,man,,,,null,,,,
11443,,,survey-text,90,465293,0.0-13.0-3.9,77424,List1A,black,man,,,,,"{""Q0"":""dave is talking to ruth""}","<img src=""stim_listA/talk4.gif""style=""height:400px;""></stim_listA>",are talking to each other,
null,"<div style=""font-size:60px;"">+</div>",,html-keyboard-response,91,465798,0.0-13.0-0.10,77424,List1A,black,man,,,,null,,,,
null,"<img src=""stim_listA/fight8.gif""style=""height:400px;""></stim_listA>",,html-keyboard-response,92,467805,0.0-13.0-1.10,77424,List1A,black,man,,,,null,,,,
null,are fighting each other,,html-keyboard-response,93,469810,0.0-13.0-2.10,77424,List1A,black,man,,,,null,,,,
14914,,,survey-text,94,484726,0.0-13.0-3.10,77424,List1A,black,man,,,,,"{""Q0"":""ruth and beth are fighting each other""}","<img src=""stim_listA/fight8.gif""style=""height:400px;""></stim_listA>",are fighting each other,
null,"<div style=""font-size:60px;"">+</div>",,html-keyboard-response,95,485232,0.0-13.0-0.11,77424,List1A,black,man,,,,null,,,,
null,"<img src=""stim_listA/shout1.gif""style=""height:400px;""></stim_listA>",,html-keyboard-response,96,487235,0.0-13.0-1.11,77424,List1A,black,man,,,,null,,,,
null,is shouting at,,html-keyboard-response,97,489239,0.0-13.0-2.11,77424,List1A,black,man,,,,null,,,,
8692,,,survey-text,98,497934,0.0-13.0-3.11,77424,List1A,black,man,,,,,"{""Q0"":""beth is shouting at fred""}","<img src=""stim_listA/shout1.gif""style=""height:400px;""></stim_listA>",is shouting at,
null,"<div style=""font-size:60px;"">+</div>",,html-keyboard-response,99,498438,0.0-13.0-0.12,77424,List1A,black,man,,,,null,,,,
null,"<img src=""stim_listA/fight2.gif""style=""height:400px;""></stim_listA>",,html-keyboard-response,100,500445,0.0-13.0-1.12,77424,List1A,black,man,,,,null,,,,
null,are fighting each other,,html-keyboard-response,101,502449,0.0-13.0-2.12,77424,List1A,black,man,,,,null,,,,
10601,,,survey-text,102,513054,0.0-13.0-3.12,77424,List1A,black,man,,,,,"{""Q0"":""beth and fred are fighting each other""}","<img src=""stim_listA/fight2.gif""style=""height:400px;""></stim_listA>",are fighting each other,
null,"<div style=""font-size:60px;"">+</div>",,html-keyboard-response,103,513559,0.0-13.0-0.13,77424,List1A,black,man,,,,null,,,,
null,"<img src=""stim_listA/shout2.gif""style=""height:400px;""></stim_listA>",,html-keyboard-response,104,515564,0.0-13.0-1.13,77424,List1A,black,man,,,,null,,,,
null,are shouting at each other,,html-keyboard-response,105,517567,0.0-13.0-2.13,77424,List1A,black,man,,,,null,,,,
18198,,,survey-text,106,535768,0.0-13.0-3.13,77424,List1A,black,man,,,,,"{""Q0"":""mike and kate are fighting each other""}","<img src=""stim_listA/shout2.gif""style=""height:400px;""></stim_listA>",are shouting at each other,
null,"<div style=""font-size:60px;"">+</div>",,html-keyboard-response,107,536273,0.0-13.0-0.14,77424,List1A,black,man,,,,null,,,,
null,"<img src=""stim_listA/shout8.gif""style=""height:400px;""></stim_listA>",,html-keyboard-response,108,538279,0.0-13.0-1.14,77424,List1A,black,man,,,,null,,,,
null,are shouting at each other,,html-keyboard-response,109,540283,0.0-13.0-2.14,77424,List1A,black,man,,,,null,,,,
12255,,,survey-text,110,552540,0.0-13.0-3.14,77424,List1A,black,man,,,,,"{""Q0"":""jane and kate are shouting at each other""}","<img src=""stim_listA/shout8.gif""style=""height:400px;""></stim_listA>",are shouting at each other,
null,"<div style=""font-size:60px;"">+</div>",,html-keyboard-response,111,553044,0.0-13.0-0.15,77424,List1A,black,man,,,,null,,,,
null,"<img src=""stim_listA/touch2.gif""style=""height:400px;""></stim_listA>",,html-keyboard-response,112,555049,0.0-13.0-1.15,77424,List1A,black,man,,,,null,,,,
null,are touching each other,,html-keyboard-response,113,557052,0.0-13.0-2.15,77424,List1A,black,man,,,,null,,,,
18460,,,survey-text,114,575515,0.0-13.0-3.15,77424,List1A,black,man,,,,,"{""Q0"":""fred and kate are touching each other""}","<img src=""stim_listA/touch2.gif""style=""height:400px;""></stim_listA>",are touching each other,
null,"<div style=""font-size:60px;"">+</div>",,html-keyboard-response,115,576018,0.0-13.0-0.16,77424,List1A,black,man,,,,null,,,,
null,"<img src=""stim_listA/marry7.gif""style=""height:400px;""></stim_listA>",,html-keyboard-response,116,578023,0.0-13.0-1.16,77424,List1A,black,man,,,,null,,,,
null,is marrying,,html-keyboard-response,117,580026,0.0-13.0-2.16,77424,List1A,black,man,,,,null,,,,
15940,,,survey-text,118,595970,0.0-13.0-3.16,77424,List1A,black,man,,,,,"{""Q0"":""jane is marrying beth""}","<img src=""stim_listA/marry7.gif""style=""height:400px;""></stim_listA>",is marrying,
null,"<div style=""font-size:60px;"">+</div>",,html-keyboard-response,119,596474,0.0-13.0-0.17,77424,List1A,black,man,,,,null,,,,
null,"<img src=""stim_listA/talk7.gif""style=""height:400px;""></stim_listA>",,html-keyboard-response,120,598480,0.0-13.0-1.17,77424,List1A,black,man,,,,null,,,,
null,is talking to,,html-keyboard-response,121,600483,0.0-13.0-2.17,77424,List1A,black,man,,,,null,,,,
10510,,,survey-text,122,610996,0.0-13.0-3.17,77424,List1A,black,man,,,,,"{""Q0"":""jane is talking to beth""}","<img src=""stim_listA/talk7.gif""style=""height:400px;""></stim_listA>",is talking to,
null,"<div style=""font-size:60px;"">+</div>",,html-keyboard-response,123,611500,0.0-13.0-0.18,77424,List1A,black,man,,,,null,,,,
null,"<img src=""stim_listA/play4.gif""style=""height:400px;""></stim_listA>",,html-keyboard-response,124,613506,0.0-13.0-1.18,77424,List1A,black,man,,,,null,,,,
null,are playing with each other,,html-keyboard-response,125,615508,0.0-13.0-2.18,77424,List1A,black,man,,,,null,,,,
18507,,,survey-text,126,634018,0.0-13.0-3.18,77424,List1A,black,man,,,,,"{""Q0"":""luke and jane are playing together""}","<img src=""stim_listA/play4.gif""style=""height:400px;""></stim_listA>",are playing with each other,
null,"<div style=""font-size:60px;"">+</div>",,html-keyboard-response,127,634522,0.0-13.0-0.19,77424,List1A,black,man,,,,null,,,,
null,"<img src=""stim_listA/touch6.gif""style=""height:400px;""></stim_listA>",,html-keyboard-response,128,636525,0.0-13.0-1.19,77424,List1A,black,man,,,,null,,,,
null,are touching each other,,html-keyboard-response,129,638528,0.0-13.0-2.19,77424,List1A,black,man,,,,null,,,,
13641,,,survey-text,130,652171,0.0-13.0-3.19,77424,List1A,black,man,,,,,"{""Q0"":""fred and luke are touching each other""}","<img src=""stim_listA/touch6.gif""style=""height:400px;""></stim_listA>",are touching each other,
42428,"<img src='img/portrait_matrix_list1.jpg' style='width:900px;height:500px;''></img><p>If you have memorised all the portraits and names and are ready to start, press Continue.</p><p><strong>Please note: Your memory of these faces will be tested 4 times during this experiment.</strong></p>",0,html-button-response,131,694603,0.0-14.0-0.0,77424,List1A,black,man,,,,,,,,
3605,"<img src=""portrait/WM2.jpg""style=""height:400px;""></img>",7,html-button-response,132,699214,0.0-14.0-1.0,77424,List1A,black,man,,TRUE,7,,,,,
null,CORRECT,,html-keyboard-response,133,700724,0.0-14.0-2.0-0.0,77424,List1A,black,man,,,,null,,,,
3217,"<img src=""portrait/BM2.jpg""style=""height:400px;""></img>",5,html-button-response,134,703947,0.0-14.0-4.0,77424,List1A,black,man,,TRUE,5,,,,,
null,CORRECT,,html-keyboard-response,135,705453,0.0-14.0-5.0-0.0,77424,List1A,black,man,,,,null,,,,
2861,"<img src=""portrait/BW2.jpg""style=""height:400px;""></img>",2,html-button-response,136,708318,0.0-14.0-7.0,77424,List1A,black,man,,TRUE,2,,,,,
null,CORRECT,,html-keyboard-response,137,709824,0.0-14.0-8.0-0.0,77424,List1A,black,man,,,,null,,,,
5324,"<img src=""portrait/BW1.jpg""style=""height:400px;""></img>",0,html-button-response,138,715153,0.0-14.0-10.0,77424,List1A,black,man,,TRUE,0,,,,,
null,CORRECT,,html-keyboard-response,139,716658,0.0-14.0-11.0-0.0,77424,List1A,black,man,,,,null,,,,
3106,"<img src=""portrait/BM1.jpg""style=""height:400px;""></img>",4,html-button-response,140,719767,0.0-14.0-13.0,77424,List1A,black,man,,TRUE,4,,,,,
null,CORRECT,,html-keyboard-response,141,721272,0.0-14.0-14.0-0.0,77424,List1A,black,man,,,,null,,,,
2899,"<img src=""portrait/WW1.jpg""style=""height:400px;""></img>",1,html-button-response,142,724176,0.0-14.0-16.0,77424,List1A,black,man,,TRUE,1,,,,,
null,CORRECT,,html-keyboard-response,143,725683,0.0-14.0-17.0-0.0,77424,List1A,black,man,,,,null,,,,
3853,"<img src=""portrait/WM1.jpg""style=""height:400px;""></img>",6,html-button-response,144,729541,0.0-14.0-19.0,77424,List1A,black,man,,TRUE,6,,,,,
null,CORRECT,,html-keyboard-response,145,731046,0.0-14.0-20.0-0.0,77424,List1A,black,man,,,,null,,,,
2606,"<img src=""portrait/WW2.jpg""style=""height:400px;""></img>",3,html-button-response,146,733657,0.0-14.0-22.0,77424,List1A,black,man,,TRUE,3,,,,,
null,CORRECT,,html-keyboard-response,147,735163,0.0-14.0-23.0-0.0,77424,List1A,black,man,,,,null,,,,
1975,<p>You got 8 out of 8 right first time. Press Continue.</p>,0,html-button-response,148,737142,0.0-14.0-25.0,77424,List1A,black,man,,,,,,,,
null,"<div style=""font-size:60px;"">+</div>",,html-keyboard-response,149,738649,0.0-15.0-0.0,77424,List1A,black,man,,,,null,,,,
null,"<img src=""stim_listA/kiss4.gif""style=""height:400px;""></stim_listA>",,html-keyboard-response,150,740655,0.0-15.0-1.0,77424,List1A,black,man,,,,null,,,,
null,are kissing each other,,html-keyboard-response,151,742659,0.0-15.0-2.0,77424,List1A,black,man,,,,null,,,,
26408,,,survey-text,152,769069,0.0-15.0-3.0,77424,List1A,black,man,,,,,"{""Q0"":""dave and jane are kissing each other""}","<img src=""stim_listA/kiss4.gif""style=""height:400px;""></stim_listA>",are kissing each other,
null,"<div style=""font-size:60px;"">+</div>",,html-keyboard-response,153,769573,0.0-15.0-0.1,77424,List1A,black,man,,,,null,,,,
null,"<img src=""stim_listA/dance3.gif""style=""height:400px;""></stim_listA>",,html-keyboard-response,154,771579,0.0-15.0-1.1,77424,List1A,black,man,,,,null,,,,
null,is dancing with,,html-keyboard-response,155,773582,0.0-15.0-2.1,77424,List1A,black,man,,,,null,,,,
14256,,,survey-text,156,787841,0.0-15.0-3.1,77424,List1A,black,man,,,,,"{""Q0"":""luke is dancing with jane""}","<img src=""stim_listA/dance3.gif""style=""height:400px;""></stim_listA>",is dancing with,
null,"<div style=""font-size:60px;"">+</div>",,html-keyboard-response,157,788343,0.0-15.0-0.2,77424,List1A,black,man,,,,null,,,,
null,"<img src=""stim_listA/play5.gif""style=""height:400px;""></stim_listA>",,html-keyboard-response,158,790346,0.0-15.0-1.2,77424,List1A,black,man,,,,null,,,,
null,is playing with,,html-keyboard-response,159,792349,0.0-15.0-2.2,77424,List1A,black,man,,,,null,,,,
14871,,,survey-text,160,807221,0.0-15.0-3.2,77424,List1A,black,man,,,,,"{""Q0"":""mike and dave are playing cards""}","<img src=""stim_listA/play5.gif""style=""height:400px;""></stim_listA>",is playing with,
null,"<div style=""font-size:60px;"">+</div>",,html-keyboard-response,161,807725,0.0-15.0-0.3,77424,List1A,black,man,,,,null,,,,
null,"<img src=""stim_listA/fight5.gif""style=""height:400px;""></stim_listA>",,html-keyboard-response,162,809728,0.0-15.0-1.3,77424,List1A,black,man,,,,null,,,,
null,is fighting,,html-keyboard-response,163,811730,0.0-15.0-2.3,77424,List1A,black,man,,,,null,,,,
20478,,,survey-text,164,832210,0.0-15.0-3.3,77424,List1A,black,man,,,,,"{""Q0"":""mike is fighting dave""}","<img src=""stim_listA/fight5.gif""style=""height:400px;""></stim_listA>",is fighting,
null,"<div style=""font-size:60px;"">+</div>",,html-keyboard-response,165,832713,0.0-15.0-0.4,77424,List1A,black,man,,,,null,,,,
null,"<img src=""stim_listA/fight6.gif""style=""height:400px;""></stim_listA>",,html-keyboard-response,166,834719,0.0-15.0-1.4,77424,List1A,black,man,,,,null,,,,
null,are fighting each other,,html-keyboard-response,167,836722,0.0-15.0-2.4,77424,List1A,black,man,,,,null,,,,
20408,,,survey-text,168,857133,0.0-15.0-3.4,77424,List1A,black,man,,,,,"{""Q0"":""luke and fred are fighting each other""}","<img src=""stim_listA/fight6.gif""style=""height:400px;""></stim_listA>",are fighting each other,
null,"<div style=""font-size:60px;"">+</div>",,html-keyboard-response,169,857639,0.0-15.0-0.5,77424,List1A,black,man,,,,null,,,,
null,"<img src=""stim_listA/argue7.gif""style=""height:400px;""></stim_listA>",,html-keyboard-response,170,859643,0.0-15.0-1.5,77424,List1A,black,man,,,,null,,,,
null,is arguing with,,html-keyboard-response,171,861645,0.0-15.0-2.5,77424,List1A,black,man,,,,null,,,,
18737,,,survey-text,172,880385,0.0-15.0-3.5,77424,List1A,black,man,,,,,"{""Q0"":""beth is arguing with jane""}","<img src=""stim_listA/argue7.gif""style=""height:400px;""></stim_listA>",is arguing with,
null,"<div style=""font-size:60px;"">+</div>",,html-keyboard-response,173,880888,0.0-15.0-0.6,77424,List1A,black,man,,,,null,,,,
null,"<img src=""stim_listA/marry2.gif""style=""height:400px;""></stim_listA>",,html-keyboard-response,174,882893,0.0-15.0-1.6,77424,List1A,black,man,,,,null,,,,
null,are marrying each other,,html-keyboard-response,175,884896,0.0-15.0-2.6,77424,List1A,black,man,,,,null,,,,
18528,,,survey-text,176,903426,0.0-15.0-3.6,77424,List1A,black,man,,,,,"{""Q0"":""fred and beth are marrying each other""}","<img src=""stim_listA/marry2.gif""style=""height:400px;""></stim_listA>",are marrying each other,
null,"<div style=""font-size:60px;"">+</div>",,html-keyboard-response,177,903928,0.0-15.0-0.7,77424,List1A,black,man,,,,null,,,,
null,"<img src=""stim_listA/fight3.gif""style=""height:400px;""></stim_listA>",,html-keyboard-response,178,905933,0.0-15.0-1.7,77424,List1A,black,man,,,,null,,,,
null,is fighting,,html-keyboard-response,179,907937,0.0-15.0-2.7,77424,List1A,black,man,,,,null,,,,
18031,,,survey-text,180,925972,0.0-15.0-3.7,77424,List1A,black,man,,,,,"{""Q0"":""dave is fighting jane""}","<img src=""stim_listA/fight3.gif""style=""height:400px;""></stim_listA>",is fighting,
null,"<div style=""font-size:60px;"">+</div>",,html-keyboard-response,181,926476,0.0-15.0-0.8,77424,List1A,black,man,,,,null,,,,
null,"<img src=""stim_listA/marry4.gif""style=""height:400px;""></stim_listA>",,html-keyboard-response,182,928481,0.0-15.0-1.8,77424,List1A,black,man,,,,null,,,,
null,are marrying each other,,html-keyboard-response,183,930484,0.0-15.0-2.8,77424,List1A,black,man,,,,null,,,,
36466,,,survey-text,184,966952,0.0-15.0-3.8,77424,List1A,black,man,,,,,"{""Q0"":""jane and dave are proposing""}","<img src=""stim_listA/marry4.gif""style=""height:400px;""></stim_listA>",are marrying each other,
null,"<div style=""font-size:60px;"">+</div>",,html-keyboard-response,185,967456,0.0-15.0-0.9,77424,List1A,black,man,,,,null,,,,
null,"<img src=""stim_listA/flirt4.gif""style=""height:400px;""></stim_listA>",,html-keyboard-response,186,969461,0.0-15.0-1.9,77424,List1A,black,man,,,,null,,,,
null,are flirting with each other,,html-keyboard-response,187,971465,0.0-15.0-2.9,77424,List1A,black,man,,,,null,,,,
19783,,,survey-text,188,991250,0.0-15.0-3.9,77424,List1A,black,man,,,,,"{""Q0"":""dave and jane are flirting with each other""}","<img src=""stim_listA/flirt4.gif""style=""height:400px;""></stim_listA>",are flirting with each other,
null,"<div style=""font-size:60px;"">+</div>",,html-keyboard-response,189,991755,0.0-15.0-0.10,77424,List1A,black,man,,,,null,,,,
null,"<img src=""stim_listA/touch1.gif""style=""height:400px;""></stim_listA>",,html-keyboard-response,190,993759,0.0-15.0-1.10,77424,List1A,black,man,,,,null,,,,
null,is touching,,html-keyboard-response,191,995761,0.0-15.0-2.10,77424,List1A,black,man,,,,null,,,,
23275,,,survey-text,192,1019037,0.0-15.0-3.10,77424,List1A,black,man,,,,,"{""Q0"":""mike is touching beth""}","<img src=""stim_listA/touch1.gif""style=""height:400px;""></stim_listA>",is touching,
null,"<div style=""font-size:60px;"">+</div>",,html-keyboard-response,193,1019540,0.0-15.0-0.11,77424,List1A,black,man,,,,null,,,,
null,"<img src=""stim_listA/argue3.gif""style=""height:400px;""></stim_listA>",,html-keyboard-response,194,1021544,0.0-15.0-1.11,77424,List1A,black,man,,,,null,,,,
null,is arguing with,,html-keyboard-response,195,1023547,0.0-15.0-2.11,77424,List1A,black,man,,,,null,,,,
15250,,,survey-text,196,1038801,0.0-15.0-3.11,77424,List1A,black,man,,,,,"{""Q0"":""dave is arguing with jane""}","<img src=""stim_listA/argue3.gif""style=""height:400px;""></stim_listA>",is arguing with,
null,"<div style=""font-size:60px;"">+</div>",,html-keyboard-response,197,1039306,0.0-15.0-0.12,77424,List1A,black,man,,,,null,,,,
null,"<img src=""stim_listA/flirt6.gif""style=""height:400px;""></stim_listA>",,html-keyboard-response,198,1041311,0.0-15.0-1.12,77424,List1A,black,man,,,,null,,,,
null,are flirting with each other,,html-keyboard-response,199,1043314,0.0-15.0-2.12,77424,List1A,black,man,,,,null,,,,
21463,,,survey-text,200,1064780,0.0-15.0-3.12,77424,List1A,black,man,,,,,"{""Q0"":""luke and mike are flirting with each other""}","<img src=""stim_listA/flirt6.gif""style=""height:400px;""></stim_listA>",are flirting with each other,
null,"<div style=""font-size:60px;"">+</div>",,html-keyboard-response,201,1065285,0.0-15.0-0.13,77424,List1A,black,man,,,,null,,,,
null,"<img src=""stim_listA/dance8.gif""style=""height:400px;""></stim_listA>",,html-keyboard-response,202,1067291,0.0-15.0-1.13,77424,List1A,black,man,,,,null,,,,
null,are dancing with each other,,html-keyboard-response,203,1069294,0.0-15.0-2.13,77424,List1A,black,man,,,,null,,,,
15406,,,survey-text,204,1084706,0.0-15.0-3.13,77424,List1A,black,man,,,,,"{""Q0"":""ruth and jane cant think""}","<img src=""stim_listA/dance8.gif""style=""height:400px;""></stim_listA>",are dancing with each other,
null,"<div style=""font-size:60px;"">+</div>",,html-keyboard-response,205,1085210,0.0-15.0-0.14,77424,List1A,black,man,,,,null,,,,
null,"<img src=""stim_listA/play2.gif""style=""height:400px;""></stim_listA>",,html-keyboard-response,206,1087217,0.0-15.0-1.14,77424,List1A,black,man,,,,null,,,,
null,are playing with each other,,html-keyboard-response,207,1089220,0.0-15.0-2.14,77424,List1A,black,man,,,,null,,,,
32061,,,survey-text,208,1121283,0.0-15.0-3.14,77424,List1A,black,man,,,,,"{""Q0"":""beth and ruth are playing together""}","<img src=""stim_listA/play2.gif""style=""height:400px;""></stim_listA>",are playing with each other,
null,"<div style=""font-size:60px;"">+</div>",,html-keyboard-response,209,1121786,0.0-15.0-0.15,77424,List1A,black,man,,,,null,,,,
null,"<img src=""stim_listA/dance2.gif""style=""height:400px;""></stim_listA>",,html-keyboard-response,210,1123791,0.0-15.0-1.15,77424,List1A,black,man,,,,null,,,,
null,are dancing with each other,,html-keyboard-response,211,1125797,0.0-15.0-2.15,77424,List1A,black,man,,,,null,,,,
15856,,,survey-text,212,1141656,0.0-15.0-3.15,77424,List1A,black,man,,,,,"{""Q0"":""beth and mike are dancing with each other""}","<img src=""stim_listA/dance2.gif""style=""height:400px;""></stim_listA>",are dancing with each other,
null,"<div style=""font-size:60px;"">+</div>",,html-keyboard-response,213,1142162,0.0-15.0-0.16,77424,List1A,black,man,,,,null,,,,
null,"<img src=""stim_listA/kiss7.gif""style=""height:400px;""></stim_listA>",,html-keyboard-response,214,1144167,0.0-15.0-1.16,77424,List1A,black,man,,,,null,,,,
null,is kissing,,html-keyboard-response,215,1146170,0.0-15.0-2.16,77424,List1A,black,man,,,,null,,,,
10267,,,survey-text,216,1156441,0.0-15.0-3.16,77424,List1A,black,man,,,,,"{""Q0"":""beth is kissng ruth""}","<img src=""stim_listA/kiss7.gif""style=""height:400px;""></stim_listA>",is kissing,
null,"<div style=""font-size:60px;"">+</div>",,html-keyboard-response,217,1156945,0.0-15.0-0.17,77424,List1A,black,man,,,,null,,,,
null,"<img src=""stim_listA/play7.gif""style=""height:400px;""></stim_listA>",,html-keyboard-response,218,1158950,0.0-15.0-1.17,77424,List1A,black,man,,,,null,,,,
null,is playing with,,html-keyboard-response,219,1160954,0.0-15.0-2.17,77424,List1A,black,man,,,,null,,,,
13419,,,survey-text,220,1174375,0.0-15.0-3.17,77424,List1A,black,man,,,,,"{""Q0"":""jane is playing with kate""}","<img src=""stim_listA/play7.gif""style=""height:400px;""></stim_listA>",is playing with,
null,"<div style=""font-size:60px;"">+</div>",,html-keyboard-response,221,1174880,0.0-15.0-0.18,77424,List1A,black,man,,,,null,,,,
null,"<img src=""stim_listA/play8.gif""style=""height:400px;""></stim_listA>",,html-keyboard-response,222,1176884,0.0-15.0-1.18,77424,List1A,black,man,,,,null,,,,
null,are playing with each other,,html-keyboard-response,223,1178888,0.0-15.0-2.18,77424,List1A,black,man,,,,null,,,,
24405,,,survey-text,224,1203297,0.0-15.0-3.18,77424,List1A,black,man,,,,,"{""Q0"":""beth and ruth are playing with each other""}","<img src=""stim_listA/play8.gif""style=""height:400px;""></stim_listA>",are playing with each other,
null,"<div style=""font-size:60px;"">+</div>",,html-keyboard-response,225,1203801,0.0-15.0-0.19,77424,List1A,black,man,,,,null,,,,
null,"<img src=""stim_listA/shout7.gif""style=""height:400px;""></stim_listA>",,html-keyboard-response,226,1205809,0.0-15.0-1.19,77424,List1A,black,man,,,,null,,,,
null,is shouting at,,html-keyboard-response,227,1207815,0.0-15.0-2.19,77424,List1A,black,man,,,,null,,,,
16201,,,survey-text,228,1224019,0.0-15.0-3.19,77424,List1A,black,man,,,,,"{""Q0"":""beth and ruth are arguing with each other""}","<img src=""stim_listA/shout7.gif""style=""height:400px;""></stim_listA>",is shouting at,
8431,"<img src='img/portrait_matrix_list1.jpg' style='width:900px;height:500px;''></img><p>If you have memorised all the portraits and names and are ready to start, press Continue.</p><p><strong>Please note: Your memory of these faces will be tested 4 times during this experiment.</strong></p>",0,html-button-response,229,1232458,0.0-16.0-0.0,77424,List1A,black,man,,,,,,,,
3762,"<img src=""portrait/WW2.jpg""style=""height:400px;""></img>",7,html-button-response,230,1237228,0.0-16.0-1.0,77424,List1A,black,man,,TRUE,3,,,,,
6926,"<img src=""portrait/WW2.jpg""style=""height:400px;""></img>",3,html-button-response,231,1245161,0.0-16.0-3.0-0.0,77424,List1A,black,man,,FALSE,3,,,,,
null,CORRECT,,html-keyboard-response,232,1246667,0.0-16.0-3.0-1.0-0.0,77424,List1A,black,man,,,,null,,,,
5846,"<img src=""portrait/WM2.jpg""style=""height:400px;""></img>",7,html-button-response,233,1252521,0.0-16.0-4.0,77424,List1A,black,man,,TRUE,7,,,,,
null,CORRECT,,html-keyboard-response,234,1254026,0.0-16.0-5.0-0.0,77424,List1A,black,man,,,,null,,,,
6718,"<img src=""portrait/BW1.jpg""style=""height:400px;""></img>",4,html-button-response,235,1260749,0.0-16.0-7.0,77424,List1A,black,man,,TRUE,0,,,,,
2994,"<img src=""portrait/BW1.jpg""style=""height:400px;""></img>",0,html-button-response,236,1264752,0.0-16.0-9.0-0.0,77424,List1A,black,man,,FALSE,0,,,,,
null,CORRECT,,html-keyboard-response,237,1266257,0.0-16.0-9.0-1.0-0.0,77424,List1A,black,man,,,,null,,,,
6307,"<img src=""portrait/WW1.jpg""style=""height:400px;""></img>",0,html-button-response,238,1272571,0.0-16.0-10.0,77424,List1A,black,man,,TRUE,1,,,,,
5515,"<img src=""portrait/WW1.jpg""style=""height:400px;""></img>",1,html-button-response,239,1279094,0.0-16.0-12.0-0.0,77424,List1A,black,man,,FALSE,1,,,,,
null,CORRECT,,html-keyboard-response,240,1280600,0.0-16.0-12.0-1.0-0.0,77424,List1A,black,man,,,,null,,,,
4711,"<img src=""portrait/WM1.jpg""style=""height:400px;""></img>",6,html-button-response,241,1285319,0.0-16.0-13.0,77424,List1A,black,man,,TRUE,6,,,,,
null,CORRECT,,html-keyboard-response,242,1286825,0.0-16.0-14.0-0.0,77424,List1A,black,man,,,,null,,,,
4120,"<img src=""portrait/BW2.jpg""style=""height:400px;""></img>",2,html-button-response,243,1290955,0.0-16.0-16.0,77424,List1A,black,man,,TRUE,2,,,,,
null,CORRECT,,html-keyboard-response,244,1292461,0.0-16.0-17.0-0.0,77424,List1A,black,man,,,,null,,,,
7934,"<img src=""portrait/BM2.jpg""style=""height:400px;""></img>",5,html-button-response,245,1300408,0.0-16.0-19.0,77424,List1A,black,man,,TRUE,5,,,,,
null,CORRECT,,html-keyboard-response,246,1301914,0.0-16.0-20.0-0.0,77424,List1A,black,man,,,,null,,,,
11241,"<img src=""portrait/BM1.jpg""style=""height:400px;""></img>",4,html-button-response,247,1313160,0.0-16.0-22.0,77424,List1A,black,man,,TRUE,4,,,,,
null,CORRECT,,html-keyboard-response,248,1314666,0.0-16.0-23.0-0.0,77424,List1A,black,man,,,,null,,,,
4313,<p>You got 5 out of 8 right first time. Press Continue.</p>,0,html-button-response,249,1318985,0.0-16.0-25.0,77424,List1A,black,man,,,,,,,,
2988,"As you did not score 100%, the memory game will repeat. Press Continue.",0,html-button-response,250,1322977,0.0-16.0-26.0-0.0,77424,List1A,black,man,,,,,,,,
2241,"<img src='img/portrait_matrix_list1.jpg' style='width:900px;height:500px;''></img><p>If you have memorised all the portraits and names and are ready to start, press Continue.</p><p><strong>Please note: Your memory of these faces will be tested 4 times during this experiment.</strong></p>",0,html-button-response,251,1326226,0.0-16.1-0.1,77424,List1A,black,man,,,,,,,,
18869,"<img src=""portrait/WW2.jpg""style=""height:400px;""></img>",3,html-button-response,252,1346105,0.0-16.1-1.1,77424,List1A,black,man,,TRUE,3,,,,,
null,CORRECT,,html-keyboard-response,253,1347610,0.0-16.1-2.1-0.1,77424,List1A,black,man,,,,null,,,,
12590,"<img src=""portrait/WM2.jpg""style=""height:400px;""></img>",7,html-button-response,254,1360203,0.0-16.1-4.1,77424,List1A,black,man,,TRUE,7,,,,,
null,CORRECT,,html-keyboard-response,255,1361709,0.0-16.1-5.1-0.1,77424,List1A,black,man,,,,null,,,,
20714,"<img src=""portrait/BW1.jpg""style=""height:400px;""></img>",0,html-button-response,256,1382427,0.0-16.1-7.1,77424,List1A,black,man,,TRUE,0,,,,,
null,CORRECT,,html-keyboard-response,257,1383931,0.0-16.1-8.1-0.1,77424,List1A,black,man,,,,null,,,,
16374,"<img src=""portrait/WW1.jpg""style=""height:400px;""></img>",1,html-button-response,258,1400309,0.0-16.1-10.1,77424,List1A,black,man,,TRUE,1,,,,,
null,CORRECT,,html-keyboard-response,259,1401815,0.0-16.1-11.1-0.1,77424,List1A,black,man,,,,null,,,,
3588,"<img src=""portrait/WM1.jpg""style=""height:400px;""></img>",6,html-button-response,260,1405408,0.0-16.1-13.1,77424,List1A,black,man,,TRUE,6,,,,,
null,CORRECT,,html-keyboard-response,261,1406914,0.0-16.1-14.1-0.1,77424,List1A,black,man,,,,null,,,,
15387,"<img src=""portrait/BW2.jpg""style=""height:400px;""></img>",2,html-button-response,262,1422305,0.0-16.1-16.1,77424,List1A,black,man,,TRUE,2,,,,,
null,CORRECT,,html-keyboard-response,263,1423811,0.0-16.1-17.1-0.1,77424,List1A,black,man,,,,null,,,,
2696,"<img src=""portrait/BM2.jpg""style=""height:400px;""></img>",5,html-button-response,264,1426513,0.0-16.1-19.1,77424,List1A,black,man,,TRUE,5,,,,,
null,CORRECT,,html-keyboard-response,265,1428020,0.0-16.1-20.1-0.1,77424,List1A,black,man,,,,null,,,,
19661,"<img src=""portrait/BM1.jpg""style=""height:400px;""></img>",4,html-button-response,266,1447685,0.0-16.1-22.1,77424,List1A,black,man,,TRUE,4,,,,,
null,CORRECT,,html-keyboard-response,267,1449192,0.0-16.1-23.1-0.1,77424,List1A,black,man,,,,null,,,,
1792,<p>You got 8 out of 8 right first time. Press Continue.</p>,0,html-button-response,268,1450989,0.0-16.1-25.1,77424,List1A,black,man,,,,,,,,
null,"<div style=""font-size:60px;"">+</div>",,html-keyboard-response,269,1452495,0.0-17.0-0.0,77424,List1A,black,man,,,,null,,,,
null,"<img src=""stim_listA/touch5.gif""style=""height:400px;""></stim_listA>",,html-keyboard-response,270,1454501,0.0-17.0-1.0,77424,List1A,black,man,,,,null,,,,
null,is touching,,html-keyboard-response,271,1456505,0.0-17.0-2.0,77424,List1A,black,man,,,,null,,,,
28463,,,survey-text,272,1484972,0.0-17.0-3.0,77424,List1A,black,man,,,,,"{""Q0"":""jane and beth are waving wat each other""}","<img src=""stim_listA/touch5.gif""style=""height:400px;""></stim_listA>",is touching,
null,"<div style=""font-size:60px;"">+</div>",,html-keyboard-response,273,1485477,0.0-17.0-0.1,77424,List1A,black,man,,,,null,,,,
null,"<img src=""stim_listA/argue1.gif""style=""height:400px;""></stim_listA>",,html-keyboard-response,274,1487482,0.0-17.0-1.1,77424,List1A,black,man,,,,null,,,,
null,is arguing with,,html-keyboard-response,275,1489485,0.0-17.0-2.1,77424,List1A,black,man,,,,null,,,,
15226,,,survey-text,276,1504713,0.0-17.0-3.1,77424,List1A,black,man,,,,,"{""Q0"":""mike is arguing with beth""}","<img src=""stim_listA/argue1.gif""style=""height:400px;""></stim_listA>",is arguing with,
null,"<div style=""font-size:60px;"">+</div>",,html-keyboard-response,277,1505217,0.0-17.0-0.2,77424,List1A,black,man,,,,null,,,,
null,"<img src=""stim_listA/dance4.gif""style=""height:400px;""></stim_listA>",,html-keyboard-response,278,1507238,0.0-17.0-1.2,77424,List1A,black,man,,,,null,,,,
null,are dancing with each other,,html-keyboard-response,279,1509242,0.0-17.0-2.2,77424,List1A,black,man,,,,null,,,,
22106,,,survey-text,280,1531351,0.0-17.0-3.2,77424,List1A,black,man,,,,,"{""Q0"":""dave is dancing with jane""}","<img src=""stim_listA/dance4.gif""style=""height:400px;""></stim_listA>",are dancing with each other,
null,"<div style=""font-size:60px;"">+</div>",,html-keyboard-response,281,1531856,0.0-17.0-0.3,77424,List1A,black,man,,,,null,,,,
null,"<img src=""stim_listA/play3.gif""style=""height:400px;""></stim_listA>",,html-keyboard-response,282,1533860,0.0-17.0-1.3,77424,List1A,black,man,,,,null,,,,
null,is playing with,,html-keyboard-response,283,1535864,0.0-17.0-2.3,77424,List1A,black,man,,,,null,,,,
11492,,,survey-text,284,1547358,0.0-17.0-3.3,77424,List1A,black,man,,,,,"{""Q0"":""dave is playing cards with jane""}","<img src=""stim_listA/play3.gif""style=""height:400px;""></stim_listA>",is playing with,
null,"<div style=""font-size:60px;"">+</div>",,html-keyboard-response,285,1547863,0.0-17.0-0.4,77424,List1A,black,man,,,,null,,,,
null,"<img src=""stim_listA/play6.gif""style=""height:400px;""></stim_listA>",,html-keyboard-response,286,1549867,0.0-17.0-1.4,77424,List1A,black,man,,,,null,,,,
null,are playing with each other,,html-keyboard-response,287,1551872,0.0-17.0-2.4,77424,List1A,black,man,,,,null,,,,
12685,,,survey-text,288,1564561,0.0-17.0-3.4,77424,List1A,black,man,,,,,"{""Q0"":""kate is takking to jane""}","<img src=""stim_listA/play6.gif""style=""height:400px;""></stim_listA>",are playing with each other,
null,"<div style=""font-size:60px;"">+</div>",,html-keyboard-response,289,1565065,0.0-17.0-0.5,77424,List1A,black,man,,,,null,,,,
null,"<img src=""stim_listA/flirt1.gif""style=""height:400px;""></stim_listA>",,html-keyboard-response,290,1567071,0.0-17.0-1.5,77424,List1A,black,man,,,,null,,,,
null,is flirting with,,html-keyboard-response,291,1569075,0.0-17.0-2.5,77424,List1A,black,man,,,,null,,,,
15181,,,survey-text,292,1584260,0.0-17.0-3.5,77424,List1A,black,man,,,,,"{""Q0"":""fred is fliritng with ruth""}","<img src=""stim_listA/flirt1.gif""style=""height:400px;""></stim_listA>",is flirting with,
null,"<div style=""font-size:60px;"">+</div>",,html-keyboard-response,293,1584765,0.0-17.0-0.6,77424,List1A,black,man,,,,null,,,,
null,"<img src=""stim_listA/flirt2.gif""style=""height:400px;""></stim_listA>",,html-keyboard-response,294,1586771,0.0-17.0-1.6,77424,List1A,black,man,,,,null,,,,
null,are flirting with each other,,html-keyboard-response,295,1588774,0.0-17.0-2.6,77424,List1A,black,man,,,,null,,,,
53293,,,survey-text,296,1642070,0.0-17.0-3.6,77424,List1A,black,man,,,,,"{""Q0"":""mike and beth are fliiritng with each other""}","<img src=""stim_listA/flirt2.gif""style=""height:400px;""></stim_listA>",are flirting with each other,
null,"<div style=""font-size:60px;"">+</div>",,html-keyboard-response,297,1642576,0.0-17.0-0.7,77424,List1A,black,man,,,,null,,,,
null,"<img src=""stim_listA/talk5.gif""style=""height:400px;""></stim_listA>",,html-keyboard-response,298,1644580,0.0-17.0-1.7,77424,List1A,black,man,,,,null,,,,
null,is talking to,,html-keyboard-response,299,1646583,0.0-17.0-2.7,77424,List1A,black,man,,,,null,,,,
7199,,,survey-text,300,1653786,0.0-17.0-3.7,77424,List1A,black,man,,,,,"{""Q0"":""dave is talking to fred""}","<img src=""stim_listA/talk5.gif""style=""height:400px;""></stim_listA>",is talking to,
null,"<div style=""font-size:60px;"">+</div>",,html-keyboard-response,301,1654290,0.0-17.0-0.8,77424,List1A,black,man,,,,null,,,,
null,"<img src=""stim_listA/dance7.gif""style=""height:400px;""></stim_listA>",,html-keyboard-response,302,1656292,0.0-17.0-1.8,77424,List1A,black,man,,,,null,,,,
null,is dancing with,,html-keyboard-response,303,1658294,0.0-17.0-2.8,77424,List1A,black,man,,,,null,,,,
15788,,,survey-text,304,1674084,0.0-17.0-3.8,77424,List1A,black,man,,,,,"{""Q0"":""jane is dancing with beth""}","<img src=""stim_listA/dance7.gif""style=""height:400px;""></stim_listA>",is dancing with,
null,"<div style=""font-size:60px;"">+</div>",,html-keyboard-response,305,1674588,0.0-17.0-0.9,77424,List1A,black,man,,,,null,,,,
null,"<img src=""stim_listA/kiss1.gif""style=""height:400px;""></stim_listA>",,html-keyboard-response,306,1676592,0.0-17.0-1.9,77424,List1A,black,man,,,,null,,,,
null,is kissing,,html-keyboard-response,307,1678596,0.0-17.0-2.9,77424,List1A,black,man,,,,null,,,,
25516,,,survey-text,308,1704117,0.0-17.0-3.9,77424,List1A,black,man,,,,,"{""Q0"":""fred is kissing beth""}","<img src=""stim_listA/kiss1.gif""style=""height:400px;""></stim_listA>",is kissing,
null,"<div style=""font-size:60px;"">+</div>",,html-keyboard-response,309,1704621,0.0-17.0-0.10,77424,List1A,black,man,,,,null,,,,
null,"<img src=""stim_listA/shout6.gif""style=""height:400px;""></stim_listA>",,html-keyboard-response,310,1706626,0.0-17.0-1.10,77424,List1A,black,man,,,,null,,,,
null,are shouting at each other,,html-keyboard-response,311,1708629,0.0-17.0-2.10,77424,List1A,black,man,,,,null,,,,
13202,,,survey-text,312,1721835,0.0-17.0-3.10,77424,List1A,black,man,,,,,"{""Q0"":""dave and mike are fighing""}","<img src=""stim_listA/shout6.gif""style=""height:400px;""></stim_listA>",are shouting at each other,
null,"<div style=""font-size:60px;"">+</div>",,html-keyboard-response,313,1722339,0.0-17.0-0.11,77424,List1A,black,man,,,,null,,,,
null,"<img src=""stim_listA/shout5.gif""style=""height:400px;""></stim_listA>",,html-keyboard-response,314,1724345,0.0-17.0-1.11,77424,List1A,black,man,,,,null,,,,
null,is shouting at,,html-keyboard-response,315,1726350,0.0-17.0-2.11,77424,List1A,black,man,,,,null,,,,
37432,,,survey-text,316,1763785,0.0-17.0-3.11,77424,List1A,black,man,,,,,"{""Q0"":""luke is shouting at fred""}","<img src=""stim_listA/shout5.gif""style=""height:400px;""></stim_listA>",is shouting at,
null,"<div style=""font-size:60px;"">+</div>",,html-keyboard-response,317,1764289,0.0-17.0-0.12,77424,List1A,black,man,,,,null,,,,
null,"<img src=""stim_listA/flirt7.gif""style=""height:400px;""></stim_listA>",,html-keyboard-response,318,1766294,0.0-17.0-1.12,77424,List1A,black,man,,,,null,,,,
null,is flirting with,,html-keyboard-response,319,1768298,0.0-17.0-2.12,77424,List1A,black,man,,,,null,,,,
12229,,,survey-text,320,1780533,0.0-17.0-3.12,77424,List1A,black,man,,,,,"{""Q0"":""kate is flirting with jane""}","<img src=""stim_listA/flirt7.gif""style=""height:400px;""></stim_listA>",is flirting with,
null,"<div style=""font-size:60px;"">+</div>",,html-keyboard-response,321,1781038,0.0-17.0-0.13,77424,List1A,black,man,,,,null,,,,
null,"<img src=""stim_listA/marry5.gif""style=""height:400px;""></stim_listA>",,html-keyboard-response,322,1783043,0.0-17.0-1.13,77424,List1A,black,man,,,,null,,,,
null,is marrying,,html-keyboard-response,323,1785049,0.0-17.0-2.13,77424,List1A,black,man,,,,null,,,,
91578,,,survey-text,324,1876631,0.0-17.0-3.13,77424,List1A,black,man,,,,,"{""Q0"":""luke is marring dave""}","<img src=""stim_listA/marry5.gif""style=""height:400px;""></stim_listA>",is marrying,
null,"<div style=""font-size:60px;"">+</div>",,html-keyboard-response,325,1877138,0.0-17.0-0.14,77424,List1A,black,man,,,,null,,,,
null,"<img src=""stim_listA/dance6.gif""style=""height:400px;""></stim_listA>",,html-keyboard-response,326,1879144,0.0-17.0-1.14,77424,List1A,black,man,,,,null,,,,
null,are dancing with each other,,html-keyboard-response,327,1881148,0.0-17.0-2.14,77424,List1A,black,man,,,,null,,,,
13720,,,survey-text,328,1894872,0.0-17.0-3.14,77424,List1A,black,man,,,,,"{""Q0"":""luke and dave are dancing with each other""}","<img src=""stim_listA/dance6.gif""style=""height:400px;""></stim_listA>",are dancing with each other,
null,"<div style=""font-size:60px;"">+</div>",,html-keyboard-response,329,1895376,0.0-17.0-0.15,77424,List1A,black,man,,,,null,,,,
null,"<img src=""stim_listA/shout3.gif""style=""height:400px;""></stim_listA>",,html-keyboard-response,330,1897382,0.0-17.0-1.15,77424,List1A,black,man,,,,null,,,,
null,is shouting at,,html-keyboard-response,331,1899385,0.0-17.0-2.15,77424,List1A,black,man,,,,null,,,,
18236,,,survey-text,332,1917624,0.0-17.0-3.15,77424,List1A,black,man,,,,,"{""Q0"":""luke is arguing with jane""}","<img src=""stim_listA/shout3.gif""style=""height:400px;""></stim_listA>",is shouting at,
null,"<div style=""font-size:60px;"">+</div>",,html-keyboard-response,333,1918126,0.0-17.0-0.16,77424,List1A,black,man,,,,null,,,,
null,"<img src=""stim_listA/talk6.gif""style=""height:400px;""></stim_listA>",,html-keyboard-response,334,1920132,0.0-17.0-1.16,77424,List1A,black,man,,,,null,,,,
null,are talking to each other,,html-keyboard-response,335,1922136,0.0-17.0-2.16,77424,List1A,black,man,,,,null,,,,
15539,,,survey-text,336,1937678,0.0-17.0-3.16,77424,List1A,black,man,,,,,"{""Q0"":""luke and mike are talking to each other""}","<img src=""stim_listA/talk6.gif""style=""height:400px;""></stim_listA>",are talking to each other,
null,"<div style=""font-size:60px;"">+</div>",,html-keyboard-response,337,1938182,0.0-17.0-0.17,77424,List1A,black,man,,,,null,,,,
null,"<img src=""stim_listA/fight1.gif""style=""height:400px;""></stim_listA>",,html-keyboard-response,338,1940190,0.0-17.0-1.17,77424,List1A,black,man,,,,null,,,,
null,is fighting,,html-keyboard-response,339,1942194,0.0-17.0-2.17,77424,List1A,black,man,,,,null,,,,
7787,,,survey-text,340,1949986,0.0-17.0-3.17,77424,List1A,black,man,,,,,"{""Q0"":""kate is fighting mike""}","<img src=""stim_listA/fight1.gif""style=""height:400px;""></stim_listA>",is fighting,
null,"<div style=""font-size:60px;"">+</div>",,html-keyboard-response,341,1950491,0.0-17.0-0.18,77424,List1A,black,man,,,,null,,,,
null,"<img src=""stim_listA/talk2.gif""style=""height:400px;""></stim_listA>",,html-keyboard-response,342,1952495,0.0-17.0-1.18,77424,List1A,black,man,,,,null,,,,
null,are talking to each other,,html-keyboard-response,343,1954498,0.0-17.0-2.18,77424,List1A,black,man,,,,null,,,,
17707,,,survey-text,344,1972207,0.0-17.0-3.18,77424,List1A,black,man,,,,,"{""Q0"":""beth and kate are talking to each other""}","<img src=""stim_listA/talk2.gif""style=""height:400px;""></stim_listA>",are talking to each other,
null,"<div style=""font-size:60px;"">+</div>",,html-keyboard-response,345,1972711,0.0-17.0-0.19,77424,List1A,black,man,,,,null,,,,
null,"<img src=""stim_listA/marry6.gif""style=""height:400px;""></stim_listA>",,html-keyboard-response,346,1974717,0.0-17.0-1.19,77424,List1A,black,man,,,,null,,,,
null,are marrying each other,,html-keyboard-response,347,1976719,0.0-17.0-2.19,77424,List1A,black,man,,,,null,,,,
9913,,,survey-text,348,1986636,0.0-17.0-3.19,77424,List1A,black,man,,,,,"{""Q0"":""dave and fred are marrying each other""}","<img src=""stim_listA/marry6.gif""style=""height:400px;""></stim_listA>",are marrying each other,
33296,"<img src='img/portrait_matrix_list1.jpg' style='width:900px;height:500px;''></img><p>If you have memorised all the portraits and names and are ready to start, press Continue.</p><p><strong>Please note: Your memory of these faces will be tested 4 times during this experiment.</strong></p>",0,html-button-response,349,2019939,0.0-18.0-0.0,77424,List1A,black,man,,,,,,,,
3822,"<img src=""portrait/BM2.jpg""style=""height:400px;""></img>",5,html-button-response,350,2024769,0.0-18.0-1.0,77424,List1A,black,man,,TRUE,5,,,,,
null,CORRECT,,html-keyboard-response,351,2026276,0.0-18.0-2.0-0.0,77424,List1A,black,man,,,,null,,,,
2678,"<img src=""portrait/WM2.jpg""style=""height:400px;""></img>",7,html-button-response,352,2028960,0.0-18.0-4.0,77424,List1A,black,man,,TRUE,7,,,,,
null,CORRECT,,html-keyboard-response,353,2030468,0.0-18.0-5.0-0.0,77424,List1A,black,man,,,,null,,,,
3530,"<img src=""portrait/BW2.jpg""style=""height:400px;""></img>",2,html-button-response,354,2034002,0.0-18.0-7.0,77424,List1A,black,man,,TRUE,2,,,,,
null,CORRECT,,html-keyboard-response,355,2035508,0.0-18.0-8.0-0.0,77424,List1A,black,man,,,,null,,,,
2760,"<img src=""portrait/WW1.jpg""style=""height:400px;""></img>",1,html-button-response,356,2038271,0.0-18.0-10.0,77424,List1A,black,man,,TRUE,1,,,,,
null,CORRECT,,html-keyboard-response,357,2039776,0.0-18.0-11.0-0.0,77424,List1A,black,man,,,,null,,,,
2624,"<img src=""portrait/WW2.jpg""style=""height:400px;""></img>",3,html-button-response,358,2042406,0.0-18.0-13.0,77424,List1A,black,man,,TRUE,3,,,,,
null,CORRECT,,html-keyboard-response,359,2043912,0.0-18.0-14.0-0.0,77424,List1A,black,man,,,,null,,,,
2581,"<img src=""portrait/BM1.jpg""style=""height:400px;""></img>",4,html-button-response,360,2046500,0.0-18.0-16.0,77424,List1A,black,man,,TRUE,4,,,,,
null,CORRECT,,html-keyboard-response,361,2048007,0.0-18.0-17.0-0.0,77424,List1A,black,man,,,,null,,,,
6989,"<img src=""portrait/BW1.jpg""style=""height:400px;""></img>",0,html-button-response,362,2055001,0.0-18.0-19.0,77424,List1A,black,man,,TRUE,0,,,,,
null,CORRECT,,html-keyboard-response,363,2056507,0.0-18.0-20.0-0.0,77424,List1A,black,man,,,,null,,,,
3496,"<img src=""portrait/WM1.jpg""style=""height:400px;""></img>",6,html-button-response,364,2060008,0.0-18.0-22.0,77424,List1A,black,man,,TRUE,6,,,,,
null,CORRECT,,html-keyboard-response,365,2061514,0.0-18.0-23.0-0.0,77424,List1A,black,man,,,,null,,,,
2375,<p>You got 8 out of 8 right first time. Press Continue.</p>,0,html-button-response,366,2063893,0.0-18.0-25.0,77424,List1A,black,man,,,,,,,,
null,"<div style=""font-size:60px;"">+</div>",,html-keyboard-response,367,2065400,0.0-19.0-0.0,77424,List1A,black,man,,,,null,,,,
null,"<img src=""stim_listA/argue6.gif""style=""height:400px;""></stim_listA>",,html-keyboard-response,368,2067406,0.0-19.0-1.0,77424,List1A,black,man,,,,null,,,,
null,are arguing with each other,,html-keyboard-response,369,2069409,0.0-19.0-2.0,77424,List1A,black,man,,,,null,,,,
12563,,,survey-text,370,2081974,0.0-19.0-3.0,77424,List1A,black,man,,,,,"{""Q0"":""fred and ruth are arguing with each other""}","<img src=""stim_listA/argue6.gif""style=""height:400px;""></stim_listA>",are arguing with each other,
null,"<div style=""font-size:60px;"">+</div>",,html-keyboard-response,371,2082477,0.0-19.0-0.1,77424,List1A,black,man,,,,null,,,,
null,"<img src=""stim_listA/marry8.gif""style=""height:400px;""></stim_listA>",,html-keyboard-response,372,2084481,0.0-19.0-1.1,77424,List1A,black,man,,,,null,,,,
null,are marrying each other,,html-keyboard-response,373,2086484,0.0-19.0-2.1,77424,List1A,black,man,,,,null,,,,
13112,,,survey-text,374,2099600,0.0-19.0-3.1,77424,List1A,black,man,,,,,"{""Q0"":""jane and beth are marrying each other""}","<img src=""stim_listA/marry8.gif""style=""height:400px;""></stim_listA>",are marrying each other,
null,"<div style=""font-size:60px;"">+</div>",,html-keyboard-response,375,2100105,0.0-19.0-0.2,77424,List1A,black,man,,,,null,,,,
null,"<img src=""stim_listA/touch3.gif""style=""height:400px;""></stim_listA>",,html-keyboard-response,376,2102109,0.0-19.0-1.2,77424,List1A,black,man,,,,null,,,,
null,is touching,,html-keyboard-response,377,2104120,0.0-19.0-2.2,77424,List1A,black,man,,,,null,,,,
6766,,,survey-text,378,2110890,0.0-19.0-3.2,77424,List1A,black,man,,,,,"{""Q0"":""dave is touching jane""}","<img src=""stim_listA/touch3.gif""style=""height:400px;""></stim_listA>",is touching,
null,"<div style=""font-size:60px;"">+</div>",,html-keyboard-response,379,2111396,0.0-19.0-0.3,77424,List1A,black,man,,,,null,,,,
null,"<img src=""stim_listA/marry3.gif""style=""height:400px;""></stim_listA>",,html-keyboard-response,380,2113402,0.0-19.0-1.3,77424,List1A,black,man,,,,null,,,,
null,is marrying,,html-keyboard-response,381,2115405,0.0-19.0-2.3,77424,List1A,black,man,,,,null,,,,
9274,,,survey-text,382,2124683,0.0-19.0-3.3,77424,List1A,black,man,,,,,"{""Q0"":""ruth is marrying dave""}","<img src=""stim_listA/marry3.gif""style=""height:400px;""></stim_listA>",is marrying,
null,"<div style=""font-size:60px;"">+</div>",,html-keyboard-response,383,2125189,0.0-19.0-0.4,77424,List1A,black,man,,,,null,,,,
null,"<img src=""stim_listA/dance5.gif""style=""height:400px;""></stim_listA>",,html-keyboard-response,384,2127197,0.0-19.0-1.4,77424,List1A,black,man,,,,null,,,,
null,is dancing with,,html-keyboard-response,385,2129200,0.0-19.0-2.4,77424,List1A,black,man,,,,null,,,,
134240,,,survey-text,386,2263444,0.0-19.0-3.4,77424,List1A,black,man,,,,,"{""Q0"":""fred is dancing with dave""}","<img src=""stim_listA/dance5.gif""style=""height:400px;""></stim_listA>",is dancing with,
null,"<div style=""font-size:60px;"">+</div>",,html-keyboard-response,387,2263948,0.0-19.0-0.5,77424,List1A,black,man,,,,null,,,,
null,"<img src=""stim_listA/kiss6.gif""style=""height:400px;""></stim_listA>",,html-keyboard-response,388,2265952,0.0-19.0-1.5,77424,List1A,black,man,,,,null,,,,
null,are kissing each other,,html-keyboard-response,389,2267956,0.0-19.0-2.5,77424,List1A,black,man,,,,null,,,,
11841,,,survey-text,390,2279801,0.0-19.0-3.5,77424,List1A,black,man,,,,,"{""Q0"":""dave is kissing mike""}","<img src=""stim_listA/kiss6.gif""style=""height:400px;""></stim_listA>",are kissing each other,
null,"<div style=""font-size:60px;"">+</div>",,html-keyboard-response,391,2280307,0.0-19.0-0.6,77424,List1A,black,man,,,,null,,,,
null,"<img src=""stim_listA/fight4.gif""style=""height:400px;""></stim_listA>",,html-keyboard-response,392,2282312,0.0-19.0-1.6,77424,List1A,black,man,,,,null,,,,
null,are fighting each other,,html-keyboard-response,393,2284315,0.0-19.0-2.6,77424,List1A,black,man,,,,null,,,,
49079,,,survey-text,394,2333397,0.0-19.0-3.6,77424,List1A,black,man,,,,,"{""Q0"":""jane and luke are fighting each other""}","<img src=""stim_listA/fight4.gif""style=""height:400px;""></stim_listA>",are fighting each other,
null,"<div style=""font-size:60px;"">+</div>",,html-keyboard-response,395,2333903,0.0-19.0-0.7,77424,List1A,black,man,,,,null,,,,
null,"<img src=""stim_listA/argue2.gif""style=""height:400px;""></stim_listA>",,html-keyboard-response,396,2335908,0.0-19.0-1.7,77424,List1A,black,man,,,,null,,,,
null,are arguing with each other,,html-keyboard-response,397,2337912,0.0-19.0-2.7,77424,List1A,black,man,,,,null,,,,
12998,,,survey-text,398,2350914,0.0-19.0-3.7,77424,List1A,black,man,,,,,"{""Q0"":""mike and kate are arguing""}","<img src=""stim_listA/argue2.gif""style=""height:400px;""></stim_listA>",are arguing with each other,
null,"<div style=""font-size:60px;"">+</div>",,html-keyboard-response,399,2351421,0.0-19.0-0.8,77424,List1A,black,man,,,,null,,,,
null,"<img src=""stim_listA/talk1.gif""style=""height:400px;""></stim_listA>",,html-keyboard-response,400,2353425,0.0-19.0-1.8,77424,List1A,black,man,,,,null,,,,
null,is talking to,,html-keyboard-response,401,2355428,0.0-19.0-2.8,77424,List1A,black,man,,,,null,,,,
9010,,,survey-text,402,2364441,0.0-19.0-3.8,77424,List1A,black,man,,,,,"{""Q0"":""fred and beth are arguing""}","<img src=""stim_listA/talk1.gif""style=""height:400px;""></stim_listA>",is talking to,
null,"<div style=""font-size:60px;"">+</div>",,html-keyboard-response,403,2364943,0.0-19.0-0.9,77424,List1A,black,man,,,,null,,,,
null,"<img src=""stim_listA/flirt8.gif""style=""height:400px;""></stim_listA>",,html-keyboard-response,404,2366949,0.0-19.0-1.9,77424,List1A,black,man,,,,null,,,,
null,are flirting with each other,,html-keyboard-response,405,2368953,0.0-19.0-2.9,77424,List1A,black,man,,,,null,,,,
10547,,,survey-text,406,2379503,0.0-19.0-3.9,77424,List1A,black,man,,,,,"{""Q0"":""jane is flirting with kate""}","<img src=""stim_listA/flirt8.gif""style=""height:400px;""></stim_listA>",are flirting with each other,
null,"<div style=""font-size:60px;"">+</div>",,html-keyboard-response,407,2380008,0.0-19.0-0.10,77424,List1A,black,man,,,,null,,,,
null,"<img src=""stim_listA/talk8.gif""style=""height:400px;""></stim_listA>",,html-keyboard-response,408,2382013,0.0-19.0-1.10,77424,List1A,black,man,,,,null,,,,
null,are talking to each other,,html-keyboard-response,409,2384018,0.0-19.0-2.10,77424,List1A,black,man,,,,null,,,,
13261,,,survey-text,410,2397283,0.0-19.0-3.10,77424,List1A,black,man,,,,,"{""Q0"":""jane and kate are talking to each other""}","<img src=""stim_listA/talk8.gif""style=""height:400px;""></stim_listA>",are talking to each other,
null,"<div style=""font-size:60px;"">+</div>",,html-keyboard-response,411,2397787,0.0-19.0-0.11,77424,List1A,black,man,,,,null,,,,
null,"<img src=""stim_listA/argue4.gif""style=""height:400px;""></stim_listA>",,html-keyboard-response,412,2399792,0.0-19.0-1.11,77424,List1A,black,man,,,,null,,,,
null,are arguing with each other,,html-keyboard-response,413,2401795,0.0-19.0-2.11,77424,List1A,black,man,,,,null,,,,
13944,,,survey-text,414,2415741,0.0-19.0-3.11,77424,List1A,black,man,,,,,"{""Q0"":""luke and jane are arguing with each other""}","<img src=""stim_listA/argue4.gif""style=""height:400px;""></stim_listA>",are arguing with each other,
null,"<div style=""font-size:60px;"">+</div>",,html-keyboard-response,415,2416246,0.0-19.0-0.12,77424,List1A,black,man,,,,null,,,,
null,"<img src=""stim_listA/shout4.gif""style=""height:400px;""></stim_listA>",,html-keyboard-response,416,2418252,0.0-19.0-1.12,77424,List1A,black,man,,,,null,,,,
null,are shouting at each other,,html-keyboard-response,417,2420254,0.0-19.0-2.12,77424,List1A,black,man,,,,null,,,,
17371,,,survey-text,418,2437630,0.0-19.0-3.12,77424,List1A,black,man,,,,,"{""Q0"":""jane and dave are shouting at each other""}","<img src=""stim_listA/shout4.gif""style=""height:400px;""></stim_listA>",are shouting at each other,
null,"<div style=""font-size:60px;"">+</div>",,html-keyboard-response,419,2438134,0.0-19.0-0.13,77424,List1A,black,man,,,,null,,,,
null,"<img src=""stim_listA/argue5.gif""style=""height:400px;""></stim_listA>",,html-keyboard-response,420,2440140,0.0-19.0-1.13,77424,List1A,black,man,,,,null,,,,
null,is arguing with,,html-keyboard-response,421,2442143,0.0-19.0-2.13,77424,List1A,black,man,,,,null,,,,
8117,,,survey-text,422,2450264,0.0-19.0-3.13,77424,List1A,black,man,,,,,"{""Q0"":""mike is arguing with luke""}","<img src=""stim_listA/argue5.gif""style=""height:400px;""></stim_listA>",is arguing with,
null,"<div style=""font-size:60px;"">+</div>",,html-keyboard-response,423,2450769,0.0-19.0-0.14,77424,List1A,black,man,,,,null,,,,
null,"<img src=""stim_listA/touch7.gif""style=""height:400px;""></stim_listA>",,html-keyboard-response,424,2452774,0.0-19.0-1.14,77424,List1A,black,man,,,,null,,,,
null,is touching,,html-keyboard-response,425,2454778,0.0-19.0-2.14,77424,List1A,black,man,,,,null,,,,
10103,,,survey-text,426,2464884,0.0-19.0-3.14,77424,List1A,black,man,,,,,"{""Q0"":""jane is touching kate""}","<img src=""stim_listA/touch7.gif""style=""height:400px;""></stim_listA>",is touching,
null,"<div style=""font-size:60px;"">+</div>",,html-keyboard-response,427,2465389,0.0-19.0-0.15,77424,List1A,black,man,,,,null,,,,
null,"<img src=""stim_listA/marry1.gif""style=""height:400px;""></stim_listA>",,html-keyboard-response,428,2467394,0.0-19.0-1.15,77424,List1A,black,man,,,,null,,,,
null,is marrying,,html-keyboard-response,429,2469397,0.0-19.0-2.15,77424,List1A,black,man,,,,null,,,,
7132,,,survey-text,430,2476532,0.0-19.0-3.15,77424,List1A,black,man,,,,,"{""Q0"":""mike is marring beth""}","<img src=""stim_listA/marry1.gif""style=""height:400px;""></stim_listA>",is marrying,
null,"<div style=""font-size:60px;"">+</div>",,html-keyboard-response,431,2477036,0.0-19.0-0.16,77424,List1A,black,man,,,,null,,,,
null,"<img src=""stim_listA/touch8.gif""style=""height:400px;""></stim_listA>",,html-keyboard-response,432,2479041,0.0-19.0-1.16,77424,List1A,black,man,,,,null,,,,
null,are touching each other,,html-keyboard-response,433,2481046,0.0-19.0-2.16,77424,List1A,black,man,,,,null,,,,
9679,,,survey-text,434,2490728,0.0-19.0-3.16,77424,List1A,black,man,,,,,"{""Q0"":""jane and beth are touching each other""}","<img src=""stim_listA/touch8.gif""style=""height:400px;""></stim_listA>",are touching each other,
null,"<div style=""font-size:60px;"">+</div>",,html-keyboard-response,435,2491235,0.0-19.0-0.17,77424,List1A,black,man,,,,null,,,,
null,"<img src=""stim_listA/fight7.gif""style=""height:400px;""></stim_listA>",,html-keyboard-response,436,2493240,0.0-19.0-1.17,77424,List1A,black,man,,,,null,,,,
null,is fighting,,html-keyboard-response,437,2495243,0.0-19.0-2.17,77424,List1A,black,man,,,,null,,,,
8560,,,survey-text,438,2503807,0.0-19.0-3.17,77424,List1A,black,man,,,,,"{""Q0"":""jane is fighting kate""}","<img src=""stim_listA/fight7.gif""style=""height:400px;""></stim_listA>",is fighting,
null,"<div style=""font-size:60px;"">+</div>",,html-keyboard-response,439,2504313,0.0-19.0-0.18,77424,List1A,black,man,,,,null,,,,
null,"<img src=""stim_listA/kiss3.gif""style=""height:400px;""></stim_listA>",,html-keyboard-response,440,2506319,0.0-19.0-1.18,77424,List1A,black,man,,,,null,,,,
null,is kissing,,html-keyboard-response,441,2508322,0.0-19.0-2.18,77424,List1A,black,man,,,,null,,,,
6304,,,survey-text,442,2514632,0.0-19.0-3.18,77424,List1A,black,man,,,,,"{""Q0"":""luke is kissing jane""}","<img src=""stim_listA/kiss3.gif""style=""height:400px;""></stim_listA>",is kissing,
null,"<div style=""font-size:60px;"">+</div>",,html-keyboard-response,443,2515137,0.0-19.0-0.19,77424,List1A,black,man,,,,null,,,,
null,"<img src=""stim_listA/kiss2.gif""style=""height:400px;""></stim_listA>",,html-keyboard-response,444,2517146,0.0-19.0-1.19,77424,List1A,black,man,,,,null,,,,
null,are kissing each other,,html-keyboard-response,445,2519149,0.0-19.0-2.19,77424,List1A,black,man,,,,null,,,,
11149,,,survey-text,446,2530300,0.0-19.0-3.19,77424,List1A,black,man,,,,,"{""Q0"":""mike and kate are kissing each other""}","<img src=""stim_listA/kiss2.gif""style=""height:400px;""></stim_listA>",are kissing each other,
3622,<p>Thank you for completing that task.</p><p>The final part of this session is a short questionnaire.</p><p>Press Continue.</p>,0,html-button-response,447,2533926,0.0-20.0,77424,List1A,black,man,,,,,,,,
36665,,,survey-text,448,2571598,0.0-21.0,77424,List1A,black,man,,,,,"{""Q0"":""21"",""Q1"":""English"",""Q2"":""English"",""Q3"":""Ireland"",""Q4"":""Black"",""Q5"":""Male""}",,,demographics
9977,,,survey-likert,449,2581594,0.0-22.0,77424,List1A,black,man,,,,,"{""Q0"":3}",,,likert_ESS
20145,,,survey-likert,450,2601747,0.0-23.0,77424,List1A,black,man,,,,,"{""Q0"":1}",,,likert_NSSAL_Q1
9346,,,survey-likert,451,2611102,0.0-24.0,77424,List1A,black,man,,,,,"{""Q0"":2}",,,likert_NSSAL_Q2
9990,,,survey-likert,452,2621103,0.0-25.0,77424,List1A,black,man,,,,,"{""Q0"":3}",,,likert_CGRS_Q1
4654,,,survey-likert,453,2625764,0.0-26.0,77424,List1A,black,man,,,,,"{""Q0"":3}",,,likert_CGRS_Q2
4092,,,survey-likert,454,2629860,0.0-27.0,77424,List1A,black,man,,,,,"{""Q0"":3}",,,likert_CGRS_Q3
16231,,,survey-text,455,2646099,0.0-28.0,77424,List1A,black,man,,,,,"{""Q0"":""ccc""}",,,worker_id
6989,,,external-html,456,2653506,0.0-29.0,77424,List1A,black,man,debrief.html,,,,,,,
