rt,stimulus,button_pressed,trial_type,trial_index,time_elapsed,internal_node_id,subject,list,ppt_race,ppt_gender,url,first_guess,correct,key_press,responses,image_type,phrase_type,test_part
335034,Welcome to the experiment. Press Continue to begin.,0,html-button-response,0,335053,0.0-0.0,775,List2A,white,woman,,,,,,,,
8934,,,external-html,1,345120,0.0-1.0,775,List2A,white,woman,consent.html,,,,,,,
308481,"<p>On the next page, you will see portraits of 8 people and their names.</p><p>Your first task is to take a few minutes to memorise the names of these people.</p><p>You will have to recall their names during the rest of the experiment, so it is</p><p>essential that you try to memorise these people and their names as best as you can.</p><br><p><strong>You will then be tested on your memory of these names and portraits.</strong></p><br><p>The experiment will start after you have completed this memory test.</p><br><p>Ready?</p>",0,html-button-response,2,653607,0.0-2.0,775,List2A,white,woman,,,,,,,,
13428,"<img src='img/portrait_matrix_list2.jpg' style='width:900px;height:500px;''></img><p>If you have memorised all the portraits and names and are ready to start, press Continue.</p><p><strong>Please note: Your memory of these faces will be tested 4 times during this experiment.</strong></p>",0,html-button-response,3,668044,0.0-3.0-0.0,775,List2A,white,woman,,,,,,,,
16191,"<img src=""portrait/WW2.jpg""style=""height:400px;""></img>",4,html-button-response,4,685246,0.0-3.0-1.0,775,List2A,white,woman,,TRUE,3,,,,,
7920,"<img src=""portrait/WW2.jpg""style=""height:400px;""></img>",3,html-button-response,5,694176,0.0-3.0-3.0-0.0,775,List2A,white,woman,,FALSE,3,,,,,
null,CORRECT,,html-keyboard-response,6,695687,0.0-3.0-3.0-1.0-0.0,775,List2A,white,woman,,,,null,,,,
2679,"<img src=""portrait/BM2.jpg""style=""height:400px;""></img>",5,html-button-response,7,698372,0.0-3.0-4.0,775,List2A,white,woman,,TRUE,5,,,,,
null,CORRECT,,html-keyboard-response,8,699880,0.0-3.0-5.0-0.0,775,List2A,white,woman,,,,null,,,,
7924,"<img src=""portrait/BM1.jpg""style=""height:400px;""></img>",6,html-button-response,9,707809,0.0-3.0-7.0,775,List2A,white,woman,,TRUE,4,,,,,
3661,"<img src=""portrait/BM1.jpg""style=""height:400px;""></img>",4,html-button-response,10,712481,0.0-3.0-9.0-0.0,775,List2A,white,woman,,FALSE,4,,,,,
null,CORRECT,,html-keyboard-response,11,713993,0.0-3.0-9.0-1.0-0.0,775,List2A,white,woman,,,,null,,,,
3231,"<img src=""portrait/BW2.jpg""style=""height:400px;""></img>",1,html-button-response,12,717229,0.0-3.0-10.0,775,List2A,white,woman,,TRUE,2,,,,,
2350,"<img src=""portrait/BW2.jpg""style=""height:400px;""></img>",2,html-button-response,13,720589,0.0-3.0-12.0-0.0,775,List2A,white,woman,,FALSE,2,,,,,
null,CORRECT,,html-keyboard-response,14,722099,0.0-3.0-12.0-1.0-0.0,775,List2A,white,woman,,,,null,,,,
3256,"<img src=""portrait/WW1.jpg""style=""height:400px;""></img>",3,html-button-response,15,725360,0.0-3.0-13.0,775,List2A,white,woman,,TRUE,1,,,,,
2517,"<img src=""portrait/WW1.jpg""style=""height:400px;""></img>",1,html-button-response,16,728888,0.0-3.0-15.0-0.0,775,List2A,white,woman,,FALSE,1,,,,,
null,CORRECT,,html-keyboard-response,17,730397,0.0-3.0-15.0-1.0-0.0,775,List2A,white,woman,,,,null,,,,
4522,"<img src=""portrait/WM2.jpg""style=""height:400px;""></img>",7,html-button-response,18,734926,0.0-3.0-16.0,775,List2A,white,woman,,TRUE,7,,,,,
null,CORRECT,,html-keyboard-response,19,736433,0.0-3.0-17.0-0.0,775,List2A,white,woman,,,,null,,,,
5159,"<img src=""portrait/BW1.jpg""style=""height:400px;""></img>",2,html-button-response,20,741596,0.0-3.0-19.0,775,List2A,white,woman,,TRUE,0,,,,,
3768,"<img src=""portrait/BW1.jpg""style=""height:400px;""></img>",0,html-button-response,21,746371,0.0-3.0-21.0-0.0,775,List2A,white,woman,,FALSE,0,,,,,
null,CORRECT,,html-keyboard-response,22,747880,0.0-3.0-21.0-1.0-0.0,775,List2A,white,woman,,,,null,,,,
2972,"<img src=""portrait/WM1.jpg""style=""height:400px;""></img>",6,html-button-response,23,750855,0.0-3.0-22.0,775,List2A,white,woman,,TRUE,6,,,,,
null,CORRECT,,html-keyboard-response,24,752361,0.0-3.0-23.0-0.0,775,List2A,white,woman,,,,null,,,,
2229,<p>You got 3 out of 8 right first time. Press Continue.</p>,0,html-button-response,25,754595,0.0-3.0-25.0,775,List2A,white,woman,,,,,,,,
3533,"As you did not score 100%, the memory game will repeat. Press Continue.",0,html-button-response,26,759136,0.0-3.0-26.0-0.0,775,List2A,white,woman,,,,,,,,
15270,"<img src='img/portrait_matrix_list2.jpg' style='width:900px;height:500px;''></img><p>If you have memorised all the portraits and names and are ready to start, press Continue.</p><p><strong>Please note: Your memory of these faces will be tested 4 times during this experiment.</strong></p>",0,html-button-response,27,775415,0.0-3.1-0.1,775,List2A,white,woman,,,,,,,,
4926,"<img src=""portrait/WW2.jpg""style=""height:400px;""></img>",2,html-button-response,28,781351,0.0-3.1-1.1,775,List2A,white,woman,,TRUE,3,,,,,
1883,"<img src=""portrait/WW2.jpg""style=""height:400px;""></img>",3,html-button-response,29,784244,0.0-3.1-3.1-0.1,775,List2A,white,woman,,FALSE,3,,,,,
null,CORRECT,,html-keyboard-response,30,785751,0.0-3.1-3.1-1.1-0.1,775,List2A,white,woman,,,,null,,,,
1550,"<img src=""portrait/BM2.jpg""style=""height:400px;""></img>",5,html-button-response,31,787305,0.0-3.1-4.1,775,List2A,white,woman,,TRUE,5,,,,,
null,CORRECT,,html-keyboard-response,32,788810,0.0-3.1-5.1-0.1,775,List2A,white,woman,,,,null,,,,
3212,"<img src=""portrait/BM1.jpg""style=""height:400px;""></img>",4,html-button-response,33,792027,0.0-3.1-7.1,775,List2A,white,woman,,TRUE,4,,,,,
null,CORRECT,,html-keyboard-response,34,793538,0.0-3.1-8.1-0.1,775,List2A,white,woman,,,,null,,,,
2039,"<img src=""portrait/BW2.jpg""style=""height:400px;""></img>",2,html-button-response,35,795582,0.0-3.1-10.1,775,List2A,white,woman,,TRUE,2,,,,,
null,CORRECT,,html-keyboard-response,36,797090,0.0-3.1-11.1-0.1,775,List2A,white,woman,,,,null,,,,
3809,"<img src=""portrait/WW1.jpg""style=""height:400px;""></img>",1,html-button-response,37,800903,0.0-3.1-13.1,775,List2A,white,woman,,TRUE,1,,,,,
null,CORRECT,,html-keyboard-response,38,802409,0.0-3.1-14.1-0.1,775,List2A,white,woman,,,,null,,,,
2260,"<img src=""portrait/WM2.jpg""style=""height:400px;""></img>",7,html-button-response,39,804671,0.0-3.1-16.1,775,List2A,white,woman,,TRUE,7,,,,,
null,CORRECT,,html-keyboard-response,40,806177,0.0-3.1-17.1-0.1,775,List2A,white,woman,,,,null,,,,
5121,"<img src=""portrait/BW1.jpg""style=""height:400px;""></img>",0,html-button-response,41,811303,0.0-3.1-19.1,775,List2A,white,woman,,TRUE,0,,,,,
null,CORRECT,,html-keyboard-response,42,812811,0.0-3.1-20.1-0.1,775,List2A,white,woman,,,,null,,,,
4166,"<img src=""portrait/WM1.jpg""style=""height:400px;""></img>",6,html-button-response,43,816983,0.0-3.1-22.1,775,List2A,white,woman,,TRUE,6,,,,,
null,CORRECT,,html-keyboard-response,44,818490,0.0-3.1-23.1-0.1,775,List2A,white,woman,,,,null,,,,
3355,<p>You got 7 out of 8 right first time. Press Continue.</p>,0,html-button-response,45,821852,0.0-3.1-25.1,775,List2A,white,woman,,,,,,,,
1235,"As you did not score 100%, the memory game will repeat. Press Continue.",0,html-button-response,46,824094,0.0-3.1-26.1-0.1,775,List2A,white,woman,,,,,,,,
4531,"<img src='img/portrait_matrix_list2.jpg' style='width:900px;height:500px;''></img><p>If you have memorised all the portraits and names and are ready to start, press Continue.</p><p><strong>Please note: Your memory of these faces will be tested 4 times during this experiment.</strong></p>",0,html-button-response,47,829633,0.0-3.2-0.2,775,List2A,white,woman,,,,,,,,
1794,"<img src=""portrait/WW2.jpg""style=""height:400px;""></img>",3,html-button-response,48,832435,0.0-3.2-1.2,775,List2A,white,woman,,TRUE,3,,,,,
null,CORRECT,,html-keyboard-response,49,833941,0.0-3.2-2.2-0.2,775,List2A,white,woman,,,,null,,,,
2154,"<img src=""portrait/BM2.jpg""style=""height:400px;""></img>",5,html-button-response,50,836101,0.0-3.2-4.2,775,List2A,white,woman,,TRUE,5,,,,,
null,CORRECT,,html-keyboard-response,51,837610,0.0-3.2-5.2-0.2,775,List2A,white,woman,,,,null,,,,
2761,"<img src=""portrait/BM1.jpg""style=""height:400px;""></img>",4,html-button-response,52,840376,0.0-3.2-7.2,775,List2A,white,woman,,TRUE,4,,,,,
null,CORRECT,,html-keyboard-response,53,841916,0.0-3.2-8.2-0.2,775,List2A,white,woman,,,,null,,,,
3319,"<img src=""portrait/BW2.jpg""style=""height:400px;""></img>",2,html-button-response,54,845244,0.0-3.2-10.2,775,List2A,white,woman,,TRUE,2,,,,,
null,CORRECT,,html-keyboard-response,55,846761,0.0-3.2-11.2-0.2,775,List2A,white,woman,,,,null,,,,
2896,"<img src=""portrait/WW1.jpg""style=""height:400px;""></img>",1,html-button-response,56,849660,0.0-3.2-13.2,775,List2A,white,woman,,TRUE,1,,,,,
null,CORRECT,,html-keyboard-response,57,851166,0.0-3.2-14.2-0.2,775,List2A,white,woman,,,,null,,,,
4490,"<img src=""portrait/WM2.jpg""style=""height:400px;""></img>",7,html-button-response,58,855660,0.0-3.2-16.2,775,List2A,white,woman,,TRUE,7,,,,,
null,CORRECT,,html-keyboard-response,59,857170,0.0-3.2-17.2-0.2,775,List2A,white,woman,,,,null,,,,
3893,"<img src=""portrait/BW1.jpg""style=""height:400px;""></img>",2,html-button-response,60,861067,0.0-3.2-19.2,775,List2A,white,woman,,TRUE,0,,,,,
2323,"<img src=""portrait/BW1.jpg""style=""height:400px;""></img>",0,html-button-response,61,864397,0.0-3.2-21.2-0.2,775,List2A,white,woman,,FALSE,0,,,,,
null,CORRECT,,html-keyboard-response,62,865903,0.0-3.2-21.2-1.2-0.2,775,List2A,white,woman,,,,null,,,,
2379,"<img src=""portrait/WM1.jpg""style=""height:400px;""></img>",6,html-button-response,63,868288,0.0-3.2-22.2,775,List2A,white,woman,,TRUE,6,,,,,
null,CORRECT,,html-keyboard-response,64,869794,0.0-3.2-23.2-0.2,775,List2A,white,woman,,,,null,,,,
959,<p>You got 7 out of 8 right first time. Press Continue.</p>,0,html-button-response,65,870757,0.0-3.2-25.2,775,List2A,white,woman,,,,,,,,
1581,"As you did not score 100%, the memory game will repeat. Press Continue.",0,html-button-response,66,873344,0.0-3.2-26.2-0.2,775,List2A,white,woman,,,,,,,,
4077,"<img src='img/portrait_matrix_list2.jpg' style='width:900px;height:500px;''></img><p>If you have memorised all the portraits and names and are ready to start, press Continue.</p><p><strong>Please note: Your memory of these faces will be tested 4 times during this experiment.</strong></p>",0,html-button-response,67,878428,0.0-3.3-0.3,775,List2A,white,woman,,,,,,,,
1721,"<img src=""portrait/WW2.jpg""style=""height:400px;""></img>",3,html-button-response,68,881156,0.0-3.3-1.3,775,List2A,white,woman,,TRUE,3,,,,,
null,CORRECT,,html-keyboard-response,69,882666,0.0-3.3-2.3-0.3,775,List2A,white,woman,,,,null,,,,
2117,"<img src=""portrait/BM2.jpg""style=""height:400px;""></img>",5,html-button-response,70,884788,0.0-3.3-4.3,775,List2A,white,woman,,TRUE,5,,,,,
null,CORRECT,,html-keyboard-response,71,886295,0.0-3.3-5.3-0.3,775,List2A,white,woman,,,,null,,,,
2179,"<img src=""portrait/BM1.jpg""style=""height:400px;""></img>",4,html-button-response,72,888478,0.0-3.3-7.3,775,List2A,white,woman,,TRUE,4,,,,,
null,CORRECT,,html-keyboard-response,73,889985,0.0-3.3-8.3-0.3,775,List2A,white,woman,,,,null,,,,
5112,"<img src=""portrait/BW2.jpg""style=""height:400px;""></img>",2,html-button-response,74,895102,0.0-3.3-10.3,775,List2A,white,woman,,TRUE,2,,,,,
null,CORRECT,,html-keyboard-response,75,896610,0.0-3.3-11.3-0.3,775,List2A,white,woman,,,,null,,,,
2335,"<img src=""portrait/WW1.jpg""style=""height:400px;""></img>",1,html-button-response,76,898950,0.0-3.3-13.3,775,List2A,white,woman,,TRUE,1,,,,,
null,CORRECT,,html-keyboard-response,77,900461,0.0-3.3-14.3-0.3,775,List2A,white,woman,,,,null,,,,
2962,"<img src=""portrait/WM2.jpg""style=""height:400px;""></img>",7,html-button-response,78,903427,0.0-3.3-16.3,775,List2A,white,woman,,TRUE,7,,,,,
null,CORRECT,,html-keyboard-response,79,904935,0.0-3.3-17.3-0.3,775,List2A,white,woman,,,,null,,,,
2338,"<img src=""portrait/BW1.jpg""style=""height:400px;""></img>",0,html-button-response,80,907277,0.0-3.3-19.3,775,List2A,white,woman,,TRUE,0,,,,,
null,CORRECT,,html-keyboard-response,81,908787,0.0-3.3-20.3-0.3,775,List2A,white,woman,,,,null,,,,
1703,"<img src=""portrait/WM1.jpg""style=""height:400px;""></img>",6,html-button-response,82,910499,0.0-3.3-22.3,775,List2A,white,woman,,TRUE,6,,,,,
null,CORRECT,,html-keyboard-response,83,912007,0.0-3.3-23.3-0.3,775,List2A,white,woman,,,,null,,,,
4135,<p>You got 8 out of 8 right first time. Press Continue.</p>,0,html-button-response,84,916145,0.0-3.3-25.3,775,List2A,white,woman,,,,,,,,
20844,"<p>In this experiment, you will view photographs of the people from the memory game interacting.</p><p>By using the <strong>exact</strong> phrase given <i>after</i> the photograph appears and recalling the correct names of the people in the photographs, form a sentence describing the interaction. You do not need to capitalise names.</p><p>Type your answer in the space provided. Please complete every sentence before moving onto the next trial.</p><p>You will only have a few seconds to memorise each given photograph and phrase before you can respond, so try your best to focus.</p><p>An example is given below. Press 'Continue' when you are ready.</p><img src='img/speaking_example.jpg' style='width:800px;height:460px;''></img>",0,html-button-response,85,937996,0.0-4.0,775,List2A,white,woman,,,,,,,,
1855,"<p>Before the experiment starts, you will watch two example trials. Press 'Continue'.</p>",0,html-button-response,86,940858,0.0-5.0,775,List2A,white,woman,,,,,,,,
null,<img src='img/meet_eg.gif' style='height:400px;''></img>,,html-keyboard-response,87,943872,0.0-6.0,775,List2A,white,woman,,,,null,,,,
null,<p>is meeting</p>,,html-keyboard-response,88,945879,0.0-7.0,775,List2A,white,woman,,,,null,,,,
1504,<p><b>Answer:</b> jane is meeting ruth</p>,0,html-button-response,89,947385,0.0-8.0,775,List2A,white,woman,,,,,,,,
null,<img src='img/look_eg.gif' style='height:400px;''></img>,,html-keyboard-response,90,950390,0.0-9.0,775,List2A,white,woman,,,,null,,,,
null,<p>are looking at each other</p>,,html-keyboard-response,91,952394,0.0-10.0,775,List2A,white,woman,,,,null,,,,
1979,<p><b>Answer:</b> fred and mike are looking at each other</p>,0,html-button-response,92,954376,0.0-11.0,775,List2A,white,woman,,,,,,,,
3338,"<p>Ready to start the experiment?</p><br><p><strong>Remember to describe the picture using a full sentence,</strong></p><p><strong>that combines the names of the people with the <i>exact</i> phrase given.</strong></p><p><strong>To receive full payment you must do this correctly.</strong></p><p><strong> You do not need to capitalise names or use punctuation.</strong></p><br><p>Press 'Continue' to begin.</p>",0,html-button-response,93,958721,0.0-12.0,775,List2A,white,woman,,,,,,,,
null,"<div style=""font-size:60px;"">+</div>",,html-keyboard-response,94,960233,0.0-13.0-0.0,775,List2A,white,woman,,,,null,,,,
null,"<img src=""stim_listA/fight5.gif""style=""height:400px;""></stim_listA>",,html-keyboard-response,95,962239,0.0-13.0-1.0,775,List2A,white,woman,,,,null,,,,
null,is fighting,,html-keyboard-response,96,964242,0.0-13.0-2.0,775,List2A,white,woman,,,,null,,,,
6050,,,survey-text,97,970297,0.0-13.0-3.0,775,List2A,white,woman,,,,,"{""Q0"":""dave and mike are fighting""}","<img src=""stim_listA/fight5.gif""style=""height:400px;""></stim_listA>",is fighting,
null,"<div style=""font-size:60px;"">+</div>",,html-keyboard-response,98,970806,0.0-13.0-0.1,775,List2A,white,woman,,,,null,,,,
null,"<img src=""stim_listA/argue7.gif""style=""height:400px;""></stim_listA>",,html-keyboard-response,99,972810,0.0-13.0-1.1,775,List2A,white,woman,,,,null,,,,
null,is arguing with,,html-keyboard-response,100,974814,0.0-13.0-2.1,775,List2A,white,woman,,,,null,,,,
6299,,,survey-text,101,981116,0.0-13.0-3.1,775,List2A,white,woman,,,,,"{""Q0"":""kate is arguing with jane""}","<img src=""stim_listA/argue7.gif""style=""height:400px;""></stim_listA>",is arguing with,
null,"<div style=""font-size:60px;"">+</div>",,html-keyboard-response,102,981620,0.0-13.0-0.2,775,List2A,white,woman,,,,null,,,,
null,"<img src=""stim_listA/marry6.gif""style=""height:400px;""></stim_listA>",,html-keyboard-response,103,983626,0.0-13.0-1.2,775,List2A,white,woman,,,,null,,,,
null,are marrying each other,,html-keyboard-response,104,985629,0.0-13.0-2.2,775,List2A,white,woman,,,,null,,,,
8848,,,survey-text,105,994479,0.0-13.0-3.2,775,List2A,white,woman,,,,,"{""Q0"":""mike and luke are marrying each other""}","<img src=""stim_listA/marry6.gif""style=""height:400px;""></stim_listA>",are marrying each other,
null,"<div style=""font-size:60px;"">+</div>",,html-keyboard-response,106,994986,0.0-13.0-0.3,775,List2A,white,woman,,,,null,,,,
null,"<img src=""stim_listA/fight1.gif""style=""height:400px;""></stim_listA>",,html-keyboard-response,107,996989,0.0-13.0-1.3,775,List2A,white,woman,,,,null,,,,
null,is fighting,,html-keyboard-response,108,998995,0.0-13.0-2.3,775,List2A,white,woman,,,,null,,,,
5802,,,survey-text,109,1004799,0.0-13.0-3.3,775,List2A,white,woman,,,,,"{""Q0"":""dave and beth are fighting""}","<img src=""stim_listA/fight1.gif""style=""height:400px;""></stim_listA>",is fighting,
null,"<div style=""font-size:60px;"">+</div>",,html-keyboard-response,110,1005305,0.0-13.0-0.4,775,List2A,white,woman,,,,null,,,,
null,"<img src=""stim_listA/fight2.gif""style=""height:400px;""></stim_listA>",,html-keyboard-response,111,1007310,0.0-13.0-1.4,775,List2A,white,woman,,,,null,,,,
null,are fighting each other,,html-keyboard-response,112,1009314,0.0-13.0-2.4,775,List2A,white,woman,,,,null,,,,
9157,,,survey-text,113,1018474,0.0-13.0-3.4,775,List2A,white,woman,,,,,"{""Q0"":""ruth and luke are fighting each other""}","<img src=""stim_listA/fight2.gif""style=""height:400px;""></stim_listA>",are fighting each other,
null,"<div style=""font-size:60px;"">+</div>",,html-keyboard-response,114,1018980,0.0-13.0-0.5,775,List2A,white,woman,,,,null,,,,
null,"<img src=""stim_listA/argue5.gif""style=""height:400px;""></stim_listA>",,html-keyboard-response,115,1020985,0.0-13.0-1.5,775,List2A,white,woman,,,,null,,,,
null,is arguing with,,html-keyboard-response,116,1022990,0.0-13.0-2.5,775,List2A,white,woman,,,,null,,,,
6743,,,survey-text,117,1029737,0.0-13.0-3.5,775,List2A,white,woman,,,,,"{""Q0"":""fred is arguing with dave""}","<img src=""stim_listA/argue5.gif""style=""height:400px;""></stim_listA>",is arguing with,
null,"<div style=""font-size:60px;"">+</div>",,html-keyboard-response,118,1030245,0.0-13.0-0.6,775,List2A,white,woman,,,,null,,,,
null,"<img src=""stim_listA/flirt8.gif""style=""height:400px;""></stim_listA>",,html-keyboard-response,119,1032251,0.0-13.0-1.6,775,List2A,white,woman,,,,null,,,,
null,are flirting with each other,,html-keyboard-response,120,1034255,0.0-13.0-2.6,775,List2A,white,woman,,,,null,,,,
8146,,,survey-text,121,1042404,0.0-13.0-3.6,775,List2A,white,woman,,,,,"{""Q0"":""beth and jane are flirting with each other""}","<img src=""stim_listA/flirt8.gif""style=""height:400px;""></stim_listA>",are flirting with each other,
null,"<div style=""font-size:60px;"">+</div>",,html-keyboard-response,122,1042911,0.0-13.0-0.7,775,List2A,white,woman,,,,null,,,,
null,"<img src=""stim_listA/touch2.gif""style=""height:400px;""></stim_listA>",,html-keyboard-response,123,1044917,0.0-13.0-1.7,775,List2A,white,woman,,,,null,,,,
null,are touching each other,,html-keyboard-response,124,1046920,0.0-13.0-2.7,775,List2A,white,woman,,,,null,,,,
7800,,,survey-text,125,1054723,0.0-13.0-3.7,775,List2A,white,woman,,,,,"{""Q0"":""ruth and luke are touching each other""}","<img src=""stim_listA/touch2.gif""style=""height:400px;""></stim_listA>",are touching each other,
null,"<div style=""font-size:60px;"">+</div>",,html-keyboard-response,126,1055229,0.0-13.0-0.8,775,List2A,white,woman,,,,null,,,,
null,"<img src=""stim_listA/kiss6.gif""style=""height:400px;""></stim_listA>",,html-keyboard-response,127,1057233,0.0-13.0-1.8,775,List2A,white,woman,,,,null,,,,
null,are kissing each other,,html-keyboard-response,128,1059236,0.0-13.0-2.8,775,List2A,white,woman,,,,null,,,,
7211,,,survey-text,129,1066452,0.0-13.0-3.8,775,List2A,white,woman,,,,,"{""Q0"":""mike and dave are kissing each other ""}","<img src=""stim_listA/kiss6.gif""style=""height:400px;""></stim_listA>",are kissing each other,
null,"<div style=""font-size:60px;"">+</div>",,html-keyboard-response,130,1066956,0.0-13.0-0.9,775,List2A,white,woman,,,,null,,,,
null,"<img src=""stim_listA/dance3.gif""style=""height:400px;""></stim_listA>",,html-keyboard-response,131,1068963,0.0-13.0-1.9,775,List2A,white,woman,,,,null,,,,
null,is dancing with,,html-keyboard-response,132,1070969,0.0-13.0-2.9,775,List2A,white,woman,,,,null,,,,
9272,,,survey-text,133,1080244,0.0-13.0-3.9,775,List2A,white,woman,,,,,"{""Q0"":""beth is dancing with dave""}","<img src=""stim_listA/dance3.gif""style=""height:400px;""></stim_listA>",is dancing with,
null,"<div style=""font-size:60px;"">+</div>",,html-keyboard-response,134,1080752,0.0-13.0-0.10,775,List2A,white,woman,,,,null,,,,
null,"<img src=""stim_listA/fight8.gif""style=""height:400px;""></stim_listA>",,html-keyboard-response,135,1082757,0.0-13.0-1.10,775,List2A,white,woman,,,,null,,,,
null,are fighting each other,,html-keyboard-response,136,1084763,0.0-13.0-2.10,775,List2A,white,woman,,,,null,,,,
9696,,,survey-text,137,1094462,0.0-13.0-3.10,775,List2A,white,woman,,,,,"{""Q0"":""ruth and beth are fighting each other""}","<img src=""stim_listA/fight8.gif""style=""height:400px;""></stim_listA>",are fighting each other,
null,"<div style=""font-size:60px;"">+</div>",,html-keyboard-response,138,1094967,0.0-13.0-0.11,775,List2A,white,woman,,,,null,,,,
null,"<img src=""stim_listA/talk8.gif""style=""height:400px;""></stim_listA>",,html-keyboard-response,139,1096974,0.0-13.0-1.11,775,List2A,white,woman,,,,null,,,,
null,are talking to each other,,html-keyboard-response,140,1098981,0.0-13.0-2.11,775,List2A,white,woman,,,,null,,,,
7637,,,survey-text,141,1106621,0.0-13.0-3.11,775,List2A,white,woman,,,,,"{""Q0"":""kate and beth are talking to each other""}","<img src=""stim_listA/talk8.gif""style=""height:400px;""></stim_listA>",are talking to each other,
null,"<div style=""font-size:60px;"">+</div>",,html-keyboard-response,142,1107125,0.0-13.0-0.12,775,List2A,white,woman,,,,null,,,,
null,"<img src=""stim_listA/play6.gif""style=""height:400px;""></stim_listA>",,html-keyboard-response,143,1109132,0.0-13.0-1.12,775,List2A,white,woman,,,,null,,,,
null,are playing with each other,,html-keyboard-response,144,1111154,0.0-13.0-2.12,775,List2A,white,woman,,,,null,,,,
8047,,,survey-text,145,1119203,0.0-13.0-3.12,775,List2A,white,woman,,,,,"{""Q0"":""fred and luke are playing with each other""}","<img src=""stim_listA/play6.gif""style=""height:400px;""></stim_listA>",are playing with each other,
null,"<div style=""font-size:60px;"">+</div>",,html-keyboard-response,146,1119709,0.0-13.0-0.13,775,List2A,white,woman,,,,null,,,,
null,"<img src=""stim_listA/talk3.gif""style=""height:400px;""></stim_listA>",,html-keyboard-response,147,1121712,0.0-13.0-1.13,775,List2A,white,woman,,,,null,,,,
null,is talking to,,html-keyboard-response,148,1124347,0.0-13.0-2.13,775,List2A,white,woman,,,,null,,,,
15423,,,survey-text,149,1139773,0.0-13.0-3.13,775,List2A,white,woman,,,,,"{""Q0"":""beth is talking to fred""}","<img src=""stim_listA/talk3.gif""style=""height:400px;""></stim_listA>",is talking to,
null,"<div style=""font-size:60px;"">+</div>",,html-keyboard-response,150,1140277,0.0-13.0-0.14,775,List2A,white,woman,,,,null,,,,
null,"<img src=""stim_listA/play1.gif""style=""height:400px;""></stim_listA>",,html-keyboard-response,151,1142282,0.0-13.0-1.14,775,List2A,white,woman,,,,null,,,,
null,is playing with,,html-keyboard-response,152,1144284,0.0-13.0-2.14,775,List2A,white,woman,,,,null,,,,
5287,,,survey-text,153,1149575,0.0-13.0-3.14,775,List2A,white,woman,,,,,"{""Q0"":""dave is playing with kate""}","<img src=""stim_listA/play1.gif""style=""height:400px;""></stim_listA>",is playing with,
null,"<div style=""font-size:60px;"">+</div>",,html-keyboard-response,154,1150080,0.0-13.0-0.15,775,List2A,white,woman,,,,null,,,,
null,"<img src=""stim_listA/play2.gif""style=""height:400px;""></stim_listA>",,html-keyboard-response,155,1152085,0.0-13.0-1.15,775,List2A,white,woman,,,,null,,,,
null,are playing with each other,,html-keyboard-response,156,1154091,0.0-13.0-2.15,775,List2A,white,woman,,,,null,,,,
8895,,,survey-text,157,1162991,0.0-13.0-3.15,775,List2A,white,woman,,,,,"{""Q0"":""ruth and luke are playing with each other""}","<img src=""stim_listA/play2.gif""style=""height:400px;""></stim_listA>",are playing with each other,
null,"<div style=""font-size:60px;"">+</div>",,html-keyboard-response,158,1163498,0.0-13.0-0.16,775,List2A,white,woman,,,,null,,,,
null,"<img src=""stim_listA/play7.gif""style=""height:400px;""></stim_listA>",,html-keyboard-response,159,1166064,0.0-13.0-1.16,775,List2A,white,woman,,,,null,,,,
null,is playing with,,html-keyboard-response,160,1168070,0.0-13.0-2.16,775,List2A,white,woman,,,,null,,,,
33886,,,survey-text,161,1201958,0.0-13.0-3.16,775,List2A,white,woman,,,,,"{""Q0"":""beth is fighting with luke""}","<img src=""stim_listA/play7.gif""style=""height:400px;""></stim_listA>",is playing with,
null,"<div style=""font-size:60px;"">+</div>",,html-keyboard-response,162,1202466,0.0-13.0-0.17,775,List2A,white,woman,,,,null,,,,
null,"<img src=""stim_listA/marry5.gif""style=""height:400px;""></stim_listA>",,html-keyboard-response,163,1204473,0.0-13.0-1.17,775,List2A,white,woman,,,,null,,,,
null,is marrying,,html-keyboard-response,164,1206478,0.0-13.0-2.17,775,List2A,white,woman,,,,null,,,,
6450,,,survey-text,165,1212931,0.0-13.0-3.17,775,List2A,white,woman,,,,,"{""Q0"":""fred is marrying dave""}","<img src=""stim_listA/marry5.gif""style=""height:400px;""></stim_listA>",is marrying,
null,"<div style=""font-size:60px;"">+</div>",,html-keyboard-response,166,1213438,0.0-13.0-0.18,775,List2A,white,woman,,,,null,,,,
null,"<img src=""stim_listA/flirt3.gif""style=""height:400px;""></stim_listA>",,html-keyboard-response,167,1215444,0.0-13.0-1.18,775,List2A,white,woman,,,,null,,,,
null,is flirting with,,html-keyboard-response,168,1217449,0.0-13.0-2.18,775,List2A,white,woman,,,,null,,,,
11016,,,survey-text,169,1228468,0.0-13.0-3.18,775,List2A,white,woman,,,,,"{""Q0"":""kate is flirting with dave""}","<img src=""stim_listA/flirt3.gif""style=""height:400px;""></stim_listA>",is flirting with,
null,"<div style=""font-size:60px;"">+</div>",,html-keyboard-response,170,1228971,0.0-13.0-0.19,775,List2A,white,woman,,,,null,,,,
null,"<img src=""stim_listA/kiss7.gif""style=""height:400px;""></stim_listA>",,html-keyboard-response,171,1231117,0.0-13.0-1.19,775,List2A,white,woman,,,,null,,,,
null,is kissing,,html-keyboard-response,172,1234081,0.0-13.0-2.19,775,List2A,white,woman,,,,null,,,,
21797,,,survey-text,173,1255881,0.0-13.0-3.19,775,List2A,white,woman,,,,,"{""Q0"":""luke is kissing kate""}","<img src=""stim_listA/kiss7.gif""style=""height:400px;""></stim_listA>",is kissing,
6940,"<img src='img/portrait_matrix_list2.jpg' style='width:900px;height:500px;''></img><p>If you have memorised all the portraits and names and are ready to start, press Continue.</p><p><strong>Please note: Your memory of these faces will be tested 4 times during this experiment.</strong></p>",0,html-button-response,174,1262826,0.0-14.0-0.0,775,List2A,white,woman,,,,,,,,
2569,"<img src=""portrait/BM1.jpg""style=""height:400px;""></img>",4,html-button-response,175,1266407,0.0-14.0-1.0,775,List2A,white,woman,,TRUE,4,,,,,
null,CORRECT,,html-keyboard-response,176,1267916,0.0-14.0-2.0-0.0,775,List2A,white,woman,,,,null,,,,
2542,"<img src=""portrait/BW2.jpg""style=""height:400px;""></img>",2,html-button-response,177,1270463,0.0-14.0-4.0,775,List2A,white,woman,,TRUE,2,,,,,
null,CORRECT,,html-keyboard-response,178,1271972,0.0-14.0-5.0-0.0,775,List2A,white,woman,,,,null,,,,
2164,"<img src=""portrait/BM2.jpg""style=""height:400px;""></img>",5,html-button-response,179,1274141,0.0-14.0-7.0,775,List2A,white,woman,,TRUE,5,,,,,
null,CORRECT,,html-keyboard-response,180,1275653,0.0-14.0-8.0-0.0,775,List2A,white,woman,,,,null,,,,
2083,"<img src=""portrait/WW1.jpg""style=""height:400px;""></img>",1,html-button-response,181,1277740,0.0-14.0-10.0,775,List2A,white,woman,,TRUE,1,,,,,
null,CORRECT,,html-keyboard-response,182,1279247,0.0-14.0-11.0-0.0,775,List2A,white,woman,,,,null,,,,
3074,"<img src=""portrait/WM1.jpg""style=""height:400px;""></img>",6,html-button-response,183,1282326,0.0-14.0-13.0,775,List2A,white,woman,,TRUE,6,,,,,
null,CORRECT,,html-keyboard-response,184,1283836,0.0-14.0-14.0-0.0,775,List2A,white,woman,,,,null,,,,
2682,"<img src=""portrait/BW1.jpg""style=""height:400px;""></img>",0,html-button-response,185,1286523,0.0-14.0-16.0,775,List2A,white,woman,,TRUE,0,,,,,
null,CORRECT,,html-keyboard-response,186,1288033,0.0-14.0-17.0-0.0,775,List2A,white,woman,,,,null,,,,
1910,"<img src=""portrait/WM2.jpg""style=""height:400px;""></img>",7,html-button-response,187,1289948,0.0-14.0-19.0,775,List2A,white,woman,,TRUE,7,,,,,
null,CORRECT,,html-keyboard-response,188,1291455,0.0-14.0-20.0-0.0,775,List2A,white,woman,,,,null,,,,
1858,"<img src=""portrait/WW2.jpg""style=""height:400px;""></img>",3,html-button-response,189,1293318,0.0-14.0-22.0,775,List2A,white,woman,,TRUE,3,,,,,
null,CORRECT,,html-keyboard-response,190,1294829,0.0-14.0-23.0-0.0,775,List2A,white,woman,,,,null,,,,
1452,<p>You got 8 out of 8 right first time. Press Continue.</p>,0,html-button-response,191,1296286,0.0-14.0-25.0,775,List2A,white,woman,,,,,,,,
null,"<div style=""font-size:60px;"">+</div>",,html-keyboard-response,192,1297795,0.0-15.0-0.0,775,List2A,white,woman,,,,null,,,,
null,"<img src=""stim_listA/talk4.gif""style=""height:400px;""></stim_listA>",,html-keyboard-response,193,1299802,0.0-15.0-1.0,775,List2A,white,woman,,,,null,,,,
null,are talking to each other,,html-keyboard-response,194,1301805,0.0-15.0-2.0,775,List2A,white,woman,,,,null,,,,
12939,,,survey-text,195,1314749,0.0-15.0-3.0,775,List2A,white,woman,,,,,"{""Q0"":""beth and fred are talking to each other""}","<img src=""stim_listA/talk4.gif""style=""height:400px;""></stim_listA>",are talking to each other,
null,"<div style=""font-size:60px;"">+</div>",,html-keyboard-response,196,1315252,0.0-15.0-0.1,775,List2A,white,woman,,,,null,,,,
null,"<img src=""stim_listA/shout6.gif""style=""height:400px;""></stim_listA>",,html-keyboard-response,197,1317256,0.0-15.0-1.1,775,List2A,white,woman,,,,null,,,,
null,are shouting at each other,,html-keyboard-response,198,1319260,0.0-15.0-2.1,775,List2A,white,woman,,,,null,,,,
67648,,,survey-text,199,1386912,0.0-15.0-3.1,775,List2A,white,woman,,,,,"{""Q0"":""beth is looking at kate""}","<img src=""stim_listA/shout6.gif""style=""height:400px;""></stim_listA>",are shouting at each other,
null,"<div style=""font-size:60px;"">+</div>",,html-keyboard-response,200,1387415,0.0-15.0-0.2,775,List2A,white,woman,,,,null,,,,
null,"<img src=""stim_listA/fight6.gif""style=""height:400px;""></stim_listA>",,html-keyboard-response,201,1389423,0.0-15.0-1.2,775,List2A,white,woman,,,,null,,,,
null,are fighting each other,,html-keyboard-response,202,1391427,0.0-15.0-2.2,775,List2A,white,woman,,,,null,,,,
6564,,,survey-text,203,1397995,0.0-15.0-3.2,775,List2A,white,woman,,,,,"{""Q0"":""fred and luke are fighting each other""}","<img src=""stim_listA/fight6.gif""style=""height:400px;""></stim_listA>",are fighting each other,
null,"<div style=""font-size:60px;"">+</div>",,html-keyboard-response,204,1398499,0.0-15.0-0.3,775,List2A,white,woman,,,,null,,,,
null,"<img src=""stim_listA/fight3.gif""style=""height:400px;""></stim_listA>",,html-keyboard-response,205,1400504,0.0-15.0-1.3,775,List2A,white,woman,,,,null,,,,
null,is fighting,,html-keyboard-response,206,1402508,0.0-15.0-2.3,775,List2A,white,woman,,,,null,,,,
5687,,,survey-text,207,1408198,0.0-15.0-3.3,775,List2A,white,woman,,,,,"{""Q0"":""kate is fighting mike""}","<img src=""stim_listA/fight3.gif""style=""height:400px;""></stim_listA>",is fighting,
null,"<div style=""font-size:60px;"">+</div>",,html-keyboard-response,208,1408705,0.0-15.0-0.4,775,List2A,white,woman,,,,null,,,,
null,"<img src=""stim_listA/touch6.gif""style=""height:400px;""></stim_listA>",,html-keyboard-response,209,1410710,0.0-15.0-1.4,775,List2A,white,woman,,,,null,,,,
null,are touching each other,,html-keyboard-response,210,1412715,0.0-15.0-2.4,775,List2A,white,woman,,,,null,,,,
7746,,,survey-text,211,1420465,0.0-15.0-3.4,775,List2A,white,woman,,,,,"{""Q0"":""fred and luke are touching each other""}","<img src=""stim_listA/touch6.gif""style=""height:400px;""></stim_listA>",are touching each other,
null,"<div style=""font-size:60px;"">+</div>",,html-keyboard-response,212,1420972,0.0-15.0-0.5,775,List2A,white,woman,,,,null,,,,
null,"<img src=""stim_listA/shout2.gif""style=""height:400px;""></stim_listA>",,html-keyboard-response,213,1422985,0.0-15.0-1.5,775,List2A,white,woman,,,,null,,,,
null,are shouting at each other,,html-keyboard-response,214,1424990,0.0-15.0-2.5,775,List2A,white,woman,,,,null,,,,
6591,,,survey-text,215,1431585,0.0-15.0-3.5,775,List2A,white,woman,,,,,"{""Q0"":""jane and dave are shouting at each other""}","<img src=""stim_listA/shout2.gif""style=""height:400px;""></stim_listA>",are shouting at each other,
null,"<div style=""font-size:60px;"">+</div>",,html-keyboard-response,216,1432092,0.0-15.0-0.6,775,List2A,white,woman,,,,null,,,,
null,"<img src=""stim_listA/dance2.gif""style=""height:400px;""></stim_listA>",,html-keyboard-response,217,1434097,0.0-15.0-1.6,775,List2A,white,woman,,,,null,,,,
null,are dancing with each other,,html-keyboard-response,218,1436100,0.0-15.0-2.6,775,List2A,white,woman,,,,null,,,,
8783,,,survey-text,219,1444885,0.0-15.0-3.6,775,List2A,white,woman,,,,,"{""Q0"":""ruth and dave are dancing with each other""}","<img src=""stim_listA/dance2.gif""style=""height:400px;""></stim_listA>",are dancing with each other,
null,"<div style=""font-size:60px;"">+</div>",,html-keyboard-response,220,1445391,0.0-15.0-0.7,775,List2A,white,woman,,,,null,,,,
null,"<img src=""stim_listA/play5.gif""style=""height:400px;""></stim_listA>",,html-keyboard-response,221,1447396,0.0-15.0-1.7,775,List2A,white,woman,,,,null,,,,
null,is playing with,,html-keyboard-response,222,1449399,0.0-15.0-2.7,775,List2A,white,woman,,,,null,,,,
9124,,,survey-text,223,1458527,0.0-15.0-3.7,775,List2A,white,woman,,,,,"{""Q0"":""dave is playing with mike""}","<img src=""stim_listA/play5.gif""style=""height:400px;""></stim_listA>",is playing with,
null,"<div style=""font-size:60px;"">+</div>",,html-keyboard-response,224,1459030,0.0-15.0-0.8,775,List2A,white,woman,,,,null,,,,
null,"<img src=""stim_listA/shout7.gif""style=""height:400px;""></stim_listA>",,html-keyboard-response,225,1461036,0.0-15.0-1.8,775,List2A,white,woman,,,,null,,,,
null,is shouting at,,html-keyboard-response,226,1463040,0.0-15.0-2.8,775,List2A,white,woman,,,,null,,,,
6131,,,survey-text,227,1469174,0.0-15.0-3.8,775,List2A,white,woman,,,,,"{""Q0"":""ruth is shouting at kate""}","<img src=""stim_listA/shout7.gif""style=""height:400px;""></stim_listA>",is shouting at,
null,"<div style=""font-size:60px;"">+</div>",,html-keyboard-response,228,1469679,0.0-15.0-0.9,775,List2A,white,woman,,,,null,,,,
null,"<img src=""stim_listA/marry2.gif""style=""height:400px;""></stim_listA>",,html-keyboard-response,229,1471685,0.0-15.0-1.9,775,List2A,white,woman,,,,null,,,,
null,are marrying each other,,html-keyboard-response,230,1473692,0.0-15.0-2.9,775,List2A,white,woman,,,,null,,,,
5912,,,survey-text,231,1479606,0.0-15.0-3.9,775,List2A,white,woman,,,,,"{""Q0"":""jane is marrying luke""}","<img src=""stim_listA/marry2.gif""style=""height:400px;""></stim_listA>",are marrying each other,
null,"<div style=""font-size:60px;"">+</div>",,html-keyboard-response,232,1480110,0.0-15.0-0.10,775,List2A,white,woman,,,,null,,,,
null,"<img src=""stim_listA/flirt6.gif""style=""height:400px;""></stim_listA>",,html-keyboard-response,233,1482115,0.0-15.0-1.10,775,List2A,white,woman,,,,null,,,,
null,are flirting with each other,,html-keyboard-response,234,1484121,0.0-15.0-2.10,775,List2A,white,woman,,,,null,,,,
7625,,,survey-text,235,1491748,0.0-15.0-3.10,775,List2A,white,woman,,,,,"{""Q0"":""fred and dave are flirting with each other""}","<img src=""stim_listA/flirt6.gif""style=""height:400px;""></stim_listA>",are flirting with each other,
null,"<div style=""font-size:60px;"">+</div>",,html-keyboard-response,236,1492256,0.0-15.0-0.11,775,List2A,white,woman,,,,null,,,,
null,"<img src=""stim_listA/shout5.gif""style=""height:400px;""></stim_listA>",,html-keyboard-response,237,1494263,0.0-15.0-1.11,775,List2A,white,woman,,,,null,,,,
null,is shouting at,,html-keyboard-response,238,1496267,0.0-15.0-2.11,775,List2A,white,woman,,,,null,,,,
7412,,,survey-text,239,1503681,0.0-15.0-3.11,775,List2A,white,woman,,,,,"{""Q0"":""fred is shouting at luke""}","<img src=""stim_listA/shout5.gif""style=""height:400px;""></stim_listA>",is shouting at,
null,"<div style=""font-size:60px;"">+</div>",,html-keyboard-response,240,1504188,0.0-15.0-0.12,775,List2A,white,woman,,,,null,,,,
null,"<img src=""stim_listA/shout8.gif""style=""height:400px;""></stim_listA>",,html-keyboard-response,241,1506193,0.0-15.0-1.12,775,List2A,white,woman,,,,null,,,,
null,are shouting at each other,,html-keyboard-response,242,1508199,0.0-15.0-2.12,775,List2A,white,woman,,,,null,,,,
6728,,,survey-text,243,1514930,0.0-15.0-3.12,775,List2A,white,woman,,,,,"{""Q0"":""kate and jane are shouting at each other""}","<img src=""stim_listA/shout8.gif""style=""height:400px;""></stim_listA>",are shouting at each other,
null,"<div style=""font-size:60px;"">+</div>",,html-keyboard-response,244,1515435,0.0-15.0-0.13,775,List2A,white,woman,,,,null,,,,
null,"<img src=""stim_listA/talk7.gif""style=""height:400px;""></stim_listA>",,html-keyboard-response,245,1517444,0.0-15.0-1.13,775,List2A,white,woman,,,,null,,,,
null,is talking to,,html-keyboard-response,246,1520074,0.0-15.0-2.13,775,List2A,white,woman,,,,null,,,,
7924,,,survey-text,247,1528002,0.0-15.0-3.13,775,List2A,white,woman,,,,,"{""Q0"":""ruth is talking to kate""}","<img src=""stim_listA/talk7.gif""style=""height:400px;""></stim_listA>",is talking to,
null,"<div style=""font-size:60px;"">+</div>",,html-keyboard-response,248,1528508,0.0-15.0-0.14,775,List2A,white,woman,,,,null,,,,
null,"<img src=""stim_listA/dance4.gif""style=""height:400px;""></stim_listA>",,html-keyboard-response,249,1530516,0.0-15.0-1.14,775,List2A,white,woman,,,,null,,,,
null,are dancing with each other,,html-keyboard-response,250,1532520,0.0-15.0-2.14,775,List2A,white,woman,,,,null,,,,
9157,,,survey-text,251,1541681,0.0-15.0-3.14,775,List2A,white,woman,,,,,"{""Q0"":""beth and mike are dancing with each other""}","<img src=""stim_listA/dance4.gif""style=""height:400px;""></stim_listA>",are dancing with each other,
null,"<div style=""font-size:60px;"">+</div>",,html-keyboard-response,252,1542186,0.0-15.0-0.15,775,List2A,white,woman,,,,null,,,,
null,"<img src=""stim_listA/argue3.gif""style=""height:400px;""></stim_listA>",,html-keyboard-response,253,1544190,0.0-15.0-1.15,775,List2A,white,woman,,,,null,,,,
null,is arguing with,,html-keyboard-response,254,1546195,0.0-15.0-2.15,775,List2A,white,woman,,,,null,,,,
6021,,,survey-text,255,1552220,0.0-15.0-3.15,775,List2A,white,woman,,,,,"{""Q0"":""mike is arguing with beth""}","<img src=""stim_listA/argue3.gif""style=""height:400px;""></stim_listA>",is arguing with,
null,"<div style=""font-size:60px;"">+</div>",,html-keyboard-response,256,1552725,0.0-15.0-0.16,775,List2A,white,woman,,,,null,,,,
null,"<img src=""stim_listA/dance8.gif""style=""height:400px;""></stim_listA>",,html-keyboard-response,257,1554727,0.0-15.0-1.16,775,List2A,white,woman,,,,null,,,,
null,are dancing with each other,,html-keyboard-response,258,1556733,0.0-15.0-2.16,775,List2A,white,woman,,,,null,,,,
7240,,,survey-text,259,1563976,0.0-15.0-3.16,775,List2A,white,woman,,,,,"{""Q0"":""jane and beth are dancing with each other""}","<img src=""stim_listA/dance8.gif""style=""height:400px;""></stim_listA>",are dancing with each other,
null,"<div style=""font-size:60px;"">+</div>",,html-keyboard-response,260,1564482,0.0-15.0-0.17,775,List2A,white,woman,,,,null,,,,
null,"<img src=""stim_listA/play8.gif""style=""height:400px;""></stim_listA>",,html-keyboard-response,261,1566490,0.0-15.0-1.17,775,List2A,white,woman,,,,null,,,,
null,are playing with each other,,html-keyboard-response,262,1568495,0.0-15.0-2.17,775,List2A,white,woman,,,,null,,,,
10515,,,survey-text,263,1579013,0.0-15.0-3.17,775,List2A,white,woman,,,,,"{""Q0"":""ruth and kate and playing with each other""}","<img src=""stim_listA/play8.gif""style=""height:400px;""></stim_listA>",are playing with each other,
null,"<div style=""font-size:60px;"">+</div>",,html-keyboard-response,264,1579517,0.0-15.0-0.18,775,List2A,white,woman,,,,null,,,,
null,"<img src=""stim_listA/talk5.gif""style=""height:400px;""></stim_listA>",,html-keyboard-response,265,1581525,0.0-15.0-1.18,775,List2A,white,woman,,,,null,,,,
null,is talking to,,html-keyboard-response,266,1583536,0.0-15.0-2.18,775,List2A,white,woman,,,,null,,,,
7190,,,survey-text,267,1590730,0.0-15.0-3.18,775,List2A,white,woman,,,,,"{""Q0"":""luke is talking to mike""}","<img src=""stim_listA/talk5.gif""style=""height:400px;""></stim_listA>",is talking to,
null,"<div style=""font-size:60px;"">+</div>",,html-keyboard-response,268,1591236,0.0-15.0-0.19,775,List2A,white,woman,,,,null,,,,
null,"<img src=""stim_listA/flirt4.gif""style=""height:400px;""></stim_listA>",,html-keyboard-response,269,1593243,0.0-15.0-1.19,775,List2A,white,woman,,,,null,,,,
null,are flirting with each other,,html-keyboard-response,270,1595245,0.0-15.0-2.19,775,List2A,white,woman,,,,null,,,,
7375,,,survey-text,271,1602623,0.0-15.0-3.19,775,List2A,white,woman,,,,,"{""Q0"":""kate and fred are flirting with each other""}","<img src=""stim_listA/flirt4.gif""style=""height:400px;""></stim_listA>",are flirting with each other,
3195,"<img src='img/portrait_matrix_list2.jpg' style='width:900px;height:500px;''></img><p>If you have memorised all the portraits and names and are ready to start, press Continue.</p><p><strong>Please note: Your memory of these faces will be tested 4 times during this experiment.</strong></p>",0,html-button-response,272,1605822,0.0-16.0-0.0,775,List2A,white,woman,,,,,,,,
1756,"<img src=""portrait/BM1.jpg""style=""height:400px;""></img>",4,html-button-response,273,1608585,0.0-16.0-1.0,775,List2A,white,woman,,TRUE,4,,,,,
null,CORRECT,,html-keyboard-response,274,1610095,0.0-16.0-2.0-0.0,775,List2A,white,woman,,,,null,,,,
1434,"<img src=""portrait/WW2.jpg""style=""height:400px;""></img>",3,html-button-response,275,1611535,0.0-16.0-4.0,775,List2A,white,woman,,TRUE,3,,,,,
null,CORRECT,,html-keyboard-response,276,1613044,0.0-16.0-5.0-0.0,775,List2A,white,woman,,,,null,,,,
1595,"<img src=""portrait/WM2.jpg""style=""height:400px;""></img>",7,html-button-response,277,1614645,0.0-16.0-7.0,775,List2A,white,woman,,TRUE,7,,,,,
null,CORRECT,,html-keyboard-response,278,1616153,0.0-16.0-8.0-0.0,775,List2A,white,woman,,,,null,,,,
3185,"<img src=""portrait/BW1.jpg""style=""height:400px;""></img>",0,html-button-response,279,1619342,0.0-16.0-10.0,775,List2A,white,woman,,TRUE,0,,,,,
null,CORRECT,,html-keyboard-response,280,1620851,0.0-16.0-11.0-0.0,775,List2A,white,woman,,,,null,,,,
2571,"<img src=""portrait/BW2.jpg""style=""height:400px;""></img>",2,html-button-response,281,1623428,0.0-16.0-13.0,775,List2A,white,woman,,TRUE,2,,,,,
null,CORRECT,,html-keyboard-response,282,1624939,0.0-16.0-14.0-0.0,775,List2A,white,woman,,,,null,,,,
1450,"<img src=""portrait/WW1.jpg""style=""height:400px;""></img>",1,html-button-response,283,1626395,0.0-16.0-16.0,775,List2A,white,woman,,TRUE,1,,,,,
null,CORRECT,,html-keyboard-response,284,1627905,0.0-16.0-17.0-0.0,775,List2A,white,woman,,,,null,,,,
1850,"<img src=""portrait/BM2.jpg""style=""height:400px;""></img>",5,html-button-response,285,1629761,0.0-16.0-19.0,775,List2A,white,woman,,TRUE,5,,,,,
null,CORRECT,,html-keyboard-response,286,1631271,0.0-16.0-20.0-0.0,775,List2A,white,woman,,,,null,,,,
2530,"<img src=""portrait/WM1.jpg""style=""height:400px;""></img>",6,html-button-response,287,1633805,0.0-16.0-22.0,775,List2A,white,woman,,TRUE,6,,,,,
null,CORRECT,,html-keyboard-response,288,1635314,0.0-16.0-23.0-0.0,775,List2A,white,woman,,,,null,,,,
1076,<p>You got 8 out of 8 right first time. Press Continue.</p>,0,html-button-response,289,1636397,0.0-16.0-25.0,775,List2A,white,woman,,,,,,,,
null,"<div style=""font-size:60px;"">+</div>",,html-keyboard-response,290,1637906,0.0-17.0-0.0,775,List2A,white,woman,,,,null,,,,
null,"<img src=""stim_listA/flirt7.gif""style=""height:400px;""></stim_listA>",,html-keyboard-response,291,1639914,0.0-17.0-1.0,775,List2A,white,woman,,,,null,,,,
null,is flirting with,,html-keyboard-response,292,1641918,0.0-17.0-2.0,775,List2A,white,woman,,,,null,,,,
6674,,,survey-text,293,1648595,0.0-17.0-3.0,775,List2A,white,woman,,,,,"{""Q0"":""kate is flirting with ruth""}","<img src=""stim_listA/flirt7.gif""style=""height:400px;""></stim_listA>",is flirting with,
null,"<div style=""font-size:60px;"">+</div>",,html-keyboard-response,294,1649100,0.0-17.0-0.1,775,List2A,white,woman,,,,null,,,,
null,"<img src=""stim_listA/dance1.gif""style=""height:400px;""></stim_listA>",,html-keyboard-response,295,1651105,0.0-17.0-1.1,775,List2A,white,woman,,,,null,,,,
null,is dancing with,,html-keyboard-response,296,1653108,0.0-17.0-2.1,775,List2A,white,woman,,,,null,,,,
6556,,,survey-text,297,1659667,0.0-17.0-3.1,775,List2A,white,woman,,,,,"{""Q0"":""luke is dancing with jane""}","<img src=""stim_listA/dance1.gif""style=""height:400px;""></stim_listA>",is dancing with,
null,"<div style=""font-size:60px;"">+</div>",,html-keyboard-response,298,1660169,0.0-17.0-0.2,775,List2A,white,woman,,,,null,,,,
null,"<img src=""stim_listA/dance5.gif""style=""height:400px;""></stim_listA>",,html-keyboard-response,299,1663079,0.0-17.0-1.2,775,List2A,white,woman,,,,null,,,,
null,is dancing with,,html-keyboard-response,300,1665083,0.0-17.0-2.2,775,List2A,white,woman,,,,null,,,,
74059,,,survey-text,301,1739145,0.0-17.0-3.2,775,List2A,white,woman,,,,,"{""Q0"":""luke is flirting with beth""}","<img src=""stim_listA/dance5.gif""style=""height:400px;""></stim_listA>",is dancing with,
null,"<div style=""font-size:60px;"">+</div>",,html-keyboard-response,302,1739652,0.0-17.0-0.3,775,List2A,white,woman,,,,null,,,,
null,"<img src=""stim_listA/play4.gif""style=""height:400px;""></stim_listA>",,html-keyboard-response,303,1741656,0.0-17.0-1.3,775,List2A,white,woman,,,,null,,,,
null,are playing with each other,,html-keyboard-response,304,1743661,0.0-17.0-2.3,775,List2A,white,woman,,,,null,,,,
10099,,,survey-text,305,1753763,0.0-17.0-3.3,775,List2A,white,woman,,,,,"{""Q0"":""fred and kate are flirting with each other""}","<img src=""stim_listA/play4.gif""style=""height:400px;""></stim_listA>",are playing with each other,
null,"<div style=""font-size:60px;"">+</div>",,html-keyboard-response,306,1754268,0.0-17.0-0.4,775,List2A,white,woman,,,,null,,,,
null,"<img src=""stim_listA/kiss1.gif""style=""height:400px;""></stim_listA>",,html-keyboard-response,307,1756273,0.0-17.0-1.4,775,List2A,white,woman,,,,null,,,,
null,is kissing,,html-keyboard-response,308,1758280,0.0-17.0-2.4,775,List2A,white,woman,,,,null,,,,
4830,,,survey-text,309,1763114,0.0-17.0-3.4,775,List2A,white,woman,,,,,"{""Q0"":""ruth is kissing luke""}","<img src=""stim_listA/kiss1.gif""style=""height:400px;""></stim_listA>",is kissing,
null,"<div style=""font-size:60px;"">+</div>",,html-keyboard-response,310,1763621,0.0-17.0-0.5,775,List2A,white,woman,,,,null,,,,
null,"<img src=""stim_listA/dance7.gif""style=""height:400px;""></stim_listA>",,html-keyboard-response,311,1765628,0.0-17.0-1.5,775,List2A,white,woman,,,,null,,,,
null,is dancing with,,html-keyboard-response,312,1767634,0.0-17.0-2.5,775,List2A,white,woman,,,,null,,,,
5995,,,survey-text,313,1773632,0.0-17.0-3.5,775,List2A,white,woman,,,,,"{""Q0"":""kate is dancing with ruth""}","<img src=""stim_listA/dance7.gif""style=""height:400px;""></stim_listA>",is dancing with,
null,"<div style=""font-size:60px;"">+</div>",,html-keyboard-response,314,1774138,0.0-17.0-0.6,775,List2A,white,woman,,,,null,,,,
null,"<img src=""stim_listA/touch8.gif""style=""height:400px;""></stim_listA>",,html-keyboard-response,315,1776143,0.0-17.0-1.6,775,List2A,white,woman,,,,null,,,,
null,are touching each other,,html-keyboard-response,316,1778149,0.0-17.0-2.6,775,List2A,white,woman,,,,null,,,,
7840,,,survey-text,317,1785992,0.0-17.0-3.6,775,List2A,white,woman,,,,,"{""Q0"":""ruth and kate are touching each other""}","<img src=""stim_listA/touch8.gif""style=""height:400px;""></stim_listA>",are touching each other,
null,"<div style=""font-size:60px;"">+</div>",,html-keyboard-response,318,1786497,0.0-17.0-0.7,775,List2A,white,woman,,,,null,,,,
null,"<img src=""stim_listA/play3.gif""style=""height:400px;""></stim_listA>",,html-keyboard-response,319,1788504,0.0-17.0-1.7,775,List2A,white,woman,,,,null,,,,
null,is playing with,,html-keyboard-response,320,1790508,0.0-17.0-2.7,775,List2A,white,woman,,,,null,,,,
5948,,,survey-text,321,1796459,0.0-17.0-3.7,775,List2A,white,woman,,,,,"{""Q0"":""kate is playing with mike""}","<img src=""stim_listA/play3.gif""style=""height:400px;""></stim_listA>",is playing with,
null,"<div style=""font-size:60px;"">+</div>",,html-keyboard-response,322,1796963,0.0-17.0-0.8,775,List2A,white,woman,,,,null,,,,
null,"<img src=""stim_listA/argue2.gif""style=""height:400px;""></stim_listA>",,html-keyboard-response,323,1798969,0.0-17.0-1.8,775,List2A,white,woman,,,,null,,,,
null,are arguing with each other,,html-keyboard-response,324,1800975,0.0-17.0-2.8,775,List2A,white,woman,,,,null,,,,
7985,,,survey-text,325,1808962,0.0-17.0-3.8,775,List2A,white,woman,,,,,"{""Q0"":""jane and luke are arguing with each other""}","<img src=""stim_listA/argue2.gif""style=""height:400px;""></stim_listA>",are arguing with each other,
null,"<div style=""font-size:60px;"">+</div>",,html-keyboard-response,326,1809466,0.0-17.0-0.9,775,List2A,white,woman,,,,null,,,,
null,"<img src=""stim_listA/marry4.gif""style=""height:400px;""></stim_listA>",,html-keyboard-response,327,1811480,0.0-17.0-1.9,775,List2A,white,woman,,,,null,,,,
null,are marrying each other,,html-keyboard-response,328,1813483,0.0-17.0-2.9,775,List2A,white,woman,,,,null,,,,
8294,,,survey-text,329,1821780,0.0-17.0-3.9,775,List2A,white,woman,,,,,"{""Q0"":""kate and fred are marrying each other""}","<img src=""stim_listA/marry4.gif""style=""height:400px;""></stim_listA>",are marrying each other,
null,"<div style=""font-size:60px;"">+</div>",,html-keyboard-response,330,1822285,0.0-17.0-0.10,775,List2A,white,woman,,,,null,,,,
null,"<img src=""stim_listA/flirt2.gif""style=""height:400px;""></stim_listA>",,html-keyboard-response,331,1824292,0.0-17.0-1.10,775,List2A,white,woman,,,,null,,,,
null,are flirting with each other,,html-keyboard-response,332,1826299,0.0-17.0-2.10,775,List2A,white,woman,,,,null,,,,
11383,,,survey-text,333,1837686,0.0-17.0-3.10,775,List2A,white,woman,,,,,"{""Q0"":""ruth are dave are flirting with each other""}","<img src=""stim_listA/flirt2.gif""style=""height:400px;""></stim_listA>",are flirting with each other,
null,"<div style=""font-size:60px;"">+</div>",,html-keyboard-response,334,1838192,0.0-17.0-0.11,775,List2A,white,woman,,,,null,,,,
null,"<img src=""stim_listA/argue6.gif""style=""height:400px;""></stim_listA>",,html-keyboard-response,335,1840197,0.0-17.0-1.11,775,List2A,white,woman,,,,null,,,,
null,are arguing with each other,,html-keyboard-response,336,1842203,0.0-17.0-2.11,775,List2A,white,woman,,,,null,,,,
8094,,,survey-text,337,1850300,0.0-17.0-3.11,775,List2A,white,woman,,,,,"{""Q0"":""mike and luke are arguing with each other""}","<img src=""stim_listA/argue6.gif""style=""height:400px;""></stim_listA>",are arguing with each other,
null,"<div style=""font-size:60px;"">+</div>",,html-keyboard-response,338,1850804,0.0-17.0-0.12,775,List2A,white,woman,,,,null,,,,
null,"<img src=""stim_listA/touch4.gif""style=""height:400px;""></stim_listA>",,html-keyboard-response,339,1852812,0.0-17.0-1.12,775,List2A,white,woman,,,,null,,,,
null,are touching each other,,html-keyboard-response,340,1854819,0.0-17.0-2.12,775,List2A,white,woman,,,,null,,,,
55890,,,survey-text,341,1910711,0.0-17.0-3.12,775,List2A,white,woman,,,,,"{""Q0"":""beth and kate are touching each other""}","<img src=""stim_listA/touch4.gif""style=""height:400px;""></stim_listA>",are touching each other,
null,"<div style=""font-size:60px;"">+</div>",,html-keyboard-response,342,1911216,0.0-17.0-0.13,775,List2A,white,woman,,,,null,,,,
null,"<img src=""stim_listA/talk6.gif""style=""height:400px;""></stim_listA>",,html-keyboard-response,343,1913223,0.0-17.0-1.13,775,List2A,white,woman,,,,null,,,,
null,are talking to each other,,html-keyboard-response,344,1915230,0.0-17.0-2.13,775,List2A,white,woman,,,,null,,,,
7009,,,survey-text,345,1922244,0.0-17.0-3.13,775,List2A,white,woman,,,,,"{""Q0"":""fred and dave are talking to each other""}","<img src=""stim_listA/talk6.gif""style=""height:400px;""></stim_listA>",are talking to each other,
null,"<div style=""font-size:60px;"">+</div>",,html-keyboard-response,346,1922749,0.0-17.0-0.14,775,List2A,white,woman,,,,null,,,,
null,"<img src=""stim_listA/flirt1.gif""style=""height:400px;""></stim_listA>",,html-keyboard-response,347,1924756,0.0-17.0-1.14,775,List2A,white,woman,,,,null,,,,
null,is flirting with,,html-keyboard-response,348,1926759,0.0-17.0-2.14,775,List2A,white,woman,,,,null,,,,
5938,,,survey-text,349,1932702,0.0-17.0-3.14,775,List2A,white,woman,,,,,"{""Q0"":""jane is flirting with luke""}","<img src=""stim_listA/flirt1.gif""style=""height:400px;""></stim_listA>",is flirting with,
null,"<div style=""font-size:60px;"">+</div>",,html-keyboard-response,350,1933208,0.0-17.0-0.15,775,List2A,white,woman,,,,null,,,,
null,"<img src=""stim_listA/talk1.gif""style=""height:400px;""></stim_listA>",,html-keyboard-response,351,1935216,0.0-17.0-1.15,775,List2A,white,woman,,,,null,,,,
null,is talking to,,html-keyboard-response,352,1937222,0.0-17.0-2.15,775,List2A,white,woman,,,,null,,,,
6593,,,survey-text,353,1943819,0.0-17.0-3.15,775,List2A,white,woman,,,,,"{""Q0"":""luke is talking to jane""}","<img src=""stim_listA/talk1.gif""style=""height:400px;""></stim_listA>",is talking to,
null,"<div style=""font-size:60px;"">+</div>",,html-keyboard-response,354,1944324,0.0-17.0-0.16,775,List2A,white,woman,,,,null,,,,
null,"<img src=""stim_listA/talk2.gif""style=""height:400px;""></stim_listA>",,html-keyboard-response,355,1946330,0.0-17.0-1.16,775,List2A,white,woman,,,,null,,,,
null,are talking to each other,,html-keyboard-response,356,1948334,0.0-17.0-2.16,775,List2A,white,woman,,,,null,,,,
11035,,,survey-text,357,1959372,0.0-17.0-3.16,775,List2A,white,woman,,,,,"{""Q0"":""ruth and dave are talking to each other""}","<img src=""stim_listA/talk2.gif""style=""height:400px;""></stim_listA>",are talking to each other,
null,"<div style=""font-size:60px;"">+</div>",,html-keyboard-response,358,1959877,0.0-17.0-0.17,775,List2A,white,woman,,,,null,,,,
null,"<img src=""stim_listA/kiss5.gif""style=""height:400px;""></stim_listA>",,html-keyboard-response,359,1961883,0.0-17.0-1.17,775,List2A,white,woman,,,,null,,,,
null,is kissing,,html-keyboard-response,360,1963890,0.0-17.0-2.17,775,List2A,white,woman,,,,null,,,,
6552,,,survey-text,361,1970445,0.0-17.0-3.17,775,List2A,white,woman,,,,,"{""Q0"":""luke is kissing fred""}","<img src=""stim_listA/kiss5.gif""style=""height:400px;""></stim_listA>",is kissing,
null,"<div style=""font-size:60px;"">+</div>",,html-keyboard-response,362,1970953,0.0-17.0-0.18,775,List2A,white,woman,,,,null,,,,
null,"<img src=""stim_listA/touch5.gif""style=""height:400px;""></stim_listA>",,html-keyboard-response,363,1972959,0.0-17.0-1.18,775,List2A,white,woman,,,,null,,,,
null,is touching,,html-keyboard-response,364,1974963,0.0-17.0-2.18,775,List2A,white,woman,,,,null,,,,
5247,,,survey-text,365,1980213,0.0-17.0-3.18,775,List2A,white,woman,,,,,"{""Q0"":""dave is touching mike""}","<img src=""stim_listA/touch5.gif""style=""height:400px;""></stim_listA>",is touching,
null,"<div style=""font-size:60px;"">+</div>",,html-keyboard-response,366,1980718,0.0-17.0-0.19,775,List2A,white,woman,,,,null,,,,
null,"<img src=""stim_listA/shout1.gif""style=""height:400px;""></stim_listA>",,html-keyboard-response,367,1982724,0.0-17.0-1.19,775,List2A,white,woman,,,,null,,,,
null,is shouting at,,html-keyboard-response,368,1984727,0.0-17.0-2.19,775,List2A,white,woman,,,,null,,,,
5942,,,survey-text,369,1990673,0.0-17.0-3.19,775,List2A,white,woman,,,,,"{""Q0"":""luke is shouting at ruth""}","<img src=""stim_listA/shout1.gif""style=""height:400px;""></stim_listA>",is shouting at,
2766,"<img src='img/portrait_matrix_list2.jpg' style='width:900px;height:500px;''></img><p>If you have memorised all the portraits and names and are ready to start, press Continue.</p><p><strong>Please note: Your memory of these faces will be tested 4 times during this experiment.</strong></p>",0,html-button-response,370,1993442,0.0-18.0-0.0,775,List2A,white,woman,,,,,,,,
2741,"<img src=""portrait/BW2.jpg""style=""height:400px;""></img>",2,html-button-response,371,1997193,0.0-18.0-1.0,775,List2A,white,woman,,TRUE,2,,,,,
null,CORRECT,,html-keyboard-response,372,1998752,0.0-18.0-2.0-0.0,775,List2A,white,woman,,,,null,,,,
2117,"<img src=""portrait/WM2.jpg""style=""height:400px;""></img>",7,html-button-response,373,2000872,0.0-18.0-4.0,775,List2A,white,woman,,TRUE,7,,,,,
null,CORRECT,,html-keyboard-response,374,2002382,0.0-18.0-5.0-0.0,775,List2A,white,woman,,,,null,,,,
1715,"<img src=""portrait/WM1.jpg""style=""height:400px;""></img>",6,html-button-response,375,2004103,0.0-18.0-7.0,775,List2A,white,woman,,TRUE,6,,,,,
null,CORRECT,,html-keyboard-response,376,2005610,0.0-18.0-8.0-0.0,775,List2A,white,woman,,,,null,,,,
1509,"<img src=""portrait/WW2.jpg""style=""height:400px;""></img>",3,html-button-response,377,2007124,0.0-18.0-10.0,775,List2A,white,woman,,TRUE,3,,,,,
null,CORRECT,,html-keyboard-response,378,2008635,0.0-18.0-11.0-0.0,775,List2A,white,woman,,,,null,,,,
1795,"<img src=""portrait/BW1.jpg""style=""height:400px;""></img>",0,html-button-response,379,2010435,0.0-18.0-13.0,775,List2A,white,woman,,TRUE,0,,,,,
null,CORRECT,,html-keyboard-response,380,2011941,0.0-18.0-14.0-0.0,775,List2A,white,woman,,,,null,,,,
1681,"<img src=""portrait/BM1.jpg""style=""height:400px;""></img>",4,html-button-response,381,2013626,0.0-18.0-16.0,775,List2A,white,woman,,TRUE,4,,,,,
null,CORRECT,,html-keyboard-response,382,2015133,0.0-18.0-17.0-0.0,775,List2A,white,woman,,,,null,,,,
1718,"<img src=""portrait/BM2.jpg""style=""height:400px;""></img>",5,html-button-response,383,2016857,0.0-18.0-19.0,775,List2A,white,woman,,TRUE,5,,,,,
null,CORRECT,,html-keyboard-response,384,2018365,0.0-18.0-20.0-0.0,775,List2A,white,woman,,,,null,,,,
2044,"<img src=""portrait/WW1.jpg""style=""height:400px;""></img>",1,html-button-response,385,2020413,0.0-18.0-22.0,775,List2A,white,woman,,TRUE,1,,,,,
null,CORRECT,,html-keyboard-response,386,2021921,0.0-18.0-23.0-0.0,775,List2A,white,woman,,,,null,,,,
1641,<p>You got 8 out of 8 right first time. Press Continue.</p>,0,html-button-response,387,2023567,0.0-18.0-25.0,775,List2A,white,woman,,,,,,,,
null,"<div style=""font-size:60px;"">+</div>",,html-keyboard-response,388,2025074,0.0-19.0-0.0,775,List2A,white,woman,,,,null,,,,
null,"<img src=""stim_listA/marry7.gif""style=""height:400px;""></stim_listA>",,html-keyboard-response,389,2027082,0.0-19.0-1.0,775,List2A,white,woman,,,,null,,,,
null,is marrying,,html-keyboard-response,390,2029088,0.0-19.0-2.0,775,List2A,white,woman,,,,null,,,,
4662,,,survey-text,391,2033754,0.0-19.0-3.0,775,List2A,white,woman,,,,,"{""Q0"":""kate is marrying jane""}","<img src=""stim_listA/marry7.gif""style=""height:400px;""></stim_listA>",is marrying,
null,"<div style=""font-size:60px;"">+</div>",,html-keyboard-response,392,2034259,0.0-19.0-0.1,775,List2A,white,woman,,,,null,,,,
null,"<img src=""stim_listA/touch3.gif""style=""height:400px;""></stim_listA>",,html-keyboard-response,393,2036265,0.0-19.0-1.1,775,List2A,white,woman,,,,null,,,,
null,is touching,,html-keyboard-response,394,2038272,0.0-19.0-2.1,775,List2A,white,woman,,,,null,,,,
5724,,,survey-text,395,2043999,0.0-19.0-3.1,775,List2A,white,woman,,,,,"{""Q0"":""kate is touching mike""}","<img src=""stim_listA/touch3.gif""style=""height:400px;""></stim_listA>",is touching,
null,"<div style=""font-size:60px;"">+</div>",,html-keyboard-response,396,2045065,0.0-19.0-0.2,775,List2A,white,woman,,,,null,,,,
null,"<img src=""stim_listA/argue1.gif""style=""height:400px;""></stim_listA>",,html-keyboard-response,397,2047075,0.0-19.0-1.2,775,List2A,white,woman,,,,null,,,,
null,is arguing with,,html-keyboard-response,398,2049081,0.0-19.0-2.2,775,List2A,white,woman,,,,null,,,,
4835,,,survey-text,399,2053918,0.0-19.0-3.2,775,List2A,white,woman,,,,,"{""Q0"":""dave is arguing with ruth""}","<img src=""stim_listA/argue1.gif""style=""height:400px;""></stim_listA>",is arguing with,
null,"<div style=""font-size:60px;"">+</div>",,html-keyboard-response,400,2054423,0.0-19.0-0.3,775,List2A,white,woman,,,,null,,,,
null,"<img src=""stim_listA/kiss3.gif""style=""height:400px;""></stim_listA>",,html-keyboard-response,401,2056428,0.0-19.0-1.3,775,List2A,white,woman,,,,null,,,,
null,is kissing,,html-keyboard-response,402,2058435,0.0-19.0-2.3,775,List2A,white,woman,,,,null,,,,
5166,,,survey-text,403,2063604,0.0-19.0-3.3,775,List2A,white,woman,,,,,"{""Q0"":""kate is kissing fred""}","<img src=""stim_listA/kiss3.gif""style=""height:400px;""></stim_listA>",is kissing,
null,"<div style=""font-size:60px;"">+</div>",,html-keyboard-response,404,2064111,0.0-19.0-0.4,775,List2A,white,woman,,,,null,,,,
null,"<img src=""stim_listA/marry8.gif""style=""height:400px;""></stim_listA>",,html-keyboard-response,405,2066118,0.0-19.0-1.4,775,List2A,white,woman,,,,null,,,,
null,are marrying each other,,html-keyboard-response,406,2068121,0.0-19.0-2.4,775,List2A,white,woman,,,,null,,,,
6798,,,survey-text,407,2074923,0.0-19.0-3.4,775,List2A,white,woman,,,,,"{""Q0"":""kate and ruth are marrying each other""}","<img src=""stim_listA/marry8.gif""style=""height:400px;""></stim_listA>",are marrying each other,
null,"<div style=""font-size:60px;"">+</div>",,html-keyboard-response,408,2075427,0.0-19.0-0.5,775,List2A,white,woman,,,,null,,,,
null,"<img src=""stim_listA/fight4.gif""style=""height:400px;""></stim_listA>",,html-keyboard-response,409,2077432,0.0-19.0-1.5,775,List2A,white,woman,,,,null,,,,
null,are fighting each other,,html-keyboard-response,410,2079461,0.0-19.0-2.5,775,List2A,white,woman,,,,null,,,,
7776,,,survey-text,411,2087239,0.0-19.0-3.5,775,List2A,white,woman,,,,,"{""Q0"":""kate and fred are fighting each other""}","<img src=""stim_listA/fight4.gif""style=""height:400px;""></stim_listA>",are fighting each other,
null,"<div style=""font-size:60px;"">+</div>",,html-keyboard-response,412,2087746,0.0-19.0-0.6,775,List2A,white,woman,,,,null,,,,
null,"<img src=""stim_listA/kiss2.gif""style=""height:400px;""></stim_listA>",,html-keyboard-response,413,2089752,0.0-19.0-1.6,775,List2A,white,woman,,,,null,,,,
null,are kissing each other,,html-keyboard-response,414,2091755,0.0-19.0-2.6,775,List2A,white,woman,,,,null,,,,
5371,,,survey-text,415,2097129,0.0-19.0-3.6,775,List2A,white,woman,,,,,"{""Q0"":""jane is kissing dave""}","<img src=""stim_listA/kiss2.gif""style=""height:400px;""></stim_listA>",are kissing each other,
null,"<div style=""font-size:60px;"">+</div>",,html-keyboard-response,416,2097635,0.0-19.0-0.7,775,List2A,white,woman,,,,null,,,,
null,"<img src=""stim_listA/kiss8.gif""style=""height:400px;""></stim_listA>",,html-keyboard-response,417,2099640,0.0-19.0-1.7,775,List2A,white,woman,,,,null,,,,
null,are kissing each other,,html-keyboard-response,418,2101646,0.0-19.0-2.7,775,List2A,white,woman,,,,null,,,,
4604,,,survey-text,419,2106253,0.0-19.0-3.7,775,List2A,white,woman,,,,,"{""Q0"":""jane is kissing kate""}","<img src=""stim_listA/kiss8.gif""style=""height:400px;""></stim_listA>",are kissing each other,
null,"<div style=""font-size:60px;"">+</div>",,html-keyboard-response,420,2106760,0.0-19.0-0.8,775,List2A,white,woman,,,,null,,,,
null,"<img src=""stim_listA/fight7.gif""style=""height:400px;""></stim_listA>",,html-keyboard-response,421,2108768,0.0-19.0-1.8,775,List2A,white,woman,,,,null,,,,
null,is fighting,,html-keyboard-response,422,2110772,0.0-19.0-2.8,775,List2A,white,woman,,,,null,,,,
5595,,,survey-text,423,2116370,0.0-19.0-3.8,775,List2A,white,woman,,,,,"{""Q0"":""jane is fighting kate""}","<img src=""stim_listA/fight7.gif""style=""height:400px;""></stim_listA>",is fighting,
null,"<div style=""font-size:60px;"">+</div>",,html-keyboard-response,424,2116876,0.0-19.0-0.9,775,List2A,white,woman,,,,null,,,,
null,"<img src=""stim_listA/argue8.gif""style=""height:400px;""></stim_listA>",,html-keyboard-response,425,2118882,0.0-19.0-1.9,775,List2A,white,woman,,,,null,,,,
null,are arguing with each other,,html-keyboard-response,426,2120886,0.0-19.0-2.9,775,List2A,white,woman,,,,null,,,,
7527,,,survey-text,427,2128417,0.0-19.0-3.9,775,List2A,white,woman,,,,,"{""Q0"":""ruth and kate are arguing with each other""}","<img src=""stim_listA/argue8.gif""style=""height:400px;""></stim_listA>",are arguing with each other,
null,"<div style=""font-size:60px;"">+</div>",,html-keyboard-response,428,2128922,0.0-19.0-0.10,775,List2A,white,woman,,,,null,,,,
null,"<img src=""stim_listA/touch1.gif""style=""height:400px;""></stim_listA>",,html-keyboard-response,429,2130931,0.0-19.0-1.10,775,List2A,white,woman,,,,null,,,,
null,is touching,,html-keyboard-response,430,2132937,0.0-19.0-2.10,775,List2A,white,woman,,,,null,,,,
5019,,,survey-text,431,2137959,0.0-19.0-3.10,775,List2A,white,woman,,,,,"{""Q0"":""jane is touching dave""}","<img src=""stim_listA/touch1.gif""style=""height:400px;""></stim_listA>",is touching,
null,"<div style=""font-size:60px;"">+</div>",,html-keyboard-response,432,2138465,0.0-19.0-0.11,775,List2A,white,woman,,,,null,,,,
null,"<img src=""stim_listA/kiss4.gif""style=""height:400px;""></stim_listA>",,html-keyboard-response,433,2140469,0.0-19.0-1.11,775,List2A,white,woman,,,,null,,,,
null,are kissing each other,,html-keyboard-response,434,2142473,0.0-19.0-2.11,775,List2A,white,woman,,,,null,,,,
8697,,,survey-text,435,2151175,0.0-19.0-3.11,775,List2A,white,woman,,,,,"{""Q0"":""kate and mike are kissing each other""}","<img src=""stim_listA/kiss4.gif""style=""height:400px;""></stim_listA>",are kissing each other,
null,"<div style=""font-size:60px;"">+</div>",,html-keyboard-response,436,2151683,0.0-19.0-0.12,775,List2A,white,woman,,,,null,,,,
null,"<img src=""stim_listA/shout3.gif""style=""height:400px;""></stim_listA>",,html-keyboard-response,437,2153688,0.0-19.0-1.12,775,List2A,white,woman,,,,null,,,,
null,is shouting at,,html-keyboard-response,438,2155692,0.0-19.0-2.12,775,List2A,white,woman,,,,null,,,,
4751,,,survey-text,439,2160446,0.0-19.0-3.12,775,List2A,white,woman,,,,,"{""Q0"":""fred is shouting at beth""}","<img src=""stim_listA/shout3.gif""style=""height:400px;""></stim_listA>",is shouting at,
null,"<div style=""font-size:60px;"">+</div>",,html-keyboard-response,440,2160951,0.0-19.0-0.13,775,List2A,white,woman,,,,null,,,,
null,"<img src=""stim_listA/marry3.gif""style=""height:400px;""></stim_listA>",,html-keyboard-response,441,2162957,0.0-19.0-1.13,775,List2A,white,woman,,,,null,,,,
null,is marrying,,html-keyboard-response,442,2164962,0.0-19.0-2.13,775,List2A,white,woman,,,,null,,,,
4053,,,survey-text,443,2169018,0.0-19.0-3.13,775,List2A,white,woman,,,,,"{""Q0"":""beth is marrying mike""}","<img src=""stim_listA/marry3.gif""style=""height:400px;""></stim_listA>",is marrying,
null,"<div style=""font-size:60px;"">+</div>",,html-keyboard-response,444,2169522,0.0-19.0-0.14,775,List2A,white,woman,,,,null,,,,
null,"<img src=""stim_listA/argue4.gif""style=""height:400px;""></stim_listA>",,html-keyboard-response,445,2171530,0.0-19.0-1.14,775,List2A,white,woman,,,,null,,,,
null,are arguing with each other,,html-keyboard-response,446,2173533,0.0-19.0-2.14,775,List2A,white,woman,,,,null,,,,
8240,,,survey-text,447,2181776,0.0-19.0-3.14,775,List2A,white,woman,,,,,"{""Q0"":""kate and fred are arguing with each other""}","<img src=""stim_listA/argue4.gif""style=""height:400px;""></stim_listA>",are arguing with each other,
null,"<div style=""font-size:60px;"">+</div>",,html-keyboard-response,448,2182279,0.0-19.0-0.15,775,List2A,white,woman,,,,null,,,,
null,"<img src=""stim_listA/shout4.gif""style=""height:400px;""></stim_listA>",,html-keyboard-response,449,2184284,0.0-19.0-1.15,775,List2A,white,woman,,,,null,,,,
null,are shouting at each other,,html-keyboard-response,450,2186287,0.0-19.0-2.15,775,List2A,white,woman,,,,null,,,,
7779,,,survey-text,451,2194070,0.0-19.0-3.15,775,List2A,white,woman,,,,,"{""Q0"":""mike and kate are arguing with each other""}","<img src=""stim_listA/shout4.gif""style=""height:400px;""></stim_listA>",are shouting at each other,
null,"<div style=""font-size:60px;"">+</div>",,html-keyboard-response,452,2194576,0.0-19.0-0.16,775,List2A,white,woman,,,,null,,,,
null,"<img src=""stim_listA/dance6.gif""style=""height:400px;""></stim_listA>",,html-keyboard-response,453,2196583,0.0-19.0-1.16,775,List2A,white,woman,,,,null,,,,
null,are dancing with each other,,html-keyboard-response,454,2198588,0.0-19.0-2.16,775,List2A,white,woman,,,,null,,,,
8090,,,survey-text,455,2206683,0.0-19.0-3.16,775,List2A,white,woman,,,,,"{""Q0"":""dave and fred are dancing with each other""}","<img src=""stim_listA/dance6.gif""style=""height:400px;""></stim_listA>",are dancing with each other,
null,"<div style=""font-size:60px;"">+</div>",,html-keyboard-response,456,2207188,0.0-19.0-0.17,775,List2A,white,woman,,,,null,,,,
null,"<img src=""stim_listA/marry1.gif""style=""height:400px;""></stim_listA>",,html-keyboard-response,457,2209197,0.0-19.0-1.17,775,List2A,white,woman,,,,null,,,,
null,is marrying,,html-keyboard-response,458,2211202,0.0-19.0-2.17,775,List2A,white,woman,,,,null,,,,
4158,,,survey-text,459,2215363,0.0-19.0-3.17,775,List2A,white,woman,,,,,"{""Q0"":""dave is marrying ruth""}","<img src=""stim_listA/marry1.gif""style=""height:400px;""></stim_listA>",is marrying,
null,"<div style=""font-size:60px;"">+</div>",,html-keyboard-response,460,2215871,0.0-19.0-0.18,775,List2A,white,woman,,,,null,,,,
null,"<img src=""stim_listA/touch7.gif""style=""height:400px;""></stim_listA>",,html-keyboard-response,461,2217880,0.0-19.0-1.18,775,List2A,white,woman,,,,null,,,,
null,is touching,,html-keyboard-response,462,2219886,0.0-19.0-2.18,775,List2A,white,woman,,,,null,,,,
5242,,,survey-text,463,2225131,0.0-19.0-3.18,775,List2A,white,woman,,,,,"{""Q0"":""jane is touching kate""}","<img src=""stim_listA/touch7.gif""style=""height:400px;""></stim_listA>",is touching,
null,"<div style=""font-size:60px;"">+</div>",,html-keyboard-response,464,2225636,0.0-19.0-0.19,775,List2A,white,woman,,,,null,,,,
null,"<img src=""stim_listA/flirt5.gif""style=""height:400px;""></stim_listA>",,html-keyboard-response,465,2227660,0.0-19.0-1.19,775,List2A,white,woman,,,,null,,,,
null,is flirting with,,html-keyboard-response,466,2229664,0.0-19.0-2.19,775,List2A,white,woman,,,,null,,,,
6486,,,survey-text,467,2236154,0.0-19.0-3.19,775,List2A,white,woman,,,,,"{""Q0"":""luke is flirting with mike""}","<img src=""stim_listA/flirt5.gif""style=""height:400px;""></stim_listA>",is flirting with,
1042,<p>Thank you for completing that task.</p><p>The final part of this session is a short questionnaire.</p><p>Press Continue.</p>,0,html-button-response,468,2237201,0.0-20.0,775,List2A,white,woman,,,,,,,,
12087,,,survey-text,469,2250295,0.0-21.0,775,List2A,white,woman,,,,,"{""Q0"":""31"",""Q1"":""English"",""Q2"":""English"",""Q3"":""UK"",""Q4"":""White"",""Q5"":""Female""}",,,demographics
6509,,,survey-likert,470,2256809,0.0-22.0,775,List2A,white,woman,,,,,"{""Q0"":4}",,,likert_ESS
4896,,,survey-likert,471,2261764,0.0-23.0,775,List2A,white,woman,,,,,"{""Q0"":4}",,,likert_NSSAL_Q1
2964,,,survey-likert,472,2264787,0.0-24.0,775,List2A,white,woman,,,,,"{""Q0"":4}",,,likert_NSSAL_Q2
3717,,,survey-likert,473,2268565,0.0-25.0,775,List2A,white,woman,,,,,"{""Q0"":4}",,,likert_CGRS_Q1
4396,,,survey-likert,474,2273019,0.0-26.0,775,List2A,white,woman,,,,,"{""Q0"":4}",,,likert_CGRS_Q2
2821,,,survey-likert,475,2275901,0.0-27.0,775,List2A,white,woman,,,,,"{""Q0"":4}",,,likert_CGRS_Q3
3102,,,survey-text,476,2279051,0.0-28.0,775,List2A,white,woman,,,,,"{""Q0"":""ccc""}",,,worker_id
2703,,,external-html,477,2281874,0.0-29.0,775,List2A,white,woman,debrief.html,,,,,,,
