rt,stimulus,button_pressed,trial_type,trial_index,time_elapsed,internal_node_id,subject,list,ppt_race,ppt_gender,url,first_guess,correct,key_press,responses,image_type,phrase_type,test_part
1787,Welcome to the experiment. Press Continue to begin.,0,html-button-response,0,1790,0.0-0.0,77715,List1A,white,man,,,,,,,,
6132,,,external-html,1,8952,0.0-1.0,77715,List1A,white,man,consent.html,,,,,,,
8094,"<p>On the next page, you will see portraits of 8 people and their names.</p><p>Your first task is to take a few minutes to memorise the names of these people.</p><p>You will have to recall their names during the rest of the experiment, so it is</p><p>essential that you try to memorise these people and their names as best as you can.</p><br><p><strong>You will then be tested on your memory of these names and portraits.</strong></p><br><p>The experiment will start after you have completed this memory test.</p><br><p>Ready?</p>",0,html-button-response,2,17048,0.0-2.0,77715,List1A,white,man,,,,,,,,
51636,"<img src='img/portrait_matrix_list1.jpg' style='width:900px;height:500px;''></img><p>If you have memorised all the portraits and names and are ready to start, press Continue.</p><p><strong>Please note: Your memory of these faces will be tested 4 times during this experiment.</strong></p>",0,html-button-response,3,69687,0.0-3.0-0.0,77715,List1A,white,man,,,,,,,,
4490,"<img src=""portrait/WW1.jpg""style=""height:400px;""></img>",1,html-button-response,4,75179,0.0-3.0-1.0,77715,List1A,white,man,,TRUE,1,,,,,
null,CORRECT,,html-keyboard-response,5,76684,0.0-3.0-2.0-0.0,77715,List1A,white,man,,,,null,,,,
3292,"<img src=""portrait/WM1.jpg""style=""height:400px;""></img>",6,html-button-response,6,79978,0.0-3.0-4.0,77715,List1A,white,man,,TRUE,6,,,,,
null,CORRECT,,html-keyboard-response,7,81481,0.0-3.0-5.0-0.0,77715,List1A,white,man,,,,null,,,,
5303,"<img src=""portrait/WW2.jpg""style=""height:400px;""></img>",2,html-button-response,8,86786,0.0-3.0-7.0,77715,List1A,white,man,,TRUE,3,,,,,
4202,"<img src=""portrait/WW2.jpg""style=""height:400px;""></img>",3,html-button-response,9,91989,0.0-3.0-9.0-0.0,77715,List1A,white,man,,FALSE,3,,,,,
null,CORRECT,,html-keyboard-response,10,93493,0.0-3.0-9.0-1.0-0.0,77715,List1A,white,man,,,,null,,,,
3386,"<img src=""portrait/BM2.jpg""style=""height:400px;""></img>",5,html-button-response,11,96880,0.0-3.0-10.0,77715,List1A,white,man,,TRUE,5,,,,,
null,CORRECT,,html-keyboard-response,12,98383,0.0-3.0-11.0-0.0,77715,List1A,white,man,,,,null,,,,
2877,"<img src=""portrait/BW2.jpg""style=""height:400px;""></img>",2,html-button-response,13,101261,0.0-3.0-13.0,77715,List1A,white,man,,TRUE,2,,,,,
null,CORRECT,,html-keyboard-response,14,102763,0.0-3.0-14.0-0.0,77715,List1A,white,man,,,,null,,,,
3230,"<img src=""portrait/BM1.jpg""style=""height:400px;""></img>",4,html-button-response,15,105995,0.0-3.0-16.0,77715,List1A,white,man,,TRUE,4,,,,,
null,CORRECT,,html-keyboard-response,16,107497,0.0-3.0-17.0-0.0,77715,List1A,white,man,,,,null,,,,
2522,"<img src=""portrait/WM2.jpg""style=""height:400px;""></img>",7,html-button-response,17,110021,0.0-3.0-19.0,77715,List1A,white,man,,TRUE,7,,,,,
null,CORRECT,,html-keyboard-response,18,111524,0.0-3.0-20.0-0.0,77715,List1A,white,man,,,,null,,,,
7424,"<img src=""portrait/BW1.jpg""style=""height:400px;""></img>",1,html-button-response,19,118949,0.0-3.0-22.0,77715,List1A,white,man,,TRUE,0,,,,,
17587,"<img src=""portrait/BW1.jpg""style=""height:400px;""></img>",0,html-button-response,20,137540,0.0-3.0-24.0-0.0,77715,List1A,white,man,,FALSE,0,,,,,
null,CORRECT,,html-keyboard-response,21,139043,0.0-3.0-24.0-1.0-0.0,77715,List1A,white,man,,,,null,,,,
2936,<p>You got 6 out of 8 right first time. Press Continue.</p>,0,html-button-response,22,141980,0.0-3.0-25.0,77715,List1A,white,man,,,,,,,,
6763,"As you did not score 100%, the memory game will repeat. Press Continue.",0,html-button-response,23,149746,0.0-3.0-26.0-0.0,77715,List1A,white,man,,,,,,,,
4371,"<img src='img/portrait_matrix_list1.jpg' style='width:900px;height:500px;''></img><p>If you have memorised all the portraits and names and are ready to start, press Continue.</p><p><strong>Please note: Your memory of these faces will be tested 4 times during this experiment.</strong></p>",0,html-button-response,24,155120,0.0-3.1-0.1,77715,List1A,white,man,,,,,,,,
8526,"<img src=""portrait/WW1.jpg""style=""height:400px;""></img>",1,html-button-response,25,164649,0.0-3.1-1.1,77715,List1A,white,man,,TRUE,1,,,,,
null,CORRECT,,html-keyboard-response,26,166152,0.0-3.1-2.1-0.1,77715,List1A,white,man,,,,null,,,,
2687,"<img src=""portrait/WM1.jpg""style=""height:400px;""></img>",6,html-button-response,27,168840,0.0-3.1-4.1,77715,List1A,white,man,,TRUE,6,,,,,
null,CORRECT,,html-keyboard-response,28,170343,0.0-3.1-5.1-0.1,77715,List1A,white,man,,,,null,,,,
2012,"<img src=""portrait/WW2.jpg""style=""height:400px;""></img>",3,html-button-response,29,172357,0.0-3.1-7.1,77715,List1A,white,man,,TRUE,3,,,,,
null,CORRECT,,html-keyboard-response,30,173859,0.0-3.1-8.1-0.1,77715,List1A,white,man,,,,null,,,,
2800,"<img src=""portrait/BM2.jpg""style=""height:400px;""></img>",5,html-button-response,31,176661,0.0-3.1-10.1,77715,List1A,white,man,,TRUE,5,,,,,
null,CORRECT,,html-keyboard-response,32,178164,0.0-3.1-11.1-0.1,77715,List1A,white,man,,,,null,,,,
2288,"<img src=""portrait/BW2.jpg""style=""height:400px;""></img>",2,html-button-response,33,180454,0.0-3.1-13.1,77715,List1A,white,man,,TRUE,2,,,,,
null,CORRECT,,html-keyboard-response,34,181955,0.0-3.1-14.1-0.1,77715,List1A,white,man,,,,null,,,,
2268,"<img src=""portrait/BM1.jpg""style=""height:400px;""></img>",4,html-button-response,35,184225,0.0-3.1-16.1,77715,List1A,white,man,,TRUE,4,,,,,
null,CORRECT,,html-keyboard-response,36,185728,0.0-3.1-17.1-0.1,77715,List1A,white,man,,,,null,,,,
1872,"<img src=""portrait/WM2.jpg""style=""height:400px;""></img>",7,html-button-response,37,187602,0.0-3.1-19.1,77715,List1A,white,man,,TRUE,7,,,,,
null,CORRECT,,html-keyboard-response,38,189104,0.0-3.1-20.1-0.1,77715,List1A,white,man,,,,null,,,,
2442,"<img src=""portrait/BW1.jpg""style=""height:400px;""></img>",0,html-button-response,39,191548,0.0-3.1-22.1,77715,List1A,white,man,,TRUE,0,,,,,
null,CORRECT,,html-keyboard-response,40,193051,0.0-3.1-23.1-0.1,77715,List1A,white,man,,,,null,,,,
1552,<p>You got 8 out of 8 right first time. Press Continue.</p>,0,html-button-response,41,194605,0.0-3.1-25.1,77715,List1A,white,man,,,,,,,,
15869,"<p>In this experiment, you will view photographs of the people from the memory game interacting.</p><p>By using the <strong>exact</strong> phrase given <i>after</i> the photograph appears and recalling the correct names of the people in the photographs, form a sentence describing the interaction. You do not need to capitalise names.</p><p>Type your answer in the space provided. Please complete every sentence before moving onto the next trial.</p><p>You will only have a few seconds to memorise each given photograph and phrase before you can respond, so try your best to focus.</p><p>An example is given below. Press 'Continue' when you are ready.</p><img src='img/speaking_example.jpg' style='width:800px;height:460px;''></img>",0,html-button-response,42,211477,0.0-4.0,77715,List1A,white,man,,,,,,,,
1837,"<p>Before the experiment starts, you will watch two example trials. Press 'Continue'.</p>",0,html-button-response,43,214316,0.0-5.0,77715,List1A,white,man,,,,,,,,
null,<img src='img/meet_eg.gif' style='height:400px;''></img>,,html-keyboard-response,44,217320,0.0-6.0,77715,List1A,white,man,,,,null,,,,
null,<p>is meeting</p>,,html-keyboard-response,45,219321,0.0-7.0,77715,List1A,white,man,,,,null,,,,
1734,<p><b>Answer:</b> kate is meeting beth</p>,0,html-button-response,46,221055,0.0-8.0,77715,List1A,white,man,,,,,,,,
null,<img src='img/look_eg.gif' style='height:400px;''></img>,,html-keyboard-response,47,224057,0.0-9.0,77715,List1A,white,man,,,,null,,,,
null,<p>are looking at each other</p>,,html-keyboard-response,48,226058,0.0-10.0,77715,List1A,white,man,,,,null,,,,
1398,<p><b>Answer:</b> luke and dave are looking at each other</p>,0,html-button-response,49,227457,0.0-11.0,77715,List1A,white,man,,,,,,,,
6331,"<p>Ready to start the experiment?</p><br><p><strong>Remember to describe the picture using a full sentence,</strong></p><p><strong>that combines the names of the people with the <i>exact</i> phrase given.</strong></p><p><strong>To receive full payment you must do this correctly.</strong></p><p><strong> You do not need to capitalise names or use punctuation.</strong></p><br><p>Press 'Continue' to begin.</p>",0,html-button-response,50,234790,0.0-12.0,77715,List1A,white,man,,,,,,,,
null,"<div style=""font-size:60px;"">+</div>",,html-keyboard-response,51,236292,0.0-13.0-0.0,77715,List1A,white,man,,,,null,,,,
null,"<img src=""stim_listA/talk2.gif""style=""height:400px;""></stim_listA>",,html-keyboard-response,52,238294,0.0-13.0-1.0,77715,List1A,white,man,,,,null,,,,
null,are talking to each other,,html-keyboard-response,53,240296,0.0-13.0-2.0,77715,List1A,white,man,,,,null,,,,
13299,,,survey-text,54,253597,0.0-13.0-3.0,77715,List1A,white,man,,,,,"{""Q0"":""beth""}","<img src=""stim_listA/talk2.gif""style=""height:400px;""></stim_listA>",are talking to each other,
null,"<div style=""font-size:60px;"">+</div>",,html-keyboard-response,55,254099,0.0-13.0-0.1,77715,List1A,white,man,,,,null,,,,
null,"<img src=""stim_listA/dance8.gif""style=""height:400px;""></stim_listA>",,html-keyboard-response,56,256101,0.0-13.0-1.1,77715,List1A,white,man,,,,null,,,,
null,are dancing with each other,,html-keyboard-response,57,258103,0.0-13.0-2.1,77715,List1A,white,man,,,,null,,,,
11932,,,survey-text,58,270035,0.0-13.0-3.1,77715,List1A,white,man,,,,,"{""Q0"":""jane and ruth are dancing with each other""}","<img src=""stim_listA/dance8.gif""style=""height:400px;""></stim_listA>",are dancing with each other,
null,"<div style=""font-size:60px;"">+</div>",,html-keyboard-response,59,270539,0.0-13.0-0.2,77715,List1A,white,man,,,,null,,,,
null,"<img src=""stim_listA/argue7.gif""style=""height:400px;""></stim_listA>",,html-keyboard-response,60,272541,0.0-13.0-1.2,77715,List1A,white,man,,,,null,,,,
null,is arguing with,,html-keyboard-response,61,274543,0.0-13.0-2.2,77715,List1A,white,man,,,,null,,,,
6997,,,survey-text,62,281541,0.0-13.0-3.2,77715,List1A,white,man,,,,,"{""Q0"":""ruth and kate are arguing with each other""}","<img src=""stim_listA/argue7.gif""style=""height:400px;""></stim_listA>",is arguing with,
null,"<div style=""font-size:60px;"">+</div>",,html-keyboard-response,63,282043,0.0-13.0-0.3,77715,List1A,white,man,,,,null,,,,
null,"<img src=""stim_listA/shout1.gif""style=""height:400px;""></stim_listA>",,html-keyboard-response,64,284045,0.0-13.0-1.3,77715,List1A,white,man,,,,null,,,,
null,is shouting at,,html-keyboard-response,65,286047,0.0-13.0-2.3,77715,List1A,white,man,,,,null,,,,
8619,,,survey-text,66,294666,0.0-13.0-3.3,77715,List1A,white,man,,,,,"{""Q0"":""fred and ruth are arguing with each other""}","<img src=""stim_listA/shout1.gif""style=""height:400px;""></stim_listA>",is shouting at,
null,"<div style=""font-size:60px;"">+</div>",,html-keyboard-response,67,295168,0.0-13.0-0.4,77715,List1A,white,man,,,,null,,,,
null,"<img src=""stim_listA/touch4.gif""style=""height:400px;""></stim_listA>",,html-keyboard-response,68,297172,0.0-13.0-1.4,77715,List1A,white,man,,,,null,,,,
null,are touching each other,,html-keyboard-response,69,299173,0.0-13.0-2.4,77715,List1A,white,man,,,,null,,,,
7108,,,survey-text,70,306283,0.0-13.0-3.4,77715,List1A,white,man,,,,,"{""Q0"":""luke and ruth are touching each other""}","<img src=""stim_listA/touch4.gif""style=""height:400px;""></stim_listA>",are touching each other,
null,"<div style=""font-size:60px;"">+</div>",,html-keyboard-response,71,306785,0.0-13.0-0.5,77715,List1A,white,man,,,,null,,,,
null,"<img src=""stim_listA/fight5.gif""style=""height:400px;""></stim_listA>",,html-keyboard-response,72,308787,0.0-13.0-1.5,77715,List1A,white,man,,,,null,,,,
null,is fighting,,html-keyboard-response,73,310788,0.0-13.0-2.5,77715,List1A,white,man,,,,null,,,,
8509,,,survey-text,74,319298,0.0-13.0-3.5,77715,List1A,white,man,,,,,"{""Q0"":""mike and dave are fighting""}","<img src=""stim_listA/fight5.gif""style=""height:400px;""></stim_listA>",is fighting,
null,"<div style=""font-size:60px;"">+</div>",,html-keyboard-response,75,319800,0.0-13.0-0.6,77715,List1A,white,man,,,,null,,,,
null,"<img src=""stim_listA/talk3.gif""style=""height:400px;""></stim_listA>",,html-keyboard-response,76,321801,0.0-13.0-1.6,77715,List1A,white,man,,,,null,,,,
null,is talking to,,html-keyboard-response,77,323803,0.0-13.0-2.6,77715,List1A,white,man,,,,null,,,,
15345,,,survey-text,78,339149,0.0-13.0-3.6,77715,List1A,white,man,,,,,"{""Q0"":""luke and jane are talking to each other""}","<img src=""stim_listA/talk3.gif""style=""height:400px;""></stim_listA>",is talking to,
null,"<div style=""font-size:60px;"">+</div>",,html-keyboard-response,79,339651,0.0-13.0-0.7,77715,List1A,white,man,,,,null,,,,
null,"<img src=""stim_listA/dance7.gif""style=""height:400px;""></stim_listA>",,html-keyboard-response,80,341653,0.0-13.0-1.7,77715,List1A,white,man,,,,null,,,,
null,is dancing with,,html-keyboard-response,81,343655,0.0-13.0-2.7,77715,List1A,white,man,,,,null,,,,
43734,,,survey-text,82,387391,0.0-13.0-3.7,77715,List1A,white,man,,,,,"{""Q0"":""kate and beth are talking to each other""}","<img src=""stim_listA/dance7.gif""style=""height:400px;""></stim_listA>",is dancing with,
null,"<div style=""font-size:60px;"">+</div>",,html-keyboard-response,83,387893,0.0-13.0-0.8,77715,List1A,white,man,,,,null,,,,
null,"<img src=""stim_listA/marry4.gif""style=""height:400px;""></stim_listA>",,html-keyboard-response,84,389895,0.0-13.0-1.8,77715,List1A,white,man,,,,null,,,,
null,are marrying each other,,html-keyboard-response,85,391897,0.0-13.0-2.8,77715,List1A,white,man,,,,null,,,,
5833,,,survey-text,86,397731,0.0-13.0-3.8,77715,List1A,white,man,,,,,"{""Q0"":""jane and luke are marrying each other""}","<img src=""stim_listA/marry4.gif""style=""height:400px;""></stim_listA>",are marrying each other,
null,"<div style=""font-size:60px;"">+</div>",,html-keyboard-response,87,398234,0.0-13.0-0.9,77715,List1A,white,man,,,,null,,,,
null,"<img src=""stim_listA/kiss8.gif""style=""height:400px;""></stim_listA>",,html-keyboard-response,88,400236,0.0-13.0-1.9,77715,List1A,white,man,,,,null,,,,
null,are kissing each other,,html-keyboard-response,89,402238,0.0-13.0-2.9,77715,List1A,white,man,,,,null,,,,
5045,,,survey-text,90,407284,0.0-13.0-3.9,77715,List1A,white,man,,,,,"{""Q0"":""kate and jane are kissing ""}","<img src=""stim_listA/kiss8.gif""style=""height:400px;""></stim_listA>",are kissing each other,
null,"<div style=""font-size:60px;"">+</div>",,html-keyboard-response,91,407786,0.0-13.0-0.10,77715,List1A,white,man,,,,null,,,,
null,"<img src=""stim_listA/touch8.gif""style=""height:400px;""></stim_listA>",,html-keyboard-response,92,409788,0.0-13.0-1.10,77715,List1A,white,man,,,,null,,,,
null,are touching each other,,html-keyboard-response,93,411790,0.0-13.0-2.10,77715,List1A,white,man,,,,null,,,,
6018,,,survey-text,94,417809,0.0-13.0-3.10,77715,List1A,white,man,,,,,"{""Q0"":""ruth and jane are touching each other""}","<img src=""stim_listA/touch8.gif""style=""height:400px;""></stim_listA>",are touching each other,
null,"<div style=""font-size:60px;"">+</div>",,html-keyboard-response,95,418310,0.0-13.0-0.11,77715,List1A,white,man,,,,null,,,,
null,"<img src=""stim_listA/flirt5.gif""style=""height:400px;""></stim_listA>",,html-keyboard-response,96,420313,0.0-13.0-1.11,77715,List1A,white,man,,,,null,,,,
null,is flirting with,,html-keyboard-response,97,422314,0.0-13.0-2.11,77715,List1A,white,man,,,,null,,,,
4537,,,survey-text,98,426851,0.0-13.0-3.11,77715,List1A,white,man,,,,,"{""Q0"":""fred is flirting with dave""}","<img src=""stim_listA/flirt5.gif""style=""height:400px;""></stim_listA>",is flirting with,
null,"<div style=""font-size:60px;"">+</div>",,html-keyboard-response,99,427353,0.0-13.0-0.12,77715,List1A,white,man,,,,null,,,,
null,"<img src=""stim_listA/fight8.gif""style=""height:400px;""></stim_listA>",,html-keyboard-response,100,429356,0.0-13.0-1.12,77715,List1A,white,man,,,,null,,,,
null,are fighting each other,,html-keyboard-response,101,431357,0.0-13.0-2.12,77715,List1A,white,man,,,,null,,,,
7795,,,survey-text,102,439153,0.0-13.0-3.12,77715,List1A,white,man,,,,,"{""Q0"":""ruth and beth are fighting with each other""}","<img src=""stim_listA/fight8.gif""style=""height:400px;""></stim_listA>",are fighting each other,
null,"<div style=""font-size:60px;"">+</div>",,html-keyboard-response,103,439655,0.0-13.0-0.13,77715,List1A,white,man,,,,null,,,,
null,"<img src=""stim_listA/play4.gif""style=""height:400px;""></stim_listA>",,html-keyboard-response,104,441656,0.0-13.0-1.13,77715,List1A,white,man,,,,null,,,,
null,are playing with each other,,html-keyboard-response,105,443657,0.0-13.0-2.13,77715,List1A,white,man,,,,null,,,,
8102,,,survey-text,106,451760,0.0-13.0-3.13,77715,List1A,white,man,,,,,"{""Q0"":""luke and ruth are playing with each other""}","<img src=""stim_listA/play4.gif""style=""height:400px;""></stim_listA>",are playing with each other,
null,"<div style=""font-size:60px;"">+</div>",,html-keyboard-response,107,452261,0.0-13.0-0.14,77715,List1A,white,man,,,,null,,,,
null,"<img src=""stim_listA/kiss7.gif""style=""height:400px;""></stim_listA>",,html-keyboard-response,108,454263,0.0-13.0-1.14,77715,List1A,white,man,,,,null,,,,
null,is kissing,,html-keyboard-response,109,456264,0.0-13.0-2.14,77715,List1A,white,man,,,,null,,,,
9594,,,survey-text,110,465860,0.0-13.0-3.14,77715,List1A,white,man,,,,,"{""Q0"":""jane and beth are kissing""}","<img src=""stim_listA/kiss7.gif""style=""height:400px;""></stim_listA>",is kissing,
null,"<div style=""font-size:60px;"">+</div>",,html-keyboard-response,111,466362,0.0-13.0-0.15,77715,List1A,white,man,,,,null,,,,
null,"<img src=""stim_listA/argue3.gif""style=""height:400px;""></stim_listA>",,html-keyboard-response,112,468364,0.0-13.0-1.15,77715,List1A,white,man,,,,null,,,,
null,is arguing with,,html-keyboard-response,113,470365,0.0-13.0-2.15,77715,List1A,white,man,,,,null,,,,
5755,,,survey-text,114,476121,0.0-13.0-3.15,77715,List1A,white,man,,,,,"{""Q0"":""ruth is arguing with dave""}","<img src=""stim_listA/argue3.gif""style=""height:400px;""></stim_listA>",is arguing with,
null,"<div style=""font-size:60px;"">+</div>",,html-keyboard-response,115,476622,0.0-13.0-0.16,77715,List1A,white,man,,,,null,,,,
null,"<img src=""stim_listA/shout3.gif""style=""height:400px;""></stim_listA>",,html-keyboard-response,116,478624,0.0-13.0-1.16,77715,List1A,white,man,,,,null,,,,
null,is shouting at,,html-keyboard-response,117,480626,0.0-13.0-2.16,77715,List1A,white,man,,,,null,,,,
4406,,,survey-text,118,485034,0.0-13.0-3.16,77715,List1A,white,man,,,,,"{""Q0"":""ruth is shouting at luke""}","<img src=""stim_listA/shout3.gif""style=""height:400px;""></stim_listA>",is shouting at,
null,"<div style=""font-size:60px;"">+</div>",,html-keyboard-response,119,485536,0.0-13.0-0.17,77715,List1A,white,man,,,,null,,,,
null,"<img src=""stim_listA/flirt8.gif""style=""height:400px;""></stim_listA>",,html-keyboard-response,120,487538,0.0-13.0-1.17,77715,List1A,white,man,,,,null,,,,
null,are flirting with each other,,html-keyboard-response,121,489539,0.0-13.0-2.17,77715,List1A,white,man,,,,null,,,,
10167,,,survey-text,122,499708,0.0-13.0-3.17,77715,List1A,white,man,,,,,"{""Q0"":""fred and dave are flirting with each other""}","<img src=""stim_listA/flirt8.gif""style=""height:400px;""></stim_listA>",are flirting with each other,
null,"<div style=""font-size:60px;"">+</div>",,html-keyboard-response,123,500210,0.0-13.0-0.18,77715,List1A,white,man,,,,null,,,,
null,"<img src=""stim_listA/dance3.gif""style=""height:400px;""></stim_listA>",,html-keyboard-response,124,502212,0.0-13.0-1.18,77715,List1A,white,man,,,,null,,,,
null,is dancing with,,html-keyboard-response,125,504214,0.0-13.0-2.18,77715,List1A,white,man,,,,null,,,,
15563,,,survey-text,126,519778,0.0-13.0-3.18,77715,List1A,white,man,,,,,"{""Q0"":""ruth and beth are touching each other""}","<img src=""stim_listA/dance3.gif""style=""height:400px;""></stim_listA>",is dancing with,
null,"<div style=""font-size:60px;"">+</div>",,html-keyboard-response,127,520280,0.0-13.0-0.19,77715,List1A,white,man,,,,null,,,,
null,"<img src=""stim_listA/kiss3.gif""style=""height:400px;""></stim_listA>",,html-keyboard-response,128,522282,0.0-13.0-1.19,77715,List1A,white,man,,,,null,,,,
null,is kissing,,html-keyboard-response,129,524284,0.0-13.0-2.19,77715,List1A,white,man,,,,null,,,,
4362,,,survey-text,130,528647,0.0-13.0-3.19,77715,List1A,white,man,,,,,"{""Q0"":""luke is kissing ruth""}","<img src=""stim_listA/kiss3.gif""style=""height:400px;""></stim_listA>",is kissing,
4361,"<img src='img/portrait_matrix_list1.jpg' style='width:900px;height:500px;''></img><p>If you have memorised all the portraits and names and are ready to start, press Continue.</p><p><strong>Please note: Your memory of these faces will be tested 4 times during this experiment.</strong></p>",0,html-button-response,131,533011,0.0-14.0-0.0,77715,List1A,white,man,,,,,,,,
3883,"<img src=""portrait/WW2.jpg""style=""height:400px;""></img>",3,html-button-response,132,537897,0.0-14.0-1.0,77715,List1A,white,man,,TRUE,3,,,,,
null,CORRECT,,html-keyboard-response,133,539399,0.0-14.0-2.0-0.0,77715,List1A,white,man,,,,null,,,,
2328,"<img src=""portrait/BW2.jpg""style=""height:400px;""></img>",2,html-button-response,134,541729,0.0-14.0-4.0,77715,List1A,white,man,,TRUE,2,,,,,
null,CORRECT,,html-keyboard-response,135,543232,0.0-14.0-5.0-0.0,77715,List1A,white,man,,,,null,,,,
3238,"<img src=""portrait/WM1.jpg""style=""height:400px;""></img>",6,html-button-response,136,546472,0.0-14.0-7.0,77715,List1A,white,man,,TRUE,6,,,,,
null,CORRECT,,html-keyboard-response,137,547974,0.0-14.0-8.0-0.0,77715,List1A,white,man,,,,null,,,,
2678,"<img src=""portrait/WM2.jpg""style=""height:400px;""></img>",2,html-button-response,138,550654,0.0-14.0-10.0,77715,List1A,white,man,,TRUE,7,,,,,
1496,"<img src=""portrait/WM2.jpg""style=""height:400px;""></img>",7,html-button-response,139,553153,0.0-14.0-12.0-0.0,77715,List1A,white,man,,FALSE,7,,,,,
null,CORRECT,,html-keyboard-response,140,554656,0.0-14.0-12.0-1.0-0.0,77715,List1A,white,man,,,,null,,,,
3515,"<img src=""portrait/BW1.jpg""style=""height:400px;""></img>",0,html-button-response,141,558173,0.0-14.0-13.0,77715,List1A,white,man,,TRUE,0,,,,,
null,CORRECT,,html-keyboard-response,142,559675,0.0-14.0-14.0-0.0,77715,List1A,white,man,,,,null,,,,
2142,"<img src=""portrait/BM1.jpg""style=""height:400px;""></img>",4,html-button-response,143,561819,0.0-14.0-16.0,77715,List1A,white,man,,TRUE,4,,,,,
null,CORRECT,,html-keyboard-response,144,563322,0.0-14.0-17.0-0.0,77715,List1A,white,man,,,,null,,,,
4826,"<img src=""portrait/BM2.jpg""style=""height:400px;""></img>",5,html-button-response,145,568149,0.0-14.0-19.0,77715,List1A,white,man,,TRUE,5,,,,,
null,CORRECT,,html-keyboard-response,146,569650,0.0-14.0-20.0-0.0,77715,List1A,white,man,,,,null,,,,
4738,"<img src=""portrait/WW1.jpg""style=""height:400px;""></img>",1,html-button-response,147,574390,0.0-14.0-22.0,77715,List1A,white,man,,TRUE,1,,,,,
null,CORRECT,,html-keyboard-response,148,575893,0.0-14.0-23.0-0.0,77715,List1A,white,man,,,,null,,,,
1558,<p>You got 7 out of 8 right first time. Press Continue.</p>,0,html-button-response,149,577454,0.0-14.0-25.0,77715,List1A,white,man,,,,,,,,
1384,"As you did not score 100%, the memory game will repeat. Press Continue.",0,html-button-response,150,579839,0.0-14.0-26.0-0.0,77715,List1A,white,man,,,,,,,,
1489,"<img src='img/portrait_matrix_list1.jpg' style='width:900px;height:500px;''></img><p>If you have memorised all the portraits and names and are ready to start, press Continue.</p><p><strong>Please note: Your memory of these faces will be tested 4 times during this experiment.</strong></p>",0,html-button-response,151,582331,0.0-14.1-0.1,77715,List1A,white,man,,,,,,,,
2540,"<img src=""portrait/WW2.jpg""style=""height:400px;""></img>",3,html-button-response,152,585874,0.0-14.1-1.1,77715,List1A,white,man,,TRUE,3,,,,,
null,CORRECT,,html-keyboard-response,153,587377,0.0-14.1-2.1-0.1,77715,List1A,white,man,,,,null,,,,
2705,"<img src=""portrait/BW2.jpg""style=""height:400px;""></img>",2,html-button-response,154,590084,0.0-14.1-4.1,77715,List1A,white,man,,TRUE,2,,,,,
null,CORRECT,,html-keyboard-response,155,591587,0.0-14.1-5.1-0.1,77715,List1A,white,man,,,,null,,,,
3311,"<img src=""portrait/WM1.jpg""style=""height:400px;""></img>",6,html-button-response,156,594900,0.0-14.1-7.1,77715,List1A,white,man,,TRUE,6,,,,,
null,CORRECT,,html-keyboard-response,157,596402,0.0-14.1-8.1-0.1,77715,List1A,white,man,,,,null,,,,
4537,"<img src=""portrait/WM2.jpg""style=""height:400px;""></img>",7,html-button-response,158,600941,0.0-14.1-10.1,77715,List1A,white,man,,TRUE,7,,,,,
null,CORRECT,,html-keyboard-response,159,602443,0.0-14.1-11.1-0.1,77715,List1A,white,man,,,,null,,,,
3811,"<img src=""portrait/BW1.jpg""style=""height:400px;""></img>",0,html-button-response,160,606256,0.0-14.1-13.1,77715,List1A,white,man,,TRUE,0,,,,,
null,CORRECT,,html-keyboard-response,161,607760,0.0-14.1-14.1-0.1,77715,List1A,white,man,,,,null,,,,
2456,"<img src=""portrait/BM1.jpg""style=""height:400px;""></img>",4,html-button-response,162,610217,0.0-14.1-16.1,77715,List1A,white,man,,TRUE,4,,,,,
null,CORRECT,,html-keyboard-response,163,611720,0.0-14.1-17.1-0.1,77715,List1A,white,man,,,,null,,,,
1652,"<img src=""portrait/BM2.jpg""style=""height:400px;""></img>",5,html-button-response,164,613373,0.0-14.1-19.1,77715,List1A,white,man,,TRUE,5,,,,,
null,CORRECT,,html-keyboard-response,165,614876,0.0-14.1-20.1-0.1,77715,List1A,white,man,,,,null,,,,
2378,"<img src=""portrait/WW1.jpg""style=""height:400px;""></img>",1,html-button-response,166,617256,0.0-14.1-22.1,77715,List1A,white,man,,TRUE,1,,,,,
null,CORRECT,,html-keyboard-response,167,618759,0.0-14.1-23.1-0.1,77715,List1A,white,man,,,,null,,,,
1161,<p>You got 8 out of 8 right first time. Press Continue.</p>,0,html-button-response,168,619922,0.0-14.1-25.1,77715,List1A,white,man,,,,,,,,
null,"<div style=""font-size:60px;"">+</div>",,html-keyboard-response,169,621424,0.0-15.0-0.0,77715,List1A,white,man,,,,null,,,,
null,"<img src=""stim_listA/argue1.gif""style=""height:400px;""></stim_listA>",,html-keyboard-response,170,623427,0.0-15.0-1.0,77715,List1A,white,man,,,,null,,,,
null,is arguing with,,html-keyboard-response,171,625428,0.0-15.0-2.0,77715,List1A,white,man,,,,null,,,,
8647,,,survey-text,172,634076,0.0-15.0-3.0,77715,List1A,white,man,,,,,"{""Q0"":""beth is arguing with beth""}","<img src=""stim_listA/argue1.gif""style=""height:400px;""></stim_listA>",is arguing with,
null,"<div style=""font-size:60px;"">+</div>",,html-keyboard-response,173,634578,0.0-15.0-0.1,77715,List1A,white,man,,,,null,,,,
null,"<img src=""stim_listA/talk4.gif""style=""height:400px;""></stim_listA>",,html-keyboard-response,174,636580,0.0-15.0-1.1,77715,List1A,white,man,,,,null,,,,
null,are talking to each other,,html-keyboard-response,175,638583,0.0-15.0-2.1,77715,List1A,white,man,,,,null,,,,
5068,,,survey-text,176,643652,0.0-15.0-3.1,77715,List1A,white,man,,,,,"{""Q0"":""dave and ruth are talking to each other""}","<img src=""stim_listA/talk4.gif""style=""height:400px;""></stim_listA>",are talking to each other,
null,"<div style=""font-size:60px;"">+</div>",,html-keyboard-response,177,644154,0.0-15.0-0.2,77715,List1A,white,man,,,,null,,,,
null,"<img src=""stim_listA/flirt3.gif""style=""height:400px;""></stim_listA>",,html-keyboard-response,178,646157,0.0-15.0-1.2,77715,List1A,white,man,,,,null,,,,
null,is flirting with,,html-keyboard-response,179,648158,0.0-15.0-2.2,77715,List1A,white,man,,,,null,,,,
7301,,,survey-text,180,655460,0.0-15.0-3.2,77715,List1A,white,man,,,,,"{""Q0"":""jane is flirting with ruth""}","<img src=""stim_listA/flirt3.gif""style=""height:400px;""></stim_listA>",is flirting with,
null,"<div style=""font-size:60px;"">+</div>",,html-keyboard-response,181,655962,0.0-15.0-0.3,77715,List1A,white,man,,,,null,,,,
null,"<img src=""stim_listA/kiss5.gif""style=""height:400px;""></stim_listA>",,html-keyboard-response,182,657964,0.0-15.0-1.3,77715,List1A,white,man,,,,null,,,,
null,is kissing,,html-keyboard-response,183,659965,0.0-15.0-2.3,77715,List1A,white,man,,,,null,,,,
5770,,,survey-text,184,665735,0.0-15.0-3.3,77715,List1A,white,man,,,,,"{""Q0"":""luke is kissing fred""}","<img src=""stim_listA/kiss5.gif""style=""height:400px;""></stim_listA>",is kissing,
null,"<div style=""font-size:60px;"">+</div>",,html-keyboard-response,185,666238,0.0-15.0-0.4,77715,List1A,white,man,,,,null,,,,
null,"<img src=""stim_listA/flirt2.gif""style=""height:400px;""></stim_listA>",,html-keyboard-response,186,668239,0.0-15.0-1.4,77715,List1A,white,man,,,,null,,,,
null,are flirting with each other,,html-keyboard-response,187,670240,0.0-15.0-2.4,77715,List1A,white,man,,,,null,,,,
5371,,,survey-text,188,675612,0.0-15.0-3.4,77715,List1A,white,man,,,,,"{""Q0"":""beth is flirting with mike""}","<img src=""stim_listA/flirt2.gif""style=""height:400px;""></stim_listA>",are flirting with each other,
null,"<div style=""font-size:60px;"">+</div>",,html-keyboard-response,189,676114,0.0-15.0-0.5,77715,List1A,white,man,,,,null,,,,
null,"<img src=""stim_listA/talk6.gif""style=""height:400px;""></stim_listA>",,html-keyboard-response,190,678117,0.0-15.0-1.5,77715,List1A,white,man,,,,null,,,,
null,are talking to each other,,html-keyboard-response,191,680118,0.0-15.0-2.5,77715,List1A,white,man,,,,null,,,,
7094,,,survey-text,192,687213,0.0-15.0-3.5,77715,List1A,white,man,,,,,"{""Q0"":""dave is talking to ruth""}","<img src=""stim_listA/talk6.gif""style=""height:400px;""></stim_listA>",are talking to each other,
null,"<div style=""font-size:60px;"">+</div>",,html-keyboard-response,193,687715,0.0-15.0-0.6,77715,List1A,white,man,,,,null,,,,
null,"<img src=""stim_listA/shout2.gif""style=""height:400px;""></stim_listA>",,html-keyboard-response,194,689718,0.0-15.0-1.6,77715,List1A,white,man,,,,null,,,,
null,are shouting at each other,,html-keyboard-response,195,691719,0.0-15.0-2.6,77715,List1A,white,man,,,,null,,,,
7245,,,survey-text,196,698965,0.0-15.0-3.6,77715,List1A,white,man,,,,,"{""Q0"":""mike and kate are shouting at each other""}","<img src=""stim_listA/shout2.gif""style=""height:400px;""></stim_listA>",are shouting at each other,
null,"<div style=""font-size:60px;"">+</div>",,html-keyboard-response,197,699467,0.0-15.0-0.7,77715,List1A,white,man,,,,null,,,,
null,"<img src=""stim_listA/touch7.gif""style=""height:400px;""></stim_listA>",,html-keyboard-response,198,701469,0.0-15.0-1.7,77715,List1A,white,man,,,,null,,,,
null,is touching,,html-keyboard-response,199,703471,0.0-15.0-2.7,77715,List1A,white,man,,,,null,,,,
3556,,,survey-text,200,707027,0.0-15.0-3.7,77715,List1A,white,man,,,,,"{""Q0"":""jane is touching kate""}","<img src=""stim_listA/touch7.gif""style=""height:400px;""></stim_listA>",is touching,
null,"<div style=""font-size:60px;"">+</div>",,html-keyboard-response,201,707529,0.0-15.0-0.8,77715,List1A,white,man,,,,null,,,,
null,"<img src=""stim_listA/dance4.gif""style=""height:400px;""></stim_listA>",,html-keyboard-response,202,709531,0.0-15.0-1.8,77715,List1A,white,man,,,,null,,,,
null,are dancing with each other,,html-keyboard-response,203,711532,0.0-15.0-2.8,77715,List1A,white,man,,,,null,,,,
6622,,,survey-text,204,718155,0.0-15.0-3.8,77715,List1A,white,man,,,,,"{""Q0"":""ruth and mike are dancing with each other""}","<img src=""stim_listA/dance4.gif""style=""height:400px;""></stim_listA>",are dancing with each other,
null,"<div style=""font-size:60px;"">+</div>",,html-keyboard-response,205,718657,0.0-15.0-0.9,77715,List1A,white,man,,,,null,,,,
null,"<img src=""stim_listA/play8.gif""style=""height:400px;""></stim_listA>",,html-keyboard-response,206,720660,0.0-15.0-1.9,77715,List1A,white,man,,,,null,,,,
null,are playing with each other,,html-keyboard-response,207,722660,0.0-15.0-2.9,77715,List1A,white,man,,,,null,,,,
6370,,,survey-text,208,729032,0.0-15.0-3.9,77715,List1A,white,man,,,,,"{""Q0"":""beth and ruth are playing with each other""}","<img src=""stim_listA/play8.gif""style=""height:400px;""></stim_listA>",are playing with each other,
null,"<div style=""font-size:60px;"">+</div>",,html-keyboard-response,209,729534,0.0-15.0-0.10,77715,List1A,white,man,,,,null,,,,
null,"<img src=""stim_listA/touch6.gif""style=""height:400px;""></stim_listA>",,html-keyboard-response,210,731536,0.0-15.0-1.10,77715,List1A,white,man,,,,null,,,,
null,are touching each other,,html-keyboard-response,211,733537,0.0-15.0-2.10,77715,List1A,white,man,,,,null,,,,
7736,,,survey-text,212,741274,0.0-15.0-3.10,77715,List1A,white,man,,,,,"{""Q0"":""fred and dave are touching each other""}","<img src=""stim_listA/touch6.gif""style=""height:400px;""></stim_listA>",are touching each other,
null,"<div style=""font-size:60px;"">+</div>",,html-keyboard-response,213,741776,0.0-15.0-0.11,77715,List1A,white,man,,,,null,,,,
null,"<img src=""stim_listA/play6.gif""style=""height:400px;""></stim_listA>",,html-keyboard-response,214,743778,0.0-15.0-1.11,77715,List1A,white,man,,,,null,,,,
null,are playing with each other,,html-keyboard-response,215,745779,0.0-15.0-2.11,77715,List1A,white,man,,,,null,,,,
5425,,,survey-text,216,751205,0.0-15.0-3.11,77715,List1A,white,man,,,,,"{""Q0"":""fred and luke are playing with each other""}","<img src=""stim_listA/play6.gif""style=""height:400px;""></stim_listA>",are playing with each other,
null,"<div style=""font-size:60px;"">+</div>",,html-keyboard-response,217,751706,0.0-15.0-0.12,77715,List1A,white,man,,,,null,,,,
null,"<img src=""stim_listA/flirt7.gif""style=""height:400px;""></stim_listA>",,html-keyboard-response,218,753709,0.0-15.0-1.12,77715,List1A,white,man,,,,null,,,,
null,is flirting with,,html-keyboard-response,219,755710,0.0-15.0-2.12,77715,List1A,white,man,,,,null,,,,
8175,,,survey-text,220,763885,0.0-15.0-3.12,77715,List1A,white,man,,,,,"{""Q0"":""beth and jane are flirting with each other""}","<img src=""stim_listA/flirt7.gif""style=""height:400px;""></stim_listA>",is flirting with,
null,"<div style=""font-size:60px;"">+</div>",,html-keyboard-response,221,764386,0.0-15.0-0.13,77715,List1A,white,man,,,,null,,,,
null,"<img src=""stim_listA/play3.gif""style=""height:400px;""></stim_listA>",,html-keyboard-response,222,766389,0.0-15.0-1.13,77715,List1A,white,man,,,,null,,,,
null,is playing with,,html-keyboard-response,223,768390,0.0-15.0-2.13,77715,List1A,white,man,,,,null,,,,
4003,,,survey-text,224,772394,0.0-15.0-3.13,77715,List1A,white,man,,,,,"{""Q0"":""jane is playing with dave""}","<img src=""stim_listA/play3.gif""style=""height:400px;""></stim_listA>",is playing with,
null,"<div style=""font-size:60px;"">+</div>",,html-keyboard-response,225,772897,0.0-15.0-0.14,77715,List1A,white,man,,,,null,,,,
null,"<img src=""stim_listA/kiss2.gif""style=""height:400px;""></stim_listA>",,html-keyboard-response,226,774899,0.0-15.0-1.14,77715,List1A,white,man,,,,null,,,,
null,are kissing each other,,html-keyboard-response,227,776901,0.0-15.0-2.14,77715,List1A,white,man,,,,null,,,,
5288,,,survey-text,228,782190,0.0-15.0-3.14,77715,List1A,white,man,,,,,"{""Q0"":""kate and mike are kissing each other""}","<img src=""stim_listA/kiss2.gif""style=""height:400px;""></stim_listA>",are kissing each other,
null,"<div style=""font-size:60px;"">+</div>",,html-keyboard-response,229,782691,0.0-15.0-0.15,77715,List1A,white,man,,,,null,,,,
null,"<img src=""stim_listA/dance2.gif""style=""height:400px;""></stim_listA>",,html-keyboard-response,230,784693,0.0-15.0-1.15,77715,List1A,white,man,,,,null,,,,
null,are dancing with each other,,html-keyboard-response,231,786694,0.0-15.0-2.15,77715,List1A,white,man,,,,null,,,,
9562,,,survey-text,232,796257,0.0-15.0-3.15,77715,List1A,white,man,,,,,"{""Q0"":""beth and mike are dancing with each other""}","<img src=""stim_listA/dance2.gif""style=""height:400px;""></stim_listA>",are dancing with each other,
null,"<div style=""font-size:60px;"">+</div>",,html-keyboard-response,233,796759,0.0-15.0-0.16,77715,List1A,white,man,,,,null,,,,
null,"<img src=""stim_listA/talk5.gif""style=""height:400px;""></stim_listA>",,html-keyboard-response,234,798761,0.0-15.0-1.16,77715,List1A,white,man,,,,null,,,,
null,is talking to,,html-keyboard-response,235,800762,0.0-15.0-2.16,77715,List1A,white,man,,,,null,,,,
4228,,,survey-text,236,804990,0.0-15.0-3.16,77715,List1A,white,man,,,,,"{""Q0"":""dave is talking to fred""}","<img src=""stim_listA/talk5.gif""style=""height:400px;""></stim_listA>",is talking to,
null,"<div style=""font-size:60px;"">+</div>",,html-keyboard-response,237,805491,0.0-15.0-0.17,77715,List1A,white,man,,,,null,,,,
null,"<img src=""stim_listA/kiss4.gif""style=""height:400px;""></stim_listA>",,html-keyboard-response,238,807494,0.0-15.0-1.17,77715,List1A,white,man,,,,null,,,,
null,are kissing each other,,html-keyboard-response,239,809495,0.0-15.0-2.17,77715,List1A,white,man,,,,null,,,,
6536,,,survey-text,240,816032,0.0-15.0-3.17,77715,List1A,white,man,,,,,"{""Q0"":""dave and jane are kissing each other""}","<img src=""stim_listA/kiss4.gif""style=""height:400px;""></stim_listA>",are kissing each other,
null,"<div style=""font-size:60px;"">+</div>",,html-keyboard-response,241,816533,0.0-15.0-0.18,77715,List1A,white,man,,,,null,,,,
null,"<img src=""stim_listA/play5.gif""style=""height:400px;""></stim_listA>",,html-keyboard-response,242,818536,0.0-15.0-1.18,77715,List1A,white,man,,,,null,,,,
null,is playing with,,html-keyboard-response,243,820538,0.0-15.0-2.18,77715,List1A,white,man,,,,null,,,,
10271,,,survey-text,244,830810,0.0-15.0-3.18,77715,List1A,white,man,,,,,"{""Q0"":""mike and dave are playing with each other""}","<img src=""stim_listA/play5.gif""style=""height:400px;""></stim_listA>",is playing with,
null,"<div style=""font-size:60px;"">+</div>",,html-keyboard-response,245,831312,0.0-15.0-0.19,77715,List1A,white,man,,,,null,,,,
null,"<img src=""stim_listA/shout6.gif""style=""height:400px;""></stim_listA>",,html-keyboard-response,246,833314,0.0-15.0-1.19,77715,List1A,white,man,,,,null,,,,
null,are shouting at each other,,html-keyboard-response,247,835315,0.0-15.0-2.19,77715,List1A,white,man,,,,null,,,,
6202,,,survey-text,248,841519,0.0-15.0-3.19,77715,List1A,white,man,,,,,"{""Q0"":""mike and dave are shouting at each other""}","<img src=""stim_listA/shout6.gif""style=""height:400px;""></stim_listA>",are shouting at each other,
3513,"<img src='img/portrait_matrix_list1.jpg' style='width:900px;height:500px;''></img><p>If you have memorised all the portraits and names and are ready to start, press Continue.</p><p><strong>Please note: Your memory of these faces will be tested 4 times during this experiment.</strong></p>",0,html-button-response,249,845034,0.0-16.0-0.0,77715,List1A,white,man,,,,,,,,
2595,"<img src=""portrait/WW1.jpg""style=""height:400px;""></img>",1,html-button-response,250,848632,0.0-16.0-1.0,77715,List1A,white,man,,TRUE,1,,,,,
null,CORRECT,,html-keyboard-response,251,850134,0.0-16.0-2.0-0.0,77715,List1A,white,man,,,,null,,,,
2073,"<img src=""portrait/BM1.jpg""style=""height:400px;""></img>",4,html-button-response,252,852209,0.0-16.0-4.0,77715,List1A,white,man,,TRUE,4,,,,,
null,CORRECT,,html-keyboard-response,253,853710,0.0-16.0-5.0-0.0,77715,List1A,white,man,,,,null,,,,
2186,"<img src=""portrait/BW2.jpg""style=""height:400px;""></img>",2,html-button-response,254,855898,0.0-16.0-7.0,77715,List1A,white,man,,TRUE,2,,,,,
null,CORRECT,,html-keyboard-response,255,857401,0.0-16.0-8.0-0.0,77715,List1A,white,man,,,,null,,,,
2618,"<img src=""portrait/WM1.jpg""style=""height:400px;""></img>",6,html-button-response,256,860021,0.0-16.0-10.0,77715,List1A,white,man,,TRUE,6,,,,,
null,CORRECT,,html-keyboard-response,257,861524,0.0-16.0-11.0-0.0,77715,List1A,white,man,,,,null,,,,
4023,"<img src=""portrait/WM2.jpg""style=""height:400px;""></img>",7,html-button-response,258,865549,0.0-16.0-13.0,77715,List1A,white,man,,TRUE,7,,,,,
null,CORRECT,,html-keyboard-response,259,867051,0.0-16.0-14.0-0.0,77715,List1A,white,man,,,,null,,,,
2142,"<img src=""portrait/BM2.jpg""style=""height:400px;""></img>",5,html-button-response,260,869195,0.0-16.0-16.0,77715,List1A,white,man,,TRUE,5,,,,,
null,CORRECT,,html-keyboard-response,261,870698,0.0-16.0-17.0-0.0,77715,List1A,white,man,,,,null,,,,
2354,"<img src=""portrait/WW2.jpg""style=""height:400px;""></img>",3,html-button-response,262,873054,0.0-16.0-19.0,77715,List1A,white,man,,TRUE,3,,,,,
null,CORRECT,,html-keyboard-response,263,874557,0.0-16.0-20.0-0.0,77715,List1A,white,man,,,,null,,,,
5307,"<img src=""portrait/BW1.jpg""style=""height:400px;""></img>",0,html-button-response,264,879866,0.0-16.0-22.0,77715,List1A,white,man,,TRUE,0,,,,,
null,CORRECT,,html-keyboard-response,265,881368,0.0-16.0-23.0-0.0,77715,List1A,white,man,,,,null,,,,
2528,<p>You got 8 out of 8 right first time. Press Continue.</p>,0,html-button-response,266,883897,0.0-16.0-25.0,77715,List1A,white,man,,,,,,,,
null,"<div style=""font-size:60px;"">+</div>",,html-keyboard-response,267,885400,0.0-17.0-0.0,77715,List1A,white,man,,,,null,,,,
null,"<img src=""stim_listA/argue2.gif""style=""height:400px;""></stim_listA>",,html-keyboard-response,268,887403,0.0-17.0-1.0,77715,List1A,white,man,,,,null,,,,
null,are arguing with each other,,html-keyboard-response,269,889405,0.0-17.0-2.0,77715,List1A,white,man,,,,null,,,,
8154,,,survey-text,270,897560,0.0-17.0-3.0,77715,List1A,white,man,,,,,"{""Q0"":""kate and fred are arguing with each other""}","<img src=""stim_listA/argue2.gif""style=""height:400px;""></stim_listA>",are arguing with each other,
null,"<div style=""font-size:60px;"">+</div>",,html-keyboard-response,271,898061,0.0-17.0-0.1,77715,List1A,white,man,,,,null,,,,
null,"<img src=""stim_listA/flirt4.gif""style=""height:400px;""></stim_listA>",,html-keyboard-response,272,900064,0.0-17.0-1.1,77715,List1A,white,man,,,,null,,,,
null,are flirting with each other,,html-keyboard-response,273,902066,0.0-17.0-2.1,77715,List1A,white,man,,,,null,,,,
5337,,,survey-text,274,907405,0.0-17.0-3.1,77715,List1A,white,man,,,,,"{""Q0"":""ruth and luke are flirting with each other""}","<img src=""stim_listA/flirt4.gif""style=""height:400px;""></stim_listA>",are flirting with each other,
null,"<div style=""font-size:60px;"">+</div>",,html-keyboard-response,275,907906,0.0-17.0-0.2,77715,List1A,white,man,,,,null,,,,
null,"<img src=""stim_listA/play2.gif""style=""height:400px;""></stim_listA>",,html-keyboard-response,276,909908,0.0-17.0-1.2,77715,List1A,white,man,,,,null,,,,
null,are playing with each other,,html-keyboard-response,277,911909,0.0-17.0-2.2,77715,List1A,white,man,,,,null,,,,
13411,,,survey-text,278,925321,0.0-17.0-3.2,77715,List1A,white,man,,,,,"{""Q0"":""fred and dave are playing with each other""}","<img src=""stim_listA/play2.gif""style=""height:400px;""></stim_listA>",are playing with each other,
null,"<div style=""font-size:60px;"">+</div>",,html-keyboard-response,279,925823,0.0-17.0-0.3,77715,List1A,white,man,,,,null,,,,
null,"<img src=""stim_listA/touch2.gif""style=""height:400px;""></stim_listA>",,html-keyboard-response,280,927825,0.0-17.0-1.3,77715,List1A,white,man,,,,null,,,,
null,are touching each other,,html-keyboard-response,281,929827,0.0-17.0-2.3,77715,List1A,white,man,,,,null,,,,
6497,,,survey-text,282,936324,0.0-17.0-3.3,77715,List1A,white,man,,,,,"{""Q0"":""fred and dave are touching each other""}","<img src=""stim_listA/touch2.gif""style=""height:400px;""></stim_listA>",are touching each other,
null,"<div style=""font-size:60px;"">+</div>",,html-keyboard-response,283,936826,0.0-17.0-0.4,77715,List1A,white,man,,,,null,,,,
null,"<img src=""stim_listA/flirt1.gif""style=""height:400px;""></stim_listA>",,html-keyboard-response,284,938828,0.0-17.0-1.4,77715,List1A,white,man,,,,null,,,,
null,is flirting with,,html-keyboard-response,285,940829,0.0-17.0-2.4,77715,List1A,white,man,,,,null,,,,
4957,,,survey-text,286,945788,0.0-17.0-3.4,77715,List1A,white,man,,,,,"{""Q0"":""fred is flirting with kate""}","<img src=""stim_listA/flirt1.gif""style=""height:400px;""></stim_listA>",is flirting with,
null,"<div style=""font-size:60px;"">+</div>",,html-keyboard-response,287,946289,0.0-17.0-0.5,77715,List1A,white,man,,,,null,,,,
null,"<img src=""stim_listA/talk8.gif""style=""height:400px;""></stim_listA>",,html-keyboard-response,288,948292,0.0-17.0-1.5,77715,List1A,white,man,,,,null,,,,
null,are talking to each other,,html-keyboard-response,289,950293,0.0-17.0-2.5,77715,List1A,white,man,,,,null,,,,
7608,,,survey-text,290,957901,0.0-17.0-3.5,77715,List1A,white,man,,,,,"{""Q0"":""kate and ruth are talking to each other""}","<img src=""stim_listA/talk8.gif""style=""height:400px;""></stim_listA>",are talking to each other,
null,"<div style=""font-size:60px;"">+</div>",,html-keyboard-response,291,958403,0.0-17.0-0.6,77715,List1A,white,man,,,,null,,,,
null,"<img src=""stim_listA/marry2.gif""style=""height:400px;""></stim_listA>",,html-keyboard-response,292,960405,0.0-17.0-1.6,77715,List1A,white,man,,,,null,,,,
null,are marrying each other,,html-keyboard-response,293,962407,0.0-17.0-2.6,77715,List1A,white,man,,,,null,,,,
6328,,,survey-text,294,968736,0.0-17.0-3.6,77715,List1A,white,man,,,,,"{""Q0"":""ruth and kate are marrying each other""}","<img src=""stim_listA/marry2.gif""style=""height:400px;""></stim_listA>",are marrying each other,
null,"<div style=""font-size:60px;"">+</div>",,html-keyboard-response,295,969238,0.0-17.0-0.7,77715,List1A,white,man,,,,null,,,,
null,"<img src=""stim_listA/play7.gif""style=""height:400px;""></stim_listA>",,html-keyboard-response,296,971241,0.0-17.0-1.7,77715,List1A,white,man,,,,null,,,,
null,is playing with,,html-keyboard-response,297,973242,0.0-17.0-2.7,77715,List1A,white,man,,,,null,,,,
11117,,,survey-text,298,984360,0.0-17.0-3.7,77715,List1A,white,man,,,,,"{""Q0"":""jane and kate are playing with each other""}","<img src=""stim_listA/play7.gif""style=""height:400px;""></stim_listA>",is playing with,
null,"<div style=""font-size:60px;"">+</div>",,html-keyboard-response,299,984862,0.0-17.0-0.8,77715,List1A,white,man,,,,null,,,,
null,"<img src=""stim_listA/marry5.gif""style=""height:400px;""></stim_listA>",,html-keyboard-response,300,986864,0.0-17.0-1.8,77715,List1A,white,man,,,,null,,,,
null,is marrying,,html-keyboard-response,301,988865,0.0-17.0-2.8,77715,List1A,white,man,,,,null,,,,
4206,,,survey-text,302,993072,0.0-17.0-3.8,77715,List1A,white,man,,,,,"{""Q0"":""mike is marrying luke""}","<img src=""stim_listA/marry5.gif""style=""height:400px;""></stim_listA>",is marrying,
null,"<div style=""font-size:60px;"">+</div>",,html-keyboard-response,303,993574,0.0-17.0-0.9,77715,List1A,white,man,,,,null,,,,
null,"<img src=""stim_listA/touch5.gif""style=""height:400px;""></stim_listA>",,html-keyboard-response,304,995576,0.0-17.0-1.9,77715,List1A,white,man,,,,null,,,,
null,is touching,,html-keyboard-response,305,997578,0.0-17.0-2.9,77715,List1A,white,man,,,,null,,,,
4145,,,survey-text,306,1001724,0.0-17.0-3.9,77715,List1A,white,man,,,,,"{""Q0"":""mike is touching dave""}","<img src=""stim_listA/touch5.gif""style=""height:400px;""></stim_listA>",is touching,
null,"<div style=""font-size:60px;"">+</div>",,html-keyboard-response,307,1002225,0.0-17.0-0.10,77715,List1A,white,man,,,,null,,,,
null,"<img src=""stim_listA/marry8.gif""style=""height:400px;""></stim_listA>",,html-keyboard-response,308,1004227,0.0-17.0-1.10,77715,List1A,white,man,,,,null,,,,
null,are marrying each other,,html-keyboard-response,309,1006229,0.0-17.0-2.10,77715,List1A,white,man,,,,null,,,,
5968,,,survey-text,310,1012199,0.0-17.0-3.10,77715,List1A,white,man,,,,,"{""Q0"":""jane is marrying fred""}","<img src=""stim_listA/marry8.gif""style=""height:400px;""></stim_listA>",are marrying each other,
null,"<div style=""font-size:60px;"">+</div>",,html-keyboard-response,311,1012701,0.0-17.0-0.11,77715,List1A,white,man,,,,null,,,,
null,"<img src=""stim_listA/kiss1.gif""style=""height:400px;""></stim_listA>",,html-keyboard-response,312,1014703,0.0-17.0-1.11,77715,List1A,white,man,,,,null,,,,
null,is kissing,,html-keyboard-response,313,1016705,0.0-17.0-2.11,77715,List1A,white,man,,,,null,,,,
4704,,,survey-text,314,1021409,0.0-17.0-3.11,77715,List1A,white,man,,,,,"{""Q0"":""fred is kissing beth""}","<img src=""stim_listA/kiss1.gif""style=""height:400px;""></stim_listA>",is kissing,
null,"<div style=""font-size:60px;"">+</div>",,html-keyboard-response,315,1021911,0.0-17.0-0.12,77715,List1A,white,man,,,,null,,,,
null,"<img src=""stim_listA/touch1.gif""style=""height:400px;""></stim_listA>",,html-keyboard-response,316,1023913,0.0-17.0-1.12,77715,List1A,white,man,,,,null,,,,
null,is touching,,html-keyboard-response,317,1025914,0.0-17.0-2.12,77715,List1A,white,man,,,,null,,,,
3861,,,survey-text,318,1029776,0.0-17.0-3.12,77715,List1A,white,man,,,,,"{""Q0"":""mike is touching kate""}","<img src=""stim_listA/touch1.gif""style=""height:400px;""></stim_listA>",is touching,
null,"<div style=""font-size:60px;"">+</div>",,html-keyboard-response,319,1030278,0.0-17.0-0.13,77715,List1A,white,man,,,,null,,,,
null,"<img src=""stim_listA/dance6.gif""style=""height:400px;""></stim_listA>",,html-keyboard-response,320,1032280,0.0-17.0-1.13,77715,List1A,white,man,,,,null,,,,
null,are dancing with each other,,html-keyboard-response,321,1034281,0.0-17.0-2.13,77715,List1A,white,man,,,,null,,,,
10231,,,survey-text,322,1044514,0.0-17.0-3.13,77715,List1A,white,man,,,,,"{""Q0"":""mike and ruth are dancing with each other""}","<img src=""stim_listA/dance6.gif""style=""height:400px;""></stim_listA>",are dancing with each other,
null,"<div style=""font-size:60px;"">+</div>",,html-keyboard-response,323,1045016,0.0-17.0-0.14,77715,List1A,white,man,,,,null,,,,
null,"<img src=""stim_listA/marry3.gif""style=""height:400px;""></stim_listA>",,html-keyboard-response,324,1047019,0.0-17.0-1.14,77715,List1A,white,man,,,,null,,,,
null,is marrying,,html-keyboard-response,325,1049021,0.0-17.0-2.14,77715,List1A,white,man,,,,null,,,,
5323,,,survey-text,326,1054346,0.0-17.0-3.14,77715,List1A,white,man,,,,,"{""Q0"":""dave is marrying ruth""}","<img src=""stim_listA/marry3.gif""style=""height:400px;""></stim_listA>",is marrying,
null,"<div style=""font-size:60px;"">+</div>",,html-keyboard-response,327,1054847,0.0-17.0-0.15,77715,List1A,white,man,,,,null,,,,
null,"<img src=""stim_listA/argue6.gif""style=""height:400px;""></stim_listA>",,html-keyboard-response,328,1056850,0.0-17.0-1.15,77715,List1A,white,man,,,,null,,,,
null,are arguing with each other,,html-keyboard-response,329,1058852,0.0-17.0-2.15,77715,List1A,white,man,,,,null,,,,
6709,,,survey-text,330,1065562,0.0-17.0-3.15,77715,List1A,white,man,,,,,"{""Q0"":""dave and fred are arguing with each other""}","<img src=""stim_listA/argue6.gif""style=""height:400px;""></stim_listA>",are arguing with each other,
null,"<div style=""font-size:60px;"">+</div>",,html-keyboard-response,331,1066064,0.0-17.0-0.16,77715,List1A,white,man,,,,null,,,,
null,"<img src=""stim_listA/shout7.gif""style=""height:400px;""></stim_listA>",,html-keyboard-response,332,1068066,0.0-17.0-1.16,77715,List1A,white,man,,,,null,,,,
null,is shouting at,,html-keyboard-response,333,1070067,0.0-17.0-2.16,77715,List1A,white,man,,,,null,,,,
4505,,,survey-text,334,1074574,0.0-17.0-3.16,77715,List1A,white,man,,,,,"{""Q0"":""dave is shouting at ruth""}","<img src=""stim_listA/shout7.gif""style=""height:400px;""></stim_listA>",is shouting at,
null,"<div style=""font-size:60px;"">+</div>",,html-keyboard-response,335,1075075,0.0-17.0-0.17,77715,List1A,white,man,,,,null,,,,
null,"<img src=""stim_listA/kiss6.gif""style=""height:400px;""></stim_listA>",,html-keyboard-response,336,1077077,0.0-17.0-1.17,77715,List1A,white,man,,,,null,,,,
null,are kissing each other,,html-keyboard-response,337,1079078,0.0-17.0-2.17,77715,List1A,white,man,,,,null,,,,
5842,,,survey-text,338,1084922,0.0-17.0-3.17,77715,List1A,white,man,,,,,"{""Q0"":""dave and mike are kissing each other""}","<img src=""stim_listA/kiss6.gif""style=""height:400px;""></stim_listA>",are kissing each other,
null,"<div style=""font-size:60px;"">+</div>",,html-keyboard-response,339,1085423,0.0-17.0-0.18,77715,List1A,white,man,,,,null,,,,
null,"<img src=""stim_listA/argue8.gif""style=""height:400px;""></stim_listA>",,html-keyboard-response,340,1087425,0.0-17.0-1.18,77715,List1A,white,man,,,,null,,,,
null,are arguing with each other,,html-keyboard-response,341,1089427,0.0-17.0-2.18,77715,List1A,white,man,,,,null,,,,
7295,,,survey-text,342,1096724,0.0-17.0-3.18,77715,List1A,white,man,,,,,"{""Q0"":""jane and beth are arguing with each other""}","<img src=""stim_listA/argue8.gif""style=""height:400px;""></stim_listA>",are arguing with each other,
null,"<div style=""font-size:60px;"">+</div>",,html-keyboard-response,343,1097225,0.0-17.0-0.19,77715,List1A,white,man,,,,null,,,,
null,"<img src=""stim_listA/dance1.gif""style=""height:400px;""></stim_listA>",,html-keyboard-response,344,1099228,0.0-17.0-1.19,77715,List1A,white,man,,,,null,,,,
null,is dancing with,,html-keyboard-response,345,1101231,0.0-17.0-2.19,77715,List1A,white,man,,,,null,,,,
4042,,,survey-text,346,1105273,0.0-17.0-3.19,77715,List1A,white,man,,,,,"{""Q0"":""kate is dancing with fred""}","<img src=""stim_listA/dance1.gif""style=""height:400px;""></stim_listA>",is dancing with,
1256,"<img src='img/portrait_matrix_list1.jpg' style='width:900px;height:500px;''></img><p>If you have memorised all the portraits and names and are ready to start, press Continue.</p><p><strong>Please note: Your memory of these faces will be tested 4 times during this experiment.</strong></p>",0,html-button-response,347,1106530,0.0-18.0-0.0,77715,List1A,white,man,,,,,,,,
2729,"<img src=""portrait/WM1.jpg""style=""height:400px;""></img>",6,html-button-response,348,1110262,0.0-18.0-1.0,77715,List1A,white,man,,TRUE,6,,,,,
null,CORRECT,,html-keyboard-response,349,1111765,0.0-18.0-2.0-0.0,77715,List1A,white,man,,,,null,,,,
2897,"<img src=""portrait/WM2.jpg""style=""height:400px;""></img>",7,html-button-response,350,1114664,0.0-18.0-4.0,77715,List1A,white,man,,TRUE,7,,,,,
null,CORRECT,,html-keyboard-response,351,1116166,0.0-18.0-5.0-0.0,77715,List1A,white,man,,,,null,,,,
4004,"<img src=""portrait/WW1.jpg""style=""height:400px;""></img>",1,html-button-response,352,1120172,0.0-18.0-7.0,77715,List1A,white,man,,TRUE,1,,,,,
null,CORRECT,,html-keyboard-response,353,1121674,0.0-18.0-8.0-0.0,77715,List1A,white,man,,,,null,,,,
2686,"<img src=""portrait/BW1.jpg""style=""height:400px;""></img>",0,html-button-response,354,1124362,0.0-18.0-10.0,77715,List1A,white,man,,TRUE,0,,,,,
null,CORRECT,,html-keyboard-response,355,1125865,0.0-18.0-11.0-0.0,77715,List1A,white,man,,,,null,,,,
3293,"<img src=""portrait/BM2.jpg""style=""height:400px;""></img>",5,html-button-response,356,1129160,0.0-18.0-13.0,77715,List1A,white,man,,TRUE,5,,,,,
null,CORRECT,,html-keyboard-response,357,1130663,0.0-18.0-14.0-0.0,77715,List1A,white,man,,,,null,,,,
1780,"<img src=""portrait/WW2.jpg""style=""height:400px;""></img>",3,html-button-response,358,1132444,0.0-18.0-16.0,77715,List1A,white,man,,TRUE,3,,,,,
null,CORRECT,,html-keyboard-response,359,1133947,0.0-18.0-17.0-0.0,77715,List1A,white,man,,,,null,,,,
2574,"<img src=""portrait/BM1.jpg""style=""height:400px;""></img>",4,html-button-response,360,1136523,0.0-18.0-19.0,77715,List1A,white,man,,TRUE,4,,,,,
null,CORRECT,,html-keyboard-response,361,1138026,0.0-18.0-20.0-0.0,77715,List1A,white,man,,,,null,,,,
2069,"<img src=""portrait/BW2.jpg""style=""height:400px;""></img>",2,html-button-response,362,1140096,0.0-18.0-22.0,77715,List1A,white,man,,TRUE,2,,,,,
null,CORRECT,,html-keyboard-response,363,1141599,0.0-18.0-23.0-0.0,77715,List1A,white,man,,,,null,,,,
1170,<p>You got 8 out of 8 right first time. Press Continue.</p>,0,html-button-response,364,1142770,0.0-18.0-25.0,77715,List1A,white,man,,,,,,,,
null,"<div style=""font-size:60px;"">+</div>",,html-keyboard-response,365,1144273,0.0-19.0-0.0,77715,List1A,white,man,,,,null,,,,
null,"<img src=""stim_listA/marry1.gif""style=""height:400px;""></stim_listA>",,html-keyboard-response,366,1146275,0.0-19.0-1.0,77715,List1A,white,man,,,,null,,,,
null,is marrying,,html-keyboard-response,367,1148276,0.0-19.0-2.0,77715,List1A,white,man,,,,null,,,,
5297,,,survey-text,368,1153575,0.0-19.0-3.0,77715,List1A,white,man,,,,,"{""Q0"":""beth is marrying mike""}","<img src=""stim_listA/marry1.gif""style=""height:400px;""></stim_listA>",is marrying,
null,"<div style=""font-size:60px;"">+</div>",,html-keyboard-response,369,1154077,0.0-19.0-0.1,77715,List1A,white,man,,,,null,,,,
null,"<img src=""stim_listA/shout5.gif""style=""height:400px;""></stim_listA>",,html-keyboard-response,370,1156079,0.0-19.0-1.1,77715,List1A,white,man,,,,null,,,,
null,is shouting at,,html-keyboard-response,371,1158081,0.0-19.0-2.1,77715,List1A,white,man,,,,null,,,,
6515,,,survey-text,372,1164596,0.0-19.0-3.1,77715,List1A,white,man,,,,,"{""Q0"":""fred is shouting at dave""}","<img src=""stim_listA/shout5.gif""style=""height:400px;""></stim_listA>",is shouting at,
null,"<div style=""font-size:60px;"">+</div>",,html-keyboard-response,373,1165098,0.0-19.0-0.2,77715,List1A,white,man,,,,null,,,,
null,"<img src=""stim_listA/play1.gif""style=""height:400px;""></stim_listA>",,html-keyboard-response,374,1167101,0.0-19.0-1.2,77715,List1A,white,man,,,,null,,,,
null,is playing with,,html-keyboard-response,375,1169102,0.0-19.0-2.2,77715,List1A,white,man,,,,null,,,,
3898,,,survey-text,376,1173001,0.0-19.0-3.2,77715,List1A,white,man,,,,,"{""Q0"":""mike is playing with jane""}","<img src=""stim_listA/play1.gif""style=""height:400px;""></stim_listA>",is playing with,
null,"<div style=""font-size:60px;"">+</div>",,html-keyboard-response,377,1173503,0.0-19.0-0.3,77715,List1A,white,man,,,,null,,,,
null,"<img src=""stim_listA/dance5.gif""style=""height:400px;""></stim_listA>",,html-keyboard-response,378,1175506,0.0-19.0-1.3,77715,List1A,white,man,,,,null,,,,
null,is dancing with,,html-keyboard-response,379,1177508,0.0-19.0-2.3,77715,List1A,white,man,,,,null,,,,
4122,,,survey-text,380,1181630,0.0-19.0-3.3,77715,List1A,white,man,,,,,"{""Q0"":""dave is dancing with fred""}","<img src=""stim_listA/dance5.gif""style=""height:400px;""></stim_listA>",is dancing with,
null,"<div style=""font-size:60px;"">+</div>",,html-keyboard-response,381,1182131,0.0-19.0-0.4,77715,List1A,white,man,,,,null,,,,
null,"<img src=""stim_listA/talk7.gif""style=""height:400px;""></stim_listA>",,html-keyboard-response,382,1184133,0.0-19.0-1.4,77715,List1A,white,man,,,,null,,,,
null,is talking to,,html-keyboard-response,383,1186134,0.0-19.0-2.4,77715,List1A,white,man,,,,null,,,,
4089,,,survey-text,384,1190225,0.0-19.0-3.4,77715,List1A,white,man,,,,,"{""Q0"":""beth is talking to jane""}","<img src=""stim_listA/talk7.gif""style=""height:400px;""></stim_listA>",is talking to,
null,"<div style=""font-size:60px;"">+</div>",,html-keyboard-response,385,1190726,0.0-19.0-0.5,77715,List1A,white,man,,,,null,,,,
null,"<img src=""stim_listA/fight4.gif""style=""height:400px;""></stim_listA>",,html-keyboard-response,386,1192728,0.0-19.0-1.5,77715,List1A,white,man,,,,null,,,,
null,are fighting each other,,html-keyboard-response,387,1194730,0.0-19.0-2.5,77715,List1A,white,man,,,,null,,,,
6636,,,survey-text,388,1201368,0.0-19.0-3.5,77715,List1A,white,man,,,,,"{""Q0"":""luke and ruth are fighting each other""}","<img src=""stim_listA/fight4.gif""style=""height:400px;""></stim_listA>",are fighting each other,
null,"<div style=""font-size:60px;"">+</div>",,html-keyboard-response,389,1201870,0.0-19.0-0.6,77715,List1A,white,man,,,,null,,,,
null,"<img src=""stim_listA/fight7.gif""style=""height:400px;""></stim_listA>",,html-keyboard-response,390,1203872,0.0-19.0-1.6,77715,List1A,white,man,,,,null,,,,
null,is fighting,,html-keyboard-response,391,1205873,0.0-19.0-2.6,77715,List1A,white,man,,,,null,,,,
5314,,,survey-text,392,1211187,0.0-19.0-3.6,77715,List1A,white,man,,,,,"{""Q0"":""kate is fighting jane""}","<img src=""stim_listA/fight7.gif""style=""height:400px;""></stim_listA>",is fighting,
null,"<div style=""font-size:60px;"">+</div>",,html-keyboard-response,393,1211689,0.0-19.0-0.7,77715,List1A,white,man,,,,null,,,,
null,"<img src=""stim_listA/shout8.gif""style=""height:400px;""></stim_listA>",,html-keyboard-response,394,1213691,0.0-19.0-1.7,77715,List1A,white,man,,,,null,,,,
null,are shouting at each other,,html-keyboard-response,395,1215692,0.0-19.0-2.7,77715,List1A,white,man,,,,null,,,,
6950,,,survey-text,396,1222644,0.0-19.0-3.7,77715,List1A,white,man,,,,,"{""Q0"":""kate and jane are shouting at each other""}","<img src=""stim_listA/shout8.gif""style=""height:400px;""></stim_listA>",are shouting at each other,
null,"<div style=""font-size:60px;"">+</div>",,html-keyboard-response,397,1223146,0.0-19.0-0.8,77715,List1A,white,man,,,,null,,,,
null,"<img src=""stim_listA/argue4.gif""style=""height:400px;""></stim_listA>",,html-keyboard-response,398,1225148,0.0-19.0-1.8,77715,List1A,white,man,,,,null,,,,
null,are arguing with each other,,html-keyboard-response,399,1227149,0.0-19.0-2.8,77715,List1A,white,man,,,,null,,,,
5313,,,survey-text,400,1232464,0.0-19.0-3.8,77715,List1A,white,man,,,,,"{""Q0"":""jane and luke are arguing with each other""}","<img src=""stim_listA/argue4.gif""style=""height:400px;""></stim_listA>",are arguing with each other,
null,"<div style=""font-size:60px;"">+</div>",,html-keyboard-response,401,1232965,0.0-19.0-0.9,77715,List1A,white,man,,,,null,,,,
null,"<img src=""stim_listA/shout4.gif""style=""height:400px;""></stim_listA>",,html-keyboard-response,402,1234967,0.0-19.0-1.9,77715,List1A,white,man,,,,null,,,,
null,are shouting at each other,,html-keyboard-response,403,1236969,0.0-19.0-2.9,77715,List1A,white,man,,,,null,,,,
11132,,,survey-text,404,1248103,0.0-19.0-3.9,77715,List1A,white,man,,,,,"{""Q0"":""jane and mike are arguing with each other""}","<img src=""stim_listA/shout4.gif""style=""height:400px;""></stim_listA>",are shouting at each other,
null,"<div style=""font-size:60px;"">+</div>",,html-keyboard-response,405,1248605,0.0-19.0-0.10,77715,List1A,white,man,,,,null,,,,
null,"<img src=""stim_listA/fight6.gif""style=""height:400px;""></stim_listA>",,html-keyboard-response,406,1250607,0.0-19.0-1.10,77715,List1A,white,man,,,,null,,,,
null,are fighting each other,,html-keyboard-response,407,1252608,0.0-19.0-2.10,77715,List1A,white,man,,,,null,,,,
9667,,,survey-text,408,1262276,0.0-19.0-3.10,77715,List1A,white,man,,,,,"{""Q0"":""luke and fred are fighting with each other""}","<img src=""stim_listA/fight6.gif""style=""height:400px;""></stim_listA>",are fighting each other,
null,"<div style=""font-size:60px;"">+</div>",,html-keyboard-response,409,1262778,0.0-19.0-0.11,77715,List1A,white,man,,,,null,,,,
null,"<img src=""stim_listA/talk1.gif""style=""height:400px;""></stim_listA>",,html-keyboard-response,410,1264780,0.0-19.0-1.11,77715,List1A,white,man,,,,null,,,,
null,is talking to,,html-keyboard-response,411,1266781,0.0-19.0-2.11,77715,List1A,white,man,,,,null,,,,
4403,,,survey-text,412,1271185,0.0-19.0-3.11,77715,List1A,white,man,,,,,"{""Q0"":""kate is talking to fred""}","<img src=""stim_listA/talk1.gif""style=""height:400px;""></stim_listA>",is talking to,
null,"<div style=""font-size:60px;"">+</div>",,html-keyboard-response,413,1271688,0.0-19.0-0.12,77715,List1A,white,man,,,,null,,,,
null,"<img src=""stim_listA/marry7.gif""style=""height:400px;""></stim_listA>",,html-keyboard-response,414,1273689,0.0-19.0-1.12,77715,List1A,white,man,,,,null,,,,
null,is marrying,,html-keyboard-response,415,1275690,0.0-19.0-2.12,77715,List1A,white,man,,,,null,,,,
3967,,,survey-text,416,1279658,0.0-19.0-3.12,77715,List1A,white,man,,,,,"{""Q0"":""ruth is marrying kate""}","<img src=""stim_listA/marry7.gif""style=""height:400px;""></stim_listA>",is marrying,
null,"<div style=""font-size:60px;"">+</div>",,html-keyboard-response,417,1280160,0.0-19.0-0.13,77715,List1A,white,man,,,,null,,,,
null,"<img src=""stim_listA/flirt6.gif""style=""height:400px;""></stim_listA>",,html-keyboard-response,418,1282163,0.0-19.0-1.13,77715,List1A,white,man,,,,null,,,,
null,are flirting with each other,,html-keyboard-response,419,1284164,0.0-19.0-2.13,77715,List1A,white,man,,,,null,,,,
9270,,,survey-text,420,1293434,0.0-19.0-3.13,77715,List1A,white,man,,,,,"{""Q0"":""mike and dave are flirting with each other""}","<img src=""stim_listA/flirt6.gif""style=""height:400px;""></stim_listA>",are flirting with each other,
null,"<div style=""font-size:60px;"">+</div>",,html-keyboard-response,421,1293936,0.0-19.0-0.14,77715,List1A,white,man,,,,null,,,,
null,"<img src=""stim_listA/touch3.gif""style=""height:400px;""></stim_listA>",,html-keyboard-response,422,1295939,0.0-19.0-1.14,77715,List1A,white,man,,,,null,,,,
null,is touching,,html-keyboard-response,423,1297940,0.0-19.0-2.14,77715,List1A,white,man,,,,null,,,,
3297,,,survey-text,424,1301239,0.0-19.0-3.14,77715,List1A,white,man,,,,,"{""Q0"":""dave is touching jane""}","<img src=""stim_listA/touch3.gif""style=""height:400px;""></stim_listA>",is touching,
null,"<div style=""font-size:60px;"">+</div>",,html-keyboard-response,425,1301740,0.0-19.0-0.15,77715,List1A,white,man,,,,null,,,,
null,"<img src=""stim_listA/marry6.gif""style=""height:400px;""></stim_listA>",,html-keyboard-response,426,1303741,0.0-19.0-1.15,77715,List1A,white,man,,,,null,,,,
null,are marrying each other,,html-keyboard-response,427,1305743,0.0-19.0-2.15,77715,List1A,white,man,,,,null,,,,
5887,,,survey-text,428,1311631,0.0-19.0-3.15,77715,List1A,white,man,,,,,"{""Q0"":""dave and jane are marrying each other""}","<img src=""stim_listA/marry6.gif""style=""height:400px;""></stim_listA>",are marrying each other,
null,"<div style=""font-size:60px;"">+</div>",,html-keyboard-response,429,1312133,0.0-19.0-0.16,77715,List1A,white,man,,,,null,,,,
null,"<img src=""stim_listA/argue5.gif""style=""height:400px;""></stim_listA>",,html-keyboard-response,430,1314135,0.0-19.0-1.16,77715,List1A,white,man,,,,null,,,,
null,is arguing with,,html-keyboard-response,431,1316136,0.0-19.0-2.16,77715,List1A,white,man,,,,null,,,,
5927,,,survey-text,432,1322065,0.0-19.0-3.16,77715,List1A,white,man,,,,,"{""Q0"":""luke is arguing with mike""}","<img src=""stim_listA/argue5.gif""style=""height:400px;""></stim_listA>",is arguing with,
null,"<div style=""font-size:60px;"">+</div>",,html-keyboard-response,433,1322566,0.0-19.0-0.17,77715,List1A,white,man,,,,null,,,,
null,"<img src=""stim_listA/fight2.gif""style=""height:400px;""></stim_listA>",,html-keyboard-response,434,1324568,0.0-19.0-1.17,77715,List1A,white,man,,,,null,,,,
null,are fighting each other,,html-keyboard-response,435,1326570,0.0-19.0-2.17,77715,List1A,white,man,,,,null,,,,
7397,,,survey-text,436,1333968,0.0-19.0-3.17,77715,List1A,white,man,,,,,"{""Q0"":""beth and fred are fighting each other""}","<img src=""stim_listA/fight2.gif""style=""height:400px;""></stim_listA>",are fighting each other,
null,"<div style=""font-size:60px;"">+</div>",,html-keyboard-response,437,1334470,0.0-19.0-0.18,77715,List1A,white,man,,,,null,,,,
null,"<img src=""stim_listA/fight1.gif""style=""height:400px;""></stim_listA>",,html-keyboard-response,438,1336473,0.0-19.0-1.18,77715,List1A,white,man,,,,null,,,,
null,is fighting,,html-keyboard-response,439,1338475,0.0-19.0-2.18,77715,List1A,white,man,,,,null,,,,
7754,,,survey-text,440,1346231,0.0-19.0-3.18,77715,List1A,white,man,,,,,"{""Q0"":""jane and mike are fighting each other""}","<img src=""stim_listA/fight1.gif""style=""height:400px;""></stim_listA>",is fighting,
null,"<div style=""font-size:60px;"">+</div>",,html-keyboard-response,441,1346732,0.0-19.0-0.19,77715,List1A,white,man,,,,null,,,,
null,"<img src=""stim_listA/fight3.gif""style=""height:400px;""></stim_listA>",,html-keyboard-response,442,1348735,0.0-19.0-1.19,77715,List1A,white,man,,,,null,,,,
null,is fighting,,html-keyboard-response,443,1350736,0.0-19.0-2.19,77715,List1A,white,man,,,,null,,,,
5808,,,survey-text,444,1356546,0.0-19.0-3.19,77715,List1A,white,man,,,,,"{""Q0"":""dave and kate are fighting each other""}","<img src=""stim_listA/fight3.gif""style=""height:400px;""></stim_listA>",is fighting,
1652,<p>Thank you for completing that task.</p><p>The final part of this session is a short questionnaire.</p><p>Press Continue.</p>,0,html-button-response,445,1358200,0.0-20.0,77715,List1A,white,man,,,,,,,,
18060,,,survey-text,446,1377263,0.0-21.0,77715,List1A,white,man,,,,,"{""Q0"":""22"",""Q1"":""English"",""Q2"":""English"",""Q3"":""United Kingdom"",""Q4"":""White"",""Q5"":""Male""}",,,demographics
7742,,,survey-likert,447,1385009,0.0-22.0,77715,List1A,white,man,,,,,"{""Q0"":4}",,,likert_ESS
4920,,,survey-likert,448,1389935,0.0-23.0,77715,List1A,white,man,,,,,"{""Q0"":4}",,,likert_NSSAL_Q1
3439,,,survey-likert,449,1393379,0.0-24.0,77715,List1A,white,man,,,,,"{""Q0"":4}",,,likert_NSSAL_Q2
2469,,,survey-likert,450,1395855,0.0-25.0,77715,List1A,white,man,,,,,"{""Q0"":4}",,,likert_CGRS_Q1
3042,,,survey-likert,451,1398904,0.0-26.0,77715,List1A,white,man,,,,,"{""Q0"":4}",,,likert_CGRS_Q2
2249,,,survey-likert,452,1401160,0.0-27.0,77715,List1A,white,man,,,,,"{""Q0"":4}",,,likert_CGRS_Q3
3797,,,survey-text,453,1404964,0.0-28.0,77715,List1A,white,man,,,,,"{""Q0"":""ccc""}",,,worker_id
6718,,,external-html,454,1411780,0.0-29.0,77715,List1A,white,man,debrief.html,,,,,,,
