rt,stimulus,button_pressed,trial_type,trial_index,time_elapsed,internal_node_id,subject,list,ppt_race,ppt_gender,url,first_guess,correct,key_press,responses,image_type,phrase_type,test_part
2358,Welcome to the experiment. Press Continue to begin.,0,html-button-response,0,2370,0.0-0.0,77725,List1A,white,man,,,,,,,,
32562,,,external-html,1,36014,0.0-1.0,77725,List1A,white,man,consent.html,,,,,,,
9850,"<p>On the next page, you will see portraits of 8 people and their names.</p><p>Your first task is to take a few minutes to memorise the names of these people.</p><p>You will have to recall their names during the rest of the experiment, so it is</p><p>essential that you try to memorise these people and their names as best as you can.</p><br><p><strong>You will then be tested on your memory of these names and portraits.</strong></p><br><p>The experiment will start after you have completed this memory test.</p><br><p>Ready?</p>",0,html-button-response,2,45870,0.0-2.0,77725,List1A,white,man,,,,,,,,
101352,"<img src='img/portrait_matrix_list1.jpg' style='width:900px;height:500px;''></img><p>If you have memorised all the portraits and names and are ready to start, press Continue.</p><p><strong>Please note: Your memory of these faces will be tested 4 times during this experiment.</strong></p>",0,html-button-response,3,148241,0.0-3.0-0.0,77725,List1A,white,man,,,,,,,,
7888,"<img src=""portrait/BW2.jpg""style=""height:400px;""></img>",2,html-button-response,4,157156,0.0-3.0-1.0,77725,List1A,white,man,,TRUE,2,,,,,
null,CORRECT,,html-keyboard-response,5,158714,0.0-3.0-2.0-0.0,77725,List1A,white,man,,,,null,,,,
8565,"<img src=""portrait/BW1.jpg""style=""height:400px;""></img>",0,html-button-response,6,167287,0.0-3.0-4.0,77725,List1A,white,man,,TRUE,0,,,,,
null,CORRECT,,html-keyboard-response,7,168817,0.0-3.0-5.0-0.0,77725,List1A,white,man,,,,null,,,,
5382,"<img src=""portrait/WW1.jpg""style=""height:400px;""></img>",1,html-button-response,8,174209,0.0-3.0-7.0,77725,List1A,white,man,,TRUE,1,,,,,
null,CORRECT,,html-keyboard-response,9,175752,0.0-3.0-8.0-0.0,77725,List1A,white,man,,,,null,,,,
7020,"<img src=""portrait/WM2.jpg""style=""height:400px;""></img>",7,html-button-response,10,182779,0.0-3.0-10.0,77725,List1A,white,man,,TRUE,7,,,,,
null,CORRECT,,html-keyboard-response,11,184321,0.0-3.0-11.0-0.0,77725,List1A,white,man,,,,null,,,,
4748,"<img src=""portrait/WM1.jpg""style=""height:400px;""></img>",6,html-button-response,12,189074,0.0-3.0-13.0,77725,List1A,white,man,,TRUE,6,,,,,
null,CORRECT,,html-keyboard-response,13,190618,0.0-3.0-14.0-0.0,77725,List1A,white,man,,,,null,,,,
7600,"<img src=""portrait/BM2.jpg""style=""height:400px;""></img>",5,html-button-response,14,198224,0.0-3.0-16.0,77725,List1A,white,man,,TRUE,5,,,,,
null,CORRECT,,html-keyboard-response,15,199760,0.0-3.0-17.0-0.0,77725,List1A,white,man,,,,null,,,,
4952,"<img src=""portrait/WW2.jpg""style=""height:400px;""></img>",3,html-button-response,16,204719,0.0-3.0-19.0,77725,List1A,white,man,,TRUE,3,,,,,
null,CORRECT,,html-keyboard-response,17,206258,0.0-3.0-20.0-0.0,77725,List1A,white,man,,,,null,,,,
3754,"<img src=""portrait/BM1.jpg""style=""height:400px;""></img>",4,html-button-response,18,210018,0.0-3.0-22.0,77725,List1A,white,man,,TRUE,4,,,,,
null,CORRECT,,html-keyboard-response,19,211560,0.0-3.0-23.0-0.0,77725,List1A,white,man,,,,null,,,,
2493,<p>You got 8 out of 8 right first time. Press Continue.</p>,0,html-button-response,20,214059,0.0-3.0-25.0,77725,List1A,white,man,,,,,,,,
41658,"<p>In this experiment, you will view photographs of the people from the memory game interacting.</p><p>By using the <strong>exact</strong> phrase given <i>after</i> the photograph appears and recalling the correct names of the people in the photographs, form a sentence describing the interaction. You do not need to capitalise names.</p><p>Type your answer in the space provided. Please complete every sentence before moving onto the next trial.</p><p>You will only have a few seconds to memorise each given photograph and phrase before you can respond, so try your best to focus.</p><p>An example is given below. Press 'Continue' when you are ready.</p><img src='img/speaking_example.jpg' style='width:800px;height:460px;''></img>",0,html-button-response,21,256741,0.0-4.0,77725,List1A,white,man,,,,,,,,
2841,"<p>Before the experiment starts, you will watch two example trials. Press 'Continue'.</p>",0,html-button-response,22,260613,0.0-5.0,77725,List1A,white,man,,,,,,,,
null,<img src='img/meet_eg.gif' style='height:400px;''></img>,,html-keyboard-response,23,263667,0.0-6.0,77725,List1A,white,man,,,,null,,,,
null,<p>is meeting</p>,,html-keyboard-response,24,265654,0.0-7.0,77725,List1A,white,man,,,,null,,,,
6318,<p><b>Answer:</b> kate is meeting beth</p>,0,html-button-response,25,271976,0.0-8.0,77725,List1A,white,man,,,,,,,,
null,<img src='img/look_eg.gif' style='height:400px;''></img>,,html-keyboard-response,26,275033,0.0-9.0,77725,List1A,white,man,,,,null,,,,
null,<p>are looking at each other</p>,,html-keyboard-response,27,277032,0.0-10.0,77725,List1A,white,man,,,,null,,,,
7099,<p><b>Answer:</b> luke and dave are looking at each other</p>,0,html-button-response,28,284135,0.0-11.0,77725,List1A,white,man,,,,,,,,
9978,"<p>Ready to start the experiment?</p><br><p><strong>Remember to describe the picture using a full sentence,</strong></p><p><strong>that combines the names of the people with the <i>exact</i> phrase given.</strong></p><p><strong>To receive full payment you must do this correctly.</strong></p><p><strong> You do not need to capitalise names or use punctuation.</strong></p><br><p>Press 'Continue' to begin.</p>",0,html-button-response,29,295129,0.0-12.0,77725,List1A,white,man,,,,,,,,
null,"<div style=""font-size:60px;"">+</div>",,html-keyboard-response,30,296672,0.0-13.0-0.0,77725,List1A,white,man,,,,null,,,,
null,"<img src=""stim_listA/play1.gif""style=""height:400px;""></stim_listA>",,html-keyboard-response,31,298679,0.0-13.0-1.0,77725,List1A,white,man,,,,null,,,,
null,is playing with,,html-keyboard-response,32,300695,0.0-13.0-2.0,77725,List1A,white,man,,,,null,,,,
25626,,,survey-text,33,326330,0.0-13.0-3.0,77725,List1A,white,man,,,,,"{""Q0"":""Kate is playing with Mike""}","<img src=""stim_listA/play1.gif""style=""height:400px;""></stim_listA>",is playing with,
null,"<div style=""font-size:60px;"">+</div>",,html-keyboard-response,34,326855,0.0-13.0-0.1,77725,List1A,white,man,,,,null,,,,
null,"<img src=""stim_listA/shout4.gif""style=""height:400px;""></stim_listA>",,html-keyboard-response,35,328886,0.0-13.0-1.1,77725,List1A,white,man,,,,null,,,,
null,are shouting at each other,,html-keyboard-response,36,330871,0.0-13.0-2.1,77725,List1A,white,man,,,,null,,,,
24166,,,survey-text,37,355043,0.0-13.0-3.1,77725,List1A,white,man,,,,,"{""Q0"":""Jane and Dave are shouting at each other""}","<img src=""stim_listA/shout4.gif""style=""height:400px;""></stim_listA>",are shouting at each other,
null,"<div style=""font-size:60px;"">+</div>",,html-keyboard-response,38,355556,0.0-13.0-0.2,77725,List1A,white,man,,,,null,,,,
null,"<img src=""stim_listA/play2.gif""style=""height:400px;""></stim_listA>",,html-keyboard-response,39,357586,0.0-13.0-1.2,77725,List1A,white,man,,,,null,,,,
null,are playing with each other,,html-keyboard-response,40,359588,0.0-13.0-2.2,77725,List1A,white,man,,,,null,,,,
24869,,,survey-text,41,384464,0.0-13.0-3.2,77725,List1A,white,man,,,,,"{""Q0"":""Beth and Fred are playing with each other""}","<img src=""stim_listA/play2.gif""style=""height:400px;""></stim_listA>",are playing with each other,
null,"<div style=""font-size:60px;"">+</div>",,html-keyboard-response,42,384971,0.0-13.0-0.3,77725,List1A,white,man,,,,null,,,,
null,"<img src=""stim_listA/touch3.gif""style=""height:400px;""></stim_listA>",,html-keyboard-response,43,387000,0.0-13.0-1.3,77725,List1A,white,man,,,,null,,,,
null,is touching,,html-keyboard-response,44,388999,0.0-13.0-2.3,77725,List1A,white,man,,,,null,,,,
22550,,,survey-text,45,411554,0.0-13.0-3.3,77725,List1A,white,man,,,,,"{""Q0"":""Luke is touching Jane""}","<img src=""stim_listA/touch3.gif""style=""height:400px;""></stim_listA>",is touching,
null,"<div style=""font-size:60px;"">+</div>",,html-keyboard-response,46,412065,0.0-13.0-0.4,77725,List1A,white,man,,,,null,,,,
null,"<img src=""stim_listA/talk7.gif""style=""height:400px;""></stim_listA>",,html-keyboard-response,47,414098,0.0-13.0-1.4,77725,List1A,white,man,,,,null,,,,
null,is talking to,,html-keyboard-response,48,416099,0.0-13.0-2.4,77725,List1A,white,man,,,,null,,,,
23637,,,survey-text,49,439741,0.0-13.0-3.4,77725,List1A,white,man,,,,,"{""Q0"":""Beth is touching Jane""}","<img src=""stim_listA/talk7.gif""style=""height:400px;""></stim_listA>",is talking to,
null,"<div style=""font-size:60px;"">+</div>",,html-keyboard-response,50,440256,0.0-13.0-0.5,77725,List1A,white,man,,,,null,,,,
null,"<img src=""stim_listA/shout6.gif""style=""height:400px;""></stim_listA>",,html-keyboard-response,51,442285,0.0-13.0-1.5,77725,List1A,white,man,,,,null,,,,
null,are shouting at each other,,html-keyboard-response,52,444266,0.0-13.0-2.5,77725,List1A,white,man,,,,null,,,,
52337,,,survey-text,53,496608,0.0-13.0-3.5,77725,List1A,white,man,,,,,"{""Q0"":""Mike and Luke are shouiting at each other""}","<img src=""stim_listA/shout6.gif""style=""height:400px;""></stim_listA>",are shouting at each other,
null,"<div style=""font-size:60px;"">+</div>",,html-keyboard-response,54,497129,0.0-13.0-0.6,77725,List1A,white,man,,,,null,,,,
null,"<img src=""stim_listA/touch2.gif""style=""height:400px;""></stim_listA>",,html-keyboard-response,55,499163,0.0-13.0-1.6,77725,List1A,white,man,,,,null,,,,
null,are touching each other,,html-keyboard-response,56,501147,0.0-13.0-2.6,77725,List1A,white,man,,,,null,,,,
25265,,,survey-text,57,526415,0.0-13.0-3.6,77725,List1A,white,man,,,,,"{""Q0"":""Fred and Beth are touching each other""}","<img src=""stim_listA/touch2.gif""style=""height:400px;""></stim_listA>",are touching each other,
null,"<div style=""font-size:60px;"">+</div>",,html-keyboard-response,58,526927,0.0-13.0-0.7,77725,List1A,white,man,,,,null,,,,
null,"<img src=""stim_listA/talk5.gif""style=""height:400px;""></stim_listA>",,html-keyboard-response,59,528958,0.0-13.0-1.7,77725,List1A,white,man,,,,null,,,,
null,is talking to,,html-keyboard-response,60,530957,0.0-13.0-2.7,77725,List1A,white,man,,,,null,,,,
15501,,,survey-text,61,546463,0.0-13.0-3.7,77725,List1A,white,man,,,,,"{""Q0"":""Luke is talking to Fred""}","<img src=""stim_listA/talk5.gif""style=""height:400px;""></stim_listA>",is talking to,
null,"<div style=""font-size:60px;"">+</div>",,html-keyboard-response,62,546975,0.0-13.0-0.8,77725,List1A,white,man,,,,null,,,,
null,"<img src=""stim_listA/shout2.gif""style=""height:400px;""></stim_listA>",,html-keyboard-response,63,549005,0.0-13.0-1.8,77725,List1A,white,man,,,,null,,,,
null,are shouting at each other,,html-keyboard-response,64,550990,0.0-13.0-2.8,77725,List1A,white,man,,,,null,,,,
23820,,,survey-text,65,574816,0.0-13.0-3.8,77725,List1A,white,man,,,,,"{""Q0"":""Kate and Mike are shouting at each other""}","<img src=""stim_listA/shout2.gif""style=""height:400px;""></stim_listA>",are shouting at each other,
null,"<div style=""font-size:60px;"">+</div>",,html-keyboard-response,66,575324,0.0-13.0-0.9,77725,List1A,white,man,,,,null,,,,
null,"<img src=""stim_listA/shout5.gif""style=""height:400px;""></stim_listA>",,html-keyboard-response,67,577358,0.0-13.0-1.9,77725,List1A,white,man,,,,null,,,,
null,is shouting at,,html-keyboard-response,68,579357,0.0-13.0-2.9,77725,List1A,white,man,,,,null,,,,
17494,,,survey-text,69,596856,0.0-13.0-3.9,77725,List1A,white,man,,,,,"{""Q0"":""Fred is shouting at Luke""}","<img src=""stim_listA/shout5.gif""style=""height:400px;""></stim_listA>",is shouting at,
null,"<div style=""font-size:60px;"">+</div>",,html-keyboard-response,70,597382,0.0-13.0-0.10,77725,List1A,white,man,,,,null,,,,
null,"<img src=""stim_listA/talk4.gif""style=""height:400px;""></stim_listA>",,html-keyboard-response,71,599415,0.0-13.0-1.10,77725,List1A,white,man,,,,null,,,,
null,are talking to each other,,html-keyboard-response,72,601414,0.0-13.0-2.10,77725,List1A,white,man,,,,null,,,,
20468,,,survey-text,73,621887,0.0-13.0-3.10,77725,List1A,white,man,,,,,"{""Q0"":""Ruth and Dave are talking to each other""}","<img src=""stim_listA/talk4.gif""style=""height:400px;""></stim_listA>",are talking to each other,
null,"<div style=""font-size:60px;"">+</div>",,html-keyboard-response,74,622413,0.0-13.0-0.11,77725,List1A,white,man,,,,null,,,,
null,"<img src=""stim_listA/talk8.gif""style=""height:400px;""></stim_listA>",,html-keyboard-response,75,624445,0.0-13.0-1.11,77725,List1A,white,man,,,,null,,,,
null,are talking to each other,,html-keyboard-response,76,626445,0.0-13.0-2.11,77725,List1A,white,man,,,,null,,,,
17605,,,survey-text,77,644057,0.0-13.0-3.11,77725,List1A,white,man,,,,,"{""Q0"":""Kate and Ruth are talking to each other""}","<img src=""stim_listA/talk8.gif""style=""height:400px;""></stim_listA>",are talking to each other,
null,"<div style=""font-size:60px;"">+</div>",,html-keyboard-response,78,644568,0.0-13.0-0.12,77725,List1A,white,man,,,,null,,,,
null,"<img src=""stim_listA/marry1.gif""style=""height:400px;""></stim_listA>",,html-keyboard-response,79,646597,0.0-13.0-1.12,77725,List1A,white,man,,,,null,,,,
null,is marrying,,html-keyboard-response,80,648600,0.0-13.0-2.12,77725,List1A,white,man,,,,null,,,,
19762,,,survey-text,81,668368,0.0-13.0-3.12,77725,List1A,white,man,,,,,"{""Q0"":""Mike is marrying Beth""}","<img src=""stim_listA/marry1.gif""style=""height:400px;""></stim_listA>",is marrying,
null,"<div style=""font-size:60px;"">+</div>",,html-keyboard-response,82,668895,0.0-13.0-0.13,77725,List1A,white,man,,,,null,,,,
null,"<img src=""stim_listA/flirt6.gif""style=""height:400px;""></stim_listA>",,html-keyboard-response,83,670910,0.0-13.0-1.13,77725,List1A,white,man,,,,null,,,,
null,are flirting with each other,,html-keyboard-response,84,672926,0.0-13.0-2.13,77725,List1A,white,man,,,,null,,,,
14434,,,survey-text,85,687365,0.0-13.0-3.13,77725,List1A,white,man,,,,,"{""Q0"":""Mike and Luke""}","<img src=""stim_listA/flirt6.gif""style=""height:400px;""></stim_listA>",are flirting with each other,
null,"<div style=""font-size:60px;"">+</div>",,html-keyboard-response,86,687876,0.0-13.0-0.14,77725,List1A,white,man,,,,null,,,,
null,"<img src=""stim_listA/flirt4.gif""style=""height:400px;""></stim_listA>",,html-keyboard-response,87,689909,0.0-13.0-1.14,77725,List1A,white,man,,,,null,,,,
null,are flirting with each other,,html-keyboard-response,88,691909,0.0-13.0-2.14,77725,List1A,white,man,,,,null,,,,
24875,,,survey-text,89,716789,0.0-13.0-3.14,77725,List1A,white,man,,,,,"{""Q0"":""Dave and Ruth are flirting with each other""}","<img src=""stim_listA/flirt4.gif""style=""height:400px;""></stim_listA>",are flirting with each other,
null,"<div style=""font-size:60px;"">+</div>",,html-keyboard-response,90,717316,0.0-13.0-0.15,77725,List1A,white,man,,,,null,,,,
null,"<img src=""stim_listA/touch6.gif""style=""height:400px;""></stim_listA>",,html-keyboard-response,91,719349,0.0-13.0-1.15,77725,List1A,white,man,,,,null,,,,
null,are touching each other,,html-keyboard-response,92,721349,0.0-13.0-2.15,77725,List1A,white,man,,,,null,,,,
20979,,,survey-text,93,742334,0.0-13.0-3.15,77725,List1A,white,man,,,,,"{""Q0"":""Fred and Luke are touching each other""}","<img src=""stim_listA/touch6.gif""style=""height:400px;""></stim_listA>",are touching each other,
null,"<div style=""font-size:60px;"">+</div>",,html-keyboard-response,94,742844,0.0-13.0-0.16,77725,List1A,white,man,,,,null,,,,
null,"<img src=""stim_listA/dance1.gif""style=""height:400px;""></stim_listA>",,html-keyboard-response,95,744876,0.0-13.0-1.16,77725,List1A,white,man,,,,null,,,,
null,is dancing with,,html-keyboard-response,96,746875,0.0-13.0-2.16,77725,List1A,white,man,,,,null,,,,
13008,,,survey-text,97,759891,0.0-13.0-3.16,77725,List1A,white,man,,,,,"{""Q0"":""Fred is dancing with Kate""}","<img src=""stim_listA/dance1.gif""style=""height:400px;""></stim_listA>",is dancing with,
null,"<div style=""font-size:60px;"">+</div>",,html-keyboard-response,98,760417,0.0-13.0-0.17,77725,List1A,white,man,,,,null,,,,
null,"<img src=""stim_listA/talk6.gif""style=""height:400px;""></stim_listA>",,html-keyboard-response,99,762433,0.0-13.0-1.17,77725,List1A,white,man,,,,null,,,,
null,are talking to each other,,html-keyboard-response,100,764449,0.0-13.0-2.17,77725,List1A,white,man,,,,null,,,,
18574,,,survey-text,101,783028,0.0-13.0-3.17,77725,List1A,white,man,,,,,"{""Q0"":""Luke and Mike are talking to each other""}","<img src=""stim_listA/talk6.gif""style=""height:400px;""></stim_listA>",are talking to each other,
null,"<div style=""font-size:60px;"">+</div>",,html-keyboard-response,102,783543,0.0-13.0-0.18,77725,List1A,white,man,,,,null,,,,
null,"<img src=""stim_listA/kiss8.gif""style=""height:400px;""></stim_listA>",,html-keyboard-response,103,785558,0.0-13.0-1.18,77725,List1A,white,man,,,,null,,,,
null,are kissing each other,,html-keyboard-response,104,787572,0.0-13.0-2.18,77725,List1A,white,man,,,,null,,,,
20243,,,survey-text,105,807821,0.0-13.0-3.18,77725,List1A,white,man,,,,,"{""Q0"":""Kate and Jane are kissing each other""}","<img src=""stim_listA/kiss8.gif""style=""height:400px;""></stim_listA>",are kissing each other,
null,"<div style=""font-size:60px;"">+</div>",,html-keyboard-response,106,808331,0.0-13.0-0.19,77725,List1A,white,man,,,,null,,,,
null,"<img src=""stim_listA/kiss2.gif""style=""height:400px;""></stim_listA>",,html-keyboard-response,107,810347,0.0-13.0-1.19,77725,List1A,white,man,,,,null,,,,
null,are kissing each other,,html-keyboard-response,108,812362,0.0-13.0-2.19,77725,List1A,white,man,,,,null,,,,
19045,,,survey-text,109,831413,0.0-13.0-3.19,77725,List1A,white,man,,,,,"{""Q0"":""Kate and Mike are kissing each other""}","<img src=""stim_listA/kiss2.gif""style=""height:400px;""></stim_listA>",are kissing each other,
27403,"<img src='img/portrait_matrix_list1.jpg' style='width:900px;height:500px;''></img><p>If you have memorised all the portraits and names and are ready to start, press Continue.</p><p><strong>Please note: Your memory of these faces will be tested 4 times during this experiment.</strong></p>",0,html-button-response,110,858825,0.0-14.0-0.0,77725,List1A,white,man,,,,,,,,
5997,"<img src=""portrait/WM2.jpg""style=""height:400px;""></img>",7,html-button-response,111,865853,0.0-14.0-1.0,77725,List1A,white,man,,TRUE,7,,,,,
null,CORRECT,,html-keyboard-response,112,867412,0.0-14.0-2.0-0.0,77725,List1A,white,man,,,,null,,,,
5387,"<img src=""portrait/BW2.jpg""style=""height:400px;""></img>",2,html-button-response,113,872807,0.0-14.0-4.0,77725,List1A,white,man,,TRUE,2,,,,,
null,CORRECT,,html-keyboard-response,114,874364,0.0-14.0-5.0-0.0,77725,List1A,white,man,,,,null,,,,
3392,"<img src=""portrait/BM1.jpg""style=""height:400px;""></img>",4,html-button-response,115,877764,0.0-14.0-7.0,77725,List1A,white,man,,TRUE,4,,,,,
null,CORRECT,,html-keyboard-response,116,879322,0.0-14.0-8.0-0.0,77725,List1A,white,man,,,,null,,,,
3781,"<img src=""portrait/WM1.jpg""style=""height:400px;""></img>",6,html-button-response,117,883110,0.0-14.0-10.0,77725,List1A,white,man,,TRUE,6,,,,,
null,CORRECT,,html-keyboard-response,118,884669,0.0-14.0-11.0-0.0,77725,List1A,white,man,,,,null,,,,
3614,"<img src=""portrait/WW2.jpg""style=""height:400px;""></img>",3,html-button-response,119,888290,0.0-14.0-13.0,77725,List1A,white,man,,TRUE,3,,,,,
null,CORRECT,,html-keyboard-response,120,889849,0.0-14.0-14.0-0.0,77725,List1A,white,man,,,,null,,,,
4450,"<img src=""portrait/WW1.jpg""style=""height:400px;""></img>",1,html-button-response,121,894307,0.0-14.0-16.0,77725,List1A,white,man,,TRUE,1,,,,,
null,CORRECT,,html-keyboard-response,122,895866,0.0-14.0-17.0-0.0,77725,List1A,white,man,,,,null,,,,
5571,"<img src=""portrait/BM2.jpg""style=""height:400px;""></img>",5,html-button-response,123,901445,0.0-14.0-19.0,77725,List1A,white,man,,TRUE,5,,,,,
null,CORRECT,,html-keyboard-response,124,903003,0.0-14.0-20.0-0.0,77725,List1A,white,man,,,,null,,,,
5705,"<img src=""portrait/BW1.jpg""style=""height:400px;""></img>",0,html-button-response,125,908716,0.0-14.0-22.0,77725,List1A,white,man,,TRUE,0,,,,,
null,CORRECT,,html-keyboard-response,126,910274,0.0-14.0-23.0-0.0,77725,List1A,white,man,,,,null,,,,
4251,<p>You got 8 out of 8 right first time. Press Continue.</p>,0,html-button-response,127,914532,0.0-14.0-25.0,77725,List1A,white,man,,,,,,,,
null,"<div style=""font-size:60px;"">+</div>",,html-keyboard-response,128,916090,0.0-15.0-0.0,77725,List1A,white,man,,,,null,,,,
null,"<img src=""stim_listA/flirt3.gif""style=""height:400px;""></stim_listA>",,html-keyboard-response,129,918122,0.0-15.0-1.0,77725,List1A,white,man,,,,null,,,,
null,is flirting with,,html-keyboard-response,130,920121,0.0-15.0-2.0,77725,List1A,white,man,,,,null,,,,
15525,,,survey-text,131,935653,0.0-15.0-3.0,77725,List1A,white,man,,,,,"{""Q0"":""Jane is flirting with Luke""}","<img src=""stim_listA/flirt3.gif""style=""height:400px;""></stim_listA>",is flirting with,
null,"<div style=""font-size:60px;"">+</div>",,html-keyboard-response,132,936179,0.0-15.0-0.1,77725,List1A,white,man,,,,null,,,,
null,"<img src=""stim_listA/flirt1.gif""style=""height:400px;""></stim_listA>",,html-keyboard-response,133,938211,0.0-15.0-1.1,77725,List1A,white,man,,,,null,,,,
null,is flirting with,,html-keyboard-response,134,940225,0.0-15.0-2.1,77725,List1A,white,man,,,,null,,,,
10049,,,survey-text,135,950280,0.0-15.0-3.1,77725,List1A,white,man,,,,,"{""Q0"":""Fred is flirting with Kate""}","<img src=""stim_listA/flirt1.gif""style=""height:400px;""></stim_listA>",is flirting with,
null,"<div style=""font-size:60px;"">+</div>",,html-keyboard-response,136,950792,0.0-15.0-0.2,77725,List1A,white,man,,,,null,,,,
null,"<img src=""stim_listA/fight7.gif""style=""height:400px;""></stim_listA>",,html-keyboard-response,137,952802,0.0-15.0-1.2,77725,List1A,white,man,,,,null,,,,
null,is fighting,,html-keyboard-response,138,954811,0.0-15.0-2.2,77725,List1A,white,man,,,,null,,,,
12204,,,survey-text,139,967021,0.0-15.0-3.2,77725,List1A,white,man,,,,,"{""Q0"":""Kate is fighting Jane""}","<img src=""stim_listA/fight7.gif""style=""height:400px;""></stim_listA>",is fighting,
null,"<div style=""font-size:60px;"">+</div>",,html-keyboard-response,140,967546,0.0-15.0-0.3,77725,List1A,white,man,,,,null,,,,
null,"<img src=""stim_listA/argue3.gif""style=""height:400px;""></stim_listA>",,html-keyboard-response,141,969578,0.0-15.0-1.3,77725,List1A,white,man,,,,null,,,,
null,is arguing with,,html-keyboard-response,142,971577,0.0-15.0-2.3,77725,List1A,white,man,,,,null,,,,
20324,,,survey-text,143,991906,0.0-15.0-3.3,77725,List1A,white,man,,,,,"{""Q0"":""Dave is arguing with Ruth""}","<img src=""stim_listA/argue3.gif""style=""height:400px;""></stim_listA>",is arguing with,
null,"<div style=""font-size:60px;"">+</div>",,html-keyboard-response,144,992433,0.0-15.0-0.4,77725,List1A,white,man,,,,null,,,,
null,"<img src=""stim_listA/kiss7.gif""style=""height:400px;""></stim_listA>",,html-keyboard-response,145,994464,0.0-15.0-1.4,77725,List1A,white,man,,,,null,,,,
null,is kissing,,html-keyboard-response,146,996464,0.0-15.0-2.4,77725,List1A,white,man,,,,null,,,,
16062,,,survey-text,147,1012532,0.0-15.0-3.4,77725,List1A,white,man,,,,,"{""Q0"":""Beth is kissing Ruth""}","<img src=""stim_listA/kiss7.gif""style=""height:400px;""></stim_listA>",is kissing,
null,"<div style=""font-size:60px;"">+</div>",,html-keyboard-response,148,1013059,0.0-15.0-0.5,77725,List1A,white,man,,,,null,,,,
null,"<img src=""stim_listA/argue1.gif""style=""height:400px;""></stim_listA>",,html-keyboard-response,149,1015090,0.0-15.0-1.5,77725,List1A,white,man,,,,null,,,,
null,is arguing with,,html-keyboard-response,150,1017090,0.0-15.0-2.5,77725,List1A,white,man,,,,null,,,,
13110,,,survey-text,151,1030206,0.0-15.0-3.5,77725,List1A,white,man,,,,,"{""Q0"":""Mike is arguing with Beth""}","<img src=""stim_listA/argue1.gif""style=""height:400px;""></stim_listA>",is arguing with,
null,"<div style=""font-size:60px;"">+</div>",,html-keyboard-response,152,1030733,0.0-15.0-0.6,77725,List1A,white,man,,,,null,,,,
null,"<img src=""stim_listA/kiss4.gif""style=""height:400px;""></stim_listA>",,html-keyboard-response,153,1032764,0.0-15.0-1.6,77725,List1A,white,man,,,,null,,,,
null,are kissing each other,,html-keyboard-response,154,1034735,0.0-15.0-2.6,77725,List1A,white,man,,,,null,,,,
17047,,,survey-text,155,1051788,0.0-15.0-3.6,77725,List1A,white,man,,,,,"{""Q0"":""Jane and Dave are kissing each other""}","<img src=""stim_listA/kiss4.gif""style=""height:400px;""></stim_listA>",are kissing each other,
null,"<div style=""font-size:60px;"">+</div>",,html-keyboard-response,156,1052300,0.0-15.0-0.7,77725,List1A,white,man,,,,null,,,,
null,"<img src=""stim_listA/talk1.gif""style=""height:400px;""></stim_listA>",,html-keyboard-response,157,1054324,0.0-15.0-1.7,77725,List1A,white,man,,,,null,,,,
null,is talking to,,html-keyboard-response,158,1056314,0.0-15.0-2.7,77725,List1A,white,man,,,,null,,,,
10956,,,survey-text,159,1067274,0.0-15.0-3.7,77725,List1A,white,man,,,,,"{""Q0"":""Kate is talking to Fred""}","<img src=""stim_listA/talk1.gif""style=""height:400px;""></stim_listA>",is talking to,
null,"<div style=""font-size:60px;"">+</div>",,html-keyboard-response,160,1067783,0.0-15.0-0.8,77725,List1A,white,man,,,,null,,,,
null,"<img src=""stim_listA/play3.gif""style=""height:400px;""></stim_listA>",,html-keyboard-response,161,1069831,0.0-15.0-1.8,77725,List1A,white,man,,,,null,,,,
null,is playing with,,html-keyboard-response,162,1071831,0.0-15.0-2.8,77725,List1A,white,man,,,,null,,,,
14965,,,survey-text,163,1086802,0.0-15.0-3.8,77725,List1A,white,man,,,,,"{""Q0"":""Dave is playing with Jane""}","<img src=""stim_listA/play3.gif""style=""height:400px;""></stim_listA>",is playing with,
null,"<div style=""font-size:60px;"">+</div>",,html-keyboard-response,164,1087336,0.0-15.0-0.9,77725,List1A,white,man,,,,null,,,,
null,"<img src=""stim_listA/shout7.gif""style=""height:400px;""></stim_listA>",,html-keyboard-response,165,1089360,0.0-15.0-1.9,77725,List1A,white,man,,,,null,,,,
null,is shouting at,,html-keyboard-response,166,1091359,0.0-15.0-2.9,77725,List1A,white,man,,,,null,,,,
19565,,,survey-text,167,1110930,0.0-15.0-3.9,77725,List1A,white,man,,,,,"{""Q0"":""Beth is shouting at Ruth""}","<img src=""stim_listA/shout7.gif""style=""height:400px;""></stim_listA>",is shouting at,
null,"<div style=""font-size:60px;"">+</div>",,html-keyboard-response,168,1111458,0.0-15.0-0.10,77725,List1A,white,man,,,,null,,,,
null,"<img src=""stim_listA/shout3.gif""style=""height:400px;""></stim_listA>",,html-keyboard-response,169,1113490,0.0-15.0-1.10,77725,List1A,white,man,,,,null,,,,
null,is shouting at,,html-keyboard-response,170,1115489,0.0-15.0-2.10,77725,List1A,white,man,,,,null,,,,
15424,,,survey-text,171,1130919,0.0-15.0-3.10,77725,List1A,white,man,,,,,"{""Q0"":""Ruth is shouting at Luke""}","<img src=""stim_listA/shout3.gif""style=""height:400px;""></stim_listA>",is shouting at,
null,"<div style=""font-size:60px;"">+</div>",,html-keyboard-response,172,1131445,0.0-15.0-0.11,77725,List1A,white,man,,,,null,,,,
null,"<img src=""stim_listA/fight4.gif""style=""height:400px;""></stim_listA>",,html-keyboard-response,173,1133461,0.0-15.0-1.11,77725,List1A,white,man,,,,null,,,,
null,are fighting each other,,html-keyboard-response,174,1135467,0.0-15.0-2.11,77725,List1A,white,man,,,,null,,,,
15708,,,survey-text,175,1151180,0.0-15.0-3.11,77725,List1A,white,man,,,,,"{""Q0"":""Luke and Ruth are fighting each other""}","<img src=""stim_listA/fight4.gif""style=""height:400px;""></stim_listA>",are fighting each other,
null,"<div style=""font-size:60px;"">+</div>",,html-keyboard-response,176,1151714,0.0-15.0-0.12,77725,List1A,white,man,,,,null,,,,
null,"<img src=""stim_listA/dance3.gif""style=""height:400px;""></stim_listA>",,html-keyboard-response,177,1153738,0.0-15.0-1.12,77725,List1A,white,man,,,,null,,,,
null,is dancing with,,html-keyboard-response,178,1155720,0.0-15.0-2.12,77725,List1A,white,man,,,,null,,,,
11856,,,survey-text,179,1167582,0.0-15.0-3.12,77725,List1A,white,man,,,,,"{""Q0"":""Jane is dancing with Luke""}","<img src=""stim_listA/dance3.gif""style=""height:400px;""></stim_listA>",is dancing with,
null,"<div style=""font-size:60px;"">+</div>",,html-keyboard-response,180,1168109,0.0-15.0-0.13,77725,List1A,white,man,,,,null,,,,
null,"<img src=""stim_listA/fight5.gif""style=""height:400px;""></stim_listA>",,html-keyboard-response,181,1170125,0.0-15.0-1.13,77725,List1A,white,man,,,,null,,,,
null,is fighting,,html-keyboard-response,182,1172123,0.0-15.0-2.13,77725,List1A,white,man,,,,null,,,,
12045,,,survey-text,183,1184178,0.0-15.0-3.13,77725,List1A,white,man,,,,,"{""Q0"":""Mike is fighting Dave""}","<img src=""stim_listA/fight5.gif""style=""height:400px;""></stim_listA>",is fighting,
null,"<div style=""font-size:60px;"">+</div>",,html-keyboard-response,184,1184683,0.0-15.0-0.14,77725,List1A,white,man,,,,null,,,,
null,"<img src=""stim_listA/fight2.gif""style=""height:400px;""></stim_listA>",,html-keyboard-response,185,1186699,0.0-15.0-1.14,77725,List1A,white,man,,,,null,,,,
null,are fighting each other,,html-keyboard-response,186,1188714,0.0-15.0-2.14,77725,List1A,white,man,,,,null,,,,
14975,,,survey-text,187,1203695,0.0-15.0-3.14,77725,List1A,white,man,,,,,"{""Q0"":""Beth and Fred are fighting each other""}","<img src=""stim_listA/fight2.gif""style=""height:400px;""></stim_listA>",are fighting each other,
null,"<div style=""font-size:60px;"">+</div>",,html-keyboard-response,188,1204205,0.0-15.0-0.15,77725,List1A,white,man,,,,null,,,,
null,"<img src=""stim_listA/play7.gif""style=""height:400px;""></stim_listA>",,html-keyboard-response,189,1206237,0.0-15.0-1.15,77725,List1A,white,man,,,,null,,,,
null,is playing with,,html-keyboard-response,190,1208238,0.0-15.0-2.15,77725,List1A,white,man,,,,null,,,,
12397,,,survey-text,191,1220641,0.0-15.0-3.15,77725,List1A,white,man,,,,,"{""Q0"":""Kate is playing with Jane""}","<img src=""stim_listA/play7.gif""style=""height:400px;""></stim_listA>",is playing with,
null,"<div style=""font-size:60px;"">+</div>",,html-keyboard-response,192,1221167,0.0-15.0-0.16,77725,List1A,white,man,,,,null,,,,
null,"<img src=""stim_listA/fight3.gif""style=""height:400px;""></stim_listA>",,html-keyboard-response,193,1223199,0.0-15.0-1.16,77725,List1A,white,man,,,,null,,,,
null,is fighting,,html-keyboard-response,194,1225198,0.0-15.0-2.16,77725,List1A,white,man,,,,null,,,,
12059,,,survey-text,195,1237264,0.0-15.0-3.16,77725,List1A,white,man,,,,,"{""Q0"":""Jane is fighting Dave""}","<img src=""stim_listA/fight3.gif""style=""height:400px;""></stim_listA>",is fighting,
null,"<div style=""font-size:60px;"">+</div>",,html-keyboard-response,196,1237791,0.0-15.0-0.17,77725,List1A,white,man,,,,null,,,,
null,"<img src=""stim_listA/kiss1.gif""style=""height:400px;""></stim_listA>",,html-keyboard-response,197,1239825,0.0-15.0-1.17,77725,List1A,white,man,,,,null,,,,
null,is kissing,,html-keyboard-response,198,1241806,0.0-15.0-2.17,77725,List1A,white,man,,,,null,,,,
11072,,,survey-text,199,1252884,0.0-15.0-3.17,77725,List1A,white,man,,,,,"{""Q0"":""Fred is kissing Beth""}","<img src=""stim_listA/kiss1.gif""style=""height:400px;""></stim_listA>",is kissing,
null,"<div style=""font-size:60px;"">+</div>",,html-keyboard-response,200,1253403,0.0-15.0-0.18,77725,List1A,white,man,,,,null,,,,
null,"<img src=""stim_listA/dance2.gif""style=""height:400px;""></stim_listA>",,html-keyboard-response,201,1255421,0.0-15.0-1.18,77725,List1A,white,man,,,,null,,,,
null,are dancing with each other,,html-keyboard-response,202,1257415,0.0-15.0-2.18,77725,List1A,white,man,,,,null,,,,
15907,,,survey-text,203,1273329,0.0-15.0-3.18,77725,List1A,white,man,,,,,"{""Q0"":""Mike and Beth are dancing with each other""}","<img src=""stim_listA/dance2.gif""style=""height:400px;""></stim_listA>",are dancing with each other,
null,"<div style=""font-size:60px;"">+</div>",,html-keyboard-response,204,1273856,0.0-15.0-0.19,77725,List1A,white,man,,,,null,,,,
null,"<img src=""stim_listA/marry5.gif""style=""height:400px;""></stim_listA>",,html-keyboard-response,205,1275889,0.0-15.0-1.19,77725,List1A,white,man,,,,null,,,,
null,is marrying,,html-keyboard-response,206,1277888,0.0-15.0-2.19,77725,List1A,white,man,,,,null,,,,
11151,,,survey-text,207,1289046,0.0-15.0-3.19,77725,List1A,white,man,,,,,"{""Q0"":""Luke is marrying Mike""}","<img src=""stim_listA/marry5.gif""style=""height:400px;""></stim_listA>",is marrying,
6789,"<img src='img/portrait_matrix_list1.jpg' style='width:900px;height:500px;''></img><p>If you have memorised all the portraits and names and are ready to start, press Continue.</p><p><strong>Please note: Your memory of these faces will be tested 4 times during this experiment.</strong></p>",0,html-button-response,208,1295843,0.0-16.0-0.0,77725,List1A,white,man,,,,,,,,
5764,"<img src=""portrait/BW1.jpg""style=""height:400px;""></img>",0,html-button-response,209,1302639,0.0-16.0-1.0,77725,List1A,white,man,,TRUE,0,,,,,
null,CORRECT,,html-keyboard-response,210,1304199,0.0-16.0-2.0-0.0,77725,List1A,white,man,,,,null,,,,
4733,"<img src=""portrait/WM2.jpg""style=""height:400px;""></img>",7,html-button-response,211,1308941,0.0-16.0-4.0,77725,List1A,white,man,,TRUE,7,,,,,
null,CORRECT,,html-keyboard-response,212,1310498,0.0-16.0-5.0-0.0,77725,List1A,white,man,,,,null,,,,
3156,"<img src=""portrait/WW1.jpg""style=""height:400px;""></img>",1,html-button-response,213,1313662,0.0-16.0-7.0,77725,List1A,white,man,,TRUE,1,,,,,
null,CORRECT,,html-keyboard-response,214,1315221,0.0-16.0-8.0-0.0,77725,List1A,white,man,,,,null,,,,
2108,"<img src=""portrait/BM1.jpg""style=""height:400px;""></img>",4,html-button-response,215,1317339,0.0-16.0-10.0,77725,List1A,white,man,,TRUE,4,,,,,
null,CORRECT,,html-keyboard-response,216,1318896,0.0-16.0-11.0-0.0,77725,List1A,white,man,,,,null,,,,
2653,"<img src=""portrait/WW2.jpg""style=""height:400px;""></img>",3,html-button-response,217,1321558,0.0-16.0-13.0,77725,List1A,white,man,,TRUE,3,,,,,
null,CORRECT,,html-keyboard-response,218,1323113,0.0-16.0-14.0-0.0,77725,List1A,white,man,,,,null,,,,
3157,"<img src=""portrait/BW2.jpg""style=""height:400px;""></img>",2,html-button-response,219,1326276,0.0-16.0-16.0,77725,List1A,white,man,,TRUE,2,,,,,
null,CORRECT,,html-keyboard-response,220,1327833,0.0-16.0-17.0-0.0,77725,List1A,white,man,,,,null,,,,
3442,"<img src=""portrait/BM2.jpg""style=""height:400px;""></img>",5,html-button-response,221,1331285,0.0-16.0-19.0,77725,List1A,white,man,,TRUE,5,,,,,
null,CORRECT,,html-keyboard-response,222,1332843,0.0-16.0-20.0-0.0,77725,List1A,white,man,,,,null,,,,
3111,"<img src=""portrait/WM1.jpg""style=""height:400px;""></img>",6,html-button-response,223,1335962,0.0-16.0-22.0,77725,List1A,white,man,,TRUE,6,,,,,
null,CORRECT,,html-keyboard-response,224,1337520,0.0-16.0-23.0-0.0,77725,List1A,white,man,,,,null,,,,
3125,<p>You got 8 out of 8 right first time. Press Continue.</p>,0,html-button-response,225,1340655,0.0-16.0-25.0,77725,List1A,white,man,,,,,,,,
null,"<div style=""font-size:60px;"">+</div>",,html-keyboard-response,226,1342213,0.0-17.0-0.0,77725,List1A,white,man,,,,null,,,,
null,"<img src=""stim_listA/marry3.gif""style=""height:400px;""></stim_listA>",,html-keyboard-response,227,1344244,0.0-17.0-1.0,77725,List1A,white,man,,,,null,,,,
null,is marrying,,html-keyboard-response,228,1346240,0.0-17.0-2.0,77725,List1A,white,man,,,,null,,,,
13341,,,survey-text,229,1359587,0.0-17.0-3.0,77725,List1A,white,man,,,,,"{""Q0"":""Dave is marrying Ruth""}","<img src=""stim_listA/marry3.gif""style=""height:400px;""></stim_listA>",is marrying,
null,"<div style=""font-size:60px;"">+</div>",,html-keyboard-response,230,1360118,0.0-17.0-0.1,77725,List1A,white,man,,,,null,,,,
null,"<img src=""stim_listA/touch7.gif""style=""height:400px;""></stim_listA>",,html-keyboard-response,231,1362145,0.0-17.0-1.1,77725,List1A,white,man,,,,null,,,,
null,is touching,,html-keyboard-response,232,1364145,0.0-17.0-2.1,77725,List1A,white,man,,,,null,,,,
11275,,,survey-text,233,1375426,0.0-17.0-3.1,77725,List1A,white,man,,,,,"{""Q0"":""Jane is touching Kate""}","<img src=""stim_listA/touch7.gif""style=""height:400px;""></stim_listA>",is touching,
null,"<div style=""font-size:60px;"">+</div>",,html-keyboard-response,234,1375954,0.0-17.0-0.2,77725,List1A,white,man,,,,null,,,,
null,"<img src=""stim_listA/argue6.gif""style=""height:400px;""></stim_listA>",,html-keyboard-response,235,1377971,0.0-17.0-1.2,77725,List1A,white,man,,,,null,,,,
null,are arguing with each other,,html-keyboard-response,236,1379986,0.0-17.0-2.2,77725,List1A,white,man,,,,null,,,,
18162,,,survey-text,237,1398155,0.0-17.0-3.2,77725,List1A,white,man,,,,,"{""Q0"":""Dave and Fred are arguing with each other""}","<img src=""stim_listA/argue6.gif""style=""height:400px;""></stim_listA>",are arguing with each other,
null,"<div style=""font-size:60px;"">+</div>",,html-keyboard-response,238,1398682,0.0-17.0-0.3,77725,List1A,white,man,,,,null,,,,
null,"<img src=""stim_listA/dance8.gif""style=""height:400px;""></stim_listA>",,html-keyboard-response,239,1400699,0.0-17.0-1.3,77725,List1A,white,man,,,,null,,,,
null,are dancing with each other,,html-keyboard-response,240,1402711,0.0-17.0-2.3,77725,List1A,white,man,,,,null,,,,
18556,,,survey-text,241,1421272,0.0-17.0-3.3,77725,List1A,white,man,,,,,"{""Q0"":""Kate and Ruth are dancing with each other""}","<img src=""stim_listA/dance8.gif""style=""height:400px;""></stim_listA>",are dancing with each other,
null,"<div style=""font-size:60px;"">+</div>",,html-keyboard-response,242,1421783,0.0-17.0-0.4,77725,List1A,white,man,,,,null,,,,
null,"<img src=""stim_listA/marry7.gif""style=""height:400px;""></stim_listA>",,html-keyboard-response,243,1423819,0.0-17.0-1.4,77725,List1A,white,man,,,,null,,,,
null,is marrying,,html-keyboard-response,244,1425815,0.0-17.0-2.4,77725,List1A,white,man,,,,null,,,,
11767,,,survey-text,245,1437588,0.0-17.0-3.4,77725,List1A,white,man,,,,,"{""Q0"":""Kate is marrying Ruth""}","<img src=""stim_listA/marry7.gif""style=""height:400px;""></stim_listA>",is marrying,
null,"<div style=""font-size:60px;"">+</div>",,html-keyboard-response,246,1438116,0.0-17.0-0.5,77725,List1A,white,man,,,,null,,,,
null,"<img src=""stim_listA/kiss3.gif""style=""height:400px;""></stim_listA>",,html-keyboard-response,247,1440147,0.0-17.0-1.5,77725,List1A,white,man,,,,null,,,,
null,is kissing,,html-keyboard-response,248,1442152,0.0-17.0-2.5,77725,List1A,white,man,,,,null,,,,
9537,,,survey-text,249,1451694,0.0-17.0-3.5,77725,List1A,white,man,,,,,"{""Q0"":""Luke is kissing Ruth""}","<img src=""stim_listA/kiss3.gif""style=""height:400px;""></stim_listA>",is kissing,
null,"<div style=""font-size:60px;"">+</div>",,html-keyboard-response,250,1452207,0.0-17.0-0.6,77725,List1A,white,man,,,,null,,,,
null,"<img src=""stim_listA/fight8.gif""style=""height:400px;""></stim_listA>",,html-keyboard-response,251,1454217,0.0-17.0-1.6,77725,List1A,white,man,,,,null,,,,
null,are fighting each other,,html-keyboard-response,252,1456219,0.0-17.0-2.6,77725,List1A,white,man,,,,null,,,,
14119,,,survey-text,253,1470342,0.0-17.0-3.6,77725,List1A,white,man,,,,,"{""Q0"":""Beth and Ruth are fighting each other""}","<img src=""stim_listA/fight8.gif""style=""height:400px;""></stim_listA>",are fighting each other,
null,"<div style=""font-size:60px;"">+</div>",,html-keyboard-response,254,1470853,0.0-17.0-0.7,77725,List1A,white,man,,,,null,,,,
null,"<img src=""stim_listA/dance4.gif""style=""height:400px;""></stim_listA>",,html-keyboard-response,255,1472885,0.0-17.0-1.7,77725,List1A,white,man,,,,null,,,,
null,are dancing with each other,,html-keyboard-response,256,1474898,0.0-17.0-2.7,77725,List1A,white,man,,,,null,,,,
14917,,,survey-text,257,1489822,0.0-17.0-3.7,77725,List1A,white,man,,,,,"{""Q0"":""Dave and Ruth are dancing with each other""}","<img src=""stim_listA/dance4.gif""style=""height:400px;""></stim_listA>",are dancing with each other,
null,"<div style=""font-size:60px;"">+</div>",,html-keyboard-response,258,1490349,0.0-17.0-0.8,77725,List1A,white,man,,,,null,,,,
null,"<img src=""stim_listA/flirt2.gif""style=""height:400px;""></stim_listA>",,html-keyboard-response,259,1492380,0.0-17.0-1.8,77725,List1A,white,man,,,,null,,,,
null,are flirting with each other,,html-keyboard-response,260,1494380,0.0-17.0-2.8,77725,List1A,white,man,,,,null,,,,
17650,,,survey-text,261,1512048,0.0-17.0-3.8,77725,List1A,white,man,,,,,"{""Q0"":""Beth and Mike are flirting with each other""}","<img src=""stim_listA/flirt2.gif""style=""height:400px;""></stim_listA>",are flirting with each other,
null,"<div style=""font-size:60px;"">+</div>",,html-keyboard-response,262,1512580,0.0-17.0-0.9,77725,List1A,white,man,,,,null,,,,
null,"<img src=""stim_listA/talk3.gif""style=""height:400px;""></stim_listA>",,html-keyboard-response,263,1514611,0.0-17.0-1.9,77725,List1A,white,man,,,,null,,,,
null,is talking to,,html-keyboard-response,264,1516611,0.0-17.0-2.9,77725,List1A,white,man,,,,null,,,,
9879,,,survey-text,265,1526496,0.0-17.0-3.9,77725,List1A,white,man,,,,,"{""Q0"":""Jane is talking to Luke""}","<img src=""stim_listA/talk3.gif""style=""height:400px;""></stim_listA>",is talking to,
null,"<div style=""font-size:60px;"">+</div>",,html-keyboard-response,266,1527007,0.0-17.0-0.10,77725,List1A,white,man,,,,null,,,,
null,"<img src=""stim_listA/touch8.gif""style=""height:400px;""></stim_listA>",,html-keyboard-response,267,1529043,0.0-17.0-1.10,77725,List1A,white,man,,,,null,,,,
null,are touching each other,,html-keyboard-response,268,1531027,0.0-17.0-2.10,77725,List1A,white,man,,,,null,,,,
15569,,,survey-text,269,1546604,0.0-17.0-3.10,77725,List1A,white,man,,,,,"{""Q0"":""Ruth and Beth are touching each other""}","<img src=""stim_listA/touch8.gif""style=""height:400px;""></stim_listA>",are touching each other,
null,"<div style=""font-size:60px;"">+</div>",,html-keyboard-response,270,1547120,0.0-17.0-0.11,77725,List1A,white,man,,,,null,,,,
null,"<img src=""stim_listA/dance6.gif""style=""height:400px;""></stim_listA>",,html-keyboard-response,271,1549136,0.0-17.0-1.11,77725,List1A,white,man,,,,null,,,,
null,are dancing with each other,,html-keyboard-response,272,1551143,0.0-17.0-2.11,77725,List1A,white,man,,,,null,,,,
13445,,,survey-text,273,1564595,0.0-17.0-3.11,77725,List1A,white,man,,,,,"{""Q0"":""Luke and Mike are dancing with each other""}","<img src=""stim_listA/dance6.gif""style=""height:400px;""></stim_listA>",are dancing with each other,
null,"<div style=""font-size:60px;"">+</div>",,html-keyboard-response,274,1565136,0.0-17.0-0.12,77725,List1A,white,man,,,,null,,,,
null,"<img src=""stim_listA/shout8.gif""style=""height:400px;""></stim_listA>",,html-keyboard-response,275,1567167,0.0-17.0-1.12,77725,List1A,white,man,,,,null,,,,
null,are shouting at each other,,html-keyboard-response,276,1569168,0.0-17.0-2.12,77725,List1A,white,man,,,,null,,,,
11730,,,survey-text,277,1580906,0.0-17.0-3.12,77725,List1A,white,man,,,,,"{""Q0"":""Jane and Kate are shouiting at each other""}","<img src=""stim_listA/shout8.gif""style=""height:400px;""></stim_listA>",are shouting at each other,
null,"<div style=""font-size:60px;"">+</div>",,html-keyboard-response,278,1581424,0.0-17.0-0.13,77725,List1A,white,man,,,,null,,,,
null,"<img src=""stim_listA/dance5.gif""style=""height:400px;""></stim_listA>",,html-keyboard-response,279,1583449,0.0-17.0-1.13,77725,List1A,white,man,,,,null,,,,
null,is dancing with,,html-keyboard-response,280,1585456,0.0-17.0-2.13,77725,List1A,white,man,,,,null,,,,
10216,,,survey-text,281,1595677,0.0-17.0-3.13,77725,List1A,white,man,,,,,"{""Q0"":""Fred is dancing with Dave""}","<img src=""stim_listA/dance5.gif""style=""height:400px;""></stim_listA>",is dancing with,
null,"<div style=""font-size:60px;"">+</div>",,html-keyboard-response,282,1596204,0.0-17.0-0.14,77725,List1A,white,man,,,,null,,,,
null,"<img src=""stim_listA/argue5.gif""style=""height:400px;""></stim_listA>",,html-keyboard-response,283,1598238,0.0-17.0-1.14,77725,List1A,white,man,,,,null,,,,
null,is arguing with,,html-keyboard-response,284,1600239,0.0-17.0-2.14,77725,List1A,white,man,,,,null,,,,
10738,,,survey-text,285,1610983,0.0-17.0-3.14,77725,List1A,white,man,,,,,"{""Q0"":""Mike is arguing with Luke""}","<img src=""stim_listA/argue5.gif""style=""height:400px;""></stim_listA>",is arguing with,
null,"<div style=""font-size:60px;"">+</div>",,html-keyboard-response,286,1611510,0.0-17.0-0.15,77725,List1A,white,man,,,,null,,,,
null,"<img src=""stim_listA/play4.gif""style=""height:400px;""></stim_listA>",,html-keyboard-response,287,1613543,0.0-17.0-1.15,77725,List1A,white,man,,,,null,,,,
null,are playing with each other,,html-keyboard-response,288,1615541,0.0-17.0-2.15,77725,List1A,white,man,,,,null,,,,
15431,,,survey-text,289,1630978,0.0-17.0-3.15,77725,List1A,white,man,,,,,"{""Q0"":""Luke and Ruth are playing with each other""}","<img src=""stim_listA/play4.gif""style=""height:400px;""></stim_listA>",are playing with each other,
null,"<div style=""font-size:60px;"">+</div>",,html-keyboard-response,290,1631489,0.0-17.0-0.16,77725,List1A,white,man,,,,null,,,,
null,"<img src=""stim_listA/argue7.gif""style=""height:400px;""></stim_listA>",,html-keyboard-response,291,1633522,0.0-17.0-1.16,77725,List1A,white,man,,,,null,,,,
null,is arguing with,,html-keyboard-response,292,1635499,0.0-17.0-2.16,77725,List1A,white,man,,,,null,,,,
16692,,,survey-text,293,1652199,0.0-17.0-3.16,77725,List1A,white,man,,,,,"{""Q0"":""Kate is arguing with Ruth""}","<img src=""stim_listA/argue7.gif""style=""height:400px;""></stim_listA>",is arguing with,
null,"<div style=""font-size:60px;"">+</div>",,html-keyboard-response,294,1652733,0.0-17.0-0.17,77725,List1A,white,man,,,,null,,,,
null,"<img src=""stim_listA/argue8.gif""style=""height:400px;""></stim_listA>",,html-keyboard-response,295,1654762,0.0-17.0-1.17,77725,List1A,white,man,,,,null,,,,
null,are arguing with each other,,html-keyboard-response,296,1656753,0.0-17.0-2.17,77725,List1A,white,man,,,,null,,,,
17445,,,survey-text,297,1674204,0.0-17.0-3.17,77725,List1A,white,man,,,,,"{""Q0"":""Beth and Jane are arguing with each other""}","<img src=""stim_listA/argue8.gif""style=""height:400px;""></stim_listA>",are arguing with each other,
null,"<div style=""font-size:60px;"">+</div>",,html-keyboard-response,298,1674731,0.0-17.0-0.18,77725,List1A,white,man,,,,null,,,,
null,"<img src=""stim_listA/flirt5.gif""style=""height:400px;""></stim_listA>",,html-keyboard-response,299,1676764,0.0-17.0-1.18,77725,List1A,white,man,,,,null,,,,
null,is flirting with,,html-keyboard-response,300,1678766,0.0-17.0-2.18,77725,List1A,white,man,,,,null,,,,
12646,,,survey-text,301,1691418,0.0-17.0-3.18,77725,List1A,white,man,,,,,"{""Q0"":""Fred is flirting with Dave""}","<img src=""stim_listA/flirt5.gif""style=""height:400px;""></stim_listA>",is flirting with,
null,"<div style=""font-size:60px;"">+</div>",,html-keyboard-response,302,1691944,0.0-17.0-0.19,77725,List1A,white,man,,,,null,,,,
null,"<img src=""stim_listA/fight6.gif""style=""height:400px;""></stim_listA>",,html-keyboard-response,303,1693976,0.0-17.0-1.19,77725,List1A,white,man,,,,null,,,,
null,are fighting each other,,html-keyboard-response,304,1695975,0.0-17.0-2.19,77725,List1A,white,man,,,,null,,,,
12374,,,survey-text,305,1708355,0.0-17.0-3.19,77725,List1A,white,man,,,,,"{""Q0"":""Luke and Fred are fighting each other""}","<img src=""stim_listA/fight6.gif""style=""height:400px;""></stim_listA>",are fighting each other,
4724,"<img src='img/portrait_matrix_list1.jpg' style='width:900px;height:500px;''></img><p>If you have memorised all the portraits and names and are ready to start, press Continue.</p><p><strong>Please note: Your memory of these faces will be tested 4 times during this experiment.</strong></p>",0,html-button-response,306,1713087,0.0-18.0-0.0,77725,List1A,white,man,,,,,,,,
3366,"<img src=""portrait/BM2.jpg""style=""height:400px;""></img>",5,html-button-response,307,1717486,0.0-18.0-1.0,77725,List1A,white,man,,TRUE,5,,,,,
null,CORRECT,,html-keyboard-response,308,1719043,0.0-18.0-2.0-0.0,77725,List1A,white,man,,,,null,,,,
2607,"<img src=""portrait/BW2.jpg""style=""height:400px;""></img>",2,html-button-response,309,1721659,0.0-18.0-4.0,77725,List1A,white,man,,TRUE,2,,,,,
null,CORRECT,,html-keyboard-response,310,1723185,0.0-18.0-5.0-0.0,77725,List1A,white,man,,,,null,,,,
2534,"<img src=""portrait/WW2.jpg""style=""height:400px;""></img>",3,html-button-response,311,1725730,0.0-18.0-7.0,77725,List1A,white,man,,TRUE,3,,,,,
null,CORRECT,,html-keyboard-response,312,1727287,0.0-18.0-8.0-0.0,77725,List1A,white,man,,,,null,,,,
3894,"<img src=""portrait/WM2.jpg""style=""height:400px;""></img>",7,html-button-response,313,1731190,0.0-18.0-10.0,77725,List1A,white,man,,TRUE,7,,,,,
null,CORRECT,,html-keyboard-response,314,1732732,0.0-18.0-11.0-0.0,77725,List1A,white,man,,,,null,,,,
5285,"<img src=""portrait/BW1.jpg""style=""height:400px;""></img>",0,html-button-response,315,1738027,0.0-18.0-13.0,77725,List1A,white,man,,TRUE,0,,,,,
null,CORRECT,,html-keyboard-response,316,1739585,0.0-18.0-14.0-0.0,77725,List1A,white,man,,,,null,,,,
3093,"<img src=""portrait/WM1.jpg""style=""height:400px;""></img>",6,html-button-response,317,1742687,0.0-18.0-16.0,77725,List1A,white,man,,TRUE,6,,,,,
null,CORRECT,,html-keyboard-response,318,1744245,0.0-18.0-17.0-0.0,77725,List1A,white,man,,,,null,,,,
1984,"<img src=""portrait/BM1.jpg""style=""height:400px;""></img>",4,html-button-response,319,1746238,0.0-18.0-19.0,77725,List1A,white,man,,TRUE,4,,,,,
null,CORRECT,,html-keyboard-response,320,1747792,0.0-18.0-20.0-0.0,77725,List1A,white,man,,,,null,,,,
2065,"<img src=""portrait/WW1.jpg""style=""height:400px;""></img>",1,html-button-response,321,1749866,0.0-18.0-22.0,77725,List1A,white,man,,TRUE,1,,,,,
null,CORRECT,,html-keyboard-response,322,1751406,0.0-18.0-23.0-0.0,77725,List1A,white,man,,,,null,,,,
2180,<p>You got 8 out of 8 right first time. Press Continue.</p>,0,html-button-response,323,1753597,0.0-18.0-25.0,77725,List1A,white,man,,,,,,,,
null,"<div style=""font-size:60px;"">+</div>",,html-keyboard-response,324,1755136,0.0-19.0-0.0,77725,List1A,white,man,,,,null,,,,
null,"<img src=""stim_listA/touch1.gif""style=""height:400px;""></stim_listA>",,html-keyboard-response,325,1757160,0.0-19.0-1.0,77725,List1A,white,man,,,,null,,,,
null,is touching,,html-keyboard-response,326,1759150,0.0-19.0-2.0,77725,List1A,white,man,,,,null,,,,
9048,,,survey-text,327,1768206,0.0-19.0-3.0,77725,List1A,white,man,,,,,"{""Q0"":""Kate is touching Mike""}","<img src=""stim_listA/touch1.gif""style=""height:400px;""></stim_listA>",is touching,
null,"<div style=""font-size:60px;"">+</div>",,html-keyboard-response,328,1768734,0.0-19.0-0.1,77725,List1A,white,man,,,,null,,,,
null,"<img src=""stim_listA/kiss6.gif""style=""height:400px;""></stim_listA>",,html-keyboard-response,329,1770758,0.0-19.0-1.1,77725,List1A,white,man,,,,null,,,,
null,are kissing each other,,html-keyboard-response,330,1772753,0.0-19.0-2.1,77725,List1A,white,man,,,,null,,,,
14728,,,survey-text,331,1787487,0.0-19.0-3.1,77725,List1A,white,man,,,,,"{""Q0"":""Mike and Dave are kissing each other""}","<img src=""stim_listA/kiss6.gif""style=""height:400px;""></stim_listA>",are kissing each other,
null,"<div style=""font-size:60px;"">+</div>",,html-keyboard-response,332,1788014,0.0-19.0-0.2,77725,List1A,white,man,,,,null,,,,
null,"<img src=""stim_listA/argue2.gif""style=""height:400px;""></stim_listA>",,html-keyboard-response,333,1790046,0.0-19.0-1.2,77725,List1A,white,man,,,,null,,,,
null,are arguing with each other,,html-keyboard-response,334,1792024,0.0-19.0-2.2,77725,List1A,white,man,,,,null,,,,
16555,,,survey-text,335,1808585,0.0-19.0-3.2,77725,List1A,white,man,,,,,"{""Q0"":""Fred and Kate are arguing with each other""}","<img src=""stim_listA/argue2.gif""style=""height:400px;""></stim_listA>",are arguing with each other,
null,"<div style=""font-size:60px;"">+</div>",,html-keyboard-response,336,1809112,0.0-19.0-0.3,77725,List1A,white,man,,,,null,,,,
null,"<img src=""stim_listA/marry8.gif""style=""height:400px;""></stim_listA>",,html-keyboard-response,337,1811144,0.0-19.0-1.3,77725,List1A,white,man,,,,null,,,,
null,are marrying each other,,html-keyboard-response,338,1813143,0.0-19.0-2.3,77725,List1A,white,man,,,,null,,,,
12141,,,survey-text,339,1825291,0.0-19.0-3.3,77725,List1A,white,man,,,,,"{""Q0"":""Beth and Jane are marrying each other""}","<img src=""stim_listA/marry8.gif""style=""height:400px;""></stim_listA>",are marrying each other,
null,"<div style=""font-size:60px;"">+</div>",,html-keyboard-response,340,1825803,0.0-19.0-0.4,77725,List1A,white,man,,,,null,,,,
null,"<img src=""stim_listA/fight1.gif""style=""height:400px;""></stim_listA>",,html-keyboard-response,341,1827835,0.0-19.0-1.4,77725,List1A,white,man,,,,null,,,,
null,is fighting,,html-keyboard-response,342,1829806,0.0-19.0-2.4,77725,List1A,white,man,,,,null,,,,
11672,,,survey-text,343,1841485,0.0-19.0-3.4,77725,List1A,white,man,,,,,"{""Q0"":""Mike is fighting Kate""}","<img src=""stim_listA/fight1.gif""style=""height:400px;""></stim_listA>",is fighting,
null,"<div style=""font-size:60px;"">+</div>",,html-keyboard-response,344,1842012,0.0-19.0-0.5,77725,List1A,white,man,,,,null,,,,
null,"<img src=""stim_listA/kiss5.gif""style=""height:400px;""></stim_listA>",,html-keyboard-response,345,1844043,0.0-19.0-1.5,77725,List1A,white,man,,,,null,,,,
null,is kissing,,html-keyboard-response,346,1846031,0.0-19.0-2.5,77725,List1A,white,man,,,,null,,,,
8439,,,survey-text,347,1854477,0.0-19.0-3.5,77725,List1A,white,man,,,,,"{""Q0"":""Fred is kissing Luke""}","<img src=""stim_listA/kiss5.gif""style=""height:400px;""></stim_listA>",is kissing,
null,"<div style=""font-size:60px;"">+</div>",,html-keyboard-response,348,1854997,0.0-19.0-0.6,77725,List1A,white,man,,,,null,,,,
null,"<img src=""stim_listA/talk2.gif""style=""height:400px;""></stim_listA>",,html-keyboard-response,349,1857030,0.0-19.0-1.6,77725,List1A,white,man,,,,null,,,,
null,are talking to each other,,html-keyboard-response,350,1859029,0.0-19.0-2.6,77725,List1A,white,man,,,,null,,,,
11587,,,survey-text,351,1870623,0.0-19.0-3.6,77725,List1A,white,man,,,,,"{""Q0"":""Mike and Beth are talking to each other""}","<img src=""stim_listA/talk2.gif""style=""height:400px;""></stim_listA>",are talking to each other,
null,"<div style=""font-size:60px;"">+</div>",,html-keyboard-response,352,1871134,0.0-19.0-0.7,77725,List1A,white,man,,,,null,,,,
null,"<img src=""stim_listA/play6.gif""style=""height:400px;""></stim_listA>",,html-keyboard-response,353,1873165,0.0-19.0-1.7,77725,List1A,white,man,,,,null,,,,
null,are playing with each other,,html-keyboard-response,354,1875163,0.0-19.0-2.7,77725,List1A,white,man,,,,null,,,,
12370,,,survey-text,355,1887540,0.0-19.0-3.7,77725,List1A,white,man,,,,,"{""Q0"":""Fred and Luke are playing with each other""}","<img src=""stim_listA/play6.gif""style=""height:400px;""></stim_listA>",are playing with each other,
null,"<div style=""font-size:60px;"">+</div>",,html-keyboard-response,356,1888051,0.0-19.0-0.8,77725,List1A,white,man,,,,null,,,,
null,"<img src=""stim_listA/shout1.gif""style=""height:400px;""></stim_listA>",,html-keyboard-response,357,1890082,0.0-19.0-1.8,77725,List1A,white,man,,,,null,,,,
null,is shouting at,,html-keyboard-response,358,1892081,0.0-19.0-2.8,77725,List1A,white,man,,,,null,,,,
9272,,,survey-text,359,1901364,0.0-19.0-3.8,77725,List1A,white,man,,,,,"{""Q0"":""Beth is shouting at Fred""}","<img src=""stim_listA/shout1.gif""style=""height:400px;""></stim_listA>",is shouting at,
null,"<div style=""font-size:60px;"">+</div>",,html-keyboard-response,360,1901891,0.0-19.0-0.9,77725,List1A,white,man,,,,null,,,,
null,"<img src=""stim_listA/play8.gif""style=""height:400px;""></stim_listA>",,html-keyboard-response,361,1903923,0.0-19.0-1.9,77725,List1A,white,man,,,,null,,,,
null,are playing with each other,,html-keyboard-response,362,1905922,0.0-19.0-2.9,77725,List1A,white,man,,,,null,,,,
14958,,,survey-text,363,1920888,0.0-19.0-3.9,77725,List1A,white,man,,,,,"{""Q0"":""Beth and Ruth are playing with each other""}","<img src=""stim_listA/play8.gif""style=""height:400px;""></stim_listA>",are playing with each other,
null,"<div style=""font-size:60px;"">+</div>",,html-keyboard-response,364,1921416,0.0-19.0-0.10,77725,List1A,white,man,,,,null,,,,
null,"<img src=""stim_listA/marry6.gif""style=""height:400px;""></stim_listA>",,html-keyboard-response,365,1923449,0.0-19.0-1.10,77725,List1A,white,man,,,,null,,,,
null,are marrying each other,,html-keyboard-response,366,1925447,0.0-19.0-2.10,77725,List1A,white,man,,,,null,,,,
14074,,,survey-text,367,1939528,0.0-19.0-3.10,77725,List1A,white,man,,,,,"{""Q0"":""Fred and Dave are marrying each other""}","<img src=""stim_listA/marry6.gif""style=""height:400px;""></stim_listA>",are marrying each other,
null,"<div style=""font-size:60px;"">+</div>",,html-keyboard-response,368,1940054,0.0-19.0-0.11,77725,List1A,white,man,,,,null,,,,
null,"<img src=""stim_listA/argue4.gif""style=""height:400px;""></stim_listA>",,html-keyboard-response,369,1942087,0.0-19.0-1.11,77725,List1A,white,man,,,,null,,,,
null,are arguing with each other,,html-keyboard-response,370,1944061,0.0-19.0-2.11,77725,List1A,white,man,,,,null,,,,
20946,,,survey-text,371,1965014,0.0-19.0-3.11,77725,List1A,white,man,,,,,"{""Q0"":""Luke and Jane are arguing with each other""}","<img src=""stim_listA/argue4.gif""style=""height:400px;""></stim_listA>",are arguing with each other,
null,"<div style=""font-size:60px;"">+</div>",,html-keyboard-response,372,1965542,0.0-19.0-0.12,77725,List1A,white,man,,,,null,,,,
null,"<img src=""stim_listA/flirt7.gif""style=""height:400px;""></stim_listA>",,html-keyboard-response,373,1967558,0.0-19.0-1.12,77725,List1A,white,man,,,,null,,,,
null,is flirting with,,html-keyboard-response,374,1969554,0.0-19.0-2.12,77725,List1A,white,man,,,,null,,,,
10166,,,survey-text,375,1979727,0.0-19.0-3.12,77725,List1A,white,man,,,,,"{""Q0"":""Beth is flirting with Jane""}","<img src=""stim_listA/flirt7.gif""style=""height:400px;""></stim_listA>",is flirting with,
null,"<div style=""font-size:60px;"">+</div>",,html-keyboard-response,376,1980255,0.0-19.0-0.13,77725,List1A,white,man,,,,null,,,,
null,"<img src=""stim_listA/touch5.gif""style=""height:400px;""></stim_listA>",,html-keyboard-response,377,1982286,0.0-19.0-1.13,77725,List1A,white,man,,,,null,,,,
null,is touching,,html-keyboard-response,378,1984286,0.0-19.0-2.13,77725,List1A,white,man,,,,null,,,,
17322,,,survey-text,379,2001614,0.0-19.0-3.13,77725,List1A,white,man,,,,,"{""Q0"":""Mike is touching Dave""}","<img src=""stim_listA/touch5.gif""style=""height:400px;""></stim_listA>",is touching,
null,"<div style=""font-size:60px;"">+</div>",,html-keyboard-response,380,2002140,0.0-19.0-0.14,77725,List1A,white,man,,,,null,,,,
null,"<img src=""stim_listA/flirt8.gif""style=""height:400px;""></stim_listA>",,html-keyboard-response,381,2004172,0.0-19.0-1.14,77725,List1A,white,man,,,,null,,,,
null,are flirting with each other,,html-keyboard-response,382,2006172,0.0-19.0-2.14,77725,List1A,white,man,,,,null,,,,
15940,,,survey-text,383,2022119,0.0-19.0-3.14,77725,List1A,white,man,,,,,"{""Q0"":""Kate and Ruth are flirting with each other""}","<img src=""stim_listA/flirt8.gif""style=""height:400px;""></stim_listA>",are flirting with each other,
null,"<div style=""font-size:60px;"">+</div>",,html-keyboard-response,384,2022646,0.0-19.0-0.15,77725,List1A,white,man,,,,null,,,,
null,"<img src=""stim_listA/touch4.gif""style=""height:400px;""></stim_listA>",,html-keyboard-response,385,2024677,0.0-19.0-1.15,77725,List1A,white,man,,,,null,,,,
null,are touching each other,,html-keyboard-response,386,2026676,0.0-19.0-2.15,77725,List1A,white,man,,,,null,,,,
13715,,,survey-text,387,2040399,0.0-19.0-3.15,77725,List1A,white,man,,,,,"{""Q0"":""Luke and Ruth are touching each other""}","<img src=""stim_listA/touch4.gif""style=""height:400px;""></stim_listA>",are touching each other,
null,"<div style=""font-size:60px;"">+</div>",,html-keyboard-response,388,2040925,0.0-19.0-0.16,77725,List1A,white,man,,,,null,,,,
null,"<img src=""stim_listA/play5.gif""style=""height:400px;""></stim_listA>",,html-keyboard-response,389,2042957,0.0-19.0-1.16,77725,List1A,white,man,,,,null,,,,
null,is playing with,,html-keyboard-response,390,2044952,0.0-19.0-2.16,77725,List1A,white,man,,,,null,,,,
9706,,,survey-text,391,2054664,0.0-19.0-3.16,77725,List1A,white,man,,,,,"{""Q0"":""Mike is playing with Dave""}","<img src=""stim_listA/play5.gif""style=""height:400px;""></stim_listA>",is playing with,
null,"<div style=""font-size:60px;"">+</div>",,html-keyboard-response,392,2055197,0.0-19.0-0.17,77725,List1A,white,man,,,,null,,,,
null,"<img src=""stim_listA/marry4.gif""style=""height:400px;""></stim_listA>",,html-keyboard-response,393,2057221,0.0-19.0-1.17,77725,List1A,white,man,,,,null,,,,
null,are marrying each other,,html-keyboard-response,394,2059249,0.0-19.0-2.17,77725,List1A,white,man,,,,null,,,,
12347,,,survey-text,395,2071604,0.0-19.0-3.17,77725,List1A,white,man,,,,,"{""Q0"":""Jane and Luke are marrying each other""}","<img src=""stim_listA/marry4.gif""style=""height:400px;""></stim_listA>",are marrying each other,
null,"<div style=""font-size:60px;"">+</div>",,html-keyboard-response,396,2072130,0.0-19.0-0.18,77725,List1A,white,man,,,,null,,,,
null,"<img src=""stim_listA/dance7.gif""style=""height:400px;""></stim_listA>",,html-keyboard-response,397,2074161,0.0-19.0-1.18,77725,List1A,white,man,,,,null,,,,
null,is dancing with,,html-keyboard-response,398,2076147,0.0-19.0-2.18,77725,List1A,white,man,,,,null,,,,
10004,,,survey-text,399,2086158,0.0-19.0-3.18,77725,List1A,white,man,,,,,"{""Q0"":""Beth is dancing with Jane""}","<img src=""stim_listA/dance7.gif""style=""height:400px;""></stim_listA>",is dancing with,
null,"<div style=""font-size:60px;"">+</div>",,html-keyboard-response,400,2086685,0.0-19.0-0.19,77725,List1A,white,man,,,,null,,,,
null,"<img src=""stim_listA/marry2.gif""style=""height:400px;""></stim_listA>",,html-keyboard-response,401,2088718,0.0-19.0-1.19,77725,List1A,white,man,,,,null,,,,
null,are marrying each other,,html-keyboard-response,402,2090717,0.0-19.0-2.19,77725,List1A,white,man,,,,null,,,,
14654,,,survey-text,403,2105379,0.0-19.0-3.19,77725,List1A,white,man,,,,,"{""Q0"":""Kate and Fred are marrying each other""}","<img src=""stim_listA/marry2.gif""style=""height:400px;""></stim_listA>",are marrying each other,
2930,<p>Thank you for completing that task.</p><p>The final part of this session is a short questionnaire.</p><p>Press Continue.</p>,0,html-button-response,404,2108316,0.0-20.0,77725,List1A,white,man,,,,,,,,
35205,,,survey-text,405,2144556,0.0-21.0,77725,List1A,white,man,,,,,"{""Q0"":""57"",""Q1"":""English"",""Q2"":""English"",""Q3"":""England"",""Q4"":""Caucasian"",""Q5"":""Male""}",,,demographics
8989,,,survey-likert,406,2153559,0.0-22.0,77725,List1A,white,man,,,,,"{""Q0"":4}",,,likert_ESS
7988,,,survey-likert,407,2161556,0.0-23.0,77725,List1A,white,man,,,,,"{""Q0"":4}",,,likert_NSSAL_Q1
6521,,,survey-likert,408,2168087,0.0-24.0,77725,List1A,white,man,,,,,"{""Q0"":4}",,,likert_NSSAL_Q2
4466,,,survey-likert,409,2172564,0.0-25.0,77725,List1A,white,man,,,,,"{""Q0"":4}",,,likert_CGRS_Q1
4312,,,survey-likert,410,2176886,0.0-26.0,77725,List1A,white,man,,,,,"{""Q0"":4}",,,likert_CGRS_Q2
4248,,,survey-likert,411,2181143,0.0-27.0,77725,List1A,white,man,,,,,"{""Q0"":4}",,,likert_CGRS_Q3
14279,,,survey-text,412,2195432,0.0-28.0,77725,List1A,white,man,,,,,"{""Q0"":""ccc""}",,,worker_id
26448,,,external-html,413,2222001,0.0-29.0,77725,List1A,white,man,debrief.html,,,,,,,
