rt,stimulus,button_pressed,trial_type,trial_index,time_elapsed,internal_node_id,subject,list,ppt_race,ppt_gender,url,first_guess,correct,key_press,responses,image_type,phrase_type,test_part
1471,Welcome to the experiment. Press Continue to begin.,0,html-button-response,0,1474,0.0-0.0,77778,List1A,black,man,,,,,,,,
24507,,,external-html,1,27098,0.0-1.0,77778,List1A,black,man,consent.html,,,,,,,
16727,"<p>On the next page, you will see portraits of 8 people and their names.</p><p>Your first task is to take a few minutes to memorise the names of these people.</p><p>You will have to recall their names during the rest of the experiment, so it is</p><p>essential that you try to memorise these people and their names as best as you can.</p><br><p><strong>You will then be tested on your memory of these names and portraits.</strong></p><br><p>The experiment will start after you have completed this memory test.</p><br><p>Ready?</p>",0,html-button-response,2,43825,0.0-2.0,77778,List1A,black,man,,,,,,,,
228831,"<img src='img/portrait_matrix_list1.jpg' style='width:900px;height:500px;''></img><p>If you have memorised all the portraits and names and are ready to start, press Continue.</p><p><strong>Please note: Your memory of these faces will be tested 4 times during this experiment.</strong></p>",0,html-button-response,3,273662,0.0-3.0-0.0,77778,List1A,black,man,,,,,,,,
9055,"<img src=""portrait/BW1.jpg""style=""height:400px;""></img>",0,html-button-response,4,283717,0.0-3.0-1.0,77778,List1A,black,man,,TRUE,0,,,,,
null,CORRECT,,html-keyboard-response,5,285224,0.0-3.0-2.0-0.0,77778,List1A,black,man,,,,null,,,,
4266,"<img src=""portrait/WM2.jpg""style=""height:400px;""></img>",7,html-button-response,6,289493,0.0-3.0-4.0,77778,List1A,black,man,,TRUE,7,,,,,
null,CORRECT,,html-keyboard-response,7,290997,0.0-3.0-5.0-0.0,77778,List1A,black,man,,,,null,,,,
6639,"<img src=""portrait/BW2.jpg""style=""height:400px;""></img>",2,html-button-response,8,297638,0.0-3.0-7.0,77778,List1A,black,man,,TRUE,2,,,,,
null,CORRECT,,html-keyboard-response,9,299142,0.0-3.0-8.0-0.0,77778,List1A,black,man,,,,null,,,,
5094,"<img src=""portrait/WW1.jpg""style=""height:400px;""></img>",1,html-button-response,10,304237,0.0-3.0-10.0,77778,List1A,black,man,,TRUE,1,,,,,
null,CORRECT,,html-keyboard-response,11,305742,0.0-3.0-11.0-0.0,77778,List1A,black,man,,,,null,,,,
5093,"<img src=""portrait/BM1.jpg""style=""height:400px;""></img>",4,html-button-response,12,310837,0.0-3.0-13.0,77778,List1A,black,man,,TRUE,4,,,,,
null,CORRECT,,html-keyboard-response,13,312340,0.0-3.0-14.0-0.0,77778,List1A,black,man,,,,null,,,,
7247,"<img src=""portrait/WM1.jpg""style=""height:400px;""></img>",6,html-button-response,14,319589,0.0-3.0-16.0,77778,List1A,black,man,,TRUE,6,,,,,
null,CORRECT,,html-keyboard-response,15,321093,0.0-3.0-17.0-0.0,77778,List1A,black,man,,,,null,,,,
13798,"<img src=""portrait/WW2.jpg""style=""height:400px;""></img>",3,html-button-response,16,334893,0.0-3.0-19.0,77778,List1A,black,man,,TRUE,3,,,,,
null,CORRECT,,html-keyboard-response,17,336396,0.0-3.0-20.0-0.0,77778,List1A,black,man,,,,null,,,,
4342,"<img src=""portrait/BM2.jpg""style=""height:400px;""></img>",5,html-button-response,18,340741,0.0-3.0-22.0,77778,List1A,black,man,,TRUE,5,,,,,
null,CORRECT,,html-keyboard-response,19,342244,0.0-3.0-23.0-0.0,77778,List1A,black,man,,,,null,,,,
2533,<p>You got 8 out of 8 right first time. Press Continue.</p>,0,html-button-response,20,344780,0.0-3.0-25.0,77778,List1A,black,man,,,,,,,,
28086,"<p>In this experiment, you will view photographs of the people from the memory game interacting.</p><p>By using the <strong>exact</strong> phrase given <i>after</i> the photograph appears and recalling the correct names of the people in the photographs, form a sentence describing the interaction. You do not need to capitalise names.</p><p>Type your answer in the space provided. Please complete every sentence before moving onto the next trial.</p><p>You will only have a few seconds to memorise each given photograph and phrase before you can respond, so try your best to focus.</p><p>An example is given below. Press 'Continue' when you are ready.</p><img src='img/speaking_example.jpg' style='width:800px;height:460px;''></img>",0,html-button-response,21,373869,0.0-4.0,77778,List1A,black,man,,,,,,,,
2077,"<p>Before the experiment starts, you will watch two example trials. Press 'Continue'.</p>",0,html-button-response,22,376949,0.0-5.0,77778,List1A,black,man,,,,,,,,
null,<img src='img/meet_eg.gif' style='height:400px;''></img>,,html-keyboard-response,23,379978,0.0-6.0,77778,List1A,black,man,,,,null,,,,
null,<p>is meeting</p>,,html-keyboard-response,24,381981,0.0-7.0,77778,List1A,black,man,,,,null,,,,
6158,<p><b>Answer:</b> kate is meeting beth</p>,0,html-button-response,25,388141,0.0-8.0,77778,List1A,black,man,,,,,,,,
null,<img src='img/look_eg.gif' style='height:400px;''></img>,,html-keyboard-response,26,391146,0.0-9.0,77778,List1A,black,man,,,,null,,,,
null,<p>are looking at each other</p>,,html-keyboard-response,27,393147,0.0-10.0,77778,List1A,black,man,,,,null,,,,
5863,<p><b>Answer:</b> luke and dave are looking at each other</p>,0,html-button-response,28,399012,0.0-11.0,77778,List1A,black,man,,,,,,,,
11733,"<p>Ready to start the experiment?</p><br><p><strong>Remember to describe the picture using a full sentence,</strong></p><p><strong>that combines the names of the people with the <i>exact</i> phrase given.</strong></p><p><strong>To receive full payment you must do this correctly.</strong></p><p><strong> You do not need to capitalise names or use punctuation.</strong></p><br><p>Press 'Continue' to begin.</p>",0,html-button-response,29,411748,0.0-12.0,77778,List1A,black,man,,,,,,,,
null,"<div style=""font-size:60px;"">+</div>",,html-keyboard-response,30,413251,0.0-13.0-0.0,77778,List1A,black,man,,,,null,,,,
null,"<img src=""stim_listA/play1.gif""style=""height:400px;""></stim_listA>",,html-keyboard-response,31,415254,0.0-13.0-1.0,77778,List1A,black,man,,,,null,,,,
null,is playing with,,html-keyboard-response,32,417255,0.0-13.0-2.0,77778,List1A,black,man,,,,null,,,,
17498,,,survey-text,33,434755,0.0-13.0-3.0,77778,List1A,black,man,,,,,"{""Q0"":""mike is playing with kate""}","<img src=""stim_listA/play1.gif""style=""height:400px;""></stim_listA>",is playing with,
null,"<div style=""font-size:60px;"">+</div>",,html-keyboard-response,34,435258,0.0-13.0-0.1,77778,List1A,black,man,,,,null,,,,
null,"<img src=""stim_listA/kiss1.gif""style=""height:400px;""></stim_listA>",,html-keyboard-response,35,437261,0.0-13.0-1.1,77778,List1A,black,man,,,,null,,,,
null,is kissing,,html-keyboard-response,36,439263,0.0-13.0-2.1,77778,List1A,black,man,,,,null,,,,
14188,,,survey-text,37,453452,0.0-13.0-3.1,77778,List1A,black,man,,,,,"{""Q0"":""beth is kissing fred""}","<img src=""stim_listA/kiss1.gif""style=""height:400px;""></stim_listA>",is kissing,
null,"<div style=""font-size:60px;"">+</div>",,html-keyboard-response,38,453954,0.0-13.0-0.2,77778,List1A,black,man,,,,null,,,,
null,"<img src=""stim_listA/argue8.gif""style=""height:400px;""></stim_listA>",,html-keyboard-response,39,455957,0.0-13.0-1.2,77778,List1A,black,man,,,,null,,,,
null,are arguing with each other,,html-keyboard-response,40,457959,0.0-13.0-2.2,77778,List1A,black,man,,,,null,,,,
29026,,,survey-text,41,486987,0.0-13.0-3.2,77778,List1A,black,man,,,,,"{""Q0"":""jane is arguing with beth""}","<img src=""stim_listA/argue8.gif""style=""height:400px;""></stim_listA>",are arguing with each other,
null,"<div style=""font-size:60px;"">+</div>",,html-keyboard-response,42,487489,0.0-13.0-0.3,77778,List1A,black,man,,,,null,,,,
null,"<img src=""stim_listA/flirt7.gif""style=""height:400px;""></stim_listA>",,html-keyboard-response,43,489493,0.0-13.0-1.3,77778,List1A,black,man,,,,null,,,,
null,is flirting with,,html-keyboard-response,44,491495,0.0-13.0-2.3,77778,List1A,black,man,,,,null,,,,
22323,,,survey-text,45,513819,0.0-13.0-3.3,77778,List1A,black,man,,,,,"{""Q0"":""jane is flirting with beth""}","<img src=""stim_listA/flirt7.gif""style=""height:400px;""></stim_listA>",is flirting with,
null,"<div style=""font-size:60px;"">+</div>",,html-keyboard-response,46,514321,0.0-13.0-0.4,77778,List1A,black,man,,,,null,,,,
null,"<img src=""stim_listA/kiss3.gif""style=""height:400px;""></stim_listA>",,html-keyboard-response,47,516322,0.0-13.0-1.4,77778,List1A,black,man,,,,null,,,,
null,is kissing,,html-keyboard-response,48,518324,0.0-13.0-2.4,77778,List1A,black,man,,,,null,,,,
19636,,,survey-text,49,537963,0.0-13.0-3.4,77778,List1A,black,man,,,,,"{""Q0"":""Luke is kissing Jane""}","<img src=""stim_listA/kiss3.gif""style=""height:400px;""></stim_listA>",is kissing,
null,"<div style=""font-size:60px;"">+</div>",,html-keyboard-response,50,538464,0.0-13.0-0.5,77778,List1A,black,man,,,,null,,,,
null,"<img src=""stim_listA/flirt4.gif""style=""height:400px;""></stim_listA>",,html-keyboard-response,51,540467,0.0-13.0-1.5,77778,List1A,black,man,,,,null,,,,
null,are flirting with each other,,html-keyboard-response,52,542469,0.0-13.0-2.5,77778,List1A,black,man,,,,null,,,,
24523,,,survey-text,53,566995,0.0-13.0-3.5,77778,List1A,black,man,,,,,"{""Q0"":""Dave is flirting with Jane""}","<img src=""stim_listA/flirt4.gif""style=""height:400px;""></stim_listA>",are flirting with each other,
null,"<div style=""font-size:60px;"">+</div>",,html-keyboard-response,54,567496,0.0-13.0-0.6,77778,List1A,black,man,,,,null,,,,
null,"<img src=""stim_listA/argue5.gif""style=""height:400px;""></stim_listA>",,html-keyboard-response,55,569497,0.0-13.0-1.6,77778,List1A,black,man,,,,null,,,,
null,is arguing with,,html-keyboard-response,56,571500,0.0-13.0-2.6,77778,List1A,black,man,,,,null,,,,
11037,,,survey-text,57,582539,0.0-13.0-3.6,77778,List1A,black,man,,,,,"{""Q0"":""Luke is arguing with Mike""}","<img src=""stim_listA/argue5.gif""style=""height:400px;""></stim_listA>",is arguing with,
null,"<div style=""font-size:60px;"">+</div>",,html-keyboard-response,58,583041,0.0-13.0-0.7,77778,List1A,black,man,,,,null,,,,
null,"<img src=""stim_listA/touch2.gif""style=""height:400px;""></stim_listA>",,html-keyboard-response,59,585044,0.0-13.0-1.7,77778,List1A,black,man,,,,null,,,,
null,are touching each other,,html-keyboard-response,60,587047,0.0-13.0-2.7,77778,List1A,black,man,,,,null,,,,
14043,,,survey-text,61,601090,0.0-13.0-3.7,77778,List1A,black,man,,,,,"{""Q0"":""Fred is touching hands with Beth""}","<img src=""stim_listA/touch2.gif""style=""height:400px;""></stim_listA>",are touching each other,
null,"<div style=""font-size:60px;"">+</div>",,html-keyboard-response,62,601592,0.0-13.0-0.8,77778,List1A,black,man,,,,null,,,,
null,"<img src=""stim_listA/touch8.gif""style=""height:400px;""></stim_listA>",,html-keyboard-response,63,603593,0.0-13.0-1.8,77778,List1A,black,man,,,,null,,,,
null,are touching each other,,html-keyboard-response,64,605595,0.0-13.0-2.8,77778,List1A,black,man,,,,null,,,,
24222,,,survey-text,65,629818,0.0-13.0-3.8,77778,List1A,black,man,,,,,"{""Q0"":""Jane and Beth are touching each other""}","<img src=""stim_listA/touch8.gif""style=""height:400px;""></stim_listA>",are touching each other,
null,"<div style=""font-size:60px;"">+</div>",,html-keyboard-response,66,630322,0.0-13.0-0.9,77778,List1A,black,man,,,,null,,,,
null,"<img src=""stim_listA/dance7.gif""style=""height:400px;""></stim_listA>",,html-keyboard-response,67,632325,0.0-13.0-1.9,77778,List1A,black,man,,,,null,,,,
null,is dancing with,,html-keyboard-response,68,634326,0.0-13.0-2.9,77778,List1A,black,man,,,,null,,,,
13851,,,survey-text,69,648179,0.0-13.0-3.9,77778,List1A,black,man,,,,,"{""Q0"":""Jane is dancing with Beth""}","<img src=""stim_listA/dance7.gif""style=""height:400px;""></stim_listA>",is dancing with,
null,"<div style=""font-size:60px;"">+</div>",,html-keyboard-response,70,648681,0.0-13.0-0.10,77778,List1A,black,man,,,,null,,,,
null,"<img src=""stim_listA/play3.gif""style=""height:400px;""></stim_listA>",,html-keyboard-response,71,650683,0.0-13.0-1.10,77778,List1A,black,man,,,,null,,,,
null,is playing with,,html-keyboard-response,72,652684,0.0-13.0-2.10,77778,List1A,black,man,,,,null,,,,
13247,,,survey-text,73,665932,0.0-13.0-3.10,77778,List1A,black,man,,,,,"{""Q0"":""Dave is dancing with Ruth""}","<img src=""stim_listA/play3.gif""style=""height:400px;""></stim_listA>",is playing with,
null,"<div style=""font-size:60px;"">+</div>",,html-keyboard-response,74,666434,0.0-13.0-0.11,77778,List1A,black,man,,,,null,,,,
null,"<img src=""stim_listA/flirt5.gif""style=""height:400px;""></stim_listA>",,html-keyboard-response,75,668436,0.0-13.0-1.11,77778,List1A,black,man,,,,null,,,,
null,is flirting with,,html-keyboard-response,76,670438,0.0-13.0-2.11,77778,List1A,black,man,,,,null,,,,
14756,,,survey-text,77,685197,0.0-13.0-3.11,77778,List1A,black,man,,,,,"{""Q0"":""Fred is flirting with Dave""}","<img src=""stim_listA/flirt5.gif""style=""height:400px;""></stim_listA>",is flirting with,
null,"<div style=""font-size:60px;"">+</div>",,html-keyboard-response,78,685700,0.0-13.0-0.12,77778,List1A,black,man,,,,null,,,,
null,"<img src=""stim_listA/shout5.gif""style=""height:400px;""></stim_listA>",,html-keyboard-response,79,687703,0.0-13.0-1.12,77778,List1A,black,man,,,,null,,,,
null,is shouting at,,html-keyboard-response,80,689704,0.0-13.0-2.12,77778,List1A,black,man,,,,null,,,,
16955,,,survey-text,81,706661,0.0-13.0-3.12,77778,List1A,black,man,,,,,"{""Q0"":""Fred is shouting at Luke""}","<img src=""stim_listA/shout5.gif""style=""height:400px;""></stim_listA>",is shouting at,
null,"<div style=""font-size:60px;"">+</div>",,html-keyboard-response,82,707163,0.0-13.0-0.13,77778,List1A,black,man,,,,null,,,,
null,"<img src=""stim_listA/fight2.gif""style=""height:400px;""></stim_listA>",,html-keyboard-response,83,709166,0.0-13.0-1.13,77778,List1A,black,man,,,,null,,,,
null,are fighting each other,,html-keyboard-response,84,711168,0.0-13.0-2.13,77778,List1A,black,man,,,,null,,,,
11760,,,survey-text,85,722928,0.0-13.0-3.13,77778,List1A,black,man,,,,,"{""Q0"":""Fred and Beth are fighting each other""}","<img src=""stim_listA/fight2.gif""style=""height:400px;""></stim_listA>",are fighting each other,
null,"<div style=""font-size:60px;"">+</div>",,html-keyboard-response,86,723431,0.0-13.0-0.14,77778,List1A,black,man,,,,null,,,,
null,"<img src=""stim_listA/dance4.gif""style=""height:400px;""></stim_listA>",,html-keyboard-response,87,725434,0.0-13.0-1.14,77778,List1A,black,man,,,,null,,,,
null,are dancing with each other,,html-keyboard-response,88,727437,0.0-13.0-2.14,77778,List1A,black,man,,,,null,,,,
23986,,,survey-text,89,751424,0.0-13.0-3.14,77778,List1A,black,man,,,,,"{""Q0"":""Dave and Ruth are dancing with each other""}","<img src=""stim_listA/dance4.gif""style=""height:400px;""></stim_listA>",are dancing with each other,
null,"<div style=""font-size:60px;"">+</div>",,html-keyboard-response,90,751926,0.0-13.0-0.15,77778,List1A,black,man,,,,null,,,,
null,"<img src=""stim_listA/shout4.gif""style=""height:400px;""></stim_listA>",,html-keyboard-response,91,753927,0.0-13.0-1.15,77778,List1A,black,man,,,,null,,,,
null,are shouting at each other,,html-keyboard-response,92,755930,0.0-13.0-2.15,77778,List1A,black,man,,,,null,,,,
15997,,,survey-text,93,771928,0.0-13.0-3.15,77778,List1A,black,man,,,,,"{""Q0"":""Dave and Jane are fighting each other""}","<img src=""stim_listA/shout4.gif""style=""height:400px;""></stim_listA>",are shouting at each other,
null,"<div style=""font-size:60px;"">+</div>",,html-keyboard-response,94,772430,0.0-13.0-0.16,77778,List1A,black,man,,,,null,,,,
null,"<img src=""stim_listA/argue6.gif""style=""height:400px;""></stim_listA>",,html-keyboard-response,95,774433,0.0-13.0-1.16,77778,List1A,black,man,,,,null,,,,
null,are arguing with each other,,html-keyboard-response,96,776439,0.0-13.0-2.16,77778,List1A,black,man,,,,null,,,,
17123,,,survey-text,97,793564,0.0-13.0-3.16,77778,List1A,black,man,,,,,"{""Q0"":""Fred and Dave are arguing with each other""}","<img src=""stim_listA/argue6.gif""style=""height:400px;""></stim_listA>",are arguing with each other,
null,"<div style=""font-size:60px;"">+</div>",,html-keyboard-response,98,794066,0.0-13.0-0.17,77778,List1A,black,man,,,,null,,,,
null,"<img src=""stim_listA/argue1.gif""style=""height:400px;""></stim_listA>",,html-keyboard-response,99,796068,0.0-13.0-1.17,77778,List1A,black,man,,,,null,,,,
null,is arguing with,,html-keyboard-response,100,798071,0.0-13.0-2.17,77778,List1A,black,man,,,,null,,,,
18244,,,survey-text,101,816316,0.0-13.0-3.17,77778,List1A,black,man,,,,,"{""Q0"":""Mike and Beth are arguing with each other""}","<img src=""stim_listA/argue1.gif""style=""height:400px;""></stim_listA>",is arguing with,
null,"<div style=""font-size:60px;"">+</div>",,html-keyboard-response,102,816819,0.0-13.0-0.18,77778,List1A,black,man,,,,null,,,,
null,"<img src=""stim_listA/talk3.gif""style=""height:400px;""></stim_listA>",,html-keyboard-response,103,818822,0.0-13.0-1.18,77778,List1A,black,man,,,,null,,,,
null,is talking to,,html-keyboard-response,104,820825,0.0-13.0-2.18,77778,List1A,black,man,,,,null,,,,
16110,,,survey-text,105,836936,0.0-13.0-3.18,77778,List1A,black,man,,,,,"{""Q0"":""Luke and Jane are talking to each other""}","<img src=""stim_listA/talk3.gif""style=""height:400px;""></stim_listA>",is talking to,
null,"<div style=""font-size:60px;"">+</div>",,html-keyboard-response,106,837438,0.0-13.0-0.19,77778,List1A,black,man,,,,null,,,,
null,"<img src=""stim_listA/fight4.gif""style=""height:400px;""></stim_listA>",,html-keyboard-response,107,839442,0.0-13.0-1.19,77778,List1A,black,man,,,,null,,,,
null,are fighting each other,,html-keyboard-response,108,841445,0.0-13.0-2.19,77778,List1A,black,man,,,,null,,,,
21346,,,survey-text,109,862793,0.0-13.0-3.19,77778,List1A,black,man,,,,,"{""Q0"":""Ruth and Luke are fighting each other""}","<img src=""stim_listA/fight4.gif""style=""height:400px;""></stim_listA>",are fighting each other,
44841,"<img src='img/portrait_matrix_list1.jpg' style='width:900px;height:500px;''></img><p>If you have memorised all the portraits and names and are ready to start, press Continue.</p><p><strong>Please note: Your memory of these faces will be tested 4 times during this experiment.</strong></p>",0,html-button-response,110,907636,0.0-14.0-0.0,77778,List1A,black,man,,,,,,,,
4542,"<img src=""portrait/WW1.jpg""style=""height:400px;""></img>",1,html-button-response,111,913180,0.0-14.0-1.0,77778,List1A,black,man,,TRUE,1,,,,,
null,CORRECT,,html-keyboard-response,112,914683,0.0-14.0-2.0-0.0,77778,List1A,black,man,,,,null,,,,
3839,"<img src=""portrait/BW2.jpg""style=""height:400px;""></img>",2,html-button-response,113,918524,0.0-14.0-4.0,77778,List1A,black,man,,TRUE,2,,,,,
null,CORRECT,,html-keyboard-response,114,920028,0.0-14.0-5.0-0.0,77778,List1A,black,man,,,,null,,,,
9030,"<img src=""portrait/BM1.jpg""style=""height:400px;""></img>",4,html-button-response,115,929060,0.0-14.0-7.0,77778,List1A,black,man,,TRUE,4,,,,,
null,CORRECT,,html-keyboard-response,116,930565,0.0-14.0-8.0-0.0,77778,List1A,black,man,,,,null,,,,
4476,"<img src=""portrait/BW1.jpg""style=""height:400px;""></img>",0,html-button-response,117,935044,0.0-14.0-10.0,77778,List1A,black,man,,TRUE,0,,,,,
null,CORRECT,,html-keyboard-response,118,936545,0.0-14.0-11.0-0.0,77778,List1A,black,man,,,,null,,,,
6041,"<img src=""portrait/WM2.jpg""style=""height:400px;""></img>",7,html-button-response,119,942588,0.0-14.0-13.0,77778,List1A,black,man,,TRUE,7,,,,,
null,CORRECT,,html-keyboard-response,120,944091,0.0-14.0-14.0-0.0,77778,List1A,black,man,,,,null,,,,
4679,"<img src=""portrait/WM1.jpg""style=""height:400px;""></img>",6,html-button-response,121,948771,0.0-14.0-16.0,77778,List1A,black,man,,TRUE,6,,,,,
null,CORRECT,,html-keyboard-response,122,950276,0.0-14.0-17.0-0.0,77778,List1A,black,man,,,,null,,,,
4854,"<img src=""portrait/BM2.jpg""style=""height:400px;""></img>",5,html-button-response,123,955132,0.0-14.0-19.0,77778,List1A,black,man,,TRUE,5,,,,,
null,CORRECT,,html-keyboard-response,124,956635,0.0-14.0-20.0-0.0,77778,List1A,black,man,,,,null,,,,
4646,"<img src=""portrait/WW2.jpg""style=""height:400px;""></img>",3,html-button-response,125,961284,0.0-14.0-22.0,77778,List1A,black,man,,TRUE,3,,,,,
null,CORRECT,,html-keyboard-response,126,962789,0.0-14.0-23.0-0.0,77778,List1A,black,man,,,,null,,,,
7665,<p>You got 8 out of 8 right first time. Press Continue.</p>,0,html-button-response,127,970455,0.0-14.0-25.0,77778,List1A,black,man,,,,,,,,
null,"<div style=""font-size:60px;"">+</div>",,html-keyboard-response,128,971959,0.0-15.0-0.0,77778,List1A,black,man,,,,null,,,,
null,"<img src=""stim_listA/flirt6.gif""style=""height:400px;""></stim_listA>",,html-keyboard-response,129,973962,0.0-15.0-1.0,77778,List1A,black,man,,,,null,,,,
null,are flirting with each other,,html-keyboard-response,130,975964,0.0-15.0-2.0,77778,List1A,black,man,,,,null,,,,
15345,,,survey-text,131,991311,0.0-15.0-3.0,77778,List1A,black,man,,,,,"{""Q0"":""Luke and Mike are flirting with each other""}","<img src=""stim_listA/flirt6.gif""style=""height:400px;""></stim_listA>",are flirting with each other,
null,"<div style=""font-size:60px;"">+</div>",,html-keyboard-response,132,991812,0.0-15.0-0.1,77778,List1A,black,man,,,,null,,,,
null,"<img src=""stim_listA/fight3.gif""style=""height:400px;""></stim_listA>",,html-keyboard-response,133,993814,0.0-15.0-1.1,77778,List1A,black,man,,,,null,,,,
null,is fighting,,html-keyboard-response,134,995816,0.0-15.0-2.1,77778,List1A,black,man,,,,null,,,,
8118,,,survey-text,135,1003935,0.0-15.0-3.1,77778,List1A,black,man,,,,,"{""Q0"":""Jane and Dave are fighting""}","<img src=""stim_listA/fight3.gif""style=""height:400px;""></stim_listA>",is fighting,
null,"<div style=""font-size:60px;"">+</div>",,html-keyboard-response,136,1004437,0.0-15.0-0.2,77778,List1A,black,man,,,,null,,,,
null,"<img src=""stim_listA/shout3.gif""style=""height:400px;""></stim_listA>",,html-keyboard-response,137,1006441,0.0-15.0-1.2,77778,List1A,black,man,,,,null,,,,
null,is shouting at,,html-keyboard-response,138,1008443,0.0-15.0-2.2,77778,List1A,black,man,,,,null,,,,
46271,,,survey-text,139,1054716,0.0-15.0-3.2,77778,List1A,black,man,,,,,"{""Q0"":""Jane is shouting at Luke""}","<img src=""stim_listA/shout3.gif""style=""height:400px;""></stim_listA>",is shouting at,
null,"<div style=""font-size:60px;"">+</div>",,html-keyboard-response,140,1055219,0.0-15.0-0.3,77778,List1A,black,man,,,,null,,,,
null,"<img src=""stim_listA/touch7.gif""style=""height:400px;""></stim_listA>",,html-keyboard-response,141,1057222,0.0-15.0-1.3,77778,List1A,black,man,,,,null,,,,
null,is touching,,html-keyboard-response,142,1059225,0.0-15.0-2.3,77778,List1A,black,man,,,,null,,,,
9185,,,survey-text,143,1068412,0.0-15.0-3.3,77778,List1A,black,man,,,,,"{""Q0"":""Jane is touching Kate""}","<img src=""stim_listA/touch7.gif""style=""height:400px;""></stim_listA>",is touching,
null,"<div style=""font-size:60px;"">+</div>",,html-keyboard-response,144,1068913,0.0-15.0-0.4,77778,List1A,black,man,,,,null,,,,
null,"<img src=""stim_listA/fight5.gif""style=""height:400px;""></stim_listA>",,html-keyboard-response,145,1070915,0.0-15.0-1.4,77778,List1A,black,man,,,,null,,,,
null,is fighting,,html-keyboard-response,146,1072916,0.0-15.0-2.4,77778,List1A,black,man,,,,null,,,,
13702,,,survey-text,147,1086620,0.0-15.0-3.4,77778,List1A,black,man,,,,,"{""Q0"":""Dave is fighting Mike""}","<img src=""stim_listA/fight5.gif""style=""height:400px;""></stim_listA>",is fighting,
null,"<div style=""font-size:60px;"">+</div>",,html-keyboard-response,148,1087123,0.0-15.0-0.5,77778,List1A,black,man,,,,null,,,,
null,"<img src=""stim_listA/flirt3.gif""style=""height:400px;""></stim_listA>",,html-keyboard-response,149,1089127,0.0-15.0-1.5,77778,List1A,black,man,,,,null,,,,
null,is flirting with,,html-keyboard-response,150,1091129,0.0-15.0-2.5,77778,List1A,black,man,,,,null,,,,
11491,,,survey-text,151,1102620,0.0-15.0-3.5,77778,List1A,black,man,,,,,"{""Q0"":""Jane is flirting with Luke""}","<img src=""stim_listA/flirt3.gif""style=""height:400px;""></stim_listA>",is flirting with,
null,"<div style=""font-size:60px;"">+</div>",,html-keyboard-response,152,1103123,0.0-15.0-0.6,77778,List1A,black,man,,,,null,,,,
null,"<img src=""stim_listA/marry8.gif""style=""height:400px;""></stim_listA>",,html-keyboard-response,153,1105127,0.0-15.0-1.6,77778,List1A,black,man,,,,null,,,,
null,are marrying each other,,html-keyboard-response,154,1107130,0.0-15.0-2.6,77778,List1A,black,man,,,,null,,,,
16852,,,survey-text,155,1123983,0.0-15.0-3.6,77778,List1A,black,man,,,,,"{""Q0"":""Beth and Jane are marrying each other""}","<img src=""stim_listA/marry8.gif""style=""height:400px;""></stim_listA>",are marrying each other,
null,"<div style=""font-size:60px;"">+</div>",,html-keyboard-response,156,1124485,0.0-15.0-0.7,77778,List1A,black,man,,,,null,,,,
null,"<img src=""stim_listA/dance1.gif""style=""height:400px;""></stim_listA>",,html-keyboard-response,157,1126488,0.0-15.0-1.7,77778,List1A,black,man,,,,null,,,,
null,is dancing with,,html-keyboard-response,158,1128490,0.0-15.0-2.7,77778,List1A,black,man,,,,null,,,,
8772,,,survey-text,159,1137263,0.0-15.0-3.7,77778,List1A,black,man,,,,,"{""Q0"":""Fred is dancing with Kate""}","<img src=""stim_listA/dance1.gif""style=""height:400px;""></stim_listA>",is dancing with,
null,"<div style=""font-size:60px;"">+</div>",,html-keyboard-response,160,1137765,0.0-15.0-0.8,77778,List1A,black,man,,,,null,,,,
null,"<img src=""stim_listA/argue2.gif""style=""height:400px;""></stim_listA>",,html-keyboard-response,161,1139769,0.0-15.0-1.8,77778,List1A,black,man,,,,null,,,,
null,are arguing with each other,,html-keyboard-response,162,1141770,0.0-15.0-2.8,77778,List1A,black,man,,,,null,,,,
9980,,,survey-text,163,1151752,0.0-15.0-3.8,77778,List1A,black,man,,,,,"{""Q0"":""Fred and Kate are arguing with each other""}","<img src=""stim_listA/argue2.gif""style=""height:400px;""></stim_listA>",are arguing with each other,
null,"<div style=""font-size:60px;"">+</div>",,html-keyboard-response,164,1152253,0.0-15.0-0.9,77778,List1A,black,man,,,,null,,,,
null,"<img src=""stim_listA/touch1.gif""style=""height:400px;""></stim_listA>",,html-keyboard-response,165,1154255,0.0-15.0-1.9,77778,List1A,black,man,,,,null,,,,
null,is touching,,html-keyboard-response,166,1156256,0.0-15.0-2.9,77778,List1A,black,man,,,,null,,,,
14006,,,survey-text,167,1170263,0.0-15.0-3.9,77778,List1A,black,man,,,,,"{""Q0"":""Mike is touching Kate""}","<img src=""stim_listA/touch1.gif""style=""height:400px;""></stim_listA>",is touching,
null,"<div style=""font-size:60px;"">+</div>",,html-keyboard-response,168,1170766,0.0-15.0-0.10,77778,List1A,black,man,,,,null,,,,
null,"<img src=""stim_listA/dance5.gif""style=""height:400px;""></stim_listA>",,html-keyboard-response,169,1172770,0.0-15.0-1.10,77778,List1A,black,man,,,,null,,,,
null,is dancing with,,html-keyboard-response,170,1174776,0.0-15.0-2.10,77778,List1A,black,man,,,,null,,,,
7601,,,survey-text,171,1182379,0.0-15.0-3.10,77778,List1A,black,man,,,,,"{""Q0"":""Fred is dancing with Dave""}","<img src=""stim_listA/dance5.gif""style=""height:400px;""></stim_listA>",is dancing with,
null,"<div style=""font-size:60px;"">+</div>",,html-keyboard-response,172,1182882,0.0-15.0-0.11,77778,List1A,black,man,,,,null,,,,
null,"<img src=""stim_listA/talk1.gif""style=""height:400px;""></stim_listA>",,html-keyboard-response,173,1184885,0.0-15.0-1.11,77778,List1A,black,man,,,,null,,,,
null,is talking to,,html-keyboard-response,174,1186885,0.0-15.0-2.11,77778,List1A,black,man,,,,null,,,,
6845,,,survey-text,175,1193731,0.0-15.0-3.11,77778,List1A,black,man,,,,,"{""Q0"":""Fred is talking to Kate""}","<img src=""stim_listA/talk1.gif""style=""height:400px;""></stim_listA>",is talking to,
null,"<div style=""font-size:60px;"">+</div>",,html-keyboard-response,176,1194234,0.0-15.0-0.12,77778,List1A,black,man,,,,null,,,,
null,"<img src=""stim_listA/dance2.gif""style=""height:400px;""></stim_listA>",,html-keyboard-response,177,1196238,0.0-15.0-1.12,77778,List1A,black,man,,,,null,,,,
null,are dancing with each other,,html-keyboard-response,178,1198240,0.0-15.0-2.12,77778,List1A,black,man,,,,null,,,,
15121,,,survey-text,179,1213363,0.0-15.0-3.12,77778,List1A,black,man,,,,,"{""Q0"":""Beth is talking to Mike""}","<img src=""stim_listA/dance2.gif""style=""height:400px;""></stim_listA>",are dancing with each other,
null,"<div style=""font-size:60px;"">+</div>",,html-keyboard-response,180,1213865,0.0-15.0-0.13,77778,List1A,black,man,,,,null,,,,
null,"<img src=""stim_listA/marry4.gif""style=""height:400px;""></stim_listA>",,html-keyboard-response,181,1215868,0.0-15.0-1.13,77778,List1A,black,man,,,,null,,,,
null,are marrying each other,,html-keyboard-response,182,1217874,0.0-15.0-2.13,77778,List1A,black,man,,,,null,,,,
12968,,,survey-text,183,1230843,0.0-15.0-3.13,77778,List1A,black,man,,,,,"{""Q0"":""Jane and Luke are marrying each other""}","<img src=""stim_listA/marry4.gif""style=""height:400px;""></stim_listA>",are marrying each other,
null,"<div style=""font-size:60px;"">+</div>",,html-keyboard-response,184,1231346,0.0-15.0-0.14,77778,List1A,black,man,,,,null,,,,
null,"<img src=""stim_listA/play4.gif""style=""height:400px;""></stim_listA>",,html-keyboard-response,185,1233350,0.0-15.0-1.14,77778,List1A,black,man,,,,null,,,,
null,are playing with each other,,html-keyboard-response,186,1235355,0.0-15.0-2.14,77778,List1A,black,man,,,,null,,,,
23322,,,survey-text,187,1258678,0.0-15.0-3.14,77778,List1A,black,man,,,,,"{""Q0"":""Luke and Ruth are marrying each other""}","<img src=""stim_listA/play4.gif""style=""height:400px;""></stim_listA>",are playing with each other,
null,"<div style=""font-size:60px;"">+</div>",,html-keyboard-response,188,1259179,0.0-15.0-0.15,77778,List1A,black,man,,,,null,,,,
null,"<img src=""stim_listA/kiss4.gif""style=""height:400px;""></stim_listA>",,html-keyboard-response,189,1261184,0.0-15.0-1.15,77778,List1A,black,man,,,,null,,,,
null,are kissing each other,,html-keyboard-response,190,1263186,0.0-15.0-2.15,77778,List1A,black,man,,,,null,,,,
8756,,,survey-text,191,1271942,0.0-15.0-3.15,77778,List1A,black,man,,,,,"{""Q0"":""Jane and Dave are kissing each other""}","<img src=""stim_listA/kiss4.gif""style=""height:400px;""></stim_listA>",are kissing each other,
null,"<div style=""font-size:60px;"">+</div>",,html-keyboard-response,192,1272445,0.0-15.0-0.16,77778,List1A,black,man,,,,null,,,,
null,"<img src=""stim_listA/marry2.gif""style=""height:400px;""></stim_listA>",,html-keyboard-response,193,1274449,0.0-15.0-1.16,77778,List1A,black,man,,,,null,,,,
null,are marrying each other,,html-keyboard-response,194,1276452,0.0-15.0-2.16,77778,List1A,black,man,,,,null,,,,
9265,,,survey-text,195,1285718,0.0-15.0-3.16,77778,List1A,black,man,,,,,"{""Q0"":""Fred and Kate are marrying each other""}","<img src=""stim_listA/marry2.gif""style=""height:400px;""></stim_listA>",are marrying each other,
null,"<div style=""font-size:60px;"">+</div>",,html-keyboard-response,196,1286221,0.0-15.0-0.17,77778,List1A,black,man,,,,null,,,,
null,"<img src=""stim_listA/fight6.gif""style=""height:400px;""></stim_listA>",,html-keyboard-response,197,1288224,0.0-15.0-1.17,77778,List1A,black,man,,,,null,,,,
null,are fighting each other,,html-keyboard-response,198,1290227,0.0-15.0-2.17,77778,List1A,black,man,,,,null,,,,
12452,,,survey-text,199,1302681,0.0-15.0-3.17,77778,List1A,black,man,,,,,"{""Q0"":""Fred and Luke are fighting each other""}","<img src=""stim_listA/fight6.gif""style=""height:400px;""></stim_listA>",are fighting each other,
null,"<div style=""font-size:60px;"">+</div>",,html-keyboard-response,200,1303182,0.0-15.0-0.18,77778,List1A,black,man,,,,null,,,,
null,"<img src=""stim_listA/talk5.gif""style=""height:400px;""></stim_listA>",,html-keyboard-response,201,1305184,0.0-15.0-1.18,77778,List1A,black,man,,,,null,,,,
null,is talking to,,html-keyboard-response,202,1307187,0.0-15.0-2.18,77778,List1A,black,man,,,,null,,,,
6156,,,survey-text,203,1313345,0.0-15.0-3.18,77778,List1A,black,man,,,,,"{""Q0"":""Fred is talking to Dave""}","<img src=""stim_listA/talk5.gif""style=""height:400px;""></stim_listA>",is talking to,
null,"<div style=""font-size:60px;"">+</div>",,html-keyboard-response,204,1313847,0.0-15.0-0.19,77778,List1A,black,man,,,,null,,,,
null,"<img src=""stim_listA/play5.gif""style=""height:400px;""></stim_listA>",,html-keyboard-response,205,1315852,0.0-15.0-1.19,77778,List1A,black,man,,,,null,,,,
null,is playing with,,html-keyboard-response,206,1317855,0.0-15.0-2.19,77778,List1A,black,man,,,,null,,,,
8177,,,survey-text,207,1326033,0.0-15.0-3.19,77778,List1A,black,man,,,,,"{""Q0"":""Dave is playing with Mike""}","<img src=""stim_listA/play5.gif""style=""height:400px;""></stim_listA>",is playing with,
81749,"<img src='img/portrait_matrix_list1.jpg' style='width:900px;height:500px;''></img><p>If you have memorised all the portraits and names and are ready to start, press Continue.</p><p><strong>Please note: Your memory of these faces will be tested 4 times during this experiment.</strong></p>",0,html-button-response,208,1407783,0.0-16.0-0.0,77778,List1A,black,man,,,,,,,,
3718,"<img src=""portrait/WM2.jpg""style=""height:400px;""></img>",7,html-button-response,209,1412504,0.0-16.0-1.0,77778,List1A,black,man,,TRUE,7,,,,,
null,CORRECT,,html-keyboard-response,210,1414009,0.0-16.0-2.0-0.0,77778,List1A,black,man,,,,null,,,,
4589,"<img src=""portrait/BM1.jpg""style=""height:400px;""></img>",4,html-button-response,211,1418599,0.0-16.0-4.0,77778,List1A,black,man,,TRUE,4,,,,,
null,CORRECT,,html-keyboard-response,212,1420108,0.0-16.0-5.0-0.0,77778,List1A,black,man,,,,null,,,,
6490,"<img src=""portrait/BW1.jpg""style=""height:400px;""></img>",0,html-button-response,213,1426599,0.0-16.0-7.0,77778,List1A,black,man,,TRUE,0,,,,,
null,CORRECT,,html-keyboard-response,214,1428103,0.0-16.0-8.0-0.0,77778,List1A,black,man,,,,null,,,,
3885,"<img src=""portrait/BW2.jpg""style=""height:400px;""></img>",2,html-button-response,215,1431990,0.0-16.0-10.0,77778,List1A,black,man,,TRUE,2,,,,,
null,CORRECT,,html-keyboard-response,216,1433494,0.0-16.0-11.0-0.0,77778,List1A,black,man,,,,null,,,,
1439,"<img src=""portrait/WW2.jpg""style=""height:400px;""></img>",3,html-button-response,217,1434934,0.0-16.0-13.0,77778,List1A,black,man,,TRUE,3,,,,,
null,CORRECT,,html-keyboard-response,218,1436438,0.0-16.0-14.0-0.0,77778,List1A,black,man,,,,null,,,,
1742,"<img src=""portrait/BM2.jpg""style=""height:400px;""></img>",5,html-button-response,219,1438183,0.0-16.0-16.0,77778,List1A,black,man,,TRUE,5,,,,,
null,CORRECT,,html-keyboard-response,220,1439685,0.0-16.0-17.0-0.0,77778,List1A,black,man,,,,null,,,,
2168,"<img src=""portrait/WM1.jpg""style=""height:400px;""></img>",6,html-button-response,221,1441855,0.0-16.0-19.0,77778,List1A,black,man,,TRUE,6,,,,,
null,CORRECT,,html-keyboard-response,222,1443358,0.0-16.0-20.0-0.0,77778,List1A,black,man,,,,null,,,,
1487,"<img src=""portrait/WW1.jpg""style=""height:400px;""></img>",1,html-button-response,223,1444847,0.0-16.0-22.0,77778,List1A,black,man,,TRUE,1,,,,,
null,CORRECT,,html-keyboard-response,224,1446351,0.0-16.0-23.0-0.0,77778,List1A,black,man,,,,null,,,,
20053,<p>You got 8 out of 8 right first time. Press Continue.</p>,0,html-button-response,225,1466407,0.0-16.0-25.0,77778,List1A,black,man,,,,,,,,
null,"<div style=""font-size:60px;"">+</div>",,html-keyboard-response,226,1467913,0.0-17.0-0.0,77778,List1A,black,man,,,,null,,,,
null,"<img src=""stim_listA/marry1.gif""style=""height:400px;""></stim_listA>",,html-keyboard-response,227,1469914,0.0-17.0-1.0,77778,List1A,black,man,,,,null,,,,
null,is marrying,,html-keyboard-response,228,1471916,0.0-17.0-2.0,77778,List1A,black,man,,,,null,,,,
15916,,,survey-text,229,1487834,0.0-17.0-3.0,77778,List1A,black,man,,,,,"{""Q0"":""Fred is marrying Beth""}","<img src=""stim_listA/marry1.gif""style=""height:400px;""></stim_listA>",is marrying,
null,"<div style=""font-size:60px;"">+</div>",,html-keyboard-response,230,1488335,0.0-17.0-0.1,77778,List1A,black,man,,,,null,,,,
null,"<img src=""stim_listA/play8.gif""style=""height:400px;""></stim_listA>",,html-keyboard-response,231,1490337,0.0-17.0-1.1,77778,List1A,black,man,,,,null,,,,
null,are playing with each other,,html-keyboard-response,232,1492339,0.0-17.0-2.1,77778,List1A,black,man,,,,null,,,,
13005,,,survey-text,233,1505346,0.0-17.0-3.1,77778,List1A,black,man,,,,,"{""Q0"":""Ruth is playing with Beth""}","<img src=""stim_listA/play8.gif""style=""height:400px;""></stim_listA>",are playing with each other,
null,"<div style=""font-size:60px;"">+</div>",,html-keyboard-response,234,1505848,0.0-17.0-0.2,77778,List1A,black,man,,,,null,,,,
null,"<img src=""stim_listA/fight7.gif""style=""height:400px;""></stim_listA>",,html-keyboard-response,235,1507851,0.0-17.0-1.2,77778,List1A,black,man,,,,null,,,,
null,is fighting,,html-keyboard-response,236,1509852,0.0-17.0-2.2,77778,List1A,black,man,,,,null,,,,
6213,,,survey-text,237,1516066,0.0-17.0-3.2,77778,List1A,black,man,,,,,"{""Q0"":""Kate is fighting Jane""}","<img src=""stim_listA/fight7.gif""style=""height:400px;""></stim_listA>",is fighting,
null,"<div style=""font-size:60px;"">+</div>",,html-keyboard-response,238,1516572,0.0-17.0-0.3,77778,List1A,black,man,,,,null,,,,
null,"<img src=""stim_listA/marry6.gif""style=""height:400px;""></stim_listA>",,html-keyboard-response,239,1518575,0.0-17.0-1.3,77778,List1A,black,man,,,,null,,,,
null,are marrying each other,,html-keyboard-response,240,1520578,0.0-17.0-2.3,77778,List1A,black,man,,,,null,,,,
8498,,,survey-text,241,1529077,0.0-17.0-3.3,77778,List1A,black,man,,,,,"{""Q0"":""Dave and Fred are marrying each other""}","<img src=""stim_listA/marry6.gif""style=""height:400px;""></stim_listA>",are marrying each other,
null,"<div style=""font-size:60px;"">+</div>",,html-keyboard-response,242,1529579,0.0-17.0-0.4,77778,List1A,black,man,,,,null,,,,
null,"<img src=""stim_listA/play7.gif""style=""height:400px;""></stim_listA>",,html-keyboard-response,243,1531581,0.0-17.0-1.4,77778,List1A,black,man,,,,null,,,,
null,is playing with,,html-keyboard-response,244,1533583,0.0-17.0-2.4,77778,List1A,black,man,,,,null,,,,
7292,,,survey-text,245,1540877,0.0-17.0-3.4,77778,List1A,black,man,,,,,"{""Q0"":""Kate is playing with Jane""}","<img src=""stim_listA/play7.gif""style=""height:400px;""></stim_listA>",is playing with,
null,"<div style=""font-size:60px;"">+</div>",,html-keyboard-response,246,1541379,0.0-17.0-0.5,77778,List1A,black,man,,,,null,,,,
null,"<img src=""stim_listA/marry3.gif""style=""height:400px;""></stim_listA>",,html-keyboard-response,247,1543383,0.0-17.0-1.5,77778,List1A,black,man,,,,null,,,,
null,is marrying,,html-keyboard-response,248,1545385,0.0-17.0-2.5,77778,List1A,black,man,,,,null,,,,
5611,,,survey-text,249,1550998,0.0-17.0-3.5,77778,List1A,black,man,,,,,"{""Q0"":""Dave is marrying Ruth""}","<img src=""stim_listA/marry3.gif""style=""height:400px;""></stim_listA>",is marrying,
null,"<div style=""font-size:60px;"">+</div>",,html-keyboard-response,250,1551500,0.0-17.0-0.6,77778,List1A,black,man,,,,null,,,,
null,"<img src=""stim_listA/shout8.gif""style=""height:400px;""></stim_listA>",,html-keyboard-response,251,1553501,0.0-17.0-1.6,77778,List1A,black,man,,,,null,,,,
null,are shouting at each other,,html-keyboard-response,252,1555504,0.0-17.0-2.6,77778,List1A,black,man,,,,null,,,,
10460,,,survey-text,253,1565966,0.0-17.0-3.6,77778,List1A,black,man,,,,,"{""Q0"":""Kate and Jane are shouting at each other""}","<img src=""stim_listA/shout8.gif""style=""height:400px;""></stim_listA>",are shouting at each other,
null,"<div style=""font-size:60px;"">+</div>",,html-keyboard-response,254,1566467,0.0-17.0-0.7,77778,List1A,black,man,,,,null,,,,
null,"<img src=""stim_listA/dance8.gif""style=""height:400px;""></stim_listA>",,html-keyboard-response,255,1568471,0.0-17.0-1.7,77778,List1A,black,man,,,,null,,,,
null,are dancing with each other,,html-keyboard-response,256,1570473,0.0-17.0-2.7,77778,List1A,black,man,,,,null,,,,
8923,,,survey-text,257,1579398,0.0-17.0-3.7,77778,List1A,black,man,,,,,"{""Q0"":""kate and Ruth are dancing with each other""}","<img src=""stim_listA/dance8.gif""style=""height:400px;""></stim_listA>",are dancing with each other,
null,"<div style=""font-size:60px;"">+</div>",,html-keyboard-response,258,1579899,0.0-17.0-0.8,77778,List1A,black,man,,,,null,,,,
null,"<img src=""stim_listA/shout6.gif""style=""height:400px;""></stim_listA>",,html-keyboard-response,259,1581901,0.0-17.0-1.8,77778,List1A,black,man,,,,null,,,,
null,are shouting at each other,,html-keyboard-response,260,1583902,0.0-17.0-2.8,77778,List1A,black,man,,,,null,,,,
9402,,,survey-text,261,1593304,0.0-17.0-3.8,77778,List1A,black,man,,,,,"{""Q0"":""Dave and Mike are shouting at each other""}","<img src=""stim_listA/shout6.gif""style=""height:400px;""></stim_listA>",are shouting at each other,
null,"<div style=""font-size:60px;"">+</div>",,html-keyboard-response,262,1593806,0.0-17.0-0.9,77778,List1A,black,man,,,,null,,,,
null,"<img src=""stim_listA/play6.gif""style=""height:400px;""></stim_listA>",,html-keyboard-response,263,1595810,0.0-17.0-1.9,77778,List1A,black,man,,,,null,,,,
null,are playing with each other,,html-keyboard-response,264,1597813,0.0-17.0-2.9,77778,List1A,black,man,,,,null,,,,
12121,,,survey-text,265,1609936,0.0-17.0-3.9,77778,List1A,black,man,,,,,"{""Q0"":""Fred and Luke are playing with each other""}","<img src=""stim_listA/play6.gif""style=""height:400px;""></stim_listA>",are playing with each other,
null,"<div style=""font-size:60px;"">+</div>",,html-keyboard-response,266,1610438,0.0-17.0-0.10,77778,List1A,black,man,,,,null,,,,
null,"<img src=""stim_listA/argue7.gif""style=""height:400px;""></stim_listA>",,html-keyboard-response,267,1612442,0.0-17.0-1.10,77778,List1A,black,man,,,,null,,,,
null,is arguing with,,html-keyboard-response,268,1614444,0.0-17.0-2.10,77778,List1A,black,man,,,,null,,,,
11289,,,survey-text,269,1625736,0.0-17.0-3.10,77778,List1A,black,man,,,,,"{""Q0"":""Kate is arguing with Ruth""}","<img src=""stim_listA/argue7.gif""style=""height:400px;""></stim_listA>",is arguing with,
null,"<div style=""font-size:60px;"">+</div>",,html-keyboard-response,270,1626238,0.0-17.0-0.11,77778,List1A,black,man,,,,null,,,,
null,"<img src=""stim_listA/shout2.gif""style=""height:400px;""></stim_listA>",,html-keyboard-response,271,1628239,0.0-17.0-1.11,77778,List1A,black,man,,,,null,,,,
null,are shouting at each other,,html-keyboard-response,272,1630242,0.0-17.0-2.11,77778,List1A,black,man,,,,null,,,,
8693,,,survey-text,273,1638936,0.0-17.0-3.11,77778,List1A,black,man,,,,,"{""Q0"":""Kate and Mike are shouting at each other""}","<img src=""stim_listA/shout2.gif""style=""height:400px;""></stim_listA>",are shouting at each other,
null,"<div style=""font-size:60px;"">+</div>",,html-keyboard-response,274,1639438,0.0-17.0-0.12,77778,List1A,black,man,,,,null,,,,
null,"<img src=""stim_listA/fight8.gif""style=""height:400px;""></stim_listA>",,html-keyboard-response,275,1641442,0.0-17.0-1.12,77778,List1A,black,man,,,,null,,,,
null,are fighting each other,,html-keyboard-response,276,1643443,0.0-17.0-2.12,77778,List1A,black,man,,,,null,,,,
9927,,,survey-text,277,1653372,0.0-17.0-3.12,77778,List1A,black,man,,,,,"{""Q0"":""Ruth and Beth are fighting each other""}","<img src=""stim_listA/fight8.gif""style=""height:400px;""></stim_listA>",are fighting each other,
null,"<div style=""font-size:60px;"">+</div>",,html-keyboard-response,278,1653874,0.0-17.0-0.13,77778,List1A,black,man,,,,null,,,,
null,"<img src=""stim_listA/flirt1.gif""style=""height:400px;""></stim_listA>",,html-keyboard-response,279,1655877,0.0-17.0-1.13,77778,List1A,black,man,,,,null,,,,
null,is flirting with,,html-keyboard-response,280,1657880,0.0-17.0-2.13,77778,List1A,black,man,,,,null,,,,
6722,,,survey-text,281,1664604,0.0-17.0-3.13,77778,List1A,black,man,,,,,"{""Q0"":""Fred is flirting with Kate""}","<img src=""stim_listA/flirt1.gif""style=""height:400px;""></stim_listA>",is flirting with,
null,"<div style=""font-size:60px;"">+</div>",,html-keyboard-response,282,1665106,0.0-17.0-0.14,77778,List1A,black,man,,,,null,,,,
null,"<img src=""stim_listA/touch3.gif""style=""height:400px;""></stim_listA>",,html-keyboard-response,283,1667110,0.0-17.0-1.14,77778,List1A,black,man,,,,null,,,,
null,is touching,,html-keyboard-response,284,1669113,0.0-17.0-2.14,77778,List1A,black,man,,,,null,,,,
5978,,,survey-text,285,1675092,0.0-17.0-3.14,77778,List1A,black,man,,,,,"{""Q0"":""Dave is touching Jane""}","<img src=""stim_listA/touch3.gif""style=""height:400px;""></stim_listA>",is touching,
null,"<div style=""font-size:60px;"">+</div>",,html-keyboard-response,286,1675594,0.0-17.0-0.15,77778,List1A,black,man,,,,null,,,,
null,"<img src=""stim_listA/kiss2.gif""style=""height:400px;""></stim_listA>",,html-keyboard-response,287,1677599,0.0-17.0-1.15,77778,List1A,black,man,,,,null,,,,
null,are kissing each other,,html-keyboard-response,288,1679601,0.0-17.0-2.15,77778,List1A,black,man,,,,null,,,,
7953,,,survey-text,289,1687556,0.0-17.0-3.15,77778,List1A,black,man,,,,,"{""Q0"":""Mike and Kate are kissing each other""}","<img src=""stim_listA/kiss2.gif""style=""height:400px;""></stim_listA>",are kissing each other,
null,"<div style=""font-size:60px;"">+</div>",,html-keyboard-response,290,1688058,0.0-17.0-0.16,77778,List1A,black,man,,,,null,,,,
null,"<img src=""stim_listA/touch4.gif""style=""height:400px;""></stim_listA>",,html-keyboard-response,291,1690061,0.0-17.0-1.16,77778,List1A,black,man,,,,null,,,,
null,are touching each other,,html-keyboard-response,292,1692063,0.0-17.0-2.16,77778,List1A,black,man,,,,null,,,,
18694,,,survey-text,293,1710758,0.0-17.0-3.16,77778,List1A,black,man,,,,,"{""Q0"":""Ruth and Luke are touching each other""}","<img src=""stim_listA/touch4.gif""style=""height:400px;""></stim_listA>",are touching each other,
null,"<div style=""font-size:60px;"">+</div>",,html-keyboard-response,294,1711260,0.0-17.0-0.17,77778,List1A,black,man,,,,null,,,,
null,"<img src=""stim_listA/kiss7.gif""style=""height:400px;""></stim_listA>",,html-keyboard-response,295,1713264,0.0-17.0-1.17,77778,List1A,black,man,,,,null,,,,
null,is kissing,,html-keyboard-response,296,1715266,0.0-17.0-2.17,77778,List1A,black,man,,,,null,,,,
11115,,,survey-text,297,1726382,0.0-17.0-3.17,77778,List1A,black,man,,,,,"{""Q0"":""Beth is kissing Ruth""}","<img src=""stim_listA/kiss7.gif""style=""height:400px;""></stim_listA>",is kissing,
null,"<div style=""font-size:60px;"">+</div>",,html-keyboard-response,298,1726884,0.0-17.0-0.18,77778,List1A,black,man,,,,null,,,,
null,"<img src=""stim_listA/shout7.gif""style=""height:400px;""></stim_listA>",,html-keyboard-response,299,1728887,0.0-17.0-1.18,77778,List1A,black,man,,,,null,,,,
null,is shouting at,,html-keyboard-response,300,1730890,0.0-17.0-2.18,77778,List1A,black,man,,,,null,,,,
9667,,,survey-text,301,1740558,0.0-17.0-3.18,77778,List1A,black,man,,,,,"{""Q0"":""Beth is shouting at Ruth""}","<img src=""stim_listA/shout7.gif""style=""height:400px;""></stim_listA>",is shouting at,
null,"<div style=""font-size:60px;"">+</div>",,html-keyboard-response,302,1741061,0.0-17.0-0.19,77778,List1A,black,man,,,,null,,,,
null,"<img src=""stim_listA/talk2.gif""style=""height:400px;""></stim_listA>",,html-keyboard-response,303,1743065,0.0-17.0-1.19,77778,List1A,black,man,,,,null,,,,
null,are talking to each other,,html-keyboard-response,304,1745067,0.0-17.0-2.19,77778,List1A,black,man,,,,null,,,,
9761,,,survey-text,305,1754830,0.0-17.0-3.19,77778,List1A,black,man,,,,,"{""Q0"":""Beth is talking to Mike""}","<img src=""stim_listA/talk2.gif""style=""height:400px;""></stim_listA>",are talking to each other,
143035,"<img src='img/portrait_matrix_list1.jpg' style='width:900px;height:500px;''></img><p>If you have memorised all the portraits and names and are ready to start, press Continue.</p><p><strong>Please note: Your memory of these faces will be tested 4 times during this experiment.</strong></p>",0,html-button-response,306,1897866,0.0-18.0-0.0,77778,List1A,black,man,,,,,,,,
4717,"<img src=""portrait/BW1.jpg""style=""height:400px;""></img>",0,html-button-response,307,1903586,0.0-18.0-1.0,77778,List1A,black,man,,TRUE,0,,,,,
null,CORRECT,,html-keyboard-response,308,1905089,0.0-18.0-2.0-0.0,77778,List1A,black,man,,,,null,,,,
5231,"<img src=""portrait/WW1.jpg""style=""height:400px;""></img>",1,html-button-response,309,1910322,0.0-18.0-4.0,77778,List1A,black,man,,TRUE,1,,,,,
null,CORRECT,,html-keyboard-response,310,1911825,0.0-18.0-5.0-0.0,77778,List1A,black,man,,,,null,,,,
5599,"<img src=""portrait/BM1.jpg""style=""height:400px;""></img>",4,html-button-response,311,1917426,0.0-18.0-7.0,77778,List1A,black,man,,TRUE,4,,,,,
null,CORRECT,,html-keyboard-response,312,1918930,0.0-18.0-8.0-0.0,77778,List1A,black,man,,,,null,,,,
1886,"<img src=""portrait/BW2.jpg""style=""height:400px;""></img>",2,html-button-response,313,1920818,0.0-18.0-10.0,77778,List1A,black,man,,TRUE,2,,,,,
null,CORRECT,,html-keyboard-response,314,1922321,0.0-18.0-11.0-0.0,77778,List1A,black,man,,,,null,,,,
3879,"<img src=""portrait/WM2.jpg""style=""height:400px;""></img>",7,html-button-response,315,1926203,0.0-18.0-13.0,77778,List1A,black,man,,TRUE,7,,,,,
null,CORRECT,,html-keyboard-response,316,1927705,0.0-18.0-14.0-0.0,77778,List1A,black,man,,,,null,,,,
1600,"<img src=""portrait/WW2.jpg""style=""height:400px;""></img>",3,html-button-response,317,1929306,0.0-18.0-16.0,77778,List1A,black,man,,TRUE,3,,,,,
null,CORRECT,,html-keyboard-response,318,1930810,0.0-18.0-17.0-0.0,77778,List1A,black,man,,,,null,,,,
2548,"<img src=""portrait/WM1.jpg""style=""height:400px;""></img>",6,html-button-response,319,1933363,0.0-18.0-19.0,77778,List1A,black,man,,TRUE,6,,,,,
null,CORRECT,,html-keyboard-response,320,1934866,0.0-18.0-20.0-0.0,77778,List1A,black,man,,,,null,,,,
2006,"<img src=""portrait/BM2.jpg""style=""height:400px;""></img>",5,html-button-response,321,1936874,0.0-18.0-22.0,77778,List1A,black,man,,TRUE,5,,,,,
null,CORRECT,,html-keyboard-response,322,1938379,0.0-18.0-23.0-0.0,77778,List1A,black,man,,,,null,,,,
9493,<p>You got 8 out of 8 right first time. Press Continue.</p>,0,html-button-response,323,1947874,0.0-18.0-25.0,77778,List1A,black,man,,,,,,,,
null,"<div style=""font-size:60px;"">+</div>",,html-keyboard-response,324,1949379,0.0-19.0-0.0,77778,List1A,black,man,,,,null,,,,
null,"<img src=""stim_listA/argue4.gif""style=""height:400px;""></stim_listA>",,html-keyboard-response,325,1951382,0.0-19.0-1.0,77778,List1A,black,man,,,,null,,,,
null,are arguing with each other,,html-keyboard-response,326,1953385,0.0-19.0-2.0,77778,List1A,black,man,,,,null,,,,
11952,,,survey-text,327,1965338,0.0-19.0-3.0,77778,List1A,black,man,,,,,"{""Q0"":""Jane and Luke are arguing with each other""}","<img src=""stim_listA/argue4.gif""style=""height:400px;""></stim_listA>",are arguing with each other,
null,"<div style=""font-size:60px;"">+</div>",,html-keyboard-response,328,1965840,0.0-19.0-0.1,77778,List1A,black,man,,,,null,,,,
null,"<img src=""stim_listA/marry7.gif""style=""height:400px;""></stim_listA>",,html-keyboard-response,329,1967842,0.0-19.0-1.1,77778,List1A,black,man,,,,null,,,,
null,is marrying,,html-keyboard-response,330,1969844,0.0-19.0-2.1,77778,List1A,black,man,,,,null,,,,
24893,,,survey-text,331,1994738,0.0-19.0-3.1,77778,List1A,black,man,,,,,"{""Q0"":""Ruth is marrying Kate""}","<img src=""stim_listA/marry7.gif""style=""height:400px;""></stim_listA>",is marrying,
null,"<div style=""font-size:60px;"">+</div>",,html-keyboard-response,332,1995240,0.0-19.0-0.2,77778,List1A,black,man,,,,null,,,,
null,"<img src=""stim_listA/talk7.gif""style=""height:400px;""></stim_listA>",,html-keyboard-response,333,1997242,0.0-19.0-1.2,77778,List1A,black,man,,,,null,,,,
null,is talking to,,html-keyboard-response,334,1999244,0.0-19.0-2.2,77778,List1A,black,man,,,,null,,,,
7902,,,survey-text,335,2007149,0.0-19.0-3.2,77778,List1A,black,man,,,,,"{""Q0"":""Beth is talking to Jane""}","<img src=""stim_listA/talk7.gif""style=""height:400px;""></stim_listA>",is talking to,
null,"<div style=""font-size:60px;"">+</div>",,html-keyboard-response,336,2007651,0.0-19.0-0.3,77778,List1A,black,man,,,,null,,,,
null,"<img src=""stim_listA/marry5.gif""style=""height:400px;""></stim_listA>",,html-keyboard-response,337,2009653,0.0-19.0-1.3,77778,List1A,black,man,,,,null,,,,
null,is marrying,,html-keyboard-response,338,2011656,0.0-19.0-2.3,77778,List1A,black,man,,,,null,,,,
8245,,,survey-text,339,2019903,0.0-19.0-3.3,77778,List1A,black,man,,,,,"{""Q0"":""Mike is marrying Luke""}","<img src=""stim_listA/marry5.gif""style=""height:400px;""></stim_listA>",is marrying,
null,"<div style=""font-size:60px;"">+</div>",,html-keyboard-response,340,2020405,0.0-19.0-0.4,77778,List1A,black,man,,,,null,,,,
null,"<img src=""stim_listA/argue3.gif""style=""height:400px;""></stim_listA>",,html-keyboard-response,341,2022407,0.0-19.0-1.4,77778,List1A,black,man,,,,null,,,,
null,is arguing with,,html-keyboard-response,342,2024409,0.0-19.0-2.4,77778,List1A,black,man,,,,null,,,,
6587,,,survey-text,343,2030997,0.0-19.0-3.4,77778,List1A,black,man,,,,,"{""Q0"":""Dave is arguing with Ruth""}","<img src=""stim_listA/argue3.gif""style=""height:400px;""></stim_listA>",is arguing with,
null,"<div style=""font-size:60px;"">+</div>",,html-keyboard-response,344,2031500,0.0-19.0-0.5,77778,List1A,black,man,,,,null,,,,
null,"<img src=""stim_listA/dance3.gif""style=""height:400px;""></stim_listA>",,html-keyboard-response,345,2033504,0.0-19.0-1.5,77778,List1A,black,man,,,,null,,,,
null,is dancing with,,html-keyboard-response,346,2035505,0.0-19.0-2.5,77778,List1A,black,man,,,,null,,,,
6068,,,survey-text,347,2041573,0.0-19.0-3.5,77778,List1A,black,man,,,,,"{""Q0"":""Luke is dancing with Jane""}","<img src=""stim_listA/dance3.gif""style=""height:400px;""></stim_listA>",is dancing with,
null,"<div style=""font-size:60px;"">+</div>",,html-keyboard-response,348,2042076,0.0-19.0-0.6,77778,List1A,black,man,,,,null,,,,
null,"<img src=""stim_listA/kiss6.gif""style=""height:400px;""></stim_listA>",,html-keyboard-response,349,2044080,0.0-19.0-1.6,77778,List1A,black,man,,,,null,,,,
null,are kissing each other,,html-keyboard-response,350,2046083,0.0-19.0-2.6,77778,List1A,black,man,,,,null,,,,
8400,,,survey-text,351,2054485,0.0-19.0-3.6,77778,List1A,black,man,,,,,"{""Q0"":""Dave and Mike are kissing each other""}","<img src=""stim_listA/kiss6.gif""style=""height:400px;""></stim_listA>",are kissing each other,
null,"<div style=""font-size:60px;"">+</div>",,html-keyboard-response,352,2054987,0.0-19.0-0.7,77778,List1A,black,man,,,,null,,,,
null,"<img src=""stim_listA/talk4.gif""style=""height:400px;""></stim_listA>",,html-keyboard-response,353,2056991,0.0-19.0-1.7,77778,List1A,black,man,,,,null,,,,
null,are talking to each other,,html-keyboard-response,354,2058994,0.0-19.0-2.7,77778,List1A,black,man,,,,null,,,,
7876,,,survey-text,355,2066872,0.0-19.0-3.7,77778,List1A,black,man,,,,,"{""Q0"":""Dave and Ruth are talking to each other""}","<img src=""stim_listA/talk4.gif""style=""height:400px;""></stim_listA>",are talking to each other,
null,"<div style=""font-size:60px;"">+</div>",,html-keyboard-response,356,2067373,0.0-19.0-0.8,77778,List1A,black,man,,,,null,,,,
null,"<img src=""stim_listA/dance6.gif""style=""height:400px;""></stim_listA>",,html-keyboard-response,357,2069375,0.0-19.0-1.8,77778,List1A,black,man,,,,null,,,,
null,are dancing with each other,,html-keyboard-response,358,2071377,0.0-19.0-2.8,77778,List1A,black,man,,,,null,,,,
9965,,,survey-text,359,2081343,0.0-19.0-3.8,77778,List1A,black,man,,,,,"{""Q0"":""Mike and Luke are dancing with each other""}","<img src=""stim_listA/dance6.gif""style=""height:400px;""></stim_listA>",are dancing with each other,
null,"<div style=""font-size:60px;"">+</div>",,html-keyboard-response,360,2081845,0.0-19.0-0.9,77778,List1A,black,man,,,,null,,,,
null,"<img src=""stim_listA/fight1.gif""style=""height:400px;""></stim_listA>",,html-keyboard-response,361,2083847,0.0-19.0-1.9,77778,List1A,black,man,,,,null,,,,
null,is fighting,,html-keyboard-response,362,2085849,0.0-19.0-2.9,77778,List1A,black,man,,,,null,,,,
6470,,,survey-text,363,2092320,0.0-19.0-3.9,77778,List1A,black,man,,,,,"{""Q0"":""Mike is fighting Kate""}","<img src=""stim_listA/fight1.gif""style=""height:400px;""></stim_listA>",is fighting,
null,"<div style=""font-size:60px;"">+</div>",,html-keyboard-response,364,2092822,0.0-19.0-0.10,77778,List1A,black,man,,,,null,,,,
null,"<img src=""stim_listA/flirt8.gif""style=""height:400px;""></stim_listA>",,html-keyboard-response,365,2094825,0.0-19.0-1.10,77778,List1A,black,man,,,,null,,,,
null,are flirting with each other,,html-keyboard-response,366,2096828,0.0-19.0-2.10,77778,List1A,black,man,,,,null,,,,
12210,,,survey-text,367,2109040,0.0-19.0-3.10,77778,List1A,black,man,,,,,"{""Q0"":""Kate and Ruth are flirting with each other""}","<img src=""stim_listA/flirt8.gif""style=""height:400px;""></stim_listA>",are flirting with each other,
null,"<div style=""font-size:60px;"">+</div>",,html-keyboard-response,368,2109541,0.0-19.0-0.11,77778,List1A,black,man,,,,null,,,,
null,"<img src=""stim_listA/talk8.gif""style=""height:400px;""></stim_listA>",,html-keyboard-response,369,2111544,0.0-19.0-1.11,77778,List1A,black,man,,,,null,,,,
null,are talking to each other,,html-keyboard-response,370,2113547,0.0-19.0-2.11,77778,List1A,black,man,,,,null,,,,
10739,,,survey-text,371,2124288,0.0-19.0-3.11,77778,List1A,black,man,,,,,"{""Q0"":""Ruth and Kate are talking to each other""}","<img src=""stim_listA/talk8.gif""style=""height:400px;""></stim_listA>",are talking to each other,
null,"<div style=""font-size:60px;"">+</div>",,html-keyboard-response,372,2124790,0.0-19.0-0.12,77778,List1A,black,man,,,,null,,,,
null,"<img src=""stim_listA/kiss5.gif""style=""height:400px;""></stim_listA>",,html-keyboard-response,373,2126798,0.0-19.0-1.12,77778,List1A,black,man,,,,null,,,,
null,is kissing,,html-keyboard-response,374,2128801,0.0-19.0-2.12,77778,List1A,black,man,,,,null,,,,
11721,,,survey-text,375,2140523,0.0-19.0-3.12,77778,List1A,black,man,,,,,"{""Q0"":""Fred is kissing luke""}","<img src=""stim_listA/kiss5.gif""style=""height:400px;""></stim_listA>",is kissing,
null,"<div style=""font-size:60px;"">+</div>",,html-keyboard-response,376,2141025,0.0-19.0-0.13,77778,List1A,black,man,,,,null,,,,
null,"<img src=""stim_listA/flirt2.gif""style=""height:400px;""></stim_listA>",,html-keyboard-response,377,2143029,0.0-19.0-1.13,77778,List1A,black,man,,,,null,,,,
null,are flirting with each other,,html-keyboard-response,378,2145031,0.0-19.0-2.13,77778,List1A,black,man,,,,null,,,,
9475,,,survey-text,379,2154507,0.0-19.0-3.13,77778,List1A,black,man,,,,,"{""Q0"":""Beth and Mike are flirting with each other""}","<img src=""stim_listA/flirt2.gif""style=""height:400px;""></stim_listA>",are flirting with each other,
null,"<div style=""font-size:60px;"">+</div>",,html-keyboard-response,380,2155008,0.0-19.0-0.14,77778,List1A,black,man,,,,null,,,,
null,"<img src=""stim_listA/touch5.gif""style=""height:400px;""></stim_listA>",,html-keyboard-response,381,2157012,0.0-19.0-1.14,77778,List1A,black,man,,,,null,,,,
null,is touching,,html-keyboard-response,382,2159014,0.0-19.0-2.14,77778,List1A,black,man,,,,null,,,,
11237,,,survey-text,383,2170252,0.0-19.0-3.14,77778,List1A,black,man,,,,,"{""Q0"":""Dave is touching Mike""}","<img src=""stim_listA/touch5.gif""style=""height:400px;""></stim_listA>",is touching,
null,"<div style=""font-size:60px;"">+</div>",,html-keyboard-response,384,2170755,0.0-19.0-0.15,77778,List1A,black,man,,,,null,,,,
null,"<img src=""stim_listA/talk6.gif""style=""height:400px;""></stim_listA>",,html-keyboard-response,385,2172758,0.0-19.0-1.15,77778,List1A,black,man,,,,null,,,,
null,are talking to each other,,html-keyboard-response,386,2174760,0.0-19.0-2.15,77778,List1A,black,man,,,,null,,,,
14404,,,survey-text,387,2189166,0.0-19.0-3.15,77778,List1A,black,man,,,,,"{""Q0"":""Mike and Luke are talking to each other""}","<img src=""stim_listA/talk6.gif""style=""height:400px;""></stim_listA>",are talking to each other,
null,"<div style=""font-size:60px;"">+</div>",,html-keyboard-response,388,2189667,0.0-19.0-0.16,77778,List1A,black,man,,,,null,,,,
null,"<img src=""stim_listA/touch6.gif""style=""height:400px;""></stim_listA>",,html-keyboard-response,389,2191671,0.0-19.0-1.16,77778,List1A,black,man,,,,null,,,,
null,are touching each other,,html-keyboard-response,390,2193673,0.0-19.0-2.16,77778,List1A,black,man,,,,null,,,,
7220,,,survey-text,391,2200894,0.0-19.0-3.16,77778,List1A,black,man,,,,,"{""Q0"":""Luke and Fred are touching each other""}","<img src=""stim_listA/touch6.gif""style=""height:400px;""></stim_listA>",are touching each other,
null,"<div style=""font-size:60px;"">+</div>",,html-keyboard-response,392,2201394,0.0-19.0-0.17,77778,List1A,black,man,,,,null,,,,
null,"<img src=""stim_listA/shout1.gif""style=""height:400px;""></stim_listA>",,html-keyboard-response,393,2203396,0.0-19.0-1.17,77778,List1A,black,man,,,,null,,,,
null,is shouting at,,html-keyboard-response,394,2205397,0.0-19.0-2.17,77778,List1A,black,man,,,,null,,,,
5848,,,survey-text,395,2211246,0.0-19.0-3.17,77778,List1A,black,man,,,,,"{""Q0"":""Fred is shouting at Beth""}","<img src=""stim_listA/shout1.gif""style=""height:400px;""></stim_listA>",is shouting at,
null,"<div style=""font-size:60px;"">+</div>",,html-keyboard-response,396,2211750,0.0-19.0-0.18,77778,List1A,black,man,,,,null,,,,
null,"<img src=""stim_listA/play2.gif""style=""height:400px;""></stim_listA>",,html-keyboard-response,397,2213752,0.0-19.0-1.18,77778,List1A,black,man,,,,null,,,,
null,are playing with each other,,html-keyboard-response,398,2215753,0.0-19.0-2.18,77778,List1A,black,man,,,,null,,,,
7938,,,survey-text,399,2223694,0.0-19.0-3.18,77778,List1A,black,man,,,,,"{""Q0"":""Fred and Beth are playing with each other""}","<img src=""stim_listA/play2.gif""style=""height:400px;""></stim_listA>",are playing with each other,
null,"<div style=""font-size:60px;"">+</div>",,html-keyboard-response,400,2224196,0.0-19.0-0.19,77778,List1A,black,man,,,,null,,,,
null,"<img src=""stim_listA/kiss8.gif""style=""height:400px;""></stim_listA>",,html-keyboard-response,401,2226199,0.0-19.0-1.19,77778,List1A,black,man,,,,null,,,,
null,are kissing each other,,html-keyboard-response,402,2228202,0.0-19.0-2.19,77778,List1A,black,man,,,,null,,,,
7313,,,survey-text,403,2235518,0.0-19.0-3.19,77778,List1A,black,man,,,,,"{""Q0"":""Jane and Kate are kissing each other""}","<img src=""stim_listA/kiss8.gif""style=""height:400px;""></stim_listA>",are kissing each other,
2983,<p>Thank you for completing that task.</p><p>The final part of this session is a short questionnaire.</p><p>Press Continue.</p>,0,html-button-response,404,2238502,0.0-20.0,77778,List1A,black,man,,,,,,,,
15608,,,survey-text,405,2255113,0.0-21.0,77778,List1A,black,man,,,,,"{""Q0"":""41"",""Q1"":""english"",""Q2"":""english"",""Q3"":""USA"",""Q4"":""black"",""Q5"":""male""}",,,demographics
7661,,,survey-likert,406,2262777,0.0-22.0,77778,List1A,black,man,,,,,"{""Q0"":4}",,,likert_ESS
4091,,,survey-likert,407,2266880,0.0-23.0,77778,List1A,black,man,,,,,"{""Q0"":4}",,,likert_NSSAL_Q1
2661,,,survey-likert,408,2269561,0.0-24.0,77778,List1A,black,man,,,,,"{""Q0"":4}",,,likert_NSSAL_Q2
3420,,,survey-likert,409,2273001,0.0-25.0,77778,List1A,black,man,,,,,"{""Q0"":4}",,,likert_CGRS_Q1
3148,,,survey-likert,410,2276168,0.0-26.0,77778,List1A,black,man,,,,,"{""Q0"":4}",,,likert_CGRS_Q2
2492,,,survey-likert,411,2278673,0.0-27.0,77778,List1A,black,man,,,,,"{""Q0"":4}",,,likert_CGRS_Q3
3963,,,survey-text,412,2282657,0.0-28.0,77778,List1A,black,man,,,,,"{""Q0"":""ccc""}",,,worker_id
24191,,,external-html,413,2307075,0.0-29.0,77778,List1A,black,man,debrief.html,,,,,,,
