rt,stimulus,button_pressed,trial_type,trial_index,time_elapsed,internal_node_id,subject,list,ppt_race,ppt_gender,url,first_guess,correct,key_press,responses,image_type,phrase_type,test_part
3030,Welcome to the experiment. Press Continue to begin.,0,html-button-response,0,3035,0.0-0.0,78021,List1B,black,woman,,,,,,,,
66121,,,external-html,1,70226,0.0-1.0,78021,List1B,black,woman,consent.html,,,,,,,
15861,"<p>On the next page, you will see portraits of 8 people and their names.</p><p>Your first task is to take a few minutes to memorise the names of these people.</p><p>You will have to recall their names during the rest of the experiment, so it is</p><p>essential that you try to memorise these people and their names as best as you can.</p><br><p><strong>You will then be tested on your memory of these names and portraits.</strong></p><br><p>The experiment will start after you have completed this memory test.</p><br><p>Ready?</p>",0,html-button-response,2,86090,0.0-2.0,78021,List1B,black,woman,,,,,,,,
44546,"<img src='img/portrait_matrix_list1.jpg' style='width:900px;height:500px;''></img><p>If you have memorised all the portraits and names and are ready to start, press Continue.</p><p><strong>Please note: Your memory of these faces will be tested 4 times during this experiment.</strong></p>",0,html-button-response,3,131640,0.0-3.0-0.0,78021,List1B,black,woman,,,,,,,,
14206,"<img src=""portrait/BW2.jpg""style=""height:400px;""></img>",1,html-button-response,4,146851,0.0-3.0-1.0,78021,List1B,black,woman,,TRUE,2,,,,,
5019,"<img src=""portrait/BW2.jpg""style=""height:400px;""></img>",2,html-button-response,5,152877,0.0-3.0-3.0-0.0,78021,List1B,black,woman,,FALSE,2,,,,,
null,CORRECT,,html-keyboard-response,6,154383,0.0-3.0-3.0-1.0-0.0,78021,List1B,black,woman,,,,null,,,,
4092,"<img src=""portrait/WM2.jpg""style=""height:400px;""></img>",7,html-button-response,7,158480,0.0-3.0-4.0,78021,List1B,black,woman,,TRUE,7,,,,,
null,CORRECT,,html-keyboard-response,8,159983,0.0-3.0-5.0-0.0,78021,List1B,black,woman,,,,null,,,,
3191,"<img src=""portrait/WM1.jpg""style=""height:400px;""></img>",6,html-button-response,9,163177,0.0-3.0-7.0,78021,List1B,black,woman,,TRUE,6,,,,,
null,CORRECT,,html-keyboard-response,10,164681,0.0-3.0-8.0-0.0,78021,List1B,black,woman,,,,null,,,,
3009,"<img src=""portrait/BW1.jpg""style=""height:400px;""></img>",0,html-button-response,11,167692,0.0-3.0-10.0,78021,List1B,black,woman,,TRUE,0,,,,,
null,CORRECT,,html-keyboard-response,12,169195,0.0-3.0-11.0-0.0,78021,List1B,black,woman,,,,null,,,,
2543,"<img src=""portrait/WW1.jpg""style=""height:400px;""></img>",1,html-button-response,13,171742,0.0-3.0-13.0,78021,List1B,black,woman,,TRUE,1,,,,,
null,CORRECT,,html-keyboard-response,14,173244,0.0-3.0-14.0-0.0,78021,List1B,black,woman,,,,null,,,,
4480,"<img src=""portrait/BM2.jpg""style=""height:400px;""></img>",4,html-button-response,15,177727,0.0-3.0-16.0,78021,List1B,black,woman,,TRUE,5,,,,,
3255,"<img src=""portrait/BM2.jpg""style=""height:400px;""></img>",5,html-button-response,16,181986,0.0-3.0-18.0-0.0,78021,List1B,black,woman,,FALSE,5,,,,,
null,CORRECT,,html-keyboard-response,17,183490,0.0-3.0-18.0-1.0-0.0,78021,List1B,black,woman,,,,null,,,,
1961,"<img src=""portrait/BM1.jpg""style=""height:400px;""></img>",4,html-button-response,18,185453,0.0-3.0-19.0,78021,List1B,black,woman,,TRUE,4,,,,,
null,CORRECT,,html-keyboard-response,19,186956,0.0-3.0-20.0-0.0,78021,List1B,black,woman,,,,null,,,,
8137,"<img src=""portrait/WW2.jpg""style=""height:400px;""></img>",3,html-button-response,20,195096,0.0-3.0-22.0,78021,List1B,black,woman,,TRUE,3,,,,,
null,CORRECT,,html-keyboard-response,21,196599,0.0-3.0-23.0-0.0,78021,List1B,black,woman,,,,null,,,,
3096,<p>You got 6 out of 8 right first time. Press Continue.</p>,0,html-button-response,22,199698,0.0-3.0-25.0,78021,List1B,black,woman,,,,,,,,
4183,"As you did not score 100%, the memory game will repeat. Press Continue.",0,html-button-response,23,204884,0.0-3.0-26.0-0.0,78021,List1B,black,woman,,,,,,,,
53015,"<img src='img/portrait_matrix_list1.jpg' style='width:900px;height:500px;''></img><p>If you have memorised all the portraits and names and are ready to start, press Continue.</p><p><strong>Please note: Your memory of these faces will be tested 4 times during this experiment.</strong></p>",0,html-button-response,24,258905,0.0-3.1-0.1,78021,List1B,black,woman,,,,,,,,
3599,"<img src=""portrait/BW2.jpg""style=""height:400px;""></img>",2,html-button-response,25,263508,0.0-3.1-1.1,78021,List1B,black,woman,,TRUE,2,,,,,
null,CORRECT,,html-keyboard-response,26,265011,0.0-3.1-2.1-0.1,78021,List1B,black,woman,,,,null,,,,
3531,"<img src=""portrait/WM2.jpg""style=""height:400px;""></img>",7,html-button-response,27,268545,0.0-3.1-4.1,78021,List1B,black,woman,,TRUE,7,,,,,
null,CORRECT,,html-keyboard-response,28,270048,0.0-3.1-5.1-0.1,78021,List1B,black,woman,,,,null,,,,
2862,"<img src=""portrait/WM1.jpg""style=""height:400px;""></img>",6,html-button-response,29,272912,0.0-3.1-7.1,78021,List1B,black,woman,,TRUE,6,,,,,
null,CORRECT,,html-keyboard-response,30,274416,0.0-3.1-8.1-0.1,78021,List1B,black,woman,,,,null,,,,
2346,"<img src=""portrait/BW1.jpg""style=""height:400px;""></img>",0,html-button-response,31,276765,0.0-3.1-10.1,78021,List1B,black,woman,,TRUE,0,,,,,
null,CORRECT,,html-keyboard-response,32,278268,0.0-3.1-11.1-0.1,78021,List1B,black,woman,,,,null,,,,
1884,"<img src=""portrait/WW1.jpg""style=""height:400px;""></img>",1,html-button-response,33,280154,0.0-3.1-13.1,78021,List1B,black,woman,,TRUE,1,,,,,
null,CORRECT,,html-keyboard-response,34,281656,0.0-3.1-14.1-0.1,78021,List1B,black,woman,,,,null,,,,
2576,"<img src=""portrait/BM2.jpg""style=""height:400px;""></img>",5,html-button-response,35,284234,0.0-3.1-16.1,78021,List1B,black,woman,,TRUE,5,,,,,
null,CORRECT,,html-keyboard-response,36,285738,0.0-3.1-17.1-0.1,78021,List1B,black,woman,,,,null,,,,
2297,"<img src=""portrait/BM1.jpg""style=""height:400px;""></img>",4,html-button-response,37,288038,0.0-3.1-19.1,78021,List1B,black,woman,,TRUE,4,,,,,
null,CORRECT,,html-keyboard-response,38,289542,0.0-3.1-20.1-0.1,78021,List1B,black,woman,,,,null,,,,
1558,"<img src=""portrait/WW2.jpg""style=""height:400px;""></img>",3,html-button-response,39,291103,0.0-3.1-22.1,78021,List1B,black,woman,,TRUE,3,,,,,
null,CORRECT,,html-keyboard-response,40,292606,0.0-3.1-23.1-0.1,78021,List1B,black,woman,,,,null,,,,
3055,<p>You got 8 out of 8 right first time. Press Continue.</p>,0,html-button-response,41,295663,0.0-3.1-25.1,78021,List1B,black,woman,,,,,,,,
55470,"<p>In this experiment, you will view photographs of the people from the memory game interacting.</p><p>By using the <strong>exact</strong> phrase given <i>after</i> the photograph appears and recalling the correct names of the people in the photographs, form a sentence describing the interaction. You do not need to capitalise names.</p><p>Type your answer in the space provided. Please complete every sentence before moving onto the next trial.</p><p>You will only have a few seconds to memorise each given photograph and phrase before you can respond, so try your best to focus.</p><p>An example is given below. Press 'Continue' when you are ready.</p><img src='img/speaking_example.jpg' style='width:800px;height:460px;''></img>",0,html-button-response,42,352137,0.0-4.0,78021,List1B,black,woman,,,,,,,,
3459,"<p>Before the experiment starts, you will watch two example trials. Press 'Continue'.</p>",0,html-button-response,43,356599,0.0-5.0,78021,List1B,black,woman,,,,,,,,
null,<img src='img/meet_eg.gif' style='height:400px;''></img>,,html-keyboard-response,44,359603,0.0-6.0,78021,List1B,black,woman,,,,null,,,,
null,<p>is meeting</p>,,html-keyboard-response,45,361605,0.0-7.0,78021,List1B,black,woman,,,,null,,,,
8336,<p><b>Answer:</b> kate is meeting beth</p>,0,html-button-response,46,369942,0.0-8.0,78021,List1B,black,woman,,,,,,,,
null,<img src='img/look_eg.gif' style='height:400px;''></img>,,html-keyboard-response,47,372947,0.0-9.0,78021,List1B,black,woman,,,,null,,,,
null,<p>are looking at each other</p>,,html-keyboard-response,48,374949,0.0-10.0,78021,List1B,black,woman,,,,null,,,,
2337,<p><b>Answer:</b> luke and dave are looking at each other</p>,0,html-button-response,49,377288,0.0-11.0,78021,List1B,black,woman,,,,,,,,
16598,"<p>Ready to start the experiment?</p><br><p><strong>Remember to describe the picture using a full sentence,</strong></p><p><strong>that combines the names of the people with the <i>exact</i> phrase given.</strong></p><p><strong>To receive full payment you must do this correctly.</strong></p><p><strong> You do not need to capitalise names or use punctuation.</strong></p><br><p>Press 'Continue' to begin.</p>",0,html-button-response,50,394890,0.0-12.0,78021,List1B,black,woman,,,,,,,,
null,"<div style=""font-size:60px;"">+</div>",,html-keyboard-response,51,396393,0.0-13.0-0.0,78021,List1B,black,woman,,,,null,,,,
null,"<img src=""stim_listB/marry5.gif""style=""height:400px;""></stim_listB>",,html-keyboard-response,52,398397,0.0-13.0-1.0,78021,List1B,black,woman,,,,null,,,,
null,is marrying,,html-keyboard-response,53,400400,0.0-13.0-2.0,78021,List1B,black,woman,,,,null,,,,
11660,,,survey-text,54,412062,0.0-13.0-3.0,78021,List1B,black,woman,,,,,"{""Q0"":""Luke is marring Mike""}","<img src=""stim_listB/marry5.gif""style=""height:400px;""></stim_listB>",is marrying,
null,"<div style=""font-size:60px;"">+</div>",,html-keyboard-response,55,412565,0.0-13.0-0.1,78021,List1B,black,woman,,,,null,,,,
null,"<img src=""stim_listB/marry3.gif""style=""height:400px;""></stim_listB>",,html-keyboard-response,56,414567,0.0-13.0-1.1,78021,List1B,black,woman,,,,null,,,,
null,is marrying,,html-keyboard-response,57,416569,0.0-13.0-2.1,78021,List1B,black,woman,,,,null,,,,
9135,,,survey-text,58,425706,0.0-13.0-3.1,78021,List1B,black,woman,,,,,"{""Q0"":""Dave is marrying Ruth""}","<img src=""stim_listB/marry3.gif""style=""height:400px;""></stim_listB>",is marrying,
null,"<div style=""font-size:60px;"">+</div>",,html-keyboard-response,59,426212,0.0-13.0-0.2,78021,List1B,black,woman,,,,null,,,,
null,"<img src=""stim_listB/marry2.gif""style=""height:400px;""></stim_listB>",,html-keyboard-response,60,428215,0.0-13.0-1.2,78021,List1B,black,woman,,,,null,,,,
null,are marrying each other,,html-keyboard-response,61,430218,0.0-13.0-2.2,78021,List1B,black,woman,,,,null,,,,
15850,,,survey-text,62,446069,0.0-13.0-3.2,78021,List1B,black,woman,,,,,"{""Q0"":""Kate and Fred are marrying each other""}","<img src=""stim_listB/marry2.gif""style=""height:400px;""></stim_listB>",are marrying each other,
null,"<div style=""font-size:60px;"">+</div>",,html-keyboard-response,63,446571,0.0-13.0-0.3,78021,List1B,black,woman,,,,null,,,,
null,"<img src=""stim_listB/argue6.gif""style=""height:400px;""></stim_listB>",,html-keyboard-response,64,448574,0.0-13.0-1.3,78021,List1B,black,woman,,,,null,,,,
null,are arguing with each other,,html-keyboard-response,65,450577,0.0-13.0-2.3,78021,List1B,black,woman,,,,null,,,,
15241,,,survey-text,66,465820,0.0-13.0-3.3,78021,List1B,black,woman,,,,,"{""Q0"":""Fred and Dave are arguing with each other""}","<img src=""stim_listB/argue6.gif""style=""height:400px;""></stim_listB>",are arguing with each other,
null,"<div style=""font-size:60px;"">+</div>",,html-keyboard-response,67,466322,0.0-13.0-0.4,78021,List1B,black,woman,,,,null,,,,
null,"<img src=""stim_listB/fight3.gif""style=""height:400px;""></stim_listB>",,html-keyboard-response,68,468325,0.0-13.0-1.4,78021,List1B,black,woman,,,,null,,,,
null,is fighting,,html-keyboard-response,69,470327,0.0-13.0-2.4,78021,List1B,black,woman,,,,null,,,,
11786,,,survey-text,70,482115,0.0-13.0-3.4,78021,List1B,black,woman,,,,,"{""Q0"":""Dave and Jane are fighting each other""}","<img src=""stim_listB/fight3.gif""style=""height:400px;""></stim_listB>",is fighting,
null,"<div style=""font-size:60px;"">+</div>",,html-keyboard-response,71,482623,0.0-13.0-0.5,78021,List1B,black,woman,,,,null,,,,
null,"<img src=""stim_listB/flirt5.gif""style=""height:400px;""></stim_listB>",,html-keyboard-response,72,484624,0.0-13.0-1.5,78021,List1B,black,woman,,,,null,,,,
null,is flirting with,,html-keyboard-response,73,486626,0.0-13.0-2.5,78021,List1B,black,woman,,,,null,,,,
10627,,,survey-text,74,497255,0.0-13.0-3.5,78021,List1B,black,woman,,,,,"{""Q0"":""Fred is flirting with Dave""}","<img src=""stim_listB/flirt5.gif""style=""height:400px;""></stim_listB>",is flirting with,
null,"<div style=""font-size:60px;"">+</div>",,html-keyboard-response,75,497757,0.0-13.0-0.6,78021,List1B,black,woman,,,,null,,,,
null,"<img src=""stim_listB/shout3.gif""style=""height:400px;""></stim_listB>",,html-keyboard-response,76,499760,0.0-13.0-1.6,78021,List1B,black,woman,,,,null,,,,
null,is shouting at,,html-keyboard-response,77,501763,0.0-13.0-2.6,78021,List1B,black,woman,,,,null,,,,
20415,,,survey-text,78,522180,0.0-13.0-3.6,78021,List1B,black,woman,,,,,"{""Q0"":""Ruth is shouting at Luke""}","<img src=""stim_listB/shout3.gif""style=""height:400px;""></stim_listB>",is shouting at,
null,"<div style=""font-size:60px;"">+</div>",,html-keyboard-response,79,522682,0.0-13.0-0.7,78021,List1B,black,woman,,,,null,,,,
null,"<img src=""stim_listB/play7.gif""style=""height:400px;""></stim_listB>",,html-keyboard-response,80,524685,0.0-13.0-1.7,78021,List1B,black,woman,,,,null,,,,
null,is playing with,,html-keyboard-response,81,526687,0.0-13.0-2.7,78021,List1B,black,woman,,,,null,,,,
10533,,,survey-text,82,537221,0.0-13.0-3.7,78021,List1B,black,woman,,,,,"{""Q0"":""Kate is playing with Jane""}","<img src=""stim_listB/play7.gif""style=""height:400px;""></stim_listB>",is playing with,
null,"<div style=""font-size:60px;"">+</div>",,html-keyboard-response,83,537724,0.0-13.0-0.8,78021,List1B,black,woman,,,,null,,,,
null,"<img src=""stim_listB/shout5.gif""style=""height:400px;""></stim_listB>",,html-keyboard-response,84,539726,0.0-13.0-1.8,78021,List1B,black,woman,,,,null,,,,
null,is shouting at,,html-keyboard-response,85,541728,0.0-13.0-2.8,78021,List1B,black,woman,,,,null,,,,
9297,,,survey-text,86,551027,0.0-13.0-3.8,78021,List1B,black,woman,,,,,"{""Q0"":""Fred is shouting at Luke""}","<img src=""stim_listB/shout5.gif""style=""height:400px;""></stim_listB>",is shouting at,
null,"<div style=""font-size:60px;"">+</div>",,html-keyboard-response,87,551530,0.0-13.0-0.9,78021,List1B,black,woman,,,,null,,,,
null,"<img src=""stim_listB/shout8.gif""style=""height:400px;""></stim_listB>",,html-keyboard-response,88,553534,0.0-13.0-1.9,78021,List1B,black,woman,,,,null,,,,
null,are shouting at each other,,html-keyboard-response,89,555543,0.0-13.0-2.9,78021,List1B,black,woman,,,,null,,,,
14187,,,survey-text,90,569732,0.0-13.0-3.9,78021,List1B,black,woman,,,,,"{""Q0"":""Kate is shouting at Jane""}","<img src=""stim_listB/shout8.gif""style=""height:400px;""></stim_listB>",are shouting at each other,
null,"<div style=""font-size:60px;"">+</div>",,html-keyboard-response,91,570234,0.0-13.0-0.10,78021,List1B,black,woman,,,,null,,,,
null,"<img src=""stim_listB/kiss4.gif""style=""height:400px;""></stim_listB>",,html-keyboard-response,92,572237,0.0-13.0-1.10,78021,List1B,black,woman,,,,null,,,,
null,are kissing each other,,html-keyboard-response,93,574240,0.0-13.0-2.10,78021,List1B,black,woman,,,,null,,,,
12868,,,survey-text,94,587110,0.0-13.0-3.10,78021,List1B,black,woman,,,,,"{""Q0"":""Dave and Jane are kissing each other""}","<img src=""stim_listB/kiss4.gif""style=""height:400px;""></stim_listB>",are kissing each other,
null,"<div style=""font-size:60px;"">+</div>",,html-keyboard-response,95,587627,0.0-13.0-0.11,78021,List1B,black,woman,,,,null,,,,
null,"<img src=""stim_listB/kiss5.gif""style=""height:400px;""></stim_listB>",,html-keyboard-response,96,589630,0.0-13.0-1.11,78021,List1B,black,woman,,,,null,,,,
null,is kissing,,html-keyboard-response,97,591632,0.0-13.0-2.11,78021,List1B,black,woman,,,,null,,,,
11653,,,survey-text,98,603287,0.0-13.0-3.11,78021,List1B,black,woman,,,,,"{""Q0"":""Fred is kissing Luke""}","<img src=""stim_listB/kiss5.gif""style=""height:400px;""></stim_listB>",is kissing,
null,"<div style=""font-size:60px;"">+</div>",,html-keyboard-response,99,603790,0.0-13.0-0.12,78021,List1B,black,woman,,,,null,,,,
null,"<img src=""stim_listB/argue2.gif""style=""height:400px;""></stim_listB>",,html-keyboard-response,100,605793,0.0-13.0-1.12,78021,List1B,black,woman,,,,null,,,,
null,are arguing with each other,,html-keyboard-response,101,607794,0.0-13.0-2.12,78021,List1B,black,woman,,,,null,,,,
16783,,,survey-text,102,624579,0.0-13.0-3.12,78021,List1B,black,woman,,,,,"{""Q0"":""Fred and Kate are arguing with each other""}","<img src=""stim_listB/argue2.gif""style=""height:400px;""></stim_listB>",are arguing with each other,
null,"<div style=""font-size:60px;"">+</div>",,html-keyboard-response,103,625081,0.0-13.0-0.13,78021,List1B,black,woman,,,,null,,,,
null,"<img src=""stim_listB/play2.gif""style=""height:400px;""></stim_listB>",,html-keyboard-response,104,627083,0.0-13.0-1.13,78021,List1B,black,woman,,,,null,,,,
null,are playing with each other,,html-keyboard-response,105,629085,0.0-13.0-2.13,78021,List1B,black,woman,,,,null,,,,
14296,,,survey-text,106,643383,0.0-13.0-3.13,78021,List1B,black,woman,,,,,"{""Q0"":""Fred and Beth are playing with each other""}","<img src=""stim_listB/play2.gif""style=""height:400px;""></stim_listB>",are playing with each other,
null,"<div style=""font-size:60px;"">+</div>",,html-keyboard-response,107,643885,0.0-13.0-0.14,78021,List1B,black,woman,,,,null,,,,
null,"<img src=""stim_listB/talk3.gif""style=""height:400px;""></stim_listB>",,html-keyboard-response,108,645891,0.0-13.0-1.14,78021,List1B,black,woman,,,,null,,,,
null,is talking to,,html-keyboard-response,109,647894,0.0-13.0-2.14,78021,List1B,black,woman,,,,null,,,,
13370,,,survey-text,110,661265,0.0-13.0-3.14,78021,List1B,black,woman,,,,,"{""Q0"":""Jane is talking to Luke""}","<img src=""stim_listB/talk3.gif""style=""height:400px;""></stim_listB>",is talking to,
null,"<div style=""font-size:60px;"">+</div>",,html-keyboard-response,111,661767,0.0-13.0-0.15,78021,List1B,black,woman,,,,null,,,,
null,"<img src=""stim_listB/kiss2.gif""style=""height:400px;""></stim_listB>",,html-keyboard-response,112,663771,0.0-13.0-1.15,78021,List1B,black,woman,,,,null,,,,
null,are kissing each other,,html-keyboard-response,113,665773,0.0-13.0-2.15,78021,List1B,black,woman,,,,null,,,,
14340,,,survey-text,114,680115,0.0-13.0-3.15,78021,List1B,black,woman,,,,,"{""Q0"":""Mike and Kate are kissing each other""}","<img src=""stim_listB/kiss2.gif""style=""height:400px;""></stim_listB>",are kissing each other,
null,"<div style=""font-size:60px;"">+</div>",,html-keyboard-response,115,680617,0.0-13.0-0.16,78021,List1B,black,woman,,,,null,,,,
null,"<img src=""stim_listB/touch4.gif""style=""height:400px;""></stim_listB>",,html-keyboard-response,116,682620,0.0-13.0-1.16,78021,List1B,black,woman,,,,null,,,,
null,are touching each other,,html-keyboard-response,117,684622,0.0-13.0-2.16,78021,List1B,black,woman,,,,null,,,,
10678,,,survey-text,118,695303,0.0-13.0-3.16,78021,List1B,black,woman,,,,,"{""Q0"":""Luke and Ruth are touching each other""}","<img src=""stim_listB/touch4.gif""style=""height:400px;""></stim_listB>",are touching each other,
null,"<div style=""font-size:60px;"">+</div>",,html-keyboard-response,119,695805,0.0-13.0-0.17,78021,List1B,black,woman,,,,null,,,,
null,"<img src=""stim_listB/shout7.gif""style=""height:400px;""></stim_listB>",,html-keyboard-response,120,697809,0.0-13.0-1.17,78021,List1B,black,woman,,,,null,,,,
null,is shouting at,,html-keyboard-response,121,699821,0.0-13.0-2.17,78021,List1B,black,woman,,,,null,,,,
8788,,,survey-text,122,708610,0.0-13.0-3.17,78021,List1B,black,woman,,,,,"{""Q0"":""Ruth is shouting at Beth""}","<img src=""stim_listB/shout7.gif""style=""height:400px;""></stim_listB>",is shouting at,
null,"<div style=""font-size:60px;"">+</div>",,html-keyboard-response,123,709112,0.0-13.0-0.18,78021,List1B,black,woman,,,,null,,,,
null,"<img src=""stim_listB/marry6.gif""style=""height:400px;""></stim_listB>",,html-keyboard-response,124,711116,0.0-13.0-1.18,78021,List1B,black,woman,,,,null,,,,
null,are marrying each other,,html-keyboard-response,125,713118,0.0-13.0-2.18,78021,List1B,black,woman,,,,null,,,,
13876,,,survey-text,126,726995,0.0-13.0-3.18,78021,List1B,black,woman,,,,,"{""Q0"":""Fred and Dave are marring each other""}","<img src=""stim_listB/marry6.gif""style=""height:400px;""></stim_listB>",are marrying each other,
null,"<div style=""font-size:60px;"">+</div>",,html-keyboard-response,127,727497,0.0-13.0-0.19,78021,List1B,black,woman,,,,null,,,,
null,"<img src=""stim_listB/dance2.gif""style=""height:400px;""></stim_listB>",,html-keyboard-response,128,729501,0.0-13.0-1.19,78021,List1B,black,woman,,,,null,,,,
null,are dancing with each other,,html-keyboard-response,129,731502,0.0-13.0-2.19,78021,List1B,black,woman,,,,null,,,,
13965,,,survey-text,130,745470,0.0-13.0-3.19,78021,List1B,black,woman,,,,,"{""Q0"":""beth and mike are dancing with each other""}","<img src=""stim_listB/dance2.gif""style=""height:400px;""></stim_listB>",are dancing with each other,
9805,"<img src='img/portrait_matrix_list1.jpg' style='width:900px;height:500px;''></img><p>If you have memorised all the portraits and names and are ready to start, press Continue.</p><p><strong>Please note: Your memory of these faces will be tested 4 times during this experiment.</strong></p>",0,html-button-response,131,755277,0.0-14.0-0.0,78021,List1B,black,woman,,,,,,,,
2455,"<img src=""portrait/BM1.jpg""style=""height:400px;""></img>",4,html-button-response,132,758735,0.0-14.0-1.0,78021,List1B,black,woman,,TRUE,4,,,,,
null,CORRECT,,html-keyboard-response,133,760238,0.0-14.0-2.0-0.0,78021,List1B,black,woman,,,,null,,,,
3624,"<img src=""portrait/BM2.jpg""style=""height:400px;""></img>",5,html-button-response,134,763865,0.0-14.0-4.0,78021,List1B,black,woman,,TRUE,5,,,,,
null,CORRECT,,html-keyboard-response,135,765369,0.0-14.0-5.0-0.0,78021,List1B,black,woman,,,,null,,,,
2816,"<img src=""portrait/BW1.jpg""style=""height:400px;""></img>",0,html-button-response,136,768187,0.0-14.0-7.0,78021,List1B,black,woman,,TRUE,0,,,,,
null,CORRECT,,html-keyboard-response,137,769690,0.0-14.0-8.0-0.0,78021,List1B,black,woman,,,,null,,,,
3577,"<img src=""portrait/BW2.jpg""style=""height:400px;""></img>",2,html-button-response,138,773270,0.0-14.0-10.0,78021,List1B,black,woman,,TRUE,2,,,,,
null,CORRECT,,html-keyboard-response,139,774774,0.0-14.0-11.0-0.0,78021,List1B,black,woman,,,,null,,,,
1720,"<img src=""portrait/WW1.jpg""style=""height:400px;""></img>",1,html-button-response,140,776496,0.0-14.0-13.0,78021,List1B,black,woman,,TRUE,1,,,,,
null,CORRECT,,html-keyboard-response,141,778000,0.0-14.0-14.0-0.0,78021,List1B,black,woman,,,,null,,,,
1613,"<img src=""portrait/WW2.jpg""style=""height:400px;""></img>",3,html-button-response,142,779615,0.0-14.0-16.0,78021,List1B,black,woman,,TRUE,3,,,,,
null,CORRECT,,html-keyboard-response,143,781117,0.0-14.0-17.0-0.0,78021,List1B,black,woman,,,,null,,,,
2045,"<img src=""portrait/WM2.jpg""style=""height:400px;""></img>",7,html-button-response,144,783164,0.0-14.0-19.0,78021,List1B,black,woman,,TRUE,7,,,,,
null,CORRECT,,html-keyboard-response,145,784668,0.0-14.0-20.0-0.0,78021,List1B,black,woman,,,,null,,,,
2088,"<img src=""portrait/WM1.jpg""style=""height:400px;""></img>",6,html-button-response,146,786758,0.0-14.0-22.0,78021,List1B,black,woman,,TRUE,6,,,,,
null,CORRECT,,html-keyboard-response,147,788262,0.0-14.0-23.0-0.0,78021,List1B,black,woman,,,,null,,,,
2578,<p>You got 8 out of 8 right first time. Press Continue.</p>,0,html-button-response,148,790842,0.0-14.0-25.0,78021,List1B,black,woman,,,,,,,,
null,"<div style=""font-size:60px;"">+</div>",,html-keyboard-response,149,792345,0.0-15.0-0.0,78021,List1B,black,woman,,,,null,,,,
null,"<img src=""stim_listB/fight6.gif""style=""height:400px;""></stim_listB>",,html-keyboard-response,150,794349,0.0-15.0-1.0,78021,List1B,black,woman,,,,null,,,,
null,are fighting each other,,html-keyboard-response,151,796350,0.0-15.0-2.0,78021,List1B,black,woman,,,,null,,,,
14211,,,survey-text,152,810564,0.0-15.0-3.0,78021,List1B,black,woman,,,,,"{""Q0"":""Fred and luke are fighting each other""}","<img src=""stim_listB/fight6.gif""style=""height:400px;""></stim_listB>",are fighting each other,
null,"<div style=""font-size:60px;"">+</div>",,html-keyboard-response,153,811067,0.0-15.0-0.1,78021,List1B,black,woman,,,,null,,,,
null,"<img src=""stim_listB/play4.gif""style=""height:400px;""></stim_listB>",,html-keyboard-response,154,813070,0.0-15.0-1.1,78021,List1B,black,woman,,,,null,,,,
null,are playing with each other,,html-keyboard-response,155,815072,0.0-15.0-2.1,78021,List1B,black,woman,,,,null,,,,
11469,,,survey-text,156,826543,0.0-15.0-3.1,78021,List1B,black,woman,,,,,"{""Q0"":""ruth and luke are playing with each other""}","<img src=""stim_listB/play4.gif""style=""height:400px;""></stim_listB>",are playing with each other,
null,"<div style=""font-size:60px;"">+</div>",,html-keyboard-response,157,827044,0.0-15.0-0.2,78021,List1B,black,woman,,,,null,,,,
null,"<img src=""stim_listB/argue3.gif""style=""height:400px;""></stim_listB>",,html-keyboard-response,158,829047,0.0-15.0-1.2,78021,List1B,black,woman,,,,null,,,,
null,is arguing with,,html-keyboard-response,159,831048,0.0-15.0-2.2,78021,List1B,black,woman,,,,null,,,,
7423,,,survey-text,160,838473,0.0-15.0-3.2,78021,List1B,black,woman,,,,,"{""Q0"":""dave is arguing with ruth""}","<img src=""stim_listB/argue3.gif""style=""height:400px;""></stim_listB>",is arguing with,
null,"<div style=""font-size:60px;"">+</div>",,html-keyboard-response,161,838975,0.0-15.0-0.3,78021,List1B,black,woman,,,,null,,,,
null,"<img src=""stim_listB/touch8.gif""style=""height:400px;""></stim_listB>",,html-keyboard-response,162,840978,0.0-15.0-1.3,78021,List1B,black,woman,,,,null,,,,
null,are touching each other,,html-keyboard-response,163,842980,0.0-15.0-2.3,78021,List1B,black,woman,,,,null,,,,
10967,,,survey-text,164,853949,0.0-15.0-3.3,78021,List1B,black,woman,,,,,"{""Q0"":""beth and ruth are touching each other""}","<img src=""stim_listB/touch8.gif""style=""height:400px;""></stim_listB>",are touching each other,
null,"<div style=""font-size:60px;"">+</div>",,html-keyboard-response,165,854451,0.0-15.0-0.4,78021,List1B,black,woman,,,,null,,,,
null,"<img src=""stim_listB/talk6.gif""style=""height:400px;""></stim_listB>",,html-keyboard-response,166,856455,0.0-15.0-1.4,78021,List1B,black,woman,,,,null,,,,
null,are talking to each other,,html-keyboard-response,167,858456,0.0-15.0-2.4,78021,List1B,black,woman,,,,null,,,,
16411,,,survey-text,168,874869,0.0-15.0-3.4,78021,List1B,black,woman,,,,,"{""Q0"":""mike and luke are talking to each other""}","<img src=""stim_listB/talk6.gif""style=""height:400px;""></stim_listB>",are talking to each other,
null,"<div style=""font-size:60px;"">+</div>",,html-keyboard-response,169,875371,0.0-15.0-0.5,78021,List1B,black,woman,,,,null,,,,
null,"<img src=""stim_listB/shout1.gif""style=""height:400px;""></stim_listB>",,html-keyboard-response,170,877374,0.0-15.0-1.5,78021,List1B,black,woman,,,,null,,,,
null,is shouting at,,html-keyboard-response,171,879376,0.0-15.0-2.5,78021,List1B,black,woman,,,,null,,,,
7344,,,survey-text,172,886722,0.0-15.0-3.5,78021,List1B,black,woman,,,,,"{""Q0"":""beth is shouting at fred""}","<img src=""stim_listB/shout1.gif""style=""height:400px;""></stim_listB>",is shouting at,
null,"<div style=""font-size:60px;"">+</div>",,html-keyboard-response,173,887226,0.0-15.0-0.6,78021,List1B,black,woman,,,,null,,,,
null,"<img src=""stim_listB/kiss1.gif""style=""height:400px;""></stim_listB>",,html-keyboard-response,174,889229,0.0-15.0-1.6,78021,List1B,black,woman,,,,null,,,,
null,is kissing,,html-keyboard-response,175,891231,0.0-15.0-2.6,78021,List1B,black,woman,,,,null,,,,
6438,,,survey-text,176,897671,0.0-15.0-3.6,78021,List1B,black,woman,,,,,"{""Q0"":""beth is kissing fred""}","<img src=""stim_listB/kiss1.gif""style=""height:400px;""></stim_listB>",is kissing,
null,"<div style=""font-size:60px;"">+</div>",,html-keyboard-response,177,898173,0.0-15.0-0.7,78021,List1B,black,woman,,,,null,,,,
null,"<img src=""stim_listB/marry7.gif""style=""height:400px;""></stim_listB>",,html-keyboard-response,178,900176,0.0-15.0-1.7,78021,List1B,black,woman,,,,null,,,,
null,is marrying,,html-keyboard-response,179,902177,0.0-15.0-2.7,78021,List1B,black,woman,,,,null,,,,
8322,,,survey-text,180,910502,0.0-15.0-3.7,78021,List1B,black,woman,,,,,"{""Q0"":""ruth is marrying kate""}","<img src=""stim_listB/marry7.gif""style=""height:400px;""></stim_listB>",is marrying,
null,"<div style=""font-size:60px;"">+</div>",,html-keyboard-response,181,911004,0.0-15.0-0.8,78021,List1B,black,woman,,,,null,,,,
null,"<img src=""stim_listB/shout6.gif""style=""height:400px;""></stim_listB>",,html-keyboard-response,182,913007,0.0-15.0-1.8,78021,List1B,black,woman,,,,null,,,,
null,are shouting at each other,,html-keyboard-response,183,915009,0.0-15.0-2.8,78021,List1B,black,woman,,,,null,,,,
9872,,,survey-text,184,924883,0.0-15.0-3.8,78021,List1B,black,woman,,,,,"{""Q0"":""mike and dave are shouting at each other""}","<img src=""stim_listB/shout6.gif""style=""height:400px;""></stim_listB>",are shouting at each other,
null,"<div style=""font-size:60px;"">+</div>",,html-keyboard-response,185,925385,0.0-15.0-0.9,78021,List1B,black,woman,,,,null,,,,
null,"<img src=""stim_listB/flirt6.gif""style=""height:400px;""></stim_listB>",,html-keyboard-response,186,927387,0.0-15.0-1.9,78021,List1B,black,woman,,,,null,,,,
null,are flirting with each other,,html-keyboard-response,187,929388,0.0-15.0-2.9,78021,List1B,black,woman,,,,null,,,,
16663,,,survey-text,188,946053,0.0-15.0-3.9,78021,List1B,black,woman,,,,,"{""Q0"":""luke and mike are flirting with each other""}","<img src=""stim_listB/flirt6.gif""style=""height:400px;""></stim_listB>",are flirting with each other,
null,"<div style=""font-size:60px;"">+</div>",,html-keyboard-response,189,946556,0.0-15.0-0.10,78021,List1B,black,woman,,,,null,,,,
null,"<img src=""stim_listB/touch3.gif""style=""height:400px;""></stim_listB>",,html-keyboard-response,190,948559,0.0-15.0-1.10,78021,List1B,black,woman,,,,null,,,,
null,is touching,,html-keyboard-response,191,950562,0.0-15.0-2.10,78021,List1B,black,woman,,,,null,,,,
7072,,,survey-text,192,957636,0.0-15.0-3.10,78021,List1B,black,woman,,,,,"{""Q0"":""dave is touching jane""}","<img src=""stim_listB/touch3.gif""style=""height:400px;""></stim_listB>",is touching,
null,"<div style=""font-size:60px;"">+</div>",,html-keyboard-response,193,958138,0.0-15.0-0.11,78021,List1B,black,woman,,,,null,,,,
null,"<img src=""stim_listB/touch5.gif""style=""height:400px;""></stim_listB>",,html-keyboard-response,194,960141,0.0-15.0-1.11,78021,List1B,black,woman,,,,null,,,,
null,is touching,,html-keyboard-response,195,962143,0.0-15.0-2.11,78021,List1B,black,woman,,,,null,,,,
5987,,,survey-text,196,968131,0.0-15.0-3.11,78021,List1B,black,woman,,,,,"{""Q0"":""dave is touching mike""}","<img src=""stim_listB/touch5.gif""style=""height:400px;""></stim_listB>",is touching,
null,"<div style=""font-size:60px;"">+</div>",,html-keyboard-response,197,968633,0.0-15.0-0.12,78021,List1B,black,woman,,,,null,,,,
null,"<img src=""stim_listB/dance5.gif""style=""height:400px;""></stim_listB>",,html-keyboard-response,198,970636,0.0-15.0-1.12,78021,List1B,black,woman,,,,null,,,,
null,is dancing with,,html-keyboard-response,199,972637,0.0-15.0-2.12,78021,List1B,black,woman,,,,null,,,,
7789,,,survey-text,200,980429,0.0-15.0-3.12,78021,List1B,black,woman,,,,,"{""Q0"":""dave is dancing with fred""}","<img src=""stim_listB/dance5.gif""style=""height:400px;""></stim_listB>",is dancing with,
null,"<div style=""font-size:60px;"">+</div>",,html-keyboard-response,201,980931,0.0-15.0-0.13,78021,List1B,black,woman,,,,null,,,,
null,"<img src=""stim_listB/fight5.gif""style=""height:400px;""></stim_listB>",,html-keyboard-response,202,982933,0.0-15.0-1.13,78021,List1B,black,woman,,,,null,,,,
null,is fighting,,html-keyboard-response,203,984935,0.0-15.0-2.13,78021,List1B,black,woman,,,,null,,,,
6863,,,survey-text,204,991801,0.0-15.0-3.13,78021,List1B,black,woman,,,,,"{""Q0"":""dave is fighting mike""}","<img src=""stim_listB/fight5.gif""style=""height:400px;""></stim_listB>",is fighting,
null,"<div style=""font-size:60px;"">+</div>",,html-keyboard-response,205,992304,0.0-15.0-0.14,78021,List1B,black,woman,,,,null,,,,
null,"<img src=""stim_listB/talk5.gif""style=""height:400px;""></stim_listB>",,html-keyboard-response,206,994307,0.0-15.0-1.14,78021,List1B,black,woman,,,,null,,,,
null,is talking to,,html-keyboard-response,207,996309,0.0-15.0-2.14,78021,List1B,black,woman,,,,null,,,,
23118,,,survey-text,208,1019429,0.0-15.0-3.14,78021,List1B,black,woman,,,,,"{""Q0"":""fred is talking to mike""}","<img src=""stim_listB/talk5.gif""style=""height:400px;""></stim_listB>",is talking to,
null,"<div style=""font-size:60px;"">+</div>",,html-keyboard-response,209,1019932,0.0-15.0-0.15,78021,List1B,black,woman,,,,null,,,,
null,"<img src=""stim_listB/talk4.gif""style=""height:400px;""></stim_listB>",,html-keyboard-response,210,1021935,0.0-15.0-1.15,78021,List1B,black,woman,,,,null,,,,
null,are talking to each other,,html-keyboard-response,211,1023937,0.0-15.0-2.15,78021,List1B,black,woman,,,,null,,,,
8896,,,survey-text,212,1032835,0.0-15.0-3.15,78021,List1B,black,woman,,,,,"{""Q0"":""dave and ruth are talking to each other""}","<img src=""stim_listB/talk4.gif""style=""height:400px;""></stim_listB>",are talking to each other,
null,"<div style=""font-size:60px;"">+</div>",,html-keyboard-response,213,1033338,0.0-15.0-0.16,78021,List1B,black,woman,,,,null,,,,
null,"<img src=""stim_listB/marry4.gif""style=""height:400px;""></stim_listB>",,html-keyboard-response,214,1035340,0.0-15.0-1.16,78021,List1B,black,woman,,,,null,,,,
null,are marrying each other,,html-keyboard-response,215,1037341,0.0-15.0-2.16,78021,List1B,black,woman,,,,null,,,,
13643,,,survey-text,216,1050986,0.0-15.0-3.16,78021,List1B,black,woman,,,,,"{""Q0"":""luke and jane are marrying each other""}","<img src=""stim_listB/marry4.gif""style=""height:400px;""></stim_listB>",are marrying each other,
null,"<div style=""font-size:60px;"">+</div>",,html-keyboard-response,217,1051488,0.0-15.0-0.17,78021,List1B,black,woman,,,,null,,,,
null,"<img src=""stim_listB/flirt7.gif""style=""height:400px;""></stim_listB>",,html-keyboard-response,218,1053491,0.0-15.0-1.17,78021,List1B,black,woman,,,,null,,,,
null,is flirting with,,html-keyboard-response,219,1055494,0.0-15.0-2.17,78021,List1B,black,woman,,,,null,,,,
7722,,,survey-text,220,1063218,0.0-15.0-3.17,78021,List1B,black,woman,,,,,"{""Q0"":""jane is flirting with beth""}","<img src=""stim_listB/flirt7.gif""style=""height:400px;""></stim_listB>",is flirting with,
null,"<div style=""font-size:60px;"">+</div>",,html-keyboard-response,221,1063720,0.0-15.0-0.18,78021,List1B,black,woman,,,,null,,,,
null,"<img src=""stim_listB/argue7.gif""style=""height:400px;""></stim_listB>",,html-keyboard-response,222,1065723,0.0-15.0-1.18,78021,List1B,black,woman,,,,null,,,,
null,is arguing with,,html-keyboard-response,223,1067725,0.0-15.0-2.18,78021,List1B,black,woman,,,,null,,,,
11046,,,survey-text,224,1078773,0.0-15.0-3.18,78021,List1B,black,woman,,,,,"{""Q0"":""ruth is arguing with kate""}","<img src=""stim_listB/argue7.gif""style=""height:400px;""></stim_listB>",is arguing with,
null,"<div style=""font-size:60px;"">+</div>",,html-keyboard-response,225,1079276,0.0-15.0-0.19,78021,List1B,black,woman,,,,null,,,,
null,"<img src=""stim_listB/argue4.gif""style=""height:400px;""></stim_listB>",,html-keyboard-response,226,1081280,0.0-15.0-1.19,78021,List1B,black,woman,,,,null,,,,
null,are arguing with each other,,html-keyboard-response,227,1083281,0.0-15.0-2.19,78021,List1B,black,woman,,,,null,,,,
14311,,,survey-text,228,1097594,0.0-15.0-3.19,78021,List1B,black,woman,,,,,"{""Q0"":""luke and jane are arguing with each other""}","<img src=""stim_listB/argue4.gif""style=""height:400px;""></stim_listB>",are arguing with each other,
8257,"<img src='img/portrait_matrix_list1.jpg' style='width:900px;height:500px;''></img><p>If you have memorised all the portraits and names and are ready to start, press Continue.</p><p><strong>Please note: Your memory of these faces will be tested 4 times during this experiment.</strong></p>",0,html-button-response,229,1105854,0.0-16.0-0.0,78021,List1B,black,woman,,,,,,,,
1877,"<img src=""portrait/BW2.jpg""style=""height:400px;""></img>",2,html-button-response,230,1108734,0.0-16.0-1.0,78021,List1B,black,woman,,TRUE,2,,,,,
null,CORRECT,,html-keyboard-response,231,1110237,0.0-16.0-2.0-0.0,78021,List1B,black,woman,,,,null,,,,
2438,"<img src=""portrait/WM1.jpg""style=""height:400px;""></img>",6,html-button-response,232,1112678,0.0-16.0-4.0,78021,List1B,black,woman,,TRUE,6,,,,,
null,CORRECT,,html-keyboard-response,233,1114182,0.0-16.0-5.0-0.0,78021,List1B,black,woman,,,,null,,,,
2172,"<img src=""portrait/WW2.jpg""style=""height:400px;""></img>",3,html-button-response,234,1116356,0.0-16.0-7.0,78021,List1B,black,woman,,TRUE,3,,,,,
null,CORRECT,,html-keyboard-response,235,1117859,0.0-16.0-8.0-0.0,78021,List1B,black,woman,,,,null,,,,
2815,"<img src=""portrait/BW1.jpg""style=""height:400px;""></img>",0,html-button-response,236,1120676,0.0-16.0-10.0,78021,List1B,black,woman,,TRUE,0,,,,,
null,CORRECT,,html-keyboard-response,237,1122180,0.0-16.0-11.0-0.0,78021,List1B,black,woman,,,,null,,,,
2376,"<img src=""portrait/BM2.jpg""style=""height:400px;""></img>",5,html-button-response,238,1124559,0.0-16.0-13.0,78021,List1B,black,woman,,TRUE,5,,,,,
null,CORRECT,,html-keyboard-response,239,1126063,0.0-16.0-14.0-0.0,78021,List1B,black,woman,,,,null,,,,
2099,"<img src=""portrait/BM1.jpg""style=""height:400px;""></img>",4,html-button-response,240,1128164,0.0-16.0-16.0,78021,List1B,black,woman,,TRUE,4,,,,,
null,CORRECT,,html-keyboard-response,241,1129667,0.0-16.0-17.0-0.0,78021,List1B,black,woman,,,,null,,,,
2179,"<img src=""portrait/WW1.jpg""style=""height:400px;""></img>",1,html-button-response,242,1131849,0.0-16.0-19.0,78021,List1B,black,woman,,TRUE,1,,,,,
null,CORRECT,,html-keyboard-response,243,1133351,0.0-16.0-20.0-0.0,78021,List1B,black,woman,,,,null,,,,
1868,"<img src=""portrait/WM2.jpg""style=""height:400px;""></img>",7,html-button-response,244,1135221,0.0-16.0-22.0,78021,List1B,black,woman,,TRUE,7,,,,,
null,CORRECT,,html-keyboard-response,245,1136724,0.0-16.0-23.0-0.0,78021,List1B,black,woman,,,,null,,,,
1787,<p>You got 8 out of 8 right first time. Press Continue.</p>,0,html-button-response,246,1138514,0.0-16.0-25.0,78021,List1B,black,woman,,,,,,,,
null,"<div style=""font-size:60px;"">+</div>",,html-keyboard-response,247,1140017,0.0-17.0-0.0,78021,List1B,black,woman,,,,null,,,,
null,"<img src=""stim_listB/touch6.gif""style=""height:400px;""></stim_listB>",,html-keyboard-response,248,1142020,0.0-17.0-1.0,78021,List1B,black,woman,,,,null,,,,
null,are touching each other,,html-keyboard-response,249,1144022,0.0-17.0-2.0,78021,List1B,black,woman,,,,null,,,,
11549,,,survey-text,250,1155574,0.0-17.0-3.0,78021,List1B,black,woman,,,,,"{""Q0"":""fred and luke are touching each other""}","<img src=""stim_listB/touch6.gif""style=""height:400px;""></stim_listB>",are touching each other,
null,"<div style=""font-size:60px;"">+</div>",,html-keyboard-response,251,1156076,0.0-17.0-0.1,78021,List1B,black,woman,,,,null,,,,
null,"<img src=""stim_listB/dance4.gif""style=""height:400px;""></stim_listB>",,html-keyboard-response,252,1158080,0.0-17.0-1.1,78021,List1B,black,woman,,,,null,,,,
null,are dancing with each other,,html-keyboard-response,253,1160082,0.0-17.0-2.1,78021,List1B,black,woman,,,,null,,,,
12399,,,survey-text,254,1172484,0.0-17.0-3.1,78021,List1B,black,woman,,,,,"{""Q0"":""dave and ruth are dancing with each other""}","<img src=""stim_listB/dance4.gif""style=""height:400px;""></stim_listB>",are dancing with each other,
null,"<div style=""font-size:60px;"">+</div>",,html-keyboard-response,255,1172986,0.0-17.0-0.2,78021,List1B,black,woman,,,,null,,,,
null,"<img src=""stim_listB/flirt3.gif""style=""height:400px;""></stim_listB>",,html-keyboard-response,256,1174990,0.0-17.0-1.2,78021,List1B,black,woman,,,,null,,,,
null,is flirting with,,html-keyboard-response,257,1176993,0.0-17.0-2.2,78021,List1B,black,woman,,,,null,,,,
6874,,,survey-text,258,1183868,0.0-17.0-3.2,78021,List1B,black,woman,,,,,"{""Q0"":""jane is flirting with luke""}","<img src=""stim_listB/flirt3.gif""style=""height:400px;""></stim_listB>",is flirting with,
null,"<div style=""font-size:60px;"">+</div>",,html-keyboard-response,259,1184371,0.0-17.0-0.3,78021,List1B,black,woman,,,,null,,,,
null,"<img src=""stim_listB/play5.gif""style=""height:400px;""></stim_listB>",,html-keyboard-response,260,1186374,0.0-17.0-1.3,78021,List1B,black,woman,,,,null,,,,
null,is playing with,,html-keyboard-response,261,1188376,0.0-17.0-2.3,78021,List1B,black,woman,,,,null,,,,
8251,,,survey-text,262,1196628,0.0-17.0-3.3,78021,List1B,black,woman,,,,,"{""Q0"":""dave is playing with mike""}","<img src=""stim_listB/play5.gif""style=""height:400px;""></stim_listB>",is playing with,
null,"<div style=""font-size:60px;"">+</div>",,html-keyboard-response,263,1197130,0.0-17.0-0.4,78021,List1B,black,woman,,,,null,,,,
null,"<img src=""stim_listB/kiss6.gif""style=""height:400px;""></stim_listB>",,html-keyboard-response,264,1199133,0.0-17.0-1.4,78021,List1B,black,woman,,,,null,,,,
null,are kissing each other,,html-keyboard-response,265,1201142,0.0-17.0-2.4,78021,List1B,black,woman,,,,null,,,,
8631,,,survey-text,266,1209775,0.0-17.0-3.4,78021,List1B,black,woman,,,,,"{""Q0"":""dave and mike are kissing each other""}","<img src=""stim_listB/kiss6.gif""style=""height:400px;""></stim_listB>",are kissing each other,
null,"<div style=""font-size:60px;"">+</div>",,html-keyboard-response,267,1210277,0.0-17.0-0.5,78021,List1B,black,woman,,,,null,,,,
null,"<img src=""stim_listB/play6.gif""style=""height:400px;""></stim_listB>",,html-keyboard-response,268,1212280,0.0-17.0-1.5,78021,List1B,black,woman,,,,null,,,,
null,are playing with each other,,html-keyboard-response,269,1214281,0.0-17.0-2.5,78021,List1B,black,woman,,,,null,,,,
13843,,,survey-text,270,1228127,0.0-17.0-3.5,78021,List1B,black,woman,,,,,"{""Q0"":""fred and luke are playing with each other""}","<img src=""stim_listB/play6.gif""style=""height:400px;""></stim_listB>",are playing with each other,
null,"<div style=""font-size:60px;"">+</div>",,html-keyboard-response,271,1228629,0.0-17.0-0.6,78021,List1B,black,woman,,,,null,,,,
null,"<img src=""stim_listB/argue8.gif""style=""height:400px;""></stim_listB>",,html-keyboard-response,272,1230632,0.0-17.0-1.6,78021,List1B,black,woman,,,,null,,,,
null,are arguing with each other,,html-keyboard-response,273,1232635,0.0-17.0-2.6,78021,List1B,black,woman,,,,null,,,,
11508,,,survey-text,274,1244145,0.0-17.0-3.6,78021,List1B,black,woman,,,,,"{""Q0"":""beth and jane are arguing with each other""}","<img src=""stim_listB/argue8.gif""style=""height:400px;""></stim_listB>",are arguing with each other,
null,"<div style=""font-size:60px;"">+</div>",,html-keyboard-response,275,1244647,0.0-17.0-0.7,78021,List1B,black,woman,,,,null,,,,
null,"<img src=""stim_listB/play3.gif""style=""height:400px;""></stim_listB>",,html-keyboard-response,276,1246651,0.0-17.0-1.7,78021,List1B,black,woman,,,,null,,,,
null,is playing with,,html-keyboard-response,277,1248653,0.0-17.0-2.7,78021,List1B,black,woman,,,,null,,,,
7009,,,survey-text,278,1255664,0.0-17.0-3.7,78021,List1B,black,woman,,,,,"{""Q0"":""jane is playing with dave""}","<img src=""stim_listB/play3.gif""style=""height:400px;""></stim_listB>",is playing with,
null,"<div style=""font-size:60px;"">+</div>",,html-keyboard-response,279,1256167,0.0-17.0-0.8,78021,List1B,black,woman,,,,null,,,,
null,"<img src=""stim_listB/shout2.gif""style=""height:400px;""></stim_listB>",,html-keyboard-response,280,1258171,0.0-17.0-1.8,78021,List1B,black,woman,,,,null,,,,
null,are shouting at each other,,html-keyboard-response,281,1260173,0.0-17.0-2.8,78021,List1B,black,woman,,,,null,,,,
10015,,,survey-text,282,1270190,0.0-17.0-3.8,78021,List1B,black,woman,,,,,"{""Q0"":""mike and kate are shouting at each other""}","<img src=""stim_listB/shout2.gif""style=""height:400px;""></stim_listB>",are shouting at each other,
null,"<div style=""font-size:60px;"">+</div>",,html-keyboard-response,283,1270692,0.0-17.0-0.9,78021,List1B,black,woman,,,,null,,,,
null,"<img src=""stim_listB/talk8.gif""style=""height:400px;""></stim_listB>",,html-keyboard-response,284,1272695,0.0-17.0-1.9,78021,List1B,black,woman,,,,null,,,,
null,are talking to each other,,html-keyboard-response,285,1274696,0.0-17.0-2.9,78021,List1B,black,woman,,,,null,,,,
23413,,,survey-text,286,1298111,0.0-17.0-3.9,78021,List1B,black,woman,,,,,"{""Q0"":""ruth and kate  are talking to each other""}","<img src=""stim_listB/talk8.gif""style=""height:400px;""></stim_listB>",are talking to each other,
null,"<div style=""font-size:60px;"">+</div>",,html-keyboard-response,287,1298614,0.0-17.0-0.10,78021,List1B,black,woman,,,,null,,,,
null,"<img src=""stim_listB/talk7.gif""style=""height:400px;""></stim_listB>",,html-keyboard-response,288,1300618,0.0-17.0-1.10,78021,List1B,black,woman,,,,null,,,,
null,is talking to,,html-keyboard-response,289,1302622,0.0-17.0-2.10,78021,List1B,black,woman,,,,null,,,,
9970,,,survey-text,290,1312594,0.0-17.0-3.10,78021,List1B,black,woman,,,,,"{""Q0"":""jane is talking to beth""}","<img src=""stim_listB/talk7.gif""style=""height:400px;""></stim_listB>",is talking to,
null,"<div style=""font-size:60px;"">+</div>",,html-keyboard-response,291,1313097,0.0-17.0-0.11,78021,List1B,black,woman,,,,null,,,,
null,"<img src=""stim_listB/touch1.gif""style=""height:400px;""></stim_listB>",,html-keyboard-response,292,1315101,0.0-17.0-1.11,78021,List1B,black,woman,,,,null,,,,
null,is touching,,html-keyboard-response,293,1317102,0.0-17.0-2.11,78021,List1B,black,woman,,,,null,,,,
6646,,,survey-text,294,1323750,0.0-17.0-3.11,78021,List1B,black,woman,,,,,"{""Q0"":""kate is touching mike""}","<img src=""stim_listB/touch1.gif""style=""height:400px;""></stim_listB>",is touching,
null,"<div style=""font-size:60px;"">+</div>",,html-keyboard-response,295,1324252,0.0-17.0-0.12,78021,List1B,black,woman,,,,null,,,,
null,"<img src=""stim_listB/fight8.gif""style=""height:400px;""></stim_listB>",,html-keyboard-response,296,1326255,0.0-17.0-1.12,78021,List1B,black,woman,,,,null,,,,
null,are fighting each other,,html-keyboard-response,297,1328257,0.0-17.0-2.12,78021,List1B,black,woman,,,,null,,,,
11167,,,survey-text,298,1339426,0.0-17.0-3.12,78021,List1B,black,woman,,,,,"{""Q0"":""beth and ruth are fighting each other""}","<img src=""stim_listB/fight8.gif""style=""height:400px;""></stim_listB>",are fighting each other,
null,"<div style=""font-size:60px;"">+</div>",,html-keyboard-response,299,1339928,0.0-17.0-0.13,78021,List1B,black,woman,,,,null,,,,
null,"<img src=""stim_listB/fight1.gif""style=""height:400px;""></stim_listB>",,html-keyboard-response,300,1341931,0.0-17.0-1.13,78021,List1B,black,woman,,,,null,,,,
null,is fighting,,html-keyboard-response,301,1343933,0.0-17.0-2.13,78021,List1B,black,woman,,,,null,,,,
43899,,,survey-text,302,1387834,0.0-17.0-3.13,78021,List1B,black,woman,,,,,"{""Q0"":""kate is fighting mike""}","<img src=""stim_listB/fight1.gif""style=""height:400px;""></stim_listB>",is fighting,
null,"<div style=""font-size:60px;"">+</div>",,html-keyboard-response,303,1388338,0.0-17.0-0.14,78021,List1B,black,woman,,,,null,,,,
null,"<img src=""stim_listB/marry8.gif""style=""height:400px;""></stim_listB>",,html-keyboard-response,304,1390341,0.0-17.0-1.14,78021,List1B,black,woman,,,,null,,,,
null,are marrying each other,,html-keyboard-response,305,1392342,0.0-17.0-2.14,78021,List1B,black,woman,,,,null,,,,
13202,,,survey-text,306,1405546,0.0-17.0-3.14,78021,List1B,black,woman,,,,,"{""Q0"":""jane and beth are marrying each other""}","<img src=""stim_listB/marry8.gif""style=""height:400px;""></stim_listB>",are marrying each other,
null,"<div style=""font-size:60px;"">+</div>",,html-keyboard-response,307,1406047,0.0-17.0-0.15,78021,List1B,black,woman,,,,null,,,,
null,"<img src=""stim_listB/kiss8.gif""style=""height:400px;""></stim_listB>",,html-keyboard-response,308,1408051,0.0-17.0-1.15,78021,List1B,black,woman,,,,null,,,,
null,are kissing each other,,html-keyboard-response,309,1410053,0.0-17.0-2.15,78021,List1B,black,woman,,,,null,,,,
12557,,,survey-text,310,1422611,0.0-17.0-3.15,78021,List1B,black,woman,,,,,"{""Q0"":""jane and kate are kissing each other""}","<img src=""stim_listB/kiss8.gif""style=""height:400px;""></stim_listB>",are kissing each other,
null,"<div style=""font-size:60px;"">+</div>",,html-keyboard-response,311,1423114,0.0-17.0-0.16,78021,List1B,black,woman,,,,null,,,,
null,"<img src=""stim_listB/flirt4.gif""style=""height:400px;""></stim_listB>",,html-keyboard-response,312,1425117,0.0-17.0-1.16,78021,List1B,black,woman,,,,null,,,,
null,are flirting with each other,,html-keyboard-response,313,1427118,0.0-17.0-2.16,78021,List1B,black,woman,,,,null,,,,
18848,,,survey-text,314,1445968,0.0-17.0-3.16,78021,List1B,black,woman,,,,,"{""Q0"":""dave and ruth are flirting with each other""}","<img src=""stim_listB/flirt4.gif""style=""height:400px;""></stim_listB>",are flirting with each other,
null,"<div style=""font-size:60px;"">+</div>",,html-keyboard-response,315,1446471,0.0-17.0-0.17,78021,List1B,black,woman,,,,null,,,,
null,"<img src=""stim_listB/flirt8.gif""style=""height:400px;""></stim_listB>",,html-keyboard-response,316,1448474,0.0-17.0-1.17,78021,List1B,black,woman,,,,null,,,,
null,are flirting with each other,,html-keyboard-response,317,1450477,0.0-17.0-2.17,78021,List1B,black,woman,,,,null,,,,
8860,,,survey-text,318,1459339,0.0-17.0-3.17,78021,List1B,black,woman,,,,,"{""Q0"":""kate and ruth are flirting with each other""}","<img src=""stim_listB/flirt8.gif""style=""height:400px;""></stim_listB>",are flirting with each other,
null,"<div style=""font-size:60px;"">+</div>",,html-keyboard-response,319,1459841,0.0-17.0-0.18,78021,List1B,black,woman,,,,null,,,,
null,"<img src=""stim_listB/argue1.gif""style=""height:400px;""></stim_listB>",,html-keyboard-response,320,1461845,0.0-17.0-1.18,78021,List1B,black,woman,,,,null,,,,
null,is arguing with,,html-keyboard-response,321,1463848,0.0-17.0-2.18,78021,List1B,black,woman,,,,null,,,,
16553,,,survey-text,322,1480403,0.0-17.0-3.18,78021,List1B,black,woman,,,,,"{""Q0"":""beth is arguring with mike""}","<img src=""stim_listB/argue1.gif""style=""height:400px;""></stim_listB>",is arguing with,
null,"<div style=""font-size:60px;"">+</div>",,html-keyboard-response,323,1480905,0.0-17.0-0.19,78021,List1B,black,woman,,,,null,,,,
null,"<img src=""stim_listB/talk2.gif""style=""height:400px;""></stim_listB>",,html-keyboard-response,324,1482909,0.0-17.0-1.19,78021,List1B,black,woman,,,,null,,,,
null,are talking to each other,,html-keyboard-response,325,1484911,0.0-17.0-2.19,78021,List1B,black,woman,,,,null,,,,
17847,,,survey-text,326,1502760,0.0-17.0-3.19,78021,List1B,black,woman,,,,,"{""Q0"":""mike and beth are talking to each other""}","<img src=""stim_listB/talk2.gif""style=""height:400px;""></stim_listB>",are talking to each other,
2836,"<img src='img/portrait_matrix_list1.jpg' style='width:900px;height:500px;''></img><p>If you have memorised all the portraits and names and are ready to start, press Continue.</p><p><strong>Please note: Your memory of these faces will be tested 4 times during this experiment.</strong></p>",0,html-button-response,327,1505598,0.0-18.0-0.0,78021,List1B,black,woman,,,,,,,,
2612,"<img src=""portrait/WM2.jpg""style=""height:400px;""></img>",7,html-button-response,328,1509213,0.0-18.0-1.0,78021,List1B,black,woman,,TRUE,7,,,,,
null,CORRECT,,html-keyboard-response,329,1510717,0.0-18.0-2.0-0.0,78021,List1B,black,woman,,,,null,,,,
1615,"<img src=""portrait/WM1.jpg""style=""height:400px;""></img>",6,html-button-response,330,1512335,0.0-18.0-4.0,78021,List1B,black,woman,,TRUE,6,,,,,
null,CORRECT,,html-keyboard-response,331,1513839,0.0-18.0-5.0-0.0,78021,List1B,black,woman,,,,null,,,,
1754,"<img src=""portrait/BM1.jpg""style=""height:400px;""></img>",4,html-button-response,332,1515597,0.0-18.0-7.0,78021,List1B,black,woman,,TRUE,4,,,,,
null,CORRECT,,html-keyboard-response,333,1517100,0.0-18.0-8.0-0.0,78021,List1B,black,woman,,,,null,,,,
2196,"<img src=""portrait/WW2.jpg""style=""height:400px;""></img>",3,html-button-response,334,1519298,0.0-18.0-10.0,78021,List1B,black,woman,,TRUE,3,,,,,
null,CORRECT,,html-keyboard-response,335,1520802,0.0-18.0-11.0-0.0,78021,List1B,black,woman,,,,null,,,,
1804,"<img src=""portrait/BW2.jpg""style=""height:400px;""></img>",2,html-button-response,336,1522609,0.0-18.0-13.0,78021,List1B,black,woman,,TRUE,2,,,,,
null,CORRECT,,html-keyboard-response,337,1524113,0.0-18.0-14.0-0.0,78021,List1B,black,woman,,,,null,,,,
2235,"<img src=""portrait/BM2.jpg""style=""height:400px;""></img>",5,html-button-response,338,1526352,0.0-18.0-16.0,78021,List1B,black,woman,,TRUE,5,,,,,
null,CORRECT,,html-keyboard-response,339,1527855,0.0-18.0-17.0-0.0,78021,List1B,black,woman,,,,null,,,,
2557,"<img src=""portrait/BW1.jpg""style=""height:400px;""></img>",0,html-button-response,340,1530415,0.0-18.0-19.0,78021,List1B,black,woman,,TRUE,0,,,,,
null,CORRECT,,html-keyboard-response,341,1531918,0.0-18.0-20.0-0.0,78021,List1B,black,woman,,,,null,,,,
1593,"<img src=""portrait/WW1.jpg""style=""height:400px;""></img>",1,html-button-response,342,1533514,0.0-18.0-22.0,78021,List1B,black,woman,,TRUE,1,,,,,
null,CORRECT,,html-keyboard-response,343,1535018,0.0-18.0-23.0-0.0,78021,List1B,black,woman,,,,null,,,,
1877,<p>You got 8 out of 8 right first time. Press Continue.</p>,0,html-button-response,344,1536898,0.0-18.0-25.0,78021,List1B,black,woman,,,,,,,,
null,"<div style=""font-size:60px;"">+</div>",,html-keyboard-response,345,1538402,0.0-19.0-0.0,78021,List1B,black,woman,,,,null,,,,
null,"<img src=""stim_listB/talk1.gif""style=""height:400px;""></stim_listB>",,html-keyboard-response,346,1540405,0.0-19.0-1.0,78021,List1B,black,woman,,,,null,,,,
null,is talking to,,html-keyboard-response,347,1542407,0.0-19.0-2.0,78021,List1B,black,woman,,,,null,,,,
7944,,,survey-text,348,1550353,0.0-19.0-3.0,78021,List1B,black,woman,,,,,"{""Q0"":""kate is talking to Fred""}","<img src=""stim_listB/talk1.gif""style=""height:400px;""></stim_listB>",is talking to,
null,"<div style=""font-size:60px;"">+</div>",,html-keyboard-response,349,1550855,0.0-19.0-0.1,78021,List1B,black,woman,,,,null,,,,
null,"<img src=""stim_listB/dance8.gif""style=""height:400px;""></stim_listB>",,html-keyboard-response,350,1552858,0.0-19.0-1.1,78021,List1B,black,woman,,,,null,,,,
null,are dancing with each other,,html-keyboard-response,351,1554861,0.0-19.0-2.1,78021,List1B,black,woman,,,,null,,,,
17839,,,survey-text,352,1572702,0.0-19.0-3.1,78021,List1B,black,woman,,,,,"{""Q0"":""kate and ruth are dancing with each other""}","<img src=""stim_listB/dance8.gif""style=""height:400px;""></stim_listB>",are dancing with each other,
null,"<div style=""font-size:60px;"">+</div>",,html-keyboard-response,353,1573205,0.0-19.0-0.2,78021,List1B,black,woman,,,,null,,,,
null,"<img src=""stim_listB/dance1.gif""style=""height:400px;""></stim_listB>",,html-keyboard-response,354,1575208,0.0-19.0-1.2,78021,List1B,black,woman,,,,null,,,,
null,is dancing with,,html-keyboard-response,355,1577211,0.0-19.0-2.2,78021,List1B,black,woman,,,,null,,,,
6385,,,survey-text,356,1583598,0.0-19.0-3.2,78021,List1B,black,woman,,,,,"{""Q0"":""kate is dancing with fred""}","<img src=""stim_listB/dance1.gif""style=""height:400px;""></stim_listB>",is dancing with,
null,"<div style=""font-size:60px;"">+</div>",,html-keyboard-response,357,1584100,0.0-19.0-0.3,78021,List1B,black,woman,,,,null,,,,
null,"<img src=""stim_listB/fight2.gif""style=""height:400px;""></stim_listB>",,html-keyboard-response,358,1586104,0.0-19.0-1.3,78021,List1B,black,woman,,,,null,,,,
null,are fighting each other,,html-keyboard-response,359,1588106,0.0-19.0-2.3,78021,List1B,black,woman,,,,null,,,,
10519,,,survey-text,360,1598627,0.0-19.0-3.3,78021,List1B,black,woman,,,,,"{""Q0"":""fred and beth are fighting each other""}","<img src=""stim_listB/fight2.gif""style=""height:400px;""></stim_listB>",are fighting each other,
null,"<div style=""font-size:60px;"">+</div>",,html-keyboard-response,361,1599129,0.0-19.0-0.4,78021,List1B,black,woman,,,,null,,,,
null,"<img src=""stim_listB/marry1.gif""style=""height:400px;""></stim_listB>",,html-keyboard-response,362,1601131,0.0-19.0-1.4,78021,List1B,black,woman,,,,null,,,,
null,is marrying,,html-keyboard-response,363,1603133,0.0-19.0-2.4,78021,List1B,black,woman,,,,null,,,,
9608,,,survey-text,364,1612742,0.0-19.0-3.4,78021,List1B,black,woman,,,,,"{""Q0"":""mike is marrying beth""}","<img src=""stim_listB/marry1.gif""style=""height:400px;""></stim_listB>",is marrying,
null,"<div style=""font-size:60px;"">+</div>",,html-keyboard-response,365,1613244,0.0-19.0-0.5,78021,List1B,black,woman,,,,null,,,,
null,"<img src=""stim_listB/dance7.gif""style=""height:400px;""></stim_listB>",,html-keyboard-response,366,1615248,0.0-19.0-1.5,78021,List1B,black,woman,,,,null,,,,
null,is dancing with,,html-keyboard-response,367,1617250,0.0-19.0-2.5,78021,List1B,black,woman,,,,null,,,,
8754,,,survey-text,368,1626006,0.0-19.0-3.5,78021,List1B,black,woman,,,,,"{""Q0"":""jane is dancing with beth""}","<img src=""stim_listB/dance7.gif""style=""height:400px;""></stim_listB>",is dancing with,
null,"<div style=""font-size:60px;"">+</div>",,html-keyboard-response,369,1626508,0.0-19.0-0.6,78021,List1B,black,woman,,,,null,,,,
null,"<img src=""stim_listB/play8.gif""style=""height:400px;""></stim_listB>",,html-keyboard-response,370,1628512,0.0-19.0-1.6,78021,List1B,black,woman,,,,null,,,,
null,are playing with each other,,html-keyboard-response,371,1630514,0.0-19.0-2.6,78021,List1B,black,woman,,,,null,,,,
12917,,,survey-text,372,1643432,0.0-19.0-3.6,78021,List1B,black,woman,,,,,"{""Q0"":""beth and ruth are playing with each other""}","<img src=""stim_listB/play8.gif""style=""height:400px;""></stim_listB>",are playing with each other,
null,"<div style=""font-size:60px;"">+</div>",,html-keyboard-response,373,1643935,0.0-19.0-0.7,78021,List1B,black,woman,,,,null,,,,
null,"<img src=""stim_listB/dance3.gif""style=""height:400px;""></stim_listB>",,html-keyboard-response,374,1645938,0.0-19.0-1.7,78021,List1B,black,woman,,,,null,,,,
null,is dancing with,,html-keyboard-response,375,1647941,0.0-19.0-2.7,78021,List1B,black,woman,,,,null,,,,
10886,,,survey-text,376,1658829,0.0-19.0-3.7,78021,List1B,black,woman,,,,,"{""Q0"":""jane is dancing with luke""}","<img src=""stim_listB/dance3.gif""style=""height:400px;""></stim_listB>",is dancing with,
null,"<div style=""font-size:60px;"">+</div>",,html-keyboard-response,377,1659331,0.0-19.0-0.8,78021,List1B,black,woman,,,,null,,,,
null,"<img src=""stim_listB/argue5.gif""style=""height:400px;""></stim_listB>",,html-keyboard-response,378,1661334,0.0-19.0-1.8,78021,List1B,black,woman,,,,null,,,,
null,is arguing with,,html-keyboard-response,379,1663336,0.0-19.0-2.8,78021,List1B,black,woman,,,,null,,,,
9094,,,survey-text,380,1672433,0.0-19.0-3.8,78021,List1B,black,woman,,,,,"{""Q0"":""luke is arguing with mike""}","<img src=""stim_listB/argue5.gif""style=""height:400px;""></stim_listB>",is arguing with,
null,"<div style=""font-size:60px;"">+</div>",,html-keyboard-response,381,1672935,0.0-19.0-0.9,78021,List1B,black,woman,,,,null,,,,
null,"<img src=""stim_listB/fight7.gif""style=""height:400px;""></stim_listB>",,html-keyboard-response,382,1674938,0.0-19.0-1.9,78021,List1B,black,woman,,,,null,,,,
null,is fighting,,html-keyboard-response,383,1676940,0.0-19.0-2.9,78021,List1B,black,woman,,,,null,,,,
7328,,,survey-text,384,1684270,0.0-19.0-3.9,78021,List1B,black,woman,,,,,"{""Q0"":""jane is fighting kate""}","<img src=""stim_listB/fight7.gif""style=""height:400px;""></stim_listB>",is fighting,
null,"<div style=""font-size:60px;"">+</div>",,html-keyboard-response,385,1684773,0.0-19.0-0.10,78021,List1B,black,woman,,,,null,,,,
null,"<img src=""stim_listB/flirt1.gif""style=""height:400px;""></stim_listB>",,html-keyboard-response,386,1686777,0.0-19.0-1.10,78021,List1B,black,woman,,,,null,,,,
null,is flirting with,,html-keyboard-response,387,1688779,0.0-19.0-2.10,78021,List1B,black,woman,,,,null,,,,
6398,,,survey-text,388,1695179,0.0-19.0-3.10,78021,List1B,black,woman,,,,,"{""Q0"":""kate is flirting with fred""}","<img src=""stim_listB/flirt1.gif""style=""height:400px;""></stim_listB>",is flirting with,
null,"<div style=""font-size:60px;"">+</div>",,html-keyboard-response,389,1695682,0.0-19.0-0.11,78021,List1B,black,woman,,,,null,,,,
null,"<img src=""stim_listB/shout4.gif""style=""height:400px;""></stim_listB>",,html-keyboard-response,390,1697685,0.0-19.0-1.11,78021,List1B,black,woman,,,,null,,,,
null,are shouting at each other,,html-keyboard-response,391,1699686,0.0-19.0-2.11,78021,List1B,black,woman,,,,null,,,,
8541,,,survey-text,392,1708228,0.0-19.0-3.11,78021,List1B,black,woman,,,,,"{""Q0"":""dave and jane are shouting at each other""}","<img src=""stim_listB/shout4.gif""style=""height:400px;""></stim_listB>",are shouting at each other,
null,"<div style=""font-size:60px;"">+</div>",,html-keyboard-response,393,1708730,0.0-19.0-0.12,78021,List1B,black,woman,,,,null,,,,
null,"<img src=""stim_listB/kiss7.gif""style=""height:400px;""></stim_listB>",,html-keyboard-response,394,1710734,0.0-19.0-1.12,78021,List1B,black,woman,,,,null,,,,
null,is kissing,,html-keyboard-response,395,1712736,0.0-19.0-2.12,78021,List1B,black,woman,,,,null,,,,
11569,,,survey-text,396,1724308,0.0-19.0-3.12,78021,List1B,black,woman,,,,,"{""Q0"":""ruth is kissing  beth""}","<img src=""stim_listB/kiss7.gif""style=""height:400px;""></stim_listB>",is kissing,
null,"<div style=""font-size:60px;"">+</div>",,html-keyboard-response,397,1724810,0.0-19.0-0.13,78021,List1B,black,woman,,,,null,,,,
null,"<img src=""stim_listB/play1.gif""style=""height:400px;""></stim_listB>",,html-keyboard-response,398,1726813,0.0-19.0-1.13,78021,List1B,black,woman,,,,null,,,,
null,is playing with,,html-keyboard-response,399,1728815,0.0-19.0-2.13,78021,List1B,black,woman,,,,null,,,,
7838,,,survey-text,400,1736656,0.0-19.0-3.13,78021,List1B,black,woman,,,,,"{""Q0"":""kate is playing with mike""}","<img src=""stim_listB/play1.gif""style=""height:400px;""></stim_listB>",is playing with,
null,"<div style=""font-size:60px;"">+</div>",,html-keyboard-response,401,1737158,0.0-19.0-0.14,78021,List1B,black,woman,,,,null,,,,
null,"<img src=""stim_listB/flirt2.gif""style=""height:400px;""></stim_listB>",,html-keyboard-response,402,1739160,0.0-19.0-1.14,78021,List1B,black,woman,,,,null,,,,
null,are flirting with each other,,html-keyboard-response,403,1741162,0.0-19.0-2.14,78021,List1B,black,woman,,,,null,,,,
16366,,,survey-text,404,1757530,0.0-19.0-3.14,78021,List1B,black,woman,,,,,"{""Q0"":""mike and beth are flirting with each other""}","<img src=""stim_listB/flirt2.gif""style=""height:400px;""></stim_listB>",are flirting with each other,
null,"<div style=""font-size:60px;"">+</div>",,html-keyboard-response,405,1758032,0.0-19.0-0.15,78021,List1B,black,woman,,,,null,,,,
null,"<img src=""stim_listB/touch7.gif""style=""height:400px;""></stim_listB>",,html-keyboard-response,406,1760035,0.0-19.0-1.15,78021,List1B,black,woman,,,,null,,,,
null,is touching,,html-keyboard-response,407,1762037,0.0-19.0-2.15,78021,List1B,black,woman,,,,null,,,,
9641,,,survey-text,408,1771680,0.0-19.0-3.15,78021,List1B,black,woman,,,,,"{""Q0"":""jane is touching kate""}","<img src=""stim_listB/touch7.gif""style=""height:400px;""></stim_listB>",is touching,
null,"<div style=""font-size:60px;"">+</div>",,html-keyboard-response,409,1772183,0.0-19.0-0.16,78021,List1B,black,woman,,,,null,,,,
null,"<img src=""stim_listB/touch2.gif""style=""height:400px;""></stim_listB>",,html-keyboard-response,410,1774186,0.0-19.0-1.16,78021,List1B,black,woman,,,,null,,,,
null,are touching each other,,html-keyboard-response,411,1776188,0.0-19.0-2.16,78021,List1B,black,woman,,,,null,,,,
7336,,,survey-text,412,1783526,0.0-19.0-3.16,78021,List1B,black,woman,,,,,"{""Q0"":""fred and beth are touching each other""}","<img src=""stim_listB/touch2.gif""style=""height:400px;""></stim_listB>",are touching each other,
null,"<div style=""font-size:60px;"">+</div>",,html-keyboard-response,413,1784029,0.0-19.0-0.17,78021,List1B,black,woman,,,,null,,,,
null,"<img src=""stim_listB/dance6.gif""style=""height:400px;""></stim_listB>",,html-keyboard-response,414,1786032,0.0-19.0-1.17,78021,List1B,black,woman,,,,null,,,,
null,are dancing with each other,,html-keyboard-response,415,1788035,0.0-19.0-2.17,78021,List1B,black,woman,,,,null,,,,
10099,,,survey-text,416,1798136,0.0-19.0-3.17,78021,List1B,black,woman,,,,,"{""Q0"":""mike and luke are dancing with each other""}","<img src=""stim_listB/dance6.gif""style=""height:400px;""></stim_listB>",are dancing with each other,
null,"<div style=""font-size:60px;"">+</div>",,html-keyboard-response,417,1798638,0.0-19.0-0.18,78021,List1B,black,woman,,,,null,,,,
null,"<img src=""stim_listB/fight4.gif""style=""height:400px;""></stim_listB>",,html-keyboard-response,418,1800641,0.0-19.0-1.18,78021,List1B,black,woman,,,,null,,,,
null,are fighting each other,,html-keyboard-response,419,1802643,0.0-19.0-2.18,78021,List1B,black,woman,,,,null,,,,
12857,,,survey-text,420,1815502,0.0-19.0-3.18,78021,List1B,black,woman,,,,,"{""Q0"":""luke  and ruth are fighting with each other""}","<img src=""stim_listB/fight4.gif""style=""height:400px;""></stim_listB>",are fighting each other,
null,"<div style=""font-size:60px;"">+</div>",,html-keyboard-response,421,1816005,0.0-19.0-0.19,78021,List1B,black,woman,,,,null,,,,
null,"<img src=""stim_listB/kiss3.gif""style=""height:400px;""></stim_listB>",,html-keyboard-response,422,1818006,0.0-19.0-1.19,78021,List1B,black,woman,,,,null,,,,
null,is kissing,,html-keyboard-response,423,1820009,0.0-19.0-2.19,78021,List1B,black,woman,,,,null,,,,
7070,,,survey-text,424,1827081,0.0-19.0-3.19,78021,List1B,black,woman,,,,,"{""Q0"":""ruth is kissing luke""}","<img src=""stim_listB/kiss3.gif""style=""height:400px;""></stim_listB>",is kissing,
2995,<p>Thank you for completing that task.</p><p>The final part of this session is a short questionnaire.</p><p>Press Continue.</p>,0,html-button-response,425,1830078,0.0-20.0,78021,List1B,black,woman,,,,,,,,
32282,,,survey-text,426,1863365,0.0-21.0,78021,List1B,black,woman,,,,,"{""Q0"":""38"",""Q1"":""english"",""Q2"":""english"",""Q3"":""England"",""Q4"":""Black British"",""Q5"":""female""}",,,demographics
8381,,,survey-likert,427,1871751,0.0-22.0,78021,List1B,black,woman,,,,,"{""Q0"":3}",,,likert_ESS
17512,,,survey-likert,428,1889277,0.0-23.0,78021,List1B,black,woman,,,,,"{""Q0"":2}",,,likert_NSSAL_Q1
5719,,,survey-likert,429,1895008,0.0-24.0,78021,List1B,black,woman,,,,,"{""Q0"":2}",,,likert_NSSAL_Q2
6354,,,survey-likert,430,1901374,0.0-25.0,78021,List1B,black,woman,,,,,"{""Q0"":3}",,,likert_CGRS_Q1
4601,,,survey-likert,431,1905986,0.0-26.0,78021,List1B,black,woman,,,,,"{""Q0"":3}",,,likert_CGRS_Q2
6298,,,survey-likert,432,1912298,0.0-27.0,78021,List1B,black,woman,,,,,"{""Q0"":3}",,,likert_CGRS_Q3
12742,,,survey-text,433,1925053,0.0-28.0,78021,List1B,black,woman,,,,,"{""Q0"":""ccc""}",,,worker_id
67821,,,external-html,434,1993001,0.0-29.0,78021,List1B,black,woman,debrief.html,,,,,,,
