rt,stimulus,button_pressed,trial_type,trial_index,time_elapsed,internal_node_id,subject,list,ppt_race,ppt_gender,url,first_guess,correct,key_press,responses,image_type,phrase_type,test_part
1816,Welcome to the experiment. Press Continue to begin.,0,html-button-response,0,1817,0.0-0.0,78725,List2A,white,man,,,,,,,,
4066,,,external-html,1,6911,0.0-1.0,78725,List2A,white,man,consent.html,,,,,,,
8911,"<p>On the next page, you will see portraits of 8 people and their names.</p><p>Your first task is to take a few minutes to memorise the names of these people.</p><p>You will have to recall their names during the rest of the experiment, so it is</p><p>essential that you try to memorise these people and their names as best as you can.</p><br><p><strong>You will then be tested on your memory of these names and portraits.</strong></p><br><p>The experiment will start after you have completed this memory test.</p><br><p>Ready?</p>",0,html-button-response,2,15823,0.0-2.0,78725,List2A,white,man,,,,,,,,
62480,"<img src='img/portrait_matrix_list2.jpg' style='width:900px;height:500px;''></img><p>If you have memorised all the portraits and names and are ready to start, press Continue.</p><p><strong>Please note: Your memory of these faces will be tested 4 times during this experiment.</strong></p>",0,html-button-response,3,79306,0.0-3.0-0.0,78725,List2A,white,man,,,,,,,,
2215,"<img src=""portrait/WW2.jpg""style=""height:400px;""></img>",3,html-button-response,4,82522,0.0-3.0-1.0,78725,List2A,white,man,,TRUE,3,,,,,
null,CORRECT,,html-keyboard-response,5,84029,0.0-3.0-2.0-0.0,78725,List2A,white,man,,,,null,,,,
2241,"<img src=""portrait/WM1.jpg""style=""height:400px;""></img>",6,html-button-response,6,86271,0.0-3.0-4.0,78725,List2A,white,man,,TRUE,6,,,,,
null,CORRECT,,html-keyboard-response,7,87775,0.0-3.0-5.0-0.0,78725,List2A,white,man,,,,null,,,,
1912,"<img src=""portrait/WW1.jpg""style=""height:400px;""></img>",1,html-button-response,8,89690,0.0-3.0-7.0,78725,List2A,white,man,,TRUE,1,,,,,
null,CORRECT,,html-keyboard-response,9,91193,0.0-3.0-8.0-0.0,78725,List2A,white,man,,,,null,,,,
2427,"<img src=""portrait/BW2.jpg""style=""height:400px;""></img>",2,html-button-response,10,93620,0.0-3.0-10.0,78725,List2A,white,man,,TRUE,2,,,,,
null,CORRECT,,html-keyboard-response,11,95123,0.0-3.0-11.0-0.0,78725,List2A,white,man,,,,null,,,,
1841,"<img src=""portrait/WM2.jpg""style=""height:400px;""></img>",7,html-button-response,12,96964,0.0-3.0-13.0,78725,List2A,white,man,,TRUE,7,,,,,
null,CORRECT,,html-keyboard-response,13,98467,0.0-3.0-14.0-0.0,78725,List2A,white,man,,,,null,,,,
2866,"<img src=""portrait/BM2.jpg""style=""height:400px;""></img>",4,html-button-response,14,101334,0.0-3.0-16.0,78725,List2A,white,man,,TRUE,5,,,,,
2924,"<img src=""portrait/BM2.jpg""style=""height:400px;""></img>",5,html-button-response,15,105260,0.0-3.0-18.0-0.0,78725,List2A,white,man,,FALSE,5,,,,,
null,CORRECT,,html-keyboard-response,16,106763,0.0-3.0-18.0-1.0-0.0,78725,List2A,white,man,,,,null,,,,
4082,"<img src=""portrait/BW1.jpg""style=""height:400px;""></img>",0,html-button-response,17,110846,0.0-3.0-19.0,78725,List2A,white,man,,TRUE,0,,,,,
null,CORRECT,,html-keyboard-response,18,112350,0.0-3.0-20.0-0.0,78725,List2A,white,man,,,,null,,,,
1719,"<img src=""portrait/BM1.jpg""style=""height:400px;""></img>",4,html-button-response,19,114070,0.0-3.0-22.0,78725,List2A,white,man,,TRUE,4,,,,,
null,CORRECT,,html-keyboard-response,20,115574,0.0-3.0-23.0-0.0,78725,List2A,white,man,,,,null,,,,
1264,<p>You got 7 out of 8 right first time. Press Continue.</p>,0,html-button-response,21,116841,0.0-3.0-25.0,78725,List2A,white,man,,,,,,,,
2167,"As you did not score 100%, the memory game will repeat. Press Continue.",0,html-button-response,22,120008,0.0-3.0-26.0-0.0,78725,List2A,white,man,,,,,,,,
1254,"<img src='img/portrait_matrix_list2.jpg' style='width:900px;height:500px;''></img><p>If you have memorised all the portraits and names and are ready to start, press Continue.</p><p><strong>Please note: Your memory of these faces will be tested 4 times during this experiment.</strong></p>",0,html-button-response,23,122264,0.0-3.1-0.1,78725,List2A,white,man,,,,,,,,
1155,"<img src=""portrait/WW2.jpg""style=""height:400px;""></img>",3,html-button-response,24,124421,0.0-3.1-1.1,78725,List2A,white,man,,TRUE,3,,,,,
null,CORRECT,,html-keyboard-response,25,125926,0.0-3.1-2.1-0.1,78725,List2A,white,man,,,,null,,,,
1895,"<img src=""portrait/WM1.jpg""style=""height:400px;""></img>",6,html-button-response,26,127821,0.0-3.1-4.1,78725,List2A,white,man,,TRUE,6,,,,,
null,CORRECT,,html-keyboard-response,27,129323,0.0-3.1-5.1-0.1,78725,List2A,white,man,,,,null,,,,
1827,"<img src=""portrait/WW1.jpg""style=""height:400px;""></img>",1,html-button-response,28,131151,0.0-3.1-7.1,78725,List2A,white,man,,TRUE,1,,,,,
null,CORRECT,,html-keyboard-response,29,132652,0.0-3.1-8.1-0.1,78725,List2A,white,man,,,,null,,,,
2321,"<img src=""portrait/BW2.jpg""style=""height:400px;""></img>",2,html-button-response,30,134974,0.0-3.1-10.1,78725,List2A,white,man,,TRUE,2,,,,,
null,CORRECT,,html-keyboard-response,31,136477,0.0-3.1-11.1-0.1,78725,List2A,white,man,,,,null,,,,
1284,"<img src=""portrait/WM2.jpg""style=""height:400px;""></img>",7,html-button-response,32,137762,0.0-3.1-13.1,78725,List2A,white,man,,TRUE,7,,,,,
null,CORRECT,,html-keyboard-response,33,139266,0.0-3.1-14.1-0.1,78725,List2A,white,man,,,,null,,,,
7874,"<img src=""portrait/BM2.jpg""style=""height:400px;""></img>",5,html-button-response,34,147140,0.0-3.1-16.1,78725,List2A,white,man,,TRUE,5,,,,,
null,CORRECT,,html-keyboard-response,35,148643,0.0-3.1-17.1-0.1,78725,List2A,white,man,,,,null,,,,
2064,"<img src=""portrait/BW1.jpg""style=""height:400px;""></img>",0,html-button-response,36,150708,0.0-3.1-19.1,78725,List2A,white,man,,TRUE,0,,,,,
null,CORRECT,,html-keyboard-response,37,152211,0.0-3.1-20.1-0.1,78725,List2A,white,man,,,,null,,,,
1375,"<img src=""portrait/BM1.jpg""style=""height:400px;""></img>",4,html-button-response,38,153587,0.0-3.1-22.1,78725,List2A,white,man,,TRUE,4,,,,,
null,CORRECT,,html-keyboard-response,39,155090,0.0-3.1-23.1-0.1,78725,List2A,white,man,,,,null,,,,
1169,<p>You got 8 out of 8 right first time. Press Continue.</p>,0,html-button-response,40,156260,0.0-3.1-25.1,78725,List2A,white,man,,,,,,,,
24450,"<p>In this experiment, you will view photographs of the people from the memory game interacting.</p><p>By using the <strong>exact</strong> phrase given <i>after</i> the photograph appears and recalling the correct names of the people in the photographs, form a sentence describing the interaction. You do not need to capitalise names.</p><p>Type your answer in the space provided. Please complete every sentence before moving onto the next trial.</p><p>You will only have a few seconds to memorise each given photograph and phrase before you can respond, so try your best to focus.</p><p>An example is given below. Press 'Continue' when you are ready.</p><img src='img/speaking_example.jpg' style='width:800px;height:460px;''></img>",0,html-button-response,41,181711,0.0-4.0,78725,List2A,white,man,,,,,,,,
1595,"<p>Before the experiment starts, you will watch two example trials. Press 'Continue'.</p>",0,html-button-response,42,184308,0.0-5.0,78725,List2A,white,man,,,,,,,,
null,<img src='img/meet_eg.gif' style='height:400px;''></img>,,html-keyboard-response,43,187310,0.0-6.0,78725,List2A,white,man,,,,null,,,,
null,<p>is meeting</p>,,html-keyboard-response,44,189312,0.0-7.0,78725,List2A,white,man,,,,null,,,,
1637,<p><b>Answer:</b> jane is meeting ruth</p>,0,html-button-response,45,190950,0.0-8.0,78725,List2A,white,man,,,,,,,,
null,<img src='img/look_eg.gif' style='height:400px;''></img>,,html-keyboard-response,46,193952,0.0-9.0,78725,List2A,white,man,,,,null,,,,
null,<p>are looking at each other</p>,,html-keyboard-response,47,195953,0.0-10.0,78725,List2A,white,man,,,,null,,,,
2270,<p><b>Answer:</b> fred and mike are looking at each other</p>,0,html-button-response,48,198223,0.0-11.0,78725,List2A,white,man,,,,,,,,
8107,"<p>Ready to start the experiment?</p><br><p><strong>Remember to describe the picture using a full sentence,</strong></p><p><strong>that combines the names of the people with the <i>exact</i> phrase given.</strong></p><p><strong>To receive full payment you must do this correctly.</strong></p><p><strong> You do not need to capitalise names or use punctuation.</strong></p><br><p>Press 'Continue' to begin.</p>",0,html-button-response,49,207332,0.0-12.0,78725,List2A,white,man,,,,,,,,
null,"<div style=""font-size:60px;"">+</div>",,html-keyboard-response,50,208834,0.0-13.0-0.0,78725,List2A,white,man,,,,null,,,,
null,"<img src=""stim_listA/marry6.gif""style=""height:400px;""></stim_listA>",,html-keyboard-response,51,210836,0.0-13.0-1.0,78725,List2A,white,man,,,,null,,,,
null,are marrying each other,,html-keyboard-response,52,212837,0.0-13.0-2.0,78725,List2A,white,man,,,,null,,,,
19983,,,survey-text,53,232821,0.0-13.0-3.0,78725,List2A,white,man,,,,,"{""Q0"":""mike and luke are marrying each other""}","<img src=""stim_listA/marry6.gif""style=""height:400px;""></stim_listA>",are marrying each other,
null,"<div style=""font-size:60px;"">+</div>",,html-keyboard-response,54,233322,0.0-13.0-0.1,78725,List2A,white,man,,,,null,,,,
null,"<img src=""stim_listA/talk2.gif""style=""height:400px;""></stim_listA>",,html-keyboard-response,55,235325,0.0-13.0-1.1,78725,List2A,white,man,,,,null,,,,
null,are talking to each other,,html-keyboard-response,56,237326,0.0-13.0-2.1,78725,List2A,white,man,,,,null,,,,
8982,,,survey-text,57,246308,0.0-13.0-3.1,78725,List2A,white,man,,,,,"{""Q0"":""ruth and dave are talking to each other""}","<img src=""stim_listA/talk2.gif""style=""height:400px;""></stim_listA>",are talking to each other,
null,"<div style=""font-size:60px;"">+</div>",,html-keyboard-response,58,246809,0.0-13.0-0.2,78725,List2A,white,man,,,,null,,,,
null,"<img src=""stim_listA/flirt7.gif""style=""height:400px;""></stim_listA>",,html-keyboard-response,59,248811,0.0-13.0-1.2,78725,List2A,white,man,,,,null,,,,
null,is flirting with,,html-keyboard-response,60,250812,0.0-13.0-2.2,78725,List2A,white,man,,,,null,,,,
9364,,,survey-text,61,260176,0.0-13.0-3.2,78725,List2A,white,man,,,,,"{""Q0"":""ruth is flirting with kate""}","<img src=""stim_listA/flirt7.gif""style=""height:400px;""></stim_listA>",is flirting with,
null,"<div style=""font-size:60px;"">+</div>",,html-keyboard-response,62,260677,0.0-13.0-0.3,78725,List2A,white,man,,,,null,,,,
null,"<img src=""stim_listA/marry8.gif""style=""height:400px;""></stim_listA>",,html-keyboard-response,63,262679,0.0-13.0-1.3,78725,List2A,white,man,,,,null,,,,
null,are marrying each other,,html-keyboard-response,64,264679,0.0-13.0-2.3,78725,List2A,white,man,,,,null,,,,
8175,,,survey-text,65,272856,0.0-13.0-3.3,78725,List2A,white,man,,,,,"{""Q0"":""ruth and kate are marrying each other""}","<img src=""stim_listA/marry8.gif""style=""height:400px;""></stim_listA>",are marrying each other,
null,"<div style=""font-size:60px;"">+</div>",,html-keyboard-response,66,273356,0.0-13.0-0.4,78725,List2A,white,man,,,,null,,,,
null,"<img src=""stim_listA/dance6.gif""style=""height:400px;""></stim_listA>",,html-keyboard-response,67,275358,0.0-13.0-1.4,78725,List2A,white,man,,,,null,,,,
null,are dancing with each other,,html-keyboard-response,68,277360,0.0-13.0-2.4,78725,List2A,white,man,,,,null,,,,
11741,,,survey-text,69,289102,0.0-13.0-3.4,78725,List2A,white,man,,,,,"{""Q0"":""dave and fred are dancing with each other""}","<img src=""stim_listA/dance6.gif""style=""height:400px;""></stim_listA>",are dancing with each other,
null,"<div style=""font-size:60px;"">+</div>",,html-keyboard-response,70,289604,0.0-13.0-0.5,78725,List2A,white,man,,,,null,,,,
null,"<img src=""stim_listA/flirt3.gif""style=""height:400px;""></stim_listA>",,html-keyboard-response,71,291606,0.0-13.0-1.5,78725,List2A,white,man,,,,null,,,,
null,is flirting with,,html-keyboard-response,72,293607,0.0-13.0-2.5,78725,List2A,white,man,,,,null,,,,
7360,,,survey-text,73,300969,0.0-13.0-3.5,78725,List2A,white,man,,,,,"{""Q0"":""fred is flirting with kate""}","<img src=""stim_listA/flirt3.gif""style=""height:400px;""></stim_listA>",is flirting with,
null,"<div style=""font-size:60px;"">+</div>",,html-keyboard-response,74,301471,0.0-13.0-0.6,78725,List2A,white,man,,,,null,,,,
null,"<img src=""stim_listA/argue5.gif""style=""height:400px;""></stim_listA>",,html-keyboard-response,75,303474,0.0-13.0-1.6,78725,List2A,white,man,,,,null,,,,
null,is arguing with,,html-keyboard-response,76,305480,0.0-13.0-2.6,78725,List2A,white,man,,,,null,,,,
6792,,,survey-text,77,312280,0.0-13.0-3.6,78725,List2A,white,man,,,,,"{""Q0"":""dave is arguing with fred""}","<img src=""stim_listA/argue5.gif""style=""height:400px;""></stim_listA>",is arguing with,
null,"<div style=""font-size:60px;"">+</div>",,html-keyboard-response,78,312781,0.0-13.0-0.7,78725,List2A,white,man,,,,null,,,,
null,"<img src=""stim_listA/shout6.gif""style=""height:400px;""></stim_listA>",,html-keyboard-response,79,314783,0.0-13.0-1.7,78725,List2A,white,man,,,,null,,,,
null,are shouting at each other,,html-keyboard-response,80,316784,0.0-13.0-2.7,78725,List2A,white,man,,,,null,,,,
15287,,,survey-text,81,332071,0.0-13.0-3.7,78725,List2A,white,man,,,,,"{""Q0"":""dave and mike are arguing with each other""}","<img src=""stim_listA/shout6.gif""style=""height:400px;""></stim_listA>",are shouting at each other,
null,"<div style=""font-size:60px;"">+</div>",,html-keyboard-response,82,332573,0.0-13.0-0.8,78725,List2A,white,man,,,,null,,,,
null,"<img src=""stim_listA/talk7.gif""style=""height:400px;""></stim_listA>",,html-keyboard-response,83,334574,0.0-13.0-1.8,78725,List2A,white,man,,,,null,,,,
null,is talking to,,html-keyboard-response,84,336576,0.0-13.0-2.8,78725,List2A,white,man,,,,null,,,,
5315,,,survey-text,85,341891,0.0-13.0-3.8,78725,List2A,white,man,,,,,"{""Q0"":""ruth is talking to kate""}","<img src=""stim_listA/talk7.gif""style=""height:400px;""></stim_listA>",is talking to,
null,"<div style=""font-size:60px;"">+</div>",,html-keyboard-response,86,342393,0.0-13.0-0.9,78725,List2A,white,man,,,,null,,,,
null,"<img src=""stim_listA/play5.gif""style=""height:400px;""></stim_listA>",,html-keyboard-response,87,344396,0.0-13.0-1.9,78725,List2A,white,man,,,,null,,,,
null,is playing with,,html-keyboard-response,88,346397,0.0-13.0-2.9,78725,List2A,white,man,,,,null,,,,
6632,,,survey-text,89,353031,0.0-13.0-3.9,78725,List2A,white,man,,,,,"{""Q0"":""dave is playing with mike""}","<img src=""stim_listA/play5.gif""style=""height:400px;""></stim_listA>",is playing with,
null,"<div style=""font-size:60px;"">+</div>",,html-keyboard-response,90,353532,0.0-13.0-0.10,78725,List2A,white,man,,,,null,,,,
null,"<img src=""stim_listA/flirt6.gif""style=""height:400px;""></stim_listA>",,html-keyboard-response,91,355534,0.0-13.0-1.10,78725,List2A,white,man,,,,null,,,,
null,are flirting with each other,,html-keyboard-response,92,357537,0.0-13.0-2.10,78725,List2A,white,man,,,,null,,,,
9988,,,survey-text,93,367525,0.0-13.0-3.10,78725,List2A,white,man,,,,,"{""Q0"":""dave and fred are flirting with each other""}","<img src=""stim_listA/flirt6.gif""style=""height:400px;""></stim_listA>",are flirting with each other,
null,"<div style=""font-size:60px;"">+</div>",,html-keyboard-response,94,368026,0.0-13.0-0.11,78725,List2A,white,man,,,,null,,,,
null,"<img src=""stim_listA/talk6.gif""style=""height:400px;""></stim_listA>",,html-keyboard-response,95,370028,0.0-13.0-1.11,78725,List2A,white,man,,,,null,,,,
null,are talking to each other,,html-keyboard-response,96,372030,0.0-13.0-2.11,78725,List2A,white,man,,,,null,,,,
6203,,,survey-text,97,378233,0.0-13.0-3.11,78725,List2A,white,man,,,,,"{""Q0"":""dave and fred are talking to each other""}","<img src=""stim_listA/talk6.gif""style=""height:400px;""></stim_listA>",are talking to each other,
null,"<div style=""font-size:60px;"">+</div>",,html-keyboard-response,98,378734,0.0-13.0-0.12,78725,List2A,white,man,,,,null,,,,
null,"<img src=""stim_listA/dance5.gif""style=""height:400px;""></stim_listA>",,html-keyboard-response,99,380739,0.0-13.0-1.12,78725,List2A,white,man,,,,null,,,,
null,is dancing with,,html-keyboard-response,100,382741,0.0-13.0-2.12,78725,List2A,white,man,,,,null,,,,
5459,,,survey-text,101,388201,0.0-13.0-3.12,78725,List2A,white,man,,,,,"{""Q0"":""mike is dancing with luke""}","<img src=""stim_listA/dance5.gif""style=""height:400px;""></stim_listA>",is dancing with,
null,"<div style=""font-size:60px;"">+</div>",,html-keyboard-response,102,388703,0.0-13.0-0.13,78725,List2A,white,man,,,,null,,,,
null,"<img src=""stim_listA/play8.gif""style=""height:400px;""></stim_listA>",,html-keyboard-response,103,390706,0.0-13.0-1.13,78725,List2A,white,man,,,,null,,,,
null,are playing with each other,,html-keyboard-response,104,392708,0.0-13.0-2.13,78725,List2A,white,man,,,,null,,,,
6763,,,survey-text,105,399472,0.0-13.0-3.13,78725,List2A,white,man,,,,,"{""Q0"":""kate and ruth are playing with each other""}","<img src=""stim_listA/play8.gif""style=""height:400px;""></stim_listA>",are playing with each other,
null,"<div style=""font-size:60px;"">+</div>",,html-keyboard-response,106,399973,0.0-13.0-0.14,78725,List2A,white,man,,,,null,,,,
null,"<img src=""stim_listA/fight2.gif""style=""height:400px;""></stim_listA>",,html-keyboard-response,107,401974,0.0-13.0-1.14,78725,List2A,white,man,,,,null,,,,
null,are fighting each other,,html-keyboard-response,108,403976,0.0-13.0-2.14,78725,List2A,white,man,,,,null,,,,
6883,,,survey-text,109,410862,0.0-13.0-3.14,78725,List2A,white,man,,,,,"{""Q0"":""ruth and luke are fighting each other""}","<img src=""stim_listA/fight2.gif""style=""height:400px;""></stim_listA>",are fighting each other,
null,"<div style=""font-size:60px;"">+</div>",,html-keyboard-response,110,411363,0.0-13.0-0.15,78725,List2A,white,man,,,,null,,,,
null,"<img src=""stim_listA/shout3.gif""style=""height:400px;""></stim_listA>",,html-keyboard-response,111,413364,0.0-13.0-1.15,78725,List2A,white,man,,,,null,,,,
null,is shouting at,,html-keyboard-response,112,415365,0.0-13.0-2.15,78725,List2A,white,man,,,,null,,,,
5212,,,survey-text,113,420579,0.0-13.0-3.15,78725,List2A,white,man,,,,,"{""Q0"":""fred is shouting at kate""}","<img src=""stim_listA/shout3.gif""style=""height:400px;""></stim_listA>",is shouting at,
null,"<div style=""font-size:60px;"">+</div>",,html-keyboard-response,114,421080,0.0-13.0-0.16,78725,List2A,white,man,,,,null,,,,
null,"<img src=""stim_listA/shout4.gif""style=""height:400px;""></stim_listA>",,html-keyboard-response,115,423082,0.0-13.0-1.16,78725,List2A,white,man,,,,null,,,,
null,are shouting at each other,,html-keyboard-response,116,425084,0.0-13.0-2.16,78725,List2A,white,man,,,,null,,,,
9832,,,survey-text,117,434917,0.0-13.0-3.16,78725,List2A,white,man,,,,,"{""Q0"":""kate and mike are shouting at each other""}","<img src=""stim_listA/shout4.gif""style=""height:400px;""></stim_listA>",are shouting at each other,
null,"<div style=""font-size:60px;"">+</div>",,html-keyboard-response,118,435419,0.0-13.0-0.17,78725,List2A,white,man,,,,null,,,,
null,"<img src=""stim_listA/argue2.gif""style=""height:400px;""></stim_listA>",,html-keyboard-response,119,437423,0.0-13.0-1.17,78725,List2A,white,man,,,,null,,,,
null,are arguing with each other,,html-keyboard-response,120,439425,0.0-13.0-2.17,78725,List2A,white,man,,,,null,,,,
13223,,,survey-text,121,452650,0.0-13.0-3.17,78725,List2A,white,man,,,,,"{""Q0"":""luke and jane are arguing with each other""}","<img src=""stim_listA/argue2.gif""style=""height:400px;""></stim_listA>",are arguing with each other,
null,"<div style=""font-size:60px;"">+</div>",,html-keyboard-response,122,453151,0.0-13.0-0.18,78725,List2A,white,man,,,,null,,,,
null,"<img src=""stim_listA/argue7.gif""style=""height:400px;""></stim_listA>",,html-keyboard-response,123,455154,0.0-13.0-1.18,78725,List2A,white,man,,,,null,,,,
null,is arguing with,,html-keyboard-response,124,457156,0.0-13.0-2.18,78725,List2A,white,man,,,,null,,,,
5512,,,survey-text,125,462670,0.0-13.0-3.18,78725,List2A,white,man,,,,,"{""Q0"":""jane is arguing with kate""}","<img src=""stim_listA/argue7.gif""style=""height:400px;""></stim_listA>",is arguing with,
null,"<div style=""font-size:60px;"">+</div>",,html-keyboard-response,126,463171,0.0-13.0-0.19,78725,List2A,white,man,,,,null,,,,
null,"<img src=""stim_listA/shout1.gif""style=""height:400px;""></stim_listA>",,html-keyboard-response,127,465173,0.0-13.0-1.19,78725,List2A,white,man,,,,null,,,,
null,is shouting at,,html-keyboard-response,128,467175,0.0-13.0-2.19,78725,List2A,white,man,,,,null,,,,
6323,,,survey-text,129,473500,0.0-13.0-3.19,78725,List2A,white,man,,,,,"{""Q0"":""luke is shouting at ruth""}","<img src=""stim_listA/shout1.gif""style=""height:400px;""></stim_listA>",is shouting at,
25764,"<img src='img/portrait_matrix_list2.jpg' style='width:900px;height:500px;''></img><p>If you have memorised all the portraits and names and are ready to start, press Continue.</p><p><strong>Please note: Your memory of these faces will be tested 4 times during this experiment.</strong></p>",0,html-button-response,130,499264,0.0-14.0-0.0,78725,List2A,white,man,,,,,,,,
1888,"<img src=""portrait/BW1.jpg""style=""height:400px;""></img>",0,html-button-response,131,502154,0.0-14.0-1.0,78725,List2A,white,man,,TRUE,0,,,,,
null,CORRECT,,html-keyboard-response,132,503659,0.0-14.0-2.0-0.0,78725,List2A,white,man,,,,null,,,,
1558,"<img src=""portrait/WM1.jpg""style=""height:400px;""></img>",6,html-button-response,133,505218,0.0-14.0-4.0,78725,List2A,white,man,,TRUE,6,,,,,
null,CORRECT,,html-keyboard-response,134,506720,0.0-14.0-5.0-0.0,78725,List2A,white,man,,,,null,,,,
1422,"<img src=""portrait/BM1.jpg""style=""height:400px;""></img>",4,html-button-response,135,508143,0.0-14.0-7.0,78725,List2A,white,man,,TRUE,4,,,,,
null,CORRECT,,html-keyboard-response,136,509646,0.0-14.0-8.0-0.0,78725,List2A,white,man,,,,null,,,,
1957,"<img src=""portrait/BM2.jpg""style=""height:400px;""></img>",5,html-button-response,137,511605,0.0-14.0-10.0,78725,List2A,white,man,,TRUE,5,,,,,
null,CORRECT,,html-keyboard-response,138,513108,0.0-14.0-11.0-0.0,78725,List2A,white,man,,,,null,,,,
2389,"<img src=""portrait/BW2.jpg""style=""height:400px;""></img>",2,html-button-response,139,515498,0.0-14.0-13.0,78725,List2A,white,man,,TRUE,2,,,,,
null,CORRECT,,html-keyboard-response,140,517000,0.0-14.0-14.0-0.0,78725,List2A,white,man,,,,null,,,,
2366,"<img src=""portrait/WW1.jpg""style=""height:400px;""></img>",1,html-button-response,141,519366,0.0-14.0-16.0,78725,List2A,white,man,,TRUE,1,,,,,
null,CORRECT,,html-keyboard-response,142,520868,0.0-14.0-17.0-0.0,78725,List2A,white,man,,,,null,,,,
1423,"<img src=""portrait/WM2.jpg""style=""height:400px;""></img>",7,html-button-response,143,522291,0.0-14.0-19.0,78725,List2A,white,man,,TRUE,7,,,,,
null,CORRECT,,html-keyboard-response,144,523793,0.0-14.0-20.0-0.0,78725,List2A,white,man,,,,null,,,,
1326,"<img src=""portrait/WW2.jpg""style=""height:400px;""></img>",3,html-button-response,145,525121,0.0-14.0-22.0,78725,List2A,white,man,,TRUE,3,,,,,
null,CORRECT,,html-keyboard-response,146,526624,0.0-14.0-23.0-0.0,78725,List2A,white,man,,,,null,,,,
1226,<p>You got 8 out of 8 right first time. Press Continue.</p>,0,html-button-response,147,527851,0.0-14.0-25.0,78725,List2A,white,man,,,,,,,,
null,"<div style=""font-size:60px;"">+</div>",,html-keyboard-response,148,529355,0.0-15.0-0.0,78725,List2A,white,man,,,,null,,,,
null,"<img src=""stim_listA/flirt8.gif""style=""height:400px;""></stim_listA>",,html-keyboard-response,149,531358,0.0-15.0-1.0,78725,List2A,white,man,,,,null,,,,
null,are flirting with each other,,html-keyboard-response,150,533359,0.0-15.0-2.0,78725,List2A,white,man,,,,null,,,,
9411,,,survey-text,151,542771,0.0-15.0-3.0,78725,List2A,white,man,,,,,"{""Q0"":""beth and jane are flirting with each other""}","<img src=""stim_listA/flirt8.gif""style=""height:400px;""></stim_listA>",are flirting with each other,
null,"<div style=""font-size:60px;"">+</div>",,html-keyboard-response,152,543272,0.0-15.0-0.1,78725,List2A,white,man,,,,null,,,,
null,"<img src=""stim_listA/marry2.gif""style=""height:400px;""></stim_listA>",,html-keyboard-response,153,545276,0.0-15.0-1.1,78725,List2A,white,man,,,,null,,,,
null,are marrying each other,,html-keyboard-response,154,547278,0.0-15.0-2.1,78725,List2A,white,man,,,,null,,,,
7679,,,survey-text,155,554958,0.0-15.0-3.1,78725,List2A,white,man,,,,,"{""Q0"":""luke and jane are marrying each other""}","<img src=""stim_listA/marry2.gif""style=""height:400px;""></stim_listA>",are marrying each other,
null,"<div style=""font-size:60px;"">+</div>",,html-keyboard-response,156,555459,0.0-15.0-0.2,78725,List2A,white,man,,,,null,,,,
null,"<img src=""stim_listA/play1.gif""style=""height:400px;""></stim_listA>",,html-keyboard-response,157,557461,0.0-15.0-1.2,78725,List2A,white,man,,,,null,,,,
null,is playing with,,html-keyboard-response,158,559463,0.0-15.0-2.2,78725,List2A,white,man,,,,null,,,,
5703,,,survey-text,159,565166,0.0-15.0-3.2,78725,List2A,white,man,,,,,"{""Q0"":""dave is playing with jane""}","<img src=""stim_listA/play1.gif""style=""height:400px;""></stim_listA>",is playing with,
null,"<div style=""font-size:60px;"">+</div>",,html-keyboard-response,160,565667,0.0-15.0-0.3,78725,List2A,white,man,,,,null,,,,
null,"<img src=""stim_listA/kiss8.gif""style=""height:400px;""></stim_listA>",,html-keyboard-response,161,567669,0.0-15.0-1.3,78725,List2A,white,man,,,,null,,,,
null,are kissing each other,,html-keyboard-response,162,569671,0.0-15.0-2.3,78725,List2A,white,man,,,,null,,,,
7314,,,survey-text,163,576987,0.0-15.0-3.3,78725,List2A,white,man,,,,,"{""Q0"":""kate and jane are kissing each other""}","<img src=""stim_listA/kiss8.gif""style=""height:400px;""></stim_listA>",are kissing each other,
null,"<div style=""font-size:60px;"">+</div>",,html-keyboard-response,164,577489,0.0-15.0-0.4,78725,List2A,white,man,,,,null,,,,
null,"<img src=""stim_listA/fight4.gif""style=""height:400px;""></stim_listA>",,html-keyboard-response,165,579492,0.0-15.0-1.4,78725,List2A,white,man,,,,null,,,,
null,are fighting each other,,html-keyboard-response,166,581494,0.0-15.0-2.4,78725,List2A,white,man,,,,null,,,,
8049,,,survey-text,167,589544,0.0-15.0-3.4,78725,List2A,white,man,,,,,"{""Q0"":""beth and fred are fighting each other""}","<img src=""stim_listA/fight4.gif""style=""height:400px;""></stim_listA>",are fighting each other,
null,"<div style=""font-size:60px;"">+</div>",,html-keyboard-response,168,590046,0.0-15.0-0.5,78725,List2A,white,man,,,,null,,,,
null,"<img src=""stim_listA/kiss2.gif""style=""height:400px;""></stim_listA>",,html-keyboard-response,169,592047,0.0-15.0-1.5,78725,List2A,white,man,,,,null,,,,
null,are kissing each other,,html-keyboard-response,170,594048,0.0-15.0-2.5,78725,List2A,white,man,,,,null,,,,
5661,,,survey-text,171,599709,0.0-15.0-3.5,78725,List2A,white,man,,,,,"{""Q0"":""jane and dave are kissing each other""}","<img src=""stim_listA/kiss2.gif""style=""height:400px;""></stim_listA>",are kissing each other,
null,"<div style=""font-size:60px;"">+</div>",,html-keyboard-response,172,600210,0.0-15.0-0.6,78725,List2A,white,man,,,,null,,,,
null,"<img src=""stim_listA/touch5.gif""style=""height:400px;""></stim_listA>",,html-keyboard-response,173,602215,0.0-15.0-1.6,78725,List2A,white,man,,,,null,,,,
null,is touching,,html-keyboard-response,174,604218,0.0-15.0-2.6,78725,List2A,white,man,,,,null,,,,
8892,,,survey-text,175,613111,0.0-15.0-3.6,78725,List2A,white,man,,,,,"{""Q0"":""dave is touching mike""}","<img src=""stim_listA/touch5.gif""style=""height:400px;""></stim_listA>",is touching,
null,"<div style=""font-size:60px;"">+</div>",,html-keyboard-response,176,613614,0.0-15.0-0.7,78725,List2A,white,man,,,,null,,,,
null,"<img src=""stim_listA/fight3.gif""style=""height:400px;""></stim_listA>",,html-keyboard-response,177,615617,0.0-15.0-1.7,78725,List2A,white,man,,,,null,,,,
null,is fighting,,html-keyboard-response,178,617618,0.0-15.0-2.7,78725,List2A,white,man,,,,null,,,,
5486,,,survey-text,179,623105,0.0-15.0-3.7,78725,List2A,white,man,,,,,"{""Q0"":""mike is fighting kate""}","<img src=""stim_listA/fight3.gif""style=""height:400px;""></stim_listA>",is fighting,
null,"<div style=""font-size:60px;"">+</div>",,html-keyboard-response,180,623606,0.0-15.0-0.8,78725,List2A,white,man,,,,null,,,,
null,"<img src=""stim_listA/kiss5.gif""style=""height:400px;""></stim_listA>",,html-keyboard-response,181,625607,0.0-15.0-1.8,78725,List2A,white,man,,,,null,,,,
null,is kissing,,html-keyboard-response,182,627609,0.0-15.0-2.8,78725,List2A,white,man,,,,null,,,,
6566,,,survey-text,183,634176,0.0-15.0-3.8,78725,List2A,white,man,,,,,"{""Q0"":""luke is kissing fred""}","<img src=""stim_listA/kiss5.gif""style=""height:400px;""></stim_listA>",is kissing,
null,"<div style=""font-size:60px;"">+</div>",,html-keyboard-response,184,634676,0.0-15.0-0.9,78725,List2A,white,man,,,,null,,,,
null,"<img src=""stim_listA/fight5.gif""style=""height:400px;""></stim_listA>",,html-keyboard-response,185,636678,0.0-15.0-1.9,78725,List2A,white,man,,,,null,,,,
null,is fighting,,html-keyboard-response,186,638680,0.0-15.0-2.9,78725,List2A,white,man,,,,null,,,,
5708,,,survey-text,187,644389,0.0-15.0-3.9,78725,List2A,white,man,,,,,"{""Q0"":""dave is fighting mike""}","<img src=""stim_listA/fight5.gif""style=""height:400px;""></stim_listA>",is fighting,
null,"<div style=""font-size:60px;"">+</div>",,html-keyboard-response,188,644891,0.0-15.0-0.10,78725,List2A,white,man,,,,null,,,,
null,"<img src=""stim_listA/shout5.gif""style=""height:400px;""></stim_listA>",,html-keyboard-response,189,646893,0.0-15.0-1.10,78725,List2A,white,man,,,,null,,,,
null,is shouting at,,html-keyboard-response,190,648895,0.0-15.0-2.10,78725,List2A,white,man,,,,null,,,,
6505,,,survey-text,191,655401,0.0-15.0-3.10,78725,List2A,white,man,,,,,"{""Q0"":""luke is shouting at fred""}","<img src=""stim_listA/shout5.gif""style=""height:400px;""></stim_listA>",is shouting at,
null,"<div style=""font-size:60px;"">+</div>",,html-keyboard-response,192,655903,0.0-15.0-0.11,78725,List2A,white,man,,,,null,,,,
null,"<img src=""stim_listA/flirt5.gif""style=""height:400px;""></stim_listA>",,html-keyboard-response,193,657906,0.0-15.0-1.11,78725,List2A,white,man,,,,null,,,,
null,is flirting with,,html-keyboard-response,194,659907,0.0-15.0-2.11,78725,List2A,white,man,,,,null,,,,
6339,,,survey-text,195,666247,0.0-15.0-3.11,78725,List2A,white,man,,,,,"{""Q0"":""luke is flirting with mike""}","<img src=""stim_listA/flirt5.gif""style=""height:400px;""></stim_listA>",is flirting with,
null,"<div style=""font-size:60px;"">+</div>",,html-keyboard-response,196,666748,0.0-15.0-0.12,78725,List2A,white,man,,,,null,,,,
null,"<img src=""stim_listA/fight8.gif""style=""height:400px;""></stim_listA>",,html-keyboard-response,197,668751,0.0-15.0-1.12,78725,List2A,white,man,,,,null,,,,
null,are fighting each other,,html-keyboard-response,198,670753,0.0-15.0-2.12,78725,List2A,white,man,,,,null,,,,
6620,,,survey-text,199,677373,0.0-15.0-3.12,78725,List2A,white,man,,,,,"{""Q0"":""beth and ruth are fighting each other""}","<img src=""stim_listA/fight8.gif""style=""height:400px;""></stim_listA>",are fighting each other,
null,"<div style=""font-size:60px;"">+</div>",,html-keyboard-response,200,677875,0.0-15.0-0.13,78725,List2A,white,man,,,,null,,,,
null,"<img src=""stim_listA/talk8.gif""style=""height:400px;""></stim_listA>",,html-keyboard-response,201,679877,0.0-15.0-1.13,78725,List2A,white,man,,,,null,,,,
null,are talking to each other,,html-keyboard-response,202,681879,0.0-15.0-2.13,78725,List2A,white,man,,,,null,,,,
6449,,,survey-text,203,688328,0.0-15.0-3.13,78725,List2A,white,man,,,,,"{""Q0"":""beth and jane are talking to each other""}","<img src=""stim_listA/talk8.gif""style=""height:400px;""></stim_listA>",are talking to each other,
null,"<div style=""font-size:60px;"">+</div>",,html-keyboard-response,204,688830,0.0-15.0-0.14,78725,List2A,white,man,,,,null,,,,
null,"<img src=""stim_listA/marry3.gif""style=""height:400px;""></stim_listA>",,html-keyboard-response,205,690834,0.0-15.0-1.14,78725,List2A,white,man,,,,null,,,,
null,is marrying,,html-keyboard-response,206,692836,0.0-15.0-2.14,78725,List2A,white,man,,,,null,,,,
4649,,,survey-text,207,697486,0.0-15.0-3.14,78725,List2A,white,man,,,,,"{""Q0"":""beth is marrying mike""}","<img src=""stim_listA/marry3.gif""style=""height:400px;""></stim_listA>",is marrying,
null,"<div style=""font-size:60px;"">+</div>",,html-keyboard-response,208,697988,0.0-15.0-0.15,78725,List2A,white,man,,,,null,,,,
null,"<img src=""stim_listA/kiss7.gif""style=""height:400px;""></stim_listA>",,html-keyboard-response,209,699991,0.0-15.0-1.15,78725,List2A,white,man,,,,null,,,,
null,is kissing,,html-keyboard-response,210,701993,0.0-15.0-2.15,78725,List2A,white,man,,,,null,,,,
4202,,,survey-text,211,706195,0.0-15.0-3.15,78725,List2A,white,man,,,,,"{""Q0"":""beth is kissing ruth""}","<img src=""stim_listA/kiss7.gif""style=""height:400px;""></stim_listA>",is kissing,
null,"<div style=""font-size:60px;"">+</div>",,html-keyboard-response,212,706697,0.0-15.0-0.16,78725,List2A,white,man,,,,null,,,,
null,"<img src=""stim_listA/play6.gif""style=""height:400px;""></stim_listA>",,html-keyboard-response,213,708699,0.0-15.0-1.16,78725,List2A,white,man,,,,null,,,,
null,are playing with each other,,html-keyboard-response,214,710700,0.0-15.0-2.16,78725,List2A,white,man,,,,null,,,,
7690,,,survey-text,215,718391,0.0-15.0-3.16,78725,List2A,white,man,,,,,"{""Q0"":""fred and luke are playing with each other""}","<img src=""stim_listA/play6.gif""style=""height:400px;""></stim_listA>",are playing with each other,
null,"<div style=""font-size:60px;"">+</div>",,html-keyboard-response,216,718894,0.0-15.0-0.17,78725,List2A,white,man,,,,null,,,,
null,"<img src=""stim_listA/marry5.gif""style=""height:400px;""></stim_listA>",,html-keyboard-response,217,720896,0.0-15.0-1.17,78725,List2A,white,man,,,,null,,,,
null,is marrying,,html-keyboard-response,218,722899,0.0-15.0-2.17,78725,List2A,white,man,,,,null,,,,
4551,,,survey-text,219,727451,0.0-15.0-3.17,78725,List2A,white,man,,,,,"{""Q0"":""dave is marrying fred""}","<img src=""stim_listA/marry5.gif""style=""height:400px;""></stim_listA>",is marrying,
null,"<div style=""font-size:60px;"">+</div>",,html-keyboard-response,220,727952,0.0-15.0-0.18,78725,List2A,white,man,,,,null,,,,
null,"<img src=""stim_listA/marry7.gif""style=""height:400px;""></stim_listA>",,html-keyboard-response,221,729955,0.0-15.0-1.18,78725,List2A,white,man,,,,null,,,,
null,is marrying,,html-keyboard-response,222,731956,0.0-15.0-2.18,78725,List2A,white,man,,,,null,,,,
3901,,,survey-text,223,735857,0.0-15.0-3.18,78725,List2A,white,man,,,,,"{""Q0"":""beth is marrying jane""}","<img src=""stim_listA/marry7.gif""style=""height:400px;""></stim_listA>",is marrying,
null,"<div style=""font-size:60px;"">+</div>",,html-keyboard-response,224,736359,0.0-15.0-0.19,78725,List2A,white,man,,,,null,,,,
null,"<img src=""stim_listA/marry4.gif""style=""height:400px;""></stim_listA>",,html-keyboard-response,225,738362,0.0-15.0-1.19,78725,List2A,white,man,,,,null,,,,
null,are marrying each other,,html-keyboard-response,226,740363,0.0-15.0-2.19,78725,List2A,white,man,,,,null,,,,
6693,,,survey-text,227,747057,0.0-15.0-3.19,78725,List2A,white,man,,,,,"{""Q0"":""kate and fred are marrying each other""}","<img src=""stim_listA/marry4.gif""style=""height:400px;""></stim_listA>",are marrying each other,
2175,"<img src='img/portrait_matrix_list2.jpg' style='width:900px;height:500px;''></img><p>If you have memorised all the portraits and names and are ready to start, press Continue.</p><p><strong>Please note: Your memory of these faces will be tested 4 times during this experiment.</strong></p>",0,html-button-response,228,749234,0.0-16.0-0.0,78725,List2A,white,man,,,,,,,,
1155,"<img src=""portrait/WW2.jpg""style=""height:400px;""></img>",3,html-button-response,229,751391,0.0-16.0-1.0,78725,List2A,white,man,,TRUE,3,,,,,
null,CORRECT,,html-keyboard-response,230,752898,0.0-16.0-2.0-0.0,78725,List2A,white,man,,,,null,,,,
1680,"<img src=""portrait/BM2.jpg""style=""height:400px;""></img>",5,html-button-response,231,754579,0.0-16.0-4.0,78725,List2A,white,man,,TRUE,5,,,,,
null,CORRECT,,html-keyboard-response,232,756082,0.0-16.0-5.0-0.0,78725,List2A,white,man,,,,null,,,,
1118,"<img src=""portrait/WM1.jpg""style=""height:400px;""></img>",6,html-button-response,233,757200,0.0-16.0-7.0,78725,List2A,white,man,,TRUE,6,,,,,
null,CORRECT,,html-keyboard-response,234,758703,0.0-16.0-8.0-0.0,78725,List2A,white,man,,,,null,,,,
1003,"<img src=""portrait/WM2.jpg""style=""height:400px;""></img>",7,html-button-response,235,759706,0.0-16.0-10.0,78725,List2A,white,man,,TRUE,7,,,,,
null,CORRECT,,html-keyboard-response,236,761209,0.0-16.0-11.0-0.0,78725,List2A,white,man,,,,null,,,,
1580,"<img src=""portrait/BW1.jpg""style=""height:400px;""></img>",0,html-button-response,237,762790,0.0-16.0-13.0,78725,List2A,white,man,,TRUE,0,,,,,
null,CORRECT,,html-keyboard-response,238,764293,0.0-16.0-14.0-0.0,78725,List2A,white,man,,,,null,,,,
2094,"<img src=""portrait/WW1.jpg""style=""height:400px;""></img>",1,html-button-response,239,766388,0.0-16.0-16.0,78725,List2A,white,man,,TRUE,1,,,,,
null,CORRECT,,html-keyboard-response,240,767891,0.0-16.0-17.0-0.0,78725,List2A,white,man,,,,null,,,,
1693,"<img src=""portrait/BM1.jpg""style=""height:400px;""></img>",4,html-button-response,241,769586,0.0-16.0-19.0,78725,List2A,white,man,,TRUE,4,,,,,
null,CORRECT,,html-keyboard-response,242,771088,0.0-16.0-20.0-0.0,78725,List2A,white,man,,,,null,,,,
1827,"<img src=""portrait/BW2.jpg""style=""height:400px;""></img>",2,html-button-response,243,772916,0.0-16.0-22.0,78725,List2A,white,man,,TRUE,2,,,,,
null,CORRECT,,html-keyboard-response,244,774418,0.0-16.0-23.0-0.0,78725,List2A,white,man,,,,null,,,,
1035,<p>You got 8 out of 8 right first time. Press Continue.</p>,0,html-button-response,245,775454,0.0-16.0-25.0,78725,List2A,white,man,,,,,,,,
null,"<div style=""font-size:60px;"">+</div>",,html-keyboard-response,246,776957,0.0-17.0-0.0,78725,List2A,white,man,,,,null,,,,
null,"<img src=""stim_listA/fight7.gif""style=""height:400px;""></stim_listA>",,html-keyboard-response,247,778959,0.0-17.0-1.0,78725,List2A,white,man,,,,null,,,,
null,is fighting,,html-keyboard-response,248,780966,0.0-17.0-2.0,78725,List2A,white,man,,,,null,,,,
5580,,,survey-text,249,786549,0.0-17.0-3.0,78725,List2A,white,man,,,,,"{""Q0"":""ruth is fighting kate""}","<img src=""stim_listA/fight7.gif""style=""height:400px;""></stim_listA>",is fighting,
null,"<div style=""font-size:60px;"">+</div>",,html-keyboard-response,250,787051,0.0-17.0-0.1,78725,List2A,white,man,,,,null,,,,
null,"<img src=""stim_listA/play7.gif""style=""height:400px;""></stim_listA>",,html-keyboard-response,251,789054,0.0-17.0-1.1,78725,List2A,white,man,,,,null,,,,
null,is playing with,,html-keyboard-response,252,791055,0.0-17.0-2.1,78725,List2A,white,man,,,,null,,,,
5982,,,survey-text,253,797037,0.0-17.0-3.1,78725,List2A,white,man,,,,,"{""Q0"":""jane is playing with kate""}","<img src=""stim_listA/play7.gif""style=""height:400px;""></stim_listA>",is playing with,
null,"<div style=""font-size:60px;"">+</div>",,html-keyboard-response,254,797539,0.0-17.0-0.2,78725,List2A,white,man,,,,null,,,,
null,"<img src=""stim_listA/kiss3.gif""style=""height:400px;""></stim_listA>",,html-keyboard-response,255,799540,0.0-17.0-1.2,78725,List2A,white,man,,,,null,,,,
null,is kissing,,html-keyboard-response,256,801542,0.0-17.0-2.2,78725,List2A,white,man,,,,null,,,,
4192,,,survey-text,257,805735,0.0-17.0-3.2,78725,List2A,white,man,,,,,"{""Q0"":""beth is kissing fred""}","<img src=""stim_listA/kiss3.gif""style=""height:400px;""></stim_listA>",is kissing,
null,"<div style=""font-size:60px;"">+</div>",,html-keyboard-response,258,806237,0.0-17.0-0.3,78725,List2A,white,man,,,,null,,,,
null,"<img src=""stim_listA/kiss6.gif""style=""height:400px;""></stim_listA>",,html-keyboard-response,259,808238,0.0-17.0-1.3,78725,List2A,white,man,,,,null,,,,
null,are kissing each other,,html-keyboard-response,260,810239,0.0-17.0-2.3,78725,List2A,white,man,,,,null,,,,
6007,,,survey-text,261,816248,0.0-17.0-3.3,78725,List2A,white,man,,,,,"{""Q0"":""mike and dave are kissing each other""}","<img src=""stim_listA/kiss6.gif""style=""height:400px;""></stim_listA>",are kissing each other,
null,"<div style=""font-size:60px;"">+</div>",,html-keyboard-response,262,816750,0.0-17.0-0.4,78725,List2A,white,man,,,,null,,,,
null,"<img src=""stim_listA/flirt1.gif""style=""height:400px;""></stim_listA>",,html-keyboard-response,263,818752,0.0-17.0-1.4,78725,List2A,white,man,,,,null,,,,
null,is flirting with,,html-keyboard-response,264,820754,0.0-17.0-2.4,78725,List2A,white,man,,,,null,,,,
5633,,,survey-text,265,826387,0.0-17.0-3.4,78725,List2A,white,man,,,,,"{""Q0"":""luke is flirting with jane""}","<img src=""stim_listA/flirt1.gif""style=""height:400px;""></stim_listA>",is flirting with,
null,"<div style=""font-size:60px;"">+</div>",,html-keyboard-response,266,826889,0.0-17.0-0.5,78725,List2A,white,man,,,,null,,,,
null,"<img src=""stim_listA/marry1.gif""style=""height:400px;""></stim_listA>",,html-keyboard-response,267,828893,0.0-17.0-1.5,78725,List2A,white,man,,,,null,,,,
null,is marrying,,html-keyboard-response,268,830895,0.0-17.0-2.5,78725,List2A,white,man,,,,null,,,,
5937,,,survey-text,269,836832,0.0-17.0-3.5,78725,List2A,white,man,,,,,"{""Q0"":""dave is marrying ruth""}","<img src=""stim_listA/marry1.gif""style=""height:400px;""></stim_listA>",is marrying,
null,"<div style=""font-size:60px;"">+</div>",,html-keyboard-response,270,837334,0.0-17.0-0.6,78725,List2A,white,man,,,,null,,,,
null,"<img src=""stim_listA/fight1.gif""style=""height:400px;""></stim_listA>",,html-keyboard-response,271,839336,0.0-17.0-1.6,78725,List2A,white,man,,,,null,,,,
null,is fighting,,html-keyboard-response,272,841338,0.0-17.0-2.6,78725,List2A,white,man,,,,null,,,,
4526,,,survey-text,273,845865,0.0-17.0-3.6,78725,List2A,white,man,,,,,"{""Q0"":""dave is fighting jane""}","<img src=""stim_listA/fight1.gif""style=""height:400px;""></stim_listA>",is fighting,
null,"<div style=""font-size:60px;"">+</div>",,html-keyboard-response,274,846367,0.0-17.0-0.7,78725,List2A,white,man,,,,null,,,,
null,"<img src=""stim_listA/talk4.gif""style=""height:400px;""></stim_listA>",,html-keyboard-response,275,848370,0.0-17.0-1.7,78725,List2A,white,man,,,,null,,,,
null,are talking to each other,,html-keyboard-response,276,850372,0.0-17.0-2.7,78725,List2A,white,man,,,,null,,,,
7011,,,survey-text,277,857384,0.0-17.0-3.7,78725,List2A,white,man,,,,,"{""Q0"":""beth and mike are talking to each other""}","<img src=""stim_listA/talk4.gif""style=""height:400px;""></stim_listA>",are talking to each other,
null,"<div style=""font-size:60px;"">+</div>",,html-keyboard-response,278,857886,0.0-17.0-0.8,78725,List2A,white,man,,,,null,,,,
null,"<img src=""stim_listA/shout8.gif""style=""height:400px;""></stim_listA>",,html-keyboard-response,279,859889,0.0-17.0-1.8,78725,List2A,white,man,,,,null,,,,
null,are shouting at each other,,html-keyboard-response,280,861891,0.0-17.0-2.8,78725,List2A,white,man,,,,null,,,,
8023,,,survey-text,281,869914,0.0-17.0-3.8,78725,List2A,white,man,,,,,"{""Q0"":""jane and kate are shouting at each other""}","<img src=""stim_listA/shout8.gif""style=""height:400px;""></stim_listA>",are shouting at each other,
null,"<div style=""font-size:60px;"">+</div>",,html-keyboard-response,282,870415,0.0-17.0-0.9,78725,List2A,white,man,,,,null,,,,
null,"<img src=""stim_listA/dance8.gif""style=""height:400px;""></stim_listA>",,html-keyboard-response,283,872418,0.0-17.0-1.9,78725,List2A,white,man,,,,null,,,,
null,are dancing with each other,,html-keyboard-response,284,874420,0.0-17.0-2.9,78725,List2A,white,man,,,,null,,,,
6274,,,survey-text,285,880695,0.0-17.0-3.9,78725,List2A,white,man,,,,,"{""Q0"":""jane and beth are dancing with each other""}","<img src=""stim_listA/dance8.gif""style=""height:400px;""></stim_listA>",are dancing with each other,
null,"<div style=""font-size:60px;"">+</div>",,html-keyboard-response,286,881197,0.0-17.0-0.10,78725,List2A,white,man,,,,null,,,,
null,"<img src=""stim_listA/argue6.gif""style=""height:400px;""></stim_listA>",,html-keyboard-response,287,883201,0.0-17.0-1.10,78725,List2A,white,man,,,,null,,,,
null,are arguing with each other,,html-keyboard-response,288,885203,0.0-17.0-2.10,78725,List2A,white,man,,,,null,,,,
7702,,,survey-text,289,892907,0.0-17.0-3.10,78725,List2A,white,man,,,,,"{""Q0"":""mike and luke are arguing with each other""}","<img src=""stim_listA/argue6.gif""style=""height:400px;""></stim_listA>",are arguing with each other,
null,"<div style=""font-size:60px;"">+</div>",,html-keyboard-response,290,893408,0.0-17.0-0.11,78725,List2A,white,man,,,,null,,,,
null,"<img src=""stim_listA/dance7.gif""style=""height:400px;""></stim_listA>",,html-keyboard-response,291,895410,0.0-17.0-1.11,78725,List2A,white,man,,,,null,,,,
null,is dancing with,,html-keyboard-response,292,897412,0.0-17.0-2.11,78725,List2A,white,man,,,,null,,,,
5141,,,survey-text,293,902554,0.0-17.0-3.11,78725,List2A,white,man,,,,,"{""Q0"":""kate is dancing with ruth""}","<img src=""stim_listA/dance7.gif""style=""height:400px;""></stim_listA>",is dancing with,
null,"<div style=""font-size:60px;"">+</div>",,html-keyboard-response,294,903055,0.0-17.0-0.12,78725,List2A,white,man,,,,null,,,,
null,"<img src=""stim_listA/touch2.gif""style=""height:400px;""></stim_listA>",,html-keyboard-response,295,905056,0.0-17.0-1.12,78725,List2A,white,man,,,,null,,,,
null,are touching each other,,html-keyboard-response,296,907060,0.0-17.0-2.12,78725,List2A,white,man,,,,null,,,,
6367,,,survey-text,297,913429,0.0-17.0-3.12,78725,List2A,white,man,,,,,"{""Q0"":""ruth and luke are touching each other""}","<img src=""stim_listA/touch2.gif""style=""height:400px;""></stim_listA>",are touching each other,
null,"<div style=""font-size:60px;"">+</div>",,html-keyboard-response,298,913930,0.0-17.0-0.13,78725,List2A,white,man,,,,null,,,,
null,"<img src=""stim_listA/dance1.gif""style=""height:400px;""></stim_listA>",,html-keyboard-response,299,915931,0.0-17.0-1.13,78725,List2A,white,man,,,,null,,,,
null,is dancing with,,html-keyboard-response,300,917934,0.0-17.0-2.13,78725,List2A,white,man,,,,null,,,,
5886,,,survey-text,301,923821,0.0-17.0-3.13,78725,List2A,white,man,,,,,"{""Q0"":""luke is dancing with jane""}","<img src=""stim_listA/dance1.gif""style=""height:400px;""></stim_listA>",is dancing with,
null,"<div style=""font-size:60px;"">+</div>",,html-keyboard-response,302,924322,0.0-17.0-0.14,78725,List2A,white,man,,,,null,,,,
null,"<img src=""stim_listA/touch8.gif""style=""height:400px;""></stim_listA>",,html-keyboard-response,303,926325,0.0-17.0-1.14,78725,List2A,white,man,,,,null,,,,
null,are touching each other,,html-keyboard-response,304,928330,0.0-17.0-2.14,78725,List2A,white,man,,,,null,,,,
6542,,,survey-text,305,934872,0.0-17.0-3.14,78725,List2A,white,man,,,,,"{""Q0"":""beth and ruth are touching each other""}","<img src=""stim_listA/touch8.gif""style=""height:400px;""></stim_listA>",are touching each other,
null,"<div style=""font-size:60px;"">+</div>",,html-keyboard-response,306,935373,0.0-17.0-0.15,78725,List2A,white,man,,,,null,,,,
null,"<img src=""stim_listA/touch1.gif""style=""height:400px;""></stim_listA>",,html-keyboard-response,307,937376,0.0-17.0-1.15,78725,List2A,white,man,,,,null,,,,
null,is touching,,html-keyboard-response,308,939377,0.0-17.0-2.15,78725,List2A,white,man,,,,null,,,,
4256,,,survey-text,309,943633,0.0-17.0-3.15,78725,List2A,white,man,,,,,"{""Q0"":""dave is touching jane""}","<img src=""stim_listA/touch1.gif""style=""height:400px;""></stim_listA>",is touching,
null,"<div style=""font-size:60px;"">+</div>",,html-keyboard-response,310,944134,0.0-17.0-0.16,78725,List2A,white,man,,,,null,,,,
null,"<img src=""stim_listA/argue3.gif""style=""height:400px;""></stim_listA>",,html-keyboard-response,311,946137,0.0-17.0-1.16,78725,List2A,white,man,,,,null,,,,
null,is arguing with,,html-keyboard-response,312,948138,0.0-17.0-2.16,78725,List2A,white,man,,,,null,,,,
4996,,,survey-text,313,953135,0.0-17.0-3.16,78725,List2A,white,man,,,,,"{""Q0"":""mike is arguing with beth""}","<img src=""stim_listA/argue3.gif""style=""height:400px;""></stim_listA>",is arguing with,
null,"<div style=""font-size:60px;"">+</div>",,html-keyboard-response,314,953636,0.0-17.0-0.17,78725,List2A,white,man,,,,null,,,,
null,"<img src=""stim_listA/play2.gif""style=""height:400px;""></stim_listA>",,html-keyboard-response,315,955637,0.0-17.0-1.17,78725,List2A,white,man,,,,null,,,,
null,are playing with each other,,html-keyboard-response,316,957638,0.0-17.0-2.17,78725,List2A,white,man,,,,null,,,,
6258,,,survey-text,317,963896,0.0-17.0-3.17,78725,List2A,white,man,,,,,"{""Q0"":""ruth and luke are playing with each other""}","<img src=""stim_listA/play2.gif""style=""height:400px;""></stim_listA>",are playing with each other,
null,"<div style=""font-size:60px;"">+</div>",,html-keyboard-response,318,964398,0.0-17.0-0.18,78725,List2A,white,man,,,,null,,,,
null,"<img src=""stim_listA/kiss1.gif""style=""height:400px;""></stim_listA>",,html-keyboard-response,319,966400,0.0-17.0-1.18,78725,List2A,white,man,,,,null,,,,
null,is kissing,,html-keyboard-response,320,968402,0.0-17.0-2.18,78725,List2A,white,man,,,,null,,,,
5027,,,survey-text,321,973429,0.0-17.0-3.18,78725,List2A,white,man,,,,,"{""Q0"":""luke is kissing ruth""}","<img src=""stim_listA/kiss1.gif""style=""height:400px;""></stim_listA>",is kissing,
null,"<div style=""font-size:60px;"">+</div>",,html-keyboard-response,322,973931,0.0-17.0-0.19,78725,List2A,white,man,,,,null,,,,
null,"<img src=""stim_listA/shout2.gif""style=""height:400px;""></stim_listA>",,html-keyboard-response,323,975935,0.0-17.0-1.19,78725,List2A,white,man,,,,null,,,,
null,are shouting at each other,,html-keyboard-response,324,977939,0.0-17.0-2.19,78725,List2A,white,man,,,,null,,,,
8052,,,survey-text,325,985992,0.0-17.0-3.19,78725,List2A,white,man,,,,,"{""Q0"":""jane and dave are shouting at each other""}","<img src=""stim_listA/shout2.gif""style=""height:400px;""></stim_listA>",are shouting at each other,
1776,"<img src='img/portrait_matrix_list2.jpg' style='width:900px;height:500px;''></img><p>If you have memorised all the portraits and names and are ready to start, press Continue.</p><p><strong>Please note: Your memory of these faces will be tested 4 times during this experiment.</strong></p>",0,html-button-response,326,987769,0.0-18.0-0.0,78725,List2A,white,man,,,,,,,,
2051,"<img src=""portrait/WM1.jpg""style=""height:400px;""></img>",6,html-button-response,327,990821,0.0-18.0-1.0,78725,List2A,white,man,,TRUE,6,,,,,
null,CORRECT,,html-keyboard-response,328,992325,0.0-18.0-2.0-0.0,78725,List2A,white,man,,,,null,,,,
935,"<img src=""portrait/WM2.jpg""style=""height:400px;""></img>",7,html-button-response,329,993260,0.0-18.0-4.0,78725,List2A,white,man,,TRUE,7,,,,,
null,CORRECT,,html-keyboard-response,330,994762,0.0-18.0-5.0-0.0,78725,List2A,white,man,,,,null,,,,
1677,"<img src=""portrait/BW2.jpg""style=""height:400px;""></img>",2,html-button-response,331,996440,0.0-18.0-7.0,78725,List2A,white,man,,TRUE,2,,,,,
null,CORRECT,,html-keyboard-response,332,997945,0.0-18.0-8.0-0.0,78725,List2A,white,man,,,,null,,,,
1213,"<img src=""portrait/BW1.jpg""style=""height:400px;""></img>",0,html-button-response,333,999160,0.0-18.0-10.0,78725,List2A,white,man,,TRUE,0,,,,,
null,CORRECT,,html-keyboard-response,334,1000663,0.0-18.0-11.0-0.0,78725,List2A,white,man,,,,null,,,,
1600,"<img src=""portrait/BM2.jpg""style=""height:400px;""></img>",5,html-button-response,335,1002264,0.0-18.0-13.0,78725,List2A,white,man,,TRUE,5,,,,,
null,CORRECT,,html-keyboard-response,336,1003766,0.0-18.0-14.0-0.0,78725,List2A,white,man,,,,null,,,,
1458,"<img src=""portrait/WW1.jpg""style=""height:400px;""></img>",1,html-button-response,337,1005225,0.0-18.0-16.0,78725,List2A,white,man,,TRUE,1,,,,,
null,CORRECT,,html-keyboard-response,338,1006728,0.0-18.0-17.0-0.0,78725,List2A,white,man,,,,null,,,,
1825,"<img src=""portrait/BM1.jpg""style=""height:400px;""></img>",4,html-button-response,339,1008554,0.0-18.0-19.0,78725,List2A,white,man,,TRUE,4,,,,,
null,CORRECT,,html-keyboard-response,340,1010056,0.0-18.0-20.0-0.0,78725,List2A,white,man,,,,null,,,,
1065,"<img src=""portrait/WW2.jpg""style=""height:400px;""></img>",3,html-button-response,341,1011124,0.0-18.0-22.0,78725,List2A,white,man,,TRUE,3,,,,,
null,CORRECT,,html-keyboard-response,342,1012628,0.0-18.0-23.0-0.0,78725,List2A,white,man,,,,null,,,,
1030,<p>You got 8 out of 8 right first time. Press Continue.</p>,0,html-button-response,343,1013661,0.0-18.0-25.0,78725,List2A,white,man,,,,,,,,
null,"<div style=""font-size:60px;"">+</div>",,html-keyboard-response,344,1015163,0.0-19.0-0.0,78725,List2A,white,man,,,,null,,,,
null,"<img src=""stim_listA/argue4.gif""style=""height:400px;""></stim_listA>",,html-keyboard-response,345,1017165,0.0-19.0-1.0,78725,List2A,white,man,,,,null,,,,
null,are arguing with each other,,html-keyboard-response,346,1019166,0.0-19.0-2.0,78725,List2A,white,man,,,,null,,,,
8402,,,survey-text,347,1027569,0.0-19.0-3.0,78725,List2A,white,man,,,,,"{""Q0"":""kate and fred are arguing with each other""}","<img src=""stim_listA/argue4.gif""style=""height:400px;""></stim_listA>",are arguing with each other,
null,"<div style=""font-size:60px;"">+</div>",,html-keyboard-response,348,1028070,0.0-19.0-0.1,78725,List2A,white,man,,,,null,,,,
null,"<img src=""stim_listA/dance2.gif""style=""height:400px;""></stim_listA>",,html-keyboard-response,349,1030071,0.0-19.0-1.1,78725,List2A,white,man,,,,null,,,,
null,are dancing with each other,,html-keyboard-response,350,1032074,0.0-19.0-2.1,78725,List2A,white,man,,,,null,,,,
8176,,,survey-text,351,1040250,0.0-19.0-3.1,78725,List2A,white,man,,,,,"{""Q0"":""ruth and dave are dancing with each other""}","<img src=""stim_listA/dance2.gif""style=""height:400px;""></stim_listA>",are dancing with each other,
null,"<div style=""font-size:60px;"">+</div>",,html-keyboard-response,352,1040751,0.0-19.0-0.2,78725,List2A,white,man,,,,null,,,,
null,"<img src=""stim_listA/flirt2.gif""style=""height:400px;""></stim_listA>",,html-keyboard-response,353,1042754,0.0-19.0-1.2,78725,List2A,white,man,,,,null,,,,
null,are flirting with each other,,html-keyboard-response,354,1044756,0.0-19.0-2.2,78725,List2A,white,man,,,,null,,,,
6404,,,survey-text,355,1051162,0.0-19.0-3.2,78725,List2A,white,man,,,,,"{""Q0"":""ruth and dave are flirting with each other""}","<img src=""stim_listA/flirt2.gif""style=""height:400px;""></stim_listA>",are flirting with each other,
null,"<div style=""font-size:60px;"">+</div>",,html-keyboard-response,356,1051663,0.0-19.0-0.3,78725,List2A,white,man,,,,null,,,,
null,"<img src=""stim_listA/touch6.gif""style=""height:400px;""></stim_listA>",,html-keyboard-response,357,1053666,0.0-19.0-1.3,78725,List2A,white,man,,,,null,,,,
null,are touching each other,,html-keyboard-response,358,1055668,0.0-19.0-2.3,78725,List2A,white,man,,,,null,,,,
5987,,,survey-text,359,1061655,0.0-19.0-3.3,78725,List2A,white,man,,,,,"{""Q0"":""fred and luke are touching each other""}","<img src=""stim_listA/touch6.gif""style=""height:400px;""></stim_listA>",are touching each other,
null,"<div style=""font-size:60px;"">+</div>",,html-keyboard-response,360,1062157,0.0-19.0-0.4,78725,List2A,white,man,,,,null,,,,
null,"<img src=""stim_listA/dance4.gif""style=""height:400px;""></stim_listA>",,html-keyboard-response,361,1064159,0.0-19.0-1.4,78725,List2A,white,man,,,,null,,,,
null,are dancing with each other,,html-keyboard-response,362,1066161,0.0-19.0-2.4,78725,List2A,white,man,,,,null,,,,
12480,,,survey-text,363,1078643,0.0-19.0-3.4,78725,List2A,white,man,,,,,"{""Q0"":""mike and beth are dancing with each other""}","<img src=""stim_listA/dance4.gif""style=""height:400px;""></stim_listA>",are dancing with each other,
null,"<div style=""font-size:60px;"">+</div>",,html-keyboard-response,364,1079146,0.0-19.0-0.5,78725,List2A,white,man,,,,null,,,,
null,"<img src=""stim_listA/play4.gif""style=""height:400px;""></stim_listA>",,html-keyboard-response,365,1081147,0.0-19.0-1.5,78725,List2A,white,man,,,,null,,,,
null,are playing with each other,,html-keyboard-response,366,1083148,0.0-19.0-2.5,78725,List2A,white,man,,,,null,,,,
6603,,,survey-text,367,1089752,0.0-19.0-3.5,78725,List2A,white,man,,,,,"{""Q0"":""beth and fred are playing with each other""}","<img src=""stim_listA/play4.gif""style=""height:400px;""></stim_listA>",are playing with each other,
null,"<div style=""font-size:60px;"">+</div>",,html-keyboard-response,368,1090253,0.0-19.0-0.6,78725,List2A,white,man,,,,null,,,,
null,"<img src=""stim_listA/play3.gif""style=""height:400px;""></stim_listA>",,html-keyboard-response,369,1092254,0.0-19.0-1.6,78725,List2A,white,man,,,,null,,,,
null,is playing with,,html-keyboard-response,370,1094255,0.0-19.0-2.6,78725,List2A,white,man,,,,null,,,,
4587,,,survey-text,371,1098843,0.0-19.0-3.6,78725,List2A,white,man,,,,,"{""Q0"":""luke is playing with kate""}","<img src=""stim_listA/play3.gif""style=""height:400px;""></stim_listA>",is playing with,
null,"<div style=""font-size:60px;"">+</div>",,html-keyboard-response,372,1099347,0.0-19.0-0.7,78725,List2A,white,man,,,,null,,,,
null,"<img src=""stim_listA/talk3.gif""style=""height:400px;""></stim_listA>",,html-keyboard-response,373,1101351,0.0-19.0-1.7,78725,List2A,white,man,,,,null,,,,
null,is talking to,,html-keyboard-response,374,1103353,0.0-19.0-2.7,78725,List2A,white,man,,,,null,,,,
4184,,,survey-text,375,1107537,0.0-19.0-3.7,78725,List2A,white,man,,,,,"{""Q0"":""fred is talking to kate""}","<img src=""stim_listA/talk3.gif""style=""height:400px;""></stim_listA>",is talking to,
null,"<div style=""font-size:60px;"">+</div>",,html-keyboard-response,376,1108038,0.0-19.0-0.8,78725,List2A,white,man,,,,null,,,,
null,"<img src=""stim_listA/dance3.gif""style=""height:400px;""></stim_listA>",,html-keyboard-response,377,1110041,0.0-19.0-1.8,78725,List2A,white,man,,,,null,,,,
null,is dancing with,,html-keyboard-response,378,1112044,0.0-19.0-2.8,78725,List2A,white,man,,,,null,,,,
4794,,,survey-text,379,1116838,0.0-19.0-3.8,78725,List2A,white,man,,,,,"{""Q0"":""fred is dancing with kate""}","<img src=""stim_listA/dance3.gif""style=""height:400px;""></stim_listA>",is dancing with,
null,"<div style=""font-size:60px;"">+</div>",,html-keyboard-response,380,1117340,0.0-19.0-0.9,78725,List2A,white,man,,,,null,,,,
null,"<img src=""stim_listA/touch4.gif""style=""height:400px;""></stim_listA>",,html-keyboard-response,381,1119344,0.0-19.0-1.9,78725,List2A,white,man,,,,null,,,,
null,are touching each other,,html-keyboard-response,382,1121347,0.0-19.0-2.9,78725,List2A,white,man,,,,null,,,,
6435,,,survey-text,383,1127784,0.0-19.0-3.9,78725,List2A,white,man,,,,,"{""Q0"":""beth and fred are touching each other""}","<img src=""stim_listA/touch4.gif""style=""height:400px;""></stim_listA>",are touching each other,
null,"<div style=""font-size:60px;"">+</div>",,html-keyboard-response,384,1128286,0.0-19.0-0.10,78725,List2A,white,man,,,,null,,,,
null,"<img src=""stim_listA/talk5.gif""style=""height:400px;""></stim_listA>",,html-keyboard-response,385,1130290,0.0-19.0-1.10,78725,List2A,white,man,,,,null,,,,
null,is talking to,,html-keyboard-response,386,1132292,0.0-19.0-2.10,78725,List2A,white,man,,,,null,,,,
4649,,,survey-text,387,1136942,0.0-19.0-3.10,78725,List2A,white,man,,,,,"{""Q0"":""luke is talking to mike""}","<img src=""stim_listA/talk5.gif""style=""height:400px;""></stim_listA>",is talking to,
null,"<div style=""font-size:60px;"">+</div>",,html-keyboard-response,388,1137442,0.0-19.0-0.11,78725,List2A,white,man,,,,null,,,,
null,"<img src=""stim_listA/flirt4.gif""style=""height:400px;""></stim_listA>",,html-keyboard-response,389,1139446,0.0-19.0-1.11,78725,List2A,white,man,,,,null,,,,
null,are flirting with each other,,html-keyboard-response,390,1141448,0.0-19.0-2.11,78725,List2A,white,man,,,,null,,,,
6372,,,survey-text,391,1147821,0.0-19.0-3.11,78725,List2A,white,man,,,,,"{""Q0"":""beth and mike are flirting with each other""}","<img src=""stim_listA/flirt4.gif""style=""height:400px;""></stim_listA>",are flirting with each other,
null,"<div style=""font-size:60px;"">+</div>",,html-keyboard-response,392,1148322,0.0-19.0-0.12,78725,List2A,white,man,,,,null,,,,
null,"<img src=""stim_listA/kiss4.gif""style=""height:400px;""></stim_listA>",,html-keyboard-response,393,1150323,0.0-19.0-1.12,78725,List2A,white,man,,,,null,,,,
null,are kissing each other,,html-keyboard-response,394,1152325,0.0-19.0-2.12,78725,List2A,white,man,,,,null,,,,
7026,,,survey-text,395,1159352,0.0-19.0-3.12,78725,List2A,white,man,,,,,"{""Q0"":""kate and mike are kissing each other""}","<img src=""stim_listA/kiss4.gif""style=""height:400px;""></stim_listA>",are kissing each other,
null,"<div style=""font-size:60px;"">+</div>",,html-keyboard-response,396,1159854,0.0-19.0-0.13,78725,List2A,white,man,,,,null,,,,
null,"<img src=""stim_listA/argue1.gif""style=""height:400px;""></stim_listA>",,html-keyboard-response,397,1161857,0.0-19.0-1.13,78725,List2A,white,man,,,,null,,,,
null,is arguing with,,html-keyboard-response,398,1163858,0.0-19.0-2.13,78725,List2A,white,man,,,,null,,,,
5839,,,survey-text,399,1169698,0.0-19.0-3.13,78725,List2A,white,man,,,,,"{""Q0"":""dave is arguing with ruth""}","<img src=""stim_listA/argue1.gif""style=""height:400px;""></stim_listA>",is arguing with,
null,"<div style=""font-size:60px;"">+</div>",,html-keyboard-response,400,1170200,0.0-19.0-0.14,78725,List2A,white,man,,,,null,,,,
null,"<img src=""stim_listA/talk1.gif""style=""height:400px;""></stim_listA>",,html-keyboard-response,401,1172205,0.0-19.0-1.14,78725,List2A,white,man,,,,null,,,,
null,is talking to,,html-keyboard-response,402,1174209,0.0-19.0-2.14,78725,List2A,white,man,,,,null,,,,
6577,,,survey-text,403,1180787,0.0-19.0-3.14,78725,List2A,white,man,,,,,"{""Q0"":""luke is talking to jane""}","<img src=""stim_listA/talk1.gif""style=""height:400px;""></stim_listA>",is talking to,
null,"<div style=""font-size:60px;"">+</div>",,html-keyboard-response,404,1181289,0.0-19.0-0.15,78725,List2A,white,man,,,,null,,,,
null,"<img src=""stim_listA/argue8.gif""style=""height:400px;""></stim_listA>",,html-keyboard-response,405,1183291,0.0-19.0-1.15,78725,List2A,white,man,,,,null,,,,
null,are arguing with each other,,html-keyboard-response,406,1185294,0.0-19.0-2.15,78725,List2A,white,man,,,,null,,,,
8297,,,survey-text,407,1193592,0.0-19.0-3.15,78725,List2A,white,man,,,,,"{""Q0"":""kate and ruth are arguing with each other""}","<img src=""stim_listA/argue8.gif""style=""height:400px;""></stim_listA>",are arguing with each other,
null,"<div style=""font-size:60px;"">+</div>",,html-keyboard-response,408,1194093,0.0-19.0-0.16,78725,List2A,white,man,,,,null,,,,
null,"<img src=""stim_listA/touch7.gif""style=""height:400px;""></stim_listA>",,html-keyboard-response,409,1196096,0.0-19.0-1.16,78725,List2A,white,man,,,,null,,,,
null,is touching,,html-keyboard-response,410,1198098,0.0-19.0-2.16,78725,List2A,white,man,,,,null,,,,
7642,,,survey-text,411,1205741,0.0-19.0-3.16,78725,List2A,white,man,,,,,"{""Q0"":""jane is touching kate""}","<img src=""stim_listA/touch7.gif""style=""height:400px;""></stim_listA>",is touching,
null,"<div style=""font-size:60px;"">+</div>",,html-keyboard-response,412,1206242,0.0-19.0-0.17,78725,List2A,white,man,,,,null,,,,
null,"<img src=""stim_listA/touch3.gif""style=""height:400px;""></stim_listA>",,html-keyboard-response,413,1208249,0.0-19.0-1.17,78725,List2A,white,man,,,,null,,,,
null,is touching,,html-keyboard-response,414,1210252,0.0-19.0-2.17,78725,List2A,white,man,,,,null,,,,
4797,,,survey-text,415,1215050,0.0-19.0-3.17,78725,List2A,white,man,,,,,"{""Q0"":""kate is touching mike""}","<img src=""stim_listA/touch3.gif""style=""height:400px;""></stim_listA>",is touching,
null,"<div style=""font-size:60px;"">+</div>",,html-keyboard-response,416,1215552,0.0-19.0-0.18,78725,List2A,white,man,,,,null,,,,
null,"<img src=""stim_listA/fight6.gif""style=""height:400px;""></stim_listA>",,html-keyboard-response,417,1217554,0.0-19.0-1.18,78725,List2A,white,man,,,,null,,,,
null,are fighting each other,,html-keyboard-response,418,1219555,0.0-19.0-2.18,78725,List2A,white,man,,,,null,,,,
6364,,,survey-text,419,1225920,0.0-19.0-3.18,78725,List2A,white,man,,,,,"{""Q0"":""fred and luke are fighting each other""}","<img src=""stim_listA/fight6.gif""style=""height:400px;""></stim_listA>",are fighting each other,
null,"<div style=""font-size:60px;"">+</div>",,html-keyboard-response,420,1226422,0.0-19.0-0.19,78725,List2A,white,man,,,,null,,,,
null,"<img src=""stim_listA/shout7.gif""style=""height:400px;""></stim_listA>",,html-keyboard-response,421,1228425,0.0-19.0-1.19,78725,List2A,white,man,,,,null,,,,
null,is shouting at,,html-keyboard-response,422,1230427,0.0-19.0-2.19,78725,List2A,white,man,,,,null,,,,
5182,,,survey-text,423,1235610,0.0-19.0-3.19,78725,List2A,white,man,,,,,"{""Q0"":""ruth is shouting at beth""}","<img src=""stim_listA/shout7.gif""style=""height:400px;""></stim_listA>",is shouting at,
1589,<p>Thank you for completing that task.</p><p>The final part of this session is a short questionnaire.</p><p>Press Continue.</p>,0,html-button-response,424,1237200,0.0-20.0,78725,List2A,white,man,,,,,,,,
30622,,,survey-text,425,1268823,0.0-21.0,78725,List2A,white,man,,,,,"{""Q0"":""33"",""Q1"":""English"",""Q2"":""English"",""Q3"":""United Kingdom"",""Q4"":""White"",""Q5"":""Male""}",,,demographics
6437,,,survey-likert,426,1275261,0.0-22.0,78725,List2A,white,man,,,,,"{""Q0"":4}",,,likert_ESS
5577,,,survey-likert,427,1280840,0.0-23.0,78725,List2A,white,man,,,,,"{""Q0"":4}",,,likert_NSSAL_Q1
3044,,,survey-likert,428,1283885,0.0-24.0,78725,List2A,white,man,,,,,"{""Q0"":4}",,,likert_NSSAL_Q2
16980,,,survey-likert,429,1300867,0.0-25.0,78725,List2A,white,man,,,,,"{""Q0"":3}",,,likert_CGRS_Q1
5408,,,survey-likert,430,1306276,0.0-26.0,78725,List2A,white,man,,,,,"{""Q0"":3}",,,likert_CGRS_Q2
3196,,,survey-likert,431,1309474,0.0-27.0,78725,List2A,white,man,,,,,"{""Q0"":3}",,,likert_CGRS_Q3
6289,,,survey-text,432,1315765,0.0-28.0,78725,List2A,white,man,,,,,"{""Q0"":""ccc""}",,,worker_id
11351,,,external-html,433,1327162,0.0-29.0,78725,List2A,white,man,debrief.html,,,,,,,
