rt,stimulus,button_pressed,trial_type,trial_index,time_elapsed,internal_node_id,subject,list,ppt_race,ppt_gender,url,first_guess,correct,key_press,responses,image_type,phrase_type,test_part
636001,Welcome to the experiment. Press Continue to begin.,0,html-button-response,0,636011,0.0-0.0,78747,List1B,black,woman,,,,,,,,
112355,,,external-html,1,749820,0.0-1.0,78747,List1B,black,woman,consent.html,,,,,,,
956822,"<p>On the next page, you will see portraits of 8 people and their names.</p><p>Your first task is to take a few minutes to memorise the names of these people.</p><p>You will have to recall their names during the rest of the experiment, so it is</p><p>essential that you try to memorise these people and their names as best as you can.</p><br><p><strong>You will then be tested on your memory of these names and portraits.</strong></p><br><p>The experiment will start after you have completed this memory test.</p><br><p>Ready?</p>",0,html-button-response,2,1706655,0.0-2.0,78747,List1B,black,woman,,,,,,,,
135374,"<img src='img/portrait_matrix_list1.jpg' style='width:900px;height:500px;''></img><p>If you have memorised all the portraits and names and are ready to start, press Continue.</p><p><strong>Please note: Your memory of these faces will be tested 4 times during this experiment.</strong></p>",0,html-button-response,3,1843045,0.0-3.0-0.0,78747,List1B,black,woman,,,,,,,,
5261,"<img src=""portrait/WW2.jpg""style=""height:400px;""></img>",3,html-button-response,4,1849331,0.0-3.0-1.0,78747,List1B,black,woman,,TRUE,3,,,,,
null,CORRECT,,html-keyboard-response,5,1850852,0.0-3.0-2.0-0.0,78747,List1B,black,woman,,,,null,,,,
5292,"<img src=""portrait/BW1.jpg""style=""height:400px;""></img>",0,html-button-response,6,1856152,0.0-3.0-4.0,78747,List1B,black,woman,,TRUE,0,,,,,
null,CORRECT,,html-keyboard-response,7,1857676,0.0-3.0-5.0-0.0,78747,List1B,black,woman,,,,null,,,,
4197,"<img src=""portrait/BW2.jpg""style=""height:400px;""></img>",2,html-button-response,8,1861878,0.0-3.0-7.0,78747,List1B,black,woman,,TRUE,2,,,,,
null,CORRECT,,html-keyboard-response,9,1863397,0.0-3.0-8.0-0.0,78747,List1B,black,woman,,,,null,,,,
3262,"<img src=""portrait/BM2.jpg""style=""height:400px;""></img>",5,html-button-response,10,1866665,0.0-3.0-10.0,78747,List1B,black,woman,,TRUE,5,,,,,
null,CORRECT,,html-keyboard-response,11,1868189,0.0-3.0-11.0-0.0,78747,List1B,black,woman,,,,null,,,,
5348,"<img src=""portrait/WM2.jpg""style=""height:400px;""></img>",7,html-button-response,12,1873542,0.0-3.0-13.0,78747,List1B,black,woman,,TRUE,7,,,,,
null,CORRECT,,html-keyboard-response,13,1875061,0.0-3.0-14.0-0.0,78747,List1B,black,woman,,,,null,,,,
4882,"<img src=""portrait/BM1.jpg""style=""height:400px;""></img>",4,html-button-response,14,1879947,0.0-3.0-16.0,78747,List1B,black,woman,,TRUE,4,,,,,
null,CORRECT,,html-keyboard-response,15,1881467,0.0-3.0-17.0-0.0,78747,List1B,black,woman,,,,null,,,,
3124,"<img src=""portrait/WM1.jpg""style=""height:400px;""></img>",6,html-button-response,16,1884596,0.0-3.0-19.0,78747,List1B,black,woman,,TRUE,6,,,,,
null,CORRECT,,html-keyboard-response,17,1886117,0.0-3.0-20.0-0.0,78747,List1B,black,woman,,,,null,,,,
4770,"<img src=""portrait/WW1.jpg""style=""height:400px;""></img>",1,html-button-response,18,1890892,0.0-3.0-22.0,78747,List1B,black,woman,,TRUE,1,,,,,
null,CORRECT,,html-keyboard-response,19,1892418,0.0-3.0-23.0-0.0,78747,List1B,black,woman,,,,null,,,,
1395,<p>You got 8 out of 8 right first time. Press Continue.</p>,0,html-button-response,20,1893817,0.0-3.0-25.0,78747,List1B,black,woman,,,,,,,,
33521,"<p>In this experiment, you will view photographs of the people from the memory game interacting.</p><p>By using the <strong>exact</strong> phrase given <i>after</i> the photograph appears and recalling the correct names of the people in the photographs, form a sentence describing the interaction. You do not need to capitalise names.</p><p>Type your answer in the space provided. Please complete every sentence before moving onto the next trial.</p><p>You will only have a few seconds to memorise each given photograph and phrase before you can respond, so try your best to focus.</p><p>An example is given below. Press 'Continue' when you are ready.</p><img src='img/speaking_example.jpg' style='width:800px;height:460px;''></img>",0,html-button-response,21,1928360,0.0-4.0,78747,List1B,black,woman,,,,,,,,
2139,"<p>Before the experiment starts, you will watch two example trials. Press 'Continue'.</p>",0,html-button-response,22,1931519,0.0-5.0,78747,List1B,black,woman,,,,,,,,
null,<img src='img/meet_eg.gif' style='height:400px;''></img>,,html-keyboard-response,23,1934537,0.0-6.0,78747,List1B,black,woman,,,,null,,,,
null,<p>is meeting</p>,,html-keyboard-response,24,1936541,0.0-7.0,78747,List1B,black,woman,,,,null,,,,
2122,<p><b>Answer:</b> kate is meeting beth</p>,0,html-button-response,25,1938664,0.0-8.0,78747,List1B,black,woman,,,,,,,,
null,<img src='img/look_eg.gif' style='height:400px;''></img>,,html-keyboard-response,26,1941685,0.0-9.0,78747,List1B,black,woman,,,,null,,,,
null,<p>are looking at each other</p>,,html-keyboard-response,27,1943699,0.0-10.0,78747,List1B,black,woman,,,,null,,,,
3030,<p><b>Answer:</b> luke and dave are looking at each other</p>,0,html-button-response,28,1946732,0.0-11.0,78747,List1B,black,woman,,,,,,,,
7632,"<p>Ready to start the experiment?</p><br><p><strong>Remember to describe the picture using a full sentence,</strong></p><p><strong>that combines the names of the people with the <i>exact</i> phrase given.</strong></p><p><strong>To receive full payment you must do this correctly.</strong></p><p><strong> You do not need to capitalise names or use punctuation.</strong></p><br><p>Press 'Continue' to begin.</p>",0,html-button-response,29,1955379,0.0-12.0,78747,List1B,black,woman,,,,,,,,
null,"<div style=""font-size:60px;"">+</div>",,html-keyboard-response,30,1956906,0.0-13.0-0.0,78747,List1B,black,woman,,,,null,,,,
null,"<img src=""stim_listB/argue3.gif""style=""height:400px;""></stim_listB>",,html-keyboard-response,31,1958921,0.0-13.0-1.0,78747,List1B,black,woman,,,,null,,,,
null,is arguing with,,html-keyboard-response,32,1960973,0.0-13.0-2.0,78747,List1B,black,woman,,,,null,,,,
11415,,,survey-text,33,1972391,0.0-13.0-3.0,78747,List1B,black,woman,,,,,"{""Q0"":""dave is arguing with ruth""}","<img src=""stim_listB/argue3.gif""style=""height:400px;""></stim_listB>",is arguing with,
null,"<div style=""font-size:60px;"">+</div>",,html-keyboard-response,34,1972909,0.0-13.0-0.1,78747,List1B,black,woman,,,,null,,,,
null,"<img src=""stim_listB/kiss1.gif""style=""height:400px;""></stim_listB>",,html-keyboard-response,35,1974920,0.0-13.0-1.1,78747,List1B,black,woman,,,,null,,,,
null,is kissing,,html-keyboard-response,36,1976929,0.0-13.0-2.1,78747,List1B,black,woman,,,,null,,,,
8550,,,survey-text,37,1985483,0.0-13.0-3.1,78747,List1B,black,woman,,,,,"{""Q0"":""fred is kissing beth""}","<img src=""stim_listB/kiss1.gif""style=""height:400px;""></stim_listB>",is kissing,
null,"<div style=""font-size:60px;"">+</div>",,html-keyboard-response,38,1986001,0.0-13.0-0.2,78747,List1B,black,woman,,,,null,,,,
null,"<img src=""stim_listB/shout3.gif""style=""height:400px;""></stim_listB>",,html-keyboard-response,39,1988017,0.0-13.0-1.2,78747,List1B,black,woman,,,,null,,,,
null,is shouting at,,html-keyboard-response,40,1990034,0.0-13.0-2.2,78747,List1B,black,woman,,,,null,,,,
8942,,,survey-text,41,1998978,0.0-13.0-3.2,78747,List1B,black,woman,,,,,"{""Q0"":""luke is yelling at ruth""}","<img src=""stim_listB/shout3.gif""style=""height:400px;""></stim_listB>",is shouting at,
null,"<div style=""font-size:60px;"">+</div>",,html-keyboard-response,42,1999498,0.0-13.0-0.3,78747,List1B,black,woman,,,,null,,,,
null,"<img src=""stim_listB/kiss8.gif""style=""height:400px;""></stim_listB>",,html-keyboard-response,43,2001511,0.0-13.0-1.3,78747,List1B,black,woman,,,,null,,,,
null,are kissing each other,,html-keyboard-response,44,2003529,0.0-13.0-2.3,78747,List1B,black,woman,,,,null,,,,
6758,,,survey-text,45,2010291,0.0-13.0-3.3,78747,List1B,black,woman,,,,,"{""Q0"":""kate is kissing jane""}","<img src=""stim_listB/kiss8.gif""style=""height:400px;""></stim_listB>",are kissing each other,
null,"<div style=""font-size:60px;"">+</div>",,html-keyboard-response,46,2010803,0.0-13.0-0.4,78747,List1B,black,woman,,,,null,,,,
null,"<img src=""stim_listB/play5.gif""style=""height:400px;""></stim_listB>",,html-keyboard-response,47,2012823,0.0-13.0-1.4,78747,List1B,black,woman,,,,null,,,,
null,is playing with,,html-keyboard-response,48,2014852,0.0-13.0-2.4,78747,List1B,black,woman,,,,null,,,,
12100,,,survey-text,49,2026953,0.0-13.0-3.4,78747,List1B,black,woman,,,,,"{""Q0"":""dave is playing with mike""}","<img src=""stim_listB/play5.gif""style=""height:400px;""></stim_listB>",is playing with,
null,"<div style=""font-size:60px;"">+</div>",,html-keyboard-response,50,2027460,0.0-13.0-0.5,78747,List1B,black,woman,,,,null,,,,
null,"<img src=""stim_listB/play7.gif""style=""height:400px;""></stim_listB>",,html-keyboard-response,51,2029475,0.0-13.0-1.5,78747,List1B,black,woman,,,,null,,,,
null,is playing with,,html-keyboard-response,52,2031505,0.0-13.0-2.5,78747,List1B,black,woman,,,,null,,,,
8297,,,survey-text,53,2039803,0.0-13.0-3.5,78747,List1B,black,woman,,,,,"{""Q0"":""jane is playing with kate""}","<img src=""stim_listB/play7.gif""style=""height:400px;""></stim_listB>",is playing with,
null,"<div style=""font-size:60px;"">+</div>",,html-keyboard-response,54,2040318,0.0-13.0-0.6,78747,List1B,black,woman,,,,null,,,,
null,"<img src=""stim_listB/talk7.gif""style=""height:400px;""></stim_listB>",,html-keyboard-response,55,2042333,0.0-13.0-1.6,78747,List1B,black,woman,,,,null,,,,
null,is talking to,,html-keyboard-response,56,2044356,0.0-13.0-2.6,78747,List1B,black,woman,,,,null,,,,
12597,,,survey-text,57,2056955,0.0-13.0-3.6,78747,List1B,black,woman,,,,,"{""Q0"":""jane is talking to beth""}","<img src=""stim_listB/talk7.gif""style=""height:400px;""></stim_listB>",is talking to,
null,"<div style=""font-size:60px;"">+</div>",,html-keyboard-response,58,2057460,0.0-13.0-0.7,78747,List1B,black,woman,,,,null,,,,
null,"<img src=""stim_listB/kiss4.gif""style=""height:400px;""></stim_listB>",,html-keyboard-response,59,2059477,0.0-13.0-1.7,78747,List1B,black,woman,,,,null,,,,
null,are kissing each other,,html-keyboard-response,60,2061503,0.0-13.0-2.7,78747,List1B,black,woman,,,,null,,,,
17218,,,survey-text,61,2078725,0.0-13.0-3.7,78747,List1B,black,woman,,,,,"{""Q0"":""dave is kissing jane""}","<img src=""stim_listB/kiss4.gif""style=""height:400px;""></stim_listB>",are kissing each other,
null,"<div style=""font-size:60px;"">+</div>",,html-keyboard-response,62,2079235,0.0-13.0-0.8,78747,List1B,black,woman,,,,null,,,,
null,"<img src=""stim_listB/kiss7.gif""style=""height:400px;""></stim_listB>",,html-keyboard-response,63,2081254,0.0-13.0-1.8,78747,List1B,black,woman,,,,null,,,,
null,is kissing,,html-keyboard-response,64,2083273,0.0-13.0-2.8,78747,List1B,black,woman,,,,null,,,,
16969,,,survey-text,65,2100244,0.0-13.0-3.8,78747,List1B,black,woman,,,,,"{""Q0"":""jane is kissing ruth""}","<img src=""stim_listB/kiss7.gif""style=""height:400px;""></stim_listB>",is kissing,
null,"<div style=""font-size:60px;"">+</div>",,html-keyboard-response,66,2100760,0.0-13.0-0.9,78747,List1B,black,woman,,,,null,,,,
null,"<img src=""stim_listB/talk2.gif""style=""height:400px;""></stim_listB>",,html-keyboard-response,67,2102775,0.0-13.0-1.9,78747,List1B,black,woman,,,,null,,,,
null,are talking to each other,,html-keyboard-response,68,2104776,0.0-13.0-2.9,78747,List1B,black,woman,,,,null,,,,
12390,,,survey-text,69,2117168,0.0-13.0-3.9,78747,List1B,black,woman,,,,,"{""Q0"":""mike and beth are talking to each other""}","<img src=""stim_listB/talk2.gif""style=""height:400px;""></stim_listB>",are talking to each other,
null,"<div style=""font-size:60px;"">+</div>",,html-keyboard-response,70,2117685,0.0-13.0-0.10,78747,List1B,black,woman,,,,null,,,,
null,"<img src=""stim_listB/play2.gif""style=""height:400px;""></stim_listB>",,html-keyboard-response,71,2119701,0.0-13.0-1.10,78747,List1B,black,woman,,,,null,,,,
null,are playing with each other,,html-keyboard-response,72,2121724,0.0-13.0-2.10,78747,List1B,black,woman,,,,null,,,,
10954,,,survey-text,73,2132679,0.0-13.0-3.10,78747,List1B,black,woman,,,,,"{""Q0"":""beth and fred are playing with each other""}","<img src=""stim_listB/play2.gif""style=""height:400px;""></stim_listB>",are playing with each other,
null,"<div style=""font-size:60px;"">+</div>",,html-keyboard-response,74,2133184,0.0-13.0-0.11,78747,List1B,black,woman,,,,null,,,,
null,"<img src=""stim_listB/shout7.gif""style=""height:400px;""></stim_listB>",,html-keyboard-response,75,2135186,0.0-13.0-1.11,78747,List1B,black,woman,,,,null,,,,
null,is shouting at,,html-keyboard-response,76,2137243,0.0-13.0-2.11,78747,List1B,black,woman,,,,null,,,,
9756,,,survey-text,77,2147002,0.0-13.0-3.11,78747,List1B,black,woman,,,,,"{""Q0"":""beth is shouting at ruth""}","<img src=""stim_listB/shout7.gif""style=""height:400px;""></stim_listB>",is shouting at,
null,"<div style=""font-size:60px;"">+</div>",,html-keyboard-response,78,2147520,0.0-13.0-0.12,78747,List1B,black,woman,,,,null,,,,
null,"<img src=""stim_listB/talk6.gif""style=""height:400px;""></stim_listB>",,html-keyboard-response,79,2149535,0.0-13.0-1.12,78747,List1B,black,woman,,,,null,,,,
null,are talking to each other,,html-keyboard-response,80,2151555,0.0-13.0-2.12,78747,List1B,black,woman,,,,null,,,,
13744,,,survey-text,81,2165300,0.0-13.0-3.12,78747,List1B,black,woman,,,,,"{""Q0"":""luke andmike are talking with each other""}","<img src=""stim_listB/talk6.gif""style=""height:400px;""></stim_listB>",are talking to each other,
null,"<div style=""font-size:60px;"">+</div>",,html-keyboard-response,82,2165809,0.0-13.0-0.13,78747,List1B,black,woman,,,,null,,,,
null,"<img src=""stim_listB/talk1.gif""style=""height:400px;""></stim_listB>",,html-keyboard-response,83,2167829,0.0-13.0-1.13,78747,List1B,black,woman,,,,null,,,,
null,is talking to,,html-keyboard-response,84,2169849,0.0-13.0-2.13,78747,List1B,black,woman,,,,null,,,,
11428,,,survey-text,85,2181278,0.0-13.0-3.13,78747,List1B,black,woman,,,,,"{""Q0"":""kate is talking to fred""}","<img src=""stim_listB/talk1.gif""style=""height:400px;""></stim_listB>",is talking to,
null,"<div style=""font-size:60px;"">+</div>",,html-keyboard-response,86,2181787,0.0-13.0-0.14,78747,List1B,black,woman,,,,null,,,,
null,"<img src=""stim_listB/touch2.gif""style=""height:400px;""></stim_listB>",,html-keyboard-response,87,2183804,0.0-13.0-1.14,78747,List1B,black,woman,,,,null,,,,
null,are touching each other,,html-keyboard-response,88,2185818,0.0-13.0-2.14,78747,List1B,black,woman,,,,null,,,,
8378,,,survey-text,89,2194197,0.0-13.0-3.14,78747,List1B,black,woman,,,,,"{""Q0"":""kate and beth are touching each other""}","<img src=""stim_listB/touch2.gif""style=""height:400px;""></stim_listB>",are touching each other,
null,"<div style=""font-size:60px;"">+</div>",,html-keyboard-response,90,2194703,0.0-13.0-0.15,78747,List1B,black,woman,,,,null,,,,
null,"<img src=""stim_listB/touch5.gif""style=""height:400px;""></stim_listB>",,html-keyboard-response,91,2196716,0.0-13.0-1.15,78747,List1B,black,woman,,,,null,,,,
null,is touching,,html-keyboard-response,92,2198718,0.0-13.0-2.15,78747,List1B,black,woman,,,,null,,,,
5525,,,survey-text,93,2204245,0.0-13.0-3.15,78747,List1B,black,woman,,,,,"{""Q0"":""luke is touching mike""}","<img src=""stim_listB/touch5.gif""style=""height:400px;""></stim_listB>",is touching,
null,"<div style=""font-size:60px;"">+</div>",,html-keyboard-response,94,2204751,0.0-13.0-0.16,78747,List1B,black,woman,,,,null,,,,
null,"<img src=""stim_listB/fight4.gif""style=""height:400px;""></stim_listB>",,html-keyboard-response,95,2206767,0.0-13.0-1.16,78747,List1B,black,woman,,,,null,,,,
null,are fighting each other,,html-keyboard-response,96,2208781,0.0-13.0-2.16,78747,List1B,black,woman,,,,null,,,,
10599,,,survey-text,97,2219382,0.0-13.0-3.16,78747,List1B,black,woman,,,,,"{""Q0"":""luke and ruth are fighting each other""}","<img src=""stim_listB/fight4.gif""style=""height:400px;""></stim_listB>",are fighting each other,
null,"<div style=""font-size:60px;"">+</div>",,html-keyboard-response,98,2219901,0.0-13.0-0.17,78747,List1B,black,woman,,,,null,,,,
null,"<img src=""stim_listB/dance1.gif""style=""height:400px;""></stim_listB>",,html-keyboard-response,99,2221918,0.0-13.0-1.17,78747,List1B,black,woman,,,,null,,,,
null,is dancing with,,html-keyboard-response,100,2223918,0.0-13.0-2.17,78747,List1B,black,woman,,,,null,,,,
12875,,,survey-text,101,2236797,0.0-13.0-3.17,78747,List1B,black,woman,,,,,"{""Q0"":""fred is dancing with kate""}","<img src=""stim_listB/dance1.gif""style=""height:400px;""></stim_listB>",is dancing with,
null,"<div style=""font-size:60px;"">+</div>",,html-keyboard-response,102,2237307,0.0-13.0-0.18,78747,List1B,black,woman,,,,null,,,,
null,"<img src=""stim_listB/flirt5.gif""style=""height:400px;""></stim_listB>",,html-keyboard-response,103,2239323,0.0-13.0-1.18,78747,List1B,black,woman,,,,null,,,,
null,is flirting with,,html-keyboard-response,104,2241324,0.0-13.0-2.18,78747,List1B,black,woman,,,,null,,,,
14376,,,survey-text,105,2255705,0.0-13.0-3.18,78747,List1B,black,woman,,,,,"{""Q0"":""fred is flirting with dave""}","<img src=""stim_listB/flirt5.gif""style=""height:400px;""></stim_listB>",is flirting with,
null,"<div style=""font-size:60px;"">+</div>",,html-keyboard-response,106,2256209,0.0-13.0-0.19,78747,List1B,black,woman,,,,null,,,,
null,"<img src=""stim_listB/talk5.gif""style=""height:400px;""></stim_listB>",,html-keyboard-response,107,2258225,0.0-13.0-1.19,78747,List1B,black,woman,,,,null,,,,
null,is talking to,,html-keyboard-response,108,2260239,0.0-13.0-2.19,78747,List1B,black,woman,,,,null,,,,
8122,,,survey-text,109,2268363,0.0-13.0-3.19,78747,List1B,black,woman,,,,,"{""Q0"":""fred is talking to dave""}","<img src=""stim_listB/talk5.gif""style=""height:400px;""></stim_listB>",is talking to,
115851,"<img src='img/portrait_matrix_list1.jpg' style='width:900px;height:500px;''></img><p>If you have memorised all the portraits and names and are ready to start, press Continue.</p><p><strong>Please note: Your memory of these faces will be tested 4 times during this experiment.</strong></p>",0,html-button-response,110,2384219,0.0-14.0-0.0,78747,List1B,black,woman,,,,,,,,
6626,"<img src=""portrait/BW1.jpg""style=""height:400px;""></img>",0,html-button-response,111,2391853,0.0-14.0-1.0,78747,List1B,black,woman,,TRUE,0,,,,,
null,CORRECT,,html-keyboard-response,112,2393364,0.0-14.0-2.0-0.0,78747,List1B,black,woman,,,,null,,,,
3239,"<img src=""portrait/BM2.jpg""style=""height:400px;""></img>",5,html-button-response,113,2396609,0.0-14.0-4.0,78747,List1B,black,woman,,TRUE,5,,,,,
null,CORRECT,,html-keyboard-response,114,2398126,0.0-14.0-5.0-0.0,78747,List1B,black,woman,,,,null,,,,
2150,"<img src=""portrait/WM2.jpg""style=""height:400px;""></img>",7,html-button-response,115,2400280,0.0-14.0-7.0,78747,List1B,black,woman,,TRUE,7,,,,,
null,CORRECT,,html-keyboard-response,116,2401802,0.0-14.0-8.0-0.0,78747,List1B,black,woman,,,,null,,,,
1506,"<img src=""portrait/BM1.jpg""style=""height:400px;""></img>",4,html-button-response,117,2403311,0.0-14.0-10.0,78747,List1B,black,woman,,TRUE,4,,,,,
null,CORRECT,,html-keyboard-response,118,2404825,0.0-14.0-11.0-0.0,78747,List1B,black,woman,,,,null,,,,
1614,"<img src=""portrait/WW2.jpg""style=""height:400px;""></img>",3,html-button-response,119,2406445,0.0-14.0-13.0,78747,List1B,black,woman,,TRUE,3,,,,,
null,CORRECT,,html-keyboard-response,120,2407974,0.0-14.0-14.0-0.0,78747,List1B,black,woman,,,,null,,,,
2784,"<img src=""portrait/WW1.jpg""style=""height:400px;""></img>",2,html-button-response,121,2410759,0.0-14.0-16.0,78747,List1B,black,woman,,TRUE,1,,,,,
1714,"<img src=""portrait/WW1.jpg""style=""height:400px;""></img>",1,html-button-response,122,2413490,0.0-14.0-18.0-0.0,78747,List1B,black,woman,,FALSE,1,,,,,
null,CORRECT,,html-keyboard-response,123,2415013,0.0-14.0-18.0-1.0-0.0,78747,List1B,black,woman,,,,null,,,,
3034,"<img src=""portrait/WM1.jpg""style=""height:400px;""></img>",6,html-button-response,124,2418053,0.0-14.0-19.0,78747,List1B,black,woman,,TRUE,6,,,,,
null,CORRECT,,html-keyboard-response,125,2419570,0.0-14.0-20.0-0.0,78747,List1B,black,woman,,,,null,,,,
2012,"<img src=""portrait/BW2.jpg""style=""height:400px;""></img>",0,html-button-response,126,2421587,0.0-14.0-22.0,78747,List1B,black,woman,,TRUE,2,,,,,
3221,"<img src=""portrait/BW2.jpg""style=""height:400px;""></img>",2,html-button-response,127,2425819,0.0-14.0-24.0-0.0,78747,List1B,black,woman,,FALSE,2,,,,,
null,CORRECT,,html-keyboard-response,128,2427336,0.0-14.0-24.0-1.0-0.0,78747,List1B,black,woman,,,,null,,,,
1066,<p>You got 6 out of 8 right first time. Press Continue.</p>,0,html-button-response,129,2428405,0.0-14.0-25.0,78747,List1B,black,woman,,,,,,,,
3006,"As you did not score 100%, the memory game will repeat. Press Continue.",0,html-button-response,130,2432424,0.0-14.0-26.0-0.0,78747,List1B,black,woman,,,,,,,,
2234,"<img src='img/portrait_matrix_list1.jpg' style='width:900px;height:500px;''></img><p>If you have memorised all the portraits and names and are ready to start, press Continue.</p><p><strong>Please note: Your memory of these faces will be tested 4 times during this experiment.</strong></p>",0,html-button-response,131,2435668,0.0-14.1-0.1,78747,List1B,black,woman,,,,,,,,
4085,"<img src=""portrait/BW1.jpg""style=""height:400px;""></img>",0,html-button-response,132,2440764,0.0-14.1-1.1,78747,List1B,black,woman,,TRUE,0,,,,,
null,CORRECT,,html-keyboard-response,133,2442285,0.0-14.1-2.1-0.1,78747,List1B,black,woman,,,,null,,,,
6593,"<img src=""portrait/BM2.jpg""style=""height:400px;""></img>",5,html-button-response,134,2448881,0.0-14.1-4.1,78747,List1B,black,woman,,TRUE,5,,,,,
null,CORRECT,,html-keyboard-response,135,2450398,0.0-14.1-5.1-0.1,78747,List1B,black,woman,,,,null,,,,
2615,"<img src=""portrait/WM2.jpg""style=""height:400px;""></img>",7,html-button-response,136,2453017,0.0-14.1-7.1,78747,List1B,black,woman,,TRUE,7,,,,,
null,CORRECT,,html-keyboard-response,137,2454539,0.0-14.1-8.1-0.1,78747,List1B,black,woman,,,,null,,,,
2116,"<img src=""portrait/BM1.jpg""style=""height:400px;""></img>",4,html-button-response,138,2456657,0.0-14.1-10.1,78747,List1B,black,woman,,TRUE,4,,,,,
null,CORRECT,,html-keyboard-response,139,2458182,0.0-14.1-11.1-0.1,78747,List1B,black,woman,,,,null,,,,
1533,"<img src=""portrait/WW2.jpg""style=""height:400px;""></img>",3,html-button-response,140,2459720,0.0-14.1-13.1,78747,List1B,black,woman,,TRUE,3,,,,,
null,CORRECT,,html-keyboard-response,141,2461235,0.0-14.1-14.1-0.1,78747,List1B,black,woman,,,,null,,,,
4509,"<img src=""portrait/WW1.jpg""style=""height:400px;""></img>",1,html-button-response,142,2465747,0.0-14.1-16.1,78747,List1B,black,woman,,TRUE,1,,,,,
null,CORRECT,,html-keyboard-response,143,2467268,0.0-14.1-17.1-0.1,78747,List1B,black,woman,,,,null,,,,
3236,"<img src=""portrait/WM1.jpg""style=""height:400px;""></img>",6,html-button-response,144,2470508,0.0-14.1-19.1,78747,List1B,black,woman,,TRUE,6,,,,,
null,CORRECT,,html-keyboard-response,145,2472023,0.0-14.1-20.1-0.1,78747,List1B,black,woman,,,,null,,,,
4546,"<img src=""portrait/BW2.jpg""style=""height:400px;""></img>",2,html-button-response,146,2476572,0.0-14.1-22.1,78747,List1B,black,woman,,TRUE,2,,,,,
null,CORRECT,,html-keyboard-response,147,2478087,0.0-14.1-23.1-0.1,78747,List1B,black,woman,,,,null,,,,
1194,<p>You got 8 out of 8 right first time. Press Continue.</p>,0,html-button-response,148,2479284,0.0-14.1-25.1,78747,List1B,black,woman,,,,,,,,
null,"<div style=""font-size:60px;"">+</div>",,html-keyboard-response,149,2480800,0.0-15.0-0.0,78747,List1B,black,woman,,,,null,,,,
null,"<img src=""stim_listB/argue7.gif""style=""height:400px;""></stim_listB>",,html-keyboard-response,150,2482866,0.0-15.0-1.0,78747,List1B,black,woman,,,,null,,,,
null,is arguing with,,html-keyboard-response,151,2484878,0.0-15.0-2.0,78747,List1B,black,woman,,,,null,,,,
10059,,,survey-text,152,2494943,0.0-15.0-3.0,78747,List1B,black,woman,,,,,"{""Q0"":""ruth is arguing with kate""}","<img src=""stim_listB/argue7.gif""style=""height:400px;""></stim_listB>",is arguing with,
null,"<div style=""font-size:60px;"">+</div>",,html-keyboard-response,153,2495459,0.0-15.0-0.1,78747,List1B,black,woman,,,,null,,,,
null,"<img src=""stim_listB/marry4.gif""style=""height:400px;""></stim_listB>",,html-keyboard-response,154,2497474,0.0-15.0-1.1,78747,List1B,black,woman,,,,null,,,,
null,are marrying each other,,html-keyboard-response,155,2499490,0.0-15.0-2.1,78747,List1B,black,woman,,,,null,,,,
13847,,,survey-text,156,2513339,0.0-15.0-3.1,78747,List1B,black,woman,,,,,"{""Q0"":""luke and jane are marrying each other""}","<img src=""stim_listB/marry4.gif""style=""height:400px;""></stim_listB>",are marrying each other,
null,"<div style=""font-size:60px;"">+</div>",,html-keyboard-response,157,2513856,0.0-15.0-0.2,78747,List1B,black,woman,,,,null,,,,
null,"<img src=""stim_listB/fight1.gif""style=""height:400px;""></stim_listB>",,html-keyboard-response,158,2515871,0.0-15.0-1.2,78747,List1B,black,woman,,,,null,,,,
null,is fighting,,html-keyboard-response,159,2517889,0.0-15.0-2.2,78747,List1B,black,woman,,,,null,,,,
15753,,,survey-text,160,2533643,0.0-15.0-3.2,78747,List1B,black,woman,,,,,"{""Q0"":""mike and kate are fighting each other""}","<img src=""stim_listB/fight1.gif""style=""height:400px;""></stim_listB>",is fighting,
null,"<div style=""font-size:60px;"">+</div>",,html-keyboard-response,161,2534161,0.0-15.0-0.3,78747,List1B,black,woman,,,,null,,,,
null,"<img src=""stim_listB/argue6.gif""style=""height:400px;""></stim_listB>",,html-keyboard-response,162,2536177,0.0-15.0-1.3,78747,List1B,black,woman,,,,null,,,,
null,are arguing with each other,,html-keyboard-response,163,2538193,0.0-15.0-2.3,78747,List1B,black,woman,,,,null,,,,
13905,,,survey-text,164,2552099,0.0-15.0-3.3,78747,List1B,black,woman,,,,,"{""Q0"":""dave and fred are arguing with  each other""}","<img src=""stim_listB/argue6.gif""style=""height:400px;""></stim_listB>",are arguing with each other,
null,"<div style=""font-size:60px;"">+</div>",,html-keyboard-response,165,2552605,0.0-15.0-0.4,78747,List1B,black,woman,,,,null,,,,
null,"<img src=""stim_listB/argue8.gif""style=""height:400px;""></stim_listB>",,html-keyboard-response,166,2554621,0.0-15.0-1.4,78747,List1B,black,woman,,,,null,,,,
null,are arguing with each other,,html-keyboard-response,167,2556657,0.0-15.0-2.4,78747,List1B,black,woman,,,,null,,,,
12440,,,survey-text,168,2569099,0.0-15.0-3.4,78747,List1B,black,woman,,,,,"{""Q0"":""beth and jane are arguing with each other""}","<img src=""stim_listB/argue8.gif""style=""height:400px;""></stim_listB>",are arguing with each other,
null,"<div style=""font-size:60px;"">+</div>",,html-keyboard-response,169,2569604,0.0-15.0-0.5,78747,List1B,black,woman,,,,null,,,,
null,"<img src=""stim_listB/marry2.gif""style=""height:400px;""></stim_listB>",,html-keyboard-response,170,2571621,0.0-15.0-1.5,78747,List1B,black,woman,,,,null,,,,
null,are marrying each other,,html-keyboard-response,171,2573625,0.0-15.0-2.5,78747,List1B,black,woman,,,,null,,,,
14402,,,survey-text,172,2588030,0.0-15.0-3.5,78747,List1B,black,woman,,,,,"{""Q0"":""kate and fred are marrying each other""}","<img src=""stim_listB/marry2.gif""style=""height:400px;""></stim_listB>",are marrying each other,
null,"<div style=""font-size:60px;"">+</div>",,html-keyboard-response,173,2588541,0.0-15.0-0.6,78747,List1B,black,woman,,,,null,,,,
null,"<img src=""stim_listB/shout4.gif""style=""height:400px;""></stim_listB>",,html-keyboard-response,174,2590569,0.0-15.0-1.6,78747,List1B,black,woman,,,,null,,,,
null,are shouting at each other,,html-keyboard-response,175,2592572,0.0-15.0-2.6,78747,List1B,black,woman,,,,null,,,,
8127,,,survey-text,176,2600700,0.0-15.0-3.6,78747,List1B,black,woman,,,,,"{""Q0"":""dave and jane are shouting at each other""}","<img src=""stim_listB/shout4.gif""style=""height:400px;""></stim_listB>",are shouting at each other,
null,"<div style=""font-size:60px;"">+</div>",,html-keyboard-response,177,2601215,0.0-15.0-0.7,78747,List1B,black,woman,,,,null,,,,
null,"<img src=""stim_listB/shout8.gif""style=""height:400px;""></stim_listB>",,html-keyboard-response,178,2603229,0.0-15.0-1.7,78747,List1B,black,woman,,,,null,,,,
null,are shouting at each other,,html-keyboard-response,179,2605261,0.0-15.0-2.7,78747,List1B,black,woman,,,,null,,,,
10730,,,survey-text,180,2615995,0.0-15.0-3.7,78747,List1B,black,woman,,,,,"{""Q0"":""jane and kate are shouting at each other""}","<img src=""stim_listB/shout8.gif""style=""height:400px;""></stim_listB>",are shouting at each other,
null,"<div style=""font-size:60px;"">+</div>",,html-keyboard-response,181,2616509,0.0-15.0-0.8,78747,List1B,black,woman,,,,null,,,,
null,"<img src=""stim_listB/flirt7.gif""style=""height:400px;""></stim_listB>",,html-keyboard-response,182,2618527,0.0-15.0-1.8,78747,List1B,black,woman,,,,null,,,,
null,is flirting with,,html-keyboard-response,183,2620550,0.0-15.0-2.8,78747,List1B,black,woman,,,,null,,,,
9454,,,survey-text,184,2630005,0.0-15.0-3.8,78747,List1B,black,woman,,,,,"{""Q0"":""jane is flirting with beth""}","<img src=""stim_listB/flirt7.gif""style=""height:400px;""></stim_listB>",is flirting with,
null,"<div style=""font-size:60px;"">+</div>",,html-keyboard-response,185,2630519,0.0-15.0-0.9,78747,List1B,black,woman,,,,null,,,,
null,"<img src=""stim_listB/kiss3.gif""style=""height:400px;""></stim_listB>",,html-keyboard-response,186,2632535,0.0-15.0-1.9,78747,List1B,black,woman,,,,null,,,,
null,is kissing,,html-keyboard-response,187,2634537,0.0-15.0-2.9,78747,List1B,black,woman,,,,null,,,,
11427,,,survey-text,188,2645965,0.0-15.0-3.9,78747,List1B,black,woman,,,,,"{""Q0"":""luke is kissing ruth""}","<img src=""stim_listB/kiss3.gif""style=""height:400px;""></stim_listB>",is kissing,
null,"<div style=""font-size:60px;"">+</div>",,html-keyboard-response,189,2646479,0.0-15.0-0.10,78747,List1B,black,woman,,,,null,,,,
null,"<img src=""stim_listB/fight7.gif""style=""height:400px;""></stim_listB>",,html-keyboard-response,190,2648495,0.0-15.0-1.10,78747,List1B,black,woman,,,,null,,,,
null,is fighting,,html-keyboard-response,191,2650497,0.0-15.0-2.10,78747,List1B,black,woman,,,,null,,,,
11144,,,survey-text,192,2661643,0.0-15.0-3.10,78747,List1B,black,woman,,,,,"{""Q0"":""jane is fighting kate""}","<img src=""stim_listB/fight7.gif""style=""height:400px;""></stim_listB>",is fighting,
null,"<div style=""font-size:60px;"">+</div>",,html-keyboard-response,193,2662163,0.0-15.0-0.11,78747,List1B,black,woman,,,,null,,,,
null,"<img src=""stim_listB/flirt6.gif""style=""height:400px;""></stim_listB>",,html-keyboard-response,194,2664179,0.0-15.0-1.11,78747,List1B,black,woman,,,,null,,,,
null,are flirting with each other,,html-keyboard-response,195,2666199,0.0-15.0-2.11,78747,List1B,black,woman,,,,null,,,,
9992,,,survey-text,196,2676197,0.0-15.0-3.11,78747,List1B,black,woman,,,,,"{""Q0"":""luke and mike areflirting with each other""}","<img src=""stim_listB/flirt6.gif""style=""height:400px;""></stim_listB>",are flirting with each other,
null,"<div style=""font-size:60px;"">+</div>",,html-keyboard-response,197,2676708,0.0-15.0-0.12,78747,List1B,black,woman,,,,null,,,,
null,"<img src=""stim_listB/dance3.gif""style=""height:400px;""></stim_listB>",,html-keyboard-response,198,2678725,0.0-15.0-1.12,78747,List1B,black,woman,,,,null,,,,
null,is dancing with,,html-keyboard-response,199,2680732,0.0-15.0-2.12,78747,List1B,black,woman,,,,null,,,,
9369,,,survey-text,200,2690102,0.0-15.0-3.12,78747,List1B,black,woman,,,,,"{""Q0"":""janeis dancing with luke""}","<img src=""stim_listB/dance3.gif""style=""height:400px;""></stim_listB>",is dancing with,
null,"<div style=""font-size:60px;"">+</div>",,html-keyboard-response,201,2690607,0.0-15.0-0.13,78747,List1B,black,woman,,,,null,,,,
null,"<img src=""stim_listB/dance4.gif""style=""height:400px;""></stim_listB>",,html-keyboard-response,202,2692627,0.0-15.0-1.13,78747,List1B,black,woman,,,,null,,,,
null,are dancing with each other,,html-keyboard-response,203,2694638,0.0-15.0-2.13,78747,List1B,black,woman,,,,null,,,,
13274,,,survey-text,204,2707914,0.0-15.0-3.13,78747,List1B,black,woman,,,,,"{""Q0"":""dave and ruth are dancing with each other""}","<img src=""stim_listB/dance4.gif""style=""height:400px;""></stim_listB>",are dancing with each other,
null,"<div style=""font-size:60px;"">+</div>",,html-keyboard-response,205,2708430,0.0-15.0-0.14,78747,List1B,black,woman,,,,null,,,,
null,"<img src=""stim_listB/kiss2.gif""style=""height:400px;""></stim_listB>",,html-keyboard-response,206,2710450,0.0-15.0-1.14,78747,List1B,black,woman,,,,null,,,,
null,are kissing each other,,html-keyboard-response,207,2712465,0.0-15.0-2.14,78747,List1B,black,woman,,,,null,,,,
9530,,,survey-text,208,2721997,0.0-15.0-3.14,78747,List1B,black,woman,,,,,"{""Q0"":""mike and kate are kissing each other""}","<img src=""stim_listB/kiss2.gif""style=""height:400px;""></stim_listB>",are kissing each other,
null,"<div style=""font-size:60px;"">+</div>",,html-keyboard-response,209,2722514,0.0-15.0-0.15,78747,List1B,black,woman,,,,null,,,,
null,"<img src=""stim_listB/fight3.gif""style=""height:400px;""></stim_listB>",,html-keyboard-response,210,2724530,0.0-15.0-1.15,78747,List1B,black,woman,,,,null,,,,
null,is fighting,,html-keyboard-response,211,2726548,0.0-15.0-2.15,78747,List1B,black,woman,,,,null,,,,
5508,,,survey-text,212,2732057,0.0-15.0-3.15,78747,List1B,black,woman,,,,,"{""Q0"":""dave is fighting jane""}","<img src=""stim_listB/fight3.gif""style=""height:400px;""></stim_listB>",is fighting,
null,"<div style=""font-size:60px;"">+</div>",,html-keyboard-response,213,2732564,0.0-15.0-0.16,78747,List1B,black,woman,,,,null,,,,
null,"<img src=""stim_listB/dance2.gif""style=""height:400px;""></stim_listB>",,html-keyboard-response,214,2734579,0.0-15.0-1.16,78747,List1B,black,woman,,,,null,,,,
null,are dancing with each other,,html-keyboard-response,215,2736594,0.0-15.0-2.16,78747,List1B,black,woman,,,,null,,,,
42872,,,survey-text,216,2779469,0.0-15.0-3.16,78747,List1B,black,woman,,,,,"{""Q0"":""mike and beth are dancing with each other""}","<img src=""stim_listB/dance2.gif""style=""height:400px;""></stim_listB>",are dancing with each other,
null,"<div style=""font-size:60px;"">+</div>",,html-keyboard-response,217,2779976,0.0-15.0-0.17,78747,List1B,black,woman,,,,null,,,,
null,"<img src=""stim_listB/marry3.gif""style=""height:400px;""></stim_listB>",,html-keyboard-response,218,2781980,0.0-15.0-1.17,78747,List1B,black,woman,,,,null,,,,
null,is marrying,,html-keyboard-response,219,2783982,0.0-15.0-2.17,78747,List1B,black,woman,,,,null,,,,
9049,,,survey-text,220,2793034,0.0-15.0-3.17,78747,List1B,black,woman,,,,,"{""Q0"":""dave is marrying ruth""}","<img src=""stim_listB/marry3.gif""style=""height:400px;""></stim_listB>",is marrying,
null,"<div style=""font-size:60px;"">+</div>",,html-keyboard-response,221,2793555,0.0-15.0-0.18,78747,List1B,black,woman,,,,null,,,,
null,"<img src=""stim_listB/shout5.gif""style=""height:400px;""></stim_listB>",,html-keyboard-response,222,2795571,0.0-15.0-1.18,78747,List1B,black,woman,,,,null,,,,
null,is shouting at,,html-keyboard-response,223,2797585,0.0-15.0-2.18,78747,List1B,black,woman,,,,null,,,,
15117,,,survey-text,224,2812710,0.0-15.0-3.18,78747,List1B,black,woman,,,,,"{""Q0"":""luke is shouting at  fred""}","<img src=""stim_listB/shout5.gif""style=""height:400px;""></stim_listB>",is shouting at,
null,"<div style=""font-size:60px;"">+</div>",,html-keyboard-response,225,2813223,0.0-15.0-0.19,78747,List1B,black,woman,,,,null,,,,
null,"<img src=""stim_listB/shout6.gif""style=""height:400px;""></stim_listB>",,html-keyboard-response,226,2815227,0.0-15.0-1.19,78747,List1B,black,woman,,,,null,,,,
null,are shouting at each other,,html-keyboard-response,227,2817238,0.0-15.0-2.19,78747,List1B,black,woman,,,,null,,,,
10243,,,survey-text,228,2827483,0.0-15.0-3.19,78747,List1B,black,woman,,,,,"{""Q0"":""dave and mike are shouting at each other""}","<img src=""stim_listB/shout6.gif""style=""height:400px;""></stim_listB>",are shouting at each other,
4769,"<img src='img/portrait_matrix_list1.jpg' style='width:900px;height:500px;''></img><p>If you have memorised all the portraits and names and are ready to start, press Continue.</p><p><strong>Please note: Your memory of these faces will be tested 4 times during this experiment.</strong></p>",0,html-button-response,229,2832258,0.0-16.0-0.0,78747,List1B,black,woman,,,,,,,,
4921,"<img src=""portrait/BW2.jpg""style=""height:400px;""></img>",2,html-button-response,230,2838184,0.0-16.0-1.0,78747,List1B,black,woman,,TRUE,2,,,,,
null,CORRECT,,html-keyboard-response,231,2839712,0.0-16.0-2.0-0.0,78747,List1B,black,woman,,,,null,,,,
2812,"<img src=""portrait/WM2.jpg""style=""height:400px;""></img>",7,html-button-response,232,2842537,0.0-16.0-4.0,78747,List1B,black,woman,,TRUE,7,,,,,
null,CORRECT,,html-keyboard-response,233,2844054,0.0-16.0-5.0-0.0,78747,List1B,black,woman,,,,null,,,,
1459,"<img src=""portrait/WM1.jpg""style=""height:400px;""></img>",6,html-button-response,234,2845516,0.0-16.0-7.0,78747,List1B,black,woman,,TRUE,6,,,,,
null,CORRECT,,html-keyboard-response,235,2847031,0.0-16.0-8.0-0.0,78747,List1B,black,woman,,,,null,,,,
1824,"<img src=""portrait/BM1.jpg""style=""height:400px;""></img>",4,html-button-response,236,2848858,0.0-16.0-10.0,78747,List1B,black,woman,,TRUE,4,,,,,
null,CORRECT,,html-keyboard-response,237,2850379,0.0-16.0-11.0-0.0,78747,List1B,black,woman,,,,null,,,,
2427,"<img src=""portrait/BM2.jpg""style=""height:400px;""></img>",5,html-button-response,238,2852808,0.0-16.0-13.0,78747,List1B,black,woman,,TRUE,5,,,,,
null,CORRECT,,html-keyboard-response,239,2854333,0.0-16.0-14.0-0.0,78747,List1B,black,woman,,,,null,,,,
2229,"<img src=""portrait/WW1.jpg""style=""height:400px;""></img>",1,html-button-response,240,2856565,0.0-16.0-16.0,78747,List1B,black,woman,,TRUE,1,,,,,
null,CORRECT,,html-keyboard-response,241,2858081,0.0-16.0-17.0-0.0,78747,List1B,black,woman,,,,null,,,,
1570,"<img src=""portrait/BW1.jpg""style=""height:400px;""></img>",0,html-button-response,242,2859655,0.0-16.0-19.0,78747,List1B,black,woman,,TRUE,0,,,,,
null,CORRECT,,html-keyboard-response,243,2861180,0.0-16.0-20.0-0.0,78747,List1B,black,woman,,,,null,,,,
4880,"<img src=""portrait/WW2.jpg""style=""height:400px;""></img>",3,html-button-response,244,2866064,0.0-16.0-22.0,78747,List1B,black,woman,,TRUE,3,,,,,
null,CORRECT,,html-keyboard-response,245,2867591,0.0-16.0-23.0-0.0,78747,List1B,black,woman,,,,null,,,,
1345,<p>You got 8 out of 8 right first time. Press Continue.</p>,0,html-button-response,246,2868940,0.0-16.0-25.0,78747,List1B,black,woman,,,,,,,,
null,"<div style=""font-size:60px;"">+</div>",,html-keyboard-response,247,2870455,0.0-17.0-0.0,78747,List1B,black,woman,,,,null,,,,
null,"<img src=""stim_listB/shout1.gif""style=""height:400px;""></stim_listB>",,html-keyboard-response,248,2872469,0.0-17.0-1.0,78747,List1B,black,woman,,,,null,,,,
null,is shouting at,,html-keyboard-response,249,2874471,0.0-17.0-2.0,78747,List1B,black,woman,,,,null,,,,
9233,,,survey-text,250,2883707,0.0-17.0-3.0,78747,List1B,black,woman,,,,,"{""Q0"":""beth is shouting at fred""}","<img src=""stim_listB/shout1.gif""style=""height:400px;""></stim_listB>",is shouting at,
null,"<div style=""font-size:60px;"">+</div>",,html-keyboard-response,251,2884215,0.0-17.0-0.1,78747,List1B,black,woman,,,,null,,,,
null,"<img src=""stim_listB/argue5.gif""style=""height:400px;""></stim_listB>",,html-keyboard-response,252,2886227,0.0-17.0-1.1,78747,List1B,black,woman,,,,null,,,,
null,is arguing with,,html-keyboard-response,253,2888242,0.0-17.0-2.1,78747,List1B,black,woman,,,,null,,,,
11404,,,survey-text,254,2899648,0.0-17.0-3.1,78747,List1B,black,woman,,,,,"{""Q0"":""luke is arguing with mike""}","<img src=""stim_listB/argue5.gif""style=""height:400px;""></stim_listB>",is arguing with,
null,"<div style=""font-size:60px;"">+</div>",,html-keyboard-response,255,2900168,0.0-17.0-0.2,78747,List1B,black,woman,,,,null,,,,
null,"<img src=""stim_listB/dance5.gif""style=""height:400px;""></stim_listB>",,html-keyboard-response,256,2902185,0.0-17.0-1.2,78747,List1B,black,woman,,,,null,,,,
null,is dancing with,,html-keyboard-response,257,2904201,0.0-17.0-2.2,78747,List1B,black,woman,,,,null,,,,
6975,,,survey-text,258,2911178,0.0-17.0-3.2,78747,List1B,black,woman,,,,,"{""Q0"":""dave is dancing with fred""}","<img src=""stim_listB/dance5.gif""style=""height:400px;""></stim_listB>",is dancing with,
null,"<div style=""font-size:60px;"">+</div>",,html-keyboard-response,259,2911696,0.0-17.0-0.3,78747,List1B,black,woman,,,,null,,,,
null,"<img src=""stim_listB/marry1.gif""style=""height:400px;""></stim_listB>",,html-keyboard-response,260,2913712,0.0-17.0-1.3,78747,List1B,black,woman,,,,null,,,,
null,is marrying,,html-keyboard-response,261,2915721,0.0-17.0-2.3,78747,List1B,black,woman,,,,null,,,,
12773,,,survey-text,262,2928496,0.0-17.0-3.3,78747,List1B,black,woman,,,,,"{""Q0"":""mike is marrying beth""}","<img src=""stim_listB/marry1.gif""style=""height:400px;""></stim_listB>",is marrying,
null,"<div style=""font-size:60px;"">+</div>",,html-keyboard-response,263,2929010,0.0-17.0-0.4,78747,List1B,black,woman,,,,null,,,,
null,"<img src=""stim_listB/fight2.gif""style=""height:400px;""></stim_listB>",,html-keyboard-response,264,2931023,0.0-17.0-1.4,78747,List1B,black,woman,,,,null,,,,
null,are fighting each other,,html-keyboard-response,265,2933039,0.0-17.0-2.4,78747,List1B,black,woman,,,,null,,,,
10422,,,survey-text,266,2943463,0.0-17.0-3.4,78747,List1B,black,woman,,,,,"{""Q0"":""beth and fred are marrying each other""}","<img src=""stim_listB/fight2.gif""style=""height:400px;""></stim_listB>",are fighting each other,
null,"<div style=""font-size:60px;"">+</div>",,html-keyboard-response,267,2943974,0.0-17.0-0.5,78747,List1B,black,woman,,,,null,,,,
null,"<img src=""stim_listB/touch7.gif""style=""height:400px;""></stim_listB>",,html-keyboard-response,268,2945990,0.0-17.0-1.5,78747,List1B,black,woman,,,,null,,,,
null,is touching,,html-keyboard-response,269,2948005,0.0-17.0-2.5,78747,List1B,black,woman,,,,null,,,,
11661,,,survey-text,270,2959667,0.0-17.0-3.5,78747,List1B,black,woman,,,,,"{""Q0"":""jane and kate are touching each other""}","<img src=""stim_listB/touch7.gif""style=""height:400px;""></stim_listB>",is touching,
null,"<div style=""font-size:60px;"">+</div>",,html-keyboard-response,271,2960182,0.0-17.0-0.6,78747,List1B,black,woman,,,,null,,,,
null,"<img src=""stim_listB/touch3.gif""style=""height:400px;""></stim_listB>",,html-keyboard-response,272,2962201,0.0-17.0-1.6,78747,List1B,black,woman,,,,null,,,,
null,is touching,,html-keyboard-response,273,2964213,0.0-17.0-2.6,78747,List1B,black,woman,,,,null,,,,
9573,,,survey-text,274,2973788,0.0-17.0-3.6,78747,List1B,black,woman,,,,,"{""Q0"":""jane is touching dave""}","<img src=""stim_listB/touch3.gif""style=""height:400px;""></stim_listB>",is touching,
null,"<div style=""font-size:60px;"">+</div>",,html-keyboard-response,275,2974308,0.0-17.0-0.7,78747,List1B,black,woman,,,,null,,,,
null,"<img src=""stim_listB/touch8.gif""style=""height:400px;""></stim_listB>",,html-keyboard-response,276,2976325,0.0-17.0-1.7,78747,List1B,black,woman,,,,null,,,,
null,are touching each other,,html-keyboard-response,277,2978328,0.0-17.0-2.7,78747,List1B,black,woman,,,,null,,,,
12192,,,survey-text,278,2990523,0.0-17.0-3.7,78747,List1B,black,woman,,,,,"{""Q0"":""ruth and beth are touching""}","<img src=""stim_listB/touch8.gif""style=""height:400px;""></stim_listB>",are touching each other,
null,"<div style=""font-size:60px;"">+</div>",,html-keyboard-response,279,2991033,0.0-17.0-0.8,78747,List1B,black,woman,,,,null,,,,
null,"<img src=""stim_listB/play8.gif""style=""height:400px;""></stim_listB>",,html-keyboard-response,280,2993048,0.0-17.0-1.8,78747,List1B,black,woman,,,,null,,,,
null,are playing with each other,,html-keyboard-response,281,2995053,0.0-17.0-2.8,78747,List1B,black,woman,,,,null,,,,
13046,,,survey-text,282,3008100,0.0-17.0-3.8,78747,List1B,black,woman,,,,,"{""Q0"":""ruth and beth are playing with each other""}","<img src=""stim_listB/play8.gif""style=""height:400px;""></stim_listB>",are playing with each other,
null,"<div style=""font-size:60px;"">+</div>",,html-keyboard-response,283,3008624,0.0-17.0-0.9,78747,List1B,black,woman,,,,null,,,,
null,"<img src=""stim_listB/touch4.gif""style=""height:400px;""></stim_listB>",,html-keyboard-response,284,3010638,0.0-17.0-1.9,78747,List1B,black,woman,,,,null,,,,
null,are touching each other,,html-keyboard-response,285,3012642,0.0-17.0-2.9,78747,List1B,black,woman,,,,null,,,,
10392,,,survey-text,286,3023036,0.0-17.0-3.9,78747,List1B,black,woman,,,,,"{""Q0"":""luke and ruth are touching each other""}","<img src=""stim_listB/touch4.gif""style=""height:400px;""></stim_listB>",are touching each other,
null,"<div style=""font-size:60px;"">+</div>",,html-keyboard-response,287,3023545,0.0-17.0-0.10,78747,List1B,black,woman,,,,null,,,,
null,"<img src=""stim_listB/talk8.gif""style=""height:400px;""></stim_listB>",,html-keyboard-response,288,3025561,0.0-17.0-1.10,78747,List1B,black,woman,,,,null,,,,
null,are talking to each other,,html-keyboard-response,289,3027563,0.0-17.0-2.10,78747,List1B,black,woman,,,,null,,,,
11212,,,survey-text,290,3038776,0.0-17.0-3.10,78747,List1B,black,woman,,,,,"{""Q0"":""ruth and kate are talking with each other""}","<img src=""stim_listB/talk8.gif""style=""height:400px;""></stim_listB>",are talking to each other,
null,"<div style=""font-size:60px;"">+</div>",,html-keyboard-response,291,3039293,0.0-17.0-0.11,78747,List1B,black,woman,,,,null,,,,
null,"<img src=""stim_listB/argue1.gif""style=""height:400px;""></stim_listB>",,html-keyboard-response,292,3041308,0.0-17.0-1.11,78747,List1B,black,woman,,,,null,,,,
null,is arguing with,,html-keyboard-response,293,3043327,0.0-17.0-2.11,78747,List1B,black,woman,,,,null,,,,
13970,,,survey-text,294,3057297,0.0-17.0-3.11,78747,List1B,black,woman,,,,,"{""Q0"":""beth is arguing with mike""}","<img src=""stim_listB/argue1.gif""style=""height:400px;""></stim_listB>",is arguing with,
null,"<div style=""font-size:60px;"">+</div>",,html-keyboard-response,295,3057804,0.0-17.0-0.12,78747,List1B,black,woman,,,,null,,,,
null,"<img src=""stim_listB/marry6.gif""style=""height:400px;""></stim_listB>",,html-keyboard-response,296,3059821,0.0-17.0-1.12,78747,List1B,black,woman,,,,null,,,,
null,are marrying each other,,html-keyboard-response,297,3061837,0.0-17.0-2.12,78747,List1B,black,woman,,,,null,,,,
14200,,,survey-text,298,3076038,0.0-17.0-3.12,78747,List1B,black,woman,,,,,"{""Q0"":""dave and fred are marrying each other""}","<img src=""stim_listB/marry6.gif""style=""height:400px;""></stim_listB>",are marrying each other,
null,"<div style=""font-size:60px;"">+</div>",,html-keyboard-response,299,3076555,0.0-17.0-0.13,78747,List1B,black,woman,,,,null,,,,
null,"<img src=""stim_listB/marry8.gif""style=""height:400px;""></stim_listB>",,html-keyboard-response,300,3078569,0.0-17.0-1.13,78747,List1B,black,woman,,,,null,,,,
null,are marrying each other,,html-keyboard-response,301,3080584,0.0-17.0-2.13,78747,List1B,black,woman,,,,null,,,,
10292,,,survey-text,302,3090878,0.0-17.0-3.13,78747,List1B,black,woman,,,,,"{""Q0"":""jane and beth are marrying each other""}","<img src=""stim_listB/marry8.gif""style=""height:400px;""></stim_listB>",are marrying each other,
null,"<div style=""font-size:60px;"">+</div>",,html-keyboard-response,303,3091396,0.0-17.0-0.14,78747,List1B,black,woman,,,,null,,,,
null,"<img src=""stim_listB/flirt8.gif""style=""height:400px;""></stim_listB>",,html-keyboard-response,304,3093397,0.0-17.0-1.14,78747,List1B,black,woman,,,,null,,,,
null,are flirting with each other,,html-keyboard-response,305,3095416,0.0-17.0-2.14,78747,List1B,black,woman,,,,null,,,,
13339,,,survey-text,306,3108761,0.0-17.0-3.14,78747,List1B,black,woman,,,,,"{""Q0"":""ruth and kate are talking with each other""}","<img src=""stim_listB/flirt8.gif""style=""height:400px;""></stim_listB>",are flirting with each other,
null,"<div style=""font-size:60px;"">+</div>",,html-keyboard-response,307,3109268,0.0-17.0-0.15,78747,List1B,black,woman,,,,null,,,,
null,"<img src=""stim_listB/touch6.gif""style=""height:400px;""></stim_listB>",,html-keyboard-response,308,3111272,0.0-17.0-1.15,78747,List1B,black,woman,,,,null,,,,
null,are touching each other,,html-keyboard-response,309,3113286,0.0-17.0-2.15,78747,List1B,black,woman,,,,null,,,,
12479,,,survey-text,310,3125769,0.0-17.0-3.15,78747,List1B,black,woman,,,,,"{""Q0"":""fred and luke are touching each other""}","<img src=""stim_listB/touch6.gif""style=""height:400px;""></stim_listB>",are touching each other,
null,"<div style=""font-size:60px;"">+</div>",,html-keyboard-response,311,3126282,0.0-17.0-0.16,78747,List1B,black,woman,,,,null,,,,
null,"<img src=""stim_listB/play4.gif""style=""height:400px;""></stim_listB>",,html-keyboard-response,312,3128286,0.0-17.0-1.16,78747,List1B,black,woman,,,,null,,,,
null,are playing with each other,,html-keyboard-response,313,3130300,0.0-17.0-2.16,78747,List1B,black,woman,,,,null,,,,
15226,,,survey-text,314,3145529,0.0-17.0-3.16,78747,List1B,black,woman,,,,,"{""Q0"":""luke and ruth are playing with each other""}","<img src=""stim_listB/play4.gif""style=""height:400px;""></stim_listB>",are playing with each other,
null,"<div style=""font-size:60px;"">+</div>",,html-keyboard-response,315,3146039,0.0-17.0-0.17,78747,List1B,black,woman,,,,null,,,,
null,"<img src=""stim_listB/fight5.gif""style=""height:400px;""></stim_listB>",,html-keyboard-response,316,3148055,0.0-17.0-1.17,78747,List1B,black,woman,,,,null,,,,
null,is fighting,,html-keyboard-response,317,3150070,0.0-17.0-2.17,78747,List1B,black,woman,,,,null,,,,
5631,,,survey-text,318,3155703,0.0-17.0-3.17,78747,List1B,black,woman,,,,,"{""Q0"":""dave is fighting mike""}","<img src=""stim_listB/fight5.gif""style=""height:400px;""></stim_listB>",is fighting,
null,"<div style=""font-size:60px;"">+</div>",,html-keyboard-response,319,3156213,0.0-17.0-0.18,78747,List1B,black,woman,,,,null,,,,
null,"<img src=""stim_listB/shout2.gif""style=""height:400px;""></stim_listB>",,html-keyboard-response,320,3158229,0.0-17.0-1.18,78747,List1B,black,woman,,,,null,,,,
null,are shouting at each other,,html-keyboard-response,321,3160246,0.0-17.0-2.18,78747,List1B,black,woman,,,,null,,,,
9851,,,survey-text,322,3170099,0.0-17.0-3.18,78747,List1B,black,woman,,,,,"{""Q0"":""kate and mike are shouting at each other""}","<img src=""stim_listB/shout2.gif""style=""height:400px;""></stim_listB>",are shouting at each other,
null,"<div style=""font-size:60px;"">+</div>",,html-keyboard-response,323,3170608,0.0-17.0-0.19,78747,List1B,black,woman,,,,null,,,,
null,"<img src=""stim_listB/flirt2.gif""style=""height:400px;""></stim_listB>",,html-keyboard-response,324,3172622,0.0-17.0-1.19,78747,List1B,black,woman,,,,null,,,,
null,are flirting with each other,,html-keyboard-response,325,3174636,0.0-17.0-2.19,78747,List1B,black,woman,,,,null,,,,
12839,,,survey-text,326,3187478,0.0-17.0-3.19,78747,List1B,black,woman,,,,,"{""Q0"":""beth and mike are flirting with each other""}","<img src=""stim_listB/flirt2.gif""style=""height:400px;""></stim_listB>",are flirting with each other,
5794,"<img src='img/portrait_matrix_list1.jpg' style='width:900px;height:500px;''></img><p>If you have memorised all the portraits and names and are ready to start, press Continue.</p><p><strong>Please note: Your memory of these faces will be tested 4 times during this experiment.</strong></p>",0,html-button-response,327,3193278,0.0-18.0-0.0,78747,List1B,black,woman,,,,,,,,
1821,"<img src=""portrait/WM2.jpg""style=""height:400px;""></img>",7,html-button-response,328,3196116,0.0-18.0-1.0,78747,List1B,black,woman,,TRUE,7,,,,,
null,CORRECT,,html-keyboard-response,329,3197640,0.0-18.0-2.0-0.0,78747,List1B,black,woman,,,,null,,,,
4518,"<img src=""portrait/WW2.jpg""style=""height:400px;""></img>",3,html-button-response,330,3202159,0.0-18.0-4.0,78747,List1B,black,woman,,TRUE,3,,,,,
null,CORRECT,,html-keyboard-response,331,3203675,0.0-18.0-5.0-0.0,78747,List1B,black,woman,,,,null,,,,
1411,"<img src=""portrait/BW2.jpg""style=""height:400px;""></img>",2,html-button-response,332,3205092,0.0-18.0-7.0,78747,List1B,black,woman,,TRUE,2,,,,,
null,CORRECT,,html-keyboard-response,333,3206606,0.0-18.0-8.0-0.0,78747,List1B,black,woman,,,,null,,,,
1510,"<img src=""portrait/WW1.jpg""style=""height:400px;""></img>",1,html-button-response,334,3208123,0.0-18.0-10.0,78747,List1B,black,woman,,TRUE,1,,,,,
null,CORRECT,,html-keyboard-response,335,3209647,0.0-18.0-11.0-0.0,78747,List1B,black,woman,,,,null,,,,
2000,"<img src=""portrait/BM1.jpg""style=""height:400px;""></img>",4,html-button-response,336,3211650,0.0-18.0-13.0,78747,List1B,black,woman,,TRUE,4,,,,,
null,CORRECT,,html-keyboard-response,337,3213168,0.0-18.0-14.0-0.0,78747,List1B,black,woman,,,,null,,,,
2486,"<img src=""portrait/WM1.jpg""style=""height:400px;""></img>",6,html-button-response,338,3215657,0.0-18.0-16.0,78747,List1B,black,woman,,TRUE,6,,,,,
null,CORRECT,,html-keyboard-response,339,3217181,0.0-18.0-17.0-0.0,78747,List1B,black,woman,,,,null,,,,
1097,"<img src=""portrait/BM2.jpg""style=""height:400px;""></img>",5,html-button-response,340,3218283,0.0-18.0-19.0,78747,List1B,black,woman,,TRUE,5,,,,,
null,CORRECT,,html-keyboard-response,341,3219800,0.0-18.0-20.0-0.0,78747,List1B,black,woman,,,,null,,,,
1654,"<img src=""portrait/BW1.jpg""style=""height:400px;""></img>",0,html-button-response,342,3221457,0.0-18.0-22.0,78747,List1B,black,woman,,TRUE,0,,,,,
null,CORRECT,,html-keyboard-response,343,3222978,0.0-18.0-23.0-0.0,78747,List1B,black,woman,,,,null,,,,
1312,<p>You got 8 out of 8 right first time. Press Continue.</p>,0,html-button-response,344,3224293,0.0-18.0-25.0,78747,List1B,black,woman,,,,,,,,
null,"<div style=""font-size:60px;"">+</div>",,html-keyboard-response,345,3225817,0.0-19.0-0.0,78747,List1B,black,woman,,,,null,,,,
null,"<img src=""stim_listB/dance8.gif""style=""height:400px;""></stim_listB>",,html-keyboard-response,346,3227831,0.0-19.0-1.0,78747,List1B,black,woman,,,,null,,,,
null,are dancing with each other,,html-keyboard-response,347,3229846,0.0-19.0-2.0,78747,List1B,black,woman,,,,null,,,,
10196,,,survey-text,348,3240044,0.0-19.0-3.0,78747,List1B,black,woman,,,,,"{""Q0"":""ruth and kate are dancing with each other""}","<img src=""stim_listB/dance8.gif""style=""height:400px;""></stim_listB>",are dancing with each other,
null,"<div style=""font-size:60px;"">+</div>",,html-keyboard-response,349,3240551,0.0-19.0-0.1,78747,List1B,black,woman,,,,null,,,,
null,"<img src=""stim_listB/talk3.gif""style=""height:400px;""></stim_listB>",,html-keyboard-response,350,3242569,0.0-19.0-1.1,78747,List1B,black,woman,,,,null,,,,
null,is talking to,,html-keyboard-response,351,3244582,0.0-19.0-2.1,78747,List1B,black,woman,,,,null,,,,
7245,,,survey-text,352,3251830,0.0-19.0-3.1,78747,List1B,black,woman,,,,,"{""Q0"":""ruth is talking to luke""}","<img src=""stim_listB/talk3.gif""style=""height:400px;""></stim_listB>",is talking to,
null,"<div style=""font-size:60px;"">+</div>",,html-keyboard-response,353,3252339,0.0-19.0-0.2,78747,List1B,black,woman,,,,null,,,,
null,"<img src=""stim_listB/dance6.gif""style=""height:400px;""></stim_listB>",,html-keyboard-response,354,3254351,0.0-19.0-1.2,78747,List1B,black,woman,,,,null,,,,
null,are dancing with each other,,html-keyboard-response,355,3256368,0.0-19.0-2.2,78747,List1B,black,woman,,,,null,,,,
12530,,,survey-text,356,3268900,0.0-19.0-3.2,78747,List1B,black,woman,,,,,"{""Q0"":""luke and mike are dancing with each other""}","<img src=""stim_listB/dance6.gif""style=""height:400px;""></stim_listB>",are dancing with each other,
null,"<div style=""font-size:60px;"">+</div>",,html-keyboard-response,357,3269420,0.0-19.0-0.3,78747,List1B,black,woman,,,,null,,,,
null,"<img src=""stim_listB/talk4.gif""style=""height:400px;""></stim_listB>",,html-keyboard-response,358,3271428,0.0-19.0-1.3,78747,List1B,black,woman,,,,null,,,,
null,are talking to each other,,html-keyboard-response,359,3273432,0.0-19.0-2.3,78747,List1B,black,woman,,,,null,,,,
9958,,,survey-text,360,3283393,0.0-19.0-3.3,78747,List1B,black,woman,,,,,"{""Q0"":""ruth and dave are talking to each other""}","<img src=""stim_listB/talk4.gif""style=""height:400px;""></stim_listB>",are talking to each other,
null,"<div style=""font-size:60px;"">+</div>",,html-keyboard-response,361,3283900,0.0-19.0-0.4,78747,List1B,black,woman,,,,null,,,,
null,"<img src=""stim_listB/argue2.gif""style=""height:400px;""></stim_listB>",,html-keyboard-response,362,3285916,0.0-19.0-1.4,78747,List1B,black,woman,,,,null,,,,
null,are arguing with each other,,html-keyboard-response,363,3287917,0.0-19.0-2.4,78747,List1B,black,woman,,,,null,,,,
9886,,,survey-text,364,3297805,0.0-19.0-3.4,78747,List1B,black,woman,,,,,"{""Q0"":""kate and fred are arguing with each other""}","<img src=""stim_listB/argue2.gif""style=""height:400px;""></stim_listB>",are arguing with each other,
null,"<div style=""font-size:60px;"">+</div>",,html-keyboard-response,365,3298311,0.0-19.0-0.5,78747,List1B,black,woman,,,,null,,,,
null,"<img src=""stim_listB/fight6.gif""style=""height:400px;""></stim_listB>",,html-keyboard-response,366,3300322,0.0-19.0-1.5,78747,List1B,black,woman,,,,null,,,,
null,are fighting each other,,html-keyboard-response,367,3302338,0.0-19.0-2.5,78747,List1B,black,woman,,,,null,,,,
11117,,,survey-text,368,3313458,0.0-19.0-3.5,78747,List1B,black,woman,,,,,"{""Q0"":""luke and fred are fighing  each other""}","<img src=""stim_listB/fight6.gif""style=""height:400px;""></stim_listB>",are fighting each other,
null,"<div style=""font-size:60px;"">+</div>",,html-keyboard-response,369,3313973,0.0-19.0-0.6,78747,List1B,black,woman,,,,null,,,,
null,"<img src=""stim_listB/play3.gif""style=""height:400px;""></stim_listB>",,html-keyboard-response,370,3315987,0.0-19.0-1.6,78747,List1B,black,woman,,,,null,,,,
null,is playing with,,html-keyboard-response,371,3318001,0.0-19.0-2.6,78747,List1B,black,woman,,,,null,,,,
11205,,,survey-text,372,3329208,0.0-19.0-3.6,78747,List1B,black,woman,,,,,"{""Q0"":""dave is playing with jane""}","<img src=""stim_listB/play3.gif""style=""height:400px;""></stim_listB>",is playing with,
null,"<div style=""font-size:60px;"">+</div>",,html-keyboard-response,373,3329733,0.0-19.0-0.7,78747,List1B,black,woman,,,,null,,,,
null,"<img src=""stim_listB/flirt3.gif""style=""height:400px;""></stim_listB>",,html-keyboard-response,374,3331744,0.0-19.0-1.7,78747,List1B,black,woman,,,,null,,,,
null,is flirting with,,html-keyboard-response,375,3333760,0.0-19.0-2.7,78747,List1B,black,woman,,,,null,,,,
13296,,,survey-text,376,3347060,0.0-19.0-3.7,78747,List1B,black,woman,,,,,"{""Q0"":""luke is flirting with jane""}","<img src=""stim_listB/flirt3.gif""style=""height:400px;""></stim_listB>",is flirting with,
null,"<div style=""font-size:60px;"">+</div>",,html-keyboard-response,377,3347581,0.0-19.0-0.8,78747,List1B,black,woman,,,,null,,,,
null,"<img src=""stim_listB/marry5.gif""style=""height:400px;""></stim_listB>",,html-keyboard-response,378,3349597,0.0-19.0-1.8,78747,List1B,black,woman,,,,null,,,,
null,is marrying,,html-keyboard-response,379,3351610,0.0-19.0-2.8,78747,List1B,black,woman,,,,null,,,,
8773,,,survey-text,380,3360383,0.0-19.0-3.8,78747,List1B,black,woman,,,,,"{""Q0"":""luke is marrying mike""}","<img src=""stim_listB/marry5.gif""style=""height:400px;""></stim_listB>",is marrying,
null,"<div style=""font-size:60px;"">+</div>",,html-keyboard-response,381,3360900,0.0-19.0-0.9,78747,List1B,black,woman,,,,null,,,,
null,"<img src=""stim_listB/kiss6.gif""style=""height:400px;""></stim_listB>",,html-keyboard-response,382,3362915,0.0-19.0-1.9,78747,List1B,black,woman,,,,null,,,,
null,are kissing each other,,html-keyboard-response,383,3364917,0.0-19.0-2.9,78747,List1B,black,woman,,,,null,,,,
10400,,,survey-text,384,3375318,0.0-19.0-3.9,78747,List1B,black,woman,,,,,"{""Q0"":""dave and mike are kissing each other""}","<img src=""stim_listB/kiss6.gif""style=""height:400px;""></stim_listB>",are kissing each other,
null,"<div style=""font-size:60px;"">+</div>",,html-keyboard-response,385,3375822,0.0-19.0-0.10,78747,List1B,black,woman,,,,null,,,,
null,"<img src=""stim_listB/kiss5.gif""style=""height:400px;""></stim_listB>",,html-keyboard-response,386,3377836,0.0-19.0-1.10,78747,List1B,black,woman,,,,null,,,,
null,is kissing,,html-keyboard-response,387,3379852,0.0-19.0-2.10,78747,List1B,black,woman,,,,null,,,,
8101,,,survey-text,388,3387954,0.0-19.0-3.10,78747,List1B,black,woman,,,,,"{""Q0"":""luke is kissing fred""}","<img src=""stim_listB/kiss5.gif""style=""height:400px;""></stim_listB>",is kissing,
null,"<div style=""font-size:60px;"">+</div>",,html-keyboard-response,389,3388459,0.0-19.0-0.11,78747,List1B,black,woman,,,,null,,,,
null,"<img src=""stim_listB/argue4.gif""style=""height:400px;""></stim_listB>",,html-keyboard-response,390,3390475,0.0-19.0-1.11,78747,List1B,black,woman,,,,null,,,,
null,are arguing with each other,,html-keyboard-response,391,3392488,0.0-19.0-2.11,78747,List1B,black,woman,,,,null,,,,
14798,,,survey-text,392,3407287,0.0-19.0-3.11,78747,List1B,black,woman,,,,,"{""Q0"":""luke and jane are arguing with each other""}","<img src=""stim_listB/argue4.gif""style=""height:400px;""></stim_listB>",are arguing with each other,
null,"<div style=""font-size:60px;"">+</div>",,html-keyboard-response,393,3407799,0.0-19.0-0.12,78747,List1B,black,woman,,,,null,,,,
null,"<img src=""stim_listB/play1.gif""style=""height:400px;""></stim_listB>",,html-keyboard-response,394,3409815,0.0-19.0-1.12,78747,List1B,black,woman,,,,null,,,,
null,is playing with,,html-keyboard-response,395,3411832,0.0-19.0-2.12,78747,List1B,black,woman,,,,null,,,,
6016,,,survey-text,396,3417849,0.0-19.0-3.12,78747,List1B,black,woman,,,,,"{""Q0"":""kate is playing with mike""}","<img src=""stim_listB/play1.gif""style=""height:400px;""></stim_listB>",is playing with,
null,"<div style=""font-size:60px;"">+</div>",,html-keyboard-response,397,3418362,0.0-19.0-0.13,78747,List1B,black,woman,,,,null,,,,
null,"<img src=""stim_listB/marry7.gif""style=""height:400px;""></stim_listB>",,html-keyboard-response,398,3420379,0.0-19.0-1.13,78747,List1B,black,woman,,,,null,,,,
null,is marrying,,html-keyboard-response,399,3422397,0.0-19.0-2.13,78747,List1B,black,woman,,,,null,,,,
13810,,,survey-text,400,3436214,0.0-19.0-3.13,78747,List1B,black,woman,,,,,"{""Q0"":""kate is marrying ruth""}","<img src=""stim_listB/marry7.gif""style=""height:400px;""></stim_listB>",is marrying,
null,"<div style=""font-size:60px;"">+</div>",,html-keyboard-response,401,3436723,0.0-19.0-0.14,78747,List1B,black,woman,,,,null,,,,
null,"<img src=""stim_listB/flirt1.gif""style=""height:400px;""></stim_listB>",,html-keyboard-response,402,3438738,0.0-19.0-1.14,78747,List1B,black,woman,,,,null,,,,
null,is flirting with,,html-keyboard-response,403,3440753,0.0-19.0-2.14,78747,List1B,black,woman,,,,null,,,,
10891,,,survey-text,404,3451649,0.0-19.0-3.14,78747,List1B,black,woman,,,,,"{""Q0"":""kate is flirting with  fred""}","<img src=""stim_listB/flirt1.gif""style=""height:400px;""></stim_listB>",is flirting with,
null,"<div style=""font-size:60px;"">+</div>",,html-keyboard-response,405,3452169,0.0-19.0-0.15,78747,List1B,black,woman,,,,null,,,,
null,"<img src=""stim_listB/touch1.gif""style=""height:400px;""></stim_listB>",,html-keyboard-response,406,3454182,0.0-19.0-1.15,78747,List1B,black,woman,,,,null,,,,
null,is touching,,html-keyboard-response,407,3456197,0.0-19.0-2.15,78747,List1B,black,woman,,,,null,,,,
12054,,,survey-text,408,3468253,0.0-19.0-3.15,78747,List1B,black,woman,,,,,"{""Q0"":""mike is touching kate""}","<img src=""stim_listB/touch1.gif""style=""height:400px;""></stim_listB>",is touching,
null,"<div style=""font-size:60px;"">+</div>",,html-keyboard-response,409,3468761,0.0-19.0-0.16,78747,List1B,black,woman,,,,null,,,,
null,"<img src=""stim_listB/flirt4.gif""style=""height:400px;""></stim_listB>",,html-keyboard-response,410,3470777,0.0-19.0-1.16,78747,List1B,black,woman,,,,null,,,,
null,are flirting with each other,,html-keyboard-response,411,3472793,0.0-19.0-2.16,78747,List1B,black,woman,,,,null,,,,
12328,,,survey-text,412,3485123,0.0-19.0-3.16,78747,List1B,black,woman,,,,,"{""Q0"":""dave and ruth are flirting with each other""}","<img src=""stim_listB/flirt4.gif""style=""height:400px;""></stim_listB>",are flirting with each other,
null,"<div style=""font-size:60px;"">+</div>",,html-keyboard-response,413,3485636,0.0-19.0-0.17,78747,List1B,black,woman,,,,null,,,,
null,"<img src=""stim_listB/play6.gif""style=""height:400px;""></stim_listB>",,html-keyboard-response,414,3487652,0.0-19.0-1.17,78747,List1B,black,woman,,,,null,,,,
null,are playing with each other,,html-keyboard-response,415,3489668,0.0-19.0-2.17,78747,List1B,black,woman,,,,null,,,,
11766,,,survey-text,416,3501434,0.0-19.0-3.17,78747,List1B,black,woman,,,,,"{""Q0"":""fred and luke are playing with each other""}","<img src=""stim_listB/play6.gif""style=""height:400px;""></stim_listB>",are playing with each other,
null,"<div style=""font-size:60px;"">+</div>",,html-keyboard-response,417,3501949,0.0-19.0-0.18,78747,List1B,black,woman,,,,null,,,,
null,"<img src=""stim_listB/fight8.gif""style=""height:400px;""></stim_listB>",,html-keyboard-response,418,3503963,0.0-19.0-1.18,78747,List1B,black,woman,,,,null,,,,
null,are fighting each other,,html-keyboard-response,419,3505966,0.0-19.0-2.18,78747,List1B,black,woman,,,,null,,,,
11981,,,survey-text,420,3517950,0.0-19.0-3.18,78747,List1B,black,woman,,,,,"{""Q0"":""ruth and beth are fighting with each other""}","<img src=""stim_listB/fight8.gif""style=""height:400px;""></stim_listB>",are fighting each other,
null,"<div style=""font-size:60px;"">+</div>",,html-keyboard-response,421,3518453,0.0-19.0-0.19,78747,List1B,black,woman,,,,null,,,,
null,"<img src=""stim_listB/dance7.gif""style=""height:400px;""></stim_listB>",,html-keyboard-response,422,3520469,0.0-19.0-1.19,78747,List1B,black,woman,,,,null,,,,
null,is dancing with,,html-keyboard-response,423,3522484,0.0-19.0-2.19,78747,List1B,black,woman,,,,null,,,,
8541,,,survey-text,424,3531026,0.0-19.0-3.19,78747,List1B,black,woman,,,,,"{""Q0"":""beth is dancing with jane""}","<img src=""stim_listB/dance7.gif""style=""height:400px;""></stim_listB>",is dancing with,
2667,<p>Thank you for completing that task.</p><p>The final part of this session is a short questionnaire.</p><p>Press Continue.</p>,0,html-button-response,425,3533698,0.0-20.0,78747,List1B,black,woman,,,,,,,,
36678,,,survey-text,426,3571392,0.0-21.0,78747,List1B,black,woman,,,,,"{""Q0"":""36"",""Q1"":""english"",""Q2"":""english"",""Q3"":""usa"",""Q4"":""black/white/hispanic"",""Q5"":""female""}",,,demographics
4493,,,survey-likert,427,3575897,0.0-22.0,78747,List1B,black,woman,,,,,"{""Q0"":4}",,,likert_ESS
4454,,,survey-likert,428,3580360,0.0-23.0,78747,List1B,black,woman,,,,,"{""Q0"":4}",,,likert_NSSAL_Q1
1930,,,survey-likert,429,3582299,0.0-24.0,78747,List1B,black,woman,,,,,"{""Q0"":4}",,,likert_NSSAL_Q2
2353,,,survey-likert,430,3584660,0.0-25.0,78747,List1B,black,woman,,,,,"{""Q0"":4}",,,likert_CGRS_Q1
4718,,,survey-likert,431,3589385,0.0-26.0,78747,List1B,black,woman,,,,,"{""Q0"":3}",,,likert_CGRS_Q2
2829,,,survey-likert,432,3592221,0.0-27.0,78747,List1B,black,woman,,,,,"{""Q0"":3}",,,likert_CGRS_Q3
9993,,,survey-text,433,3602219,0.0-28.0,78747,List1B,black,woman,,,,,"{""Q0"":""ccc""}",,,worker_id
35203,,,external-html,434,3638122,0.0-29.0,78747,List1B,black,woman,debrief.html,,,,,,,
