rt,stimulus,button_pressed,trial_type,trial_index,time_elapsed,internal_node_id,subject,list,ppt_race,ppt_gender,url,first_guess,correct,key_press,responses,image_type,phrase_type,test_part
2983,Welcome to the experiment. Press Continue to begin.,0,html-button-response,0,2992,0.0-0.0,78936,List1B,black,woman,,,,,,,,
21374,,,external-html,1,25462,0.0-1.0,78936,List1B,black,woman,consent.html,,,,,,,
7255,"<p>On the next page, you will see portraits of 8 people and their names.</p><p>Your first task is to take a few minutes to memorise the names of these people.</p><p>You will have to recall their names during the rest of the experiment, so it is</p><p>essential that you try to memorise these people and their names as best as you can.</p><br><p><strong>You will then be tested on your memory of these names and portraits.</strong></p><br><p>The experiment will start after you have completed this memory test.</p><br><p>Ready?</p>",0,html-button-response,2,32720,0.0-2.0,78936,List1B,black,woman,,,,,,,,
72391,"<img src='img/portrait_matrix_list1.jpg' style='width:900px;height:500px;''></img><p>If you have memorised all the portraits and names and are ready to start, press Continue.</p><p><strong>Please note: Your memory of these faces will be tested 4 times during this experiment.</strong></p>",0,html-button-response,3,106122,0.0-3.0-0.0,78936,List1B,black,woman,,,,,,,,
16452,"<img src=""portrait/BM1.jpg""style=""height:400px;""></img>",4,html-button-response,4,123581,0.0-3.0-1.0,78936,List1B,black,woman,,TRUE,4,,,,,
null,CORRECT,,html-keyboard-response,5,125091,0.0-3.0-2.0-0.0,78936,List1B,black,woman,,,,null,,,,
19045,"<img src=""portrait/BM2.jpg""style=""height:400px;""></img>",5,html-button-response,6,144139,0.0-3.0-4.0,78936,List1B,black,woman,,TRUE,5,,,,,
null,CORRECT,,html-keyboard-response,7,145644,0.0-3.0-5.0-0.0,78936,List1B,black,woman,,,,null,,,,
6839,"<img src=""portrait/WW1.jpg""style=""height:400px;""></img>",1,html-button-response,8,152484,0.0-3.0-7.0,78936,List1B,black,woman,,TRUE,1,,,,,
null,CORRECT,,html-keyboard-response,9,153988,0.0-3.0-8.0-0.0,78936,List1B,black,woman,,,,null,,,,
4918,"<img src=""portrait/BW2.jpg""style=""height:400px;""></img>",2,html-button-response,10,158909,0.0-3.0-10.0,78936,List1B,black,woman,,TRUE,2,,,,,
null,CORRECT,,html-keyboard-response,11,160413,0.0-3.0-11.0-0.0,78936,List1B,black,woman,,,,null,,,,
7689,"<img src=""portrait/BW1.jpg""style=""height:400px;""></img>",0,html-button-response,12,168105,0.0-3.0-13.0,78936,List1B,black,woman,,TRUE,0,,,,,
null,CORRECT,,html-keyboard-response,13,169609,0.0-3.0-14.0-0.0,78936,List1B,black,woman,,,,null,,,,
4734,"<img src=""portrait/WW2.jpg""style=""height:400px;""></img>",3,html-button-response,14,174346,0.0-3.0-16.0,78936,List1B,black,woman,,TRUE,3,,,,,
null,CORRECT,,html-keyboard-response,15,175850,0.0-3.0-17.0-0.0,78936,List1B,black,woman,,,,null,,,,
6547,"<img src=""portrait/WM1.jpg""style=""height:400px;""></img>",6,html-button-response,16,182400,0.0-3.0-19.0,78936,List1B,black,woman,,TRUE,6,,,,,
null,CORRECT,,html-keyboard-response,17,183904,0.0-3.0-20.0-0.0,78936,List1B,black,woman,,,,null,,,,
3944,"<img src=""portrait/WM2.jpg""style=""height:400px;""></img>",7,html-button-response,18,187851,0.0-3.0-22.0,78936,List1B,black,woman,,TRUE,7,,,,,
null,CORRECT,,html-keyboard-response,19,189356,0.0-3.0-23.0-0.0,78936,List1B,black,woman,,,,null,,,,
3529,<p>You got 8 out of 8 right first time. Press Continue.</p>,0,html-button-response,20,192888,0.0-3.0-25.0,78936,List1B,black,woman,,,,,,,,
27755,"<p>In this experiment, you will view photographs of the people from the memory game interacting.</p><p>By using the <strong>exact</strong> phrase given <i>after</i> the photograph appears and recalling the correct names of the people in the photographs, form a sentence describing the interaction. You do not need to capitalise names.</p><p>Type your answer in the space provided. Please complete every sentence before moving onto the next trial.</p><p>You will only have a few seconds to memorise each given photograph and phrase before you can respond, so try your best to focus.</p><p>An example is given below. Press 'Continue' when you are ready.</p><img src='img/speaking_example.jpg' style='width:800px;height:460px;''></img>",0,html-button-response,21,221651,0.0-4.0,78936,List1B,black,woman,,,,,,,,
3718,"<p>Before the experiment starts, you will watch two example trials. Press 'Continue'.</p>",0,html-button-response,22,226372,0.0-5.0,78936,List1B,black,woman,,,,,,,,
null,<img src='img/meet_eg.gif' style='height:400px;''></img>,,html-keyboard-response,23,229379,0.0-6.0,78936,List1B,black,woman,,,,null,,,,
null,<p>is meeting</p>,,html-keyboard-response,24,231381,0.0-7.0,78936,List1B,black,woman,,,,null,,,,
24307,<p><b>Answer:</b> kate is meeting beth</p>,0,html-button-response,25,255689,0.0-8.0,78936,List1B,black,woman,,,,,,,,
null,<img src='img/look_eg.gif' style='height:400px;''></img>,,html-keyboard-response,26,258693,0.0-9.0,78936,List1B,black,woman,,,,null,,,,
null,<p>are looking at each other</p>,,html-keyboard-response,27,260695,0.0-10.0,78936,List1B,black,woman,,,,null,,,,
8596,<p><b>Answer:</b> luke and dave are looking at each other</p>,0,html-button-response,28,269294,0.0-11.0,78936,List1B,black,woman,,,,,,,,
64891,"<p>Ready to start the experiment?</p><br><p><strong>Remember to describe the picture using a full sentence,</strong></p><p><strong>that combines the names of the people with the <i>exact</i> phrase given.</strong></p><p><strong>To receive full payment you must do this correctly.</strong></p><p><strong> You do not need to capitalise names or use punctuation.</strong></p><br><p>Press 'Continue' to begin.</p>",0,html-button-response,29,335188,0.0-12.0,78936,List1B,black,woman,,,,,,,,
null,"<div style=""font-size:60px;"">+</div>",,html-keyboard-response,30,336692,0.0-13.0-0.0,78936,List1B,black,woman,,,,null,,,,
null,"<img src=""stim_listB/talk2.gif""style=""height:400px;""></stim_listB>",,html-keyboard-response,31,338697,0.0-13.0-1.0,78936,List1B,black,woman,,,,null,,,,
null,are talking to each other,,html-keyboard-response,32,340699,0.0-13.0-2.0,78936,List1B,black,woman,,,,null,,,,
32144,,,survey-text,33,372847,0.0-13.0-3.0,78936,List1B,black,woman,,,,,"{""Q0"":""Mike and Beth are Talking""}","<img src=""stim_listB/talk2.gif""style=""height:400px;""></stim_listB>",are talking to each other,
null,"<div style=""font-size:60px;"">+</div>",,html-keyboard-response,34,373350,0.0-13.0-0.1,78936,List1B,black,woman,,,,null,,,,
null,"<img src=""stim_listB/flirt7.gif""style=""height:400px;""></stim_listB>",,html-keyboard-response,35,375353,0.0-13.0-1.1,78936,List1B,black,woman,,,,null,,,,
null,is flirting with,,html-keyboard-response,36,377355,0.0-13.0-2.1,78936,List1B,black,woman,,,,null,,,,
62464,,,survey-text,37,439820,0.0-13.0-3.1,78936,List1B,black,woman,,,,,"{""Q0"":""Jane and Beth are having a Conversation""}","<img src=""stim_listB/flirt7.gif""style=""height:400px;""></stim_listB>",is flirting with,
null,"<div style=""font-size:60px;"">+</div>",,html-keyboard-response,38,440323,0.0-13.0-0.2,78936,List1B,black,woman,,,,null,,,,
null,"<img src=""stim_listB/marry2.gif""style=""height:400px;""></stim_listB>",,html-keyboard-response,39,442327,0.0-13.0-1.2,78936,List1B,black,woman,,,,null,,,,
null,are marrying each other,,html-keyboard-response,40,444330,0.0-13.0-2.2,78936,List1B,black,woman,,,,null,,,,
57612,,,survey-text,41,501944,0.0-13.0-3.2,78936,List1B,black,woman,,,,,"{""Q0"":""Kate and Fred are marrying each other""}","<img src=""stim_listB/marry2.gif""style=""height:400px;""></stim_listB>",are marrying each other,
null,"<div style=""font-size:60px;"">+</div>",,html-keyboard-response,42,502446,0.0-13.0-0.3,78936,List1B,black,woman,,,,null,,,,
null,"<img src=""stim_listB/dance2.gif""style=""height:400px;""></stim_listB>",,html-keyboard-response,43,504451,0.0-13.0-1.3,78936,List1B,black,woman,,,,null,,,,
null,are dancing with each other,,html-keyboard-response,44,506454,0.0-13.0-2.3,78936,List1B,black,woman,,,,null,,,,
51349,,,survey-text,45,557804,0.0-13.0-3.3,78936,List1B,black,woman,,,,,"{""Q0"":""Beth and Mike are dancing with each other""}","<img src=""stim_listB/dance2.gif""style=""height:400px;""></stim_listB>",are dancing with each other,
null,"<div style=""font-size:60px;"">+</div>",,html-keyboard-response,46,558307,0.0-13.0-0.4,78936,List1B,black,woman,,,,null,,,,
null,"<img src=""stim_listB/kiss3.gif""style=""height:400px;""></stim_listB>",,html-keyboard-response,47,560311,0.0-13.0-1.4,78936,List1B,black,woman,,,,null,,,,
null,is kissing,,html-keyboard-response,48,562313,0.0-13.0-2.4,78936,List1B,black,woman,,,,null,,,,
50161,,,survey-text,49,612477,0.0-13.0-3.4,78936,List1B,black,woman,,,,,"{""Q0"":""Luke and Ruth is Kissing""}","<img src=""stim_listB/kiss3.gif""style=""height:400px;""></stim_listB>",is kissing,
null,"<div style=""font-size:60px;"">+</div>",,html-keyboard-response,50,612980,0.0-13.0-0.5,78936,List1B,black,woman,,,,null,,,,
null,"<img src=""stim_listB/play1.gif""style=""height:400px;""></stim_listB>",,html-keyboard-response,51,614984,0.0-13.0-1.5,78936,List1B,black,woman,,,,null,,,,
null,is playing with,,html-keyboard-response,52,616987,0.0-13.0-2.5,78936,List1B,black,woman,,,,null,,,,
47086,,,survey-text,53,664075,0.0-13.0-3.5,78936,List1B,black,woman,,,,,"{""Q0"":""Mike and Kate is Playing""}","<img src=""stim_listB/play1.gif""style=""height:400px;""></stim_listB>",is playing with,
null,"<div style=""font-size:60px;"">+</div>",,html-keyboard-response,54,664578,0.0-13.0-0.6,78936,List1B,black,woman,,,,null,,,,
null,"<img src=""stim_listB/touch4.gif""style=""height:400px;""></stim_listB>",,html-keyboard-response,55,666583,0.0-13.0-1.6,78936,List1B,black,woman,,,,null,,,,
null,are touching each other,,html-keyboard-response,56,668586,0.0-13.0-2.6,78936,List1B,black,woman,,,,null,,,,
40156,,,survey-text,57,708745,0.0-13.0-3.6,78936,List1B,black,woman,,,,,"{""Q0"":""Ruth and Luke is playing ""}","<img src=""stim_listB/touch4.gif""style=""height:400px;""></stim_listB>",are touching each other,
null,"<div style=""font-size:60px;"">+</div>",,html-keyboard-response,58,709248,0.0-13.0-0.7,78936,List1B,black,woman,,,,null,,,,
null,"<img src=""stim_listB/fight2.gif""style=""height:400px;""></stim_listB>",,html-keyboard-response,59,711254,0.0-13.0-1.7,78936,List1B,black,woman,,,,null,,,,
null,are fighting each other,,html-keyboard-response,60,713257,0.0-13.0-2.7,78936,List1B,black,woman,,,,null,,,,
32364,,,survey-text,61,745622,0.0-13.0-3.7,78936,List1B,black,woman,,,,,"{""Q0"":""Beth and Fred are fighting each other""}","<img src=""stim_listB/fight2.gif""style=""height:400px;""></stim_listB>",are fighting each other,
null,"<div style=""font-size:60px;"">+</div>",,html-keyboard-response,62,746125,0.0-13.0-0.8,78936,List1B,black,woman,,,,null,,,,
null,"<img src=""stim_listB/fight3.gif""style=""height:400px;""></stim_listB>",,html-keyboard-response,63,748129,0.0-13.0-1.8,78936,List1B,black,woman,,,,null,,,,
null,is fighting,,html-keyboard-response,64,750132,0.0-13.0-2.8,78936,List1B,black,woman,,,,null,,,,
63886,,,survey-text,65,814021,0.0-13.0-3.8,78936,List1B,black,woman,,,,,"{""Q0"":""Jane and Dave is fighting""}","<img src=""stim_listB/fight3.gif""style=""height:400px;""></stim_listB>",is fighting,
null,"<div style=""font-size:60px;"">+</div>",,html-keyboard-response,66,814525,0.0-13.0-0.9,78936,List1B,black,woman,,,,null,,,,
null,"<img src=""stim_listB/dance6.gif""style=""height:400px;""></stim_listB>",,html-keyboard-response,67,816531,0.0-13.0-1.9,78936,List1B,black,woman,,,,null,,,,
null,are dancing with each other,,html-keyboard-response,68,818535,0.0-13.0-2.9,78936,List1B,black,woman,,,,null,,,,
54386,,,survey-text,69,872922,0.0-13.0-3.9,78936,List1B,black,woman,,,,,"{""Q0"":""Mike and Luke are Dancing with each other""}","<img src=""stim_listB/dance6.gif""style=""height:400px;""></stim_listB>",are dancing with each other,
null,"<div style=""font-size:60px;"">+</div>",,html-keyboard-response,70,873424,0.0-13.0-0.10,78936,List1B,black,woman,,,,null,,,,
null,"<img src=""stim_listB/marry5.gif""style=""height:400px;""></stim_listB>",,html-keyboard-response,71,875430,0.0-13.0-1.10,78936,List1B,black,woman,,,,null,,,,
null,is marrying,,html-keyboard-response,72,877431,0.0-13.0-2.10,78936,List1B,black,woman,,,,null,,,,
24707,,,survey-text,73,902141,0.0-13.0-3.10,78936,List1B,black,woman,,,,,"{""Q0"":""Mike and Luke is Marrying""}","<img src=""stim_listB/marry5.gif""style=""height:400px;""></stim_listB>",is marrying,
null,"<div style=""font-size:60px;"">+</div>",,html-keyboard-response,74,902643,0.0-13.0-0.11,78936,List1B,black,woman,,,,null,,,,
null,"<img src=""stim_listB/marry1.gif""style=""height:400px;""></stim_listB>",,html-keyboard-response,75,904648,0.0-13.0-1.11,78936,List1B,black,woman,,,,null,,,,
null,is marrying,,html-keyboard-response,76,906651,0.0-13.0-2.11,78936,List1B,black,woman,,,,null,,,,
72169,,,survey-text,77,978823,0.0-13.0-3.11,78936,List1B,black,woman,,,,,"{""Q0"":""Beth and Mike is Marrying""}","<img src=""stim_listB/marry1.gif""style=""height:400px;""></stim_listB>",is marrying,
null,"<div style=""font-size:60px;"">+</div>",,html-keyboard-response,78,979325,0.0-13.0-0.12,78936,List1B,black,woman,,,,null,,,,
null,"<img src=""stim_listB/play4.gif""style=""height:400px;""></stim_listB>",,html-keyboard-response,79,981329,0.0-13.0-1.12,78936,List1B,black,woman,,,,null,,,,
null,are playing with each other,,html-keyboard-response,80,983333,0.0-13.0-2.12,78936,List1B,black,woman,,,,null,,,,
56838,,,survey-text,81,1040173,0.0-13.0-3.12,78936,List1B,black,woman,,,,,"{""Q0"":""Ruth and Luke are playing with each other""}","<img src=""stim_listB/play4.gif""style=""height:400px;""></stim_listB>",are playing with each other,
null,"<div style=""font-size:60px;"">+</div>",,html-keyboard-response,82,1040675,0.0-13.0-0.13,78936,List1B,black,woman,,,,null,,,,
null,"<img src=""stim_listB/flirt3.gif""style=""height:400px;""></stim_listB>",,html-keyboard-response,83,1042685,0.0-13.0-1.13,78936,List1B,black,woman,,,,null,,,,
null,is flirting with,,html-keyboard-response,84,1044687,0.0-13.0-2.13,78936,List1B,black,woman,,,,null,,,,
32992,,,survey-text,85,1077681,0.0-13.0-3.13,78936,List1B,black,woman,,,,,"{""Q0"":""Ruth and Luke is Flirting""}","<img src=""stim_listB/flirt3.gif""style=""height:400px;""></stim_listB>",is flirting with,
null,"<div style=""font-size:60px;"">+</div>",,html-keyboard-response,86,1078185,0.0-13.0-0.14,78936,List1B,black,woman,,,,null,,,,
null,"<img src=""stim_listB/argue1.gif""style=""height:400px;""></stim_listB>",,html-keyboard-response,87,1080189,0.0-13.0-1.14,78936,List1B,black,woman,,,,null,,,,
null,is arguing with,,html-keyboard-response,88,1082192,0.0-13.0-2.14,78936,List1B,black,woman,,,,null,,,,
48890,,,survey-text,89,1131083,0.0-13.0-3.14,78936,List1B,black,woman,,,,,"{""Q0"":""Beth and Mike is arguing""}","<img src=""stim_listB/argue1.gif""style=""height:400px;""></stim_listB>",is arguing with,
null,"<div style=""font-size:60px;"">+</div>",,html-keyboard-response,90,1131586,0.0-13.0-0.15,78936,List1B,black,woman,,,,null,,,,
null,"<img src=""stim_listB/dance8.gif""style=""height:400px;""></stim_listB>",,html-keyboard-response,91,1133590,0.0-13.0-1.15,78936,List1B,black,woman,,,,null,,,,
null,are dancing with each other,,html-keyboard-response,92,1135592,0.0-13.0-2.15,78936,List1B,black,woman,,,,null,,,,
72962,,,survey-text,93,1208556,0.0-13.0-3.15,78936,List1B,black,woman,,,,,"{""Q0"":""Ruth and Kate are dancing with each other""}","<img src=""stim_listB/dance8.gif""style=""height:400px;""></stim_listB>",are dancing with each other,
null,"<div style=""font-size:60px;"">+</div>",,html-keyboard-response,94,1209058,0.0-13.0-0.16,78936,List1B,black,woman,,,,null,,,,
null,"<img src=""stim_listB/talk5.gif""style=""height:400px;""></stim_listB>",,html-keyboard-response,95,1211062,0.0-13.0-1.16,78936,List1B,black,woman,,,,null,,,,
null,is talking to,,html-keyboard-response,96,1213065,0.0-13.0-2.16,78936,List1B,black,woman,,,,null,,,,
32850,,,survey-text,97,1245917,0.0-13.0-3.16,78936,List1B,black,woman,,,,,"{""Q0"":""Dave and Fred is Talking""}","<img src=""stim_listB/talk5.gif""style=""height:400px;""></stim_listB>",is talking to,
null,"<div style=""font-size:60px;"">+</div>",,html-keyboard-response,98,1246420,0.0-13.0-0.17,78936,List1B,black,woman,,,,null,,,,
null,"<img src=""stim_listB/flirt4.gif""style=""height:400px;""></stim_listB>",,html-keyboard-response,99,1248425,0.0-13.0-1.17,78936,List1B,black,woman,,,,null,,,,
null,are flirting with each other,,html-keyboard-response,100,1250428,0.0-13.0-2.17,78936,List1B,black,woman,,,,null,,,,
32889,,,survey-text,101,1283318,0.0-13.0-3.17,78936,List1B,black,woman,,,,,"{""Q0"":""Ruth and Dave are flirting with each other""}","<img src=""stim_listB/flirt4.gif""style=""height:400px;""></stim_listB>",are flirting with each other,
null,"<div style=""font-size:60px;"">+</div>",,html-keyboard-response,102,1283822,0.0-13.0-0.18,78936,List1B,black,woman,,,,null,,,,
null,"<img src=""stim_listB/kiss6.gif""style=""height:400px;""></stim_listB>",,html-keyboard-response,103,1285826,0.0-13.0-1.18,78936,List1B,black,woman,,,,null,,,,
null,are kissing each other,,html-keyboard-response,104,1287828,0.0-13.0-2.18,78936,List1B,black,woman,,,,null,,,,
39957,,,survey-text,105,1327787,0.0-13.0-3.18,78936,List1B,black,woman,,,,,"{""Q0"":""Mike and Dave are Kissing each other""}","<img src=""stim_listB/kiss6.gif""style=""height:400px;""></stim_listB>",are kissing each other,
null,"<div style=""font-size:60px;"">+</div>",,html-keyboard-response,106,1328290,0.0-13.0-0.19,78936,List1B,black,woman,,,,null,,,,
null,"<img src=""stim_listB/dance5.gif""style=""height:400px;""></stim_listB>",,html-keyboard-response,107,1330294,0.0-13.0-1.19,78936,List1B,black,woman,,,,null,,,,
null,is dancing with,,html-keyboard-response,108,1332296,0.0-13.0-2.19,78936,List1B,black,woman,,,,null,,,,
33272,,,survey-text,109,1365571,0.0-13.0-3.19,78936,List1B,black,woman,,,,,"{""Q0"":""Dave and Fred is Dancing""}","<img src=""stim_listB/dance5.gif""style=""height:400px;""></stim_listB>",is dancing with,
110226,"<img src='img/portrait_matrix_list1.jpg' style='width:900px;height:500px;''></img><p>If you have memorised all the portraits and names and are ready to start, press Continue.</p><p><strong>Please note: Your memory of these faces will be tested 4 times during this experiment.</strong></p>",0,html-button-response,110,1475798,0.0-14.0-0.0,78936,List1B,black,woman,,,,,,,,
3866,"<img src=""portrait/BW2.jpg""style=""height:400px;""></img>",2,html-button-response,111,1480667,0.0-14.0-1.0,78936,List1B,black,woman,,TRUE,2,,,,,
null,CORRECT,,html-keyboard-response,112,1482173,0.0-14.0-2.0-0.0,78936,List1B,black,woman,,,,null,,,,
4188,"<img src=""portrait/WM1.jpg""style=""height:400px;""></img>",6,html-button-response,113,1486364,0.0-14.0-4.0,78936,List1B,black,woman,,TRUE,6,,,,,
null,CORRECT,,html-keyboard-response,114,1487867,0.0-14.0-5.0-0.0,78936,List1B,black,woman,,,,null,,,,
4508,"<img src=""portrait/WW1.jpg""style=""height:400px;""></img>",1,html-button-response,115,1492378,0.0-14.0-7.0,78936,List1B,black,woman,,TRUE,1,,,,,
null,CORRECT,,html-keyboard-response,116,1493882,0.0-14.0-8.0-0.0,78936,List1B,black,woman,,,,null,,,,
2496,"<img src=""portrait/WM2.jpg""style=""height:400px;""></img>",7,html-button-response,117,1496380,0.0-14.0-10.0,78936,List1B,black,woman,,TRUE,7,,,,,
null,CORRECT,,html-keyboard-response,118,1497886,0.0-14.0-11.0-0.0,78936,List1B,black,woman,,,,null,,,,
3004,"<img src=""portrait/BM2.jpg""style=""height:400px;""></img>",5,html-button-response,119,1500893,0.0-14.0-13.0,78936,List1B,black,woman,,TRUE,5,,,,,
null,CORRECT,,html-keyboard-response,120,1502399,0.0-14.0-14.0-0.0,78936,List1B,black,woman,,,,null,,,,
3957,"<img src=""portrait/BW1.jpg""style=""height:400px;""></img>",0,html-button-response,121,1506359,0.0-14.0-16.0,78936,List1B,black,woman,,TRUE,0,,,,,
null,CORRECT,,html-keyboard-response,122,1507864,0.0-14.0-17.0-0.0,78936,List1B,black,woman,,,,null,,,,
3201,"<img src=""portrait/WW2.jpg""style=""height:400px;""></img>",3,html-button-response,123,1511068,0.0-14.0-19.0,78936,List1B,black,woman,,TRUE,3,,,,,
null,CORRECT,,html-keyboard-response,124,1512572,0.0-14.0-20.0-0.0,78936,List1B,black,woman,,,,null,,,,
3298,"<img src=""portrait/BM1.jpg""style=""height:400px;""></img>",4,html-button-response,125,1515874,0.0-14.0-22.0,78936,List1B,black,woman,,TRUE,4,,,,,
null,CORRECT,,html-keyboard-response,126,1517379,0.0-14.0-23.0-0.0,78936,List1B,black,woman,,,,null,,,,
2896,<p>You got 8 out of 8 right first time. Press Continue.</p>,0,html-button-response,127,1520278,0.0-14.0-25.0,78936,List1B,black,woman,,,,,,,,
null,"<div style=""font-size:60px;"">+</div>",,html-keyboard-response,128,1521784,0.0-15.0-0.0,78936,List1B,black,woman,,,,null,,,,
null,"<img src=""stim_listB/play6.gif""style=""height:400px;""></stim_listB>",,html-keyboard-response,129,1523789,0.0-15.0-1.0,78936,List1B,black,woman,,,,null,,,,
null,are playing with each other,,html-keyboard-response,130,1525792,0.0-15.0-2.0,78936,List1B,black,woman,,,,null,,,,
33913,,,survey-text,131,1559707,0.0-15.0-3.0,78936,List1B,black,woman,,,,,"{""Q0"":""Fred and Luke are playing with each other""}","<img src=""stim_listB/play6.gif""style=""height:400px;""></stim_listB>",are playing with each other,
null,"<div style=""font-size:60px;"">+</div>",,html-keyboard-response,132,1560209,0.0-15.0-0.1,78936,List1B,black,woman,,,,null,,,,
null,"<img src=""stim_listB/kiss5.gif""style=""height:400px;""></stim_listB>",,html-keyboard-response,133,1562213,0.0-15.0-1.1,78936,List1B,black,woman,,,,null,,,,
null,is kissing,,html-keyboard-response,134,1564216,0.0-15.0-2.1,78936,List1B,black,woman,,,,null,,,,
12889,,,survey-text,135,1577106,0.0-15.0-3.1,78936,List1B,black,woman,,,,,"{""Q0"":""Fred and Luke is Kissing""}","<img src=""stim_listB/kiss5.gif""style=""height:400px;""></stim_listB>",is kissing,
null,"<div style=""font-size:60px;"">+</div>",,html-keyboard-response,136,1577610,0.0-15.0-0.2,78936,List1B,black,woman,,,,null,,,,
null,"<img src=""stim_listB/kiss4.gif""style=""height:400px;""></stim_listB>",,html-keyboard-response,137,1579616,0.0-15.0-1.2,78936,List1B,black,woman,,,,null,,,,
null,are kissing each other,,html-keyboard-response,138,1581617,0.0-15.0-2.2,78936,List1B,black,woman,,,,null,,,,
29223,,,survey-text,139,1610842,0.0-15.0-3.2,78936,List1B,black,woman,,,,,"{""Q0"":""Jane and Dave is Kissing""}","<img src=""stim_listB/kiss4.gif""style=""height:400px;""></stim_listB>",are kissing each other,
null,"<div style=""font-size:60px;"">+</div>",,html-keyboard-response,140,1611345,0.0-15.0-0.3,78936,List1B,black,woman,,,,null,,,,
null,"<img src=""stim_listB/fight1.gif""style=""height:400px;""></stim_listB>",,html-keyboard-response,141,1613349,0.0-15.0-1.3,78936,List1B,black,woman,,,,null,,,,
null,is fighting,,html-keyboard-response,142,1615352,0.0-15.0-2.3,78936,List1B,black,woman,,,,null,,,,
20490,,,survey-text,143,1635844,0.0-15.0-3.3,78936,List1B,black,woman,,,,,"{""Q0"":""Mike and Kate is Fighting""}","<img src=""stim_listB/fight1.gif""style=""height:400px;""></stim_listB>",is fighting,
null,"<div style=""font-size:60px;"">+</div>",,html-keyboard-response,144,1636346,0.0-15.0-0.4,78936,List1B,black,woman,,,,null,,,,
null,"<img src=""stim_listB/shout3.gif""style=""height:400px;""></stim_listB>",,html-keyboard-response,145,1638352,0.0-15.0-1.4,78936,List1B,black,woman,,,,null,,,,
null,is shouting at,,html-keyboard-response,146,1640355,0.0-15.0-2.4,78936,List1B,black,woman,,,,null,,,,
10581,,,survey-text,147,1650938,0.0-15.0-3.4,78936,List1B,black,woman,,,,,"{""Q0"":""Luke and Ruth is Shouting""}","<img src=""stim_listB/shout3.gif""style=""height:400px;""></stim_listB>",is shouting at,
null,"<div style=""font-size:60px;"">+</div>",,html-keyboard-response,148,1651441,0.0-15.0-0.5,78936,List1B,black,woman,,,,null,,,,
null,"<img src=""stim_listB/flirt5.gif""style=""height:400px;""></stim_listB>",,html-keyboard-response,149,1653446,0.0-15.0-1.5,78936,List1B,black,woman,,,,null,,,,
null,is flirting with,,html-keyboard-response,150,1655449,0.0-15.0-2.5,78936,List1B,black,woman,,,,null,,,,
17695,,,survey-text,151,1673147,0.0-15.0-3.5,78936,List1B,black,woman,,,,,"{""Q0"":""Fred and Dave is Flirting""}","<img src=""stim_listB/flirt5.gif""style=""height:400px;""></stim_listB>",is flirting with,
null,"<div style=""font-size:60px;"">+</div>",,html-keyboard-response,152,1673650,0.0-15.0-0.6,78936,List1B,black,woman,,,,null,,,,
null,"<img src=""stim_listB/fight5.gif""style=""height:400px;""></stim_listB>",,html-keyboard-response,153,1675655,0.0-15.0-1.6,78936,List1B,black,woman,,,,null,,,,
null,is fighting,,html-keyboard-response,154,1677657,0.0-15.0-2.6,78936,List1B,black,woman,,,,null,,,,
31155,,,survey-text,155,1708815,0.0-15.0-3.6,78936,List1B,black,woman,,,,,"{""Q0"":""Mike and Dave is Fighting""}","<img src=""stim_listB/fight5.gif""style=""height:400px;""></stim_listB>",is fighting,
null,"<div style=""font-size:60px;"">+</div>",,html-keyboard-response,156,1709317,0.0-15.0-0.7,78936,List1B,black,woman,,,,null,,,,
null,"<img src=""stim_listB/fight7.gif""style=""height:400px;""></stim_listB>",,html-keyboard-response,157,1711321,0.0-15.0-1.7,78936,List1B,black,woman,,,,null,,,,
null,is fighting,,html-keyboard-response,158,1713323,0.0-15.0-2.7,78936,List1B,black,woman,,,,null,,,,
16098,,,survey-text,159,1729424,0.0-15.0-3.7,78936,List1B,black,woman,,,,,"{""Q0"":""Jane and Kate is Fighting""}","<img src=""stim_listB/fight7.gif""style=""height:400px;""></stim_listB>",is fighting,
null,"<div style=""font-size:60px;"">+</div>",,html-keyboard-response,160,1729926,0.0-15.0-0.8,78936,List1B,black,woman,,,,null,,,,
null,"<img src=""stim_listB/dance1.gif""style=""height:400px;""></stim_listB>",,html-keyboard-response,161,1731931,0.0-15.0-1.8,78936,List1B,black,woman,,,,null,,,,
null,is dancing with,,html-keyboard-response,162,1733934,0.0-15.0-2.8,78936,List1B,black,woman,,,,null,,,,
52868,,,survey-text,163,1786803,0.0-15.0-3.8,78936,List1B,black,woman,,,,,"{""Q0"":""Fred is Dancing with Kate""}","<img src=""stim_listB/dance1.gif""style=""height:400px;""></stim_listB>",is dancing with,
null,"<div style=""font-size:60px;"">+</div>",,html-keyboard-response,164,1787305,0.0-15.0-0.9,78936,List1B,black,woman,,,,null,,,,
null,"<img src=""stim_listB/talk6.gif""style=""height:400px;""></stim_listB>",,html-keyboard-response,165,1789309,0.0-15.0-1.9,78936,List1B,black,woman,,,,null,,,,
null,are talking to each other,,html-keyboard-response,166,1791311,0.0-15.0-2.9,78936,List1B,black,woman,,,,null,,,,
42258,,,survey-text,167,1833572,0.0-15.0-3.9,78936,List1B,black,woman,,,,,"{""Q0"":""Mike and Luke are talking ""}","<img src=""stim_listB/talk6.gif""style=""height:400px;""></stim_listB>",are talking to each other,
null,"<div style=""font-size:60px;"">+</div>",,html-keyboard-response,168,1834074,0.0-15.0-0.10,78936,List1B,black,woman,,,,null,,,,
null,"<img src=""stim_listB/argue5.gif""style=""height:400px;""></stim_listB>",,html-keyboard-response,169,1836079,0.0-15.0-1.10,78936,List1B,black,woman,,,,null,,,,
null,is arguing with,,html-keyboard-response,170,1838080,0.0-15.0-2.10,78936,List1B,black,woman,,,,null,,,,
24803,,,survey-text,171,1862885,0.0-15.0-3.10,78936,List1B,black,woman,,,,,"{""Q0"":""Mike and Luke is Arguing""}","<img src=""stim_listB/argue5.gif""style=""height:400px;""></stim_listB>",is arguing with,
null,"<div style=""font-size:60px;"">+</div>",,html-keyboard-response,172,1863387,0.0-15.0-0.11,78936,List1B,black,woman,,,,null,,,,
null,"<img src=""stim_listB/kiss1.gif""style=""height:400px;""></stim_listB>",,html-keyboard-response,173,1865391,0.0-15.0-1.11,78936,List1B,black,woman,,,,null,,,,
null,is kissing,,html-keyboard-response,174,1867394,0.0-15.0-2.11,78936,List1B,black,woman,,,,null,,,,
21105,,,survey-text,175,1888502,0.0-15.0-3.11,78936,List1B,black,woman,,,,,"{""Q0"":""Beth and Fred is Kissing""}","<img src=""stim_listB/kiss1.gif""style=""height:400px;""></stim_listB>",is kissing,
null,"<div style=""font-size:60px;"">+</div>",,html-keyboard-response,176,1889004,0.0-15.0-0.12,78936,List1B,black,woman,,,,null,,,,
null,"<img src=""stim_listB/flirt2.gif""style=""height:400px;""></stim_listB>",,html-keyboard-response,177,1891008,0.0-15.0-1.12,78936,List1B,black,woman,,,,null,,,,
null,are flirting with each other,,html-keyboard-response,178,1893010,0.0-15.0-2.12,78936,List1B,black,woman,,,,null,,,,
14739,,,survey-text,179,1907751,0.0-15.0-3.12,78936,List1B,black,woman,,,,,"{""Q0"":""Mike and Beth are Flirting with each other ""}","<img src=""stim_listB/flirt2.gif""style=""height:400px;""></stim_listB>",are flirting with each other,
null,"<div style=""font-size:60px;"">+</div>",,html-keyboard-response,180,1908254,0.0-15.0-0.13,78936,List1B,black,woman,,,,null,,,,
null,"<img src=""stim_listB/argue2.gif""style=""height:400px;""></stim_listB>",,html-keyboard-response,181,1910258,0.0-15.0-1.13,78936,List1B,black,woman,,,,null,,,,
null,are arguing with each other,,html-keyboard-response,182,1912260,0.0-15.0-2.13,78936,List1B,black,woman,,,,null,,,,
58992,,,survey-text,183,1971255,0.0-15.0-3.13,78936,List1B,black,woman,,,,,"{""Q0"":""Kate and Fred are arguing with each other""}","<img src=""stim_listB/argue2.gif""style=""height:400px;""></stim_listB>",are arguing with each other,
null,"<div style=""font-size:60px;"">+</div>",,html-keyboard-response,184,1971757,0.0-15.0-0.14,78936,List1B,black,woman,,,,null,,,,
null,"<img src=""stim_listB/shout2.gif""style=""height:400px;""></stim_listB>",,html-keyboard-response,185,1973761,0.0-15.0-1.14,78936,List1B,black,woman,,,,null,,,,
null,are shouting at each other,,html-keyboard-response,186,1975763,0.0-15.0-2.14,78936,List1B,black,woman,,,,null,,,,
45301,,,survey-text,187,2021066,0.0-15.0-3.14,78936,List1B,black,woman,,,,,"{""Q0"":""Mike and Kate are arguing with each other""}","<img src=""stim_listB/shout2.gif""style=""height:400px;""></stim_listB>",are shouting at each other,
null,"<div style=""font-size:60px;"">+</div>",,html-keyboard-response,188,2021569,0.0-15.0-0.15,78936,List1B,black,woman,,,,null,,,,
null,"<img src=""stim_listB/shout1.gif""style=""height:400px;""></stim_listB>",,html-keyboard-response,189,2023573,0.0-15.0-1.15,78936,List1B,black,woman,,,,null,,,,
null,is shouting at,,html-keyboard-response,190,2025575,0.0-15.0-2.15,78936,List1B,black,woman,,,,null,,,,
44035,,,survey-text,191,2069613,0.0-15.0-3.15,78936,List1B,black,woman,,,,,"{""Q0"":""Fred and Beth is laughing at each other""}","<img src=""stim_listB/shout1.gif""style=""height:400px;""></stim_listB>",is shouting at,
null,"<div style=""font-size:60px;"">+</div>",,html-keyboard-response,192,2070114,0.0-15.0-0.16,78936,List1B,black,woman,,,,null,,,,
null,"<img src=""stim_listB/argue7.gif""style=""height:400px;""></stim_listB>",,html-keyboard-response,193,2072119,0.0-15.0-1.16,78936,List1B,black,woman,,,,null,,,,
null,is arguing with,,html-keyboard-response,194,2074122,0.0-15.0-2.16,78936,List1B,black,woman,,,,null,,,,
106898,,,survey-text,195,2181022,0.0-15.0-3.16,78936,List1B,black,woman,,,,,"{""Q0"":""Jane and Kate is Arguing""}","<img src=""stim_listB/argue7.gif""style=""height:400px;""></stim_listB>",is arguing with,
null,"<div style=""font-size:60px;"">+</div>",,html-keyboard-response,196,2181526,0.0-15.0-0.17,78936,List1B,black,woman,,,,null,,,,
null,"<img src=""stim_listB/marry6.gif""style=""height:400px;""></stim_listB>",,html-keyboard-response,197,2183534,0.0-15.0-1.17,78936,List1B,black,woman,,,,null,,,,
null,are marrying each other,,html-keyboard-response,198,2185537,0.0-15.0-2.17,78936,List1B,black,woman,,,,null,,,,
22173,,,survey-text,199,2207711,0.0-15.0-3.17,78936,List1B,black,woman,,,,,"{""Q0"":""Dave and Fred are Marrying eachother""}","<img src=""stim_listB/marry6.gif""style=""height:400px;""></stim_listB>",are marrying each other,
null,"<div style=""font-size:60px;"">+</div>",,html-keyboard-response,200,2208213,0.0-15.0-0.18,78936,List1B,black,woman,,,,null,,,,
null,"<img src=""stim_listB/play8.gif""style=""height:400px;""></stim_listB>",,html-keyboard-response,201,2210218,0.0-15.0-1.18,78936,List1B,black,woman,,,,null,,,,
null,are playing with each other,,html-keyboard-response,202,2212220,0.0-15.0-2.18,78936,List1B,black,woman,,,,null,,,,
29529,,,survey-text,203,2241750,0.0-15.0-3.18,78936,List1B,black,woman,,,,,"{""Q0"":""Kate and Ruth are playing with each other""}","<img src=""stim_listB/play8.gif""style=""height:400px;""></stim_listB>",are playing with each other,
null,"<div style=""font-size:60px;"">+</div>",,html-keyboard-response,204,2242252,0.0-15.0-0.19,78936,List1B,black,woman,,,,null,,,,
null,"<img src=""stim_listB/talk1.gif""style=""height:400px;""></stim_listB>",,html-keyboard-response,205,2244259,0.0-15.0-1.19,78936,List1B,black,woman,,,,null,,,,
null,is talking to,,html-keyboard-response,206,2246261,0.0-15.0-2.19,78936,List1B,black,woman,,,,null,,,,
26421,,,survey-text,207,2272684,0.0-15.0-3.19,78936,List1B,black,woman,,,,,"{""Q0"":""Fred is talking to Kate""}","<img src=""stim_listB/talk1.gif""style=""height:400px;""></stim_listB>",is talking to,
26363,"<img src='img/portrait_matrix_list1.jpg' style='width:900px;height:500px;''></img><p>If you have memorised all the portraits and names and are ready to start, press Continue.</p><p><strong>Please note: Your memory of these faces will be tested 4 times during this experiment.</strong></p>",0,html-button-response,208,2299049,0.0-16.0-0.0,78936,List1B,black,woman,,,,,,,,
6122,"<img src=""portrait/WM1.jpg""style=""height:400px;""></img>",6,html-button-response,209,2306188,0.0-16.0-1.0,78936,List1B,black,woman,,TRUE,6,,,,,
null,CORRECT,,html-keyboard-response,210,2307728,0.0-16.0-2.0-0.0,78936,List1B,black,woman,,,,null,,,,
3023,"<img src=""portrait/WW1.jpg""style=""height:400px;""></img>",1,html-button-response,211,2310753,0.0-16.0-4.0,78936,List1B,black,woman,,TRUE,1,,,,,
null,CORRECT,,html-keyboard-response,212,2312258,0.0-16.0-5.0-0.0,78936,List1B,black,woman,,,,null,,,,
2666,"<img src=""portrait/BM1.jpg""style=""height:400px;""></img>",4,html-button-response,213,2314927,0.0-16.0-7.0,78936,List1B,black,woman,,TRUE,4,,,,,
null,CORRECT,,html-keyboard-response,214,2316431,0.0-16.0-8.0-0.0,78936,List1B,black,woman,,,,null,,,,
3350,"<img src=""portrait/WM2.jpg""style=""height:400px;""></img>",7,html-button-response,215,2319785,0.0-16.0-10.0,78936,List1B,black,woman,,TRUE,7,,,,,
null,CORRECT,,html-keyboard-response,216,2321290,0.0-16.0-11.0-0.0,78936,List1B,black,woman,,,,null,,,,
3485,"<img src=""portrait/BW2.jpg""style=""height:400px;""></img>",2,html-button-response,217,2324777,0.0-16.0-13.0,78936,List1B,black,woman,,TRUE,2,,,,,
null,CORRECT,,html-keyboard-response,218,2326281,0.0-16.0-14.0-0.0,78936,List1B,black,woman,,,,null,,,,
2276,"<img src=""portrait/WW2.jpg""style=""height:400px;""></img>",3,html-button-response,219,2328561,0.0-16.0-16.0,78936,List1B,black,woman,,TRUE,3,,,,,
null,CORRECT,,html-keyboard-response,220,2330066,0.0-16.0-17.0-0.0,78936,List1B,black,woman,,,,null,,,,
4057,"<img src=""portrait/BM2.jpg""style=""height:400px;""></img>",5,html-button-response,221,2334126,0.0-16.0-19.0,78936,List1B,black,woman,,TRUE,5,,,,,
null,CORRECT,,html-keyboard-response,222,2335632,0.0-16.0-20.0-0.0,78936,List1B,black,woman,,,,null,,,,
14224,"<img src=""portrait/BW1.jpg""style=""height:400px;""></img>",0,html-button-response,223,2349859,0.0-16.0-22.0,78936,List1B,black,woman,,TRUE,0,,,,,
null,CORRECT,,html-keyboard-response,224,2351363,0.0-16.0-23.0-0.0,78936,List1B,black,woman,,,,null,,,,
2983,<p>You got 8 out of 8 right first time. Press Continue.</p>,0,html-button-response,225,2354351,0.0-16.0-25.0,78936,List1B,black,woman,,,,,,,,
null,"<div style=""font-size:60px;"">+</div>",,html-keyboard-response,226,2355856,0.0-17.0-0.0,78936,List1B,black,woman,,,,null,,,,
null,"<img src=""stim_listB/talk8.gif""style=""height:400px;""></stim_listB>",,html-keyboard-response,227,2357862,0.0-17.0-1.0,78936,List1B,black,woman,,,,null,,,,
null,are talking to each other,,html-keyboard-response,228,2359865,0.0-17.0-2.0,78936,List1B,black,woman,,,,null,,,,
19051,,,survey-text,229,2378919,0.0-17.0-3.0,78936,List1B,black,woman,,,,,"{""Q0"":""Kate and Ruth are talking to eachother""}","<img src=""stim_listB/talk8.gif""style=""height:400px;""></stim_listB>",are talking to each other,
null,"<div style=""font-size:60px;"">+</div>",,html-keyboard-response,230,2379421,0.0-17.0-0.1,78936,List1B,black,woman,,,,null,,,,
null,"<img src=""stim_listB/flirt6.gif""style=""height:400px;""></stim_listB>",,html-keyboard-response,231,2381427,0.0-17.0-1.1,78936,List1B,black,woman,,,,null,,,,
null,are flirting with each other,,html-keyboard-response,232,2383430,0.0-17.0-2.1,78936,List1B,black,woman,,,,null,,,,
23022,,,survey-text,233,2406454,0.0-17.0-3.1,78936,List1B,black,woman,,,,,"{""Q0"":""Mike and Luke are Flirting with each other ""}","<img src=""stim_listB/flirt6.gif""style=""height:400px;""></stim_listB>",are flirting with each other,
null,"<div style=""font-size:60px;"">+</div>",,html-keyboard-response,234,2406957,0.0-17.0-0.2,78936,List1B,black,woman,,,,null,,,,
null,"<img src=""stim_listB/shout5.gif""style=""height:400px;""></stim_listB>",,html-keyboard-response,235,2408961,0.0-17.0-1.2,78936,List1B,black,woman,,,,null,,,,
null,is shouting at,,html-keyboard-response,236,2410963,0.0-17.0-2.2,78936,List1B,black,woman,,,,null,,,,
17505,,,survey-text,237,2428471,0.0-17.0-3.2,78936,List1B,black,woman,,,,,"{""Q0"":""Fred is Shouting at Luke""}","<img src=""stim_listB/shout5.gif""style=""height:400px;""></stim_listB>",is shouting at,
null,"<div style=""font-size:60px;"">+</div>",,html-keyboard-response,238,2428972,0.0-17.0-0.3,78936,List1B,black,woman,,,,null,,,,
null,"<img src=""stim_listB/talk3.gif""style=""height:400px;""></stim_listB>",,html-keyboard-response,239,2430976,0.0-17.0-1.3,78936,List1B,black,woman,,,,null,,,,
null,is talking to,,html-keyboard-response,240,2432979,0.0-17.0-2.3,78936,List1B,black,woman,,,,null,,,,
32053,,,survey-text,241,2465034,0.0-17.0-3.3,78936,List1B,black,woman,,,,,"{""Q0"":""Jane is talking to Luke ""}","<img src=""stim_listB/talk3.gif""style=""height:400px;""></stim_listB>",is talking to,
null,"<div style=""font-size:60px;"">+</div>",,html-keyboard-response,242,2465536,0.0-17.0-0.4,78936,List1B,black,woman,,,,null,,,,
null,"<img src=""stim_listB/shout7.gif""style=""height:400px;""></stim_listB>",,html-keyboard-response,243,2467541,0.0-17.0-1.4,78936,List1B,black,woman,,,,null,,,,
null,is shouting at,,html-keyboard-response,244,2469544,0.0-17.0-2.4,78936,List1B,black,woman,,,,null,,,,
15928,,,survey-text,245,2485475,0.0-17.0-3.4,78936,List1B,black,woman,,,,,"{""Q0"":""Ruth is shouting at Beth""}","<img src=""stim_listB/shout7.gif""style=""height:400px;""></stim_listB>",is shouting at,
null,"<div style=""font-size:60px;"">+</div>",,html-keyboard-response,246,2485978,0.0-17.0-0.5,78936,List1B,black,woman,,,,null,,,,
null,"<img src=""stim_listB/play5.gif""style=""height:400px;""></stim_listB>",,html-keyboard-response,247,2487983,0.0-17.0-1.5,78936,List1B,black,woman,,,,null,,,,
null,is playing with,,html-keyboard-response,248,2489987,0.0-17.0-2.5,78936,List1B,black,woman,,,,null,,,,
15951,,,survey-text,249,2505940,0.0-17.0-3.5,78936,List1B,black,woman,,,,,"{""Q0"":""Mike is playing with Dave""}","<img src=""stim_listB/play5.gif""style=""height:400px;""></stim_listB>",is playing with,
null,"<div style=""font-size:60px;"">+</div>",,html-keyboard-response,250,2506442,0.0-17.0-0.6,78936,List1B,black,woman,,,,null,,,,
null,"<img src=""stim_listB/touch3.gif""style=""height:400px;""></stim_listB>",,html-keyboard-response,251,2508447,0.0-17.0-1.6,78936,List1B,black,woman,,,,null,,,,
null,is touching,,html-keyboard-response,252,2510451,0.0-17.0-2.6,78936,List1B,black,woman,,,,null,,,,
79742,,,survey-text,253,2590197,0.0-17.0-3.6,78936,List1B,black,woman,,,,,"{""Q0"":""Dave is Touching Jane""}","<img src=""stim_listB/touch3.gif""style=""height:400px;""></stim_listB>",is touching,
null,"<div style=""font-size:60px;"">+</div>",,html-keyboard-response,254,2590699,0.0-17.0-0.7,78936,List1B,black,woman,,,,null,,,,
null,"<img src=""stim_listB/touch2.gif""style=""height:400px;""></stim_listB>",,html-keyboard-response,255,2592703,0.0-17.0-1.7,78936,List1B,black,woman,,,,null,,,,
null,are touching each other,,html-keyboard-response,256,2594706,0.0-17.0-2.7,78936,List1B,black,woman,,,,null,,,,
36202,,,survey-text,257,2630911,0.0-17.0-3.7,78936,List1B,black,woman,,,,,"{""Q0"":""Beth and Fred are Touching each other""}","<img src=""stim_listB/touch2.gif""style=""height:400px;""></stim_listB>",are touching each other,
null,"<div style=""font-size:60px;"">+</div>",,html-keyboard-response,258,2631413,0.0-17.0-0.8,78936,List1B,black,woman,,,,null,,,,
null,"<img src=""stim_listB/touch6.gif""style=""height:400px;""></stim_listB>",,html-keyboard-response,259,2633418,0.0-17.0-1.8,78936,List1B,black,woman,,,,null,,,,
null,are touching each other,,html-keyboard-response,260,2635420,0.0-17.0-2.8,78936,List1B,black,woman,,,,null,,,,
41505,,,survey-text,261,2676927,0.0-17.0-3.8,78936,List1B,black,woman,,,,,"{""Q0"":""Fred and Luke are touching each other""}","<img src=""stim_listB/touch6.gif""style=""height:400px;""></stim_listB>",are touching each other,
null,"<div style=""font-size:60px;"">+</div>",,html-keyboard-response,262,2677430,0.0-17.0-0.9,78936,List1B,black,woman,,,,null,,,,
null,"<img src=""stim_listB/kiss7.gif""style=""height:400px;""></stim_listB>",,html-keyboard-response,263,2679435,0.0-17.0-1.9,78936,List1B,black,woman,,,,null,,,,
null,is kissing,,html-keyboard-response,264,2681438,0.0-17.0-2.9,78936,List1B,black,woman,,,,null,,,,
13267,,,survey-text,265,2694707,0.0-17.0-3.9,78936,List1B,black,woman,,,,,"{""Q0"":""Beth and Ruth is Kissing ""}","<img src=""stim_listB/kiss7.gif""style=""height:400px;""></stim_listB>",is kissing,
null,"<div style=""font-size:60px;"">+</div>",,html-keyboard-response,266,2695210,0.0-17.0-0.10,78936,List1B,black,woman,,,,null,,,,
null,"<img src=""stim_listB/marry8.gif""style=""height:400px;""></stim_listB>",,html-keyboard-response,267,2697216,0.0-17.0-1.10,78936,List1B,black,woman,,,,null,,,,
null,are marrying each other,,html-keyboard-response,268,2699218,0.0-17.0-2.10,78936,List1B,black,woman,,,,null,,,,
94786,,,survey-text,269,2794006,0.0-17.0-3.10,78936,List1B,black,woman,,,,,"{""Q0"":""Jane and Beth are Marrying each other""}","<img src=""stim_listB/marry8.gif""style=""height:400px;""></stim_listB>",are marrying each other,
null,"<div style=""font-size:60px;"">+</div>",,html-keyboard-response,270,2794509,0.0-17.0-0.11,78936,List1B,black,woman,,,,null,,,,
null,"<img src=""stim_listB/kiss8.gif""style=""height:400px;""></stim_listB>",,html-keyboard-response,271,2796514,0.0-17.0-1.11,78936,List1B,black,woman,,,,null,,,,
null,are kissing each other,,html-keyboard-response,272,2798518,0.0-17.0-2.11,78936,List1B,black,woman,,,,null,,,,
65587,,,survey-text,273,2864107,0.0-17.0-3.11,78936,List1B,black,woman,,,,,"{""Q0"":""Jane and Kate are Kissing each other""}","<img src=""stim_listB/kiss8.gif""style=""height:400px;""></stim_listB>",are kissing each other,
null,"<div style=""font-size:60px;"">+</div>",,html-keyboard-response,274,2864610,0.0-17.0-0.12,78936,List1B,black,woman,,,,null,,,,
null,"<img src=""stim_listB/touch5.gif""style=""height:400px;""></stim_listB>",,html-keyboard-response,275,2866616,0.0-17.0-1.12,78936,List1B,black,woman,,,,null,,,,
null,is touching,,html-keyboard-response,276,2868618,0.0-17.0-2.12,78936,List1B,black,woman,,,,null,,,,
15297,,,survey-text,277,2883917,0.0-17.0-3.12,78936,List1B,black,woman,,,,,"{""Q0"":""Mike is Touching Dave""}","<img src=""stim_listB/touch5.gif""style=""height:400px;""></stim_listB>",is touching,
null,"<div style=""font-size:60px;"">+</div>",,html-keyboard-response,278,2884419,0.0-17.0-0.13,78936,List1B,black,woman,,,,null,,,,
null,"<img src=""stim_listB/argue3.gif""style=""height:400px;""></stim_listB>",,html-keyboard-response,279,2886424,0.0-17.0-1.13,78936,List1B,black,woman,,,,null,,,,
null,is arguing with,,html-keyboard-response,280,2888426,0.0-17.0-2.13,78936,List1B,black,woman,,,,null,,,,
20981,,,survey-text,281,2909410,0.0-17.0-3.13,78936,List1B,black,woman,,,,,"{""Q0"":""Ruth is Touching Dave""}","<img src=""stim_listB/argue3.gif""style=""height:400px;""></stim_listB>",is arguing with,
null,"<div style=""font-size:60px;"">+</div>",,html-keyboard-response,282,2909912,0.0-17.0-0.14,78936,List1B,black,woman,,,,null,,,,
null,"<img src=""stim_listB/fight6.gif""style=""height:400px;""></stim_listB>",,html-keyboard-response,283,2911916,0.0-17.0-1.14,78936,List1B,black,woman,,,,null,,,,
null,are fighting each other,,html-keyboard-response,284,2913919,0.0-17.0-2.14,78936,List1B,black,woman,,,,null,,,,
25399,,,survey-text,285,2939320,0.0-17.0-3.14,78936,List1B,black,woman,,,,,"{""Q0"":""Luke and Fred are Fighting with other""}","<img src=""stim_listB/fight6.gif""style=""height:400px;""></stim_listB>",are fighting each other,
null,"<div style=""font-size:60px;"">+</div>",,html-keyboard-response,286,2939823,0.0-17.0-0.15,78936,List1B,black,woman,,,,null,,,,
null,"<img src=""stim_listB/dance7.gif""style=""height:400px;""></stim_listB>",,html-keyboard-response,287,2941828,0.0-17.0-1.15,78936,List1B,black,woman,,,,null,,,,
null,is dancing with,,html-keyboard-response,288,2943831,0.0-17.0-2.15,78936,List1B,black,woman,,,,null,,,,
21056,,,survey-text,289,2964888,0.0-17.0-3.15,78936,List1B,black,woman,,,,,"{""Q0"":""Beth and Ruth is Dancing""}","<img src=""stim_listB/dance7.gif""style=""height:400px;""></stim_listB>",is dancing with,
null,"<div style=""font-size:60px;"">+</div>",,html-keyboard-response,290,2965391,0.0-17.0-0.16,78936,List1B,black,woman,,,,null,,,,
null,"<img src=""stim_listB/fight8.gif""style=""height:400px;""></stim_listB>",,html-keyboard-response,291,2967397,0.0-17.0-1.16,78936,List1B,black,woman,,,,null,,,,
null,are fighting each other,,html-keyboard-response,292,2969400,0.0-17.0-2.16,78936,List1B,black,woman,,,,null,,,,
25897,,,survey-text,293,2995300,0.0-17.0-3.16,78936,List1B,black,woman,,,,,"{""Q0"":""Beth and Ruth are Fighting each other""}","<img src=""stim_listB/fight8.gif""style=""height:400px;""></stim_listB>",are fighting each other,
null,"<div style=""font-size:60px;"">+</div>",,html-keyboard-response,294,2995802,0.0-17.0-0.17,78936,List1B,black,woman,,,,null,,,,
null,"<img src=""stim_listB/argue6.gif""style=""height:400px;""></stim_listB>",,html-keyboard-response,295,2997806,0.0-17.0-1.17,78936,List1B,black,woman,,,,null,,,,
null,are arguing with each other,,html-keyboard-response,296,2999809,0.0-17.0-2.17,78936,List1B,black,woman,,,,null,,,,
19925,,,survey-text,297,3019736,0.0-17.0-3.17,78936,List1B,black,woman,,,,,"{""Q0"":""Fred and Dave are arguing with each other""}","<img src=""stim_listB/argue6.gif""style=""height:400px;""></stim_listB>",are arguing with each other,
null,"<div style=""font-size:60px;"">+</div>",,html-keyboard-response,298,3020240,0.0-17.0-0.18,78936,List1B,black,woman,,,,null,,,,
null,"<img src=""stim_listB/dance3.gif""style=""height:400px;""></stim_listB>",,html-keyboard-response,299,3022245,0.0-17.0-1.18,78936,List1B,black,woman,,,,null,,,,
null,is dancing with,,html-keyboard-response,300,3024248,0.0-17.0-2.18,78936,List1B,black,woman,,,,null,,,,
13112,,,survey-text,301,3037363,0.0-17.0-3.18,78936,List1B,black,woman,,,,,"{""Q0"":""Jane is Dancing with Luke""}","<img src=""stim_listB/dance3.gif""style=""height:400px;""></stim_listB>",is dancing with,
null,"<div style=""font-size:60px;"">+</div>",,html-keyboard-response,302,3037866,0.0-17.0-0.19,78936,List1B,black,woman,,,,null,,,,
null,"<img src=""stim_listB/play7.gif""style=""height:400px;""></stim_listB>",,html-keyboard-response,303,3039871,0.0-17.0-1.19,78936,List1B,black,woman,,,,null,,,,
null,is playing with,,html-keyboard-response,304,3041873,0.0-17.0-2.19,78936,List1B,black,woman,,,,null,,,,
13992,,,survey-text,305,3055867,0.0-17.0-3.19,78936,List1B,black,woman,,,,,"{""Q0"":""Jane is dancing with Kate""}","<img src=""stim_listB/play7.gif""style=""height:400px;""></stim_listB>",is playing with,
15162,"<img src='img/portrait_matrix_list1.jpg' style='width:900px;height:500px;''></img><p>If you have memorised all the portraits and names and are ready to start, press Continue.</p><p><strong>Please note: Your memory of these faces will be tested 4 times during this experiment.</strong></p>",0,html-button-response,306,3071031,0.0-18.0-0.0,78936,List1B,black,woman,,,,,,,,
9059,"<img src=""portrait/WM1.jpg""style=""height:400px;""></img>",6,html-button-response,307,3081094,0.0-18.0-1.0,78936,List1B,black,woman,,TRUE,6,,,,,
null,CORRECT,,html-keyboard-response,308,3082597,0.0-18.0-2.0-0.0,78936,List1B,black,woman,,,,null,,,,
3373,"<img src=""portrait/BM2.jpg""style=""height:400px;""></img>",5,html-button-response,309,3085973,0.0-18.0-4.0,78936,List1B,black,woman,,TRUE,5,,,,,
null,CORRECT,,html-keyboard-response,310,3087476,0.0-18.0-5.0-0.0,78936,List1B,black,woman,,,,null,,,,
2579,"<img src=""portrait/BM1.jpg""style=""height:400px;""></img>",4,html-button-response,311,3090059,0.0-18.0-7.0,78936,List1B,black,woman,,TRUE,4,,,,,
null,CORRECT,,html-keyboard-response,312,3091563,0.0-18.0-8.0-0.0,78936,List1B,black,woman,,,,null,,,,
3482,"<img src=""portrait/WM2.jpg""style=""height:400px;""></img>",7,html-button-response,313,3095047,0.0-18.0-10.0,78936,List1B,black,woman,,TRUE,7,,,,,
null,CORRECT,,html-keyboard-response,314,3096552,0.0-18.0-11.0-0.0,78936,List1B,black,woman,,,,null,,,,
3419,"<img src=""portrait/BW1.jpg""style=""height:400px;""></img>",0,html-button-response,315,3099974,0.0-18.0-13.0,78936,List1B,black,woman,,TRUE,0,,,,,
null,CORRECT,,html-keyboard-response,316,3101477,0.0-18.0-14.0-0.0,78936,List1B,black,woman,,,,null,,,,
2495,"<img src=""portrait/WW2.jpg""style=""height:400px;""></img>",3,html-button-response,317,3103974,0.0-18.0-16.0,78936,List1B,black,woman,,TRUE,3,,,,,
null,CORRECT,,html-keyboard-response,318,3105478,0.0-18.0-17.0-0.0,78936,List1B,black,woman,,,,null,,,,
3518,"<img src=""portrait/WW1.jpg""style=""height:400px;""></img>",1,html-button-response,319,3108999,0.0-18.0-19.0,78936,List1B,black,woman,,TRUE,1,,,,,
null,CORRECT,,html-keyboard-response,320,3110502,0.0-18.0-20.0-0.0,78936,List1B,black,woman,,,,null,,,,
2922,"<img src=""portrait/BW2.jpg""style=""height:400px;""></img>",2,html-button-response,321,3113426,0.0-18.0-22.0,78936,List1B,black,woman,,TRUE,2,,,,,
null,CORRECT,,html-keyboard-response,322,3114931,0.0-18.0-23.0-0.0,78936,List1B,black,woman,,,,null,,,,
28135,<p>You got 8 out of 8 right first time. Press Continue.</p>,0,html-button-response,323,3143068,0.0-18.0-25.0,78936,List1B,black,woman,,,,,,,,
null,"<div style=""font-size:60px;"">+</div>",,html-keyboard-response,324,3144574,0.0-19.0-0.0,78936,List1B,black,woman,,,,null,,,,
null,"<img src=""stim_listB/argue4.gif""style=""height:400px;""></stim_listB>",,html-keyboard-response,325,3146579,0.0-19.0-1.0,78936,List1B,black,woman,,,,null,,,,
null,are arguing with each other,,html-keyboard-response,326,3148581,0.0-19.0-2.0,78936,List1B,black,woman,,,,null,,,,
14662,,,survey-text,327,3163247,0.0-19.0-3.0,78936,List1B,black,woman,,,,,"{""Q0"":""Jane and Luke are Arguing with each other""}","<img src=""stim_listB/argue4.gif""style=""height:400px;""></stim_listB>",are arguing with each other,
null,"<div style=""font-size:60px;"">+</div>",,html-keyboard-response,328,3163749,0.0-19.0-0.1,78936,List1B,black,woman,,,,null,,,,
null,"<img src=""stim_listB/touch7.gif""style=""height:400px;""></stim_listB>",,html-keyboard-response,329,3165755,0.0-19.0-1.1,78936,List1B,black,woman,,,,null,,,,
null,is touching,,html-keyboard-response,330,3167758,0.0-19.0-2.1,78936,List1B,black,woman,,,,null,,,,
17003,,,survey-text,331,3184764,0.0-19.0-3.1,78936,List1B,black,woman,,,,,"{""Q0"":""Kate is Touching Jane ""}","<img src=""stim_listB/touch7.gif""style=""height:400px;""></stim_listB>",is touching,
null,"<div style=""font-size:60px;"">+</div>",,html-keyboard-response,332,3185267,0.0-19.0-0.2,78936,List1B,black,woman,,,,null,,,,
null,"<img src=""stim_listB/touch8.gif""style=""height:400px;""></stim_listB>",,html-keyboard-response,333,3187271,0.0-19.0-1.2,78936,List1B,black,woman,,,,null,,,,
null,are touching each other,,html-keyboard-response,334,3189274,0.0-19.0-2.2,78936,List1B,black,woman,,,,null,,,,
14029,,,survey-text,335,3203304,0.0-19.0-3.2,78936,List1B,black,woman,,,,,"{""Q0"":""Ruth and Beth are Touching each other ""}","<img src=""stim_listB/touch8.gif""style=""height:400px;""></stim_listB>",are touching each other,
null,"<div style=""font-size:60px;"">+</div>",,html-keyboard-response,336,3203807,0.0-19.0-0.3,78936,List1B,black,woman,,,,null,,,,
null,"<img src=""stim_listB/play3.gif""style=""height:400px;""></stim_listB>",,html-keyboard-response,337,3205812,0.0-19.0-1.3,78936,List1B,black,woman,,,,null,,,,
null,is playing with,,html-keyboard-response,338,3207814,0.0-19.0-2.3,78936,List1B,black,woman,,,,null,,,,
24201,,,survey-text,339,3232017,0.0-19.0-3.3,78936,List1B,black,woman,,,,,"{""Q0"":""Dave is Playing with Jane""}","<img src=""stim_listB/play3.gif""style=""height:400px;""></stim_listB>",is playing with,
null,"<div style=""font-size:60px;"">+</div>",,html-keyboard-response,340,3232521,0.0-19.0-0.4,78936,List1B,black,woman,,,,null,,,,
null,"<img src=""stim_listB/touch1.gif""style=""height:400px;""></stim_listB>",,html-keyboard-response,341,3234525,0.0-19.0-1.4,78936,List1B,black,woman,,,,null,,,,
null,is touching,,html-keyboard-response,342,3236528,0.0-19.0-2.4,78936,List1B,black,woman,,,,null,,,,
13187,,,survey-text,343,3249716,0.0-19.0-3.4,78936,List1B,black,woman,,,,,"{""Q0"":""Mike is Touching Kate""}","<img src=""stim_listB/touch1.gif""style=""height:400px;""></stim_listB>",is touching,
null,"<div style=""font-size:60px;"">+</div>",,html-keyboard-response,344,3250218,0.0-19.0-0.5,78936,List1B,black,woman,,,,null,,,,
null,"<img src=""stim_listB/marry7.gif""style=""height:400px;""></stim_listB>",,html-keyboard-response,345,3252223,0.0-19.0-1.5,78936,List1B,black,woman,,,,null,,,,
null,is marrying,,html-keyboard-response,346,3254226,0.0-19.0-2.5,78936,List1B,black,woman,,,,null,,,,
16306,,,survey-text,347,3270534,0.0-19.0-3.5,78936,List1B,black,woman,,,,,"{""Q0"":""Ruth is Marrying Kate""}","<img src=""stim_listB/marry7.gif""style=""height:400px;""></stim_listB>",is marrying,
null,"<div style=""font-size:60px;"">+</div>",,html-keyboard-response,348,3271036,0.0-19.0-0.6,78936,List1B,black,woman,,,,null,,,,
null,"<img src=""stim_listB/flirt8.gif""style=""height:400px;""></stim_listB>",,html-keyboard-response,349,3273044,0.0-19.0-1.6,78936,List1B,black,woman,,,,null,,,,
null,are flirting with each other,,html-keyboard-response,350,3275048,0.0-19.0-2.6,78936,List1B,black,woman,,,,null,,,,
22790,,,survey-text,351,3297840,0.0-19.0-3.6,78936,List1B,black,woman,,,,,"{""Q0"":""Ruth is Flirting with Kate""}","<img src=""stim_listB/flirt8.gif""style=""height:400px;""></stim_listB>",are flirting with each other,
null,"<div style=""font-size:60px;"">+</div>",,html-keyboard-response,352,3298342,0.0-19.0-0.7,78936,List1B,black,woman,,,,null,,,,
null,"<img src=""stim_listB/marry4.gif""style=""height:400px;""></stim_listB>",,html-keyboard-response,353,3300346,0.0-19.0-1.7,78936,List1B,black,woman,,,,null,,,,
null,are marrying each other,,html-keyboard-response,354,3302349,0.0-19.0-2.7,78936,List1B,black,woman,,,,null,,,,
12134,,,survey-text,355,3314484,0.0-19.0-3.7,78936,List1B,black,woman,,,,,"{""Q0"":""Jane and Luke are marrying""}","<img src=""stim_listB/marry4.gif""style=""height:400px;""></stim_listB>",are marrying each other,
null,"<div style=""font-size:60px;"">+</div>",,html-keyboard-response,356,3314987,0.0-19.0-0.8,78936,List1B,black,woman,,,,null,,,,
null,"<img src=""stim_listB/flirt1.gif""style=""height:400px;""></stim_listB>",,html-keyboard-response,357,3316991,0.0-19.0-1.8,78936,List1B,black,woman,,,,null,,,,
null,is flirting with,,html-keyboard-response,358,3318993,0.0-19.0-2.8,78936,List1B,black,woman,,,,null,,,,
18599,,,survey-text,359,3337594,0.0-19.0-3.8,78936,List1B,black,woman,,,,,"{""Q0"":""Fred and Kate is Flirting""}","<img src=""stim_listB/flirt1.gif""style=""height:400px;""></stim_listB>",is flirting with,
null,"<div style=""font-size:60px;"">+</div>",,html-keyboard-response,360,3338096,0.0-19.0-0.9,78936,List1B,black,woman,,,,null,,,,
null,"<img src=""stim_listB/kiss2.gif""style=""height:400px;""></stim_listB>",,html-keyboard-response,361,3340100,0.0-19.0-1.9,78936,List1B,black,woman,,,,null,,,,
null,are kissing each other,,html-keyboard-response,362,3342102,0.0-19.0-2.9,78936,List1B,black,woman,,,,null,,,,
23199,,,survey-text,363,3365304,0.0-19.0-3.9,78936,List1B,black,woman,,,,,"{""Q0"":""Kate and mike are Kissing each other""}","<img src=""stim_listB/kiss2.gif""style=""height:400px;""></stim_listB>",are kissing each other,
null,"<div style=""font-size:60px;"">+</div>",,html-keyboard-response,364,3365807,0.0-19.0-0.10,78936,List1B,black,woman,,,,null,,,,
null,"<img src=""stim_listB/shout8.gif""style=""height:400px;""></stim_listB>",,html-keyboard-response,365,3367811,0.0-19.0-1.10,78936,List1B,black,woman,,,,null,,,,
null,are shouting at each other,,html-keyboard-response,366,3369814,0.0-19.0-2.10,78936,List1B,black,woman,,,,null,,,,
20090,,,survey-text,367,3389907,0.0-19.0-3.10,78936,List1B,black,woman,,,,,"{""Q0"":""Kate and Jane are shouting at each other""}","<img src=""stim_listB/shout8.gif""style=""height:400px;""></stim_listB>",are shouting at each other,
null,"<div style=""font-size:60px;"">+</div>",,html-keyboard-response,368,3390410,0.0-19.0-0.11,78936,List1B,black,woman,,,,null,,,,
null,"<img src=""stim_listB/fight4.gif""style=""height:400px;""></stim_listB>",,html-keyboard-response,369,3392416,0.0-19.0-1.11,78936,List1B,black,woman,,,,null,,,,
null,are fighting each other,,html-keyboard-response,370,3394419,0.0-19.0-2.11,78936,List1B,black,woman,,,,null,,,,
33612,,,survey-text,371,3428034,0.0-19.0-3.11,78936,List1B,black,woman,,,,,"{""Q0"":""Luke and Ruth are fighting with each other""}","<img src=""stim_listB/fight4.gif""style=""height:400px;""></stim_listB>",are fighting each other,
null,"<div style=""font-size:60px;"">+</div>",,html-keyboard-response,372,3428537,0.0-19.0-0.12,78936,List1B,black,woman,,,,null,,,,
null,"<img src=""stim_listB/marry3.gif""style=""height:400px;""></stim_listB>",,html-keyboard-response,373,3430541,0.0-19.0-1.12,78936,List1B,black,woman,,,,null,,,,
null,is marrying,,html-keyboard-response,374,3432544,0.0-19.0-2.12,78936,List1B,black,woman,,,,null,,,,
38004,,,survey-text,375,3470550,0.0-19.0-3.12,78936,List1B,black,woman,,,,,"{""Q0"":""Dave Is Marrying Ruth""}","<img src=""stim_listB/marry3.gif""style=""height:400px;""></stim_listB>",is marrying,
null,"<div style=""font-size:60px;"">+</div>",,html-keyboard-response,376,3471056,0.0-19.0-0.13,78936,List1B,black,woman,,,,null,,,,
null,"<img src=""stim_listB/dance4.gif""style=""height:400px;""></stim_listB>",,html-keyboard-response,377,3473064,0.0-19.0-1.13,78936,List1B,black,woman,,,,null,,,,
null,are dancing with each other,,html-keyboard-response,378,3475066,0.0-19.0-2.13,78936,List1B,black,woman,,,,null,,,,
29717,,,survey-text,379,3504786,0.0-19.0-3.13,78936,List1B,black,woman,,,,,"{""Q0"":""Dave and Ruth are Dancing with each other""}","<img src=""stim_listB/dance4.gif""style=""height:400px;""></stim_listB>",are dancing with each other,
null,"<div style=""font-size:60px;"">+</div>",,html-keyboard-response,380,3505288,0.0-19.0-0.14,78936,List1B,black,woman,,,,null,,,,
null,"<img src=""stim_listB/play2.gif""style=""height:400px;""></stim_listB>",,html-keyboard-response,381,3507293,0.0-19.0-1.14,78936,List1B,black,woman,,,,null,,,,
null,are playing with each other,,html-keyboard-response,382,3509296,0.0-19.0-2.14,78936,List1B,black,woman,,,,null,,,,
19118,,,survey-text,383,3528416,0.0-19.0-3.14,78936,List1B,black,woman,,,,,"{""Q0"":""Fred and Beth are playing with each other""}","<img src=""stim_listB/play2.gif""style=""height:400px;""></stim_listB>",are playing with each other,
null,"<div style=""font-size:60px;"">+</div>",,html-keyboard-response,384,3528918,0.0-19.0-0.15,78936,List1B,black,woman,,,,null,,,,
null,"<img src=""stim_listB/shout4.gif""style=""height:400px;""></stim_listB>",,html-keyboard-response,385,3530923,0.0-19.0-1.15,78936,List1B,black,woman,,,,null,,,,
null,are shouting at each other,,html-keyboard-response,386,3532925,0.0-19.0-2.15,78936,List1B,black,woman,,,,null,,,,
28367,,,survey-text,387,3561295,0.0-19.0-3.15,78936,List1B,black,woman,,,,,"{""Q0"":""Jane and Dave are Fighting with each other""}","<img src=""stim_listB/shout4.gif""style=""height:400px;""></stim_listB>",are shouting at each other,
null,"<div style=""font-size:60px;"">+</div>",,html-keyboard-response,388,3561798,0.0-19.0-0.16,78936,List1B,black,woman,,,,null,,,,
null,"<img src=""stim_listB/talk4.gif""style=""height:400px;""></stim_listB>",,html-keyboard-response,389,3563803,0.0-19.0-1.16,78936,List1B,black,woman,,,,null,,,,
null,are talking to each other,,html-keyboard-response,390,3565805,0.0-19.0-2.16,78936,List1B,black,woman,,,,null,,,,
27806,,,survey-text,391,3593613,0.0-19.0-3.16,78936,List1B,black,woman,,,,,"{""Q0"":""Dave and Ruth are talking to each other""}","<img src=""stim_listB/talk4.gif""style=""height:400px;""></stim_listB>",are talking to each other,
null,"<div style=""font-size:60px;"">+</div>",,html-keyboard-response,392,3594115,0.0-19.0-0.17,78936,List1B,black,woman,,,,null,,,,
null,"<img src=""stim_listB/shout6.gif""style=""height:400px;""></stim_listB>",,html-keyboard-response,393,3596120,0.0-19.0-1.17,78936,List1B,black,woman,,,,null,,,,
null,are shouting at each other,,html-keyboard-response,394,3598121,0.0-19.0-2.17,78936,List1B,black,woman,,,,null,,,,
36061,,,survey-text,395,3634185,0.0-19.0-3.17,78936,List1B,black,woman,,,,,"{""Q0"":""Mike and Fred are Shouting at each other""}","<img src=""stim_listB/shout6.gif""style=""height:400px;""></stim_listB>",are shouting at each other,
null,"<div style=""font-size:60px;"">+</div>",,html-keyboard-response,396,3634687,0.0-19.0-0.18,78936,List1B,black,woman,,,,null,,,,
null,"<img src=""stim_listB/talk7.gif""style=""height:400px;""></stim_listB>",,html-keyboard-response,397,3636689,0.0-19.0-1.18,78936,List1B,black,woman,,,,null,,,,
null,is talking to,,html-keyboard-response,398,3638692,0.0-19.0-2.18,78936,List1B,black,woman,,,,null,,,,
19463,,,survey-text,399,3658158,0.0-19.0-3.18,78936,List1B,black,woman,,,,,"{""Q0"":""Jane is talking to Beth""}","<img src=""stim_listB/talk7.gif""style=""height:400px;""></stim_listB>",is talking to,
null,"<div style=""font-size:60px;"">+</div>",,html-keyboard-response,400,3658660,0.0-19.0-0.19,78936,List1B,black,woman,,,,null,,,,
null,"<img src=""stim_listB/argue8.gif""style=""height:400px;""></stim_listB>",,html-keyboard-response,401,3660667,0.0-19.0-1.19,78936,List1B,black,woman,,,,null,,,,
null,are arguing with each other,,html-keyboard-response,402,3662670,0.0-19.0-2.19,78936,List1B,black,woman,,,,null,,,,
18337,,,survey-text,403,3681009,0.0-19.0-3.19,78936,List1B,black,woman,,,,,"{""Q0"":""Jane and Beth are Arguing with each other""}","<img src=""stim_listB/argue8.gif""style=""height:400px;""></stim_listB>",are arguing with each other,
6684,<p>Thank you for completing that task.</p><p>The final part of this session is a short questionnaire.</p><p>Press Continue.</p>,0,html-button-response,404,3687694,0.0-20.0,78936,List1B,black,woman,,,,,,,,
34251,,,survey-text,405,3722951,0.0-21.0,78936,List1B,black,woman,,,,,"{""Q0"":""29"",""Q1"":""english"",""Q2"":""english"",""Q3"":""london"",""Q4"":""black"",""Q5"":""female""}",,,demographics
45000,,,survey-likert,406,3767956,0.0-22.0,78936,List1B,black,woman,,,,,"{""Q0"":4}",,,likert_ESS
8081,,,survey-likert,407,3776040,0.0-23.0,78936,List1B,black,woman,,,,,"{""Q0"":5}",,,likert_NSSAL_Q1
7412,,,survey-likert,408,3783453,0.0-24.0,78936,List1B,black,woman,,,,,"{""Q0"":3}",,,likert_NSSAL_Q2
10361,,,survey-likert,409,3793817,0.0-25.0,78936,List1B,black,woman,,,,,"{""Q0"":0}",,,likert_CGRS_Q1
10252,,,survey-likert,410,3804072,0.0-26.0,78936,List1B,black,woman,,,,,"{""Q0"":4}",,,likert_CGRS_Q2
3704,,,survey-likert,411,3807778,0.0-27.0,78936,List1B,black,woman,,,,,"{""Q0"":4}",,,likert_CGRS_Q3
13020,,,survey-text,412,3820800,0.0-28.0,78936,List1B,black,woman,,,,,"{""Q0"":""ccc""}",,,worker_id
4752,,,external-html,413,3825737,0.0-29.0,78936,List1B,black,woman,debrief.html,,,,,,,
