rt,stimulus,button_pressed,trial_type,trial_index,time_elapsed,internal_node_id,subject,list,ppt_race,ppt_gender,url,first_guess,correct,key_press,responses,image_type,phrase_type,test_part
8340,Welcome to the experiment. Press Continue to begin.,0,html-button-response,0,8349,0.0-0.0,79344,List2A,white,woman,,,,,,,,
9260,,,external-html,1,18950,0.0-1.0,79344,List2A,white,woman,consent.html,,,,,,,
13390,"<p>On the next page, you will see portraits of 8 people and their names.</p><p>Your first task is to take a few minutes to memorise the names of these people.</p><p>You will have to recall their names during the rest of the experiment, so it is</p><p>essential that you try to memorise these people and their names as best as you can.</p><br><p><strong>You will then be tested on your memory of these names and portraits.</strong></p><br><p>The experiment will start after you have completed this memory test.</p><br><p>Ready?</p>",0,html-button-response,2,32342,0.0-2.0,79344,List2A,white,woman,,,,,,,,
64194,"<img src='img/portrait_matrix_list2.jpg' style='width:900px;height:500px;''></img><p>If you have memorised all the portraits and names and are ready to start, press Continue.</p><p><strong>Please note: Your memory of these faces will be tested 4 times during this experiment.</strong></p>",0,html-button-response,3,97546,0.0-3.0-0.0,79344,List2A,white,woman,,,,,,,,
2647,"<img src=""portrait/BW1.jpg""style=""height:400px;""></img>",0,html-button-response,4,101200,0.0-3.0-1.0,79344,List2A,white,woman,,TRUE,0,,,,,
null,CORRECT,,html-keyboard-response,5,102714,0.0-3.0-2.0-0.0,79344,List2A,white,woman,,,,null,,,,
1541,"<img src=""portrait/WW2.jpg""style=""height:400px;""></img>",3,html-button-response,6,104256,0.0-3.0-4.0,79344,List2A,white,woman,,TRUE,3,,,,,
null,CORRECT,,html-keyboard-response,7,105772,0.0-3.0-5.0-0.0,79344,List2A,white,woman,,,,null,,,,
2183,"<img src=""portrait/BW2.jpg""style=""height:400px;""></img>",2,html-button-response,8,107958,0.0-3.0-7.0,79344,List2A,white,woman,,TRUE,2,,,,,
null,CORRECT,,html-keyboard-response,9,109478,0.0-3.0-8.0-0.0,79344,List2A,white,woman,,,,null,,,,
1993,"<img src=""portrait/BM2.jpg""style=""height:400px;""></img>",5,html-button-response,10,111474,0.0-3.0-10.0,79344,List2A,white,woman,,TRUE,5,,,,,
null,CORRECT,,html-keyboard-response,11,112998,0.0-3.0-11.0-0.0,79344,List2A,white,woman,,,,null,,,,
1991,"<img src=""portrait/BM1.jpg""style=""height:400px;""></img>",4,html-button-response,12,114990,0.0-3.0-13.0,79344,List2A,white,woman,,TRUE,4,,,,,
null,CORRECT,,html-keyboard-response,13,116526,0.0-3.0-14.0-0.0,79344,List2A,white,woman,,,,null,,,,
1930,"<img src=""portrait/WM2.jpg""style=""height:400px;""></img>",7,html-button-response,14,118458,0.0-3.0-16.0,79344,List2A,white,woman,,TRUE,7,,,,,
null,CORRECT,,html-keyboard-response,15,119969,0.0-3.0-17.0-0.0,79344,List2A,white,woman,,,,null,,,,
1838,"<img src=""portrait/WW1.jpg""style=""height:400px;""></img>",1,html-button-response,16,121810,0.0-3.0-19.0,79344,List2A,white,woman,,TRUE,1,,,,,
null,CORRECT,,html-keyboard-response,17,123329,0.0-3.0-20.0-0.0,79344,List2A,white,woman,,,,null,,,,
1917,"<img src=""portrait/WM1.jpg""style=""height:400px;""></img>",6,html-button-response,18,125248,0.0-3.0-22.0,79344,List2A,white,woman,,TRUE,6,,,,,
null,CORRECT,,html-keyboard-response,19,126764,0.0-3.0-23.0-0.0,79344,List2A,white,woman,,,,null,,,,
1510,<p>You got 8 out of 8 right first time. Press Continue.</p>,0,html-button-response,20,128278,0.0-3.0-25.0,79344,List2A,white,woman,,,,,,,,
40721,"<p>In this experiment, you will view photographs of the people from the memory game interacting.</p><p>By using the <strong>exact</strong> phrase given <i>after</i> the photograph appears and recalling the correct names of the people in the photographs, form a sentence describing the interaction. You do not need to capitalise names.</p><p>Type your answer in the space provided. Please complete every sentence before moving onto the next trial.</p><p>You will only have a few seconds to memorise each given photograph and phrase before you can respond, so try your best to focus.</p><p>An example is given below. Press 'Continue' when you are ready.</p><img src='img/speaking_example.jpg' style='width:800px;height:460px;''></img>",0,html-button-response,21,170018,0.0-4.0,79344,List2A,white,woman,,,,,,,,
2829,"<p>Before the experiment starts, you will watch two example trials. Press 'Continue'.</p>",0,html-button-response,22,173854,0.0-5.0,79344,List2A,white,woman,,,,,,,,
null,<img src='img/meet_eg.gif' style='height:400px;''></img>,,html-keyboard-response,23,176875,0.0-6.0,79344,List2A,white,woman,,,,null,,,,
null,<p>is meeting</p>,,html-keyboard-response,24,178882,0.0-7.0,79344,List2A,white,woman,,,,null,,,,
2806,<p><b>Answer:</b> jane is meeting ruth</p>,0,html-button-response,25,181690,0.0-8.0,79344,List2A,white,woman,,,,,,,,
null,<img src='img/look_eg.gif' style='height:400px;''></img>,,html-keyboard-response,26,184696,0.0-9.0,79344,List2A,white,woman,,,,null,,,,
null,<p>are looking at each other</p>,,html-keyboard-response,27,186705,0.0-10.0,79344,List2A,white,woman,,,,null,,,,
2045,<p><b>Answer:</b> fred and mike are looking at each other</p>,0,html-button-response,28,188752,0.0-11.0,79344,List2A,white,woman,,,,,,,,
5885,"<p>Ready to start the experiment?</p><br><p><strong>Remember to describe the picture using a full sentence,</strong></p><p><strong>that combines the names of the people with the <i>exact</i> phrase given.</strong></p><p><strong>To receive full payment you must do this correctly.</strong></p><p><strong> You do not need to capitalise names or use punctuation.</strong></p><br><p>Press 'Continue' to begin.</p>",0,html-button-response,29,195650,0.0-12.0,79344,List2A,white,woman,,,,,,,,
null,"<div style=""font-size:60px;"">+</div>",,html-keyboard-response,30,197178,0.0-13.0-0.0,79344,List2A,white,woman,,,,null,,,,
null,"<img src=""stim_listA/shout2.gif""style=""height:400px;""></stim_listA>",,html-keyboard-response,31,199183,0.0-13.0-1.0,79344,List2A,white,woman,,,,null,,,,
null,are shouting at each other,,html-keyboard-response,32,201198,0.0-13.0-2.0,79344,List2A,white,woman,,,,null,,,,
16896,,,survey-text,33,218096,0.0-13.0-3.0,79344,List2A,white,woman,,,,,"{""Q0"":""Jane and dave are shouting at each other""}","<img src=""stim_listA/shout2.gif""style=""height:400px;""></stim_listA>",are shouting at each other,
null,"<div style=""font-size:60px;"">+</div>",,html-keyboard-response,34,218610,0.0-13.0-0.1,79344,List2A,white,woman,,,,null,,,,
null,"<img src=""stim_listA/fight3.gif""style=""height:400px;""></stim_listA>",,html-keyboard-response,35,220619,0.0-13.0-1.1,79344,List2A,white,woman,,,,null,,,,
null,is fighting,,html-keyboard-response,36,222622,0.0-13.0-2.1,79344,List2A,white,woman,,,,null,,,,
6564,,,survey-text,37,229188,0.0-13.0-3.1,79344,List2A,white,woman,,,,,"{""Q0"":""mike is fighting kate""}","<img src=""stim_listA/fight3.gif""style=""height:400px;""></stim_listA>",is fighting,
null,"<div style=""font-size:60px;"">+</div>",,html-keyboard-response,38,229700,0.0-13.0-0.2,79344,List2A,white,woman,,,,null,,,,
null,"<img src=""stim_listA/argue2.gif""style=""height:400px;""></stim_listA>",,html-keyboard-response,39,231703,0.0-13.0-1.2,79344,List2A,white,woman,,,,null,,,,
null,are arguing with each other,,html-keyboard-response,40,233706,0.0-13.0-2.2,79344,List2A,white,woman,,,,null,,,,
11591,,,survey-text,41,245300,0.0-13.0-3.2,79344,List2A,white,woman,,,,,"{""Q0"":""jane and luke are arguing with each other""}","<img src=""stim_listA/argue2.gif""style=""height:400px;""></stim_listA>",are arguing with each other,
null,"<div style=""font-size:60px;"">+</div>",,html-keyboard-response,42,245802,0.0-13.0-0.3,79344,List2A,white,woman,,,,null,,,,
null,"<img src=""stim_listA/argue1.gif""style=""height:400px;""></stim_listA>",,html-keyboard-response,43,247806,0.0-13.0-1.3,79344,List2A,white,woman,,,,null,,,,
null,is arguing with,,html-keyboard-response,44,249817,0.0-13.0-2.3,79344,List2A,white,woman,,,,null,,,,
6756,,,survey-text,45,256574,0.0-13.0-3.3,79344,List2A,white,woman,,,,,"{""Q0"":""ruth and dave""}","<img src=""stim_listA/argue1.gif""style=""height:400px;""></stim_listA>",is arguing with,
null,"<div style=""font-size:60px;"">+</div>",,html-keyboard-response,46,257080,0.0-13.0-0.4,79344,List2A,white,woman,,,,null,,,,
null,"<img src=""stim_listA/flirt5.gif""style=""height:400px;""></stim_listA>",,html-keyboard-response,47,259083,0.0-13.0-1.4,79344,List2A,white,woman,,,,null,,,,
null,is flirting with,,html-keyboard-response,48,261085,0.0-13.0-2.4,79344,List2A,white,woman,,,,null,,,,
6111,,,survey-text,49,267198,0.0-13.0-3.4,79344,List2A,white,woman,,,,,"{""Q0"":""mike is flirting with luke""}","<img src=""stim_listA/flirt5.gif""style=""height:400px;""></stim_listA>",is flirting with,
null,"<div style=""font-size:60px;"">+</div>",,html-keyboard-response,50,267706,0.0-13.0-0.5,79344,List2A,white,woman,,,,null,,,,
null,"<img src=""stim_listA/talk4.gif""style=""height:400px;""></stim_listA>",,html-keyboard-response,51,269715,0.0-13.0-1.5,79344,List2A,white,woman,,,,null,,,,
null,are talking to each other,,html-keyboard-response,52,271723,0.0-13.0-2.5,79344,List2A,white,woman,,,,null,,,,
7529,,,survey-text,53,279254,0.0-13.0-3.5,79344,List2A,white,woman,,,,,"{""Q0"":""beth is talking with mike""}","<img src=""stim_listA/talk4.gif""style=""height:400px;""></stim_listA>",are talking to each other,
null,"<div style=""font-size:60px;"">+</div>",,html-keyboard-response,54,279766,0.0-13.0-0.6,79344,List2A,white,woman,,,,null,,,,
null,"<img src=""stim_listA/dance3.gif""style=""height:400px;""></stim_listA>",,html-keyboard-response,55,281780,0.0-13.0-1.6,79344,List2A,white,woman,,,,null,,,,
null,is dancing with,,html-keyboard-response,56,283789,0.0-13.0-2.6,79344,List2A,white,woman,,,,null,,,,
5690,,,survey-text,57,289480,0.0-13.0-3.6,79344,List2A,white,woman,,,,,"{""Q0"":""fred is dancing with kate""}","<img src=""stim_listA/dance3.gif""style=""height:400px;""></stim_listA>",is dancing with,
null,"<div style=""font-size:60px;"">+</div>",,html-keyboard-response,58,289982,0.0-13.0-0.7,79344,List2A,white,woman,,,,null,,,,
null,"<img src=""stim_listA/marry2.gif""style=""height:400px;""></stim_listA>",,html-keyboard-response,59,291991,0.0-13.0-1.7,79344,List2A,white,woman,,,,null,,,,
null,are marrying each other,,html-keyboard-response,60,294008,0.0-13.0-2.7,79344,List2A,white,woman,,,,null,,,,
8330,,,survey-text,61,302340,0.0-13.0-3.7,79344,List2A,white,woman,,,,,"{""Q0"":""jane and luke are marrying each other""}","<img src=""stim_listA/marry2.gif""style=""height:400px;""></stim_listA>",are marrying each other,
null,"<div style=""font-size:60px;"">+</div>",,html-keyboard-response,62,302843,0.0-13.0-0.8,79344,List2A,white,woman,,,,null,,,,
null,"<img src=""stim_listA/kiss1.gif""style=""height:400px;""></stim_listA>",,html-keyboard-response,63,304851,0.0-13.0-1.8,79344,List2A,white,woman,,,,null,,,,
null,is kissing,,html-keyboard-response,64,306856,0.0-13.0-2.8,79344,List2A,white,woman,,,,null,,,,
8978,,,survey-text,65,315836,0.0-13.0-3.8,79344,List2A,white,woman,,,,,"{""Q0"":""ruth is kissing luke""}","<img src=""stim_listA/kiss1.gif""style=""height:400px;""></stim_listA>",is kissing,
null,"<div style=""font-size:60px;"">+</div>",,html-keyboard-response,66,316346,0.0-13.0-0.9,79344,List2A,white,woman,,,,null,,,,
null,"<img src=""stim_listA/fight6.gif""style=""height:400px;""></stim_listA>",,html-keyboard-response,67,318356,0.0-13.0-1.9,79344,List2A,white,woman,,,,null,,,,
null,are fighting each other,,html-keyboard-response,68,320358,0.0-13.0-2.9,79344,List2A,white,woman,,,,null,,,,
6870,,,survey-text,69,327230,0.0-13.0-3.9,79344,List2A,white,woman,,,,,"{""Q0"":""luke and fred are fighting each other""}","<img src=""stim_listA/fight6.gif""style=""height:400px;""></stim_listA>",are fighting each other,
null,"<div style=""font-size:60px;"">+</div>",,html-keyboard-response,70,327738,0.0-13.0-0.10,79344,List2A,white,woman,,,,null,,,,
null,"<img src=""stim_listA/flirt4.gif""style=""height:400px;""></stim_listA>",,html-keyboard-response,71,329751,0.0-13.0-1.10,79344,List2A,white,woman,,,,null,,,,
null,are flirting with each other,,html-keyboard-response,72,331753,0.0-13.0-2.10,79344,List2A,white,woman,,,,null,,,,
10209,,,survey-text,73,341964,0.0-13.0-3.10,79344,List2A,white,woman,,,,,"{""Q0"":""beth and mike are flirting with each other""}","<img src=""stim_listA/flirt4.gif""style=""height:400px;""></stim_listA>",are flirting with each other,
null,"<div style=""font-size:60px;"">+</div>",,html-keyboard-response,74,342467,0.0-13.0-0.11,79344,List2A,white,woman,,,,null,,,,
null,"<img src=""stim_listA/argue5.gif""style=""height:400px;""></stim_listA>",,html-keyboard-response,75,344471,0.0-13.0-1.11,79344,List2A,white,woman,,,,null,,,,
null,is arguing with,,html-keyboard-response,76,346477,0.0-13.0-2.11,79344,List2A,white,woman,,,,null,,,,
17242,,,survey-text,77,363720,0.0-13.0-3.11,79344,List2A,white,woman,,,,,"{""Q0"":""dave and mike are arguing with each other""}","<img src=""stim_listA/argue5.gif""style=""height:400px;""></stim_listA>",is arguing with,
null,"<div style=""font-size:60px;"">+</div>",,html-keyboard-response,78,364236,0.0-13.0-0.12,79344,List2A,white,woman,,,,null,,,,
null,"<img src=""stim_listA/shout5.gif""style=""height:400px;""></stim_listA>",,html-keyboard-response,79,366241,0.0-13.0-1.12,79344,List2A,white,woman,,,,null,,,,
null,is shouting at,,html-keyboard-response,80,368244,0.0-13.0-2.12,79344,List2A,white,woman,,,,null,,,,
7739,,,survey-text,81,375984,0.0-13.0-3.12,79344,List2A,white,woman,,,,,"{""Q0"":""luke is shouting at fred""}","<img src=""stim_listA/shout5.gif""style=""height:400px;""></stim_listA>",is shouting at,
null,"<div style=""font-size:60px;"">+</div>",,html-keyboard-response,82,376498,0.0-13.0-0.13,79344,List2A,white,woman,,,,null,,,,
null,"<img src=""stim_listA/fight2.gif""style=""height:400px;""></stim_listA>",,html-keyboard-response,83,378502,0.0-13.0-1.13,79344,List2A,white,woman,,,,null,,,,
null,are fighting each other,,html-keyboard-response,84,380519,0.0-13.0-2.13,79344,List2A,white,woman,,,,null,,,,
11302,,,survey-text,85,391822,0.0-13.0-3.13,79344,List2A,white,woman,,,,,"{""Q0"":""luke and ruth are fighting with each other""}","<img src=""stim_listA/fight2.gif""style=""height:400px;""></stim_listA>",are fighting each other,
null,"<div style=""font-size:60px;"">+</div>",,html-keyboard-response,86,392328,0.0-13.0-0.14,79344,List2A,white,woman,,,,null,,,,
null,"<img src=""stim_listA/fight8.gif""style=""height:400px;""></stim_listA>",,html-keyboard-response,87,394339,0.0-13.0-1.14,79344,List2A,white,woman,,,,null,,,,
null,are fighting each other,,html-keyboard-response,88,396342,0.0-13.0-2.14,79344,List2A,white,woman,,,,null,,,,
16555,,,survey-text,89,412898,0.0-13.0-3.14,79344,List2A,white,woman,,,,,"{""Q0"":""beth and ruth are fighting""}","<img src=""stim_listA/fight8.gif""style=""height:400px;""></stim_listA>",are fighting each other,
null,"<div style=""font-size:60px;"">+</div>",,html-keyboard-response,90,413405,0.0-13.0-0.15,79344,List2A,white,woman,,,,null,,,,
null,"<img src=""stim_listA/touch8.gif""style=""height:400px;""></stim_listA>",,html-keyboard-response,91,415410,0.0-13.0-1.15,79344,List2A,white,woman,,,,null,,,,
null,are touching each other,,html-keyboard-response,92,417419,0.0-13.0-2.15,79344,List2A,white,woman,,,,null,,,,
11578,,,survey-text,93,428998,0.0-13.0-3.15,79344,List2A,white,woman,,,,,"{""Q0"":""ruth and beth are touching each other""}","<img src=""stim_listA/touch8.gif""style=""height:400px;""></stim_listA>",are touching each other,
null,"<div style=""font-size:60px;"">+</div>",,html-keyboard-response,94,429523,0.0-13.0-0.16,79344,List2A,white,woman,,,,null,,,,
null,"<img src=""stim_listA/shout6.gif""style=""height:400px;""></stim_listA>",,html-keyboard-response,95,431534,0.0-13.0-1.16,79344,List2A,white,woman,,,,null,,,,
null,are shouting at each other,,html-keyboard-response,96,433538,0.0-13.0-2.16,79344,List2A,white,woman,,,,null,,,,
7319,,,survey-text,97,440858,0.0-13.0-3.16,79344,List2A,white,woman,,,,,"{""Q0"":""mike and dave are shouting at each other""}","<img src=""stim_listA/shout6.gif""style=""height:400px;""></stim_listA>",are shouting at each other,
null,"<div style=""font-size:60px;"">+</div>",,html-keyboard-response,98,441376,0.0-13.0-0.17,79344,List2A,white,woman,,,,null,,,,
null,"<img src=""stim_listA/talk6.gif""style=""height:400px;""></stim_listA>",,html-keyboard-response,99,443383,0.0-13.0-1.17,79344,List2A,white,woman,,,,null,,,,
null,are talking to each other,,html-keyboard-response,100,445390,0.0-13.0-2.17,79344,List2A,white,woman,,,,null,,,,
9805,,,survey-text,101,455196,0.0-13.0-3.17,79344,List2A,white,woman,,,,,"{""Q0"":""fred and dave are talking to each other""}","<img src=""stim_listA/talk6.gif""style=""height:400px;""></stim_listA>",are talking to each other,
null,"<div style=""font-size:60px;"">+</div>",,html-keyboard-response,102,455711,0.0-13.0-0.18,79344,List2A,white,woman,,,,null,,,,
null,"<img src=""stim_listA/kiss5.gif""style=""height:400px;""></stim_listA>",,html-keyboard-response,103,457716,0.0-13.0-1.18,79344,List2A,white,woman,,,,null,,,,
null,is kissing,,html-keyboard-response,104,459728,0.0-13.0-2.18,79344,List2A,white,woman,,,,null,,,,
5323,,,survey-text,105,465052,0.0-13.0-3.18,79344,List2A,white,woman,,,,,"{""Q0"":""luke is kissing fred""}","<img src=""stim_listA/kiss5.gif""style=""height:400px;""></stim_listA>",is kissing,
null,"<div style=""font-size:60px;"">+</div>",,html-keyboard-response,106,465553,0.0-13.0-0.19,79344,List2A,white,woman,,,,null,,,,
null,"<img src=""stim_listA/marry3.gif""style=""height:400px;""></stim_listA>",,html-keyboard-response,107,467563,0.0-13.0-1.19,79344,List2A,white,woman,,,,null,,,,
null,is marrying,,html-keyboard-response,108,469574,0.0-13.0-2.19,79344,List2A,white,woman,,,,null,,,,
5275,,,survey-text,109,474850,0.0-13.0-3.19,79344,List2A,white,woman,,,,,"{""Q0"":""beth is marrying mike""}","<img src=""stim_listA/marry3.gif""style=""height:400px;""></stim_listA>",is marrying,
17263,"<img src='img/portrait_matrix_list2.jpg' style='width:900px;height:500px;''></img><p>If you have memorised all the portraits and names and are ready to start, press Continue.</p><p><strong>Please note: Your memory of these faces will be tested 4 times during this experiment.</strong></p>",0,html-button-response,110,492114,0.0-14.0-0.0,79344,List2A,white,woman,,,,,,,,
4138,"<img src=""portrait/BM1.jpg""style=""height:400px;""></img>",4,html-button-response,111,497270,0.0-14.0-1.0,79344,List2A,white,woman,,TRUE,4,,,,,
null,CORRECT,,html-keyboard-response,112,498781,0.0-14.0-2.0-0.0,79344,List2A,white,woman,,,,null,,,,
2278,"<img src=""portrait/WM1.jpg""style=""height:400px;""></img>",6,html-button-response,113,501060,0.0-14.0-4.0,79344,List2A,white,woman,,TRUE,6,,,,,
null,CORRECT,,html-keyboard-response,114,502579,0.0-14.0-5.0-0.0,79344,List2A,white,woman,,,,null,,,,
1893,"<img src=""portrait/BW1.jpg""style=""height:400px;""></img>",0,html-button-response,115,504474,0.0-14.0-7.0,79344,List2A,white,woman,,TRUE,0,,,,,
null,CORRECT,,html-keyboard-response,116,505979,0.0-14.0-8.0-0.0,79344,List2A,white,woman,,,,null,,,,
2870,"<img src=""portrait/WW1.jpg""style=""height:400px;""></img>",1,html-button-response,117,508850,0.0-14.0-10.0,79344,List2A,white,woman,,TRUE,1,,,,,
null,CORRECT,,html-keyboard-response,118,510365,0.0-14.0-11.0-0.0,79344,List2A,white,woman,,,,null,,,,
1404,"<img src=""portrait/BW2.jpg""style=""height:400px;""></img>",2,html-button-response,119,511771,0.0-14.0-13.0,79344,List2A,white,woman,,TRUE,2,,,,,
null,CORRECT,,html-keyboard-response,120,513283,0.0-14.0-14.0-0.0,79344,List2A,white,woman,,,,null,,,,
1480,"<img src=""portrait/WW2.jpg""style=""height:400px;""></img>",3,html-button-response,121,514764,0.0-14.0-16.0,79344,List2A,white,woman,,TRUE,3,,,,,
null,CORRECT,,html-keyboard-response,122,516279,0.0-14.0-17.0-0.0,79344,List2A,white,woman,,,,null,,,,
1834,"<img src=""portrait/BM2.jpg""style=""height:400px;""></img>",5,html-button-response,123,518114,0.0-14.0-19.0,79344,List2A,white,woman,,TRUE,5,,,,,
null,CORRECT,,html-keyboard-response,124,519631,0.0-14.0-20.0-0.0,79344,List2A,white,woman,,,,null,,,,
1216,"<img src=""portrait/WM2.jpg""style=""height:400px;""></img>",7,html-button-response,125,520849,0.0-14.0-22.0,79344,List2A,white,woman,,TRUE,7,,,,,
null,CORRECT,,html-keyboard-response,126,522375,0.0-14.0-23.0-0.0,79344,List2A,white,woman,,,,null,,,,
1097,<p>You got 8 out of 8 right first time. Press Continue.</p>,0,html-button-response,127,523474,0.0-14.0-25.0,79344,List2A,white,woman,,,,,,,,
null,"<div style=""font-size:60px;"">+</div>",,html-keyboard-response,128,524998,0.0-15.0-0.0,79344,List2A,white,woman,,,,null,,,,
null,"<img src=""stim_listA/talk7.gif""style=""height:400px;""></stim_listA>",,html-keyboard-response,129,527002,0.0-15.0-1.0,79344,List2A,white,woman,,,,null,,,,
null,is talking to,,html-keyboard-response,130,529011,0.0-15.0-2.0,79344,List2A,white,woman,,,,null,,,,
5330,,,survey-text,131,534342,0.0-15.0-3.0,79344,List2A,white,woman,,,,,"{""Q0"":""kate is talking to ruth""}","<img src=""stim_listA/talk7.gif""style=""height:400px;""></stim_listA>",is talking to,
null,"<div style=""font-size:60px;"">+</div>",,html-keyboard-response,132,534854,0.0-15.0-0.1,79344,List2A,white,woman,,,,null,,,,
null,"<img src=""stim_listA/dance1.gif""style=""height:400px;""></stim_listA>",,html-keyboard-response,133,536860,0.0-15.0-1.1,79344,List2A,white,woman,,,,null,,,,
null,is dancing with,,html-keyboard-response,134,538881,0.0-15.0-2.1,79344,List2A,white,woman,,,,null,,,,
6620,,,survey-text,135,545502,0.0-15.0-3.1,79344,List2A,white,woman,,,,,"{""Q0"":""jane is dancing with luke""}","<img src=""stim_listA/dance1.gif""style=""height:400px;""></stim_listA>",is dancing with,
null,"<div style=""font-size:60px;"">+</div>",,html-keyboard-response,136,546004,0.0-15.0-0.2,79344,List2A,white,woman,,,,null,,,,
null,"<img src=""stim_listA/fight7.gif""style=""height:400px;""></stim_listA>",,html-keyboard-response,137,548009,0.0-15.0-1.2,79344,List2A,white,woman,,,,null,,,,
null,is fighting,,html-keyboard-response,138,550011,0.0-15.0-2.2,79344,List2A,white,woman,,,,null,,,,
4482,,,survey-text,139,554494,0.0-15.0-3.2,79344,List2A,white,woman,,,,,"{""Q0"":""jane is fighting kate""}","<img src=""stim_listA/fight7.gif""style=""height:400px;""></stim_listA>",is fighting,
null,"<div style=""font-size:60px;"">+</div>",,html-keyboard-response,140,554996,0.0-15.0-0.3,79344,List2A,white,woman,,,,null,,,,
null,"<img src=""stim_listA/flirt8.gif""style=""height:400px;""></stim_listA>",,html-keyboard-response,141,557005,0.0-15.0-1.3,79344,List2A,white,woman,,,,null,,,,
null,are flirting with each other,,html-keyboard-response,142,559010,0.0-15.0-2.3,79344,List2A,white,woman,,,,null,,,,
9485,,,survey-text,143,568496,0.0-15.0-3.3,79344,List2A,white,woman,,,,,"{""Q0"":""beth and jane are flirting with each other""}","<img src=""stim_listA/flirt8.gif""style=""height:400px;""></stim_listA>",are flirting with each other,
null,"<div style=""font-size:60px;"">+</div>",,html-keyboard-response,144,569000,0.0-15.0-0.4,79344,List2A,white,woman,,,,null,,,,
null,"<img src=""stim_listA/dance6.gif""style=""height:400px;""></stim_listA>",,html-keyboard-response,145,571004,0.0-15.0-1.4,79344,List2A,white,woman,,,,null,,,,
null,are dancing with each other,,html-keyboard-response,146,573009,0.0-15.0-2.4,79344,List2A,white,woman,,,,null,,,,
8378,,,survey-text,147,581388,0.0-15.0-3.4,79344,List2A,white,woman,,,,,"{""Q0"":""fred and dave are dancing with each other""}","<img src=""stim_listA/dance6.gif""style=""height:400px;""></stim_listA>",are dancing with each other,
null,"<div style=""font-size:60px;"">+</div>",,html-keyboard-response,148,581892,0.0-15.0-0.5,79344,List2A,white,woman,,,,null,,,,
null,"<img src=""stim_listA/touch4.gif""style=""height:400px;""></stim_listA>",,html-keyboard-response,149,583899,0.0-15.0-1.5,79344,List2A,white,woman,,,,null,,,,
null,are touching each other,,html-keyboard-response,150,585914,0.0-15.0-2.5,79344,List2A,white,woman,,,,null,,,,
11344,,,survey-text,151,597260,0.0-15.0-3.5,79344,List2A,white,woman,,,,,"{""Q0"":""fred and beth are touching each other""}","<img src=""stim_listA/touch4.gif""style=""height:400px;""></stim_listA>",are touching each other,
null,"<div style=""font-size:60px;"">+</div>",,html-keyboard-response,152,597763,0.0-15.0-0.6,79344,List2A,white,woman,,,,null,,,,
null,"<img src=""stim_listA/fight1.gif""style=""height:400px;""></stim_listA>",,html-keyboard-response,153,599769,0.0-15.0-1.6,79344,List2A,white,woman,,,,null,,,,
null,is fighting,,html-keyboard-response,154,601774,0.0-15.0-2.6,79344,List2A,white,woman,,,,null,,,,
4554,,,survey-text,155,606330,0.0-15.0-3.6,79344,List2A,white,woman,,,,,"{""Q0"":""jane is fighting dave""}","<img src=""stim_listA/fight1.gif""style=""height:400px;""></stim_listA>",is fighting,
null,"<div style=""font-size:60px;"">+</div>",,html-keyboard-response,156,606842,0.0-15.0-0.7,79344,List2A,white,woman,,,,null,,,,
null,"<img src=""stim_listA/argue6.gif""style=""height:400px;""></stim_listA>",,html-keyboard-response,157,608849,0.0-15.0-1.7,79344,List2A,white,woman,,,,null,,,,
null,are arguing with each other,,html-keyboard-response,158,610865,0.0-15.0-2.7,79344,List2A,white,woman,,,,null,,,,
8517,,,survey-text,159,619384,0.0-15.0-3.7,79344,List2A,white,woman,,,,,"{""Q0"":""luke and mike are arguing with each other""}","<img src=""stim_listA/argue6.gif""style=""height:400px;""></stim_listA>",are arguing with each other,
null,"<div style=""font-size:60px;"">+</div>",,html-keyboard-response,160,619889,0.0-15.0-0.8,79344,List2A,white,woman,,,,null,,,,
null,"<img src=""stim_listA/argue7.gif""style=""height:400px;""></stim_listA>",,html-keyboard-response,161,621893,0.0-15.0-1.8,79344,List2A,white,woman,,,,null,,,,
null,is arguing with,,html-keyboard-response,162,623896,0.0-15.0-2.8,79344,List2A,white,woman,,,,null,,,,
5126,,,survey-text,163,629024,0.0-15.0-3.8,79344,List2A,white,woman,,,,,"{""Q0"":""jane is arguing with beth""}","<img src=""stim_listA/argue7.gif""style=""height:400px;""></stim_listA>",is arguing with,
null,"<div style=""font-size:60px;"">+</div>",,html-keyboard-response,164,629529,0.0-15.0-0.9,79344,List2A,white,woman,,,,null,,,,
null,"<img src=""stim_listA/touch7.gif""style=""height:400px;""></stim_listA>",,html-keyboard-response,165,631537,0.0-15.0-1.9,79344,List2A,white,woman,,,,null,,,,
null,is touching,,html-keyboard-response,166,633553,0.0-15.0-2.9,79344,List2A,white,woman,,,,null,,,,
4063,,,survey-text,167,637618,0.0-15.0-3.9,79344,List2A,white,woman,,,,,"{""Q0"":""kate is touching jane""}","<img src=""stim_listA/touch7.gif""style=""height:400px;""></stim_listA>",is touching,
null,"<div style=""font-size:60px;"">+</div>",,html-keyboard-response,168,638127,0.0-15.0-0.10,79344,List2A,white,woman,,,,null,,,,
null,"<img src=""stim_listA/fight5.gif""style=""height:400px;""></stim_listA>",,html-keyboard-response,169,640133,0.0-15.0-1.10,79344,List2A,white,woman,,,,null,,,,
null,is fighting,,html-keyboard-response,170,642151,0.0-15.0-2.10,79344,List2A,white,woman,,,,null,,,,
8989,,,survey-text,171,651141,0.0-15.0-3.10,79344,List2A,white,woman,,,,,"{""Q0"":""mike is fighting dave""}","<img src=""stim_listA/fight5.gif""style=""height:400px;""></stim_listA>",is fighting,
null,"<div style=""font-size:60px;"">+</div>",,html-keyboard-response,172,651644,0.0-15.0-0.11,79344,List2A,white,woman,,,,null,,,,
null,"<img src=""stim_listA/kiss8.gif""style=""height:400px;""></stim_listA>",,html-keyboard-response,173,653659,0.0-15.0-1.11,79344,List2A,white,woman,,,,null,,,,
null,are kissing each other,,html-keyboard-response,174,655661,0.0-15.0-2.11,79344,List2A,white,woman,,,,null,,,,
7050,,,survey-text,175,662712,0.0-15.0-3.11,79344,List2A,white,woman,,,,,"{""Q0"":""jane and kate are kissing each other""}","<img src=""stim_listA/kiss8.gif""style=""height:400px;""></stim_listA>",are kissing each other,
null,"<div style=""font-size:60px;"">+</div>",,html-keyboard-response,176,663216,0.0-15.0-0.12,79344,List2A,white,woman,,,,null,,,,
null,"<img src=""stim_listA/dance5.gif""style=""height:400px;""></stim_listA>",,html-keyboard-response,177,665219,0.0-15.0-1.12,79344,List2A,white,woman,,,,null,,,,
null,is dancing with,,html-keyboard-response,178,667224,0.0-15.0-2.12,79344,List2A,white,woman,,,,null,,,,
5206,,,survey-text,179,672432,0.0-15.0-3.12,79344,List2A,white,woman,,,,,"{""Q0"":""mike is dancing with luke""}","<img src=""stim_listA/dance5.gif""style=""height:400px;""></stim_listA>",is dancing with,
null,"<div style=""font-size:60px;"">+</div>",,html-keyboard-response,180,672935,0.0-15.0-0.13,79344,List2A,white,woman,,,,null,,,,
null,"<img src=""stim_listA/flirt6.gif""style=""height:400px;""></stim_listA>",,html-keyboard-response,181,674939,0.0-15.0-1.13,79344,List2A,white,woman,,,,null,,,,
null,are flirting with each other,,html-keyboard-response,182,676953,0.0-15.0-2.13,79344,List2A,white,woman,,,,null,,,,
7594,,,survey-text,183,684548,0.0-15.0-3.13,79344,List2A,white,woman,,,,,"{""Q0"":""fred and dave are flirting with each other""}","<img src=""stim_listA/flirt6.gif""style=""height:400px;""></stim_listA>",are flirting with each other,
null,"<div style=""font-size:60px;"">+</div>",,html-keyboard-response,184,685062,0.0-15.0-0.14,79344,List2A,white,woman,,,,null,,,,
null,"<img src=""stim_listA/shout4.gif""style=""height:400px;""></stim_listA>",,html-keyboard-response,185,687068,0.0-15.0-1.14,79344,List2A,white,woman,,,,null,,,,
null,are shouting at each other,,html-keyboard-response,186,689072,0.0-15.0-2.14,79344,List2A,white,woman,,,,null,,,,
6791,,,survey-text,187,695864,0.0-15.0-3.14,79344,List2A,white,woman,,,,,"{""Q0"":""kate and mike are shouting at each other""}","<img src=""stim_listA/shout4.gif""style=""height:400px;""></stim_listA>",are shouting at each other,
null,"<div style=""font-size:60px;"">+</div>",,html-keyboard-response,188,696371,0.0-15.0-0.15,79344,List2A,white,woman,,,,null,,,,
null,"<img src=""stim_listA/dance4.gif""style=""height:400px;""></stim_listA>",,html-keyboard-response,189,698375,0.0-15.0-1.15,79344,List2A,white,woman,,,,null,,,,
null,are dancing with each other,,html-keyboard-response,190,700383,0.0-15.0-2.15,79344,List2A,white,woman,,,,null,,,,
10524,,,survey-text,191,710908,0.0-15.0-3.15,79344,List2A,white,woman,,,,,"{""Q0"":""mike and beth are dancing with each other""}","<img src=""stim_listA/dance4.gif""style=""height:400px;""></stim_listA>",are dancing with each other,
null,"<div style=""font-size:60px;"">+</div>",,html-keyboard-response,192,711419,0.0-15.0-0.16,79344,List2A,white,woman,,,,null,,,,
null,"<img src=""stim_listA/touch3.gif""style=""height:400px;""></stim_listA>",,html-keyboard-response,193,713423,0.0-15.0-1.16,79344,List2A,white,woman,,,,null,,,,
null,is touching,,html-keyboard-response,194,715430,0.0-15.0-2.16,79344,List2A,white,woman,,,,null,,,,
5858,,,survey-text,195,721290,0.0-15.0-3.16,79344,List2A,white,woman,,,,,"{""Q0"":""mike is touching kate""}","<img src=""stim_listA/touch3.gif""style=""height:400px;""></stim_listA>",is touching,
null,"<div style=""font-size:60px;"">+</div>",,html-keyboard-response,196,721796,0.0-15.0-0.17,79344,List2A,white,woman,,,,null,,,,
null,"<img src=""stim_listA/talk2.gif""style=""height:400px;""></stim_listA>",,html-keyboard-response,197,723809,0.0-15.0-1.17,79344,List2A,white,woman,,,,null,,,,
null,are talking to each other,,html-keyboard-response,198,725816,0.0-15.0-2.17,79344,List2A,white,woman,,,,null,,,,
10263,,,survey-text,199,736082,0.0-15.0-3.17,79344,List2A,white,woman,,,,,"{""Q0"":""ruth and dave ara talking to each other""}","<img src=""stim_listA/talk2.gif""style=""height:400px;""></stim_listA>",are talking to each other,
null,"<div style=""font-size:60px;"">+</div>",,html-keyboard-response,200,736591,0.0-15.0-0.18,79344,List2A,white,woman,,,,null,,,,
null,"<img src=""stim_listA/kiss3.gif""style=""height:400px;""></stim_listA>",,html-keyboard-response,201,738605,0.0-15.0-1.18,79344,List2A,white,woman,,,,null,,,,
null,is kissing,,html-keyboard-response,202,740607,0.0-15.0-2.18,79344,List2A,white,woman,,,,null,,,,
4669,,,survey-text,203,745278,0.0-15.0-3.18,79344,List2A,white,woman,,,,,"{""Q0"":""beth is kissing fred""}","<img src=""stim_listA/kiss3.gif""style=""height:400px;""></stim_listA>",is kissing,
null,"<div style=""font-size:60px;"">+</div>",,html-keyboard-response,204,745785,0.0-15.0-0.19,79344,List2A,white,woman,,,,null,,,,
null,"<img src=""stim_listA/flirt7.gif""style=""height:400px;""></stim_listA>",,html-keyboard-response,205,747797,0.0-15.0-1.19,79344,List2A,white,woman,,,,null,,,,
null,is flirting with,,html-keyboard-response,206,749810,0.0-15.0-2.19,79344,List2A,white,woman,,,,null,,,,
5826,,,survey-text,207,755638,0.0-15.0-3.19,79344,List2A,white,woman,,,,,"{""Q0"":""ruth is flirting with kate""}","<img src=""stim_listA/flirt7.gif""style=""height:400px;""></stim_listA>",is flirting with,
98745,"<img src='img/portrait_matrix_list2.jpg' style='width:900px;height:500px;''></img><p>If you have memorised all the portraits and names and are ready to start, press Continue.</p><p><strong>Please note: Your memory of these faces will be tested 4 times during this experiment.</strong></p>",0,html-button-response,208,854384,0.0-16.0-0.0,79344,List2A,white,woman,,,,,,,,
2398,"<img src=""portrait/WW1.jpg""style=""height:400px;""></img>",1,html-button-response,209,857790,0.0-16.0-1.0,79344,List2A,white,woman,,TRUE,1,,,,,
null,CORRECT,,html-keyboard-response,210,859313,0.0-16.0-2.0-0.0,79344,List2A,white,woman,,,,null,,,,
1359,"<img src=""portrait/BW2.jpg""style=""height:400px;""></img>",2,html-button-response,211,860674,0.0-16.0-4.0,79344,List2A,white,woman,,TRUE,2,,,,,
null,CORRECT,,html-keyboard-response,212,862181,0.0-16.0-5.0-0.0,79344,List2A,white,woman,,,,null,,,,
1372,"<img src=""portrait/WM2.jpg""style=""height:400px;""></img>",7,html-button-response,213,863556,0.0-16.0-7.0,79344,List2A,white,woman,,TRUE,7,,,,,
null,CORRECT,,html-keyboard-response,214,865072,0.0-16.0-8.0-0.0,79344,List2A,white,woman,,,,null,,,,
1473,"<img src=""portrait/BM2.jpg""style=""height:400px;""></img>",5,html-button-response,215,866548,0.0-16.0-10.0,79344,List2A,white,woman,,TRUE,5,,,,,
null,CORRECT,,html-keyboard-response,216,868054,0.0-16.0-11.0-0.0,79344,List2A,white,woman,,,,null,,,,
1413,"<img src=""portrait/BW1.jpg""style=""height:400px;""></img>",0,html-button-response,217,869470,0.0-16.0-13.0,79344,List2A,white,woman,,TRUE,0,,,,,
null,CORRECT,,html-keyboard-response,218,870980,0.0-16.0-14.0-0.0,79344,List2A,white,woman,,,,null,,,,
1542,"<img src=""portrait/WM1.jpg""style=""height:400px;""></img>",6,html-button-response,219,872524,0.0-16.0-16.0,79344,List2A,white,woman,,TRUE,6,,,,,
null,CORRECT,,html-keyboard-response,220,874044,0.0-16.0-17.0-0.0,79344,List2A,white,woman,,,,null,,,,
1150,"<img src=""portrait/WW2.jpg""style=""height:400px;""></img>",3,html-button-response,221,875196,0.0-16.0-19.0,79344,List2A,white,woman,,TRUE,3,,,,,
null,CORRECT,,html-keyboard-response,222,876716,0.0-16.0-20.0-0.0,79344,List2A,white,woman,,,,null,,,,
3518,"<img src=""portrait/BM1.jpg""style=""height:400px;""></img>",4,html-button-response,223,880236,0.0-16.0-22.0,79344,List2A,white,woman,,TRUE,4,,,,,
null,CORRECT,,html-keyboard-response,224,881753,0.0-16.0-23.0-0.0,79344,List2A,white,woman,,,,null,,,,
1129,<p>You got 8 out of 8 right first time. Press Continue.</p>,0,html-button-response,225,882883,0.0-16.0-25.0,79344,List2A,white,woman,,,,,,,,
null,"<div style=""font-size:60px;"">+</div>",,html-keyboard-response,226,884409,0.0-17.0-0.0,79344,List2A,white,woman,,,,null,,,,
null,"<img src=""stim_listA/touch5.gif""style=""height:400px;""></stim_listA>",,html-keyboard-response,227,886419,0.0-17.0-1.0,79344,List2A,white,woman,,,,null,,,,
null,is touching,,html-keyboard-response,228,888439,0.0-17.0-2.0,79344,List2A,white,woman,,,,null,,,,
4443,,,survey-text,229,892884,0.0-17.0-3.0,79344,List2A,white,woman,,,,,"{""Q0"":""dave is touching mike""}","<img src=""stim_listA/touch5.gif""style=""height:400px;""></stim_listA>",is touching,
null,"<div style=""font-size:60px;"">+</div>",,html-keyboard-response,230,893398,0.0-17.0-0.1,79344,List2A,white,woman,,,,null,,,,
null,"<img src=""stim_listA/shout1.gif""style=""height:400px;""></stim_listA>",,html-keyboard-response,231,895408,0.0-17.0-1.1,79344,List2A,white,woman,,,,null,,,,
null,is shouting at,,html-keyboard-response,232,897413,0.0-17.0-2.1,79344,List2A,white,woman,,,,null,,,,
6457,,,survey-text,233,903871,0.0-17.0-3.1,79344,List2A,white,woman,,,,,"{""Q0"":""luke is shouting at ruth""}","<img src=""stim_listA/shout1.gif""style=""height:400px;""></stim_listA>",is shouting at,
null,"<div style=""font-size:60px;"">+</div>",,html-keyboard-response,234,904374,0.0-17.0-0.2,79344,List2A,white,woman,,,,null,,,,
null,"<img src=""stim_listA/touch6.gif""style=""height:400px;""></stim_listA>",,html-keyboard-response,235,906386,0.0-17.0-1.2,79344,List2A,white,woman,,,,null,,,,
null,are touching each other,,html-keyboard-response,236,908388,0.0-17.0-2.2,79344,List2A,white,woman,,,,null,,,,
10727,,,survey-text,237,919116,0.0-17.0-3.2,79344,List2A,white,woman,,,,,"{""Q0"":""fred and luke are touching each other""}","<img src=""stim_listA/touch6.gif""style=""height:400px;""></stim_listA>",are touching each other,
null,"<div style=""font-size:60px;"">+</div>",,html-keyboard-response,238,919630,0.0-17.0-0.3,79344,List2A,white,woman,,,,null,,,,
null,"<img src=""stim_listA/shout8.gif""style=""height:400px;""></stim_listA>",,html-keyboard-response,239,921639,0.0-17.0-1.3,79344,List2A,white,woman,,,,null,,,,
null,are shouting at each other,,html-keyboard-response,240,923641,0.0-17.0-2.3,79344,List2A,white,woman,,,,null,,,,
6630,,,survey-text,241,930272,0.0-17.0-3.3,79344,List2A,white,woman,,,,,"{""Q0"":""kate and jane are shouting at each other""}","<img src=""stim_listA/shout8.gif""style=""height:400px;""></stim_listA>",are shouting at each other,
null,"<div style=""font-size:60px;"">+</div>",,html-keyboard-response,242,930784,0.0-17.0-0.4,79344,List2A,white,woman,,,,null,,,,
null,"<img src=""stim_listA/dance7.gif""style=""height:400px;""></stim_listA>",,html-keyboard-response,243,932801,0.0-17.0-1.4,79344,List2A,white,woman,,,,null,,,,
null,is dancing with,,html-keyboard-response,244,934817,0.0-17.0-2.4,79344,List2A,white,woman,,,,null,,,,
4750,,,survey-text,245,939568,0.0-17.0-3.4,79344,List2A,white,woman,,,,,"{""Q0"":""kate is dancing with ruth""}","<img src=""stim_listA/dance7.gif""style=""height:400px;""></stim_listA>",is dancing with,
null,"<div style=""font-size:60px;"">+</div>",,html-keyboard-response,246,940083,0.0-17.0-0.5,79344,List2A,white,woman,,,,null,,,,
null,"<img src=""stim_listA/kiss2.gif""style=""height:400px;""></stim_listA>",,html-keyboard-response,247,942093,0.0-17.0-1.5,79344,List2A,white,woman,,,,null,,,,
null,are kissing each other,,html-keyboard-response,248,944097,0.0-17.0-2.5,79344,List2A,white,woman,,,,null,,,,
11806,,,survey-text,249,955904,0.0-17.0-3.5,79344,List2A,white,woman,,,,,"{""Q0"":""jane and dave are kissing each other""}","<img src=""stim_listA/kiss2.gif""style=""height:400px;""></stim_listA>",are kissing each other,
null,"<div style=""font-size:60px;"">+</div>",,html-keyboard-response,250,956405,0.0-17.0-0.6,79344,List2A,white,woman,,,,null,,,,
null,"<img src=""stim_listA/argue3.gif""style=""height:400px;""></stim_listA>",,html-keyboard-response,251,958418,0.0-17.0-1.6,79344,List2A,white,woman,,,,null,,,,
null,is arguing with,,html-keyboard-response,252,960420,0.0-17.0-2.6,79344,List2A,white,woman,,,,null,,,,
6985,,,survey-text,253,967406,0.0-17.0-3.6,79344,List2A,white,woman,,,,,"{""Q0"":""mike is arguing with beth""}","<img src=""stim_listA/argue3.gif""style=""height:400px;""></stim_listA>",is arguing with,
null,"<div style=""font-size:60px;"">+</div>",,html-keyboard-response,254,967915,0.0-17.0-0.7,79344,List2A,white,woman,,,,null,,,,
null,"<img src=""stim_listA/play4.gif""style=""height:400px;""></stim_listA>",,html-keyboard-response,255,969924,0.0-17.0-1.7,79344,List2A,white,woman,,,,null,,,,
null,are playing with each other,,html-keyboard-response,256,971927,0.0-17.0-2.7,79344,List2A,white,woman,,,,null,,,,
8552,,,survey-text,257,980480,0.0-17.0-3.7,79344,List2A,white,woman,,,,,"{""Q0"":""fred and beth are playing with each other""}","<img src=""stim_listA/play4.gif""style=""height:400px;""></stim_listA>",are playing with each other,
null,"<div style=""font-size:60px;"">+</div>",,html-keyboard-response,258,980994,0.0-17.0-0.8,79344,List2A,white,woman,,,,null,,,,
null,"<img src=""stim_listA/shout7.gif""style=""height:400px;""></stim_listA>",,html-keyboard-response,259,983005,0.0-17.0-1.8,79344,List2A,white,woman,,,,null,,,,
null,is shouting at,,html-keyboard-response,260,985009,0.0-17.0-2.8,79344,List2A,white,woman,,,,null,,,,
9406,,,survey-text,261,994418,0.0-17.0-3.8,79344,List2A,white,woman,,,,,"{""Q0"":""beth is shouting at ruth""}","<img src=""stim_listA/shout7.gif""style=""height:400px;""></stim_listA>",is shouting at,
null,"<div style=""font-size:60px;"">+</div>",,html-keyboard-response,262,994919,0.0-17.0-0.9,79344,List2A,white,woman,,,,null,,,,
null,"<img src=""stim_listA/kiss4.gif""style=""height:400px;""></stim_listA>",,html-keyboard-response,263,996922,0.0-17.0-1.9,79344,List2A,white,woman,,,,null,,,,
null,are kissing each other,,html-keyboard-response,264,998927,0.0-17.0-2.9,79344,List2A,white,woman,,,,null,,,,
7337,,,survey-text,265,1006266,0.0-17.0-3.9,79344,List2A,white,woman,,,,,"{""Q0"":""mike and kate are kissing each other""}","<img src=""stim_listA/kiss4.gif""style=""height:400px;""></stim_listA>",are kissing each other,
null,"<div style=""font-size:60px;"">+</div>",,html-keyboard-response,266,1006768,0.0-17.0-0.10,79344,List2A,white,woman,,,,null,,,,
null,"<img src=""stim_listA/marry8.gif""style=""height:400px;""></stim_listA>",,html-keyboard-response,267,1008779,0.0-17.0-1.10,79344,List2A,white,woman,,,,null,,,,
null,are marrying each other,,html-keyboard-response,268,1010781,0.0-17.0-2.10,79344,List2A,white,woman,,,,null,,,,
15893,,,survey-text,269,1026676,0.0-17.0-3.10,79344,List2A,white,woman,,,,,"{""Q0"":""kate and ruth are marrying each other""}","<img src=""stim_listA/marry8.gif""style=""height:400px;""></stim_listA>",are marrying each other,
null,"<div style=""font-size:60px;"">+</div>",,html-keyboard-response,270,1027186,0.0-17.0-0.11,79344,List2A,white,woman,,,,null,,,,
null,"<img src=""stim_listA/talk5.gif""style=""height:400px;""></stim_listA>",,html-keyboard-response,271,1029189,0.0-17.0-1.11,79344,List2A,white,woman,,,,null,,,,
null,is talking to,,html-keyboard-response,272,1031192,0.0-17.0-2.11,79344,List2A,white,woman,,,,null,,,,
4677,,,survey-text,273,1035870,0.0-17.0-3.11,79344,List2A,white,woman,,,,,"{""Q0"":""mike is talking to luke""}","<img src=""stim_listA/talk5.gif""style=""height:400px;""></stim_listA>",is talking to,
null,"<div style=""font-size:60px;"">+</div>",,html-keyboard-response,274,1036376,0.0-17.0-0.12,79344,List2A,white,woman,,,,null,,,,
null,"<img src=""stim_listA/play2.gif""style=""height:400px;""></stim_listA>",,html-keyboard-response,275,1038383,0.0-17.0-1.12,79344,List2A,white,woman,,,,null,,,,
null,are playing with each other,,html-keyboard-response,276,1040390,0.0-17.0-2.12,79344,List2A,white,woman,,,,null,,,,
16629,,,survey-text,277,1057020,0.0-17.0-3.12,79344,List2A,white,woman,,,,,"{""Q0"":""ruth and luke are playing with each other""}","<img src=""stim_listA/play2.gif""style=""height:400px;""></stim_listA>",are playing with each other,
null,"<div style=""font-size:60px;"">+</div>",,html-keyboard-response,278,1057536,0.0-17.0-0.13,79344,List2A,white,woman,,,,null,,,,
null,"<img src=""stim_listA/shout3.gif""style=""height:400px;""></stim_listA>",,html-keyboard-response,279,1059544,0.0-17.0-1.13,79344,List2A,white,woman,,,,null,,,,
null,is shouting at,,html-keyboard-response,280,1061561,0.0-17.0-2.13,79344,List2A,white,woman,,,,null,,,,
5028,,,survey-text,281,1066590,0.0-17.0-3.13,79344,List2A,white,woman,,,,,"{""Q0"":""fred is shouting at beth""}","<img src=""stim_listA/shout3.gif""style=""height:400px;""></stim_listA>",is shouting at,
null,"<div style=""font-size:60px;"">+</div>",,html-keyboard-response,282,1067109,0.0-17.0-0.14,79344,List2A,white,woman,,,,null,,,,
null,"<img src=""stim_listA/talk1.gif""style=""height:400px;""></stim_listA>",,html-keyboard-response,283,1069116,0.0-17.0-1.14,79344,List2A,white,woman,,,,null,,,,
null,is talking to,,html-keyboard-response,284,1071119,0.0-17.0-2.14,79344,List2A,white,woman,,,,null,,,,
5294,,,survey-text,285,1076418,0.0-17.0-3.14,79344,List2A,white,woman,,,,,"{""Q0"":""jane is talking to luke""}","<img src=""stim_listA/talk1.gif""style=""height:400px;""></stim_listA>",is talking to,
null,"<div style=""font-size:60px;"">+</div>",,html-keyboard-response,286,1076926,0.0-17.0-0.15,79344,List2A,white,woman,,,,null,,,,
null,"<img src=""stim_listA/marry1.gif""style=""height:400px;""></stim_listA>",,html-keyboard-response,287,1078930,0.0-17.0-1.15,79344,List2A,white,woman,,,,null,,,,
null,is marrying,,html-keyboard-response,288,1080934,0.0-17.0-2.15,79344,List2A,white,woman,,,,null,,,,
4536,,,survey-text,289,1085472,0.0-17.0-3.15,79344,List2A,white,woman,,,,,"{""Q0"":""ruth is marrying dave""}","<img src=""stim_listA/marry1.gif""style=""height:400px;""></stim_listA>",is marrying,
null,"<div style=""font-size:60px;"">+</div>",,html-keyboard-response,290,1085985,0.0-17.0-0.16,79344,List2A,white,woman,,,,null,,,,
null,"<img src=""stim_listA/touch1.gif""style=""height:400px;""></stim_listA>",,html-keyboard-response,291,1087992,0.0-17.0-1.16,79344,List2A,white,woman,,,,null,,,,
null,is touching,,html-keyboard-response,292,1089996,0.0-17.0-2.16,79344,List2A,white,woman,,,,null,,,,
4295,,,survey-text,293,1094292,0.0-17.0-3.16,79344,List2A,white,woman,,,,,"{""Q0"":""dave is touching jane""}","<img src=""stim_listA/touch1.gif""style=""height:400px;""></stim_listA>",is touching,
null,"<div style=""font-size:60px;"">+</div>",,html-keyboard-response,294,1094809,0.0-17.0-0.17,79344,List2A,white,woman,,,,null,,,,
null,"<img src=""stim_listA/play1.gif""style=""height:400px;""></stim_listA>",,html-keyboard-response,295,1096817,0.0-17.0-1.17,79344,List2A,white,woman,,,,null,,,,
null,is playing with,,html-keyboard-response,296,1098820,0.0-17.0-2.17,79344,List2A,white,woman,,,,null,,,,
5268,,,survey-text,297,1104090,0.0-17.0-3.17,79344,List2A,white,woman,,,,,"{""Q0"":""dave is playing with jane""}","<img src=""stim_listA/play1.gif""style=""height:400px;""></stim_listA>",is playing with,
null,"<div style=""font-size:60px;"">+</div>",,html-keyboard-response,298,1104592,0.0-17.0-0.18,79344,List2A,white,woman,,,,null,,,,
null,"<img src=""stim_listA/touch2.gif""style=""height:400px;""></stim_listA>",,html-keyboard-response,299,1106598,0.0-17.0-1.18,79344,List2A,white,woman,,,,null,,,,
null,are touching each other,,html-keyboard-response,300,1108607,0.0-17.0-2.18,79344,List2A,white,woman,,,,null,,,,
11513,,,survey-text,301,1120122,0.0-17.0-3.18,79344,List2A,white,woman,,,,,"{""Q0"":""ruth and luke are touching each other""}","<img src=""stim_listA/touch2.gif""style=""height:400px;""></stim_listA>",are touching each other,
null,"<div style=""font-size:60px;"">+</div>",,html-keyboard-response,302,1120632,0.0-17.0-0.19,79344,List2A,white,woman,,,,null,,,,
null,"<img src=""stim_listA/play8.gif""style=""height:400px;""></stim_listA>",,html-keyboard-response,303,1122677,0.0-17.0-1.19,79344,List2A,white,woman,,,,null,,,,
null,are playing with each other,,html-keyboard-response,304,1124710,0.0-17.0-2.19,79344,List2A,white,woman,,,,null,,,,
11321,,,survey-text,305,1136034,0.0-17.0-3.19,79344,List2A,white,woman,,,,,"{""Q0"":""ruth and beth are playing with each other""}","<img src=""stim_listA/play8.gif""style=""height:400px;""></stim_listA>",are playing with each other,
4055,"<img src='img/portrait_matrix_list2.jpg' style='width:900px;height:500px;''></img><p>If you have memorised all the portraits and names and are ready to start, press Continue.</p><p><strong>Please note: Your memory of these faces will be tested 4 times during this experiment.</strong></p>",0,html-button-response,306,1140090,0.0-18.0-0.0,79344,List2A,white,woman,,,,,,,,
1535,"<img src=""portrait/WW2.jpg""style=""height:400px;""></img>",3,html-button-response,307,1142628,0.0-18.0-1.0,79344,List2A,white,woman,,TRUE,3,,,,,
null,CORRECT,,html-keyboard-response,308,1144145,0.0-18.0-2.0-0.0,79344,List2A,white,woman,,,,null,,,,
1607,"<img src=""portrait/WM1.jpg""style=""height:400px;""></img>",6,html-button-response,309,1145754,0.0-18.0-4.0,79344,List2A,white,woman,,TRUE,6,,,,,
null,CORRECT,,html-keyboard-response,310,1147269,0.0-18.0-5.0-0.0,79344,List2A,white,woman,,,,null,,,,
1046,"<img src=""portrait/BW2.jpg""style=""height:400px;""></img>",2,html-button-response,311,1148316,0.0-18.0-7.0,79344,List2A,white,woman,,TRUE,2,,,,,
null,CORRECT,,html-keyboard-response,312,1149830,0.0-18.0-8.0-0.0,79344,List2A,white,woman,,,,null,,,,
1311,"<img src=""portrait/BW1.jpg""style=""height:400px;""></img>",0,html-button-response,313,1151144,0.0-18.0-10.0,79344,List2A,white,woman,,TRUE,0,,,,,
null,CORRECT,,html-keyboard-response,314,1152661,0.0-18.0-11.0-0.0,79344,List2A,white,woman,,,,null,,,,
1198,"<img src=""portrait/BM1.jpg""style=""height:400px;""></img>",4,html-button-response,315,1153862,0.0-18.0-13.0,79344,List2A,white,woman,,TRUE,4,,,,,
null,CORRECT,,html-keyboard-response,316,1155392,0.0-18.0-14.0-0.0,79344,List2A,white,woman,,,,null,,,,
1304,"<img src=""portrait/WW1.jpg""style=""height:400px;""></img>",1,html-button-response,317,1156697,0.0-18.0-16.0,79344,List2A,white,woman,,TRUE,1,,,,,
null,CORRECT,,html-keyboard-response,318,1158226,0.0-18.0-17.0-0.0,79344,List2A,white,woman,,,,null,,,,
1133,"<img src=""portrait/WM2.jpg""style=""height:400px;""></img>",7,html-button-response,319,1159361,0.0-18.0-19.0,79344,List2A,white,woman,,TRUE,7,,,,,
null,CORRECT,,html-keyboard-response,320,1160876,0.0-18.0-20.0-0.0,79344,List2A,white,woman,,,,null,,,,
1102,"<img src=""portrait/BM2.jpg""style=""height:400px;""></img>",5,html-button-response,321,1161980,0.0-18.0-22.0,79344,List2A,white,woman,,TRUE,5,,,,,
null,CORRECT,,html-keyboard-response,322,1163507,0.0-18.0-23.0-0.0,79344,List2A,white,woman,,,,null,,,,
1024,<p>You got 8 out of 8 right first time. Press Continue.</p>,0,html-button-response,323,1164533,0.0-18.0-25.0,79344,List2A,white,woman,,,,,,,,
null,"<div style=""font-size:60px;"">+</div>",,html-keyboard-response,324,1166039,0.0-19.0-0.0,79344,List2A,white,woman,,,,null,,,,
null,"<img src=""stim_listA/fight4.gif""style=""height:400px;""></stim_listA>",,html-keyboard-response,325,1168046,0.0-19.0-1.0,79344,List2A,white,woman,,,,null,,,,
null,are fighting each other,,html-keyboard-response,326,1170049,0.0-19.0-2.0,79344,List2A,white,woman,,,,null,,,,
16967,,,survey-text,327,1187017,0.0-19.0-3.0,79344,List2A,white,woman,,,,,"{""Q0"":""beth and fred are fighting each other""}","<img src=""stim_listA/fight4.gif""style=""height:400px;""></stim_listA>",are fighting each other,
null,"<div style=""font-size:60px;"">+</div>",,html-keyboard-response,328,1187532,0.0-19.0-0.1,79344,List2A,white,woman,,,,null,,,,
null,"<img src=""stim_listA/marry5.gif""style=""height:400px;""></stim_listA>",,html-keyboard-response,329,1189541,0.0-19.0-1.1,79344,List2A,white,woman,,,,null,,,,
null,is marrying,,html-keyboard-response,330,1191547,0.0-19.0-2.1,79344,List2A,white,woman,,,,null,,,,
4461,,,survey-text,331,1196009,0.0-19.0-3.1,79344,List2A,white,woman,,,,,"{""Q0"":""fred is marrying dave""}","<img src=""stim_listA/marry5.gif""style=""height:400px;""></stim_listA>",is marrying,
null,"<div style=""font-size:60px;"">+</div>",,html-keyboard-response,332,1196516,0.0-19.0-0.2,79344,List2A,white,woman,,,,null,,,,
null,"<img src=""stim_listA/dance8.gif""style=""height:400px;""></stim_listA>",,html-keyboard-response,333,1198529,0.0-19.0-1.2,79344,List2A,white,woman,,,,null,,,,
null,are dancing with each other,,html-keyboard-response,334,1200531,0.0-19.0-2.2,79344,List2A,white,woman,,,,null,,,,
10305,,,survey-text,335,1210837,0.0-19.0-3.2,79344,List2A,white,woman,,,,,"{""Q0"":""jane and beth are dancing with each other""}","<img src=""stim_listA/dance8.gif""style=""height:400px;""></stim_listA>",are dancing with each other,
null,"<div style=""font-size:60px;"">+</div>",,html-keyboard-response,336,1211355,0.0-19.0-0.3,79344,List2A,white,woman,,,,null,,,,
null,"<img src=""stim_listA/play7.gif""style=""height:400px;""></stim_listA>",,html-keyboard-response,337,1213364,0.0-19.0-1.3,79344,List2A,white,woman,,,,null,,,,
null,is playing with,,html-keyboard-response,338,1215368,0.0-19.0-2.3,79344,List2A,white,woman,,,,null,,,,
4344,,,survey-text,339,1219714,0.0-19.0-3.3,79344,List2A,white,woman,,,,,"{""Q0"":""jane is playing with kate""}","<img src=""stim_listA/play7.gif""style=""height:400px;""></stim_listA>",is playing with,
null,"<div style=""font-size:60px;"">+</div>",,html-keyboard-response,340,1220217,0.0-19.0-0.4,79344,List2A,white,woman,,,,null,,,,
null,"<img src=""stim_listA/play5.gif""style=""height:400px;""></stim_listA>",,html-keyboard-response,341,1222233,0.0-19.0-1.4,79344,List2A,white,woman,,,,null,,,,
null,is playing with,,html-keyboard-response,342,1224245,0.0-19.0-2.4,79344,List2A,white,woman,,,,null,,,,
5350,,,survey-text,343,1229596,0.0-19.0-3.4,79344,List2A,white,woman,,,,,"{""Q0"":""dave is playing with mike""}","<img src=""stim_listA/play5.gif""style=""height:400px;""></stim_listA>",is playing with,
null,"<div style=""font-size:60px;"">+</div>",,html-keyboard-response,344,1230100,0.0-19.0-0.5,79344,List2A,white,woman,,,,null,,,,
null,"<img src=""stim_listA/play6.gif""style=""height:400px;""></stim_listA>",,html-keyboard-response,345,1232111,0.0-19.0-1.5,79344,List2A,white,woman,,,,null,,,,
null,are playing with each other,,html-keyboard-response,346,1234116,0.0-19.0-2.5,79344,List2A,white,woman,,,,null,,,,
11066,,,survey-text,347,1245184,0.0-19.0-3.5,79344,List2A,white,woman,,,,,"{""Q0"":""luke and fred are playing with each other""}","<img src=""stim_listA/play6.gif""style=""height:400px;""></stim_listA>",are playing with each other,
null,"<div style=""font-size:60px;"">+</div>",,html-keyboard-response,348,1245694,0.0-19.0-0.6,79344,List2A,white,woman,,,,null,,,,
null,"<img src=""stim_listA/talk3.gif""style=""height:400px;""></stim_listA>",,html-keyboard-response,349,1247705,0.0-19.0-1.6,79344,List2A,white,woman,,,,null,,,,
null,is talking to,,html-keyboard-response,350,1249709,0.0-19.0-2.6,79344,List2A,white,woman,,,,null,,,,
8897,,,survey-text,351,1258608,0.0-19.0-3.6,79344,List2A,white,woman,,,,,"{""Q0"":""kate is talking to fred""}","<img src=""stim_listA/talk3.gif""style=""height:400px;""></stim_listA>",is talking to,
null,"<div style=""font-size:60px;"">+</div>",,html-keyboard-response,352,1259119,0.0-19.0-0.7,79344,List2A,white,woman,,,,null,,,,
null,"<img src=""stim_listA/play3.gif""style=""height:400px;""></stim_listA>",,html-keyboard-response,353,1261124,0.0-19.0-1.7,79344,List2A,white,woman,,,,null,,,,
null,is playing with,,html-keyboard-response,354,1263131,0.0-19.0-2.7,79344,List2A,white,woman,,,,null,,,,
5349,,,survey-text,355,1268482,0.0-19.0-3.7,79344,List2A,white,woman,,,,,"{""Q0"":""mike is playing with kate""}","<img src=""stim_listA/play3.gif""style=""height:400px;""></stim_listA>",is playing with,
null,"<div style=""font-size:60px;"">+</div>",,html-keyboard-response,356,1268996,0.0-19.0-0.8,79344,List2A,white,woman,,,,null,,,,
null,"<img src=""stim_listA/marry7.gif""style=""height:400px;""></stim_listA>",,html-keyboard-response,357,1270999,0.0-19.0-1.8,79344,List2A,white,woman,,,,null,,,,
null,is marrying,,html-keyboard-response,358,1273010,0.0-19.0-2.8,79344,List2A,white,woman,,,,null,,,,
7822,,,survey-text,359,1280834,0.0-19.0-3.8,79344,List2A,white,woman,,,,,"{""Q0"":""jane is marrying beth""}","<img src=""stim_listA/marry7.gif""style=""height:400px;""></stim_listA>",is marrying,
null,"<div style=""font-size:60px;"">+</div>",,html-keyboard-response,360,1281345,0.0-19.0-0.9,79344,List2A,white,woman,,,,null,,,,
null,"<img src=""stim_listA/flirt3.gif""style=""height:400px;""></stim_listA>",,html-keyboard-response,361,1283359,0.0-19.0-1.9,79344,List2A,white,woman,,,,null,,,,
null,is flirting with,,html-keyboard-response,362,1285366,0.0-19.0-2.9,79344,List2A,white,woman,,,,null,,,,
5364,,,survey-text,363,1290732,0.0-19.0-3.9,79344,List2A,white,woman,,,,,"{""Q0"":""kate is flirting with fred""}","<img src=""stim_listA/flirt3.gif""style=""height:400px;""></stim_listA>",is flirting with,
null,"<div style=""font-size:60px;"">+</div>",,html-keyboard-response,364,1291241,0.0-19.0-0.10,79344,List2A,white,woman,,,,null,,,,
null,"<img src=""stim_listA/kiss7.gif""style=""height:400px;""></stim_listA>",,html-keyboard-response,365,1293247,0.0-19.0-1.10,79344,List2A,white,woman,,,,null,,,,
null,is kissing,,html-keyboard-response,366,1295257,0.0-19.0-2.10,79344,List2A,white,woman,,,,null,,,,
4153,,,survey-text,367,1299412,0.0-19.0-3.10,79344,List2A,white,woman,,,,,"{""Q0"":""ruth is kissing beth""}","<img src=""stim_listA/kiss7.gif""style=""height:400px;""></stim_listA>",is kissing,
null,"<div style=""font-size:60px;"">+</div>",,html-keyboard-response,368,1299918,0.0-19.0-0.11,79344,List2A,white,woman,,,,null,,,,
null,"<img src=""stim_listA/talk8.gif""style=""height:400px;""></stim_listA>",,html-keyboard-response,369,1301935,0.0-19.0-1.11,79344,List2A,white,woman,,,,null,,,,
null,are talking to each other,,html-keyboard-response,370,1303952,0.0-19.0-2.11,79344,List2A,white,woman,,,,null,,,,
6378,,,survey-text,371,1310332,0.0-19.0-3.11,79344,List2A,white,woman,,,,,"{""Q0"":""jane and beth are talking to each other""}","<img src=""stim_listA/talk8.gif""style=""height:400px;""></stim_listA>",are talking to each other,
null,"<div style=""font-size:60px;"">+</div>",,html-keyboard-response,372,1310843,0.0-19.0-0.12,79344,List2A,white,woman,,,,null,,,,
null,"<img src=""stim_listA/flirt2.gif""style=""height:400px;""></stim_listA>",,html-keyboard-response,373,1312853,0.0-19.0-1.12,79344,List2A,white,woman,,,,null,,,,
null,are flirting with each other,,html-keyboard-response,374,1314859,0.0-19.0-2.12,79344,List2A,white,woman,,,,null,,,,
6503,,,survey-text,375,1321364,0.0-19.0-3.12,79344,List2A,white,woman,,,,,"{""Q0"":""ruth and dave are flirting with each other""}","<img src=""stim_listA/flirt2.gif""style=""height:400px;""></stim_listA>",are flirting with each other,
null,"<div style=""font-size:60px;"">+</div>",,html-keyboard-response,376,1321871,0.0-19.0-0.13,79344,List2A,white,woman,,,,null,,,,
null,"<img src=""stim_listA/argue4.gif""style=""height:400px;""></stim_listA>",,html-keyboard-response,377,1323875,0.0-19.0-1.13,79344,List2A,white,woman,,,,null,,,,
null,are arguing with each other,,html-keyboard-response,378,1325892,0.0-19.0-2.13,79344,List2A,white,woman,,,,null,,,,
11012,,,survey-text,379,1336905,0.0-19.0-3.13,79344,List2A,white,woman,,,,,"{""Q0"":""kate and fred are arguing with each other""}","<img src=""stim_listA/argue4.gif""style=""height:400px;""></stim_listA>",are arguing with each other,
null,"<div style=""font-size:60px;"">+</div>",,html-keyboard-response,380,1337413,0.0-19.0-0.14,79344,List2A,white,woman,,,,null,,,,
null,"<img src=""stim_listA/dance2.gif""style=""height:400px;""></stim_listA>",,html-keyboard-response,381,1339420,0.0-19.0-1.14,79344,List2A,white,woman,,,,null,,,,
null,are dancing with each other,,html-keyboard-response,382,1341428,0.0-19.0-2.14,79344,List2A,white,woman,,,,null,,,,
7232,,,survey-text,383,1348661,0.0-19.0-3.14,79344,List2A,white,woman,,,,,"{""Q0"":""ruth and dave are dancing with each other""}","<img src=""stim_listA/dance2.gif""style=""height:400px;""></stim_listA>",are dancing with each other,
null,"<div style=""font-size:60px;"">+</div>",,html-keyboard-response,384,1349175,0.0-19.0-0.15,79344,List2A,white,woman,,,,null,,,,
null,"<img src=""stim_listA/argue8.gif""style=""height:400px;""></stim_listA>",,html-keyboard-response,385,1351179,0.0-19.0-1.15,79344,List2A,white,woman,,,,null,,,,
null,are arguing with each other,,html-keyboard-response,386,1353188,0.0-19.0-2.15,79344,List2A,white,woman,,,,null,,,,
6762,,,survey-text,387,1359951,0.0-19.0-3.15,79344,List2A,white,woman,,,,,"{""Q0"":""ruth and kate are arguing with each other""}","<img src=""stim_listA/argue8.gif""style=""height:400px;""></stim_listA>",are arguing with each other,
null,"<div style=""font-size:60px;"">+</div>",,html-keyboard-response,388,1360457,0.0-19.0-0.16,79344,List2A,white,woman,,,,null,,,,
null,"<img src=""stim_listA/flirt1.gif""style=""height:400px;""></stim_listA>",,html-keyboard-response,389,1362462,0.0-19.0-1.16,79344,List2A,white,woman,,,,null,,,,
null,is flirting with,,html-keyboard-response,390,1364470,0.0-19.0-2.16,79344,List2A,white,woman,,,,null,,,,
6434,,,survey-text,391,1370905,0.0-19.0-3.16,79344,List2A,white,woman,,,,,"{""Q0"":""jane is flirting with luke""}","<img src=""stim_listA/flirt1.gif""style=""height:400px;""></stim_listA>",is flirting with,
null,"<div style=""font-size:60px;"">+</div>",,html-keyboard-response,392,1371412,0.0-19.0-0.17,79344,List2A,white,woman,,,,null,,,,
null,"<img src=""stim_listA/kiss6.gif""style=""height:400px;""></stim_listA>",,html-keyboard-response,393,1373418,0.0-19.0-1.17,79344,List2A,white,woman,,,,null,,,,
null,are kissing each other,,html-keyboard-response,394,1375421,0.0-19.0-2.17,79344,List2A,white,woman,,,,null,,,,
7603,,,survey-text,395,1383025,0.0-19.0-3.17,79344,List2A,white,woman,,,,,"{""Q0"":""mike and dave are kissing each other""}","<img src=""stim_listA/kiss6.gif""style=""height:400px;""></stim_listA>",are kissing each other,
null,"<div style=""font-size:60px;"">+</div>",,html-keyboard-response,396,1383530,0.0-19.0-0.18,79344,List2A,white,woman,,,,null,,,,
null,"<img src=""stim_listA/marry6.gif""style=""height:400px;""></stim_listA>",,html-keyboard-response,397,1385539,0.0-19.0-1.18,79344,List2A,white,woman,,,,null,,,,
null,are marrying each other,,html-keyboard-response,398,1387545,0.0-19.0-2.18,79344,List2A,white,woman,,,,null,,,,
8057,,,survey-text,399,1395603,0.0-19.0-3.18,79344,List2A,white,woman,,,,,"{""Q0"":""mike and luke are marrying each other""}","<img src=""stim_listA/marry6.gif""style=""height:400px;""></stim_listA>",are marrying each other,
null,"<div style=""font-size:60px;"">+</div>",,html-keyboard-response,400,1396110,0.0-19.0-0.19,79344,List2A,white,woman,,,,null,,,,
null,"<img src=""stim_listA/marry4.gif""style=""height:400px;""></stim_listA>",,html-keyboard-response,401,1398118,0.0-19.0-1.19,79344,List2A,white,woman,,,,null,,,,
null,are marrying each other,,html-keyboard-response,402,1400120,0.0-19.0-2.19,79344,List2A,white,woman,,,,null,,,,
11993,,,survey-text,403,1412114,0.0-19.0-3.19,79344,List2A,white,woman,,,,,"{""Q0"":""fred and kate are maarrying each other""}","<img src=""stim_listA/marry4.gif""style=""height:400px;""></stim_listA>",are marrying each other,
2405,<p>Thank you for completing that task.</p><p>The final part of this session is a short questionnaire.</p><p>Press Continue.</p>,0,html-button-response,404,1414520,0.0-20.0,79344,List2A,white,woman,,,,,,,,
28055,,,survey-text,405,1443590,0.0-21.0,79344,List2A,white,woman,,,,,"{""Q0"":""31"",""Q1"":""English"",""Q2"":""English"",""Q3"":""United States"",""Q4"":""Caucasion"",""Q5"":""female""}",,,demographics
6452,,,survey-likert,406,1450045,0.0-22.0,79344,List2A,white,woman,,,,,"{""Q0"":3}",,,likert_ESS
8645,,,survey-likert,407,1458692,0.0-23.0,79344,List2A,white,woman,,,,,"{""Q0"":3}",,,likert_NSSAL_Q1
6480,,,survey-likert,408,1465176,0.0-24.0,79344,List2A,white,woman,,,,,"{""Q0"":3}",,,likert_NSSAL_Q2
14859,,,survey-likert,409,1480036,0.0-25.0,79344,List2A,white,woman,,,,,"{""Q0"":4}",,,likert_CGRS_Q1
8732,,,survey-likert,410,1488770,0.0-26.0,79344,List2A,white,woman,,,,,"{""Q0"":2}",,,likert_CGRS_Q2
10552,,,survey-likert,411,1499324,0.0-27.0,79344,List2A,white,woman,,,,,"{""Q0"":3}",,,likert_CGRS_Q3
4686,,,survey-text,412,1504012,0.0-28.0,79344,List2A,white,woman,,,,,"{""Q0"":""ccc""}",,,worker_id
16041,,,external-html,413,1520516,0.0-29.0,79344,List2A,white,woman,debrief.html,,,,,,,
