rt,stimulus,button_pressed,trial_type,trial_index,time_elapsed,internal_node_id,subject,list,ppt_race,ppt_gender,url,first_guess,correct,key_press,responses,image_type,phrase_type,test_part
23485,Welcome to the experiment. Press Continue to begin.,0,html-button-response,0,23489,0.0-0.0,79559,List1A,black,man,,,,,,,,
26115,,,external-html,1,50700,0.0-1.0,79559,List1A,black,man,consent.html,,,,,,,
7970,"<p>On the next page, you will see portraits of 8 people and their names.</p><p>Your first task is to take a few minutes to memorise the names of these people.</p><p>You will have to recall their names during the rest of the experiment, so it is</p><p>essential that you try to memorise these people and their names as best as you can.</p><br><p><strong>You will then be tested on your memory of these names and portraits.</strong></p><br><p>The experiment will start after you have completed this memory test.</p><br><p>Ready?</p>",0,html-button-response,2,58671,0.0-2.0,79559,List1A,black,man,,,,,,,,
103615,"<img src='img/portrait_matrix_list1.jpg' style='width:900px;height:500px;''></img><p>If you have memorised all the portraits and names and are ready to start, press Continue.</p><p><strong>Please note: Your memory of these faces will be tested 4 times during this experiment.</strong></p>",0,html-button-response,3,163291,0.0-3.0-0.0,79559,List1A,black,man,,,,,,,,
10606,"<img src=""portrait/BM1.jpg""style=""height:400px;""></img>",4,html-button-response,4,174900,0.0-3.0-1.0,79559,List1A,black,man,,TRUE,4,,,,,
null,CORRECT,,html-keyboard-response,5,176409,0.0-3.0-2.0-0.0,79559,List1A,black,man,,,,null,,,,
1620,"<img src=""portrait/WW2.jpg""style=""height:400px;""></img>",3,html-button-response,6,178031,0.0-3.0-4.0,79559,List1A,black,man,,TRUE,3,,,,,
null,CORRECT,,html-keyboard-response,7,179534,0.0-3.0-5.0-0.0,79559,List1A,black,man,,,,null,,,,
5324,"<img src=""portrait/WM1.jpg""style=""height:400px;""></img>",6,html-button-response,8,184860,0.0-3.0-7.0,79559,List1A,black,man,,TRUE,6,,,,,
null,CORRECT,,html-keyboard-response,9,186363,0.0-3.0-8.0-0.0,79559,List1A,black,man,,,,null,,,,
6299,"<img src=""portrait/WW1.jpg""style=""height:400px;""></img>",1,html-button-response,10,192664,0.0-3.0-10.0,79559,List1A,black,man,,TRUE,1,,,,,
null,CORRECT,,html-keyboard-response,11,194168,0.0-3.0-11.0-0.0,79559,List1A,black,man,,,,null,,,,
10456,"<img src=""portrait/BW1.jpg""style=""height:400px;""></img>",0,html-button-response,12,204625,0.0-3.0-13.0,79559,List1A,black,man,,TRUE,0,,,,,
null,CORRECT,,html-keyboard-response,13,206130,0.0-3.0-14.0-0.0,79559,List1A,black,man,,,,null,,,,
4348,"<img src=""portrait/BW2.jpg""style=""height:400px;""></img>",2,html-button-response,14,210480,0.0-3.0-16.0,79559,List1A,black,man,,TRUE,2,,,,,
null,CORRECT,,html-keyboard-response,15,211984,0.0-3.0-17.0-0.0,79559,List1A,black,man,,,,null,,,,
5905,"<img src=""portrait/BM2.jpg""style=""height:400px;""></img>",5,html-button-response,16,217892,0.0-3.0-19.0,79559,List1A,black,man,,TRUE,5,,,,,
null,CORRECT,,html-keyboard-response,17,219396,0.0-3.0-20.0-0.0,79559,List1A,black,man,,,,null,,,,
10204,"<img src=""portrait/WM2.jpg""style=""height:400px;""></img>",7,html-button-response,18,229602,0.0-3.0-22.0,79559,List1A,black,man,,TRUE,7,,,,,
null,CORRECT,,html-keyboard-response,19,231105,0.0-3.0-23.0-0.0,79559,List1A,black,man,,,,null,,,,
1153,<p>You got 8 out of 8 right first time. Press Continue.</p>,0,html-button-response,20,232260,0.0-3.0-25.0,79559,List1A,black,man,,,,,,,,
20106,"<p>In this experiment, you will view photographs of the people from the memory game interacting.</p><p>By using the <strong>exact</strong> phrase given <i>after</i> the photograph appears and recalling the correct names of the people in the photographs, form a sentence describing the interaction. You do not need to capitalise names.</p><p>Type your answer in the space provided. Please complete every sentence before moving onto the next trial.</p><p>You will only have a few seconds to memorise each given photograph and phrase before you can respond, so try your best to focus.</p><p>An example is given below. Press 'Continue' when you are ready.</p><img src='img/speaking_example.jpg' style='width:800px;height:460px;''></img>",0,html-button-response,21,253369,0.0-4.0,79559,List1A,black,man,,,,,,,,
1832,"<p>Before the experiment starts, you will watch two example trials. Press 'Continue'.</p>",0,html-button-response,22,256203,0.0-5.0,79559,List1A,black,man,,,,,,,,
null,<img src='img/meet_eg.gif' style='height:400px;''></img>,,html-keyboard-response,23,259208,0.0-6.0,79559,List1A,black,man,,,,null,,,,
null,<p>is meeting</p>,,html-keyboard-response,24,261209,0.0-7.0,79559,List1A,black,man,,,,null,,,,
1196,<p><b>Answer:</b> kate is meeting beth</p>,0,html-button-response,25,262407,0.0-8.0,79559,List1A,black,man,,,,,,,,
null,<img src='img/look_eg.gif' style='height:400px;''></img>,,html-keyboard-response,26,265412,0.0-9.0,79559,List1A,black,man,,,,null,,,,
null,<p>are looking at each other</p>,,html-keyboard-response,27,267415,0.0-10.0,79559,List1A,black,man,,,,null,,,,
1244,<p><b>Answer:</b> luke and dave are looking at each other</p>,0,html-button-response,28,268660,0.0-11.0,79559,List1A,black,man,,,,,,,,
2365,"<p>Ready to start the experiment?</p><br><p><strong>Remember to describe the picture using a full sentence,</strong></p><p><strong>that combines the names of the people with the <i>exact</i> phrase given.</strong></p><p><strong>To receive full payment you must do this correctly.</strong></p><p><strong> You do not need to capitalise names or use punctuation.</strong></p><br><p>Press 'Continue' to begin.</p>",0,html-button-response,29,272027,0.0-12.0,79559,List1A,black,man,,,,,,,,
null,"<div style=""font-size:60px;"">+</div>",,html-keyboard-response,30,273530,0.0-13.0-0.0,79559,List1A,black,man,,,,null,,,,
null,"<img src=""stim_listA/play6.gif""style=""height:400px;""></stim_listA>",,html-keyboard-response,31,275532,0.0-13.0-1.0,79559,List1A,black,man,,,,null,,,,
null,are playing with each other,,html-keyboard-response,32,277535,0.0-13.0-2.0,79559,List1A,black,man,,,,null,,,,
16085,,,survey-text,33,293622,0.0-13.0-3.0,79559,List1A,black,man,,,,,"{""Q0"":""luke and fred are playing with each other""}","<img src=""stim_listA/play6.gif""style=""height:400px;""></stim_listA>",are playing with each other,
null,"<div style=""font-size:60px;"">+</div>",,html-keyboard-response,34,294125,0.0-13.0-0.1,79559,List1A,black,man,,,,null,,,,
null,"<img src=""stim_listA/shout5.gif""style=""height:400px;""></stim_listA>",,html-keyboard-response,35,296127,0.0-13.0-1.1,79559,List1A,black,man,,,,null,,,,
null,is shouting at,,html-keyboard-response,36,298129,0.0-13.0-2.1,79559,List1A,black,man,,,,null,,,,
7547,,,survey-text,37,305678,0.0-13.0-3.1,79559,List1A,black,man,,,,,"{""Q0"":""fred is shouting at luke""}","<img src=""stim_listA/shout5.gif""style=""height:400px;""></stim_listA>",is shouting at,
null,"<div style=""font-size:60px;"">+</div>",,html-keyboard-response,38,306179,0.0-13.0-0.2,79559,List1A,black,man,,,,null,,,,
null,"<img src=""stim_listA/fight5.gif""style=""height:400px;""></stim_listA>",,html-keyboard-response,39,308181,0.0-13.0-1.2,79559,List1A,black,man,,,,null,,,,
null,is fighting,,html-keyboard-response,40,310183,0.0-13.0-2.2,79559,List1A,black,man,,,,null,,,,
21102,,,survey-text,41,331286,0.0-13.0-3.2,79559,List1A,black,man,,,,,"{""Q0"":""mike is fighting dave""}","<img src=""stim_listA/fight5.gif""style=""height:400px;""></stim_listA>",is fighting,
null,"<div style=""font-size:60px;"">+</div>",,html-keyboard-response,42,331788,0.0-13.0-0.3,79559,List1A,black,man,,,,null,,,,
null,"<img src=""stim_listA/argue2.gif""style=""height:400px;""></stim_listA>",,html-keyboard-response,43,333790,0.0-13.0-1.3,79559,List1A,black,man,,,,null,,,,
null,are arguing with each other,,html-keyboard-response,44,335793,0.0-13.0-2.3,79559,List1A,black,man,,,,null,,,,
13229,,,survey-text,45,349023,0.0-13.0-3.3,79559,List1A,black,man,,,,,"{""Q0"":""kate and fred are arguing""}","<img src=""stim_listA/argue2.gif""style=""height:400px;""></stim_listA>",are arguing with each other,
null,"<div style=""font-size:60px;"">+</div>",,html-keyboard-response,46,349526,0.0-13.0-0.4,79559,List1A,black,man,,,,null,,,,
null,"<img src=""stim_listA/play7.gif""style=""height:400px;""></stim_listA>",,html-keyboard-response,47,351529,0.0-13.0-1.4,79559,List1A,black,man,,,,null,,,,
null,is playing with,,html-keyboard-response,48,353531,0.0-13.0-2.4,79559,List1A,black,man,,,,null,,,,
9830,,,survey-text,49,363363,0.0-13.0-3.4,79559,List1A,black,man,,,,,"{""Q0"":""kate is playing with jane""}","<img src=""stim_listA/play7.gif""style=""height:400px;""></stim_listA>",is playing with,
null,"<div style=""font-size:60px;"">+</div>",,html-keyboard-response,50,363865,0.0-13.0-0.5,79559,List1A,black,man,,,,null,,,,
null,"<img src=""stim_listA/marry3.gif""style=""height:400px;""></stim_listA>",,html-keyboard-response,51,365867,0.0-13.0-1.5,79559,List1A,black,man,,,,null,,,,
null,is marrying,,html-keyboard-response,52,367868,0.0-13.0-2.5,79559,List1A,black,man,,,,null,,,,
12128,,,survey-text,53,379999,0.0-13.0-3.5,79559,List1A,black,man,,,,,"{""Q0"":""dave is marrying ruth""}","<img src=""stim_listA/marry3.gif""style=""height:400px;""></stim_listA>",is marrying,
null,"<div style=""font-size:60px;"">+</div>",,html-keyboard-response,54,380501,0.0-13.0-0.6,79559,List1A,black,man,,,,null,,,,
null,"<img src=""stim_listA/fight7.gif""style=""height:400px;""></stim_listA>",,html-keyboard-response,55,382503,0.0-13.0-1.6,79559,List1A,black,man,,,,null,,,,
null,is fighting,,html-keyboard-response,56,384505,0.0-13.0-2.6,79559,List1A,black,man,,,,null,,,,
7413,,,survey-text,57,391920,0.0-13.0-3.6,79559,List1A,black,man,,,,,"{""Q0"":""ruth is fighting kate""}","<img src=""stim_listA/fight7.gif""style=""height:400px;""></stim_listA>",is fighting,
null,"<div style=""font-size:60px;"">+</div>",,html-keyboard-response,58,392422,0.0-13.0-0.7,79559,List1A,black,man,,,,null,,,,
null,"<img src=""stim_listA/touch7.gif""style=""height:400px;""></stim_listA>",,html-keyboard-response,59,394425,0.0-13.0-1.7,79559,List1A,black,man,,,,null,,,,
null,is touching,,html-keyboard-response,60,396427,0.0-13.0-2.7,79559,List1A,black,man,,,,null,,,,
12279,,,survey-text,61,408708,0.0-13.0-3.7,79559,List1A,black,man,,,,,"{""Q0"":""jane is greeting kate""}","<img src=""stim_listA/touch7.gif""style=""height:400px;""></stim_listA>",is touching,
null,"<div style=""font-size:60px;"">+</div>",,html-keyboard-response,62,409209,0.0-13.0-0.8,79559,List1A,black,man,,,,null,,,,
null,"<img src=""stim_listA/kiss3.gif""style=""height:400px;""></stim_listA>",,html-keyboard-response,63,411211,0.0-13.0-1.8,79559,List1A,black,man,,,,null,,,,
null,is kissing,,html-keyboard-response,64,413212,0.0-13.0-2.8,79559,List1A,black,man,,,,null,,,,
8092,,,survey-text,65,421305,0.0-13.0-3.8,79559,List1A,black,man,,,,,"{""Q0"":""luke is kissing ruth""}","<img src=""stim_listA/kiss3.gif""style=""height:400px;""></stim_listA>",is kissing,
null,"<div style=""font-size:60px;"">+</div>",,html-keyboard-response,66,421808,0.0-13.0-0.9,79559,List1A,black,man,,,,null,,,,
null,"<img src=""stim_listA/fight8.gif""style=""height:400px;""></stim_listA>",,html-keyboard-response,67,423810,0.0-13.0-1.9,79559,List1A,black,man,,,,null,,,,
null,are fighting each other,,html-keyboard-response,68,425812,0.0-13.0-2.9,79559,List1A,black,man,,,,null,,,,
15442,,,survey-text,69,441256,0.0-13.0-3.9,79559,List1A,black,man,,,,,"{""Q0"":""ruth and beth are fighting each other""}","<img src=""stim_listA/fight8.gif""style=""height:400px;""></stim_listA>",are fighting each other,
null,"<div style=""font-size:60px;"">+</div>",,html-keyboard-response,70,441758,0.0-13.0-0.10,79559,List1A,black,man,,,,null,,,,
null,"<img src=""stim_listA/talk3.gif""style=""height:400px;""></stim_listA>",,html-keyboard-response,71,443762,0.0-13.0-1.10,79559,List1A,black,man,,,,null,,,,
null,is talking to,,html-keyboard-response,72,445765,0.0-13.0-2.10,79559,List1A,black,man,,,,null,,,,
12570,,,survey-text,73,458336,0.0-13.0-3.10,79559,List1A,black,man,,,,,"{""Q0"":""ruth is talking to luke""}","<img src=""stim_listA/talk3.gif""style=""height:400px;""></stim_listA>",is talking to,
null,"<div style=""font-size:60px;"">+</div>",,html-keyboard-response,74,458839,0.0-13.0-0.11,79559,List1A,black,man,,,,null,,,,
null,"<img src=""stim_listA/fight4.gif""style=""height:400px;""></stim_listA>",,html-keyboard-response,75,460844,0.0-13.0-1.11,79559,List1A,black,man,,,,null,,,,
null,are fighting each other,,html-keyboard-response,76,462846,0.0-13.0-2.11,79559,List1A,black,man,,,,null,,,,
11115,,,survey-text,77,473963,0.0-13.0-3.11,79559,List1A,black,man,,,,,"{""Q0"":""ruth and luke are fighting each other""}","<img src=""stim_listA/fight4.gif""style=""height:400px;""></stim_listA>",are fighting each other,
null,"<div style=""font-size:60px;"">+</div>",,html-keyboard-response,78,474465,0.0-13.0-0.12,79559,List1A,black,man,,,,null,,,,
null,"<img src=""stim_listA/touch4.gif""style=""height:400px;""></stim_listA>",,html-keyboard-response,79,476467,0.0-13.0-1.12,79559,List1A,black,man,,,,null,,,,
null,are touching each other,,html-keyboard-response,80,478469,0.0-13.0-2.12,79559,List1A,black,man,,,,null,,,,
22467,,,survey-text,81,500937,0.0-13.0-3.12,79559,List1A,black,man,,,,,"{""Q0"":""ruth and luke are touhing each other""}","<img src=""stim_listA/touch4.gif""style=""height:400px;""></stim_listA>",are touching each other,
null,"<div style=""font-size:60px;"">+</div>",,html-keyboard-response,82,501440,0.0-13.0-0.13,79559,List1A,black,man,,,,null,,,,
null,"<img src=""stim_listA/shout7.gif""style=""height:400px;""></stim_listA>",,html-keyboard-response,83,503443,0.0-13.0-1.13,79559,List1A,black,man,,,,null,,,,
null,is shouting at,,html-keyboard-response,84,505444,0.0-13.0-2.13,79559,List1A,black,man,,,,null,,,,
14585,,,survey-text,85,520030,0.0-13.0-3.13,79559,List1A,black,man,,,,,"{""Q0"":""beth is shouting ruth""}","<img src=""stim_listA/shout7.gif""style=""height:400px;""></stim_listA>",is shouting at,
null,"<div style=""font-size:60px;"">+</div>",,html-keyboard-response,86,520532,0.0-13.0-0.14,79559,List1A,black,man,,,,null,,,,
null,"<img src=""stim_listA/marry1.gif""style=""height:400px;""></stim_listA>",,html-keyboard-response,87,522534,0.0-13.0-1.14,79559,List1A,black,man,,,,null,,,,
null,is marrying,,html-keyboard-response,88,524537,0.0-13.0-2.14,79559,List1A,black,man,,,,null,,,,
8370,,,survey-text,89,532907,0.0-13.0-3.14,79559,List1A,black,man,,,,,"{""Q0"":""beth is marrying mike""}","<img src=""stim_listA/marry1.gif""style=""height:400px;""></stim_listA>",is marrying,
null,"<div style=""font-size:60px;"">+</div>",,html-keyboard-response,90,533409,0.0-13.0-0.15,79559,List1A,black,man,,,,null,,,,
null,"<img src=""stim_listA/kiss4.gif""style=""height:400px;""></stim_listA>",,html-keyboard-response,91,535412,0.0-13.0-1.15,79559,List1A,black,man,,,,null,,,,
null,are kissing each other,,html-keyboard-response,92,537414,0.0-13.0-2.15,79559,List1A,black,man,,,,null,,,,
12767,,,survey-text,93,550182,0.0-13.0-3.15,79559,List1A,black,man,,,,,"{""Q0"":""dave and jane are kissing each other""}","<img src=""stim_listA/kiss4.gif""style=""height:400px;""></stim_listA>",are kissing each other,
null,"<div style=""font-size:60px;"">+</div>",,html-keyboard-response,94,550685,0.0-13.0-0.16,79559,List1A,black,man,,,,null,,,,
null,"<img src=""stim_listA/shout8.gif""style=""height:400px;""></stim_listA>",,html-keyboard-response,95,552687,0.0-13.0-1.16,79559,List1A,black,man,,,,null,,,,
null,are shouting at each other,,html-keyboard-response,96,554689,0.0-13.0-2.16,79559,List1A,black,man,,,,null,,,,
8902,,,survey-text,97,563592,0.0-13.0-3.16,79559,List1A,black,man,,,,,"{""Q0"":""jane and kate are shouting at each other""}","<img src=""stim_listA/shout8.gif""style=""height:400px;""></stim_listA>",are shouting at each other,
null,"<div style=""font-size:60px;"">+</div>",,html-keyboard-response,98,564093,0.0-13.0-0.17,79559,List1A,black,man,,,,null,,,,
null,"<img src=""stim_listA/dance5.gif""style=""height:400px;""></stim_listA>",,html-keyboard-response,99,566096,0.0-13.0-1.17,79559,List1A,black,man,,,,null,,,,
null,is dancing with,,html-keyboard-response,100,568097,0.0-13.0-2.17,79559,List1A,black,man,,,,null,,,,
12161,,,survey-text,101,580259,0.0-13.0-3.17,79559,List1A,black,man,,,,,"{""Q0"":""fred is dancing with dave""}","<img src=""stim_listA/dance5.gif""style=""height:400px;""></stim_listA>",is dancing with,
null,"<div style=""font-size:60px;"">+</div>",,html-keyboard-response,102,580761,0.0-13.0-0.18,79559,List1A,black,man,,,,null,,,,
null,"<img src=""stim_listA/kiss5.gif""style=""height:400px;""></stim_listA>",,html-keyboard-response,103,582763,0.0-13.0-1.18,79559,List1A,black,man,,,,null,,,,
null,is kissing,,html-keyboard-response,104,584765,0.0-13.0-2.18,79559,List1A,black,man,,,,null,,,,
14898,,,survey-text,105,599664,0.0-13.0-3.18,79559,List1A,black,man,,,,,"{""Q0"":""fred is kissing luke""}","<img src=""stim_listA/kiss5.gif""style=""height:400px;""></stim_listA>",is kissing,
null,"<div style=""font-size:60px;"">+</div>",,html-keyboard-response,106,600167,0.0-13.0-0.19,79559,List1A,black,man,,,,null,,,,
null,"<img src=""stim_listA/marry5.gif""style=""height:400px;""></stim_listA>",,html-keyboard-response,107,602170,0.0-13.0-1.19,79559,List1A,black,man,,,,null,,,,
null,is marrying,,html-keyboard-response,108,604173,0.0-13.0-2.19,79559,List1A,black,man,,,,null,,,,
8156,,,survey-text,109,612331,0.0-13.0-3.19,79559,List1A,black,man,,,,,"{""Q0"":""luke is marrying mike""}","<img src=""stim_listA/marry5.gif""style=""height:400px;""></stim_listA>",is marrying,
5806,"<img src='img/portrait_matrix_list1.jpg' style='width:900px;height:500px;''></img><p>If you have memorised all the portraits and names and are ready to start, press Continue.</p><p><strong>Please note: Your memory of these faces will be tested 4 times during this experiment.</strong></p>",0,html-button-response,110,618139,0.0-14.0-0.0,79559,List1A,black,man,,,,,,,,
2196,"<img src=""portrait/WW2.jpg""style=""height:400px;""></img>",3,html-button-response,111,621339,0.0-14.0-1.0,79559,List1A,black,man,,TRUE,3,,,,,
null,CORRECT,,html-keyboard-response,112,622843,0.0-14.0-2.0-0.0,79559,List1A,black,man,,,,null,,,,
1399,"<img src=""portrait/BM1.jpg""style=""height:400px;""></img>",4,html-button-response,113,624243,0.0-14.0-4.0,79559,List1A,black,man,,TRUE,4,,,,,
null,CORRECT,,html-keyboard-response,114,625746,0.0-14.0-5.0-0.0,79559,List1A,black,man,,,,null,,,,
2527,"<img src=""portrait/BM2.jpg""style=""height:400px;""></img>",5,html-button-response,115,628276,0.0-14.0-7.0,79559,List1A,black,man,,TRUE,5,,,,,
null,CORRECT,,html-keyboard-response,116,629780,0.0-14.0-8.0-0.0,79559,List1A,black,man,,,,null,,,,
2574,"<img src=""portrait/WM2.jpg""style=""height:400px;""></img>",7,html-button-response,117,632356,0.0-14.0-10.0,79559,List1A,black,man,,TRUE,7,,,,,
null,CORRECT,,html-keyboard-response,118,633860,0.0-14.0-11.0-0.0,79559,List1A,black,man,,,,null,,,,
5052,"<img src=""portrait/BW1.jpg""style=""height:400px;""></img>",0,html-button-response,119,638914,0.0-14.0-13.0,79559,List1A,black,man,,TRUE,0,,,,,
null,CORRECT,,html-keyboard-response,120,640417,0.0-14.0-14.0-0.0,79559,List1A,black,man,,,,null,,,,
3001,"<img src=""portrait/WW1.jpg""style=""height:400px;""></img>",1,html-button-response,121,643419,0.0-14.0-16.0,79559,List1A,black,man,,TRUE,1,,,,,
null,CORRECT,,html-keyboard-response,122,644922,0.0-14.0-17.0-0.0,79559,List1A,black,man,,,,null,,,,
5722,"<img src=""portrait/WM1.jpg""style=""height:400px;""></img>",6,html-button-response,123,650645,0.0-14.0-19.0,79559,List1A,black,man,,TRUE,6,,,,,
null,CORRECT,,html-keyboard-response,124,652149,0.0-14.0-20.0-0.0,79559,List1A,black,man,,,,null,,,,
7107,"<img src=""portrait/BW2.jpg""style=""height:400px;""></img>",2,html-button-response,125,659258,0.0-14.0-22.0,79559,List1A,black,man,,TRUE,2,,,,,
null,CORRECT,,html-keyboard-response,126,660762,0.0-14.0-23.0-0.0,79559,List1A,black,man,,,,null,,,,
1295,<p>You got 8 out of 8 right first time. Press Continue.</p>,0,html-button-response,127,662057,0.0-14.0-25.0,79559,List1A,black,man,,,,,,,,
null,"<div style=""font-size:60px;"">+</div>",,html-keyboard-response,128,663559,0.0-15.0-0.0,79559,List1A,black,man,,,,null,,,,
null,"<img src=""stim_listA/kiss8.gif""style=""height:400px;""></stim_listA>",,html-keyboard-response,129,665565,0.0-15.0-1.0,79559,List1A,black,man,,,,null,,,,
null,are kissing each other,,html-keyboard-response,130,667568,0.0-15.0-2.0,79559,List1A,black,man,,,,null,,,,
8076,,,survey-text,131,675646,0.0-15.0-3.0,79559,List1A,black,man,,,,,"{""Q0"":""kate and jane are kissing each other""}","<img src=""stim_listA/kiss8.gif""style=""height:400px;""></stim_listA>",are kissing each other,
null,"<div style=""font-size:60px;"">+</div>",,html-keyboard-response,132,676147,0.0-15.0-0.1,79559,List1A,black,man,,,,null,,,,
null,"<img src=""stim_listA/play5.gif""style=""height:400px;""></stim_listA>",,html-keyboard-response,133,678149,0.0-15.0-1.1,79559,List1A,black,man,,,,null,,,,
null,is playing with,,html-keyboard-response,134,680151,0.0-15.0-2.1,79559,List1A,black,man,,,,null,,,,
7240,,,survey-text,135,687393,0.0-15.0-3.1,79559,List1A,black,man,,,,,"{""Q0"":""dave is playing with mike""}","<img src=""stim_listA/play5.gif""style=""height:400px;""></stim_listA>",is playing with,
null,"<div style=""font-size:60px;"">+</div>",,html-keyboard-response,136,687896,0.0-15.0-0.2,79559,List1A,black,man,,,,null,,,,
null,"<img src=""stim_listA/dance8.gif""style=""height:400px;""></stim_listA>",,html-keyboard-response,137,689900,0.0-15.0-1.2,79559,List1A,black,man,,,,null,,,,
null,are dancing with each other,,html-keyboard-response,138,691902,0.0-15.0-2.2,79559,List1A,black,man,,,,null,,,,
17073,,,survey-text,139,708976,0.0-15.0-3.2,79559,List1A,black,man,,,,,"{""Q0"":""kate is dancing with ruth""}","<img src=""stim_listA/dance8.gif""style=""height:400px;""></stim_listA>",are dancing with each other,
null,"<div style=""font-size:60px;"">+</div>",,html-keyboard-response,140,709478,0.0-15.0-0.3,79559,List1A,black,man,,,,null,,,,
null,"<img src=""stim_listA/touch8.gif""style=""height:400px;""></stim_listA>",,html-keyboard-response,141,711480,0.0-15.0-1.3,79559,List1A,black,man,,,,null,,,,
null,are touching each other,,html-keyboard-response,142,713483,0.0-15.0-2.3,79559,List1A,black,man,,,,null,,,,
14447,,,survey-text,143,727931,0.0-15.0-3.3,79559,List1A,black,man,,,,,"{""Q0"":""beth and ruth are touching each other""}","<img src=""stim_listA/touch8.gif""style=""height:400px;""></stim_listA>",are touching each other,
null,"<div style=""font-size:60px;"">+</div>",,html-keyboard-response,144,728433,0.0-15.0-0.4,79559,List1A,black,man,,,,null,,,,
null,"<img src=""stim_listA/talk8.gif""style=""height:400px;""></stim_listA>",,html-keyboard-response,145,730436,0.0-15.0-1.4,79559,List1A,black,man,,,,null,,,,
null,are talking to each other,,html-keyboard-response,146,732439,0.0-15.0-2.4,79559,List1A,black,man,,,,null,,,,
12498,,,survey-text,147,744939,0.0-15.0-3.4,79559,List1A,black,man,,,,,"{""Q0"":""beth and jane are talking""}","<img src=""stim_listA/talk8.gif""style=""height:400px;""></stim_listA>",are talking to each other,
null,"<div style=""font-size:60px;"">+</div>",,html-keyboard-response,148,745442,0.0-15.0-0.5,79559,List1A,black,man,,,,null,,,,
null,"<img src=""stim_listA/argue7.gif""style=""height:400px;""></stim_listA>",,html-keyboard-response,149,747444,0.0-15.0-1.5,79559,List1A,black,man,,,,null,,,,
null,is arguing with,,html-keyboard-response,150,749447,0.0-15.0-2.5,79559,List1A,black,man,,,,null,,,,
7306,,,survey-text,151,756753,0.0-15.0-3.5,79559,List1A,black,man,,,,,"{""Q0"":""beth is arguing with jane""}","<img src=""stim_listA/argue7.gif""style=""height:400px;""></stim_listA>",is arguing with,
null,"<div style=""font-size:60px;"">+</div>",,html-keyboard-response,152,757256,0.0-15.0-0.6,79559,List1A,black,man,,,,null,,,,
null,"<img src=""stim_listA/kiss1.gif""style=""height:400px;""></stim_listA>",,html-keyboard-response,153,759258,0.0-15.0-1.6,79559,List1A,black,man,,,,null,,,,
null,is kissing,,html-keyboard-response,154,761259,0.0-15.0-2.6,79559,List1A,black,man,,,,null,,,,
7730,,,survey-text,155,768991,0.0-15.0-3.6,79559,List1A,black,man,,,,,"{""Q0"":""beth is kissing fred""}","<img src=""stim_listA/kiss1.gif""style=""height:400px;""></stim_listA>",is kissing,
null,"<div style=""font-size:60px;"">+</div>",,html-keyboard-response,156,769493,0.0-15.0-0.7,79559,List1A,black,man,,,,null,,,,
null,"<img src=""stim_listA/flirt6.gif""style=""height:400px;""></stim_listA>",,html-keyboard-response,157,771495,0.0-15.0-1.7,79559,List1A,black,man,,,,null,,,,
null,are flirting with each other,,html-keyboard-response,158,773498,0.0-15.0-2.7,79559,List1A,black,man,,,,null,,,,
10071,,,survey-text,159,783570,0.0-15.0-3.7,79559,List1A,black,man,,,,,"{""Q0"":""luke and mike are flirting with each other""}","<img src=""stim_listA/flirt6.gif""style=""height:400px;""></stim_listA>",are flirting with each other,
null,"<div style=""font-size:60px;"">+</div>",,html-keyboard-response,160,784072,0.0-15.0-0.8,79559,List1A,black,man,,,,null,,,,
null,"<img src=""stim_listA/argue4.gif""style=""height:400px;""></stim_listA>",,html-keyboard-response,161,786075,0.0-15.0-1.8,79559,List1A,black,man,,,,null,,,,
null,are arguing with each other,,html-keyboard-response,162,788077,0.0-15.0-2.8,79559,List1A,black,man,,,,null,,,,
13858,,,survey-text,163,801937,0.0-15.0-3.8,79559,List1A,black,man,,,,,"{""Q0"":""luke and jane are arguing with each other""}","<img src=""stim_listA/argue4.gif""style=""height:400px;""></stim_listA>",are arguing with each other,
null,"<div style=""font-size:60px;"">+</div>",,html-keyboard-response,164,802439,0.0-15.0-0.9,79559,List1A,black,man,,,,null,,,,
null,"<img src=""stim_listA/flirt2.gif""style=""height:400px;""></stim_listA>",,html-keyboard-response,165,804443,0.0-15.0-1.9,79559,List1A,black,man,,,,null,,,,
null,are flirting with each other,,html-keyboard-response,166,806446,0.0-15.0-2.9,79559,List1A,black,man,,,,null,,,,
11794,,,survey-text,167,818243,0.0-15.0-3.9,79559,List1A,black,man,,,,,"{""Q0"":""beth and mike are flirting with each other""}","<img src=""stim_listA/flirt2.gif""style=""height:400px;""></stim_listA>",are flirting with each other,
null,"<div style=""font-size:60px;"">+</div>",,html-keyboard-response,168,818746,0.0-15.0-0.10,79559,List1A,black,man,,,,null,,,,
null,"<img src=""stim_listA/flirt3.gif""style=""height:400px;""></stim_listA>",,html-keyboard-response,169,820748,0.0-15.0-1.10,79559,List1A,black,man,,,,null,,,,
null,is flirting with,,html-keyboard-response,170,822748,0.0-15.0-2.10,79559,List1A,black,man,,,,null,,,,
10507,,,survey-text,171,833258,0.0-15.0-3.10,79559,List1A,black,man,,,,,"{""Q0"":""luke is flirting with ruth""}","<img src=""stim_listA/flirt3.gif""style=""height:400px;""></stim_listA>",is flirting with,
null,"<div style=""font-size:60px;"">+</div>",,html-keyboard-response,172,833760,0.0-15.0-0.11,79559,List1A,black,man,,,,null,,,,
null,"<img src=""stim_listA/touch6.gif""style=""height:400px;""></stim_listA>",,html-keyboard-response,173,835764,0.0-15.0-1.11,79559,List1A,black,man,,,,null,,,,
null,are touching each other,,html-keyboard-response,174,837765,0.0-15.0-2.11,79559,List1A,black,man,,,,null,,,,
8499,,,survey-text,175,846266,0.0-15.0-3.11,79559,List1A,black,man,,,,,"{""Q0"":""luke and fred are touching each other""}","<img src=""stim_listA/touch6.gif""style=""height:400px;""></stim_listA>",are touching each other,
null,"<div style=""font-size:60px;"">+</div>",,html-keyboard-response,176,846769,0.0-15.0-0.12,79559,List1A,black,man,,,,null,,,,
null,"<img src=""stim_listA/touch5.gif""style=""height:400px;""></stim_listA>",,html-keyboard-response,177,848772,0.0-15.0-1.12,79559,List1A,black,man,,,,null,,,,
null,is touching,,html-keyboard-response,178,850773,0.0-15.0-2.12,79559,List1A,black,man,,,,null,,,,
5683,,,survey-text,179,856457,0.0-15.0-3.12,79559,List1A,black,man,,,,,"{""Q0"":""dave is touching mike""}","<img src=""stim_listA/touch5.gif""style=""height:400px;""></stim_listA>",is touching,
null,"<div style=""font-size:60px;"">+</div>",,html-keyboard-response,180,856960,0.0-15.0-0.13,79559,List1A,black,man,,,,null,,,,
null,"<img src=""stim_listA/shout3.gif""style=""height:400px;""></stim_listA>",,html-keyboard-response,181,858961,0.0-15.0-1.13,79559,List1A,black,man,,,,null,,,,
null,is shouting at,,html-keyboard-response,182,860963,0.0-15.0-2.13,79559,List1A,black,man,,,,null,,,,
14953,,,survey-text,183,875916,0.0-15.0-3.13,79559,List1A,black,man,,,,,"{""Q0"":""luke is shouting at ruth, who is shouting back""}","<img src=""stim_listA/shout3.gif""style=""height:400px;""></stim_listA>",is shouting at,
null,"<div style=""font-size:60px;"">+</div>",,html-keyboard-response,184,876418,0.0-15.0-0.14,79559,List1A,black,man,,,,null,,,,
null,"<img src=""stim_listA/talk7.gif""style=""height:400px;""></stim_listA>",,html-keyboard-response,185,878420,0.0-15.0-1.14,79559,List1A,black,man,,,,null,,,,
null,is talking to,,html-keyboard-response,186,880422,0.0-15.0-2.14,79559,List1A,black,man,,,,null,,,,
9397,,,survey-text,187,889821,0.0-15.0-3.14,79559,List1A,black,man,,,,,"{""Q0"":""beth is talking to jane""}","<img src=""stim_listA/talk7.gif""style=""height:400px;""></stim_listA>",is talking to,
null,"<div style=""font-size:60px;"">+</div>",,html-keyboard-response,188,890323,0.0-15.0-0.15,79559,List1A,black,man,,,,null,,,,
null,"<img src=""stim_listA/fight6.gif""style=""height:400px;""></stim_listA>",,html-keyboard-response,189,892325,0.0-15.0-1.15,79559,List1A,black,man,,,,null,,,,
null,are fighting each other,,html-keyboard-response,190,894327,0.0-15.0-2.15,79559,List1A,black,man,,,,null,,,,
12593,,,survey-text,191,906921,0.0-15.0-3.15,79559,List1A,black,man,,,,,"{""Q0"":""luke and fred are fighting each other""}","<img src=""stim_listA/fight6.gif""style=""height:400px;""></stim_listA>",are fighting each other,
null,"<div style=""font-size:60px;"">+</div>",,html-keyboard-response,192,907424,0.0-15.0-0.16,79559,List1A,black,man,,,,null,,,,
null,"<img src=""stim_listA/fight2.gif""style=""height:400px;""></stim_listA>",,html-keyboard-response,193,909428,0.0-15.0-1.16,79559,List1A,black,man,,,,null,,,,
null,are fighting each other,,html-keyboard-response,194,911431,0.0-15.0-2.16,79559,List1A,black,man,,,,null,,,,
14713,,,survey-text,195,926146,0.0-15.0-3.16,79559,List1A,black,man,,,,,"{""Q0"":""beth and fred are fighting each other""}","<img src=""stim_listA/fight2.gif""style=""height:400px;""></stim_listA>",are fighting each other,
null,"<div style=""font-size:60px;"">+</div>",,html-keyboard-response,196,926648,0.0-15.0-0.17,79559,List1A,black,man,,,,null,,,,
null,"<img src=""stim_listA/marry8.gif""style=""height:400px;""></stim_listA>",,html-keyboard-response,197,928651,0.0-15.0-1.17,79559,List1A,black,man,,,,null,,,,
null,are marrying each other,,html-keyboard-response,198,930653,0.0-15.0-2.17,79559,List1A,black,man,,,,null,,,,
10138,,,survey-text,199,940793,0.0-15.0-3.17,79559,List1A,black,man,,,,,"{""Q0"":""beth and jane are marrying each other""}","<img src=""stim_listA/marry8.gif""style=""height:400px;""></stim_listA>",are marrying each other,
null,"<div style=""font-size:60px;"">+</div>",,html-keyboard-response,200,941294,0.0-15.0-0.18,79559,List1A,black,man,,,,null,,,,
null,"<img src=""stim_listA/argue5.gif""style=""height:400px;""></stim_listA>",,html-keyboard-response,201,943297,0.0-15.0-1.18,79559,List1A,black,man,,,,null,,,,
null,is arguing with,,html-keyboard-response,202,945298,0.0-15.0-2.18,79559,List1A,black,man,,,,null,,,,
13363,,,survey-text,203,958663,0.0-15.0-3.18,79559,List1A,black,man,,,,,"{""Q0"":""luke is arguing with mike""}","<img src=""stim_listA/argue5.gif""style=""height:400px;""></stim_listA>",is arguing with,
null,"<div style=""font-size:60px;"">+</div>",,html-keyboard-response,204,959165,0.0-15.0-0.19,79559,List1A,black,man,,,,null,,,,
null,"<img src=""stim_listA/play8.gif""style=""height:400px;""></stim_listA>",,html-keyboard-response,205,961167,0.0-15.0-1.19,79559,List1A,black,man,,,,null,,,,
null,are playing with each other,,html-keyboard-response,206,963170,0.0-15.0-2.19,79559,List1A,black,man,,,,null,,,,
11986,,,survey-text,207,975157,0.0-15.0-3.19,79559,List1A,black,man,,,,,"{""Q0"":""ruth and beth are playing with each other""}","<img src=""stim_listA/play8.gif""style=""height:400px;""></stim_listA>",are playing with each other,
2340,"<img src='img/portrait_matrix_list1.jpg' style='width:900px;height:500px;''></img><p>If you have memorised all the portraits and names and are ready to start, press Continue.</p><p><strong>Please note: Your memory of these faces will be tested 4 times during this experiment.</strong></p>",0,html-button-response,208,977498,0.0-16.0-0.0,79559,List1A,black,man,,,,,,,,
1951,"<img src=""portrait/BW2.jpg""style=""height:400px;""></img>",2,html-button-response,209,980452,0.0-16.0-1.0,79559,List1A,black,man,,TRUE,2,,,,,
null,CORRECT,,html-keyboard-response,210,981955,0.0-16.0-2.0-0.0,79559,List1A,black,man,,,,null,,,,
1271,"<img src=""portrait/WW2.jpg""style=""height:400px;""></img>",3,html-button-response,211,983228,0.0-16.0-4.0,79559,List1A,black,man,,TRUE,3,,,,,
null,CORRECT,,html-keyboard-response,212,984731,0.0-16.0-5.0-0.0,79559,List1A,black,man,,,,null,,,,
2399,"<img src=""portrait/BM2.jpg""style=""height:400px;""></img>",5,html-button-response,213,987131,0.0-16.0-7.0,79559,List1A,black,man,,TRUE,5,,,,,
null,CORRECT,,html-keyboard-response,214,988635,0.0-16.0-8.0-0.0,79559,List1A,black,man,,,,null,,,,
1306,"<img src=""portrait/BM1.jpg""style=""height:400px;""></img>",4,html-button-response,215,989942,0.0-16.0-10.0,79559,List1A,black,man,,TRUE,4,,,,,
null,CORRECT,,html-keyboard-response,216,991446,0.0-16.0-11.0-0.0,79559,List1A,black,man,,,,null,,,,
1576,"<img src=""portrait/WM2.jpg""style=""height:400px;""></img>",7,html-button-response,217,993024,0.0-16.0-13.0,79559,List1A,black,man,,TRUE,7,,,,,
null,CORRECT,,html-keyboard-response,218,994526,0.0-16.0-14.0-0.0,79559,List1A,black,man,,,,null,,,,
3468,"<img src=""portrait/WM1.jpg""style=""height:400px;""></img>",6,html-button-response,219,997996,0.0-16.0-16.0,79559,List1A,black,man,,TRUE,6,,,,,
null,CORRECT,,html-keyboard-response,220,999499,0.0-16.0-17.0-0.0,79559,List1A,black,man,,,,null,,,,
1791,"<img src=""portrait/BW1.jpg""style=""height:400px;""></img>",0,html-button-response,221,1001293,0.0-16.0-19.0,79559,List1A,black,man,,TRUE,0,,,,,
null,CORRECT,,html-keyboard-response,222,1002796,0.0-16.0-20.0-0.0,79559,List1A,black,man,,,,null,,,,
1128,"<img src=""portrait/WW1.jpg""style=""height:400px;""></img>",1,html-button-response,223,1003927,0.0-16.0-22.0,79559,List1A,black,man,,TRUE,1,,,,,
null,CORRECT,,html-keyboard-response,224,1005431,0.0-16.0-23.0-0.0,79559,List1A,black,man,,,,null,,,,
1122,<p>You got 8 out of 8 right first time. Press Continue.</p>,0,html-button-response,225,1006556,0.0-16.0-25.0,79559,List1A,black,man,,,,,,,,
null,"<div style=""font-size:60px;"">+</div>",,html-keyboard-response,226,1008059,0.0-17.0-0.0,79559,List1A,black,man,,,,null,,,,
null,"<img src=""stim_listA/talk6.gif""style=""height:400px;""></stim_listA>",,html-keyboard-response,227,1010062,0.0-17.0-1.0,79559,List1A,black,man,,,,null,,,,
null,are talking to each other,,html-keyboard-response,228,1012064,0.0-17.0-2.0,79559,List1A,black,man,,,,null,,,,
8900,,,survey-text,229,1020966,0.0-17.0-3.0,79559,List1A,black,man,,,,,"{""Q0"":""luke and mike are talking to each other""}","<img src=""stim_listA/talk6.gif""style=""height:400px;""></stim_listA>",are talking to each other,
null,"<div style=""font-size:60px;"">+</div>",,html-keyboard-response,230,1021468,0.0-17.0-0.1,79559,List1A,black,man,,,,null,,,,
null,"<img src=""stim_listA/talk5.gif""style=""height:400px;""></stim_listA>",,html-keyboard-response,231,1023470,0.0-17.0-1.1,79559,List1A,black,man,,,,null,,,,
null,is talking to,,html-keyboard-response,232,1025473,0.0-17.0-2.1,79559,List1A,black,man,,,,null,,,,
6317,,,survey-text,233,1031793,0.0-17.0-3.1,79559,List1A,black,man,,,,,"{""Q0"":""dave is talking to fred""}","<img src=""stim_listA/talk5.gif""style=""height:400px;""></stim_listA>",is talking to,
null,"<div style=""font-size:60px;"">+</div>",,html-keyboard-response,234,1032295,0.0-17.0-0.2,79559,List1A,black,man,,,,null,,,,
null,"<img src=""stim_listA/dance7.gif""style=""height:400px;""></stim_listA>",,html-keyboard-response,235,1034297,0.0-17.0-1.2,79559,List1A,black,man,,,,null,,,,
null,is dancing with,,html-keyboard-response,236,1036299,0.0-17.0-2.2,79559,List1A,black,man,,,,null,,,,
13684,,,survey-text,237,1049983,0.0-17.0-3.2,79559,List1A,black,man,,,,,"{""Q0"":""beth is dancing with jane""}","<img src=""stim_listA/dance7.gif""style=""height:400px;""></stim_listA>",is dancing with,
null,"<div style=""font-size:60px;"">+</div>",,html-keyboard-response,238,1050485,0.0-17.0-0.3,79559,List1A,black,man,,,,null,,,,
null,"<img src=""stim_listA/play2.gif""style=""height:400px;""></stim_listA>",,html-keyboard-response,239,1052489,0.0-17.0-1.3,79559,List1A,black,man,,,,null,,,,
null,are playing with each other,,html-keyboard-response,240,1054490,0.0-17.0-2.3,79559,List1A,black,man,,,,null,,,,
11818,,,survey-text,241,1066309,0.0-17.0-3.3,79559,List1A,black,man,,,,,"{""Q0"":""beth and fred are playing with each other""}","<img src=""stim_listA/play2.gif""style=""height:400px;""></stim_listA>",are playing with each other,
null,"<div style=""font-size:60px;"">+</div>",,html-keyboard-response,242,1066811,0.0-17.0-0.4,79559,List1A,black,man,,,,null,,,,
null,"<img src=""stim_listA/kiss2.gif""style=""height:400px;""></stim_listA>",,html-keyboard-response,243,1068813,0.0-17.0-1.4,79559,List1A,black,man,,,,null,,,,
null,are kissing each other,,html-keyboard-response,244,1070815,0.0-17.0-2.4,79559,List1A,black,man,,,,null,,,,
11180,,,survey-text,245,1081996,0.0-17.0-3.4,79559,List1A,black,man,,,,,"{""Q0"":""beth and mike are playing with each other""}","<img src=""stim_listA/kiss2.gif""style=""height:400px;""></stim_listA>",are kissing each other,
null,"<div style=""font-size:60px;"">+</div>",,html-keyboard-response,246,1082499,0.0-17.0-0.5,79559,List1A,black,man,,,,null,,,,
null,"<img src=""stim_listA/shout2.gif""style=""height:400px;""></stim_listA>",,html-keyboard-response,247,1084500,0.0-17.0-1.5,79559,List1A,black,man,,,,null,,,,
null,are shouting at each other,,html-keyboard-response,248,1086502,0.0-17.0-2.5,79559,List1A,black,man,,,,null,,,,
8938,,,survey-text,249,1095443,0.0-17.0-3.5,79559,List1A,black,man,,,,,"{""Q0"":""kate and mike are shouting at each other""}","<img src=""stim_listA/shout2.gif""style=""height:400px;""></stim_listA>",are shouting at each other,
null,"<div style=""font-size:60px;"">+</div>",,html-keyboard-response,250,1095944,0.0-17.0-0.6,79559,List1A,black,man,,,,null,,,,
null,"<img src=""stim_listA/touch1.gif""style=""height:400px;""></stim_listA>",,html-keyboard-response,251,1097947,0.0-17.0-1.6,79559,List1A,black,man,,,,null,,,,
null,is touching,,html-keyboard-response,252,1099950,0.0-17.0-2.6,79559,List1A,black,man,,,,null,,,,
11469,,,survey-text,253,1111421,0.0-17.0-3.6,79559,List1A,black,man,,,,,"{""Q0"":""mike is touching kate""}","<img src=""stim_listA/touch1.gif""style=""height:400px;""></stim_listA>",is touching,
null,"<div style=""font-size:60px;"">+</div>",,html-keyboard-response,254,1111922,0.0-17.0-0.7,79559,List1A,black,man,,,,null,,,,
null,"<img src=""stim_listA/flirt4.gif""style=""height:400px;""></stim_listA>",,html-keyboard-response,255,1113924,0.0-17.0-1.7,79559,List1A,black,man,,,,null,,,,
null,are flirting with each other,,html-keyboard-response,256,1115925,0.0-17.0-2.7,79559,List1A,black,man,,,,null,,,,
9784,,,survey-text,257,1125709,0.0-17.0-3.7,79559,List1A,black,man,,,,,"{""Q0"":""dave and ruth are flirting with each other""}","<img src=""stim_listA/flirt4.gif""style=""height:400px;""></stim_listA>",are flirting with each other,
null,"<div style=""font-size:60px;"">+</div>",,html-keyboard-response,258,1126211,0.0-17.0-0.8,79559,List1A,black,man,,,,null,,,,
null,"<img src=""stim_listA/shout6.gif""style=""height:400px;""></stim_listA>",,html-keyboard-response,259,1128213,0.0-17.0-1.8,79559,List1A,black,man,,,,null,,,,
null,are shouting at each other,,html-keyboard-response,260,1130217,0.0-17.0-2.8,79559,List1A,black,man,,,,null,,,,
16099,,,survey-text,261,1146317,0.0-17.0-3.8,79559,List1A,black,man,,,,,"{""Q0"":""dave and mike are shouting at each other""}","<img src=""stim_listA/shout6.gif""style=""height:400px;""></stim_listA>",are shouting at each other,
null,"<div style=""font-size:60px;"">+</div>",,html-keyboard-response,262,1146818,0.0-17.0-0.9,79559,List1A,black,man,,,,null,,,,
null,"<img src=""stim_listA/dance4.gif""style=""height:400px;""></stim_listA>",,html-keyboard-response,263,1148820,0.0-17.0-1.9,79559,List1A,black,man,,,,null,,,,
null,are dancing with each other,,html-keyboard-response,264,1150823,0.0-17.0-2.9,79559,List1A,black,man,,,,null,,,,
10634,,,survey-text,265,1161458,0.0-17.0-3.9,79559,List1A,black,man,,,,,"{""Q0"":""fred and ruth are dancing with each other""}","<img src=""stim_listA/dance4.gif""style=""height:400px;""></stim_listA>",are dancing with each other,
null,"<div style=""font-size:60px;"">+</div>",,html-keyboard-response,266,1161961,0.0-17.0-0.10,79559,List1A,black,man,,,,null,,,,
null,"<img src=""stim_listA/marry7.gif""style=""height:400px;""></stim_listA>",,html-keyboard-response,267,1163963,0.0-17.0-1.10,79559,List1A,black,man,,,,null,,,,
null,is marrying,,html-keyboard-response,268,1165966,0.0-17.0-2.10,79559,List1A,black,man,,,,null,,,,
5679,,,survey-text,269,1171646,0.0-17.0-3.10,79559,List1A,black,man,,,,,"{""Q0"":""ruth is marrying kate""}","<img src=""stim_listA/marry7.gif""style=""height:400px;""></stim_listA>",is marrying,
null,"<div style=""font-size:60px;"">+</div>",,html-keyboard-response,270,1172149,0.0-17.0-0.11,79559,List1A,black,man,,,,null,,,,
null,"<img src=""stim_listA/play3.gif""style=""height:400px;""></stim_listA>",,html-keyboard-response,271,1174153,0.0-17.0-1.11,79559,List1A,black,man,,,,null,,,,
null,is playing with,,html-keyboard-response,272,1176156,0.0-17.0-2.11,79559,List1A,black,man,,,,null,,,,
5982,,,survey-text,273,1182140,0.0-17.0-3.11,79559,List1A,black,man,,,,,"{""Q0"":""jane is playing with fred""}","<img src=""stim_listA/play3.gif""style=""height:400px;""></stim_listA>",is playing with,
null,"<div style=""font-size:60px;"">+</div>",,html-keyboard-response,274,1182642,0.0-17.0-0.12,79559,List1A,black,man,,,,null,,,,
null,"<img src=""stim_listA/shout1.gif""style=""height:400px;""></stim_listA>",,html-keyboard-response,275,1184645,0.0-17.0-1.12,79559,List1A,black,man,,,,null,,,,
null,is shouting at,,html-keyboard-response,276,1186648,0.0-17.0-2.12,79559,List1A,black,man,,,,null,,,,
5373,,,survey-text,277,1192022,0.0-17.0-3.12,79559,List1A,black,man,,,,,"{""Q0"":""beth is shouting at fred""}","<img src=""stim_listA/shout1.gif""style=""height:400px;""></stim_listA>",is shouting at,
null,"<div style=""font-size:60px;"">+</div>",,html-keyboard-response,278,1192524,0.0-17.0-0.13,79559,List1A,black,man,,,,null,,,,
null,"<img src=""stim_listA/fight1.gif""style=""height:400px;""></stim_listA>",,html-keyboard-response,279,1194528,0.0-17.0-1.13,79559,List1A,black,man,,,,null,,,,
null,is fighting,,html-keyboard-response,280,1196531,0.0-17.0-2.13,79559,List1A,black,man,,,,null,,,,
6640,,,survey-text,281,1203173,0.0-17.0-3.13,79559,List1A,black,man,,,,,"{""Q0"":""kate is fighting mike""}","<img src=""stim_listA/fight1.gif""style=""height:400px;""></stim_listA>",is fighting,
null,"<div style=""font-size:60px;"">+</div>",,html-keyboard-response,282,1203674,0.0-17.0-0.14,79559,List1A,black,man,,,,null,,,,
null,"<img src=""stim_listA/play4.gif""style=""height:400px;""></stim_listA>",,html-keyboard-response,283,1205677,0.0-17.0-1.14,79559,List1A,black,man,,,,null,,,,
null,are playing with each other,,html-keyboard-response,284,1207679,0.0-17.0-2.14,79559,List1A,black,man,,,,null,,,,
9526,,,survey-text,285,1217206,0.0-17.0-3.14,79559,List1A,black,man,,,,,"{""Q0"":""luke and ruth are playing with each other""}","<img src=""stim_listA/play4.gif""style=""height:400px;""></stim_listA>",are playing with each other,
null,"<div style=""font-size:60px;"">+</div>",,html-keyboard-response,286,1217707,0.0-17.0-0.15,79559,List1A,black,man,,,,null,,,,
null,"<img src=""stim_listA/marry2.gif""style=""height:400px;""></stim_listA>",,html-keyboard-response,287,1219710,0.0-17.0-1.15,79559,List1A,black,man,,,,null,,,,
null,are marrying each other,,html-keyboard-response,288,1221713,0.0-17.0-2.15,79559,List1A,black,man,,,,null,,,,
9254,,,survey-text,289,1230970,0.0-17.0-3.15,79559,List1A,black,man,,,,,"{""Q0"":""kate and fred are marrying each other""}","<img src=""stim_listA/marry2.gif""style=""height:400px;""></stim_listA>",are marrying each other,
null,"<div style=""font-size:60px;"">+</div>",,html-keyboard-response,290,1231471,0.0-17.0-0.16,79559,List1A,black,man,,,,null,,,,
null,"<img src=""stim_listA/talk2.gif""style=""height:400px;""></stim_listA>",,html-keyboard-response,291,1233473,0.0-17.0-1.16,79559,List1A,black,man,,,,null,,,,
null,are talking to each other,,html-keyboard-response,292,1235475,0.0-17.0-2.16,79559,List1A,black,man,,,,null,,,,
7882,,,survey-text,293,1243359,0.0-17.0-3.16,79559,List1A,black,man,,,,,"{""Q0"":""beth and mike are talking to each other""}","<img src=""stim_listA/talk2.gif""style=""height:400px;""></stim_listA>",are talking to each other,
null,"<div style=""font-size:60px;"">+</div>",,html-keyboard-response,294,1243861,0.0-17.0-0.17,79559,List1A,black,man,,,,null,,,,
null,"<img src=""stim_listA/fight3.gif""style=""height:400px;""></stim_listA>",,html-keyboard-response,295,1245866,0.0-17.0-1.17,79559,List1A,black,man,,,,null,,,,
null,is fighting,,html-keyboard-response,296,1247869,0.0-17.0-2.17,79559,List1A,black,man,,,,null,,,,
5775,,,survey-text,297,1253645,0.0-17.0-3.17,79559,List1A,black,man,,,,,"{""Q0"":""dave is fighting jane""}","<img src=""stim_listA/fight3.gif""style=""height:400px;""></stim_listA>",is fighting,
null,"<div style=""font-size:60px;"">+</div>",,html-keyboard-response,298,1254148,0.0-17.0-0.18,79559,List1A,black,man,,,,null,,,,
null,"<img src=""stim_listA/dance6.gif""style=""height:400px;""></stim_listA>",,html-keyboard-response,299,1256151,0.0-17.0-1.18,79559,List1A,black,man,,,,null,,,,
null,are dancing with each other,,html-keyboard-response,300,1258154,0.0-17.0-2.18,79559,List1A,black,man,,,,null,,,,
11194,,,survey-text,301,1269349,0.0-17.0-3.18,79559,List1A,black,man,,,,,"{""Q0"":""luke and mike are dancing with each other""}","<img src=""stim_listA/dance6.gif""style=""height:400px;""></stim_listA>",are dancing with each other,
null,"<div style=""font-size:60px;"">+</div>",,html-keyboard-response,302,1269851,0.0-17.0-0.19,79559,List1A,black,man,,,,null,,,,
null,"<img src=""stim_listA/marry4.gif""style=""height:400px;""></stim_listA>",,html-keyboard-response,303,1271854,0.0-17.0-1.19,79559,List1A,black,man,,,,null,,,,
null,are marrying each other,,html-keyboard-response,304,1273857,0.0-17.0-2.19,79559,List1A,black,man,,,,null,,,,
9653,,,survey-text,305,1283511,0.0-17.0-3.19,79559,List1A,black,man,,,,,"{""Q0"":""luke and jane are marrying each other""}","<img src=""stim_listA/marry4.gif""style=""height:400px;""></stim_listA>",are marrying each other,
2181,"<img src='img/portrait_matrix_list1.jpg' style='width:900px;height:500px;''></img><p>If you have memorised all the portraits and names and are ready to start, press Continue.</p><p><strong>Please note: Your memory of these faces will be tested 4 times during this experiment.</strong></p>",0,html-button-response,306,1285694,0.0-18.0-0.0,79559,List1A,black,man,,,,,,,,
2949,"<img src=""portrait/WM2.jpg""style=""height:400px;""></img>",7,html-button-response,307,1289645,0.0-18.0-1.0,79559,List1A,black,man,,TRUE,7,,,,,
null,CORRECT,,html-keyboard-response,308,1291149,0.0-18.0-2.0-0.0,79559,List1A,black,man,,,,null,,,,
1920,"<img src=""portrait/BM2.jpg""style=""height:400px;""></img>",5,html-button-response,309,1293071,0.0-18.0-4.0,79559,List1A,black,man,,TRUE,5,,,,,
null,CORRECT,,html-keyboard-response,310,1294575,0.0-18.0-5.0-0.0,79559,List1A,black,man,,,,null,,,,
1523,"<img src=""portrait/BM1.jpg""style=""height:400px;""></img>",4,html-button-response,311,1296101,0.0-18.0-7.0,79559,List1A,black,man,,TRUE,4,,,,,
null,CORRECT,,html-keyboard-response,312,1297603,0.0-18.0-8.0-0.0,79559,List1A,black,man,,,,null,,,,
2042,"<img src=""portrait/WW2.jpg""style=""height:400px;""></img>",3,html-button-response,313,1299647,0.0-18.0-10.0,79559,List1A,black,man,,TRUE,3,,,,,
null,CORRECT,,html-keyboard-response,314,1301150,0.0-18.0-11.0-0.0,79559,List1A,black,man,,,,null,,,,
4316,"<img src=""portrait/WM1.jpg""style=""height:400px;""></img>",6,html-button-response,315,1305468,0.0-18.0-13.0,79559,List1A,black,man,,TRUE,6,,,,,
null,CORRECT,,html-keyboard-response,316,1306973,0.0-18.0-14.0-0.0,79559,List1A,black,man,,,,null,,,,
1978,"<img src=""portrait/WW1.jpg""style=""height:400px;""></img>",1,html-button-response,317,1308953,0.0-18.0-16.0,79559,List1A,black,man,,TRUE,1,,,,,
null,CORRECT,,html-keyboard-response,318,1310457,0.0-18.0-17.0-0.0,79559,List1A,black,man,,,,null,,,,
1413,"<img src=""portrait/BW2.jpg""style=""height:400px;""></img>",2,html-button-response,319,1311872,0.0-18.0-19.0,79559,List1A,black,man,,TRUE,2,,,,,
null,CORRECT,,html-keyboard-response,320,1313377,0.0-18.0-20.0-0.0,79559,List1A,black,man,,,,null,,,,
1303,"<img src=""portrait/BW1.jpg""style=""height:400px;""></img>",0,html-button-response,321,1314681,0.0-18.0-22.0,79559,List1A,black,man,,TRUE,0,,,,,
null,CORRECT,,html-keyboard-response,322,1316197,0.0-18.0-23.0-0.0,79559,List1A,black,man,,,,null,,,,
1302,<p>You got 8 out of 8 right first time. Press Continue.</p>,0,html-button-response,323,1317502,0.0-18.0-25.0,79559,List1A,black,man,,,,,,,,
null,"<div style=""font-size:60px;"">+</div>",,html-keyboard-response,324,1319008,0.0-19.0-0.0,79559,List1A,black,man,,,,null,,,,
null,"<img src=""stim_listA/touch3.gif""style=""height:400px;""></stim_listA>",,html-keyboard-response,325,1321011,0.0-19.0-1.0,79559,List1A,black,man,,,,null,,,,
null,is touching,,html-keyboard-response,326,1323013,0.0-19.0-2.0,79559,List1A,black,man,,,,null,,,,
6628,,,survey-text,327,1329644,0.0-19.0-3.0,79559,List1A,black,man,,,,,"{""Q0"":""jane is touching dave""}","<img src=""stim_listA/touch3.gif""style=""height:400px;""></stim_listA>",is touching,
null,"<div style=""font-size:60px;"">+</div>",,html-keyboard-response,328,1330147,0.0-19.0-0.1,79559,List1A,black,man,,,,null,,,,
null,"<img src=""stim_listA/marry6.gif""style=""height:400px;""></stim_listA>",,html-keyboard-response,329,1332151,0.0-19.0-1.1,79559,List1A,black,man,,,,null,,,,
null,are marrying each other,,html-keyboard-response,330,1334154,0.0-19.0-2.1,79559,List1A,black,man,,,,null,,,,
7709,,,survey-text,331,1341865,0.0-19.0-3.1,79559,List1A,black,man,,,,,"{""Q0"":""dave and fred are marrying each other""}","<img src=""stim_listA/marry6.gif""style=""height:400px;""></stim_listA>",are marrying each other,
null,"<div style=""font-size:60px;"">+</div>",,html-keyboard-response,332,1342367,0.0-19.0-0.2,79559,List1A,black,man,,,,null,,,,
null,"<img src=""stim_listA/flirt1.gif""style=""height:400px;""></stim_listA>",,html-keyboard-response,333,1344370,0.0-19.0-1.2,79559,List1A,black,man,,,,null,,,,
null,is flirting with,,html-keyboard-response,334,1346373,0.0-19.0-2.2,79559,List1A,black,man,,,,null,,,,
17360,,,survey-text,335,1363735,0.0-19.0-3.2,79559,List1A,black,man,,,,,"{""Q0"":""kate and fred are flirting with each other""}","<img src=""stim_listA/flirt1.gif""style=""height:400px;""></stim_listA>",is flirting with,
null,"<div style=""font-size:60px;"">+</div>",,html-keyboard-response,336,1364238,0.0-19.0-0.3,79559,List1A,black,man,,,,null,,,,
null,"<img src=""stim_listA/kiss7.gif""style=""height:400px;""></stim_listA>",,html-keyboard-response,337,1366243,0.0-19.0-1.3,79559,List1A,black,man,,,,null,,,,
null,is kissing,,html-keyboard-response,338,1368246,0.0-19.0-2.3,79559,List1A,black,man,,,,null,,,,
4657,,,survey-text,339,1372904,0.0-19.0-3.3,79559,List1A,black,man,,,,,"{""Q0"":""ruth is kissing beth""}","<img src=""stim_listA/kiss7.gif""style=""height:400px;""></stim_listA>",is kissing,
null,"<div style=""font-size:60px;"">+</div>",,html-keyboard-response,340,1373405,0.0-19.0-0.4,79559,List1A,black,man,,,,null,,,,
null,"<img src=""stim_listA/flirt5.gif""style=""height:400px;""></stim_listA>",,html-keyboard-response,341,1375409,0.0-19.0-1.4,79559,List1A,black,man,,,,null,,,,
null,is flirting with,,html-keyboard-response,342,1377411,0.0-19.0-2.4,79559,List1A,black,man,,,,null,,,,
8524,,,survey-text,343,1385937,0.0-19.0-3.4,79559,List1A,black,man,,,,,"{""Q0"":""fred is flirting with dave""}","<img src=""stim_listA/flirt5.gif""style=""height:400px;""></stim_listA>",is flirting with,
null,"<div style=""font-size:60px;"">+</div>",,html-keyboard-response,344,1386438,0.0-19.0-0.5,79559,List1A,black,man,,,,null,,,,
null,"<img src=""stim_listA/argue1.gif""style=""height:400px;""></stim_listA>",,html-keyboard-response,345,1388441,0.0-19.0-1.5,79559,List1A,black,man,,,,null,,,,
null,is arguing with,,html-keyboard-response,346,1390442,0.0-19.0-2.5,79559,List1A,black,man,,,,null,,,,
8365,,,survey-text,347,1398809,0.0-19.0-3.5,79559,List1A,black,man,,,,,"{""Q0"":""beth is arguing with mike""}","<img src=""stim_listA/argue1.gif""style=""height:400px;""></stim_listA>",is arguing with,
null,"<div style=""font-size:60px;"">+</div>",,html-keyboard-response,348,1399311,0.0-19.0-0.6,79559,List1A,black,man,,,,null,,,,
null,"<img src=""stim_listA/argue8.gif""style=""height:400px;""></stim_listA>",,html-keyboard-response,349,1401313,0.0-19.0-1.6,79559,List1A,black,man,,,,null,,,,
null,are arguing with each other,,html-keyboard-response,350,1403314,0.0-19.0-2.6,79559,List1A,black,man,,,,null,,,,
7852,,,survey-text,351,1411168,0.0-19.0-3.6,79559,List1A,black,man,,,,,"{""Q0"":""jane and beth are arguing with each other""}","<img src=""stim_listA/argue8.gif""style=""height:400px;""></stim_listA>",are arguing with each other,
null,"<div style=""font-size:60px;"">+</div>",,html-keyboard-response,352,1411669,0.0-19.0-0.7,79559,List1A,black,man,,,,null,,,,
null,"<img src=""stim_listA/touch2.gif""style=""height:400px;""></stim_listA>",,html-keyboard-response,353,1413673,0.0-19.0-1.7,79559,List1A,black,man,,,,null,,,,
null,are touching each other,,html-keyboard-response,354,1415674,0.0-19.0-2.7,79559,List1A,black,man,,,,null,,,,
7868,,,survey-text,355,1423544,0.0-19.0-3.7,79559,List1A,black,man,,,,,"{""Q0"":""beth and fred are touching each other""}","<img src=""stim_listA/touch2.gif""style=""height:400px;""></stim_listA>",are touching each other,
null,"<div style=""font-size:60px;"">+</div>",,html-keyboard-response,356,1424045,0.0-19.0-0.8,79559,List1A,black,man,,,,null,,,,
null,"<img src=""stim_listA/dance3.gif""style=""height:400px;""></stim_listA>",,html-keyboard-response,357,1426049,0.0-19.0-1.8,79559,List1A,black,man,,,,null,,,,
null,is dancing with,,html-keyboard-response,358,1428052,0.0-19.0-2.8,79559,List1A,black,man,,,,null,,,,
8455,,,survey-text,359,1436508,0.0-19.0-3.8,79559,List1A,black,man,,,,,"{""Q0"":""luke is dancing with jane""}","<img src=""stim_listA/dance3.gif""style=""height:400px;""></stim_listA>",is dancing with,
null,"<div style=""font-size:60px;"">+</div>",,html-keyboard-response,360,1437011,0.0-19.0-0.9,79559,List1A,black,man,,,,null,,,,
null,"<img src=""stim_listA/talk1.gif""style=""height:400px;""></stim_listA>",,html-keyboard-response,361,1439013,0.0-19.0-1.9,79559,List1A,black,man,,,,null,,,,
null,is talking to,,html-keyboard-response,362,1441015,0.0-19.0-2.9,79559,List1A,black,man,,,,null,,,,
5343,,,survey-text,363,1446360,0.0-19.0-3.9,79559,List1A,black,man,,,,,"{""Q0"":""beth is talking to fred""}","<img src=""stim_listA/talk1.gif""style=""height:400px;""></stim_listA>",is talking to,
null,"<div style=""font-size:60px;"">+</div>",,html-keyboard-response,364,1446862,0.0-19.0-0.10,79559,List1A,black,man,,,,null,,,,
null,"<img src=""stim_listA/kiss6.gif""style=""height:400px;""></stim_listA>",,html-keyboard-response,365,1448865,0.0-19.0-1.10,79559,List1A,black,man,,,,null,,,,
null,are kissing each other,,html-keyboard-response,366,1450868,0.0-19.0-2.10,79559,List1A,black,man,,,,null,,,,
7833,,,survey-text,367,1458702,0.0-19.0-3.10,79559,List1A,black,man,,,,,"{""Q0"":""mike and dave are kissing each other""}","<img src=""stim_listA/kiss6.gif""style=""height:400px;""></stim_listA>",are kissing each other,
null,"<div style=""font-size:60px;"">+</div>",,html-keyboard-response,368,1459203,0.0-19.0-0.11,79559,List1A,black,man,,,,null,,,,
null,"<img src=""stim_listA/flirt7.gif""style=""height:400px;""></stim_listA>",,html-keyboard-response,369,1461207,0.0-19.0-1.11,79559,List1A,black,man,,,,null,,,,
null,is flirting with,,html-keyboard-response,370,1463210,0.0-19.0-2.11,79559,List1A,black,man,,,,null,,,,
10685,,,survey-text,371,1473897,0.0-19.0-3.11,79559,List1A,black,man,,,,,"{""Q0"":""beth is flirting with jane""}","<img src=""stim_listA/flirt7.gif""style=""height:400px;""></stim_listA>",is flirting with,
null,"<div style=""font-size:60px;"">+</div>",,html-keyboard-response,372,1474399,0.0-19.0-0.12,79559,List1A,black,man,,,,null,,,,
null,"<img src=""stim_listA/shout4.gif""style=""height:400px;""></stim_listA>",,html-keyboard-response,373,1476401,0.0-19.0-1.12,79559,List1A,black,man,,,,null,,,,
null,are shouting at each other,,html-keyboard-response,374,1478403,0.0-19.0-2.12,79559,List1A,black,man,,,,null,,,,
11103,,,survey-text,375,1489508,0.0-19.0-3.12,79559,List1A,black,man,,,,,"{""Q0"":""dave and jane are shouting at each other""}","<img src=""stim_listA/shout4.gif""style=""height:400px;""></stim_listA>",are shouting at each other,
null,"<div style=""font-size:60px;"">+</div>",,html-keyboard-response,376,1490009,0.0-19.0-0.13,79559,List1A,black,man,,,,null,,,,
null,"<img src=""stim_listA/talk4.gif""style=""height:400px;""></stim_listA>",,html-keyboard-response,377,1492012,0.0-19.0-1.13,79559,List1A,black,man,,,,null,,,,
null,are talking to each other,,html-keyboard-response,378,1494014,0.0-19.0-2.13,79559,List1A,black,man,,,,null,,,,
6486,,,survey-text,379,1500502,0.0-19.0-3.13,79559,List1A,black,man,,,,,"{""Q0"":""dave and ruth are talking to each other""}","<img src=""stim_listA/talk4.gif""style=""height:400px;""></stim_listA>",are talking to each other,
null,"<div style=""font-size:60px;"">+</div>",,html-keyboard-response,380,1501005,0.0-19.0-0.14,79559,List1A,black,man,,,,null,,,,
null,"<img src=""stim_listA/flirt8.gif""style=""height:400px;""></stim_listA>",,html-keyboard-response,381,1503007,0.0-19.0-1.14,79559,List1A,black,man,,,,null,,,,
null,are flirting with each other,,html-keyboard-response,382,1505009,0.0-19.0-2.14,79559,List1A,black,man,,,,null,,,,
9640,,,survey-text,383,1514651,0.0-19.0-3.14,79559,List1A,black,man,,,,,"{""Q0"":""ruth and kate are flirting with each other""}","<img src=""stim_listA/flirt8.gif""style=""height:400px;""></stim_listA>",are flirting with each other,
null,"<div style=""font-size:60px;"">+</div>",,html-keyboard-response,384,1515152,0.0-19.0-0.15,79559,List1A,black,man,,,,null,,,,
null,"<img src=""stim_listA/argue6.gif""style=""height:400px;""></stim_listA>",,html-keyboard-response,385,1517155,0.0-19.0-1.15,79559,List1A,black,man,,,,null,,,,
null,are arguing with each other,,html-keyboard-response,386,1519156,0.0-19.0-2.15,79559,List1A,black,man,,,,null,,,,
12307,,,survey-text,387,1531464,0.0-19.0-3.15,79559,List1A,black,man,,,,,"{""Q0"":""fred and dave are arguing with each other""}","<img src=""stim_listA/argue6.gif""style=""height:400px;""></stim_listA>",are arguing with each other,
null,"<div style=""font-size:60px;"">+</div>",,html-keyboard-response,388,1531967,0.0-19.0-0.16,79559,List1A,black,man,,,,null,,,,
null,"<img src=""stim_listA/dance1.gif""style=""height:400px;""></stim_listA>",,html-keyboard-response,389,1533972,0.0-19.0-1.16,79559,List1A,black,man,,,,null,,,,
null,is dancing with,,html-keyboard-response,390,1535975,0.0-19.0-2.16,79559,List1A,black,man,,,,null,,,,
8566,,,survey-text,391,1544543,0.0-19.0-3.16,79559,List1A,black,man,,,,,"{""Q0"":""kate is dancing with fred""}","<img src=""stim_listA/dance1.gif""style=""height:400px;""></stim_listA>",is dancing with,
null,"<div style=""font-size:60px;"">+</div>",,html-keyboard-response,392,1545045,0.0-19.0-0.17,79559,List1A,black,man,,,,null,,,,
null,"<img src=""stim_listA/argue3.gif""style=""height:400px;""></stim_listA>",,html-keyboard-response,393,1547050,0.0-19.0-1.17,79559,List1A,black,man,,,,null,,,,
null,is arguing with,,html-keyboard-response,394,1549053,0.0-19.0-2.17,79559,List1A,black,man,,,,null,,,,
7868,,,survey-text,395,1556923,0.0-19.0-3.17,79559,List1A,black,man,,,,,"{""Q0"":""ruth is arguing with dave""}","<img src=""stim_listA/argue3.gif""style=""height:400px;""></stim_listA>",is arguing with,
null,"<div style=""font-size:60px;"">+</div>",,html-keyboard-response,396,1557424,0.0-19.0-0.18,79559,List1A,black,man,,,,null,,,,
null,"<img src=""stim_listA/play1.gif""style=""height:400px;""></stim_listA>",,html-keyboard-response,397,1559428,0.0-19.0-1.18,79559,List1A,black,man,,,,null,,,,
null,is playing with,,html-keyboard-response,398,1561430,0.0-19.0-2.18,79559,List1A,black,man,,,,null,,,,
6685,,,survey-text,399,1568115,0.0-19.0-3.18,79559,List1A,black,man,,,,,"{""Q0"":""mike is playing with kate""}","<img src=""stim_listA/play1.gif""style=""height:400px;""></stim_listA>",is playing with,
null,"<div style=""font-size:60px;"">+</div>",,html-keyboard-response,400,1568617,0.0-19.0-0.19,79559,List1A,black,man,,,,null,,,,
null,"<img src=""stim_listA/dance2.gif""style=""height:400px;""></stim_listA>",,html-keyboard-response,401,1570620,0.0-19.0-1.19,79559,List1A,black,man,,,,null,,,,
null,are dancing with each other,,html-keyboard-response,402,1572622,0.0-19.0-2.19,79559,List1A,black,man,,,,null,,,,
9651,,,survey-text,403,1582276,0.0-19.0-3.19,79559,List1A,black,man,,,,,"{""Q0"":""beth and mike are dancing with each other""}","<img src=""stim_listA/dance2.gif""style=""height:400px;""></stim_listA>",are dancing with each other,
1855,<p>Thank you for completing that task.</p><p>The final part of this session is a short questionnaire.</p><p>Press Continue.</p>,0,html-button-response,404,1584131,0.0-20.0,79559,List1A,black,man,,,,,,,,
17606,,,survey-text,405,1602740,0.0-21.0,79559,List1A,black,man,,,,,"{""Q0"":""28"",""Q1"":""english"",""Q2"":""english"",""Q3"":""uk"",""Q4"":""black"",""Q5"":""male""}",,,demographics
4800,,,survey-likert,406,1607543,0.0-22.0,79559,List1A,black,man,,,,,"{""Q0"":4}",,,likert_ESS
4182,,,survey-likert,407,1611729,0.0-23.0,79559,List1A,black,man,,,,,"{""Q0"":4}",,,likert_NSSAL_Q1
2929,,,survey-likert,408,1614664,0.0-24.0,79559,List1A,black,man,,,,,"{""Q0"":4}",,,likert_NSSAL_Q2
4066,,,survey-likert,409,1618735,0.0-25.0,79559,List1A,black,man,,,,,"{""Q0"":2}",,,likert_CGRS_Q1
4143,,,survey-likert,410,1622884,0.0-26.0,79559,List1A,black,man,,,,,"{""Q0"":4}",,,likert_CGRS_Q2
3371,,,survey-likert,411,1626264,0.0-27.0,79559,List1A,black,man,,,,,"{""Q0"":3}",,,likert_CGRS_Q3
11593,,,survey-text,412,1637863,0.0-28.0,79559,List1A,black,man,,,,,"{""Q0"":""ccc""}",,,worker_id
8569,,,external-html,413,1646595,0.0-29.0,79559,List1A,black,man,debrief.html,,,,,,,
