rt,stimulus,button_pressed,trial_type,trial_index,time_elapsed,internal_node_id,subject,list,ppt_race,ppt_gender,url,first_guess,correct,key_press,responses,image_type,phrase_type,test_part
1790,Welcome to the experiment. Press Continue to begin.,0,html-button-response,0,1793,0.0-0.0,80260,List2A,black,man,,,,,,,,
10029,,,external-html,1,12951,0.0-1.0,80260,List2A,black,man,consent.html,,,,,,,
31528,"<p>On the next page, you will see portraits of 8 people and their names.</p><p>Your first task is to take a few minutes to memorise the names of these people.</p><p>You will have to recall their names during the rest of the experiment, so it is</p><p>essential that you try to memorise these people and their names as best as you can.</p><br><p><strong>You will then be tested on your memory of these names and portraits.</strong></p><br><p>The experiment will start after you have completed this memory test.</p><br><p>Ready?</p>",0,html-button-response,2,44481,0.0-2.0,80260,List2A,black,man,,,,,,,,
53709,"<img src='img/portrait_matrix_list2.jpg' style='width:900px;height:500px;''></img><p>If you have memorised all the portraits and names and are ready to start, press Continue.</p><p><strong>Please note: Your memory of these faces will be tested 4 times during this experiment.</strong></p>",0,html-button-response,3,99194,0.0-3.0-0.0,80260,List2A,black,man,,,,,,,,
3474,"<img src=""portrait/WM1.jpg""style=""height:400px;""></img>",6,html-button-response,4,103672,0.0-3.0-1.0,80260,List2A,black,man,,TRUE,6,,,,,
null,CORRECT,,html-keyboard-response,5,105179,0.0-3.0-2.0-0.0,80260,List2A,black,man,,,,null,,,,
2562,"<img src=""portrait/BW1.jpg""style=""height:400px;""></img>",0,html-button-response,6,107744,0.0-3.0-4.0,80260,List2A,black,man,,TRUE,0,,,,,
null,CORRECT,,html-keyboard-response,7,109267,0.0-3.0-5.0-0.0,80260,List2A,black,man,,,,null,,,,
2496,"<img src=""portrait/BM2.jpg""style=""height:400px;""></img>",5,html-button-response,8,111766,0.0-3.0-7.0,80260,List2A,black,man,,TRUE,5,,,,,
null,CORRECT,,html-keyboard-response,9,113270,0.0-3.0-8.0-0.0,80260,List2A,black,man,,,,null,,,,
1986,"<img src=""portrait/BW2.jpg""style=""height:400px;""></img>",2,html-button-response,10,115258,0.0-3.0-10.0,80260,List2A,black,man,,TRUE,2,,,,,
null,CORRECT,,html-keyboard-response,11,116760,0.0-3.0-11.0-0.0,80260,List2A,black,man,,,,null,,,,
2113,"<img src=""portrait/BM1.jpg""style=""height:400px;""></img>",4,html-button-response,12,118874,0.0-3.0-13.0,80260,List2A,black,man,,TRUE,4,,,,,
null,CORRECT,,html-keyboard-response,13,120378,0.0-3.0-14.0-0.0,80260,List2A,black,man,,,,null,,,,
1993,"<img src=""portrait/WW2.jpg""style=""height:400px;""></img>",3,html-button-response,14,122373,0.0-3.0-16.0,80260,List2A,black,man,,TRUE,3,,,,,
null,CORRECT,,html-keyboard-response,15,123876,0.0-3.0-17.0-0.0,80260,List2A,black,man,,,,null,,,,
5187,"<img src=""portrait/WM2.jpg""style=""height:400px;""></img>",7,html-button-response,16,129066,0.0-3.0-19.0,80260,List2A,black,man,,TRUE,7,,,,,
null,CORRECT,,html-keyboard-response,17,130568,0.0-3.0-20.0-0.0,80260,List2A,black,man,,,,null,,,,
8333,"<img src=""portrait/WW1.jpg""style=""height:400px;""></img>",1,html-button-response,18,138904,0.0-3.0-22.0,80260,List2A,black,man,,TRUE,1,,,,,
null,CORRECT,,html-keyboard-response,19,140407,0.0-3.0-23.0-0.0,80260,List2A,black,man,,,,null,,,,
1963,<p>You got 8 out of 8 right first time. Press Continue.</p>,0,html-button-response,20,142373,0.0-3.0-25.0,80260,List2A,black,man,,,,,,,,
63209,"<p>In this experiment, you will view photographs of the people from the memory game interacting.</p><p>By using the <strong>exact</strong> phrase given <i>after</i> the photograph appears and recalling the correct names of the people in the photographs, form a sentence describing the interaction. You do not need to capitalise names.</p><p>Type your answer in the space provided. Please complete every sentence before moving onto the next trial.</p><p>You will only have a few seconds to memorise each given photograph and phrase before you can respond, so try your best to focus.</p><p>An example is given below. Press 'Continue' when you are ready.</p><img src='img/speaking_example.jpg' style='width:800px;height:460px;''></img>",0,html-button-response,21,206586,0.0-4.0,80260,List2A,black,man,,,,,,,,
1952,"<p>Before the experiment starts, you will watch two example trials. Press 'Continue'.</p>",0,html-button-response,22,209541,0.0-5.0,80260,List2A,black,man,,,,,,,,
null,<img src='img/meet_eg.gif' style='height:400px;''></img>,,html-keyboard-response,23,212546,0.0-6.0,80260,List2A,black,man,,,,null,,,,
null,<p>is meeting</p>,,html-keyboard-response,24,214547,0.0-7.0,80260,List2A,black,man,,,,null,,,,
2740,<p><b>Answer:</b> jane is meeting ruth</p>,0,html-button-response,25,217289,0.0-8.0,80260,List2A,black,man,,,,,,,,
null,<img src='img/look_eg.gif' style='height:400px;''></img>,,html-keyboard-response,26,220292,0.0-9.0,80260,List2A,black,man,,,,null,,,,
null,<p>are looking at each other</p>,,html-keyboard-response,27,222293,0.0-10.0,80260,List2A,black,man,,,,null,,,,
4786,<p><b>Answer:</b> fred and mike are looking at each other</p>,0,html-button-response,28,227081,0.0-11.0,80260,List2A,black,man,,,,,,,,
13476,"<p>Ready to start the experiment?</p><br><p><strong>Remember to describe the picture using a full sentence,</strong></p><p><strong>that combines the names of the people with the <i>exact</i> phrase given.</strong></p><p><strong>To receive full payment you must do this correctly.</strong></p><p><strong> You do not need to capitalise names or use punctuation.</strong></p><br><p>Press 'Continue' to begin.</p>",0,html-button-response,29,241560,0.0-12.0,80260,List2A,black,man,,,,,,,,
null,"<div style=""font-size:60px;"">+</div>",,html-keyboard-response,30,243063,0.0-13.0-0.0,80260,List2A,black,man,,,,null,,,,
null,"<img src=""stim_listA/fight6.gif""style=""height:400px;""></stim_listA>",,html-keyboard-response,31,245066,0.0-13.0-1.0,80260,List2A,black,man,,,,null,,,,
null,are fighting each other,,html-keyboard-response,32,247067,0.0-13.0-2.0,80260,List2A,black,man,,,,null,,,,
8326,,,survey-text,33,255397,0.0-13.0-3.0,80260,List2A,black,man,,,,,"{""Q0"":""Fred and luke are fighting each other.""}","<img src=""stim_listA/fight6.gif""style=""height:400px;""></stim_listA>",are fighting each other,
null,"<div style=""font-size:60px;"">+</div>",,html-keyboard-response,34,255899,0.0-13.0-0.1,80260,List2A,black,man,,,,null,,,,
null,"<img src=""stim_listA/talk1.gif""style=""height:400px;""></stim_listA>",,html-keyboard-response,35,257901,0.0-13.0-1.1,80260,List2A,black,man,,,,null,,,,
null,is talking to,,html-keyboard-response,36,259903,0.0-13.0-2.1,80260,List2A,black,man,,,,null,,,,
10352,,,survey-text,37,270255,0.0-13.0-3.1,80260,List2A,black,man,,,,,"{""Q0"":""Dave is talking to Jane.""}","<img src=""stim_listA/talk1.gif""style=""height:400px;""></stim_listA>",is talking to,
null,"<div style=""font-size:60px;"">+</div>",,html-keyboard-response,38,270757,0.0-13.0-0.2,80260,List2A,black,man,,,,null,,,,
null,"<img src=""stim_listA/play6.gif""style=""height:400px;""></stim_listA>",,html-keyboard-response,39,272759,0.0-13.0-1.2,80260,List2A,black,man,,,,null,,,,
null,are playing with each other,,html-keyboard-response,40,274760,0.0-13.0-2.2,80260,List2A,black,man,,,,null,,,,
11339,,,survey-text,41,286101,0.0-13.0-3.2,80260,List2A,black,man,,,,,"{""Q0"":""Fred and Dave are playing with each other.""}","<img src=""stim_listA/play6.gif""style=""height:400px;""></stim_listA>",are playing with each other,
null,"<div style=""font-size:60px;"">+</div>",,html-keyboard-response,42,286603,0.0-13.0-0.3,80260,List2A,black,man,,,,null,,,,
null,"<img src=""stim_listA/flirt6.gif""style=""height:400px;""></stim_listA>",,html-keyboard-response,43,288605,0.0-13.0-1.3,80260,List2A,black,man,,,,null,,,,
null,are flirting with each other,,html-keyboard-response,44,290608,0.0-13.0-2.3,80260,List2A,black,man,,,,null,,,,
13485,,,survey-text,45,304093,0.0-13.0-3.3,80260,List2A,black,man,,,,,"{""Q0"":""Fred and Luke are fighting each other.""}","<img src=""stim_listA/flirt6.gif""style=""height:400px;""></stim_listA>",are flirting with each other,
null,"<div style=""font-size:60px;"">+</div>",,html-keyboard-response,46,304595,0.0-13.0-0.4,80260,List2A,black,man,,,,null,,,,
null,"<img src=""stim_listA/touch2.gif""style=""height:400px;""></stim_listA>",,html-keyboard-response,47,306598,0.0-13.0-1.4,80260,List2A,black,man,,,,null,,,,
null,are touching each other,,html-keyboard-response,48,308599,0.0-13.0-2.4,80260,List2A,black,man,,,,null,,,,
10086,,,survey-text,49,318688,0.0-13.0-3.4,80260,List2A,black,man,,,,,"{""Q0"":""Ruth and Dave are touching each other.""}","<img src=""stim_listA/touch2.gif""style=""height:400px;""></stim_listA>",are touching each other,
null,"<div style=""font-size:60px;"">+</div>",,html-keyboard-response,50,319190,0.0-13.0-0.5,80260,List2A,black,man,,,,null,,,,
null,"<img src=""stim_listA/marry8.gif""style=""height:400px;""></stim_listA>",,html-keyboard-response,51,321192,0.0-13.0-1.5,80260,List2A,black,man,,,,null,,,,
null,are marrying each other,,html-keyboard-response,52,323194,0.0-13.0-2.5,80260,List2A,black,man,,,,null,,,,
11887,,,survey-text,53,335083,0.0-13.0-3.5,80260,List2A,black,man,,,,,"{""Q0"":""Kate and Ruth are marrying each other.""}","<img src=""stim_listA/marry8.gif""style=""height:400px;""></stim_listA>",are marrying each other,
null,"<div style=""font-size:60px;"">+</div>",,html-keyboard-response,54,335585,0.0-13.0-0.6,80260,List2A,black,man,,,,null,,,,
null,"<img src=""stim_listA/kiss4.gif""style=""height:400px;""></stim_listA>",,html-keyboard-response,55,337590,0.0-13.0-1.6,80260,List2A,black,man,,,,null,,,,
null,are kissing each other,,html-keyboard-response,56,339591,0.0-13.0-2.6,80260,List2A,black,man,,,,null,,,,
9893,,,survey-text,57,349485,0.0-13.0-3.6,80260,List2A,black,man,,,,,"{""Q0"":""Mike and Kate are kissing each other.""}","<img src=""stim_listA/kiss4.gif""style=""height:400px;""></stim_listA>",are kissing each other,
null,"<div style=""font-size:60px;"">+</div>",,html-keyboard-response,58,349987,0.0-13.0-0.7,80260,List2A,black,man,,,,null,,,,
null,"<img src=""stim_listA/shout7.gif""style=""height:400px;""></stim_listA>",,html-keyboard-response,59,351989,0.0-13.0-1.7,80260,List2A,black,man,,,,null,,,,
null,is shouting at,,html-keyboard-response,60,353990,0.0-13.0-2.7,80260,List2A,black,man,,,,null,,,,
16377,,,survey-text,61,370368,0.0-13.0-3.7,80260,List2A,black,man,,,,,"{""Q0"":""Ruth is shouting at Beth.""}","<img src=""stim_listA/shout7.gif""style=""height:400px;""></stim_listA>",is shouting at,
null,"<div style=""font-size:60px;"">+</div>",,html-keyboard-response,62,370869,0.0-13.0-0.8,80260,List2A,black,man,,,,null,,,,
null,"<img src=""stim_listA/fight8.gif""style=""height:400px;""></stim_listA>",,html-keyboard-response,63,372872,0.0-13.0-1.8,80260,List2A,black,man,,,,null,,,,
null,are fighting each other,,html-keyboard-response,64,374873,0.0-13.0-2.8,80260,List2A,black,man,,,,null,,,,
8638,,,survey-text,65,383513,0.0-13.0-3.8,80260,List2A,black,man,,,,,"{""Q0"":""Beth and Jane are fighting each other.""}","<img src=""stim_listA/fight8.gif""style=""height:400px;""></stim_listA>",are fighting each other,
null,"<div style=""font-size:60px;"">+</div>",,html-keyboard-response,66,384017,0.0-13.0-0.9,80260,List2A,black,man,,,,null,,,,
null,"<img src=""stim_listA/play4.gif""style=""height:400px;""></stim_listA>",,html-keyboard-response,67,386020,0.0-13.0-1.9,80260,List2A,black,man,,,,null,,,,
null,are playing with each other,,html-keyboard-response,68,388021,0.0-13.0-2.9,80260,List2A,black,man,,,,null,,,,
9755,,,survey-text,69,397778,0.0-13.0-3.9,80260,List2A,black,man,,,,,"{""Q0"":""Fred and Beth are playing with each other.""}","<img src=""stim_listA/play4.gif""style=""height:400px;""></stim_listA>",are playing with each other,
null,"<div style=""font-size:60px;"">+</div>",,html-keyboard-response,70,398279,0.0-13.0-0.10,80260,List2A,black,man,,,,null,,,,
null,"<img src=""stim_listA/kiss8.gif""style=""height:400px;""></stim_listA>",,html-keyboard-response,71,400281,0.0-13.0-1.10,80260,List2A,black,man,,,,null,,,,
null,are kissing each other,,html-keyboard-response,72,402284,0.0-13.0-2.10,80260,List2A,black,man,,,,null,,,,
16371,,,survey-text,73,418656,0.0-13.0-3.10,80260,List2A,black,man,,,,,"{""Q0"":""Jane and Kate are kissing each other.""}","<img src=""stim_listA/kiss8.gif""style=""height:400px;""></stim_listA>",are kissing each other,
null,"<div style=""font-size:60px;"">+</div>",,html-keyboard-response,74,419157,0.0-13.0-0.11,80260,List2A,black,man,,,,null,,,,
null,"<img src=""stim_listA/kiss1.gif""style=""height:400px;""></stim_listA>",,html-keyboard-response,75,421161,0.0-13.0-1.11,80260,List2A,black,man,,,,null,,,,
null,is kissing,,html-keyboard-response,76,423164,0.0-13.0-2.11,80260,List2A,black,man,,,,null,,,,
13882,,,survey-text,77,437047,0.0-13.0-3.11,80260,List2A,black,man,,,,,"{""Q0"":""Luke is kissing Jane.""}","<img src=""stim_listA/kiss1.gif""style=""height:400px;""></stim_listA>",is kissing,
null,"<div style=""font-size:60px;"">+</div>",,html-keyboard-response,78,437550,0.0-13.0-0.12,80260,List2A,black,man,,,,null,,,,
null,"<img src=""stim_listA/shout2.gif""style=""height:400px;""></stim_listA>",,html-keyboard-response,79,439552,0.0-13.0-1.12,80260,List2A,black,man,,,,null,,,,
null,are shouting at each other,,html-keyboard-response,80,441554,0.0-13.0-2.12,80260,List2A,black,man,,,,null,,,,
18854,,,survey-text,81,460409,0.0-13.0-3.12,80260,List2A,black,man,,,,,"{""Q0"":""Dave and Ruth are shouting at each other.""}","<img src=""stim_listA/shout2.gif""style=""height:400px;""></stim_listA>",are shouting at each other,
null,"<div style=""font-size:60px;"">+</div>",,html-keyboard-response,82,460911,0.0-13.0-0.13,80260,List2A,black,man,,,,null,,,,
null,"<img src=""stim_listA/argue8.gif""style=""height:400px;""></stim_listA>",,html-keyboard-response,83,462915,0.0-13.0-1.13,80260,List2A,black,man,,,,null,,,,
null,are arguing with each other,,html-keyboard-response,84,464916,0.0-13.0-2.13,80260,List2A,black,man,,,,null,,,,
13446,,,survey-text,85,478364,0.0-13.0-3.13,80260,List2A,black,man,,,,,"{""Q0"":""Kate and Jane are arguing with each other.""}","<img src=""stim_listA/argue8.gif""style=""height:400px;""></stim_listA>",are arguing with each other,
null,"<div style=""font-size:60px;"">+</div>",,html-keyboard-response,86,478867,0.0-13.0-0.14,80260,List2A,black,man,,,,null,,,,
null,"<img src=""stim_listA/play8.gif""style=""height:400px;""></stim_listA>",,html-keyboard-response,87,480870,0.0-13.0-1.14,80260,List2A,black,man,,,,null,,,,
null,are playing with each other,,html-keyboard-response,88,482871,0.0-13.0-2.14,80260,List2A,black,man,,,,null,,,,
26331,,,survey-text,89,509202,0.0-13.0-3.14,80260,List2A,black,man,,,,,"{""Q0"":""Kate and Jane are arguing with each other.""}","<img src=""stim_listA/play8.gif""style=""height:400px;""></stim_listA>",are playing with each other,
null,"<div style=""font-size:60px;"">+</div>",,html-keyboard-response,90,509704,0.0-13.0-0.15,80260,List2A,black,man,,,,null,,,,
null,"<img src=""stim_listA/fight5.gif""style=""height:400px;""></stim_listA>",,html-keyboard-response,91,511708,0.0-13.0-1.15,80260,List2A,black,man,,,,null,,,,
null,is fighting,,html-keyboard-response,92,513709,0.0-13.0-2.15,80260,List2A,black,man,,,,null,,,,
9750,,,survey-text,93,523461,0.0-13.0-3.15,80260,List2A,black,man,,,,,"{""Q0"":""Mike is fighting Luke.""}","<img src=""stim_listA/fight5.gif""style=""height:400px;""></stim_listA>",is fighting,
null,"<div style=""font-size:60px;"">+</div>",,html-keyboard-response,94,523963,0.0-13.0-0.16,80260,List2A,black,man,,,,null,,,,
null,"<img src=""stim_listA/shout1.gif""style=""height:400px;""></stim_listA>",,html-keyboard-response,95,525966,0.0-13.0-1.16,80260,List2A,black,man,,,,null,,,,
null,is shouting at,,html-keyboard-response,96,527968,0.0-13.0-2.16,80260,List2A,black,man,,,,null,,,,
11378,,,survey-text,97,539346,0.0-13.0-3.16,80260,List2A,black,man,,,,,"{""Q0"":""Dave is shouting at Ruth.""}","<img src=""stim_listA/shout1.gif""style=""height:400px;""></stim_listA>",is shouting at,
null,"<div style=""font-size:60px;"">+</div>",,html-keyboard-response,98,539848,0.0-13.0-0.17,80260,List2A,black,man,,,,null,,,,
null,"<img src=""stim_listA/kiss5.gif""style=""height:400px;""></stim_listA>",,html-keyboard-response,99,541853,0.0-13.0-1.17,80260,List2A,black,man,,,,null,,,,
null,is kissing,,html-keyboard-response,100,543854,0.0-13.0-2.17,80260,List2A,black,man,,,,null,,,,
18208,,,survey-text,101,562063,0.0-13.0-3.17,80260,List2A,black,man,,,,,"{""Q0"":""Fred is kissing Dave.""}","<img src=""stim_listA/kiss5.gif""style=""height:400px;""></stim_listA>",is kissing,
null,"<div style=""font-size:60px;"">+</div>",,html-keyboard-response,102,562565,0.0-13.0-0.18,80260,List2A,black,man,,,,null,,,,
null,"<img src=""stim_listA/kiss7.gif""style=""height:400px;""></stim_listA>",,html-keyboard-response,103,564567,0.0-13.0-1.18,80260,List2A,black,man,,,,null,,,,
null,is kissing,,html-keyboard-response,104,566568,0.0-13.0-2.18,80260,List2A,black,man,,,,null,,,,
17508,,,survey-text,105,584078,0.0-13.0-3.18,80260,List2A,black,man,,,,,"{""Q0"":""Kate is kissing Jane.""}","<img src=""stim_listA/kiss7.gif""style=""height:400px;""></stim_listA>",is kissing,
null,"<div style=""font-size:60px;"">+</div>",,html-keyboard-response,106,584579,0.0-13.0-0.19,80260,List2A,black,man,,,,null,,,,
null,"<img src=""stim_listA/talk2.gif""style=""height:400px;""></stim_listA>",,html-keyboard-response,107,586584,0.0-13.0-1.19,80260,List2A,black,man,,,,null,,,,
null,are talking to each other,,html-keyboard-response,108,588585,0.0-13.0-2.19,80260,List2A,black,man,,,,null,,,,
10712,,,survey-text,109,599299,0.0-13.0-3.19,80260,List2A,black,man,,,,,"{""Q0"":""Luke and Jane are talking to each other.""}","<img src=""stim_listA/talk2.gif""style=""height:400px;""></stim_listA>",are talking to each other,
36892,"<img src='img/portrait_matrix_list2.jpg' style='width:900px;height:500px;''></img><p>If you have memorised all the portraits and names and are ready to start, press Continue.</p><p><strong>Please note: Your memory of these faces will be tested 4 times during this experiment.</strong></p>",0,html-button-response,110,636193,0.0-14.0-0.0,80260,List2A,black,man,,,,,,,,
7800,"<img src=""portrait/WM2.jpg""style=""height:400px;""></img>",6,html-button-response,111,644997,0.0-14.0-1.0,80260,List2A,black,man,,TRUE,7,,,,,
4879,"<img src=""portrait/WM2.jpg""style=""height:400px;""></img>",7,html-button-response,112,650881,0.0-14.0-3.0-0.0,80260,List2A,black,man,,FALSE,7,,,,,
null,CORRECT,,html-keyboard-response,113,652385,0.0-14.0-3.0-1.0-0.0,80260,List2A,black,man,,,,null,,,,
6704,"<img src=""portrait/WM1.jpg""style=""height:400px;""></img>",6,html-button-response,114,659092,0.0-14.0-4.0,80260,List2A,black,man,,TRUE,6,,,,,
null,CORRECT,,html-keyboard-response,115,660595,0.0-14.0-5.0-0.0,80260,List2A,black,man,,,,null,,,,
5408,"<img src=""portrait/WW2.jpg""style=""height:400px;""></img>",3,html-button-response,116,666006,0.0-14.0-7.0,80260,List2A,black,man,,TRUE,3,,,,,
null,CORRECT,,html-keyboard-response,117,667509,0.0-14.0-8.0-0.0,80260,List2A,black,man,,,,null,,,,
2147,"<img src=""portrait/BM1.jpg""style=""height:400px;""></img>",4,html-button-response,118,669658,0.0-14.0-10.0,80260,List2A,black,man,,TRUE,4,,,,,
null,CORRECT,,html-keyboard-response,119,671162,0.0-14.0-11.0-0.0,80260,List2A,black,man,,,,null,,,,
4353,"<img src=""portrait/BW1.jpg""style=""height:400px;""></img>",0,html-button-response,120,675517,0.0-14.0-13.0,80260,List2A,black,man,,TRUE,0,,,,,
null,CORRECT,,html-keyboard-response,121,677021,0.0-14.0-14.0-0.0,80260,List2A,black,man,,,,null,,,,
2570,"<img src=""portrait/BM2.jpg""style=""height:400px;""></img>",4,html-button-response,122,679594,0.0-14.0-16.0,80260,List2A,black,man,,TRUE,5,,,,,
3350,"<img src=""portrait/BM2.jpg""style=""height:400px;""></img>",5,html-button-response,123,683949,0.0-14.0-18.0-0.0,80260,List2A,black,man,,FALSE,5,,,,,
null,CORRECT,,html-keyboard-response,124,685452,0.0-14.0-18.0-1.0-0.0,80260,List2A,black,man,,,,null,,,,
5096,"<img src=""portrait/BW2.jpg""style=""height:400px;""></img>",2,html-button-response,125,690550,0.0-14.0-19.0,80260,List2A,black,man,,TRUE,2,,,,,
null,CORRECT,,html-keyboard-response,126,692052,0.0-14.0-20.0-0.0,80260,List2A,black,man,,,,null,,,,
8867,"<img src=""portrait/WW1.jpg""style=""height:400px;""></img>",1,html-button-response,127,700922,0.0-14.0-22.0,80260,List2A,black,man,,TRUE,1,,,,,
null,CORRECT,,html-keyboard-response,128,702425,0.0-14.0-23.0-0.0,80260,List2A,black,man,,,,null,,,,
1491,<p>You got 6 out of 8 right first time. Press Continue.</p>,0,html-button-response,129,703918,0.0-14.0-25.0,80260,List2A,black,man,,,,,,,,
3072,"As you did not score 100%, the memory game will repeat. Press Continue.",0,html-button-response,130,707994,0.0-14.0-26.0-0.0,80260,List2A,black,man,,,,,,,,
2274,"<img src='img/portrait_matrix_list2.jpg' style='width:900px;height:500px;''></img><p>If you have memorised all the portraits and names and are ready to start, press Continue.</p><p><strong>Please note: Your memory of these faces will be tested 4 times during this experiment.</strong></p>",0,html-button-response,131,711270,0.0-14.1-0.1,80260,List2A,black,man,,,,,,,,
11188,"<img src=""portrait/WM2.jpg""style=""height:400px;""></img>",7,html-button-response,132,723461,0.0-14.1-1.1,80260,List2A,black,man,,TRUE,7,,,,,
null,CORRECT,,html-keyboard-response,133,724964,0.0-14.1-2.1-0.1,80260,List2A,black,man,,,,null,,,,
1660,"<img src=""portrait/WM1.jpg""style=""height:400px;""></img>",6,html-button-response,134,726626,0.0-14.1-4.1,80260,List2A,black,man,,TRUE,6,,,,,
null,CORRECT,,html-keyboard-response,135,728130,0.0-14.1-5.1-0.1,80260,List2A,black,man,,,,null,,,,
4826,"<img src=""portrait/WW2.jpg""style=""height:400px;""></img>",3,html-button-response,136,732959,0.0-14.1-7.1,80260,List2A,black,man,,TRUE,3,,,,,
null,CORRECT,,html-keyboard-response,137,734461,0.0-14.1-8.1-0.1,80260,List2A,black,man,,,,null,,,,
2375,"<img src=""portrait/BM1.jpg""style=""height:400px;""></img>",4,html-button-response,138,736840,0.0-14.1-10.1,80260,List2A,black,man,,TRUE,4,,,,,
null,CORRECT,,html-keyboard-response,139,738344,0.0-14.1-11.1-0.1,80260,List2A,black,man,,,,null,,,,
2401,"<img src=""portrait/BW1.jpg""style=""height:400px;""></img>",0,html-button-response,140,740748,0.0-14.1-13.1,80260,List2A,black,man,,TRUE,0,,,,,
null,CORRECT,,html-keyboard-response,141,742251,0.0-14.1-14.1-0.1,80260,List2A,black,man,,,,null,,,,
1730,"<img src=""portrait/BM2.jpg""style=""height:400px;""></img>",5,html-button-response,142,743985,0.0-14.1-16.1,80260,List2A,black,man,,TRUE,5,,,,,
null,CORRECT,,html-keyboard-response,143,745487,0.0-14.1-17.1-0.1,80260,List2A,black,man,,,,null,,,,
3093,"<img src=""portrait/BW2.jpg""style=""height:400px;""></img>",2,html-button-response,144,748582,0.0-14.1-19.1,80260,List2A,black,man,,TRUE,2,,,,,
null,CORRECT,,html-keyboard-response,145,750085,0.0-14.1-20.1-0.1,80260,List2A,black,man,,,,null,,,,
5628,"<img src=""portrait/WW1.jpg""style=""height:400px;""></img>",1,html-button-response,146,755715,0.0-14.1-22.1,80260,List2A,black,man,,TRUE,1,,,,,
null,CORRECT,,html-keyboard-response,147,757218,0.0-14.1-23.1-0.1,80260,List2A,black,man,,,,null,,,,
1418,<p>You got 8 out of 8 right first time. Press Continue.</p>,0,html-button-response,148,758638,0.0-14.1-25.1,80260,List2A,black,man,,,,,,,,
null,"<div style=""font-size:60px;"">+</div>",,html-keyboard-response,149,760141,0.0-15.0-0.0,80260,List2A,black,man,,,,null,,,,
null,"<img src=""stim_listA/fight4.gif""style=""height:400px;""></stim_listA>",,html-keyboard-response,150,762144,0.0-15.0-1.0,80260,List2A,black,man,,,,null,,,,
null,are fighting each other,,html-keyboard-response,151,764145,0.0-15.0-2.0,80260,List2A,black,man,,,,null,,,,
27777,,,survey-text,152,791924,0.0-15.0-3.0,80260,List2A,black,man,,,,,"{""Q0"":""Fred and Beth are fighting with each other.""}","<img src=""stim_listA/fight4.gif""style=""height:400px;""></stim_listA>",are fighting each other,
null,"<div style=""font-size:60px;"">+</div>",,html-keyboard-response,153,792425,0.0-15.0-0.1,80260,List2A,black,man,,,,null,,,,
null,"<img src=""stim_listA/flirt3.gif""style=""height:400px;""></stim_listA>",,html-keyboard-response,154,794427,0.0-15.0-1.1,80260,List2A,black,man,,,,null,,,,
null,is flirting with,,html-keyboard-response,155,796429,0.0-15.0-2.1,80260,List2A,black,man,,,,null,,,,
8323,,,survey-text,156,804753,0.0-15.0-3.1,80260,List2A,black,man,,,,,"{""Q0"":""Fred is flirting with Kate.""}","<img src=""stim_listA/flirt3.gif""style=""height:400px;""></stim_listA>",is flirting with,
null,"<div style=""font-size:60px;"">+</div>",,html-keyboard-response,157,805255,0.0-15.0-0.2,80260,List2A,black,man,,,,null,,,,
null,"<img src=""stim_listA/play3.gif""style=""height:400px;""></stim_listA>",,html-keyboard-response,158,807258,0.0-15.0-1.2,80260,List2A,black,man,,,,null,,,,
null,is playing with,,html-keyboard-response,159,809259,0.0-15.0-2.2,80260,List2A,black,man,,,,null,,,,
6842,,,survey-text,160,816102,0.0-15.0-3.2,80260,List2A,black,man,,,,,"{""Q0"":""Mike is playing with Kate.""}","<img src=""stim_listA/play3.gif""style=""height:400px;""></stim_listA>",is playing with,
null,"<div style=""font-size:60px;"">+</div>",,html-keyboard-response,161,816604,0.0-15.0-0.3,80260,List2A,black,man,,,,null,,,,
null,"<img src=""stim_listA/marry2.gif""style=""height:400px;""></stim_listA>",,html-keyboard-response,162,818607,0.0-15.0-1.3,80260,List2A,black,man,,,,null,,,,
null,are marrying each other,,html-keyboard-response,163,820608,0.0-15.0-2.3,80260,List2A,black,man,,,,null,,,,
14315,,,survey-text,164,834925,0.0-15.0-3.3,80260,List2A,black,man,,,,,"{""Q0"":""Jane and Luke are marrying each other.""}","<img src=""stim_listA/marry2.gif""style=""height:400px;""></stim_listA>",are marrying each other,
null,"<div style=""font-size:60px;"">+</div>",,html-keyboard-response,165,835427,0.0-15.0-0.4,80260,List2A,black,man,,,,null,,,,
null,"<img src=""stim_listA/dance2.gif""style=""height:400px;""></stim_listA>",,html-keyboard-response,166,837432,0.0-15.0-1.4,80260,List2A,black,man,,,,null,,,,
null,are dancing with each other,,html-keyboard-response,167,839433,0.0-15.0-2.4,80260,List2A,black,man,,,,null,,,,
16591,,,survey-text,168,856025,0.0-15.0-3.4,80260,List2A,black,man,,,,,"{""Q0"":""Ruth and Dave are dancing with each other.""}","<img src=""stim_listA/dance2.gif""style=""height:400px;""></stim_listA>",are dancing with each other,
null,"<div style=""font-size:60px;"">+</div>",,html-keyboard-response,169,856527,0.0-15.0-0.5,80260,List2A,black,man,,,,null,,,,
null,"<img src=""stim_listA/touch6.gif""style=""height:400px;""></stim_listA>",,html-keyboard-response,170,858529,0.0-15.0-1.5,80260,List2A,black,man,,,,null,,,,
null,are touching each other,,html-keyboard-response,171,860531,0.0-15.0-2.5,80260,List2A,black,man,,,,null,,,,
12256,,,survey-text,172,872789,0.0-15.0-3.5,80260,List2A,black,man,,,,,"{""Q0"":""Fred and Dave are touching each other.""}","<img src=""stim_listA/touch6.gif""style=""height:400px;""></stim_listA>",are touching each other,
null,"<div style=""font-size:60px;"">+</div>",,html-keyboard-response,173,873290,0.0-15.0-0.6,80260,List2A,black,man,,,,null,,,,
null,"<img src=""stim_listA/fight7.gif""style=""height:400px;""></stim_listA>",,html-keyboard-response,174,875293,0.0-15.0-1.6,80260,List2A,black,man,,,,null,,,,
null,is fighting,,html-keyboard-response,175,877295,0.0-15.0-2.6,80260,List2A,black,man,,,,null,,,,
4816,,,survey-text,176,882111,0.0-15.0-3.6,80260,List2A,black,man,,,,,"{""Q0"":""Kate is fighting Jane.""}","<img src=""stim_listA/fight7.gif""style=""height:400px;""></stim_listA>",is fighting,
null,"<div style=""font-size:60px;"">+</div>",,html-keyboard-response,177,882613,0.0-15.0-0.7,80260,List2A,black,man,,,,null,,,,
null,"<img src=""stim_listA/fight3.gif""style=""height:400px;""></stim_listA>",,html-keyboard-response,178,884617,0.0-15.0-1.7,80260,List2A,black,man,,,,null,,,,
null,is fighting,,html-keyboard-response,179,886619,0.0-15.0-2.7,80260,List2A,black,man,,,,null,,,,
5274,,,survey-text,180,891894,0.0-15.0-3.7,80260,List2A,black,man,,,,,"{""Q0"":""Mike is fighting Kate.""}","<img src=""stim_listA/fight3.gif""style=""height:400px;""></stim_listA>",is fighting,
null,"<div style=""font-size:60px;"">+</div>",,html-keyboard-response,181,892396,0.0-15.0-0.8,80260,List2A,black,man,,,,null,,,,
null,"<img src=""stim_listA/talk6.gif""style=""height:400px;""></stim_listA>",,html-keyboard-response,182,894398,0.0-15.0-1.8,80260,List2A,black,man,,,,null,,,,
null,are talking to each other,,html-keyboard-response,183,896399,0.0-15.0-2.8,80260,List2A,black,man,,,,null,,,,
16525,,,survey-text,184,912926,0.0-15.0-3.8,80260,List2A,black,man,,,,,"{""Q0"":""Fred and Luke are talking to each other.""}","<img src=""stim_listA/talk6.gif""style=""height:400px;""></stim_listA>",are talking to each other,
null,"<div style=""font-size:60px;"">+</div>",,html-keyboard-response,185,913427,0.0-15.0-0.9,80260,List2A,black,man,,,,null,,,,
null,"<img src=""stim_listA/dance1.gif""style=""height:400px;""></stim_listA>",,html-keyboard-response,186,915429,0.0-15.0-1.9,80260,List2A,black,man,,,,null,,,,
null,is dancing with,,html-keyboard-response,187,917432,0.0-15.0-2.9,80260,List2A,black,man,,,,null,,,,
5526,,,survey-text,188,922958,0.0-15.0-3.9,80260,List2A,black,man,,,,,"{""Q0"":""Luke is dancing with Jane.""}","<img src=""stim_listA/dance1.gif""style=""height:400px;""></stim_listA>",is dancing with,
null,"<div style=""font-size:60px;"">+</div>",,html-keyboard-response,189,923460,0.0-15.0-0.10,80260,List2A,black,man,,,,null,,,,
null,"<img src=""stim_listA/dance3.gif""style=""height:400px;""></stim_listA>",,html-keyboard-response,190,925462,0.0-15.0-1.10,80260,List2A,black,man,,,,null,,,,
null,is dancing with,,html-keyboard-response,191,927464,0.0-15.0-2.10,80260,List2A,black,man,,,,null,,,,
5695,,,survey-text,192,933161,0.0-15.0-3.10,80260,List2A,black,man,,,,,"{""Q0"":""Fred is dancing with Kate.""}","<img src=""stim_listA/dance3.gif""style=""height:400px;""></stim_listA>",is dancing with,
null,"<div style=""font-size:60px;"">+</div>",,html-keyboard-response,193,933663,0.0-15.0-0.11,80260,List2A,black,man,,,,null,,,,
null,"<img src=""stim_listA/fight1.gif""style=""height:400px;""></stim_listA>",,html-keyboard-response,194,935666,0.0-15.0-1.11,80260,List2A,black,man,,,,null,,,,
null,is fighting,,html-keyboard-response,195,937669,0.0-15.0-2.11,80260,List2A,black,man,,,,null,,,,
5351,,,survey-text,196,943023,0.0-15.0-3.11,80260,List2A,black,man,,,,,"{""Q0"":""Jane is fighting Dave.""}","<img src=""stim_listA/fight1.gif""style=""height:400px;""></stim_listA>",is fighting,
null,"<div style=""font-size:60px;"">+</div>",,html-keyboard-response,197,943524,0.0-15.0-0.12,80260,List2A,black,man,,,,null,,,,
null,"<img src=""stim_listA/marry7.gif""style=""height:400px;""></stim_listA>",,html-keyboard-response,198,945526,0.0-15.0-1.12,80260,List2A,black,man,,,,null,,,,
null,is marrying,,html-keyboard-response,199,947528,0.0-15.0-2.12,80260,List2A,black,man,,,,null,,,,
5536,,,survey-text,200,953067,0.0-15.0-3.12,80260,List2A,black,man,,,,,"{""Q0"":""Beth is marrying Jane.""}","<img src=""stim_listA/marry7.gif""style=""height:400px;""></stim_listA>",is marrying,
null,"<div style=""font-size:60px;"">+</div>",,html-keyboard-response,201,953569,0.0-15.0-0.13,80260,List2A,black,man,,,,null,,,,
null,"<img src=""stim_listA/touch7.gif""style=""height:400px;""></stim_listA>",,html-keyboard-response,202,955572,0.0-15.0-1.13,80260,List2A,black,man,,,,null,,,,
null,is touching,,html-keyboard-response,203,957573,0.0-15.0-2.13,80260,List2A,black,man,,,,null,,,,
7221,,,survey-text,204,964797,0.0-15.0-3.13,80260,List2A,black,man,,,,,"{""Q0"":""Kate is touching Jane.""}","<img src=""stim_listA/touch7.gif""style=""height:400px;""></stim_listA>",is touching,
null,"<div style=""font-size:60px;"">+</div>",,html-keyboard-response,205,965298,0.0-15.0-0.14,80260,List2A,black,man,,,,null,,,,
null,"<img src=""stim_listA/dance6.gif""style=""height:400px;""></stim_listA>",,html-keyboard-response,206,967302,0.0-15.0-1.14,80260,List2A,black,man,,,,null,,,,
null,are dancing with each other,,html-keyboard-response,207,969304,0.0-15.0-2.14,80260,List2A,black,man,,,,null,,,,
11720,,,survey-text,208,981024,0.0-15.0-3.14,80260,List2A,black,man,,,,,"{""Q0"":""Fred and Luke are dancing with each other.""}","<img src=""stim_listA/dance6.gif""style=""height:400px;""></stim_listA>",are dancing with each other,
null,"<div style=""font-size:60px;"">+</div>",,html-keyboard-response,209,981526,0.0-15.0-0.15,80260,List2A,black,man,,,,null,,,,
null,"<img src=""stim_listA/marry3.gif""style=""height:400px;""></stim_listA>",,html-keyboard-response,210,983530,0.0-15.0-1.15,80260,List2A,black,man,,,,null,,,,
null,is marrying,,html-keyboard-response,211,985532,0.0-15.0-2.15,80260,List2A,black,man,,,,null,,,,
5689,,,survey-text,212,991222,0.0-15.0-3.15,80260,List2A,black,man,,,,,"{""Q0"":""Mike is marrying Beth.""}","<img src=""stim_listA/marry3.gif""style=""height:400px;""></stim_listA>",is marrying,
null,"<div style=""font-size:60px;"">+</div>",,html-keyboard-response,213,991724,0.0-15.0-0.16,80260,List2A,black,man,,,,null,,,,
null,"<img src=""stim_listA/argue1.gif""style=""height:400px;""></stim_listA>",,html-keyboard-response,214,993727,0.0-15.0-1.16,80260,List2A,black,man,,,,null,,,,
null,is arguing with,,html-keyboard-response,215,995728,0.0-15.0-2.16,80260,List2A,black,man,,,,null,,,,
7896,,,survey-text,216,1003625,0.0-15.0-3.16,80260,List2A,black,man,,,,,"{""Q0"":""Ruth is arguing with Dave.""}","<img src=""stim_listA/argue1.gif""style=""height:400px;""></stim_listA>",is arguing with,
null,"<div style=""font-size:60px;"">+</div>",,html-keyboard-response,217,1004127,0.0-15.0-0.17,80260,List2A,black,man,,,,null,,,,
null,"<img src=""stim_listA/play1.gif""style=""height:400px;""></stim_listA>",,html-keyboard-response,218,1006130,0.0-15.0-1.17,80260,List2A,black,man,,,,null,,,,
null,is playing with,,html-keyboard-response,219,1008131,0.0-15.0-2.17,80260,List2A,black,man,,,,null,,,,
7683,,,survey-text,220,1015815,0.0-15.0-3.17,80260,List2A,black,man,,,,,"{""Q0"":""Ruth is playing with Dave.""}","<img src=""stim_listA/play1.gif""style=""height:400px;""></stim_listA>",is playing with,
null,"<div style=""font-size:60px;"">+</div>",,html-keyboard-response,221,1016317,0.0-15.0-0.18,80260,List2A,black,man,,,,null,,,,
null,"<img src=""stim_listA/marry4.gif""style=""height:400px;""></stim_listA>",,html-keyboard-response,222,1018320,0.0-15.0-1.18,80260,List2A,black,man,,,,null,,,,
null,are marrying each other,,html-keyboard-response,223,1020321,0.0-15.0-2.18,80260,List2A,black,man,,,,null,,,,
7431,,,survey-text,224,1027753,0.0-15.0-3.18,80260,List2A,black,man,,,,,"{""Q0"":""Fred and Kate are marrying each other.""}","<img src=""stim_listA/marry4.gif""style=""height:400px;""></stim_listA>",are marrying each other,
null,"<div style=""font-size:60px;"">+</div>",,html-keyboard-response,225,1028255,0.0-15.0-0.19,80260,List2A,black,man,,,,null,,,,
null,"<img src=""stim_listA/dance8.gif""style=""height:400px;""></stim_listA>",,html-keyboard-response,226,1030257,0.0-15.0-1.19,80260,List2A,black,man,,,,null,,,,
null,are dancing with each other,,html-keyboard-response,227,1032259,0.0-15.0-2.19,80260,List2A,black,man,,,,null,,,,
14778,,,survey-text,228,1047040,0.0-15.0-3.19,80260,List2A,black,man,,,,,"{""Q0"":""Fred and Jane are dancing with each other.""}","<img src=""stim_listA/dance8.gif""style=""height:400px;""></stim_listA>",are dancing with each other,
5384,"<img src='img/portrait_matrix_list2.jpg' style='width:900px;height:500px;''></img><p>If you have memorised all the portraits and names and are ready to start, press Continue.</p><p><strong>Please note: Your memory of these faces will be tested 4 times during this experiment.</strong></p>",0,html-button-response,229,1052426,0.0-16.0-0.0,80260,List2A,black,man,,,,,,,,
3293,"<img src=""portrait/WM2.jpg""style=""height:400px;""></img>",7,html-button-response,230,1056721,0.0-16.0-1.0,80260,List2A,black,man,,TRUE,7,,,,,
null,CORRECT,,html-keyboard-response,231,1058223,0.0-16.0-2.0-0.0,80260,List2A,black,man,,,,null,,,,
1540,"<img src=""portrait/WW2.jpg""style=""height:400px;""></img>",3,html-button-response,232,1059765,0.0-16.0-4.0,80260,List2A,black,man,,TRUE,3,,,,,
null,CORRECT,,html-keyboard-response,233,1061267,0.0-16.0-5.0-0.0,80260,List2A,black,man,,,,null,,,,
2547,"<img src=""portrait/BM1.jpg""style=""height:400px;""></img>",4,html-button-response,234,1063817,0.0-16.0-7.0,80260,List2A,black,man,,TRUE,4,,,,,
null,CORRECT,,html-keyboard-response,235,1065320,0.0-16.0-8.0-0.0,80260,List2A,black,man,,,,null,,,,
4174,"<img src=""portrait/BW2.jpg""style=""height:400px;""></img>",2,html-button-response,236,1069495,0.0-16.0-10.0,80260,List2A,black,man,,TRUE,2,,,,,
null,CORRECT,,html-keyboard-response,237,1070998,0.0-16.0-11.0-0.0,80260,List2A,black,man,,,,null,,,,
2679,"<img src=""portrait/WW1.jpg""style=""height:400px;""></img>",1,html-button-response,238,1073680,0.0-16.0-13.0,80260,List2A,black,man,,TRUE,1,,,,,
null,CORRECT,,html-keyboard-response,239,1075183,0.0-16.0-14.0-0.0,80260,List2A,black,man,,,,null,,,,
3190,"<img src=""portrait/BM2.jpg""style=""height:400px;""></img>",5,html-button-response,240,1078376,0.0-16.0-16.0,80260,List2A,black,man,,TRUE,5,,,,,
null,CORRECT,,html-keyboard-response,241,1079879,0.0-16.0-17.0-0.0,80260,List2A,black,man,,,,null,,,,
3105,"<img src=""portrait/WM1.jpg""style=""height:400px;""></img>",6,html-button-response,242,1082987,0.0-16.0-19.0,80260,List2A,black,man,,TRUE,6,,,,,
null,CORRECT,,html-keyboard-response,243,1084490,0.0-16.0-20.0-0.0,80260,List2A,black,man,,,,null,,,,
2716,"<img src=""portrait/BW1.jpg""style=""height:400px;""></img>",0,html-button-response,244,1087209,0.0-16.0-22.0,80260,List2A,black,man,,TRUE,0,,,,,
null,CORRECT,,html-keyboard-response,245,1088713,0.0-16.0-23.0-0.0,80260,List2A,black,man,,,,null,,,,
1430,<p>You got 8 out of 8 right first time. Press Continue.</p>,0,html-button-response,246,1090145,0.0-16.0-25.0,80260,List2A,black,man,,,,,,,,
null,"<div style=""font-size:60px;"">+</div>",,html-keyboard-response,247,1091649,0.0-17.0-0.0,80260,List2A,black,man,,,,null,,,,
null,"<img src=""stim_listA/dance5.gif""style=""height:400px;""></stim_listA>",,html-keyboard-response,248,1093653,0.0-17.0-1.0,80260,List2A,black,man,,,,null,,,,
null,is dancing with,,html-keyboard-response,249,1095655,0.0-17.0-2.0,80260,List2A,black,man,,,,null,,,,
11524,,,survey-text,250,1107181,0.0-17.0-3.0,80260,List2A,black,man,,,,,"{""Q0"":""Luke is dancing with Mike.""}","<img src=""stim_listA/dance5.gif""style=""height:400px;""></stim_listA>",is dancing with,
null,"<div style=""font-size:60px;"">+</div>",,html-keyboard-response,251,1107683,0.0-17.0-0.1,80260,List2A,black,man,,,,null,,,,
null,"<img src=""stim_listA/touch8.gif""style=""height:400px;""></stim_listA>",,html-keyboard-response,252,1109687,0.0-17.0-1.1,80260,List2A,black,man,,,,null,,,,
null,are touching each other,,html-keyboard-response,253,1111689,0.0-17.0-2.1,80260,List2A,black,man,,,,null,,,,
10328,,,survey-text,254,1122019,0.0-17.0-3.1,80260,List2A,black,man,,,,,"{""Q0"":""Ruth and Beth are touching each other.""}","<img src=""stim_listA/touch8.gif""style=""height:400px;""></stim_listA>",are touching each other,
null,"<div style=""font-size:60px;"">+</div>",,html-keyboard-response,255,1122521,0.0-17.0-0.2,80260,List2A,black,man,,,,null,,,,
null,"<img src=""stim_listA/talk3.gif""style=""height:400px;""></stim_listA>",,html-keyboard-response,256,1124526,0.0-17.0-1.2,80260,List2A,black,man,,,,null,,,,
null,is talking to,,html-keyboard-response,257,1126528,0.0-17.0-2.2,80260,List2A,black,man,,,,null,,,,
13073,,,survey-text,258,1139603,0.0-17.0-3.2,80260,List2A,black,man,,,,,"{""Q0"":""Fred and Beth are talking to each other.""}","<img src=""stim_listA/talk3.gif""style=""height:400px;""></stim_listA>",is talking to,
null,"<div style=""font-size:60px;"">+</div>",,html-keyboard-response,259,1140104,0.0-17.0-0.3,80260,List2A,black,man,,,,null,,,,
null,"<img src=""stim_listA/kiss6.gif""style=""height:400px;""></stim_listA>",,html-keyboard-response,260,1142107,0.0-17.0-1.3,80260,List2A,black,man,,,,null,,,,
null,are kissing each other,,html-keyboard-response,261,1144108,0.0-17.0-2.3,80260,List2A,black,man,,,,null,,,,
12546,,,survey-text,262,1156656,0.0-17.0-3.3,80260,List2A,black,man,,,,,"{""Q0"":""Mike and Dave are kissing each other.""}","<img src=""stim_listA/kiss6.gif""style=""height:400px;""></stim_listA>",are kissing each other,
null,"<div style=""font-size:60px;"">+</div>",,html-keyboard-response,263,1157158,0.0-17.0-0.4,80260,List2A,black,man,,,,null,,,,
null,"<img src=""stim_listA/shout5.gif""style=""height:400px;""></stim_listA>",,html-keyboard-response,264,1159162,0.0-17.0-1.4,80260,List2A,black,man,,,,null,,,,
null,is shouting at,,html-keyboard-response,265,1161163,0.0-17.0-2.4,80260,List2A,black,man,,,,null,,,,
17765,,,survey-text,266,1178930,0.0-17.0-3.4,80260,List2A,black,man,,,,,"{""Q0"":""Fred and Dave are shouting at each other.""}","<img src=""stim_listA/shout5.gif""style=""height:400px;""></stim_listA>",is shouting at,
null,"<div style=""font-size:60px;"">+</div>",,html-keyboard-response,267,1179433,0.0-17.0-0.5,80260,List2A,black,man,,,,null,,,,
null,"<img src=""stim_listA/shout3.gif""style=""height:400px;""></stim_listA>",,html-keyboard-response,268,1181437,0.0-17.0-1.5,80260,List2A,black,man,,,,null,,,,
null,is shouting at,,html-keyboard-response,269,1183438,0.0-17.0-2.5,80260,List2A,black,man,,,,null,,,,
11891,,,survey-text,270,1195331,0.0-17.0-3.5,80260,List2A,black,man,,,,,"{""Q0"":""Fred is shouting at Beth.""}","<img src=""stim_listA/shout3.gif""style=""height:400px;""></stim_listA>",is shouting at,
null,"<div style=""font-size:60px;"">+</div>",,html-keyboard-response,271,1195833,0.0-17.0-0.6,80260,List2A,black,man,,,,null,,,,
null,"<img src=""stim_listA/flirt4.gif""style=""height:400px;""></stim_listA>",,html-keyboard-response,272,1197836,0.0-17.0-1.6,80260,List2A,black,man,,,,null,,,,
null,are flirting with each other,,html-keyboard-response,273,1199838,0.0-17.0-2.6,80260,List2A,black,man,,,,null,,,,
14557,,,survey-text,274,1214397,0.0-17.0-3.6,80260,List2A,black,man,,,,,"{""Q0"":""Mike and Beth are flirting with each other.""}","<img src=""stim_listA/flirt4.gif""style=""height:400px;""></stim_listA>",are flirting with each other,
null,"<div style=""font-size:60px;"">+</div>",,html-keyboard-response,275,1214899,0.0-17.0-0.7,80260,List2A,black,man,,,,null,,,,
null,"<img src=""stim_listA/argue7.gif""style=""height:400px;""></stim_listA>",,html-keyboard-response,276,1216902,0.0-17.0-1.7,80260,List2A,black,man,,,,null,,,,
null,is arguing with,,html-keyboard-response,277,1218904,0.0-17.0-2.7,80260,List2A,black,man,,,,null,,,,
10974,,,survey-text,278,1229880,0.0-17.0-3.7,80260,List2A,black,man,,,,,"{""Q0"":""Jane is arguing with Beth.""}","<img src=""stim_listA/argue7.gif""style=""height:400px;""></stim_listA>",is arguing with,
null,"<div style=""font-size:60px;"">+</div>",,html-keyboard-response,279,1230381,0.0-17.0-0.8,80260,List2A,black,man,,,,null,,,,
null,"<img src=""stim_listA/dance4.gif""style=""height:400px;""></stim_listA>",,html-keyboard-response,280,1232384,0.0-17.0-1.8,80260,List2A,black,man,,,,null,,,,
null,are dancing with each other,,html-keyboard-response,281,1234386,0.0-17.0-2.8,80260,List2A,black,man,,,,null,,,,
21989,,,survey-text,282,1256376,0.0-17.0-3.8,80260,List2A,black,man,,,,,"{""Q0"":""Mike and Beth are dancing with each other.""}","<img src=""stim_listA/dance4.gif""style=""height:400px;""></stim_listA>",are dancing with each other,
null,"<div style=""font-size:60px;"">+</div>",,html-keyboard-response,283,1256879,0.0-17.0-0.9,80260,List2A,black,man,,,,null,,,,
null,"<img src=""stim_listA/fight2.gif""style=""height:400px;""></stim_listA>",,html-keyboard-response,284,1258883,0.0-17.0-1.9,80260,List2A,black,man,,,,null,,,,
null,are fighting each other,,html-keyboard-response,285,1260884,0.0-17.0-2.9,80260,List2A,black,man,,,,null,,,,
11027,,,survey-text,286,1271913,0.0-17.0-3.9,80260,List2A,black,man,,,,,"{""Q0"":""Dave and Ruth are fighting each other.""}","<img src=""stim_listA/fight2.gif""style=""height:400px;""></stim_listA>",are fighting each other,
null,"<div style=""font-size:60px;"">+</div>",,html-keyboard-response,287,1272414,0.0-17.0-0.10,80260,List2A,black,man,,,,null,,,,
null,"<img src=""stim_listA/argue6.gif""style=""height:400px;""></stim_listA>",,html-keyboard-response,288,1274418,0.0-17.0-1.10,80260,List2A,black,man,,,,null,,,,
null,are arguing with each other,,html-keyboard-response,289,1277016,0.0-17.0-2.10,80260,List2A,black,man,,,,null,,,,
12083,,,survey-text,290,1289101,0.0-17.0-3.10,80260,List2A,black,man,,,,,"{""Q0"":""Mike and Luke are arguing with each other.""}","<img src=""stim_listA/argue6.gif""style=""height:400px;""></stim_listA>",are arguing with each other,
null,"<div style=""font-size:60px;"">+</div>",,html-keyboard-response,291,1289602,0.0-17.0-0.11,80260,List2A,black,man,,,,null,,,,
null,"<img src=""stim_listA/play5.gif""style=""height:400px;""></stim_listA>",,html-keyboard-response,292,1291605,0.0-17.0-1.11,80260,List2A,black,man,,,,null,,,,
null,is playing with,,html-keyboard-response,293,1293607,0.0-17.0-2.11,80260,List2A,black,man,,,,null,,,,
7132,,,survey-text,294,1300741,0.0-17.0-3.11,80260,List2A,black,man,,,,,"{""Q0"":""Mike is playing with Dave.""}","<img src=""stim_listA/play5.gif""style=""height:400px;""></stim_listA>",is playing with,
null,"<div style=""font-size:60px;"">+</div>",,html-keyboard-response,295,1301242,0.0-17.0-0.12,80260,List2A,black,man,,,,null,,,,
null,"<img src=""stim_listA/argue4.gif""style=""height:400px;""></stim_listA>",,html-keyboard-response,296,1303246,0.0-17.0-1.12,80260,List2A,black,man,,,,null,,,,
null,are arguing with each other,,html-keyboard-response,297,1305249,0.0-17.0-2.12,80260,List2A,black,man,,,,null,,,,
9596,,,survey-text,298,1314847,0.0-17.0-3.12,80260,List2A,black,man,,,,,"{""Q0"":""Fred and Kate are arguing with each other.""}","<img src=""stim_listA/argue4.gif""style=""height:400px;""></stim_listA>",are arguing with each other,
null,"<div style=""font-size:60px;"">+</div>",,html-keyboard-response,299,1315350,0.0-17.0-0.13,80260,List2A,black,man,,,,null,,,,
null,"<img src=""stim_listA/play7.gif""style=""height:400px;""></stim_listA>",,html-keyboard-response,300,1317352,0.0-17.0-1.13,80260,List2A,black,man,,,,null,,,,
null,is playing with,,html-keyboard-response,301,1319355,0.0-17.0-2.13,80260,List2A,black,man,,,,null,,,,
7991,,,survey-text,302,1327348,0.0-17.0-3.13,80260,List2A,black,man,,,,,"{""Q0"":""Kate is playing with Jane.""}","<img src=""stim_listA/play7.gif""style=""height:400px;""></stim_listA>",is playing with,
null,"<div style=""font-size:60px;"">+</div>",,html-keyboard-response,303,1327850,0.0-17.0-0.14,80260,List2A,black,man,,,,null,,,,
null,"<img src=""stim_listA/touch5.gif""style=""height:400px;""></stim_listA>",,html-keyboard-response,304,1329854,0.0-17.0-1.14,80260,List2A,black,man,,,,null,,,,
null,is touching,,html-keyboard-response,305,1331855,0.0-17.0-2.14,80260,List2A,black,man,,,,null,,,,
10525,,,survey-text,306,1342382,0.0-17.0-3.14,80260,List2A,black,man,,,,,"{""Q0"":""Mike is touching Dave.""}","<img src=""stim_listA/touch5.gif""style=""height:400px;""></stim_listA>",is touching,
null,"<div style=""font-size:60px;"">+</div>",,html-keyboard-response,307,1342884,0.0-17.0-0.15,80260,List2A,black,man,,,,null,,,,
null,"<img src=""stim_listA/shout6.gif""style=""height:400px;""></stim_listA>",,html-keyboard-response,308,1344888,0.0-17.0-1.15,80260,List2A,black,man,,,,null,,,,
null,are shouting at each other,,html-keyboard-response,309,1346890,0.0-17.0-2.15,80260,List2A,black,man,,,,null,,,,
10282,,,survey-text,310,1357174,0.0-17.0-3.15,80260,List2A,black,man,,,,,"{""Q0"":""Mike and Dave are shouting at each other,""}","<img src=""stim_listA/shout6.gif""style=""height:400px;""></stim_listA>",are shouting at each other,
null,"<div style=""font-size:60px;"">+</div>",,html-keyboard-response,311,1357676,0.0-17.0-0.16,80260,List2A,black,man,,,,null,,,,
null,"<img src=""stim_listA/kiss2.gif""style=""height:400px;""></stim_listA>",,html-keyboard-response,312,1359679,0.0-17.0-1.16,80260,List2A,black,man,,,,null,,,,
null,are kissing each other,,html-keyboard-response,313,1361681,0.0-17.0-2.16,80260,List2A,black,man,,,,null,,,,
9140,,,survey-text,314,1370822,0.0-17.0-3.16,80260,List2A,black,man,,,,,"{""Q0"":""Dave and Jane are kissing each other.""}","<img src=""stim_listA/kiss2.gif""style=""height:400px;""></stim_listA>",are kissing each other,
null,"<div style=""font-size:60px;"">+</div>",,html-keyboard-response,315,1371323,0.0-17.0-0.17,80260,List2A,black,man,,,,null,,,,
null,"<img src=""stim_listA/flirt8.gif""style=""height:400px;""></stim_listA>",,html-keyboard-response,316,1373329,0.0-17.0-1.17,80260,List2A,black,man,,,,null,,,,
null,are flirting with each other,,html-keyboard-response,317,1375331,0.0-17.0-2.17,80260,List2A,black,man,,,,null,,,,
15005,,,survey-text,318,1390338,0.0-17.0-3.17,80260,List2A,black,man,,,,,"{""Q0"":""Beth and Jane are flirting with each other.""}","<img src=""stim_listA/flirt8.gif""style=""height:400px;""></stim_listA>",are flirting with each other,
null,"<div style=""font-size:60px;"">+</div>",,html-keyboard-response,319,1390841,0.0-17.0-0.18,80260,List2A,black,man,,,,null,,,,
null,"<img src=""stim_listA/marry1.gif""style=""height:400px;""></stim_listA>",,html-keyboard-response,320,1392844,0.0-17.0-1.18,80260,List2A,black,man,,,,null,,,,
null,is marrying,,html-keyboard-response,321,1394846,0.0-17.0-2.18,80260,List2A,black,man,,,,null,,,,
11417,,,survey-text,322,1406265,0.0-17.0-3.18,80260,List2A,black,man,,,,,"{""Q0"":""Ruth is marrying Dave.""}","<img src=""stim_listA/marry1.gif""style=""height:400px;""></stim_listA>",is marrying,
null,"<div style=""font-size:60px;"">+</div>",,html-keyboard-response,323,1406767,0.0-17.0-0.19,80260,List2A,black,man,,,,null,,,,
null,"<img src=""stim_listA/play2.gif""style=""height:400px;""></stim_listA>",,html-keyboard-response,324,1408773,0.0-17.0-1.19,80260,List2A,black,man,,,,null,,,,
null,are playing with each other,,html-keyboard-response,325,1410775,0.0-17.0-2.19,80260,List2A,black,man,,,,null,,,,
15150,,,survey-text,326,1425928,0.0-17.0-3.19,80260,List2A,black,man,,,,,"{""Q0"":""Luke and Ruth are playing with each other.""}","<img src=""stim_listA/play2.gif""style=""height:400px;""></stim_listA>",are playing with each other,
7590,"<img src='img/portrait_matrix_list2.jpg' style='width:900px;height:500px;''></img><p>If you have memorised all the portraits and names and are ready to start, press Continue.</p><p><strong>Please note: Your memory of these faces will be tested 4 times during this experiment.</strong></p>",0,html-button-response,327,1433520,0.0-18.0-0.0,80260,List2A,black,man,,,,,,,,
6333,"<img src=""portrait/WW2.jpg""style=""height:400px;""></img>",3,html-button-response,328,1440857,0.0-18.0-1.0,80260,List2A,black,man,,TRUE,3,,,,,
null,CORRECT,,html-keyboard-response,329,1442360,0.0-18.0-2.0-0.0,80260,List2A,black,man,,,,null,,,,
1869,"<img src=""portrait/WW1.jpg""style=""height:400px;""></img>",1,html-button-response,330,1444230,0.0-18.0-4.0,80260,List2A,black,man,,TRUE,1,,,,,
null,CORRECT,,html-keyboard-response,331,1445734,0.0-18.0-5.0-0.0,80260,List2A,black,man,,,,null,,,,
3447,"<img src=""portrait/WM2.jpg""style=""height:400px;""></img>",7,html-button-response,332,1449184,0.0-18.0-7.0,80260,List2A,black,man,,TRUE,7,,,,,
null,CORRECT,,html-keyboard-response,333,1450686,0.0-18.0-8.0-0.0,80260,List2A,black,man,,,,null,,,,
1054,"<img src=""portrait/WM1.jpg""style=""height:400px;""></img>",6,html-button-response,334,1451743,0.0-18.0-10.0,80260,List2A,black,man,,TRUE,6,,,,,
null,CORRECT,,html-keyboard-response,335,1453245,0.0-18.0-11.0-0.0,80260,List2A,black,man,,,,null,,,,
2064,"<img src=""portrait/BW2.jpg""style=""height:400px;""></img>",2,html-button-response,336,1455311,0.0-18.0-13.0,80260,List2A,black,man,,TRUE,2,,,,,
null,CORRECT,,html-keyboard-response,337,1456813,0.0-18.0-14.0-0.0,80260,List2A,black,man,,,,null,,,,
2332,"<img src=""portrait/BM2.jpg""style=""height:400px;""></img>",5,html-button-response,338,1459147,0.0-18.0-16.0,80260,List2A,black,man,,TRUE,5,,,,,
null,CORRECT,,html-keyboard-response,339,1460650,0.0-18.0-17.0-0.0,80260,List2A,black,man,,,,null,,,,
3185,"<img src=""portrait/BW1.jpg""style=""height:400px;""></img>",0,html-button-response,340,1463838,0.0-18.0-19.0,80260,List2A,black,man,,TRUE,0,,,,,
null,CORRECT,,html-keyboard-response,341,1465342,0.0-18.0-20.0-0.0,80260,List2A,black,man,,,,null,,,,
3087,"<img src=""portrait/BM1.jpg""style=""height:400px;""></img>",4,html-button-response,342,1468431,0.0-18.0-22.0,80260,List2A,black,man,,TRUE,4,,,,,
null,CORRECT,,html-keyboard-response,343,1469935,0.0-18.0-23.0-0.0,80260,List2A,black,man,,,,null,,,,
2254,<p>You got 8 out of 8 right first time. Press Continue.</p>,0,html-button-response,344,1472192,0.0-18.0-25.0,80260,List2A,black,man,,,,,,,,
null,"<div style=""font-size:60px;"">+</div>",,html-keyboard-response,345,1473696,0.0-19.0-0.0,80260,List2A,black,man,,,,null,,,,
null,"<img src=""stim_listA/talk8.gif""style=""height:400px;""></stim_listA>",,html-keyboard-response,346,1475700,0.0-19.0-1.0,80260,List2A,black,man,,,,null,,,,
null,are talking to each other,,html-keyboard-response,347,1477701,0.0-19.0-2.0,80260,List2A,black,man,,,,null,,,,
17227,,,survey-text,348,1494930,0.0-19.0-3.0,80260,List2A,black,man,,,,,"{""Q0"":""Beth and Jane are talking to each other.""}","<img src=""stim_listA/talk8.gif""style=""height:400px;""></stim_listA>",are talking to each other,
null,"<div style=""font-size:60px;"">+</div>",,html-keyboard-response,349,1495431,0.0-19.0-0.1,80260,List2A,black,man,,,,null,,,,
null,"<img src=""stim_listA/shout4.gif""style=""height:400px;""></stim_listA>",,html-keyboard-response,350,1497436,0.0-19.0-1.1,80260,List2A,black,man,,,,null,,,,
null,are shouting at each other,,html-keyboard-response,351,1499438,0.0-19.0-2.1,80260,List2A,black,man,,,,null,,,,
9947,,,survey-text,352,1509387,0.0-19.0-3.1,80260,List2A,black,man,,,,,"{""Q0"":""Mike and Jane are shouting at each other.""}","<img src=""stim_listA/shout4.gif""style=""height:400px;""></stim_listA>",are shouting at each other,
null,"<div style=""font-size:60px;"">+</div>",,html-keyboard-response,353,1509889,0.0-19.0-0.2,80260,List2A,black,man,,,,null,,,,
null,"<img src=""stim_listA/marry5.gif""style=""height:400px;""></stim_listA>",,html-keyboard-response,354,1511893,0.0-19.0-1.2,80260,List2A,black,man,,,,null,,,,
null,is marrying,,html-keyboard-response,355,1513895,0.0-19.0-2.2,80260,List2A,black,man,,,,null,,,,
15778,,,survey-text,356,1529675,0.0-19.0-3.2,80260,List2A,black,man,,,,,"{""Q0"":""Fred is marrying Dave.""}","<img src=""stim_listA/marry5.gif""style=""height:400px;""></stim_listA>",is marrying,
null,"<div style=""font-size:60px;"">+</div>",,html-keyboard-response,357,1530178,0.0-19.0-0.3,80260,List2A,black,man,,,,null,,,,
null,"<img src=""stim_listA/dance7.gif""style=""height:400px;""></stim_listA>",,html-keyboard-response,358,1532182,0.0-19.0-1.3,80260,List2A,black,man,,,,null,,,,
null,is dancing with,,html-keyboard-response,359,1534184,0.0-19.0-2.3,80260,List2A,black,man,,,,null,,,,
17410,,,survey-text,360,1551597,0.0-19.0-3.3,80260,List2A,black,man,,,,,"{""Q0"":""Ruth is dancing with Kate.""}","<img src=""stim_listA/dance7.gif""style=""height:400px;""></stim_listA>",is dancing with,
null,"<div style=""font-size:60px;"">+</div>",,html-keyboard-response,361,1552099,0.0-19.0-0.4,80260,List2A,black,man,,,,null,,,,
null,"<img src=""stim_listA/argue3.gif""style=""height:400px;""></stim_listA>",,html-keyboard-response,362,1554104,0.0-19.0-1.4,80260,List2A,black,man,,,,null,,,,
null,is arguing with,,html-keyboard-response,363,1556105,0.0-19.0-2.4,80260,List2A,black,man,,,,null,,,,
12733,,,survey-text,364,1568840,0.0-19.0-3.4,80260,List2A,black,man,,,,,"{""Q0"":""Mike is arguing with Beth.""}","<img src=""stim_listA/argue3.gif""style=""height:400px;""></stim_listA>",is arguing with,
null,"<div style=""font-size:60px;"">+</div>",,html-keyboard-response,365,1569341,0.0-19.0-0.5,80260,List2A,black,man,,,,null,,,,
null,"<img src=""stim_listA/talk7.gif""style=""height:400px;""></stim_listA>",,html-keyboard-response,366,1571346,0.0-19.0-1.5,80260,List2A,black,man,,,,null,,,,
null,is talking to,,html-keyboard-response,367,1573348,0.0-19.0-2.5,80260,List2A,black,man,,,,null,,,,
17286,,,survey-text,368,1590635,0.0-19.0-3.5,80260,List2A,black,man,,,,,"{""Q0"":""Kate is talking to Ruth.""}","<img src=""stim_listA/talk7.gif""style=""height:400px;""></stim_listA>",is talking to,
null,"<div style=""font-size:60px;"">+</div>",,html-keyboard-response,369,1591137,0.0-19.0-0.6,80260,List2A,black,man,,,,null,,,,
null,"<img src=""stim_listA/talk5.gif""style=""height:400px;""></stim_listA>",,html-keyboard-response,370,1593139,0.0-19.0-1.6,80260,List2A,black,man,,,,null,,,,
null,is talking to,,html-keyboard-response,371,1595140,0.0-19.0-2.6,80260,List2A,black,man,,,,null,,,,
7288,,,survey-text,372,1602431,0.0-19.0-3.6,80260,List2A,black,man,,,,,"{""Q0"":""Mike is talking to Luke.""}","<img src=""stim_listA/talk5.gif""style=""height:400px;""></stim_listA>",is talking to,
null,"<div style=""font-size:60px;"">+</div>",,html-keyboard-response,373,1602932,0.0-19.0-0.7,80260,List2A,black,man,,,,null,,,,
null,"<img src=""stim_listA/argue2.gif""style=""height:400px;""></stim_listA>",,html-keyboard-response,374,1604937,0.0-19.0-1.7,80260,List2A,black,man,,,,null,,,,
null,are arguing with each other,,html-keyboard-response,375,1606938,0.0-19.0-2.7,80260,List2A,black,man,,,,null,,,,
11989,,,survey-text,376,1618928,0.0-19.0-3.7,80260,List2A,black,man,,,,,"{""Q0"":""Luke and Jane are arguing with each other.""}","<img src=""stim_listA/argue2.gif""style=""height:400px;""></stim_listA>",are arguing with each other,
null,"<div style=""font-size:60px;"">+</div>",,html-keyboard-response,377,1619430,0.0-19.0-0.8,80260,List2A,black,man,,,,null,,,,
null,"<img src=""stim_listA/touch3.gif""style=""height:400px;""></stim_listA>",,html-keyboard-response,378,1621435,0.0-19.0-1.8,80260,List2A,black,man,,,,null,,,,
null,is touching,,html-keyboard-response,379,1623436,0.0-19.0-2.8,80260,List2A,black,man,,,,null,,,,
18122,,,survey-text,380,1641561,0.0-19.0-3.8,80260,List2A,black,man,,,,,"{""Q0"":""Mike is touching Kate.""}","<img src=""stim_listA/touch3.gif""style=""height:400px;""></stim_listA>",is touching,
null,"<div style=""font-size:60px;"">+</div>",,html-keyboard-response,381,1642063,0.0-19.0-0.9,80260,List2A,black,man,,,,null,,,,
null,"<img src=""stim_listA/flirt7.gif""style=""height:400px;""></stim_listA>",,html-keyboard-response,382,1644069,0.0-19.0-1.9,80260,List2A,black,man,,,,null,,,,
null,is flirting with,,html-keyboard-response,383,1646070,0.0-19.0-2.9,80260,List2A,black,man,,,,null,,,,
19170,,,survey-text,384,1665243,0.0-19.0-3.9,80260,List2A,black,man,,,,,"{""Q0"":""Kate is flirting with Ruth.""}","<img src=""stim_listA/flirt7.gif""style=""height:400px;""></stim_listA>",is flirting with,
null,"<div style=""font-size:60px;"">+</div>",,html-keyboard-response,385,1665745,0.0-19.0-0.10,80260,List2A,black,man,,,,null,,,,
null,"<img src=""stim_listA/kiss3.gif""style=""height:400px;""></stim_listA>",,html-keyboard-response,386,1667749,0.0-19.0-1.10,80260,List2A,black,man,,,,null,,,,
null,is kissing,,html-keyboard-response,387,1669751,0.0-19.0-2.10,80260,List2A,black,man,,,,null,,,,
7985,,,survey-text,388,1677738,0.0-19.0-3.10,80260,List2A,black,man,,,,,"{""Q0"":""Fred is kissing Beth.""}","<img src=""stim_listA/kiss3.gif""style=""height:400px;""></stim_listA>",is kissing,
null,"<div style=""font-size:60px;"">+</div>",,html-keyboard-response,389,1678240,0.0-19.0-0.11,80260,List2A,black,man,,,,null,,,,
null,"<img src=""stim_listA/flirt2.gif""style=""height:400px;""></stim_listA>",,html-keyboard-response,390,1680244,0.0-19.0-1.11,80260,List2A,black,man,,,,null,,,,
null,are flirting with each other,,html-keyboard-response,391,1682246,0.0-19.0-2.11,80260,List2A,black,man,,,,null,,,,
10908,,,survey-text,392,1693156,0.0-19.0-3.11,80260,List2A,black,man,,,,,"{""Q0"":""Dave and Ruth are flirting with each other.""}","<img src=""stim_listA/flirt2.gif""style=""height:400px;""></stim_listA>",are flirting with each other,
null,"<div style=""font-size:60px;"">+</div>",,html-keyboard-response,393,1693657,0.0-19.0-0.12,80260,List2A,black,man,,,,null,,,,
null,"<img src=""stim_listA/talk4.gif""style=""height:400px;""></stim_listA>",,html-keyboard-response,394,1695660,0.0-19.0-1.12,80260,List2A,black,man,,,,null,,,,
null,are talking to each other,,html-keyboard-response,395,1697661,0.0-19.0-2.12,80260,List2A,black,man,,,,null,,,,
12255,,,survey-text,396,1709917,0.0-19.0-3.12,80260,List2A,black,man,,,,,"{""Q0"":""Mike and Beth are talking to each other.""}","<img src=""stim_listA/talk4.gif""style=""height:400px;""></stim_listA>",are talking to each other,
null,"<div style=""font-size:60px;"">+</div>",,html-keyboard-response,397,1710419,0.0-19.0-0.13,80260,List2A,black,man,,,,null,,,,
null,"<img src=""stim_listA/shout8.gif""style=""height:400px;""></stim_listA>",,html-keyboard-response,398,1712423,0.0-19.0-1.13,80260,List2A,black,man,,,,null,,,,
null,are shouting at each other,,html-keyboard-response,399,1714425,0.0-19.0-2.13,80260,List2A,black,man,,,,null,,,,
15137,,,survey-text,400,1729565,0.0-19.0-3.13,80260,List2A,black,man,,,,,"{""Q0"":""Jane and Kate are shouting at each other.""}","<img src=""stim_listA/shout8.gif""style=""height:400px;""></stim_listA>",are shouting at each other,
null,"<div style=""font-size:60px;"">+</div>",,html-keyboard-response,401,1730067,0.0-19.0-0.14,80260,List2A,black,man,,,,null,,,,
null,"<img src=""stim_listA/marry6.gif""style=""height:400px;""></stim_listA>",,html-keyboard-response,402,1732071,0.0-19.0-1.14,80260,List2A,black,man,,,,null,,,,
null,are marrying each other,,html-keyboard-response,403,1734074,0.0-19.0-2.14,80260,List2A,black,man,,,,null,,,,
18271,,,survey-text,404,1752347,0.0-19.0-3.14,80260,List2A,black,man,,,,,"{""Q0"":""Mike and Luke are marrying each other.""}","<img src=""stim_listA/marry6.gif""style=""height:400px;""></stim_listA>",are marrying each other,
null,"<div style=""font-size:60px;"">+</div>",,html-keyboard-response,405,1752849,0.0-19.0-0.15,80260,List2A,black,man,,,,null,,,,
null,"<img src=""stim_listA/touch4.gif""style=""height:400px;""></stim_listA>",,html-keyboard-response,406,1754853,0.0-19.0-1.15,80260,List2A,black,man,,,,null,,,,
null,are touching each other,,html-keyboard-response,407,1756855,0.0-19.0-2.15,80260,List2A,black,man,,,,null,,,,
22025,,,survey-text,408,1778882,0.0-19.0-3.15,80260,List2A,black,man,,,,,"{""Q0"":""Beth and Fred are touching each other.""}","<img src=""stim_listA/touch4.gif""style=""height:400px;""></stim_listA>",are touching each other,
null,"<div style=""font-size:60px;"">+</div>",,html-keyboard-response,409,1779384,0.0-19.0-0.16,80260,List2A,black,man,,,,null,,,,
null,"<img src=""stim_listA/argue5.gif""style=""height:400px;""></stim_listA>",,html-keyboard-response,410,1781389,0.0-19.0-1.16,80260,List2A,black,man,,,,null,,,,
null,is arguing with,,html-keyboard-response,411,1783391,0.0-19.0-2.16,80260,List2A,black,man,,,,null,,,,
9388,,,survey-text,412,1792782,0.0-19.0-3.16,80260,List2A,black,man,,,,,"{""Q0"":""Dave is arguing with Fred.""}","<img src=""stim_listA/argue5.gif""style=""height:400px;""></stim_listA>",is arguing with,
null,"<div style=""font-size:60px;"">+</div>",,html-keyboard-response,413,1793284,0.0-19.0-0.17,80260,List2A,black,man,,,,null,,,,
null,"<img src=""stim_listA/flirt1.gif""style=""height:400px;""></stim_listA>",,html-keyboard-response,414,1795288,0.0-19.0-1.17,80260,List2A,black,man,,,,null,,,,
null,is flirting with,,html-keyboard-response,415,1797289,0.0-19.0-2.17,80260,List2A,black,man,,,,null,,,,
16341,,,survey-text,416,1813631,0.0-19.0-3.17,80260,List2A,black,man,,,,,"{""Q0"":""Luke is flirting with Jane.""}","<img src=""stim_listA/flirt1.gif""style=""height:400px;""></stim_listA>",is flirting with,
null,"<div style=""font-size:60px;"">+</div>",,html-keyboard-response,417,1814133,0.0-19.0-0.18,80260,List2A,black,man,,,,null,,,,
null,"<img src=""stim_listA/touch1.gif""style=""height:400px;""></stim_listA>",,html-keyboard-response,418,1816137,0.0-19.0-1.18,80260,List2A,black,man,,,,null,,,,
null,is touching,,html-keyboard-response,419,1818138,0.0-19.0-2.18,80260,List2A,black,man,,,,null,,,,
7322,,,survey-text,420,1825462,0.0-19.0-3.18,80260,List2A,black,man,,,,,"{""Q0"":""Dave is touching Jane.""}","<img src=""stim_listA/touch1.gif""style=""height:400px;""></stim_listA>",is touching,
null,"<div style=""font-size:60px;"">+</div>",,html-keyboard-response,421,1825964,0.0-19.0-0.19,80260,List2A,black,man,,,,null,,,,
null,"<img src=""stim_listA/flirt5.gif""style=""height:400px;""></stim_listA>",,html-keyboard-response,422,1827967,0.0-19.0-1.19,80260,List2A,black,man,,,,null,,,,
null,is flirting with,,html-keyboard-response,423,1829969,0.0-19.0-2.19,80260,List2A,black,man,,,,null,,,,
9649,,,survey-text,424,1839620,0.0-19.0-3.19,80260,List2A,black,man,,,,,"{""Q0"":""Mike is flirting with Luke.""}","<img src=""stim_listA/flirt5.gif""style=""height:400px;""></stim_listA>",is flirting with,
2139,<p>Thank you for completing that task.</p><p>The final part of this session is a short questionnaire.</p><p>Press Continue.</p>,0,html-button-response,425,1841759,0.0-20.0,80260,List2A,black,man,,,,,,,,
30253,,,survey-text,426,1873017,0.0-21.0,80260,List2A,black,man,,,,,"{""Q0"":""19"",""Q1"":""English"",""Q2"":""English"",""Q3"":""United States of America"",""Q4"":""Black/African American"",""Q5"":""Male""}",,,demographics
6019,,,survey-likert,427,1879039,0.0-22.0,80260,List2A,black,man,,,,,"{""Q0"":4}",,,likert_ESS
8905,,,survey-likert,428,1887950,0.0-23.0,80260,List2A,black,man,,,,,"{""Q0"":4}",,,likert_NSSAL_Q1
6460,,,survey-likert,429,1894416,0.0-24.0,80260,List2A,black,man,,,,,"{""Q0"":4}",,,likert_NSSAL_Q2
6533,,,survey-likert,430,1900956,0.0-25.0,80260,List2A,black,man,,,,,"{""Q0"":4}",,,likert_CGRS_Q1
4360,,,survey-likert,431,1905323,0.0-26.0,80260,List2A,black,man,,,,,"{""Q0"":4}",,,likert_CGRS_Q2
5065,,,survey-likert,432,1910395,0.0-27.0,80260,List2A,black,man,,,,,"{""Q0"":4}",,,likert_CGRS_Q3
9676,,,survey-text,433,1920076,0.0-28.0,80260,List2A,black,man,,,,,"{""Q0"":""ccc""}",,,worker_id
38723,,,external-html,434,1959183,0.0-29.0,80260,List2A,black,man,debrief.html,,,,,,,
