rt,stimulus,button_pressed,trial_type,trial_index,time_elapsed,internal_node_id,subject,list,ppt_race,ppt_gender,url,first_guess,correct,key_press,responses,image_type,phrase_type,test_part
1711,Welcome to the experiment. Press Continue to begin.,0,html-button-response,0,1720,0.0-0.0,8032,List2A,black,woman,,,,,,,,
91538,,,external-html,1,94403,0.0-1.0,8032,List2A,black,woman,consent.html,,,,,,,
67074,"<p>On the next page, you will see portraits of 8 people and their names.</p><p>Your first task is to take a few minutes to memorise the names of these people.</p><p>You will have to recall their names during the rest of the experiment, so it is</p><p>essential that you try to memorise these people and their names as best as you can.</p><br><p><strong>You will then be tested on your memory of these names and portraits.</strong></p><br><p>The experiment will start after you have completed this memory test.</p><br><p>Ready?</p>",0,html-button-response,2,161486,0.0-2.0,8032,List2A,black,woman,,,,,,,,
65499,"<img src='img/portrait_matrix_list2.jpg' style='width:900px;height:500px;''></img><p>If you have memorised all the portraits and names and are ready to start, press Continue.</p><p><strong>Please note: Your memory of these faces will be tested 4 times during this experiment.</strong></p>",0,html-button-response,3,228007,0.0-3.0-0.0,8032,List2A,black,woman,,,,,,,,
13574,"<img src=""portrait/WM1.jpg""style=""height:400px;""></img>",6,html-button-response,4,242593,0.0-3.0-1.0,8032,List2A,black,woman,,TRUE,6,,,,,
null,CORRECT,,html-keyboard-response,5,244112,0.0-3.0-2.0-0.0,8032,List2A,black,woman,,,,null,,,,
4303,"<img src=""portrait/BM1.jpg""style=""height:400px;""></img>",4,html-button-response,6,248419,0.0-3.0-4.0,8032,List2A,black,woman,,TRUE,4,,,,,
null,CORRECT,,html-keyboard-response,7,249943,0.0-3.0-5.0-0.0,8032,List2A,black,woman,,,,null,,,,
3782,"<img src=""portrait/BW2.jpg""style=""height:400px;""></img>",2,html-button-response,8,253728,0.0-3.0-7.0,8032,List2A,black,woman,,TRUE,2,,,,,
null,CORRECT,,html-keyboard-response,9,255241,0.0-3.0-8.0-0.0,8032,List2A,black,woman,,,,null,,,,
3591,"<img src=""portrait/BW1.jpg""style=""height:400px;""></img>",0,html-button-response,10,258839,0.0-3.0-10.0,8032,List2A,black,woman,,TRUE,0,,,,,
null,CORRECT,,html-keyboard-response,11,260368,0.0-3.0-11.0-0.0,8032,List2A,black,woman,,,,null,,,,
3277,"<img src=""portrait/WM2.jpg""style=""height:400px;""></img>",7,html-button-response,12,263649,0.0-3.0-13.0,8032,List2A,black,woman,,TRUE,7,,,,,
null,CORRECT,,html-keyboard-response,13,265168,0.0-3.0-14.0-0.0,8032,List2A,black,woman,,,,null,,,,
1783,"<img src=""portrait/BM2.jpg""style=""height:400px;""></img>",5,html-button-response,14,266955,0.0-3.0-16.0,8032,List2A,black,woman,,TRUE,5,,,,,
null,CORRECT,,html-keyboard-response,15,268462,0.0-3.0-17.0-0.0,8032,List2A,black,woman,,,,null,,,,
6030,"<img src=""portrait/WW2.jpg""style=""height:400px;""></img>",3,html-button-response,16,274495,0.0-3.0-19.0,8032,List2A,black,woman,,TRUE,3,,,,,
null,CORRECT,,html-keyboard-response,17,276018,0.0-3.0-20.0-0.0,8032,List2A,black,woman,,,,null,,,,
5761,"<img src=""portrait/WW1.jpg""style=""height:400px;""></img>",1,html-button-response,18,281783,0.0-3.0-22.0,8032,List2A,black,woman,,TRUE,1,,,,,
null,CORRECT,,html-keyboard-response,19,283299,0.0-3.0-23.0-0.0,8032,List2A,black,woman,,,,null,,,,
2569,<p>You got 8 out of 8 right first time. Press Continue.</p>,0,html-button-response,20,285873,0.0-3.0-25.0,8032,List2A,black,woman,,,,,,,,
34314,"<p>In this experiment, you will view photographs of the people from the memory game interacting.</p><p>By using the <strong>exact</strong> phrase given <i>after</i> the photograph appears and recalling the correct names of the people in the photographs, form a sentence describing the interaction. You do not need to capitalise names.</p><p>Type your answer in the space provided. Please complete every sentence before moving onto the next trial.</p><p>You will only have a few seconds to memorise each given photograph and phrase before you can respond, so try your best to focus.</p><p>An example is given below. Press 'Continue' when you are ready.</p><img src='img/speaking_example.jpg' style='width:800px;height:460px;''></img>",0,html-button-response,21,321202,0.0-4.0,8032,List2A,black,woman,,,,,,,,
4476,"<p>Before the experiment starts, you will watch two example trials. Press 'Continue'.</p>",0,html-button-response,22,326694,0.0-5.0,8032,List2A,black,woman,,,,,,,,
null,<img src='img/meet_eg.gif' style='height:400px;''></img>,,html-keyboard-response,23,329713,0.0-6.0,8032,List2A,black,woman,,,,null,,,,
null,<p>is meeting</p>,,html-keyboard-response,24,331722,0.0-7.0,8032,List2A,black,woman,,,,null,,,,
7102,<p><b>Answer:</b> jane is meeting ruth</p>,0,html-button-response,25,338828,0.0-8.0,8032,List2A,black,woman,,,,,,,,
null,<img src='img/look_eg.gif' style='height:400px;''></img>,,html-keyboard-response,26,341837,0.0-9.0,8032,List2A,black,woman,,,,null,,,,
null,<p>are looking at each other</p>,,html-keyboard-response,27,343841,0.0-10.0,8032,List2A,black,woman,,,,null,,,,
3175,<p><b>Answer:</b> fred and mike are looking at each other</p>,0,html-button-response,28,347020,0.0-11.0,8032,List2A,black,woman,,,,,,,,
9603,"<p>Ready to start the experiment?</p><br><p><strong>Remember to describe the picture using a full sentence,</strong></p><p><strong>that combines the names of the people with the <i>exact</i> phrase given.</strong></p><p><strong>To receive full payment you must do this correctly.</strong></p><p><strong> You do not need to capitalise names or use punctuation.</strong></p><br><p>Press 'Continue' to begin.</p>",0,html-button-response,29,357633,0.0-12.0,8032,List2A,black,woman,,,,,,,,
null,"<div style=""font-size:60px;"">+</div>",,html-keyboard-response,30,359152,0.0-13.0-0.0,8032,List2A,black,woman,,,,null,,,,
null,"<img src=""stim_listA/kiss5.gif""style=""height:400px;""></stim_listA>",,html-keyboard-response,31,361164,0.0-13.0-1.0,8032,List2A,black,woman,,,,null,,,,
null,is kissing,,html-keyboard-response,32,363169,0.0-13.0-2.0,8032,List2A,black,woman,,,,null,,,,
16464,,,survey-text,33,379638,0.0-13.0-3.0,8032,List2A,black,woman,,,,,"{""Q0"":""fred is kissing luke""}","<img src=""stim_listA/kiss5.gif""style=""height:400px;""></stim_listA>",is kissing,
null,"<div style=""font-size:60px;"">+</div>",,html-keyboard-response,34,380148,0.0-13.0-0.1,8032,List2A,black,woman,,,,null,,,,
null,"<img src=""stim_listA/shout4.gif""style=""height:400px;""></stim_listA>",,html-keyboard-response,35,382154,0.0-13.0-1.1,8032,List2A,black,woman,,,,null,,,,
null,are shouting at each other,,html-keyboard-response,36,384160,0.0-13.0-2.1,8032,List2A,black,woman,,,,null,,,,
19251,,,survey-text,37,403414,0.0-13.0-3.1,8032,List2A,black,woman,,,,,"{""Q0"":""kate and mike are shouting at each other""}","<img src=""stim_listA/shout4.gif""style=""height:400px;""></stim_listA>",are shouting at each other,
null,"<div style=""font-size:60px;"">+</div>",,html-keyboard-response,38,403922,0.0-13.0-0.2,8032,List2A,black,woman,,,,null,,,,
null,"<img src=""stim_listA/argue5.gif""style=""height:400px;""></stim_listA>",,html-keyboard-response,39,405931,0.0-13.0-1.2,8032,List2A,black,woman,,,,null,,,,
null,is arguing with,,html-keyboard-response,40,407937,0.0-13.0-2.2,8032,List2A,black,woman,,,,null,,,,
13973,,,survey-text,41,421914,0.0-13.0-3.2,8032,List2A,black,woman,,,,,"{""Q0"":""fred is arguing with dave""}","<img src=""stim_listA/argue5.gif""style=""height:400px;""></stim_listA>",is arguing with,
null,"<div style=""font-size:60px;"">+</div>",,html-keyboard-response,42,422428,0.0-13.0-0.3,8032,List2A,black,woman,,,,null,,,,
null,"<img src=""stim_listA/flirt3.gif""style=""height:400px;""></stim_listA>",,html-keyboard-response,43,424440,0.0-13.0-1.3,8032,List2A,black,woman,,,,null,,,,
null,is flirting with,,html-keyboard-response,44,426450,0.0-13.0-2.3,8032,List2A,black,woman,,,,null,,,,
16631,,,survey-text,45,443083,0.0-13.0-3.3,8032,List2A,black,woman,,,,,"{""Q0"":""kate is flirting with fred""}","<img src=""stim_listA/flirt3.gif""style=""height:400px;""></stim_listA>",is flirting with,
null,"<div style=""font-size:60px;"">+</div>",,html-keyboard-response,46,443592,0.0-13.0-0.4,8032,List2A,black,woman,,,,null,,,,
null,"<img src=""stim_listA/fight6.gif""style=""height:400px;""></stim_listA>",,html-keyboard-response,47,445599,0.0-13.0-1.4,8032,List2A,black,woman,,,,null,,,,
null,are fighting each other,,html-keyboard-response,48,447614,0.0-13.0-2.4,8032,List2A,black,woman,,,,null,,,,
13441,,,survey-text,49,461060,0.0-13.0-3.4,8032,List2A,black,woman,,,,,"{""Q0"":""fred and luke are fighting each other ""}","<img src=""stim_listA/fight6.gif""style=""height:400px;""></stim_listA>",are fighting each other,
null,"<div style=""font-size:60px;"">+</div>",,html-keyboard-response,50,461577,0.0-13.0-0.5,8032,List2A,black,woman,,,,null,,,,
null,"<img src=""stim_listA/argue4.gif""style=""height:400px;""></stim_listA>",,html-keyboard-response,51,463583,0.0-13.0-1.5,8032,List2A,black,woman,,,,null,,,,
null,are arguing with each other,,html-keyboard-response,52,465594,0.0-13.0-2.5,8032,List2A,black,woman,,,,null,,,,
25626,,,survey-text,53,491225,0.0-13.0-3.5,8032,List2A,black,woman,,,,,"{""Q0"":""luke and kate are arguing with each other""}","<img src=""stim_listA/argue4.gif""style=""height:400px;""></stim_listA>",are arguing with each other,
null,"<div style=""font-size:60px;"">+</div>",,html-keyboard-response,54,491741,0.0-13.0-0.6,8032,List2A,black,woman,,,,null,,,,
null,"<img src=""stim_listA/fight3.gif""style=""height:400px;""></stim_listA>",,html-keyboard-response,55,493753,0.0-13.0-1.6,8032,List2A,black,woman,,,,null,,,,
null,is fighting,,html-keyboard-response,56,495756,0.0-13.0-2.6,8032,List2A,black,woman,,,,null,,,,
14730,,,survey-text,57,510488,0.0-13.0-3.6,8032,List2A,black,woman,,,,,"{""Q0"":""mike is fighting beth""}","<img src=""stim_listA/fight3.gif""style=""height:400px;""></stim_listA>",is fighting,
null,"<div style=""font-size:60px;"">+</div>",,html-keyboard-response,58,510999,0.0-13.0-0.7,8032,List2A,black,woman,,,,null,,,,
null,"<img src=""stim_listA/play3.gif""style=""height:400px;""></stim_listA>",,html-keyboard-response,59,513013,0.0-13.0-1.7,8032,List2A,black,woman,,,,null,,,,
null,is playing with,,html-keyboard-response,60,515018,0.0-13.0-2.7,8032,List2A,black,woman,,,,null,,,,
17728,,,survey-text,61,532748,0.0-13.0-3.7,8032,List2A,black,woman,,,,,"{""Q0"":""mike is playing with kate""}","<img src=""stim_listA/play3.gif""style=""height:400px;""></stim_listA>",is playing with,
null,"<div style=""font-size:60px;"">+</div>",,html-keyboard-response,62,533263,0.0-13.0-0.8,8032,List2A,black,woman,,,,null,,,,
null,"<img src=""stim_listA/marry2.gif""style=""height:400px;""></stim_listA>",,html-keyboard-response,63,535280,0.0-13.0-1.8,8032,List2A,black,woman,,,,null,,,,
null,are marrying each other,,html-keyboard-response,64,537285,0.0-13.0-2.8,8032,List2A,black,woman,,,,null,,,,
21186,,,survey-text,65,558473,0.0-13.0-3.8,8032,List2A,black,woman,,,,,"{""Q0"":""luke and jane are marrying each other""}","<img src=""stim_listA/marry2.gif""style=""height:400px;""></stim_listA>",are marrying each other,
null,"<div style=""font-size:60px;"">+</div>",,html-keyboard-response,66,558994,0.0-13.0-0.9,8032,List2A,black,woman,,,,null,,,,
null,"<img src=""stim_listA/argue1.gif""style=""height:400px;""></stim_listA>",,html-keyboard-response,67,560999,0.0-13.0-1.9,8032,List2A,black,woman,,,,null,,,,
null,is arguing with,,html-keyboard-response,68,563000,0.0-13.0-2.9,8032,List2A,black,woman,,,,null,,,,
22547,,,survey-text,69,585549,0.0-13.0-3.9,8032,List2A,black,woman,,,,,"{""Q0"":""cant remember the phrase""}","<img src=""stim_listA/argue1.gif""style=""height:400px;""></stim_listA>",is arguing with,
null,"<div style=""font-size:60px;"">+</div>",,html-keyboard-response,70,586056,0.0-13.0-0.10,8032,List2A,black,woman,,,,null,,,,
null,"<img src=""stim_listA/touch6.gif""style=""height:400px;""></stim_listA>",,html-keyboard-response,71,588063,0.0-13.0-1.10,8032,List2A,black,woman,,,,null,,,,
null,are touching each other,,html-keyboard-response,72,590066,0.0-13.0-2.10,8032,List2A,black,woman,,,,null,,,,
17481,,,survey-text,73,607551,0.0-13.0-3.10,8032,List2A,black,woman,,,,,"{""Q0"":""luke and fred are touching each other ""}","<img src=""stim_listA/touch6.gif""style=""height:400px;""></stim_listA>",are touching each other,
null,"<div style=""font-size:60px;"">+</div>",,html-keyboard-response,74,608066,0.0-13.0-0.11,8032,List2A,black,woman,,,,null,,,,
null,"<img src=""stim_listA/flirt5.gif""style=""height:400px;""></stim_listA>",,html-keyboard-response,75,610077,0.0-13.0-1.11,8032,List2A,black,woman,,,,null,,,,
null,is flirting with,,html-keyboard-response,76,612085,0.0-13.0-2.11,8032,List2A,black,woman,,,,null,,,,
8510,,,survey-text,77,620598,0.0-13.0-3.11,8032,List2A,black,woman,,,,,"{""Q0"":""mike is flirting with luke""}","<img src=""stim_listA/flirt5.gif""style=""height:400px;""></stim_listA>",is flirting with,
null,"<div style=""font-size:60px;"">+</div>",,html-keyboard-response,78,621112,0.0-13.0-0.12,8032,List2A,black,woman,,,,null,,,,
null,"<img src=""stim_listA/argue6.gif""style=""height:400px;""></stim_listA>",,html-keyboard-response,79,623119,0.0-13.0-1.12,8032,List2A,black,woman,,,,null,,,,
null,are arguing with each other,,html-keyboard-response,80,625133,0.0-13.0-2.12,8032,List2A,black,woman,,,,null,,,,
4201,,,survey-text,81,629337,0.0-13.0-3.12,8032,List2A,black,woman,,,,,"{""Q0"":""""}","<img src=""stim_listA/argue6.gif""style=""height:400px;""></stim_listA>",are arguing with each other,
null,"<div style=""font-size:60px;"">+</div>",,html-keyboard-response,82,629850,0.0-13.0-0.13,8032,List2A,black,woman,,,,null,,,,
null,"<img src=""stim_listA/dance6.gif""style=""height:400px;""></stim_listA>",,html-keyboard-response,83,631858,0.0-13.0-1.13,8032,List2A,black,woman,,,,null,,,,
null,are dancing with each other,,html-keyboard-response,84,633874,0.0-13.0-2.13,8032,List2A,black,woman,,,,null,,,,
29231,,,survey-text,85,663107,0.0-13.0-3.13,8032,List2A,black,woman,,,,,"{""Q0"":""dave and mike are dancing with each other ""}","<img src=""stim_listA/dance6.gif""style=""height:400px;""></stim_listA>",are dancing with each other,
null,"<div style=""font-size:60px;"">+</div>",,html-keyboard-response,86,663614,0.0-13.0-0.14,8032,List2A,black,woman,,,,null,,,,
null,"<img src=""stim_listA/kiss7.gif""style=""height:400px;""></stim_listA>",,html-keyboard-response,87,665621,0.0-13.0-1.14,8032,List2A,black,woman,,,,null,,,,
null,is kissing,,html-keyboard-response,88,667627,0.0-13.0-2.14,8032,List2A,black,woman,,,,null,,,,
8886,,,survey-text,89,676516,0.0-13.0-3.14,8032,List2A,black,woman,,,,,"{""Q0"":""kate is kissing ruth""}","<img src=""stim_listA/kiss7.gif""style=""height:400px;""></stim_listA>",is kissing,
null,"<div style=""font-size:60px;"">+</div>",,html-keyboard-response,90,677029,0.0-13.0-0.15,8032,List2A,black,woman,,,,null,,,,
null,"<img src=""stim_listA/shout8.gif""style=""height:400px;""></stim_listA>",,html-keyboard-response,91,679034,0.0-13.0-1.15,8032,List2A,black,woman,,,,null,,,,
null,are shouting at each other,,html-keyboard-response,92,681040,0.0-13.0-2.15,8032,List2A,black,woman,,,,null,,,,
23773,,,survey-text,93,704815,0.0-13.0-3.15,8032,List2A,black,woman,,,,,"{""Q0"":""kate and ruth are shouting at each other ""}","<img src=""stim_listA/shout8.gif""style=""height:400px;""></stim_listA>",are shouting at each other,
null,"<div style=""font-size:60px;"">+</div>",,html-keyboard-response,94,705318,0.0-13.0-0.16,8032,List2A,black,woman,,,,null,,,,
null,"<img src=""stim_listA/kiss8.gif""style=""height:400px;""></stim_listA>",,html-keyboard-response,95,707323,0.0-13.0-1.16,8032,List2A,black,woman,,,,null,,,,
null,are kissing each other,,html-keyboard-response,96,709325,0.0-13.0-2.16,8032,List2A,black,woman,,,,null,,,,
14050,,,survey-text,97,723378,0.0-13.0-3.16,8032,List2A,black,woman,,,,,"{""Q0"":""kate and ruth are kissing each other""}","<img src=""stim_listA/kiss8.gif""style=""height:400px;""></stim_listA>",are kissing each other,
null,"<div style=""font-size:60px;"">+</div>",,html-keyboard-response,98,723889,0.0-13.0-0.17,8032,List2A,black,woman,,,,null,,,,
null,"<img src=""stim_listA/play2.gif""style=""height:400px;""></stim_listA>",,html-keyboard-response,99,725906,0.0-13.0-1.17,8032,List2A,black,woman,,,,null,,,,
null,are playing with each other,,html-keyboard-response,100,727911,0.0-13.0-2.17,8032,List2A,black,woman,,,,null,,,,
35840,,,survey-text,101,763755,0.0-13.0-3.17,8032,List2A,black,woman,,,,,"{""Q0"":""luke and ruth are playing with each other ""}","<img src=""stim_listA/play2.gif""style=""height:400px;""></stim_listA>",are playing with each other,
null,"<div style=""font-size:60px;"">+</div>",,html-keyboard-response,102,764273,0.0-13.0-0.18,8032,List2A,black,woman,,,,null,,,,
null,"<img src=""stim_listA/fight2.gif""style=""height:400px;""></stim_listA>",,html-keyboard-response,103,766278,0.0-13.0-1.18,8032,List2A,black,woman,,,,null,,,,
null,are fighting each other,,html-keyboard-response,104,768289,0.0-13.0-2.18,8032,List2A,black,woman,,,,null,,,,
27736,,,survey-text,105,796028,0.0-13.0-3.18,8032,List2A,black,woman,,,,,"{""Q0"":""luke and ruth are fighting each other""}","<img src=""stim_listA/fight2.gif""style=""height:400px;""></stim_listA>",are fighting each other,
null,"<div style=""font-size:60px;"">+</div>",,html-keyboard-response,106,796545,0.0-13.0-0.19,8032,List2A,black,woman,,,,null,,,,
null,"<img src=""stim_listA/marry8.gif""style=""height:400px;""></stim_listA>",,html-keyboard-response,107,798555,0.0-13.0-1.19,8032,List2A,black,woman,,,,null,,,,
null,are marrying each other,,html-keyboard-response,108,800559,0.0-13.0-2.19,8032,List2A,black,woman,,,,null,,,,
13680,,,survey-text,109,814241,0.0-13.0-3.19,8032,List2A,black,woman,,,,,"{""Q0"":""ruth and kate are marrying each other ""}","<img src=""stim_listA/marry8.gif""style=""height:400px;""></stim_listA>",are marrying each other,
9066,"<img src='img/portrait_matrix_list2.jpg' style='width:900px;height:500px;''></img><p>If you have memorised all the portraits and names and are ready to start, press Continue.</p><p><strong>Please note: Your memory of these faces will be tested 4 times during this experiment.</strong></p>",0,html-button-response,110,823310,0.0-14.0-0.0,8032,List2A,black,woman,,,,,,,,
9397,"<img src=""portrait/BM1.jpg""style=""height:400px;""></img>",4,html-button-response,111,833717,0.0-14.0-1.0,8032,List2A,black,woman,,TRUE,4,,,,,
null,CORRECT,,html-keyboard-response,112,835234,0.0-14.0-2.0-0.0,8032,List2A,black,woman,,,,null,,,,
1557,"<img src=""portrait/WM2.jpg""style=""height:400px;""></img>",7,html-button-response,113,836798,0.0-14.0-4.0,8032,List2A,black,woman,,TRUE,7,,,,,
null,CORRECT,,html-keyboard-response,114,838319,0.0-14.0-5.0-0.0,8032,List2A,black,woman,,,,null,,,,
3010,"<img src=""portrait/BW1.jpg""style=""height:400px;""></img>",2,html-button-response,115,841333,0.0-14.0-7.0,8032,List2A,black,woman,,TRUE,0,,,,,
3845,"<img src=""portrait/BW1.jpg""style=""height:400px;""></img>",0,html-button-response,116,846188,0.0-14.0-9.0-0.0,8032,List2A,black,woman,,FALSE,0,,,,,
null,CORRECT,,html-keyboard-response,117,847695,0.0-14.0-9.0-1.0-0.0,8032,List2A,black,woman,,,,null,,,,
2477,"<img src=""portrait/WM1.jpg""style=""height:400px;""></img>",6,html-button-response,118,850176,0.0-14.0-10.0,8032,List2A,black,woman,,TRUE,6,,,,,
null,CORRECT,,html-keyboard-response,119,851691,0.0-14.0-11.0-0.0,8032,List2A,black,woman,,,,null,,,,
1116,"<img src=""portrait/BM2.jpg""style=""height:400px;""></img>",5,html-button-response,120,852811,0.0-14.0-13.0,8032,List2A,black,woman,,TRUE,5,,,,,
null,CORRECT,,html-keyboard-response,121,854334,0.0-14.0-14.0-0.0,8032,List2A,black,woman,,,,null,,,,
5985,"<img src=""portrait/WW1.jpg""style=""height:400px;""></img>",1,html-button-response,122,860326,0.0-14.0-16.0,8032,List2A,black,woman,,TRUE,1,,,,,
null,CORRECT,,html-keyboard-response,123,861837,0.0-14.0-17.0-0.0,8032,List2A,black,woman,,,,null,,,,
2170,"<img src=""portrait/BW2.jpg""style=""height:400px;""></img>",2,html-button-response,124,864012,0.0-14.0-19.0,8032,List2A,black,woman,,TRUE,2,,,,,
null,CORRECT,,html-keyboard-response,125,865515,0.0-14.0-20.0-0.0,8032,List2A,black,woman,,,,null,,,,
4534,"<img src=""portrait/WW2.jpg""style=""height:400px;""></img>",3,html-button-response,126,870053,0.0-14.0-22.0,8032,List2A,black,woman,,TRUE,3,,,,,
null,CORRECT,,html-keyboard-response,127,871578,0.0-14.0-23.0-0.0,8032,List2A,black,woman,,,,null,,,,
2371,<p>You got 7 out of 8 right first time. Press Continue.</p>,0,html-button-response,128,873953,0.0-14.0-25.0,8032,List2A,black,woman,,,,,,,,
3675,"As you did not score 100%, the memory game will repeat. Press Continue.",0,html-button-response,129,878632,0.0-14.0-26.0-0.0,8032,List2A,black,woman,,,,,,,,
6008,"<img src='img/portrait_matrix_list2.jpg' style='width:900px;height:500px;''></img><p>If you have memorised all the portraits and names and are ready to start, press Continue.</p><p><strong>Please note: Your memory of these faces will be tested 4 times during this experiment.</strong></p>",0,html-button-response,130,885659,0.0-14.1-0.1,8032,List2A,black,woman,,,,,,,,
3051,"<img src=""portrait/BM1.jpg""style=""height:400px;""></img>",4,html-button-response,131,889728,0.0-14.1-1.1,8032,List2A,black,woman,,TRUE,4,,,,,
null,CORRECT,,html-keyboard-response,132,891234,0.0-14.1-2.1-0.1,8032,List2A,black,woman,,,,null,,,,
1767,"<img src=""portrait/WM2.jpg""style=""height:400px;""></img>",5,html-button-response,133,893009,0.0-14.1-4.1,8032,List2A,black,woman,,TRUE,7,,,,,
9074,"<img src=""portrait/WM2.jpg""style=""height:400px;""></img>",7,html-button-response,134,903096,0.0-14.1-6.1-0.1,8032,List2A,black,woman,,FALSE,7,,,,,
null,CORRECT,,html-keyboard-response,135,904611,0.0-14.1-6.1-1.1-0.1,8032,List2A,black,woman,,,,null,,,,
4608,"<img src=""portrait/BW1.jpg""style=""height:400px;""></img>",0,html-button-response,136,909222,0.0-14.1-7.1,8032,List2A,black,woman,,TRUE,0,,,,,
null,CORRECT,,html-keyboard-response,137,910738,0.0-14.1-8.1-0.1,8032,List2A,black,woman,,,,null,,,,
2483,"<img src=""portrait/WM1.jpg""style=""height:400px;""></img>",6,html-button-response,138,913225,0.0-14.1-10.1,8032,List2A,black,woman,,TRUE,6,,,,,
null,CORRECT,,html-keyboard-response,139,914748,0.0-14.1-11.1-0.1,8032,List2A,black,woman,,,,null,,,,
1028,"<img src=""portrait/BM2.jpg""style=""height:400px;""></img>",5,html-button-response,140,915782,0.0-14.1-13.1,8032,List2A,black,woman,,TRUE,5,,,,,
null,CORRECT,,html-keyboard-response,141,917293,0.0-14.1-14.1-0.1,8032,List2A,black,woman,,,,null,,,,
3419,"<img src=""portrait/WW1.jpg""style=""height:400px;""></img>",1,html-button-response,142,920717,0.0-14.1-16.1,8032,List2A,black,woman,,TRUE,1,,,,,
null,CORRECT,,html-keyboard-response,143,922224,0.0-14.1-17.1-0.1,8032,List2A,black,woman,,,,null,,,,
2363,"<img src=""portrait/BW2.jpg""style=""height:400px;""></img>",2,html-button-response,144,924592,0.0-14.1-19.1,8032,List2A,black,woman,,TRUE,2,,,,,
null,CORRECT,,html-keyboard-response,145,926114,0.0-14.1-20.1-0.1,8032,List2A,black,woman,,,,null,,,,
2834,"<img src=""portrait/WW2.jpg""style=""height:400px;""></img>",3,html-button-response,146,928955,0.0-14.1-22.1,8032,List2A,black,woman,,TRUE,3,,,,,
null,CORRECT,,html-keyboard-response,147,930474,0.0-14.1-23.1-0.1,8032,List2A,black,woman,,,,null,,,,
895,<p>You got 7 out of 8 right first time. Press Continue.</p>,0,html-button-response,148,931375,0.0-14.1-25.1,8032,List2A,black,woman,,,,,,,,
955,"As you did not score 100%, the memory game will repeat. Press Continue.",0,html-button-response,149,933347,0.0-14.1-26.1-0.1,8032,List2A,black,woman,,,,,,,,
1079,"<img src='img/portrait_matrix_list2.jpg' style='width:900px;height:500px;''></img><p>If you have memorised all the portraits and names and are ready to start, press Continue.</p><p><strong>Please note: Your memory of these faces will be tested 4 times during this experiment.</strong></p>",0,html-button-response,150,935439,0.0-14.2-0.2,8032,List2A,black,woman,,,,,,,,
1631,"<img src=""portrait/BM1.jpg""style=""height:400px;""></img>",4,html-button-response,151,938088,0.0-14.2-1.2,8032,List2A,black,woman,,TRUE,4,,,,,
null,CORRECT,,html-keyboard-response,152,939598,0.0-14.2-2.2-0.2,8032,List2A,black,woman,,,,null,,,,
925,"<img src=""portrait/WM2.jpg""style=""height:400px;""></img>",7,html-button-response,153,940531,0.0-14.2-4.2,8032,List2A,black,woman,,TRUE,7,,,,,
null,CORRECT,,html-keyboard-response,154,942045,0.0-14.2-5.2-0.2,8032,List2A,black,woman,,,,null,,,,
2755,"<img src=""portrait/BW1.jpg""style=""height:400px;""></img>",0,html-button-response,155,944803,0.0-14.2-7.2,8032,List2A,black,woman,,TRUE,0,,,,,
null,CORRECT,,html-keyboard-response,156,946319,0.0-14.2-8.2-0.2,8032,List2A,black,woman,,,,null,,,,
3110,"<img src=""portrait/WM1.jpg""style=""height:400px;""></img>",6,html-button-response,157,949438,0.0-14.2-10.2,8032,List2A,black,woman,,TRUE,6,,,,,
null,CORRECT,,html-keyboard-response,158,950959,0.0-14.2-11.2-0.2,8032,List2A,black,woman,,,,null,,,,
2096,"<img src=""portrait/BM2.jpg""style=""height:400px;""></img>",5,html-button-response,159,953063,0.0-14.2-13.2,8032,List2A,black,woman,,TRUE,5,,,,,
null,CORRECT,,html-keyboard-response,160,954569,0.0-14.2-14.2-0.2,8032,List2A,black,woman,,,,null,,,,
2451,"<img src=""portrait/WW1.jpg""style=""height:400px;""></img>",1,html-button-response,161,957024,0.0-14.2-16.2,8032,List2A,black,woman,,TRUE,1,,,,,
null,CORRECT,,html-keyboard-response,162,958532,0.0-14.2-17.2-0.2,8032,List2A,black,woman,,,,null,,,,
4488,"<img src=""portrait/BW2.jpg""style=""height:400px;""></img>",2,html-button-response,163,963028,0.0-14.2-19.2,8032,List2A,black,woman,,TRUE,2,,,,,
null,CORRECT,,html-keyboard-response,164,964558,0.0-14.2-20.2-0.2,8032,List2A,black,woman,,,,null,,,,
2908,"<img src=""portrait/WW2.jpg""style=""height:400px;""></img>",3,html-button-response,165,967474,0.0-14.2-22.2,8032,List2A,black,woman,,TRUE,3,,,,,
null,CORRECT,,html-keyboard-response,166,968989,0.0-14.2-23.2-0.2,8032,List2A,black,woman,,,,null,,,,
1269,<p>You got 8 out of 8 right first time. Press Continue.</p>,0,html-button-response,167,970262,0.0-14.2-25.2,8032,List2A,black,woman,,,,,,,,
null,"<div style=""font-size:60px;"">+</div>",,html-keyboard-response,168,971786,0.0-15.0-0.0,8032,List2A,black,woman,,,,null,,,,
null,"<img src=""stim_listA/touch7.gif""style=""height:400px;""></stim_listA>",,html-keyboard-response,169,973791,0.0-15.0-1.0,8032,List2A,black,woman,,,,null,,,,
null,is touching,,html-keyboard-response,170,975797,0.0-15.0-2.0,8032,List2A,black,woman,,,,null,,,,
11979,,,survey-text,171,987780,0.0-15.0-3.0,8032,List2A,black,woman,,,,,"{""Q0"":""jane is touching kate""}","<img src=""stim_listA/touch7.gif""style=""height:400px;""></stim_listA>",is touching,
null,"<div style=""font-size:60px;"">+</div>",,html-keyboard-response,172,988284,0.0-15.0-0.1,8032,List2A,black,woman,,,,null,,,,
null,"<img src=""stim_listA/play7.gif""style=""height:400px;""></stim_listA>",,html-keyboard-response,173,990293,0.0-15.0-1.1,8032,List2A,black,woman,,,,null,,,,
null,is playing with,,html-keyboard-response,174,992301,0.0-15.0-2.1,8032,List2A,black,woman,,,,null,,,,
7549,,,survey-text,175,999853,0.0-15.0-3.1,8032,List2A,black,woman,,,,,"{""Q0"":""kate is playing with jane""}","<img src=""stim_listA/play7.gif""style=""height:400px;""></stim_listA>",is playing with,
null,"<div style=""font-size:60px;"">+</div>",,html-keyboard-response,176,1000359,0.0-15.0-0.2,8032,List2A,black,woman,,,,null,,,,
null,"<img src=""stim_listA/argue8.gif""style=""height:400px;""></stim_listA>",,html-keyboard-response,177,1002370,0.0-15.0-1.2,8032,List2A,black,woman,,,,null,,,,
null,are arguing with each other,,html-keyboard-response,178,1004377,0.0-15.0-2.2,8032,List2A,black,woman,,,,null,,,,
15247,,,survey-text,179,1019628,0.0-15.0-3.2,8032,List2A,black,woman,,,,,"{""Q0"":""kate and ruth are arguing with each other""}","<img src=""stim_listA/argue8.gif""style=""height:400px;""></stim_listA>",are arguing with each other,
null,"<div style=""font-size:60px;"">+</div>",,html-keyboard-response,180,1020147,0.0-15.0-0.3,8032,List2A,black,woman,,,,null,,,,
null,"<img src=""stim_listA/flirt4.gif""style=""height:400px;""></stim_listA>",,html-keyboard-response,181,1022151,0.0-15.0-1.3,8032,List2A,black,woman,,,,null,,,,
null,are flirting with each other,,html-keyboard-response,182,1024163,0.0-15.0-2.3,8032,List2A,black,woman,,,,null,,,,
12239,,,survey-text,183,1036404,0.0-15.0-3.3,8032,List2A,black,woman,,,,,"{""Q0"":""mike and beth are flirting with each other ""}","<img src=""stim_listA/flirt4.gif""style=""height:400px;""></stim_listA>",are flirting with each other,
null,"<div style=""font-size:60px;"">+</div>",,html-keyboard-response,184,1036916,0.0-15.0-0.4,8032,List2A,black,woman,,,,null,,,,
null,"<img src=""stim_listA/talk1.gif""style=""height:400px;""></stim_listA>",,html-keyboard-response,185,1038921,0.0-15.0-1.4,8032,List2A,black,woman,,,,null,,,,
null,is talking to,,html-keyboard-response,186,1040936,0.0-15.0-2.4,8032,List2A,black,woman,,,,null,,,,
19171,,,survey-text,187,1060111,0.0-15.0-3.4,8032,List2A,black,woman,,,,,"{""Q0"":""dave is talking to jane ""}","<img src=""stim_listA/talk1.gif""style=""height:400px;""></stim_listA>",is talking to,
null,"<div style=""font-size:60px;"">+</div>",,html-keyboard-response,188,1060616,0.0-15.0-0.5,8032,List2A,black,woman,,,,null,,,,
null,"<img src=""stim_listA/shout7.gif""style=""height:400px;""></stim_listA>",,html-keyboard-response,189,1062631,0.0-15.0-1.5,8032,List2A,black,woman,,,,null,,,,
null,is shouting at,,html-keyboard-response,190,1064635,0.0-15.0-2.5,8032,List2A,black,woman,,,,null,,,,
8586,,,survey-text,191,1073223,0.0-15.0-3.5,8032,List2A,black,woman,,,,,"{""Q0"":""beth is shouting at ruth""}","<img src=""stim_listA/shout7.gif""style=""height:400px;""></stim_listA>",is shouting at,
null,"<div style=""font-size:60px;"">+</div>",,html-keyboard-response,192,1073726,0.0-15.0-0.6,8032,List2A,black,woman,,,,null,,,,
null,"<img src=""stim_listA/touch1.gif""style=""height:400px;""></stim_listA>",,html-keyboard-response,193,1075733,0.0-15.0-1.6,8032,List2A,black,woman,,,,null,,,,
null,is touching,,html-keyboard-response,194,1077745,0.0-15.0-2.6,8032,List2A,black,woman,,,,null,,,,
7352,,,survey-text,195,1085100,0.0-15.0-3.6,8032,List2A,black,woman,,,,,"{""Q0"":""jane is touching dave""}","<img src=""stim_listA/touch1.gif""style=""height:400px;""></stim_listA>",is touching,
null,"<div style=""font-size:60px;"">+</div>",,html-keyboard-response,196,1085603,0.0-15.0-0.7,8032,List2A,black,woman,,,,null,,,,
null,"<img src=""stim_listA/shout6.gif""style=""height:400px;""></stim_listA>",,html-keyboard-response,197,1087608,0.0-15.0-1.7,8032,List2A,black,woman,,,,null,,,,
null,are shouting at each other,,html-keyboard-response,198,1089612,0.0-15.0-2.7,8032,List2A,black,woman,,,,null,,,,
11006,,,survey-text,199,1100623,0.0-15.0-3.7,8032,List2A,black,woman,,,,,"{""Q0"":""mike and dave are shouting at each other""}","<img src=""stim_listA/shout6.gif""style=""height:400px;""></stim_listA>",are shouting at each other,
null,"<div style=""font-size:60px;"">+</div>",,html-keyboard-response,200,1101138,0.0-15.0-0.8,8032,List2A,black,woman,,,,null,,,,
null,"<img src=""stim_listA/talk7.gif""style=""height:400px;""></stim_listA>",,html-keyboard-response,201,1103146,0.0-15.0-1.8,8032,List2A,black,woman,,,,null,,,,
null,is talking to,,html-keyboard-response,202,1105151,0.0-15.0-2.8,8032,List2A,black,woman,,,,null,,,,
7996,,,survey-text,203,1113151,0.0-15.0-3.8,8032,List2A,black,woman,,,,,"{""Q0"":""kate is talking to ruth""}","<img src=""stim_listA/talk7.gif""style=""height:400px;""></stim_listA>",is talking to,
null,"<div style=""font-size:60px;"">+</div>",,html-keyboard-response,204,1113666,0.0-15.0-0.9,8032,List2A,black,woman,,,,null,,,,
null,"<img src=""stim_listA/dance7.gif""style=""height:400px;""></stim_listA>",,html-keyboard-response,205,1115673,0.0-15.0-1.9,8032,List2A,black,woman,,,,null,,,,
null,is dancing with,,html-keyboard-response,206,1117680,0.0-15.0-2.9,8032,List2A,black,woman,,,,null,,,,
8071,,,survey-text,207,1125753,0.0-15.0-3.9,8032,List2A,black,woman,,,,,"{""Q0"":""kate is dancing with ruth""}","<img src=""stim_listA/dance7.gif""style=""height:400px;""></stim_listA>",is dancing with,
null,"<div style=""font-size:60px;"">+</div>",,html-keyboard-response,208,1126261,0.0-15.0-0.10,8032,List2A,black,woman,,,,null,,,,
null,"<img src=""stim_listA/marry7.gif""style=""height:400px;""></stim_listA>",,html-keyboard-response,209,1128272,0.0-15.0-1.10,8032,List2A,black,woman,,,,null,,,,
null,is marrying,,html-keyboard-response,210,1130274,0.0-15.0-2.10,8032,List2A,black,woman,,,,null,,,,
6040,,,survey-text,211,1136319,0.0-15.0-3.10,8032,List2A,black,woman,,,,,"{""Q0"":""beth is marrying jane""}","<img src=""stim_listA/marry7.gif""style=""height:400px;""></stim_listA>",is marrying,
null,"<div style=""font-size:60px;"">+</div>",,html-keyboard-response,212,1136821,0.0-15.0-0.11,8032,List2A,black,woman,,,,null,,,,
null,"<img src=""stim_listA/shout5.gif""style=""height:400px;""></stim_listA>",,html-keyboard-response,213,1138828,0.0-15.0-1.11,8032,List2A,black,woman,,,,null,,,,
null,is shouting at,,html-keyboard-response,214,1140832,0.0-15.0-2.11,8032,List2A,black,woman,,,,null,,,,
10595,,,survey-text,215,1151431,0.0-15.0-3.11,8032,List2A,black,woman,,,,,"{""Q0"":""luke is shouting at fred ""}","<img src=""stim_listA/shout5.gif""style=""height:400px;""></stim_listA>",is shouting at,
null,"<div style=""font-size:60px;"">+</div>",,html-keyboard-response,216,1151942,0.0-15.0-0.12,8032,List2A,black,woman,,,,null,,,,
null,"<img src=""stim_listA/argue3.gif""style=""height:400px;""></stim_listA>",,html-keyboard-response,217,1153959,0.0-15.0-1.12,8032,List2A,black,woman,,,,null,,,,
null,is arguing with,,html-keyboard-response,218,1155970,0.0-15.0-2.12,8032,List2A,black,woman,,,,null,,,,
10486,,,survey-text,219,1166460,0.0-15.0-3.12,8032,List2A,black,woman,,,,,"{""Q0"":""mike is arguing with beth""}","<img src=""stim_listA/argue3.gif""style=""height:400px;""></stim_listA>",is arguing with,
null,"<div style=""font-size:60px;"">+</div>",,html-keyboard-response,220,1166967,0.0-15.0-0.13,8032,List2A,black,woman,,,,null,,,,
null,"<img src=""stim_listA/marry1.gif""style=""height:400px;""></stim_listA>",,html-keyboard-response,221,1168971,0.0-15.0-1.13,8032,List2A,black,woman,,,,null,,,,
null,is marrying,,html-keyboard-response,222,1170982,0.0-15.0-2.13,8032,List2A,black,woman,,,,null,,,,
5513,,,survey-text,223,1176500,0.0-15.0-3.13,8032,List2A,black,woman,,,,,"{""Q0"":""dave is marrying ruth""}","<img src=""stim_listA/marry1.gif""style=""height:400px;""></stim_listA>",is marrying,
null,"<div style=""font-size:60px;"">+</div>",,html-keyboard-response,224,1177003,0.0-15.0-0.14,8032,List2A,black,woman,,,,null,,,,
null,"<img src=""stim_listA/kiss3.gif""style=""height:400px;""></stim_listA>",,html-keyboard-response,225,1179011,0.0-15.0-1.14,8032,List2A,black,woman,,,,null,,,,
null,is kissing,,html-keyboard-response,226,1181013,0.0-15.0-2.14,8032,List2A,black,woman,,,,null,,,,
6294,,,survey-text,227,1187310,0.0-15.0-3.14,8032,List2A,black,woman,,,,,"{""Q0"":""beth is kissing fred ""}","<img src=""stim_listA/kiss3.gif""style=""height:400px;""></stim_listA>",is kissing,
null,"<div style=""font-size:60px;"">+</div>",,html-keyboard-response,228,1187821,0.0-15.0-0.15,8032,List2A,black,woman,,,,null,,,,
null,"<img src=""stim_listA/kiss6.gif""style=""height:400px;""></stim_listA>",,html-keyboard-response,229,1189832,0.0-15.0-1.15,8032,List2A,black,woman,,,,null,,,,
null,are kissing each other,,html-keyboard-response,230,1191840,0.0-15.0-2.15,8032,List2A,black,woman,,,,null,,,,
10281,,,survey-text,231,1202125,0.0-15.0-3.15,8032,List2A,black,woman,,,,,"{""Q0"":""mike and dave are kissing each other ""}","<img src=""stim_listA/kiss6.gif""style=""height:400px;""></stim_listA>",are kissing each other,
null,"<div style=""font-size:60px;"">+</div>",,html-keyboard-response,232,1202639,0.0-15.0-0.16,8032,List2A,black,woman,,,,null,,,,
null,"<img src=""stim_listA/dance4.gif""style=""height:400px;""></stim_listA>",,html-keyboard-response,233,1204648,0.0-15.0-1.16,8032,List2A,black,woman,,,,null,,,,
null,are dancing with each other,,html-keyboard-response,234,1206660,0.0-15.0-2.16,8032,List2A,black,woman,,,,null,,,,
9615,,,survey-text,235,1216277,0.0-15.0-3.16,8032,List2A,black,woman,,,,,"{""Q0"":""mike and beth are dancing with each other ""}","<img src=""stim_listA/dance4.gif""style=""height:400px;""></stim_listA>",are dancing with each other,
null,"<div style=""font-size:60px;"">+</div>",,html-keyboard-response,236,1216781,0.0-15.0-0.17,8032,List2A,black,woman,,,,null,,,,
null,"<img src=""stim_listA/flirt6.gif""style=""height:400px;""></stim_listA>",,html-keyboard-response,237,1218795,0.0-15.0-1.17,8032,List2A,black,woman,,,,null,,,,
null,are flirting with each other,,html-keyboard-response,238,1220809,0.0-15.0-2.17,8032,List2A,black,woman,,,,null,,,,
15406,,,survey-text,239,1236219,0.0-15.0-3.17,8032,List2A,black,woman,,,,,"{""Q0"":""fred and dave are flirting with each other ""}","<img src=""stim_listA/flirt6.gif""style=""height:400px;""></stim_listA>",are flirting with each other,
null,"<div style=""font-size:60px;"">+</div>",,html-keyboard-response,240,1236731,0.0-15.0-0.18,8032,List2A,black,woman,,,,null,,,,
null,"<img src=""stim_listA/touch8.gif""style=""height:400px;""></stim_listA>",,html-keyboard-response,241,1238737,0.0-15.0-1.18,8032,List2A,black,woman,,,,null,,,,
null,are touching each other,,html-keyboard-response,242,1240743,0.0-15.0-2.18,8032,List2A,black,woman,,,,null,,,,
14232,,,survey-text,243,1254980,0.0-15.0-3.18,8032,List2A,black,woman,,,,,"{""Q0"":""beth and ruth are touching each other ""}","<img src=""stim_listA/touch8.gif""style=""height:400px;""></stim_listA>",are touching each other,
null,"<div style=""font-size:60px;"">+</div>",,html-keyboard-response,244,1255491,0.0-15.0-0.19,8032,List2A,black,woman,,,,null,,,,
null,"<img src=""stim_listA/play8.gif""style=""height:400px;""></stim_listA>",,html-keyboard-response,245,1257496,0.0-15.0-1.19,8032,List2A,black,woman,,,,null,,,,
null,are playing with each other,,html-keyboard-response,246,1259504,0.0-15.0-2.19,8032,List2A,black,woman,,,,null,,,,
10356,,,survey-text,247,1269865,0.0-15.0-3.19,8032,List2A,black,woman,,,,,"{""Q0"":""beth and ruth are playing with each other ""}","<img src=""stim_listA/play8.gif""style=""height:400px;""></stim_listA>",are playing with each other,
3698,"<img src='img/portrait_matrix_list2.jpg' style='width:900px;height:500px;''></img><p>If you have memorised all the portraits and names and are ready to start, press Continue.</p><p><strong>Please note: Your memory of these faces will be tested 4 times during this experiment.</strong></p>",0,html-button-response,248,1273566,0.0-16.0-0.0,8032,List2A,black,woman,,,,,,,,
2320,"<img src=""portrait/BW1.jpg""style=""height:400px;""></img>",0,html-button-response,249,1276891,0.0-16.0-1.0,8032,List2A,black,woman,,TRUE,0,,,,,
null,CORRECT,,html-keyboard-response,250,1278403,0.0-16.0-2.0-0.0,8032,List2A,black,woman,,,,null,,,,
5128,"<img src=""portrait/WM1.jpg""style=""height:400px;""></img>",6,html-button-response,251,1283536,0.0-16.0-4.0,8032,List2A,black,woman,,TRUE,6,,,,,
null,CORRECT,,html-keyboard-response,252,1285064,0.0-16.0-5.0-0.0,8032,List2A,black,woman,,,,null,,,,
2869,"<img src=""portrait/WW1.jpg""style=""height:400px;""></img>",1,html-button-response,253,1287938,0.0-16.0-7.0,8032,List2A,black,woman,,TRUE,1,,,,,
null,CORRECT,,html-keyboard-response,254,1289451,0.0-16.0-8.0-0.0,8032,List2A,black,woman,,,,null,,,,
2460,"<img src=""portrait/BM1.jpg""style=""height:400px;""></img>",4,html-button-response,255,1291916,0.0-16.0-10.0,8032,List2A,black,woman,,TRUE,4,,,,,
null,CORRECT,,html-keyboard-response,256,1293425,0.0-16.0-11.0-0.0,8032,List2A,black,woman,,,,null,,,,
4059,"<img src=""portrait/WM2.jpg""style=""height:400px;""></img>",7,html-button-response,257,1297489,0.0-16.0-13.0,8032,List2A,black,woman,,TRUE,7,,,,,
null,CORRECT,,html-keyboard-response,258,1299008,0.0-16.0-14.0-0.0,8032,List2A,black,woman,,,,null,,,,
1904,"<img src=""portrait/BM2.jpg""style=""height:400px;""></img>",5,html-button-response,259,1300916,0.0-16.0-16.0,8032,List2A,black,woman,,TRUE,5,,,,,
null,CORRECT,,html-keyboard-response,260,1302438,0.0-16.0-17.0-0.0,8032,List2A,black,woman,,,,null,,,,
2877,"<img src=""portrait/BW2.jpg""style=""height:400px;""></img>",2,html-button-response,261,1305318,0.0-16.0-19.0,8032,List2A,black,woman,,TRUE,2,,,,,
null,CORRECT,,html-keyboard-response,262,1306833,0.0-16.0-20.0-0.0,8032,List2A,black,woman,,,,null,,,,
2813,"<img src=""portrait/WW2.jpg""style=""height:400px;""></img>",3,html-button-response,263,1309651,0.0-16.0-22.0,8032,List2A,black,woman,,TRUE,3,,,,,
null,CORRECT,,html-keyboard-response,264,1311169,0.0-16.0-23.0-0.0,8032,List2A,black,woman,,,,null,,,,
1152,<p>You got 8 out of 8 right first time. Press Continue.</p>,0,html-button-response,265,1312328,0.0-16.0-25.0,8032,List2A,black,woman,,,,,,,,
null,"<div style=""font-size:60px;"">+</div>",,html-keyboard-response,266,1313839,0.0-17.0-0.0,8032,List2A,black,woman,,,,null,,,,
null,"<img src=""stim_listA/argue7.gif""style=""height:400px;""></stim_listA>",,html-keyboard-response,267,1315843,0.0-17.0-1.0,8032,List2A,black,woman,,,,null,,,,
null,is arguing with,,html-keyboard-response,268,1317848,0.0-17.0-2.0,8032,List2A,black,woman,,,,null,,,,
12384,,,survey-text,269,1330236,0.0-17.0-3.0,8032,List2A,black,woman,,,,,"{""Q0"":""jane is arguing with beth""}","<img src=""stim_listA/argue7.gif""style=""height:400px;""></stim_listA>",is arguing with,
null,"<div style=""font-size:60px;"">+</div>",,html-keyboard-response,270,1330740,0.0-17.0-0.1,8032,List2A,black,woman,,,,null,,,,
null,"<img src=""stim_listA/kiss1.gif""style=""height:400px;""></stim_listA>",,html-keyboard-response,271,1332744,0.0-17.0-1.1,8032,List2A,black,woman,,,,null,,,,
null,is kissing,,html-keyboard-response,272,1334761,0.0-17.0-2.1,8032,List2A,black,woman,,,,null,,,,
6266,,,survey-text,273,1341029,0.0-17.0-3.1,8032,List2A,black,woman,,,,,"{""Q0"":""luke is kissing ruth""}","<img src=""stim_listA/kiss1.gif""style=""height:400px;""></stim_listA>",is kissing,
null,"<div style=""font-size:60px;"">+</div>",,html-keyboard-response,274,1341542,0.0-17.0-0.2,8032,List2A,black,woman,,,,null,,,,
null,"<img src=""stim_listA/shout2.gif""style=""height:400px;""></stim_listA>",,html-keyboard-response,275,1343553,0.0-17.0-1.2,8032,List2A,black,woman,,,,null,,,,
null,are shouting at each other,,html-keyboard-response,276,1345556,0.0-17.0-2.2,8032,List2A,black,woman,,,,null,,,,
10747,,,survey-text,277,1356308,0.0-17.0-3.2,8032,List2A,black,woman,,,,,"{""Q0"":""jane and dave are shouting at each other ""}","<img src=""stim_listA/shout2.gif""style=""height:400px;""></stim_listA>",are shouting at each other,
null,"<div style=""font-size:60px;"">+</div>",,html-keyboard-response,278,1356811,0.0-17.0-0.3,8032,List2A,black,woman,,,,null,,,,
null,"<img src=""stim_listA/shout3.gif""style=""height:400px;""></stim_listA>",,html-keyboard-response,279,1358817,0.0-17.0-1.3,8032,List2A,black,woman,,,,null,,,,
null,is shouting at,,html-keyboard-response,280,1360824,0.0-17.0-2.3,8032,List2A,black,woman,,,,null,,,,
5787,,,survey-text,281,1366616,0.0-17.0-3.3,8032,List2A,black,woman,,,,,"{""Q0"":""beth is shouting at fred""}","<img src=""stim_listA/shout3.gif""style=""height:400px;""></stim_listA>",is shouting at,
null,"<div style=""font-size:60px;"">+</div>",,html-keyboard-response,282,1367127,0.0-17.0-0.4,8032,List2A,black,woman,,,,null,,,,
null,"<img src=""stim_listA/marry3.gif""style=""height:400px;""></stim_listA>",,html-keyboard-response,283,1369136,0.0-17.0-1.4,8032,List2A,black,woman,,,,null,,,,
null,is marrying,,html-keyboard-response,284,1371147,0.0-17.0-2.4,8032,List2A,black,woman,,,,null,,,,
3778,,,survey-text,285,1374929,0.0-17.0-3.4,8032,List2A,black,woman,,,,,"{""Q0"":""mike is marrying beth""}","<img src=""stim_listA/marry3.gif""style=""height:400px;""></stim_listA>",is marrying,
null,"<div style=""font-size:60px;"">+</div>",,html-keyboard-response,286,1375445,0.0-17.0-0.5,8032,List2A,black,woman,,,,null,,,,
null,"<img src=""stim_listA/flirt8.gif""style=""height:400px;""></stim_listA>",,html-keyboard-response,287,1377461,0.0-17.0-1.5,8032,List2A,black,woman,,,,null,,,,
null,are flirting with each other,,html-keyboard-response,288,1379477,0.0-17.0-2.5,8032,List2A,black,woman,,,,null,,,,
14413,,,survey-text,289,1393895,0.0-17.0-3.5,8032,List2A,black,woman,,,,,"{""Q0"":""beth and jane are flirting with each other ""}","<img src=""stim_listA/flirt8.gif""style=""height:400px;""></stim_listA>",are flirting with each other,
null,"<div style=""font-size:60px;"">+</div>",,html-keyboard-response,290,1394401,0.0-17.0-0.6,8032,List2A,black,woman,,,,null,,,,
null,"<img src=""stim_listA/shout1.gif""style=""height:400px;""></stim_listA>",,html-keyboard-response,291,1396408,0.0-17.0-1.6,8032,List2A,black,woman,,,,null,,,,
null,is shouting at,,html-keyboard-response,292,1398417,0.0-17.0-2.6,8032,List2A,black,woman,,,,null,,,,
14273,,,survey-text,293,1412693,0.0-17.0-3.6,8032,List2A,black,woman,,,,,"{""Q0"":""ruth is shouting at luke ""}","<img src=""stim_listA/shout1.gif""style=""height:400px;""></stim_listA>",is shouting at,
null,"<div style=""font-size:60px;"">+</div>",,html-keyboard-response,294,1413210,0.0-17.0-0.7,8032,List2A,black,woman,,,,null,,,,
null,"<img src=""stim_listA/fight5.gif""style=""height:400px;""></stim_listA>",,html-keyboard-response,295,1415215,0.0-17.0-1.7,8032,List2A,black,woman,,,,null,,,,
null,is fighting,,html-keyboard-response,296,1417228,0.0-17.0-2.7,8032,List2A,black,woman,,,,null,,,,
11734,,,survey-text,297,1428966,0.0-17.0-3.7,8032,List2A,black,woman,,,,,"{""Q0"":""n/a""}","<img src=""stim_listA/fight5.gif""style=""height:400px;""></stim_listA>",is fighting,
null,"<div style=""font-size:60px;"">+</div>",,html-keyboard-response,298,1429478,0.0-17.0-0.8,8032,List2A,black,woman,,,,null,,,,
null,"<img src=""stim_listA/fight8.gif""style=""height:400px;""></stim_listA>",,html-keyboard-response,299,1431482,0.0-17.0-1.8,8032,List2A,black,woman,,,,null,,,,
null,are fighting each other,,html-keyboard-response,300,1433485,0.0-17.0-2.8,8032,List2A,black,woman,,,,null,,,,
8018,,,survey-text,301,1441505,0.0-17.0-3.8,8032,List2A,black,woman,,,,,"{""Q0"":""beth and ruth are fighting each other ""}","<img src=""stim_listA/fight8.gif""style=""height:400px;""></stim_listA>",are fighting each other,
null,"<div style=""font-size:60px;"">+</div>",,html-keyboard-response,302,1442022,0.0-17.0-0.9,8032,List2A,black,woman,,,,null,,,,
null,"<img src=""stim_listA/marry6.gif""style=""height:400px;""></stim_listA>",,html-keyboard-response,303,1444026,0.0-17.0-1.9,8032,List2A,black,woman,,,,null,,,,
null,are marrying each other,,html-keyboard-response,304,1446041,0.0-17.0-2.9,8032,List2A,black,woman,,,,null,,,,
11046,,,survey-text,305,1457092,0.0-17.0-3.9,8032,List2A,black,woman,,,,,"{""Q0"":""mike and luke are marrying each other""}","<img src=""stim_listA/marry6.gif""style=""height:400px;""></stim_listA>",are marrying each other,
null,"<div style=""font-size:60px;"">+</div>",,html-keyboard-response,306,1457602,0.0-17.0-0.10,8032,List2A,black,woman,,,,null,,,,
null,"<img src=""stim_listA/talk2.gif""style=""height:400px;""></stim_listA>",,html-keyboard-response,307,1459616,0.0-17.0-1.10,8032,List2A,black,woman,,,,null,,,,
null,are talking to each other,,html-keyboard-response,308,1461633,0.0-17.0-2.10,8032,List2A,black,woman,,,,null,,,,
16993,,,survey-text,309,1478629,0.0-17.0-3.10,8032,List2A,black,woman,,,,,"{""Q0"":""ruth and dave are talking to each other""}","<img src=""stim_listA/talk2.gif""style=""height:400px;""></stim_listA>",are talking to each other,
null,"<div style=""font-size:60px;"">+</div>",,html-keyboard-response,310,1479139,0.0-17.0-0.11,8032,List2A,black,woman,,,,null,,,,
null,"<img src=""stim_listA/touch5.gif""style=""height:400px;""></stim_listA>",,html-keyboard-response,311,1481147,0.0-17.0-1.11,8032,List2A,black,woman,,,,null,,,,
null,is touching,,html-keyboard-response,312,1483157,0.0-17.0-2.11,8032,List2A,black,woman,,,,null,,,,
6248,,,survey-text,313,1489408,0.0-17.0-3.11,8032,List2A,black,woman,,,,,"{""Q0"":""mike is touching dave ""}","<img src=""stim_listA/touch5.gif""style=""height:400px;""></stim_listA>",is touching,
null,"<div style=""font-size:60px;"">+</div>",,html-keyboard-response,314,1489919,0.0-17.0-0.12,8032,List2A,black,woman,,,,null,,,,
null,"<img src=""stim_listA/play1.gif""style=""height:400px;""></stim_listA>",,html-keyboard-response,315,1491927,0.0-17.0-1.12,8032,List2A,black,woman,,,,null,,,,
null,is playing with,,html-keyboard-response,316,1493946,0.0-17.0-2.12,8032,List2A,black,woman,,,,null,,,,
6843,,,survey-text,317,1500792,0.0-17.0-3.12,8032,List2A,black,woman,,,,,"{""Q0"":""dave is playing with jane""}","<img src=""stim_listA/play1.gif""style=""height:400px;""></stim_listA>",is playing with,
null,"<div style=""font-size:60px;"">+</div>",,html-keyboard-response,318,1501298,0.0-17.0-0.13,8032,List2A,black,woman,,,,null,,,,
null,"<img src=""stim_listA/talk8.gif""style=""height:400px;""></stim_listA>",,html-keyboard-response,319,1503316,0.0-17.0-1.13,8032,List2A,black,woman,,,,null,,,,
null,are talking to each other,,html-keyboard-response,320,1505330,0.0-17.0-2.13,8032,List2A,black,woman,,,,null,,,,
12697,,,survey-text,321,1518030,0.0-17.0-3.13,8032,List2A,black,woman,,,,,"{""Q0"":""beth and jane are talking to each other""}","<img src=""stim_listA/talk8.gif""style=""height:400px;""></stim_listA>",are talking to each other,
null,"<div style=""font-size:60px;"">+</div>",,html-keyboard-response,322,1518534,0.0-17.0-0.14,8032,List2A,black,woman,,,,null,,,,
null,"<img src=""stim_listA/marry5.gif""style=""height:400px;""></stim_listA>",,html-keyboard-response,323,1520545,0.0-17.0-1.14,8032,List2A,black,woman,,,,null,,,,
null,is marrying,,html-keyboard-response,324,1522562,0.0-17.0-2.14,8032,List2A,black,woman,,,,null,,,,
6211,,,survey-text,325,1528776,0.0-17.0-3.14,8032,List2A,black,woman,,,,,"{""Q0"":""fred is marrying dave ""}","<img src=""stim_listA/marry5.gif""style=""height:400px;""></stim_listA>",is marrying,
null,"<div style=""font-size:60px;"">+</div>",,html-keyboard-response,326,1529281,0.0-17.0-0.15,8032,List2A,black,woman,,,,null,,,,
null,"<img src=""stim_listA/marry4.gif""style=""height:400px;""></stim_listA>",,html-keyboard-response,327,1531296,0.0-17.0-1.15,8032,List2A,black,woman,,,,null,,,,
null,are marrying each other,,html-keyboard-response,328,1533301,0.0-17.0-2.15,8032,List2A,black,woman,,,,null,,,,
16227,,,survey-text,329,1549532,0.0-17.0-3.15,8032,List2A,black,woman,,,,,"{""Q0"":""kate and fred are marrying each other ""}","<img src=""stim_listA/marry4.gif""style=""height:400px;""></stim_listA>",are marrying each other,
null,"<div style=""font-size:60px;"">+</div>",,html-keyboard-response,330,1550040,0.0-17.0-0.16,8032,List2A,black,woman,,,,null,,,,
null,"<img src=""stim_listA/talk3.gif""style=""height:400px;""></stim_listA>",,html-keyboard-response,331,1552052,0.0-17.0-1.16,8032,List2A,black,woman,,,,null,,,,
null,is talking to,,html-keyboard-response,332,1554064,0.0-17.0-2.16,8032,List2A,black,woman,,,,null,,,,
14970,,,survey-text,333,1569037,0.0-17.0-3.16,8032,List2A,black,woman,,,,,"{""Q0"":""fred is talking to kate""}","<img src=""stim_listA/talk3.gif""style=""height:400px;""></stim_listA>",is talking to,
null,"<div style=""font-size:60px;"">+</div>",,html-keyboard-response,334,1569550,0.0-17.0-0.17,8032,List2A,black,woman,,,,null,,,,
null,"<img src=""stim_listA/dance3.gif""style=""height:400px;""></stim_listA>",,html-keyboard-response,335,1571556,0.0-17.0-1.17,8032,List2A,black,woman,,,,null,,,,
null,is dancing with,,html-keyboard-response,336,1573563,0.0-17.0-2.17,8032,List2A,black,woman,,,,null,,,,
13321,,,survey-text,337,1586887,0.0-17.0-3.17,8032,List2A,black,woman,,,,,"{""Q0"":""fred is dancing with kate""}","<img src=""stim_listA/dance3.gif""style=""height:400px;""></stim_listA>",is dancing with,
null,"<div style=""font-size:60px;"">+</div>",,html-keyboard-response,338,1587399,0.0-17.0-0.18,8032,List2A,black,woman,,,,null,,,,
null,"<img src=""stim_listA/dance5.gif""style=""height:400px;""></stim_listA>",,html-keyboard-response,339,1589405,0.0-17.0-1.18,8032,List2A,black,woman,,,,null,,,,
null,is dancing with,,html-keyboard-response,340,1591422,0.0-17.0-2.18,8032,List2A,black,woman,,,,null,,,,
7348,,,survey-text,341,1598774,0.0-17.0-3.18,8032,List2A,black,woman,,,,,"{""Q0"":""mike is dancing with luke""}","<img src=""stim_listA/dance5.gif""style=""height:400px;""></stim_listA>",is dancing with,
null,"<div style=""font-size:60px;"">+</div>",,html-keyboard-response,342,1599285,0.0-17.0-0.19,8032,List2A,black,woman,,,,null,,,,
null,"<img src=""stim_listA/flirt1.gif""style=""height:400px;""></stim_listA>",,html-keyboard-response,343,1601296,0.0-17.0-1.19,8032,List2A,black,woman,,,,null,,,,
null,is flirting with,,html-keyboard-response,344,1603298,0.0-17.0-2.19,8032,List2A,black,woman,,,,null,,,,
5227,,,survey-text,345,1608526,0.0-17.0-3.19,8032,List2A,black,woman,,,,,"{""Q0"":""luke is flirting with jane""}","<img src=""stim_listA/flirt1.gif""style=""height:400px;""></stim_listA>",is flirting with,
3448,"<img src='img/portrait_matrix_list2.jpg' style='width:900px;height:500px;''></img><p>If you have memorised all the portraits and names and are ready to start, press Continue.</p><p><strong>Please note: Your memory of these faces will be tested 4 times during this experiment.</strong></p>",0,html-button-response,346,1611978,0.0-18.0-0.0,8032,List2A,black,woman,,,,,,,,
1691,"<img src=""portrait/BM2.jpg""style=""height:400px;""></img>",5,html-button-response,347,1614686,0.0-18.0-1.0,8032,List2A,black,woman,,TRUE,5,,,,,
null,CORRECT,,html-keyboard-response,348,1616193,0.0-18.0-2.0-0.0,8032,List2A,black,woman,,,,null,,,,
1879,"<img src=""portrait/BW2.jpg""style=""height:400px;""></img>",2,html-button-response,349,1618077,0.0-18.0-4.0,8032,List2A,black,woman,,TRUE,2,,,,,
null,CORRECT,,html-keyboard-response,350,1619586,0.0-18.0-5.0-0.0,8032,List2A,black,woman,,,,null,,,,
8592,"<img src=""portrait/WW1.jpg""style=""height:400px;""></img>",1,html-button-response,351,1628182,0.0-18.0-7.0,8032,List2A,black,woman,,TRUE,1,,,,,
null,CORRECT,,html-keyboard-response,352,1629708,0.0-18.0-8.0-0.0,8032,List2A,black,woman,,,,null,,,,
2422,"<img src=""portrait/WM1.jpg""style=""height:400px;""></img>",6,html-button-response,353,1632135,0.0-18.0-10.0,8032,List2A,black,woman,,TRUE,6,,,,,
null,CORRECT,,html-keyboard-response,354,1633653,0.0-18.0-11.0-0.0,8032,List2A,black,woman,,,,null,,,,
3876,"<img src=""portrait/BW1.jpg""style=""height:400px;""></img>",0,html-button-response,355,1637537,0.0-18.0-13.0,8032,List2A,black,woman,,TRUE,0,,,,,
null,CORRECT,,html-keyboard-response,356,1639051,0.0-18.0-14.0-0.0,8032,List2A,black,woman,,,,null,,,,
2251,"<img src=""portrait/WW2.jpg""style=""height:400px;""></img>",3,html-button-response,357,1641307,0.0-18.0-16.0,8032,List2A,black,woman,,TRUE,3,,,,,
null,CORRECT,,html-keyboard-response,358,1642819,0.0-18.0-17.0-0.0,8032,List2A,black,woman,,,,null,,,,
2552,"<img src=""portrait/WM2.jpg""style=""height:400px;""></img>",7,html-button-response,359,1645378,0.0-18.0-19.0,8032,List2A,black,woman,,TRUE,7,,,,,
null,CORRECT,,html-keyboard-response,360,1646905,0.0-18.0-20.0-0.0,8032,List2A,black,woman,,,,null,,,,
1674,"<img src=""portrait/BM1.jpg""style=""height:400px;""></img>",4,html-button-response,361,1648591,0.0-18.0-22.0,8032,List2A,black,woman,,TRUE,4,,,,,
null,CORRECT,,html-keyboard-response,362,1650117,0.0-18.0-23.0-0.0,8032,List2A,black,woman,,,,null,,,,
1165,<p>You got 8 out of 8 right first time. Press Continue.</p>,0,html-button-response,363,1651285,0.0-18.0-25.0,8032,List2A,black,woman,,,,,,,,
null,"<div style=""font-size:60px;"">+</div>",,html-keyboard-response,364,1652807,0.0-19.0-0.0,8032,List2A,black,woman,,,,null,,,,
null,"<img src=""stim_listA/touch3.gif""style=""height:400px;""></stim_listA>",,html-keyboard-response,365,1654816,0.0-19.0-1.0,8032,List2A,black,woman,,,,null,,,,
null,is touching,,html-keyboard-response,366,1656822,0.0-19.0-2.0,8032,List2A,black,woman,,,,null,,,,
14012,,,survey-text,367,1670837,0.0-19.0-3.0,8032,List2A,black,woman,,,,,"{""Q0"":""kate is touching fred""}","<img src=""stim_listA/touch3.gif""style=""height:400px;""></stim_listA>",is touching,
null,"<div style=""font-size:60px;"">+</div>",,html-keyboard-response,368,1671341,0.0-19.0-0.1,8032,List2A,black,woman,,,,null,,,,
null,"<img src=""stim_listA/play4.gif""style=""height:400px;""></stim_listA>",,html-keyboard-response,369,1673349,0.0-19.0-1.1,8032,List2A,black,woman,,,,null,,,,
null,are playing with each other,,html-keyboard-response,370,1675359,0.0-19.0-2.1,8032,List2A,black,woman,,,,null,,,,
8043,,,survey-text,371,1683406,0.0-19.0-3.1,8032,List2A,black,woman,,,,,"{""Q0"":""beth and fred are playing with each other""}","<img src=""stim_listA/play4.gif""style=""height:400px;""></stim_listA>",are playing with each other,
null,"<div style=""font-size:60px;"">+</div>",,html-keyboard-response,372,1683919,0.0-19.0-0.2,8032,List2A,black,woman,,,,null,,,,
null,"<img src=""stim_listA/kiss2.gif""style=""height:400px;""></stim_listA>",,html-keyboard-response,373,1685927,0.0-19.0-1.2,8032,List2A,black,woman,,,,null,,,,
null,are kissing each other,,html-keyboard-response,374,1687932,0.0-19.0-2.2,8032,List2A,black,woman,,,,null,,,,
11214,,,survey-text,375,1699148,0.0-19.0-3.2,8032,List2A,black,woman,,,,,"{""Q0"":""jane and mike are kissing each other ""}","<img src=""stim_listA/kiss2.gif""style=""height:400px;""></stim_listA>",are kissing each other,
null,"<div style=""font-size:60px;"">+</div>",,html-keyboard-response,376,1699660,0.0-19.0-0.3,8032,List2A,black,woman,,,,null,,,,
null,"<img src=""stim_listA/dance2.gif""style=""height:400px;""></stim_listA>",,html-keyboard-response,377,1701671,0.0-19.0-1.3,8032,List2A,black,woman,,,,null,,,,
null,are dancing with each other,,html-keyboard-response,378,1703678,0.0-19.0-2.3,8032,List2A,black,woman,,,,null,,,,
10204,,,survey-text,379,1713885,0.0-19.0-3.3,8032,List2A,black,woman,,,,,"{""Q0"":""ruth and dave are dancing with each other""}","<img src=""stim_listA/dance2.gif""style=""height:400px;""></stim_listA>",are dancing with each other,
null,"<div style=""font-size:60px;"">+</div>",,html-keyboard-response,380,1714393,0.0-19.0-0.4,8032,List2A,black,woman,,,,null,,,,
null,"<img src=""stim_listA/talk5.gif""style=""height:400px;""></stim_listA>",,html-keyboard-response,381,1716401,0.0-19.0-1.4,8032,List2A,black,woman,,,,null,,,,
null,is talking to,,html-keyboard-response,382,1718404,0.0-19.0-2.4,8032,List2A,black,woman,,,,null,,,,
10486,,,survey-text,383,1728893,0.0-19.0-3.4,8032,List2A,black,woman,,,,,"{""Q0"":""mike is talking to luke""}","<img src=""stim_listA/talk5.gif""style=""height:400px;""></stim_listA>",is talking to,
null,"<div style=""font-size:60px;"">+</div>",,html-keyboard-response,384,1729404,0.0-19.0-0.5,8032,List2A,black,woman,,,,null,,,,
null,"<img src=""stim_listA/flirt2.gif""style=""height:400px;""></stim_listA>",,html-keyboard-response,385,1731408,0.0-19.0-1.5,8032,List2A,black,woman,,,,null,,,,
null,are flirting with each other,,html-keyboard-response,386,1733415,0.0-19.0-2.5,8032,List2A,black,woman,,,,null,,,,
13726,,,survey-text,387,1747144,0.0-19.0-3.5,8032,List2A,black,woman,,,,,"{""Q0"":""ruth and dave ar flirting with each other ""}","<img src=""stim_listA/flirt2.gif""style=""height:400px;""></stim_listA>",are flirting with each other,
null,"<div style=""font-size:60px;"">+</div>",,html-keyboard-response,388,1747647,0.0-19.0-0.6,8032,List2A,black,woman,,,,null,,,,
null,"<img src=""stim_listA/flirt7.gif""style=""height:400px;""></stim_listA>",,html-keyboard-response,389,1749653,0.0-19.0-1.6,8032,List2A,black,woman,,,,null,,,,
null,is flirting with,,html-keyboard-response,390,1751666,0.0-19.0-2.6,8032,List2A,black,woman,,,,null,,,,
10679,,,survey-text,391,1762353,0.0-19.0-3.6,8032,List2A,black,woman,,,,,"{""Q0"":""ruth is flrting with kate ""}","<img src=""stim_listA/flirt7.gif""style=""height:400px;""></stim_listA>",is flirting with,
null,"<div style=""font-size:60px;"">+</div>",,html-keyboard-response,392,1762859,0.0-19.0-0.7,8032,List2A,black,woman,,,,null,,,,
null,"<img src=""stim_listA/play6.gif""style=""height:400px;""></stim_listA>",,html-keyboard-response,393,1764863,0.0-19.0-1.7,8032,List2A,black,woman,,,,null,,,,
null,are playing with each other,,html-keyboard-response,394,1766875,0.0-19.0-2.7,8032,List2A,black,woman,,,,null,,,,
13022,,,survey-text,395,1779900,0.0-19.0-3.7,8032,List2A,black,woman,,,,,"{""Q0"":""fred and luke are playing with each other ""}","<img src=""stim_listA/play6.gif""style=""height:400px;""></stim_listA>",are playing with each other,
null,"<div style=""font-size:60px;"">+</div>",,html-keyboard-response,396,1780417,0.0-19.0-0.8,8032,List2A,black,woman,,,,null,,,,
null,"<img src=""stim_listA/talk4.gif""style=""height:400px;""></stim_listA>",,html-keyboard-response,397,1782424,0.0-19.0-1.8,8032,List2A,black,woman,,,,null,,,,
null,are talking to each other,,html-keyboard-response,398,1784426,0.0-19.0-2.8,8032,List2A,black,woman,,,,null,,,,
7350,,,survey-text,399,1791781,0.0-19.0-3.8,8032,List2A,black,woman,,,,,"{""Q0"":""beth and mike are talking to each other ""}","<img src=""stim_listA/talk4.gif""style=""height:400px;""></stim_listA>",are talking to each other,
null,"<div style=""font-size:60px;"">+</div>",,html-keyboard-response,400,1792291,0.0-19.0-0.9,8032,List2A,black,woman,,,,null,,,,
null,"<img src=""stim_listA/fight7.gif""style=""height:400px;""></stim_listA>",,html-keyboard-response,401,1794297,0.0-19.0-1.9,8032,List2A,black,woman,,,,null,,,,
null,is fighting,,html-keyboard-response,402,1796301,0.0-19.0-2.9,8032,List2A,black,woman,,,,null,,,,
14650,,,survey-text,403,1810955,0.0-19.0-3.9,8032,List2A,black,woman,,,,,"{""Q0"":""kate and jane are fighting with each other""}","<img src=""stim_listA/fight7.gif""style=""height:400px;""></stim_listA>",is fighting,
null,"<div style=""font-size:60px;"">+</div>",,html-keyboard-response,404,1811467,0.0-19.0-0.10,8032,List2A,black,woman,,,,null,,,,
null,"<img src=""stim_listA/dance1.gif""style=""height:400px;""></stim_listA>",,html-keyboard-response,405,1813476,0.0-19.0-1.10,8032,List2A,black,woman,,,,null,,,,
null,is dancing with,,html-keyboard-response,406,1815482,0.0-19.0-2.10,8032,List2A,black,woman,,,,null,,,,
11812,,,survey-text,407,1827296,0.0-19.0-3.10,8032,List2A,black,woman,,,,,"{""Q0"":""luke is dancing with jane""}","<img src=""stim_listA/dance1.gif""style=""height:400px;""></stim_listA>",is dancing with,
null,"<div style=""font-size:60px;"">+</div>",,html-keyboard-response,408,1827800,0.0-19.0-0.11,8032,List2A,black,woman,,,,null,,,,
null,"<img src=""stim_listA/dance8.gif""style=""height:400px;""></stim_listA>",,html-keyboard-response,409,1829805,0.0-19.0-1.11,8032,List2A,black,woman,,,,null,,,,
null,are dancing with each other,,html-keyboard-response,410,1831817,0.0-19.0-2.11,8032,List2A,black,woman,,,,null,,,,
13347,,,survey-text,411,1845168,0.0-19.0-3.11,8032,List2A,black,woman,,,,,"{""Q0"":""beth and jane are dancing with each other ""}","<img src=""stim_listA/dance8.gif""style=""height:400px;""></stim_listA>",are dancing with each other,
null,"<div style=""font-size:60px;"">+</div>",,html-keyboard-response,412,1845685,0.0-19.0-0.12,8032,List2A,black,woman,,,,null,,,,
null,"<img src=""stim_listA/talk6.gif""style=""height:400px;""></stim_listA>",,html-keyboard-response,413,1847696,0.0-19.0-1.12,8032,List2A,black,woman,,,,null,,,,
null,are talking to each other,,html-keyboard-response,414,1849702,0.0-19.0-2.12,8032,List2A,black,woman,,,,null,,,,
7504,,,survey-text,415,1857208,0.0-19.0-3.12,8032,List2A,black,woman,,,,,"{""Q0"":""fred and mike are talking to each other ""}","<img src=""stim_listA/talk6.gif""style=""height:400px;""></stim_listA>",are talking to each other,
null,"<div style=""font-size:60px;"">+</div>",,html-keyboard-response,416,1857724,0.0-19.0-0.13,8032,List2A,black,woman,,,,null,,,,
null,"<img src=""stim_listA/fight1.gif""style=""height:400px;""></stim_listA>",,html-keyboard-response,417,1859735,0.0-19.0-1.13,8032,List2A,black,woman,,,,null,,,,
null,is fighting,,html-keyboard-response,418,1861737,0.0-19.0-2.13,8032,List2A,black,woman,,,,null,,,,
4214,,,survey-text,419,1865955,0.0-19.0-3.13,8032,List2A,black,woman,,,,,"{""Q0"":""mike is fighting jane""}","<img src=""stim_listA/fight1.gif""style=""height:400px;""></stim_listA>",is fighting,
null,"<div style=""font-size:60px;"">+</div>",,html-keyboard-response,420,1866458,0.0-19.0-0.14,8032,List2A,black,woman,,,,null,,,,
null,"<img src=""stim_listA/argue2.gif""style=""height:400px;""></stim_listA>",,html-keyboard-response,421,1868462,0.0-19.0-1.14,8032,List2A,black,woman,,,,null,,,,
null,are arguing with each other,,html-keyboard-response,422,1870476,0.0-19.0-2.14,8032,List2A,black,woman,,,,null,,,,
8866,,,survey-text,423,1879346,0.0-19.0-3.14,8032,List2A,black,woman,,,,,"{""Q0"":""jane and luke are arguing with each other ""}","<img src=""stim_listA/argue2.gif""style=""height:400px;""></stim_listA>",are arguing with each other,
null,"<div style=""font-size:60px;"">+</div>",,html-keyboard-response,424,1879854,0.0-19.0-0.15,8032,List2A,black,woman,,,,null,,,,
null,"<img src=""stim_listA/touch2.gif""style=""height:400px;""></stim_listA>",,html-keyboard-response,425,1881861,0.0-19.0-1.15,8032,List2A,black,woman,,,,null,,,,
null,are touching each other,,html-keyboard-response,426,1883870,0.0-19.0-2.15,8032,List2A,black,woman,,,,null,,,,
7795,,,survey-text,427,1891668,0.0-19.0-3.15,8032,List2A,black,woman,,,,,"{""Q0"":""ruth and luke are touching each other ""}","<img src=""stim_listA/touch2.gif""style=""height:400px;""></stim_listA>",are touching each other,
null,"<div style=""font-size:60px;"">+</div>",,html-keyboard-response,428,1892188,0.0-19.0-0.16,8032,List2A,black,woman,,,,null,,,,
null,"<img src=""stim_listA/play5.gif""style=""height:400px;""></stim_listA>",,html-keyboard-response,429,1894194,0.0-19.0-1.16,8032,List2A,black,woman,,,,null,,,,
null,is playing with,,html-keyboard-response,430,1896198,0.0-19.0-2.16,8032,List2A,black,woman,,,,null,,,,
13207,,,survey-text,431,1909410,0.0-19.0-3.16,8032,List2A,black,woman,,,,,"{""Q0"":""mike is playing with dave ""}","<img src=""stim_listA/play5.gif""style=""height:400px;""></stim_listA>",is playing with,
null,"<div style=""font-size:60px;"">+</div>",,html-keyboard-response,432,1909921,0.0-19.0-0.17,8032,List2A,black,woman,,,,null,,,,
null,"<img src=""stim_listA/fight4.gif""style=""height:400px;""></stim_listA>",,html-keyboard-response,433,1911925,0.0-19.0-1.17,8032,List2A,black,woman,,,,null,,,,
null,are fighting each other,,html-keyboard-response,434,1913927,0.0-19.0-2.17,8032,List2A,black,woman,,,,null,,,,
11908,,,survey-text,435,1925838,0.0-19.0-3.17,8032,List2A,black,woman,,,,,"{""Q0"":""beth and fred are fighting each other ""}","<img src=""stim_listA/fight4.gif""style=""height:400px;""></stim_listA>",are fighting each other,
null,"<div style=""font-size:60px;"">+</div>",,html-keyboard-response,436,1926352,0.0-19.0-0.18,8032,List2A,black,woman,,,,null,,,,
null,"<img src=""stim_listA/kiss4.gif""style=""height:400px;""></stim_listA>",,html-keyboard-response,437,1928365,0.0-19.0-1.18,8032,List2A,black,woman,,,,null,,,,
null,are kissing each other,,html-keyboard-response,438,1930372,0.0-19.0-2.18,8032,List2A,black,woman,,,,null,,,,
6280,,,survey-text,439,1936656,0.0-19.0-3.18,8032,List2A,black,woman,,,,,"{""Q0"":""kate and mike are kissing each other ""}","<img src=""stim_listA/kiss4.gif""style=""height:400px;""></stim_listA>",are kissing each other,
null,"<div style=""font-size:60px;"">+</div>",,html-keyboard-response,440,1937171,0.0-19.0-0.19,8032,List2A,black,woman,,,,null,,,,
null,"<img src=""stim_listA/touch4.gif""style=""height:400px;""></stim_listA>",,html-keyboard-response,441,1939180,0.0-19.0-1.19,8032,List2A,black,woman,,,,null,,,,
null,are touching each other,,html-keyboard-response,442,1941187,0.0-19.0-2.19,8032,List2A,black,woman,,,,null,,,,
8722,,,survey-text,443,1949911,0.0-19.0-3.19,8032,List2A,black,woman,,,,,"{""Q0"":""beth and fred are touching each other ""}","<img src=""stim_listA/touch4.gif""style=""height:400px;""></stim_listA>",are touching each other,
7330,<p>Thank you for completing that task.</p><p>The final part of this session is a short questionnaire.</p><p>Press Continue.</p>,0,html-button-response,444,1957244,0.0-20.0,8032,List2A,black,woman,,,,,,,,
74627,,,survey-text,445,2032887,0.0-21.0,8032,List2A,black,woman,,,,,"{""Q0"":""30"",""Q1"":""English"",""Q2"":""English"",""Q3"":""Scotland"",""Q4"":""Caribbean"",""Q5"":""Female""}",,,demographics
7700,,,survey-likert,446,2040597,0.0-22.0,8032,List2A,black,woman,,,,,"{""Q0"":2}",,,likert_ESS
11020,,,survey-likert,447,2051624,0.0-23.0,8032,List2A,black,woman,,,,,"{""Q0"":5}",,,likert_NSSAL_Q1
3001,,,survey-likert,448,2054629,0.0-24.0,8032,List2A,black,woman,,,,,"{""Q0"":5}",,,likert_NSSAL_Q2
5026,,,survey-likert,449,2059660,0.0-25.0,8032,List2A,black,woman,,,,,"{""Q0"":2}",,,likert_CGRS_Q1
5085,,,survey-likert,450,2064751,0.0-26.0,8032,List2A,black,woman,,,,,"{""Q0"":2}",,,likert_CGRS_Q2
5134,,,survey-likert,451,2069893,0.0-27.0,8032,List2A,black,woman,,,,,"{""Q0"":2}",,,likert_CGRS_Q3
3024,,,survey-text,452,2072922,0.0-28.0,8032,List2A,black,woman,,,,,"{""Q0"":""ccc""}",,,worker_id
19540,,,external-html,453,2092592,0.0-29.0,8032,List2A,black,woman,debrief.html,,,,,,,
