"rt","stimulus","button_pressed","trial_type","trial_index","time_elapsed","internal_node_id","subject","list","ppt_race","ppt_gender","url","first_guess","correct","key_press","responses","image_type","phrase_type","test_part"
"156914","Welcome to the experiment. Press Continue to begin.","0","html-button-response","0","156925","0.0-0.0","80332","List1A","black","woman","","","","","","","",""
"37337","","","external-html","1","195385","0.0-1.0","80332","List1A","black","woman","consent.html","","","","","","",""
"15548","<p>On the next page, you will see portraits of 8 people and their names.</p><p>Your first task is to take a few minutes to memorise the names of these people.</p><p>You will have to recall their names during the rest of the experiment, so it is</p><p>essential that you try to memorise these people and their names as best as you can.</p><br><p><strong>You will then be tested on your memory of these names and portraits.</strong></p><br><p>The experiment will start after you have completed this memory test.</p><br><p>Ready?</p>","0","html-button-response","2","210940","0.0-2.0","80332","List1A","black","woman","","","","","","","",""
"59730","<img src='img/portrait_matrix_list1.jpg' style='width:900px;height:500px;''></img><p>If you have memorised all the portraits and names and are ready to start, press Continue.</p><p><strong>Please note: Your memory of these faces will be tested 4 times during this experiment.</strong></p>","0","html-button-response","3","271684","0.0-3.0-0.0","80332","List1A","black","woman","","","","","","","",""
"6240","<img src=""portrait/WW2.jpg""style=""height:400px;""></img>","3","html-button-response","4","278940","0.0-3.0-1.0","80332","List1A","black","woman","","true","3","","","","",""
"null","CORRECT","","html-keyboard-response","5","280458","0.0-3.0-2.0-0.0","80332","List1A","black","woman","","","","null","","","",""
"16567","<img src=""portrait/WM1.jpg""style=""height:400px;""></img>","6","html-button-response","6","297032","0.0-3.0-4.0","80332","List1A","black","woman","","true","6","","","","",""
"null","CORRECT","","html-keyboard-response","7","298557","0.0-3.0-5.0-0.0","80332","List1A","black","woman","","","","null","","","",""
"10765","<img src=""portrait/BW1.jpg""style=""height:400px;""></img>","0","html-button-response","8","309328","0.0-3.0-7.0","80332","List1A","black","woman","","true","0","","","","",""
"null","CORRECT","","html-keyboard-response","9","310837","0.0-3.0-8.0-0.0","80332","List1A","black","woman","","","","null","","","",""
"5668","<img src=""portrait/WM2.jpg""style=""height:400px;""></img>","5","html-button-response","10","316509","0.0-3.0-10.0","80332","List1A","black","woman","","true","7","","","","",""
"4031","<img src=""portrait/WM2.jpg""style=""height:400px;""></img>","7","html-button-response","11","321559","0.0-3.0-12.0-0.0","80332","List1A","black","woman","","false","7","","","","",""
"null","CORRECT","","html-keyboard-response","12","323085","0.0-3.0-12.0-1.0-0.0","80332","List1A","black","woman","","","","null","","","",""
"2984","<img src=""portrait/BM2.jpg""style=""height:400px;""></img>","5","html-button-response","13","326075","0.0-3.0-13.0","80332","List1A","black","woman","","true","5","","","","",""
"null","CORRECT","","html-keyboard-response","14","327587","0.0-3.0-14.0-0.0","80332","List1A","black","woman","","","","null","","","",""
"14472","<img src=""portrait/BM1.jpg""style=""height:400px;""></img>","4","html-button-response","15","342064","0.0-3.0-16.0","80332","List1A","black","woman","","true","4","","","","",""
"null","CORRECT","","html-keyboard-response","16","343572","0.0-3.0-17.0-0.0","80332","List1A","black","woman","","","","null","","","",""
"17983","<img src=""portrait/BW2.jpg""style=""height:400px;""></img>","2","html-button-response","17","361561","0.0-3.0-19.0","80332","List1A","black","woman","","true","2","","","","",""
"null","CORRECT","","html-keyboard-response","18","363089","0.0-3.0-20.0-0.0","80332","List1A","black","woman","","","","null","","","",""
"2080","<img src=""portrait/WW1.jpg""style=""height:400px;""></img>","1","html-button-response","19","365174","0.0-3.0-22.0","80332","List1A","black","woman","","true","1","","","","",""
"null","CORRECT","","html-keyboard-response","20","366697","0.0-3.0-23.0-0.0","80332","List1A","black","woman","","","","null","","","",""
"2566","<p>You got 7 out of 8 right first time. Press Continue.</p>","0","html-button-response","21","369269","0.0-3.0-25.0","80332","List1A","black","woman","","","","","","","",""
"2587","As you did not score 100%, the memory game will repeat. Press Continue.","0","html-button-response","22","372872","0.0-3.0-26.0-0.0","80332","List1A","black","woman","","","","","","","",""
"16093","<img src='img/portrait_matrix_list1.jpg' style='width:900px;height:500px;''></img><p>If you have memorised all the portraits and names and are ready to start, press Continue.</p><p><strong>Please note: Your memory of these faces will be tested 4 times during this experiment.</strong></p>","0","html-button-response","23","389986","0.0-3.1-0.1","80332","List1A","black","woman","","","","","","","",""
"5855","<img src=""portrait/WW2.jpg""style=""height:400px;""></img>","3","html-button-response","24","396859","0.0-3.1-1.1","80332","List1A","black","woman","","true","3","","","","",""
"null","CORRECT","","html-keyboard-response","25","398392","0.0-3.1-2.1-0.1","80332","List1A","black","woman","","","","null","","","",""
"6995","<img src=""portrait/WM1.jpg""style=""height:400px;""></img>","6","html-button-response","26","405393","0.0-3.1-4.1","80332","List1A","black","woman","","true","6","","","","",""
"null","CORRECT","","html-keyboard-response","27","406902","0.0-3.1-5.1-0.1","80332","List1A","black","woman","","","","null","","","",""
"7501","<img src=""portrait/BW1.jpg""style=""height:400px;""></img>","0","html-button-response","28","414406","0.0-3.1-7.1","80332","List1A","black","woman","","true","0","","","","",""
"null","CORRECT","","html-keyboard-response","29","415937","0.0-3.1-8.1-0.1","80332","List1A","black","woman","","","","null","","","",""
"5622","<img src=""portrait/WM2.jpg""style=""height:400px;""></img>","7","html-button-response","30","421563","0.0-3.1-10.1","80332","List1A","black","woman","","true","7","","","","",""
"null","CORRECT","","html-keyboard-response","31","423072","0.0-3.1-11.1-0.1","80332","List1A","black","woman","","","","null","","","",""
"2771","<img src=""portrait/BM2.jpg""style=""height:400px;""></img>","5","html-button-response","32","425851","0.0-3.1-13.1","80332","List1A","black","woman","","true","5","","","","",""
"null","CORRECT","","html-keyboard-response","33","427365","0.0-3.1-14.1-0.1","80332","List1A","black","woman","","","","null","","","",""
"2542","<img src=""portrait/BM1.jpg""style=""height:400px;""></img>","4","html-button-response","34","429911","0.0-3.1-16.1","80332","List1A","black","woman","","true","4","","","","",""
"null","CORRECT","","html-keyboard-response","35","431431","0.0-3.1-17.1-0.1","80332","List1A","black","woman","","","","null","","","",""
"12076","<img src=""portrait/BW2.jpg""style=""height:400px;""></img>","2","html-button-response","36","443512","0.0-3.1-19.1","80332","List1A","black","woman","","true","2","","","","",""
"null","CORRECT","","html-keyboard-response","37","445031","0.0-3.1-20.1-0.1","80332","List1A","black","woman","","","","null","","","",""
"2879","<img src=""portrait/WW1.jpg""style=""height:400px;""></img>","1","html-button-response","38","447914","0.0-3.1-22.1","80332","List1A","black","woman","","true","1","","","","",""
"null","CORRECT","","html-keyboard-response","39","449431","0.0-3.1-23.1-0.1","80332","List1A","black","woman","","","","null","","","",""
"1806","<p>You got 8 out of 8 right first time. Press Continue.</p>","0","html-button-response","40","451242","0.0-3.1-25.1","80332","List1A","black","woman","","","","","","","",""
"44825","<p>In this experiment, you will view photographs of the people from the memory game interacting.</p><p>By using the <strong>exact</strong> phrase given <i>after</i> the photograph appears and recalling the correct names of the people in the photographs, form a sentence describing the interaction. You do not need to capitalise names.</p><p>Type your answer in the space provided. Please complete every sentence before moving onto the next trial.</p><p>You will only have a few seconds to memorise each given photograph and phrase before you can respond, so try your best to focus.</p><p>An example is given below. Press 'Continue' when you are ready.</p><img src='img/speaking_example.jpg' style='width:800px;height:460px;''></img>","0","html-button-response","41","497076","0.0-4.0","80332","List1A","black","woman","","","","","","","",""
"2286","<p>Before the experiment starts, you will watch two example trials. Press 'Continue'.</p>","0","html-button-response","42","500368","0.0-5.0","80332","List1A","black","woman","","","","","","","",""
"null","<img src='img/meet_eg.gif' style='height:400px;''></img>","","html-keyboard-response","43","503393","0.0-6.0","80332","List1A","black","woman","","","","null","","","",""
"null","<p>is meeting</p>","","html-keyboard-response","44","505407","0.0-7.0","80332","List1A","black","woman","","","","null","","","",""
"4836","<p><b>Answer:</b> kate is meeting beth</p>","0","html-button-response","45","510246","0.0-8.0","80332","List1A","black","woman","","","","","","","",""
"null","<img src='img/look_eg.gif' style='height:400px;''></img>","","html-keyboard-response","46","513267","0.0-9.0","80332","List1A","black","woman","","","","null","","","",""
"null","<p>are looking at each other</p>","","html-keyboard-response","47","515282","0.0-10.0","80332","List1A","black","woman","","","","null","","","",""
"2502","<p><b>Answer:</b> luke and dave are looking at each other</p>","0","html-button-response","48","517788","0.0-11.0","80332","List1A","black","woman","","","","","","","",""
"8247","<p>Ready to start the experiment?</p><br><p><strong>Remember to describe the picture using a full sentence,</strong></p><p><strong>that combines the names of the people with the <i>exact</i> phrase given.</strong></p><p><strong>To receive full payment you must do this correctly.</strong></p><p><strong> You do not need to capitalise names or use punctuation.</strong></p><br><p>Press 'Continue' to begin.</p>","0","html-button-response","49","527052","0.0-12.0","80332","List1A","black","woman","","","","","","","",""
"null","<div style=""font-size:60px;"">+</div>","","html-keyboard-response","50","528567","0.0-13.0-0.0","80332","List1A","black","woman","","","","null","","","",""
"null","<img src=""stim_listA/talk4.gif""style=""height:400px;""></stim_listA>","","html-keyboard-response","51","530577","0.0-13.0-1.0","80332","List1A","black","woman","","","","null","","","",""
"null","are talking to each other","","html-keyboard-response","52","532582","0.0-13.0-2.0","80332","List1A","black","woman","","","","null","","","",""
"39027","","","survey-text","53","571612","0.0-13.0-3.0","80332","List1A","black","woman","","","","","{""Q0"":""ruth is speaking to dave""}","<img src=""stim_listA/talk4.gif""style=""height:400px;""></stim_listA>","are talking to each other",""
"null","<div style=""font-size:60px;"">+</div>","","html-keyboard-response","54","572126","0.0-13.0-0.1","80332","List1A","black","woman","","","","null","","","",""
"null","<img src=""stim_listA/marry2.gif""style=""height:400px;""></stim_listA>","","html-keyboard-response","55","574132","0.0-13.0-1.1","80332","List1A","black","woman","","","","null","","","",""
"null","are marrying each other","","html-keyboard-response","56","576141","0.0-13.0-2.1","80332","List1A","black","woman","","","","null","","","",""
"42892","","","survey-text","57","619035","0.0-13.0-3.1","80332","List1A","black","woman","","","","","{""Q0"":""fred and kate are marrying each other""}","<img src=""stim_listA/marry2.gif""style=""height:400px;""></stim_listA>","are marrying each other",""
"null","<div style=""font-size:60px;"">+</div>","","html-keyboard-response","58","619542","0.0-13.0-0.2","80332","List1A","black","woman","","","","null","","","",""
"null","<img src=""stim_listA/touch8.gif""style=""height:400px;""></stim_listA>","","html-keyboard-response","59","621553","0.0-13.0-1.2","80332","List1A","black","woman","","","","null","","","",""
"null","are touching each other","","html-keyboard-response","60","623556","0.0-13.0-2.2","80332","List1A","black","woman","","","","null","","","",""
"46065","","","survey-text","61","669626","0.0-13.0-3.2","80332","List1A","black","woman","","","","","{""Q0"":""beth and ruth are touching each other""}","<img src=""stim_listA/touch8.gif""style=""height:400px;""></stim_listA>","are touching each other",""
"null","<div style=""font-size:60px;"">+</div>","","html-keyboard-response","62","670141","0.0-13.0-0.3","80332","List1A","black","woman","","","","null","","","",""
"null","<img src=""stim_listA/marry7.gif""style=""height:400px;""></stim_listA>","","html-keyboard-response","63","672145","0.0-13.0-1.3","80332","List1A","black","woman","","","","null","","","",""
"null","is marrying","","html-keyboard-response","64","674157","0.0-13.0-2.3","80332","List1A","black","woman","","","","null","","","",""
"29731","","","survey-text","65","703892","0.0-13.0-3.3","80332","List1A","black","woman","","","","","{""Q0"":""ruth is marrying kate""}","<img src=""stim_listA/marry7.gif""style=""height:400px;""></stim_listA>","is marrying",""
"null","<div style=""font-size:60px;"">+</div>","","html-keyboard-response","66","704403","0.0-13.0-0.4","80332","List1A","black","woman","","","","null","","","",""
"null","<img src=""stim_listA/marry1.gif""style=""height:400px;""></stim_listA>","","html-keyboard-response","67","706409","0.0-13.0-1.4","80332","List1A","black","woman","","","","null","","","",""
"null","is marrying","","html-keyboard-response","68","708421","0.0-13.0-2.4","80332","List1A","black","woman","","","","null","","","",""
"44729","","","survey-text","69","753153","0.0-13.0-3.4","80332","List1A","black","woman","","","","","{""Q0"":""beth is marrying mike""}","<img src=""stim_listA/marry1.gif""style=""height:400px;""></stim_listA>","is marrying",""
"null","<div style=""font-size:60px;"">+</div>","","html-keyboard-response","70","753657","0.0-13.0-0.5","80332","List1A","black","woman","","","","null","","","",""
"null","<img src=""stim_listA/talk6.gif""style=""height:400px;""></stim_listA>","","html-keyboard-response","71","755666","0.0-13.0-1.5","80332","List1A","black","woman","","","","null","","","",""
"null","are talking to each other","","html-keyboard-response","72","757669","0.0-13.0-2.5","80332","List1A","black","woman","","","","null","","","",""
"34239","","","survey-text","73","791912","0.0-13.0-3.5","80332","List1A","black","woman","","","","","{""Q0"":""luke and mike are talking to each other""}","<img src=""stim_listA/talk6.gif""style=""height:400px;""></stim_listA>","are talking to each other",""
"null","<div style=""font-size:60px;"">+</div>","","html-keyboard-response","74","792420","0.0-13.0-0.6","80332","List1A","black","woman","","","","null","","","",""
"null","<img src=""stim_listA/fight8.gif""style=""height:400px;""></stim_listA>","","html-keyboard-response","75","794427","0.0-13.0-1.6","80332","List1A","black","woman","","","","null","","","",""
"null","are fighting each other","","html-keyboard-response","76","796434","0.0-13.0-2.6","80332","List1A","black","woman","","","","null","","","",""
"33835","","","survey-text","77","830272","0.0-13.0-3.6","80332","List1A","black","woman","","","","","{""Q0"":""beth and ruth are fighting each other""}","<img src=""stim_listA/fight8.gif""style=""height:400px;""></stim_listA>","are fighting each other",""
"null","<div style=""font-size:60px;"">+</div>","","html-keyboard-response","78","830788","0.0-13.0-0.7","80332","List1A","black","woman","","","","null","","","",""
"null","<img src=""stim_listA/dance1.gif""style=""height:400px;""></stim_listA>","","html-keyboard-response","79","832793","0.0-13.0-1.7","80332","List1A","black","woman","","","","null","","","",""
"null","is dancing with","","html-keyboard-response","80","834796","0.0-13.0-2.7","80332","List1A","black","woman","","","","null","","","",""
"27853","","","survey-text","81","862651","0.0-13.0-3.7","80332","List1A","black","woman","","","","","{""Q0"":""fred is dancing with jane""}","<img src=""stim_listA/dance1.gif""style=""height:400px;""></stim_listA>","is dancing with",""
"null","<div style=""font-size:60px;"">+</div>","","html-keyboard-response","82","863167","0.0-13.0-0.8","80332","List1A","black","woman","","","","null","","","",""
"null","<img src=""stim_listA/kiss2.gif""style=""height:400px;""></stim_listA>","","html-keyboard-response","83","865183","0.0-13.0-1.8","80332","List1A","black","woman","","","","null","","","",""
"null","are kissing each other","","html-keyboard-response","84","867197","0.0-13.0-2.8","80332","List1A","black","woman","","","","null","","","",""
"43285","","","survey-text","85","910485","0.0-13.0-3.8","80332","List1A","black","woman","","","","","{""Q0"":""mike and jane are kissing each other""}","<img src=""stim_listA/kiss2.gif""style=""height:400px;""></stim_listA>","are kissing each other",""
"null","<div style=""font-size:60px;"">+</div>","","html-keyboard-response","86","910989","0.0-13.0-0.9","80332","List1A","black","woman","","","","null","","","",""
"null","<img src=""stim_listA/flirt6.gif""style=""height:400px;""></stim_listA>","","html-keyboard-response","87","912995","0.0-13.0-1.9","80332","List1A","black","woman","","","","null","","","",""
"null","are flirting with each other","","html-keyboard-response","88","914997","0.0-13.0-2.9","80332","List1A","black","woman","","","","null","","","",""
"48826","","","survey-text","89","963825","0.0-13.0-3.9","80332","List1A","black","woman","","","","","{""Q0"":""mike and luke are flirting with each other""}","<img src=""stim_listA/flirt6.gif""style=""height:400px;""></stim_listA>","are flirting with each other",""
"null","<div style=""font-size:60px;"">+</div>","","html-keyboard-response","90","964341","0.0-13.0-0.10","80332","List1A","black","woman","","","","null","","","",""
"null","<img src=""stim_listA/play5.gif""style=""height:400px;""></stim_listA>","","html-keyboard-response","91","966346","0.0-13.0-1.10","80332","List1A","black","woman","","","","null","","","",""
"null","is playing with","","html-keyboard-response","92","968350","0.0-13.0-2.10","80332","List1A","black","woman","","","","null","","","",""
"20577","","","survey-text","93","988931","0.0-13.0-3.10","80332","List1A","black","woman","","","","","{""Q0"":""dave is playing with mike""}","<img src=""stim_listA/play5.gif""style=""height:400px;""></stim_listA>","is playing with",""
"null","<div style=""font-size:60px;"">+</div>","","html-keyboard-response","94","989446","0.0-13.0-0.11","80332","List1A","black","woman","","","","null","","","",""
"null","<img src=""stim_listA/talk8.gif""style=""height:400px;""></stim_listA>","","html-keyboard-response","95","991465","0.0-13.0-1.11","80332","List1A","black","woman","","","","null","","","",""
"null","are talking to each other","","html-keyboard-response","96","993472","0.0-13.0-2.11","80332","List1A","black","woman","","","","null","","","",""
"37328","","","survey-text","97","1030803","0.0-13.0-3.11","80332","List1A","black","woman","","","","","{""Q0"":""ruth and jane are talking to each other""}","<img src=""stim_listA/talk8.gif""style=""height:400px;""></stim_listA>","are talking to each other",""
"null","<div style=""font-size:60px;"">+</div>","","html-keyboard-response","98","1031324","0.0-13.0-0.12","80332","List1A","black","woman","","","","null","","","",""
"null","<img src=""stim_listA/shout4.gif""style=""height:400px;""></stim_listA>","","html-keyboard-response","99","1033329","0.0-13.0-1.12","80332","List1A","black","woman","","","","null","","","",""
"null","are shouting at each other","","html-keyboard-response","100","1035333","0.0-13.0-2.12","80332","List1A","black","woman","","","","null","","","",""
"27619","","","survey-text","101","1062956","0.0-13.0-3.12","80332","List1A","black","woman","","","","","{""Q0"":""ruth and dave are shouting at each other""}","<img src=""stim_listA/shout4.gif""style=""height:400px;""></stim_listA>","are shouting at each other",""
"null","<div style=""font-size:60px;"">+</div>","","html-keyboard-response","102","1063470","0.0-13.0-0.13","80332","List1A","black","woman","","","","null","","","",""
"null","<img src=""stim_listA/shout5.gif""style=""height:400px;""></stim_listA>","","html-keyboard-response","103","1065479","0.0-13.0-1.13","80332","List1A","black","woman","","","","null","","","",""
"null","is shouting at","","html-keyboard-response","104","1067483","0.0-13.0-2.13","80332","List1A","black","woman","","","","null","","","",""
"15467","","","survey-text","105","1082954","0.0-13.0-3.13","80332","List1A","black","woman","","","","","{""Q0"":""luke is shouting at fred""}","<img src=""stim_listA/shout5.gif""style=""height:400px;""></stim_listA>","is shouting at",""
"null","<div style=""font-size:60px;"">+</div>","","html-keyboard-response","106","1083467","0.0-13.0-0.14","80332","List1A","black","woman","","","","null","","","",""
"null","<img src=""stim_listA/fight5.gif""style=""height:400px;""></stim_listA>","","html-keyboard-response","107","1085473","0.0-13.0-1.14","80332","List1A","black","woman","","","","null","","","",""
"null","is fighting","","html-keyboard-response","108","1087480","0.0-13.0-2.14","80332","List1A","black","woman","","","","null","","","",""
"16068","","","survey-text","109","1103552","0.0-13.0-3.14","80332","List1A","black","woman","","","","","{""Q0"":""dave is fighting mike""}","<img src=""stim_listA/fight5.gif""style=""height:400px;""></stim_listA>","is fighting",""
"null","<div style=""font-size:60px;"">+</div>","","html-keyboard-response","110","1104066","0.0-13.0-0.15","80332","List1A","black","woman","","","","null","","","",""
"null","<img src=""stim_listA/argue4.gif""style=""height:400px;""></stim_listA>","","html-keyboard-response","111","1106078","0.0-13.0-1.15","80332","List1A","black","woman","","","","null","","","",""
"null","are arguing with each other","","html-keyboard-response","112","1108081","0.0-13.0-2.15","80332","List1A","black","woman","","","","null","","","",""
"24011","","","survey-text","113","1132097","0.0-13.0-3.15","80332","List1A","black","woman","","","","","{""Q0"":""luke and jane are arguing with each other""}","<img src=""stim_listA/argue4.gif""style=""height:400px;""></stim_listA>","are arguing with each other",""
"null","<div style=""font-size:60px;"">+</div>","","html-keyboard-response","114","1132614","0.0-13.0-0.16","80332","List1A","black","woman","","","","null","","","",""
"null","<img src=""stim_listA/flirt3.gif""style=""height:400px;""></stim_listA>","","html-keyboard-response","115","1134624","0.0-13.0-1.16","80332","List1A","black","woman","","","","null","","","",""
"null","is flirting with","","html-keyboard-response","116","1136627","0.0-13.0-2.16","80332","List1A","black","woman","","","","null","","","",""
"19562","","","survey-text","117","1156190","0.0-13.0-3.16","80332","List1A","black","woman","","","","","{""Q0"":""luke is flirting with ruth""}","<img src=""stim_listA/flirt3.gif""style=""height:400px;""></stim_listA>","is flirting with",""
"null","<div style=""font-size:60px;"">+</div>","","html-keyboard-response","118","1156697","0.0-13.0-0.17","80332","List1A","black","woman","","","","null","","","",""
"null","<img src=""stim_listA/argue5.gif""style=""height:400px;""></stim_listA>","","html-keyboard-response","119","1158702","0.0-13.0-1.17","80332","List1A","black","woman","","","","null","","","",""
"null","is arguing with","","html-keyboard-response","120","1160717","0.0-13.0-2.17","80332","List1A","black","woman","","","","null","","","",""
"17918","","","survey-text","121","1178638","0.0-13.0-3.17","80332","List1A","black","woman","","","","","{""Q0"":""luke is arguing with mike""}","<img src=""stim_listA/argue5.gif""style=""height:400px;""></stim_listA>","is arguing with",""
"null","<div style=""font-size:60px;"">+</div>","","html-keyboard-response","122","1179140","0.0-13.0-0.18","80332","List1A","black","woman","","","","null","","","",""
"null","<img src=""stim_listA/play6.gif""style=""height:400px;""></stim_listA>","","html-keyboard-response","123","1181146","0.0-13.0-1.18","80332","List1A","black","woman","","","","null","","","",""
"null","are playing with each other","","html-keyboard-response","124","1183151","0.0-13.0-2.18","80332","List1A","black","woman","","","","null","","","",""
"25917","","","survey-text","125","1209072","0.0-13.0-3.18","80332","List1A","black","woman","","","","","{""Q0"":""dave and luke are playing each other""}","<img src=""stim_listA/play6.gif""style=""height:400px;""></stim_listA>","are playing with each other",""
"null","<div style=""font-size:60px;"">+</div>","","html-keyboard-response","126","1209584","0.0-13.0-0.19","80332","List1A","black","woman","","","","null","","","",""
"null","<img src=""stim_listA/kiss3.gif""style=""height:400px;""></stim_listA>","","html-keyboard-response","127","1211593","0.0-13.0-1.19","80332","List1A","black","woman","","","","null","","","",""
"null","is kissing","","html-keyboard-response","128","1213602","0.0-13.0-2.19","80332","List1A","black","woman","","","","null","","","",""
"12637","","","survey-text","129","1226241","0.0-13.0-3.19","80332","List1A","black","woman","","","","","{""Q0"":""ruth is kissing luke""}","<img src=""stim_listA/kiss3.gif""style=""height:400px;""></stim_listA>","is kissing",""
"49138","<img src='img/portrait_matrix_list1.jpg' style='width:900px;height:500px;''></img><p>If you have memorised all the portraits and names and are ready to start, press Continue.</p><p><strong>Please note: Your memory of these faces will be tested 4 times during this experiment.</strong></p>","0","html-button-response","130","1275385","0.0-14.0-0.0","80332","List1A","black","woman","","","","","","","",""
"3065","<img src=""portrait/BM1.jpg""style=""height:400px;""></img>","4","html-button-response","131","1279458","0.0-14.0-1.0","80332","List1A","black","woman","","true","4","","","","",""
"null","CORRECT","","html-keyboard-response","132","1280977","0.0-14.0-2.0-0.0","80332","List1A","black","woman","","","","null","","","",""
"3507","<img src=""portrait/BM2.jpg""style=""height:400px;""></img>","5","html-button-response","133","1284490","0.0-14.0-4.0","80332","List1A","black","woman","","true","5","","","","",""
"null","CORRECT","","html-keyboard-response","134","1286007","0.0-14.0-5.0-0.0","80332","List1A","black","woman","","","","null","","","",""
"1938","<img src=""portrait/WW1.jpg""style=""height:400px;""></img>","1","html-button-response","135","1287949","0.0-14.0-7.0","80332","List1A","black","woman","","true","1","","","","",""
"null","CORRECT","","html-keyboard-response","136","1289471","0.0-14.0-8.0-0.0","80332","List1A","black","woman","","","","null","","","",""
"2316","<img src=""portrait/WM2.jpg""style=""height:400px;""></img>","7","html-button-response","137","1291794","0.0-14.0-10.0","80332","List1A","black","woman","","true","7","","","","",""
"null","CORRECT","","html-keyboard-response","138","1293306","0.0-14.0-11.0-0.0","80332","List1A","black","woman","","","","null","","","",""
"3608","<img src=""portrait/BW1.jpg""style=""height:400px;""></img>","0","html-button-response","139","1296920","0.0-14.0-13.0","80332","List1A","black","woman","","true","0","","","","",""
"null","CORRECT","","html-keyboard-response","140","1298437","0.0-14.0-14.0-0.0","80332","List1A","black","woman","","","","null","","","",""
"2242","<img src=""portrait/BW2.jpg""style=""height:400px;""></img>","2","html-button-response","141","1300685","0.0-14.0-16.0","80332","List1A","black","woman","","true","2","","","","",""
"null","CORRECT","","html-keyboard-response","142","1302191","0.0-14.0-17.0-0.0","80332","List1A","black","woman","","","","null","","","",""
"5153","<img src=""portrait/WM1.jpg""style=""height:400px;""></img>","6","html-button-response","143","1307350","0.0-14.0-19.0","80332","List1A","black","woman","","true","6","","","","",""
"null","CORRECT","","html-keyboard-response","144","1308873","0.0-14.0-20.0-0.0","80332","List1A","black","woman","","","","null","","","",""
"2275","<img src=""portrait/WW2.jpg""style=""height:400px;""></img>","3","html-button-response","145","1311153","0.0-14.0-22.0","80332","List1A","black","woman","","true","3","","","","",""
"null","CORRECT","","html-keyboard-response","146","1312675","0.0-14.0-23.0-0.0","80332","List1A","black","woman","","","","null","","","",""
"1764","<p>You got 8 out of 8 right first time. Press Continue.</p>","0","html-button-response","147","1314443","0.0-14.0-25.0","80332","List1A","black","woman","","","","","","","",""
"null","<div style=""font-size:60px;"">+</div>","","html-keyboard-response","148","1315954","0.0-15.0-0.0","80332","List1A","black","woman","","","","null","","","",""
"null","<img src=""stim_listA/touch2.gif""style=""height:400px;""></stim_listA>","","html-keyboard-response","149","1317969","0.0-15.0-1.0","80332","List1A","black","woman","","","","null","","","",""
"null","are touching each other","","html-keyboard-response","150","1319971","0.0-15.0-2.0","80332","List1A","black","woman","","","","null","","","",""
"23623","","","survey-text","151","1343597","0.0-15.0-3.0","80332","List1A","black","woman","","","","","{""Q0"":""fred and beth are touching each other""}","<img src=""stim_listA/touch2.gif""style=""height:400px;""></stim_listA>","are touching each other",""
"null","<div style=""font-size:60px;"">+</div>","","html-keyboard-response","152","1344105","0.0-15.0-0.1","80332","List1A","black","woman","","","","null","","","",""
"null","<img src=""stim_listA/touch6.gif""style=""height:400px;""></stim_listA>","","html-keyboard-response","153","1346114","0.0-15.0-1.1","80332","List1A","black","woman","","","","null","","","",""
"null","are touching each other","","html-keyboard-response","154","1348117","0.0-15.0-2.1","80332","List1A","black","woman","","","","null","","","",""
"23882","","","survey-text","155","1372002","0.0-15.0-3.1","80332","List1A","black","woman","","","","","{""Q0"":""fred and luke are touching each other""}","<img src=""stim_listA/touch6.gif""style=""height:400px;""></stim_listA>","are touching each other",""
"null","<div style=""font-size:60px;"">+</div>","","html-keyboard-response","156","1372517","0.0-15.0-0.2","80332","List1A","black","woman","","","","null","","","",""
"null","<img src=""stim_listA/touch5.gif""style=""height:400px;""></stim_listA>","","html-keyboard-response","157","1374523","0.0-15.0-1.2","80332","List1A","black","woman","","","","null","","","",""
"null","is touching","","html-keyboard-response","158","1376525","0.0-15.0-2.2","80332","List1A","black","woman","","","","null","","","",""
"8733","","","survey-text","159","1385261","0.0-15.0-3.2","80332","List1A","black","woman","","","","","{""Q0"":""mike is touching dave""}","<img src=""stim_listA/touch5.gif""style=""height:400px;""></stim_listA>","is touching",""
"null","<div style=""font-size:60px;"">+</div>","","html-keyboard-response","160","1385772","0.0-15.0-0.3","80332","List1A","black","woman","","","","null","","","",""
"null","<img src=""stim_listA/shout6.gif""style=""height:400px;""></stim_listA>","","html-keyboard-response","161","1387779","0.0-15.0-1.3","80332","List1A","black","woman","","","","null","","","",""
"null","are shouting at each other","","html-keyboard-response","162","1389784","0.0-15.0-2.3","80332","List1A","black","woman","","","","null","","","",""
"14772","","","survey-text","163","1404559","0.0-15.0-3.3","80332","List1A","black","woman","","","","","{""Q0"":""dave and mike are shouting""}","<img src=""stim_listA/shout6.gif""style=""height:400px;""></stim_listA>","are shouting at each other",""
"null","<div style=""font-size:60px;"">+</div>","","html-keyboard-response","164","1405067","0.0-15.0-0.4","80332","List1A","black","woman","","","","null","","","",""
"null","<img src=""stim_listA/argue8.gif""style=""height:400px;""></stim_listA>","","html-keyboard-response","165","1407078","0.0-15.0-1.4","80332","List1A","black","woman","","","","null","","","",""
"null","are arguing with each other","","html-keyboard-response","166","1409086","0.0-15.0-2.4","80332","List1A","black","woman","","","","null","","","",""
"19833","","","survey-text","167","1428923","0.0-15.0-3.4","80332","List1A","black","woman","","","","","{""Q0"":""jane and beth are arguing with each other""}","<img src=""stim_listA/argue8.gif""style=""height:400px;""></stim_listA>","are arguing with each other",""
"null","<div style=""font-size:60px;"">+</div>","","html-keyboard-response","168","1429431","0.0-15.0-0.5","80332","List1A","black","woman","","","","null","","","",""
"null","<img src=""stim_listA/argue3.gif""style=""height:400px;""></stim_listA>","","html-keyboard-response","169","1431441","0.0-15.0-1.5","80332","List1A","black","woman","","","","null","","","",""
"null","is arguing with","","html-keyboard-response","170","1433447","0.0-15.0-2.5","80332","List1A","black","woman","","","","null","","","",""
"38858","","","survey-text","171","1472308","0.0-15.0-3.5","80332","List1A","black","woman","","","","","{""Q0"":""ruth is arguing with dave""}","<img src=""stim_listA/argue3.gif""style=""height:400px;""></stim_listA>","is arguing with",""
"null","<div style=""font-size:60px;"">+</div>","","html-keyboard-response","172","1472817","0.0-15.0-0.6","80332","List1A","black","woman","","","","null","","","",""
"null","<img src=""stim_listA/play8.gif""style=""height:400px;""></stim_listA>","","html-keyboard-response","173","1474830","0.0-15.0-1.6","80332","List1A","black","woman","","","","null","","","",""
"null","are playing with each other","","html-keyboard-response","174","1476836","0.0-15.0-2.6","80332","List1A","black","woman","","","","null","","","",""
"17971","","","survey-text","175","1494810","0.0-15.0-3.6","80332","List1A","black","woman","","","","","{""Q0"":""ruth and beth are playing with each other""}","<img src=""stim_listA/play8.gif""style=""height:400px;""></stim_listA>","are playing with each other",""
"null","<div style=""font-size:60px;"">+</div>","","html-keyboard-response","176","1495322","0.0-15.0-0.7","80332","List1A","black","woman","","","","null","","","",""
"null","<img src=""stim_listA/dance6.gif""style=""height:400px;""></stim_listA>","","html-keyboard-response","177","1497328","0.0-15.0-1.7","80332","List1A","black","woman","","","","null","","","",""
"null","are dancing with each other","","html-keyboard-response","178","1499331","0.0-15.0-2.7","80332","List1A","black","woman","","","","null","","","",""
"17918","","","survey-text","179","1517251","0.0-15.0-3.7","80332","List1A","black","woman","","","","","{""Q0"":""mike and luke are dancing with each other""}","<img src=""stim_listA/dance6.gif""style=""height:400px;""></stim_listA>","are dancing with each other",""
"null","<div style=""font-size:60px;"">+</div>","","html-keyboard-response","180","1517763","0.0-15.0-0.8","80332","List1A","black","woman","","","","null","","","",""
"null","<img src=""stim_listA/shout1.gif""style=""height:400px;""></stim_listA>","","html-keyboard-response","181","1519767","0.0-15.0-1.8","80332","List1A","black","woman","","","","null","","","",""
"null","is shouting at","","html-keyboard-response","182","1521783","0.0-15.0-2.8","80332","List1A","black","woman","","","","null","","","",""
"14749","","","survey-text","183","1536535","0.0-15.0-3.8","80332","List1A","black","woman","","","","","{""Q0"":""beth is shouting at fred""}","<img src=""stim_listA/shout1.gif""style=""height:400px;""></stim_listA>","is shouting at",""
"null","<div style=""font-size:60px;"">+</div>","","html-keyboard-response","184","1537043","0.0-15.0-0.9","80332","List1A","black","woman","","","","null","","","",""
"null","<img src=""stim_listA/dance7.gif""style=""height:400px;""></stim_listA>","","html-keyboard-response","185","1539049","0.0-15.0-1.9","80332","List1A","black","woman","","","","null","","","",""
"null","is dancing with","","html-keyboard-response","186","1541053","0.0-15.0-2.9","80332","List1A","black","woman","","","","null","","","",""
"11510","","","survey-text","187","1552567","0.0-15.0-3.9","80332","List1A","black","woman","","","","","{""Q0"":""jane is dancing with beth""}","<img src=""stim_listA/dance7.gif""style=""height:400px;""></stim_listA>","is dancing with",""
"null","<div style=""font-size:60px;"">+</div>","","html-keyboard-response","188","1553074","0.0-15.0-0.10","80332","List1A","black","woman","","","","null","","","",""
"null","<img src=""stim_listA/flirt2.gif""style=""height:400px;""></stim_listA>","","html-keyboard-response","189","1555083","0.0-15.0-1.10","80332","List1A","black","woman","","","","null","","","",""
"null","are flirting with each other","","html-keyboard-response","190","1557092","0.0-15.0-2.10","80332","List1A","black","woman","","","","null","","","",""
"18642","","","survey-text","191","1575737","0.0-15.0-3.10","80332","List1A","black","woman","","","","","{""Q0"":""beth and mike are flirting with each other""}","<img src=""stim_listA/flirt2.gif""style=""height:400px;""></stim_listA>","are flirting with each other",""
"null","<div style=""font-size:60px;"">+</div>","","html-keyboard-response","192","1576251","0.0-15.0-0.11","80332","List1A","black","woman","","","","null","","","",""
"null","<img src=""stim_listA/kiss1.gif""style=""height:400px;""></stim_listA>","","html-keyboard-response","193","1578256","0.0-15.0-1.11","80332","List1A","black","woman","","","","null","","","",""
"null","is kissing","","html-keyboard-response","194","1580261","0.0-15.0-2.11","80332","List1A","black","woman","","","","null","","","",""
"11449","","","survey-text","195","1591712","0.0-15.0-3.11","80332","List1A","black","woman","","","","","{""Q0"":""beth is kissing fred""}","<img src=""stim_listA/kiss1.gif""style=""height:400px;""></stim_listA>","is kissing",""
"null","<div style=""font-size:60px;"">+</div>","","html-keyboard-response","196","1592231","0.0-15.0-0.12","80332","List1A","black","woman","","","","null","","","",""
"null","<img src=""stim_listA/flirt7.gif""style=""height:400px;""></stim_listA>","","html-keyboard-response","197","1594240","0.0-15.0-1.12","80332","List1A","black","woman","","","","null","","","",""
"null","is flirting with","","html-keyboard-response","198","1596244","0.0-15.0-2.12","80332","List1A","black","woman","","","","null","","","",""
"17083","","","survey-text","199","1613331","0.0-15.0-3.12","80332","List1A","black","woman","","","","","{""Q0"":""jane is flirting with beth""}","<img src=""stim_listA/flirt7.gif""style=""height:400px;""></stim_listA>","is flirting with",""
"null","<div style=""font-size:60px;"">+</div>","","html-keyboard-response","200","1613843","0.0-15.0-0.13","80332","List1A","black","woman","","","","null","","","",""
"null","<img src=""stim_listA/dance8.gif""style=""height:400px;""></stim_listA>","","html-keyboard-response","201","1615862","0.0-15.0-1.13","80332","List1A","black","woman","","","","null","","","",""
"null","are dancing with each other","","html-keyboard-response","202","1617882","0.0-15.0-2.13","80332","List1A","black","woman","","","","null","","","",""
"12273","","","survey-text","203","1630159","0.0-15.0-3.13","80332","List1A","black","woman","","","","","{""Q0"":""ruth and kate are dancing""}","<img src=""stim_listA/dance8.gif""style=""height:400px;""></stim_listA>","are dancing with each other",""
"null","<div style=""font-size:60px;"">+</div>","","html-keyboard-response","204","1630662","0.0-15.0-0.14","80332","List1A","black","woman","","","","null","","","",""
"null","<img src=""stim_listA/flirt5.gif""style=""height:400px;""></stim_listA>","","html-keyboard-response","205","1632668","0.0-15.0-1.14","80332","List1A","black","woman","","","","null","","","",""
"null","is flirting with","","html-keyboard-response","206","1634681","0.0-15.0-2.14","80332","List1A","black","woman","","","","null","","","",""
"14445","","","survey-text","207","1649128","0.0-15.0-3.14","80332","List1A","black","woman","","","","","{""Q0"":""fred is flirting with dave""}","<img src=""stim_listA/flirt5.gif""style=""height:400px;""></stim_listA>","is flirting with",""
"null","<div style=""font-size:60px;"">+</div>","","html-keyboard-response","208","1649633","0.0-15.0-0.15","80332","List1A","black","woman","","","","null","","","",""
"null","<img src=""stim_listA/shout7.gif""style=""height:400px;""></stim_listA>","","html-keyboard-response","209","1651638","0.0-15.0-1.15","80332","List1A","black","woman","","","","null","","","",""
"null","is shouting at","","html-keyboard-response","210","1653649","0.0-15.0-2.15","80332","List1A","black","woman","","","","null","","","",""
"15395","","","survey-text","211","1669048","0.0-15.0-3.15","80332","List1A","black","woman","","","","","{""Q0"":""beth is shouting at ruth""}","<img src=""stim_listA/shout7.gif""style=""height:400px;""></stim_listA>","is shouting at",""
"null","<div style=""font-size:60px;"">+</div>","","html-keyboard-response","212","1669562","0.0-15.0-0.16","80332","List1A","black","woman","","","","null","","","",""
"null","<img src=""stim_listA/flirt8.gif""style=""height:400px;""></stim_listA>","","html-keyboard-response","213","1671567","0.0-15.0-1.16","80332","List1A","black","woman","","","","null","","","",""
"null","are flirting with each other","","html-keyboard-response","214","1673573","0.0-15.0-2.16","80332","List1A","black","woman","","","","null","","","",""
"9656","","","survey-text","215","1683232","0.0-15.0-3.16","80332","List1A","black","woman","","","","","{""Q0"":""""}","<img src=""stim_listA/flirt8.gif""style=""height:400px;""></stim_listA>","are flirting with each other",""
"null","<div style=""font-size:60px;"">+</div>","","html-keyboard-response","216","1683737","0.0-15.0-0.17","80332","List1A","black","woman","","","","null","","","",""
"null","<img src=""stim_listA/marry5.gif""style=""height:400px;""></stim_listA>","","html-keyboard-response","217","1685745","0.0-15.0-1.17","80332","List1A","black","woman","","","","null","","","",""
"null","is marrying","","html-keyboard-response","218","1687748","0.0-15.0-2.17","80332","List1A","black","woman","","","","null","","","",""
"11868","","","survey-text","219","1699619","0.0-15.0-3.17","80332","List1A","black","woman","","","","","{""Q0"":""luke is marrying mike""}","<img src=""stim_listA/marry5.gif""style=""height:400px;""></stim_listA>","is marrying",""
"null","<div style=""font-size:60px;"">+</div>","","html-keyboard-response","220","1700128","0.0-15.0-0.18","80332","List1A","black","woman","","","","null","","","",""
"null","<img src=""stim_listA/fight6.gif""style=""height:400px;""></stim_listA>","","html-keyboard-response","221","1702140","0.0-15.0-1.18","80332","List1A","black","woman","","","","null","","","",""
"null","are fighting each other","","html-keyboard-response","222","1704147","0.0-15.0-2.18","80332","List1A","black","woman","","","","null","","","",""
"22582","","","survey-text","223","1726733","0.0-15.0-3.18","80332","List1A","black","woman","","","","","{""Q0"":""luke and fred are fighting each other""}","<img src=""stim_listA/fight6.gif""style=""height:400px;""></stim_listA>","are fighting each other",""
"null","<div style=""font-size:60px;"">+</div>","","html-keyboard-response","224","1727248","0.0-15.0-0.19","80332","List1A","black","woman","","","","null","","","",""
"null","<img src=""stim_listA/play7.gif""style=""height:400px;""></stim_listA>","","html-keyboard-response","225","1729261","0.0-15.0-1.19","80332","List1A","black","woman","","","","null","","","",""
"null","is playing with","","html-keyboard-response","226","1731264","0.0-15.0-2.19","80332","List1A","black","woman","","","","null","","","",""
"11978","","","survey-text","227","1743247","0.0-15.0-3.19","80332","List1A","black","woman","","","","","{""Q0"":""jane is playing with kate""}","<img src=""stim_listA/play7.gif""style=""height:400px;""></stim_listA>","is playing with",""
"24134","<img src='img/portrait_matrix_list1.jpg' style='width:900px;height:500px;''></img><p>If you have memorised all the portraits and names and are ready to start, press Continue.</p><p><strong>Please note: Your memory of these faces will be tested 4 times during this experiment.</strong></p>","0","html-button-response","228","1767385","0.0-16.0-0.0","80332","List1A","black","woman","","","","","","","",""
"2663","<img src=""portrait/WM2.jpg""style=""height:400px;""></img>","7","html-button-response","229","1771067","0.0-16.0-1.0","80332","List1A","black","woman","","true","7","","","","",""
"null","CORRECT","","html-keyboard-response","230","1772584","0.0-16.0-2.0-0.0","80332","List1A","black","woman","","","","null","","","",""
"2508","<img src=""portrait/WW1.jpg""style=""height:400px;""></img>","1","html-button-response","231","1775099","0.0-16.0-4.0","80332","List1A","black","woman","","true","1","","","","",""
"null","CORRECT","","html-keyboard-response","232","1776613","0.0-16.0-5.0-0.0","80332","List1A","black","woman","","","","null","","","",""
"1898","<img src=""portrait/BW2.jpg""style=""height:400px;""></img>","2","html-button-response","233","1778515","0.0-16.0-7.0","80332","List1A","black","woman","","true","2","","","","",""
"null","CORRECT","","html-keyboard-response","234","1780040","0.0-16.0-8.0-0.0","80332","List1A","black","woman","","","","null","","","",""
"4466","<img src=""portrait/WM1.jpg""style=""height:400px;""></img>","6","html-button-response","235","1784509","0.0-16.0-10.0","80332","List1A","black","woman","","true","6","","","","",""
"null","CORRECT","","html-keyboard-response","236","1786027","0.0-16.0-11.0-0.0","80332","List1A","black","woman","","","","null","","","",""
"1948","<img src=""portrait/BM2.jpg""style=""height:400px;""></img>","5","html-button-response","237","1787980","0.0-16.0-13.0","80332","List1A","black","woman","","true","5","","","","",""
"null","CORRECT","","html-keyboard-response","238","1789502","0.0-16.0-14.0-0.0","80332","List1A","black","woman","","","","null","","","",""
"1769","<img src=""portrait/BM1.jpg""style=""height:400px;""></img>","4","html-button-response","239","1791278","0.0-16.0-16.0","80332","List1A","black","woman","","true","4","","","","",""
"null","CORRECT","","html-keyboard-response","240","1792801","0.0-16.0-17.0-0.0","80332","List1A","black","woman","","","","null","","","",""
"2676","<img src=""portrait/BW1.jpg""style=""height:400px;""></img>","0","html-button-response","241","1795482","0.0-16.0-19.0","80332","List1A","black","woman","","true","0","","","","",""
"null","CORRECT","","html-keyboard-response","242","1797003","0.0-16.0-20.0-0.0","80332","List1A","black","woman","","","","null","","","",""
"4391","<img src=""portrait/WW2.jpg""style=""height:400px;""></img>","3","html-button-response","243","1801399","0.0-16.0-22.0","80332","List1A","black","woman","","true","3","","","","",""
"null","CORRECT","","html-keyboard-response","244","1802912","0.0-16.0-23.0-0.0","80332","List1A","black","woman","","","","null","","","",""
"2612","<p>You got 8 out of 8 right first time. Press Continue.</p>","0","html-button-response","245","1805527","0.0-16.0-25.0","80332","List1A","black","woman","","","","","","","",""
"null","<div style=""font-size:60px;"">+</div>","","html-keyboard-response","246","1807044","0.0-17.0-0.0","80332","List1A","black","woman","","","","null","","","",""
"null","<img src=""stim_listA/dance3.gif""style=""height:400px;""></stim_listA>","","html-keyboard-response","247","1809052","0.0-17.0-1.0","80332","List1A","black","woman","","","","null","","","",""
"null","is dancing with","","html-keyboard-response","248","1811067","0.0-17.0-2.0","80332","List1A","black","woman","","","","null","","","",""
"11812","","","survey-text","249","1822884","0.0-17.0-3.0","80332","List1A","black","woman","","","","","{""Q0"":""jane is dancing with fred""}","<img src=""stim_listA/dance3.gif""style=""height:400px;""></stim_listA>","is dancing with",""
"null","<div style=""font-size:60px;"">+</div>","","html-keyboard-response","250","1823402","0.0-17.0-0.1","80332","List1A","black","woman","","","","null","","","",""
"null","<img src=""stim_listA/kiss8.gif""style=""height:400px;""></stim_listA>","","html-keyboard-response","251","1825417","0.0-17.0-1.1","80332","List1A","black","woman","","","","null","","","",""
"null","are kissing each other","","html-keyboard-response","252","1827423","0.0-17.0-2.1","80332","List1A","black","woman","","","","null","","","",""
"19300","","","survey-text","253","1846727","0.0-17.0-3.1","80332","List1A","black","woman","","","","","{""Q0"":""jaane and kate are kissing each other""}","<img src=""stim_listA/kiss8.gif""style=""height:400px;""></stim_listA>","are kissing each other",""
"null","<div style=""font-size:60px;"">+</div>","","html-keyboard-response","254","1847238","0.0-17.0-0.2","80332","List1A","black","woman","","","","null","","","",""
"null","<img src=""stim_listA/play4.gif""style=""height:400px;""></stim_listA>","","html-keyboard-response","255","1849244","0.0-17.0-1.2","80332","List1A","black","woman","","","","null","","","",""
"null","are playing with each other","","html-keyboard-response","256","1851247","0.0-17.0-2.2","80332","List1A","black","woman","","","","null","","","",""
"15344","","","survey-text","257","1866594","0.0-17.0-3.2","80332","List1A","black","woman","","","","","{""Q0"":""ruth and luke are playing each other""}","<img src=""stim_listA/play4.gif""style=""height:400px;""></stim_listA>","are playing with each other",""
"null","<div style=""font-size:60px;"">+</div>","","html-keyboard-response","258","1867102","0.0-17.0-0.3","80332","List1A","black","woman","","","","null","","","",""
"null","<img src=""stim_listA/play2.gif""style=""height:400px;""></stim_listA>","","html-keyboard-response","259","1869112","0.0-17.0-1.3","80332","List1A","black","woman","","","","null","","","",""
"null","are playing with each other","","html-keyboard-response","260","1871119","0.0-17.0-2.3","80332","List1A","black","woman","","","","null","","","",""
"20240","","","survey-text","261","1891363","0.0-17.0-3.3","80332","List1A","black","woman","","","","","{""Q0"":""beth and fred are playing with each other""}","<img src=""stim_listA/play2.gif""style=""height:400px;""></stim_listA>","are playing with each other",""
"null","<div style=""font-size:60px;"">+</div>","","html-keyboard-response","262","1891867","0.0-17.0-0.4","80332","List1A","black","woman","","","","null","","","",""
"null","<img src=""stim_listA/talk1.gif""style=""height:400px;""></stim_listA>","","html-keyboard-response","263","1893881","0.0-17.0-1.4","80332","List1A","black","woman","","","","null","","","",""
"null","is talking to","","html-keyboard-response","264","1895897","0.0-17.0-2.4","80332","List1A","black","woman","","","","null","","","",""
"10219","","","survey-text","265","1906120","0.0-17.0-3.4","80332","List1A","black","woman","","","","","{""Q0"":""kate is talking to fred""}","<img src=""stim_listA/talk1.gif""style=""height:400px;""></stim_listA>","is talking to",""
"null","<div style=""font-size:60px;"">+</div>","","html-keyboard-response","266","1906633","0.0-17.0-0.5","80332","List1A","black","woman","","","","null","","","",""
"null","<img src=""stim_listA/marry8.gif""style=""height:400px;""></stim_listA>","","html-keyboard-response","267","1908640","0.0-17.0-1.5","80332","List1A","black","woman","","","","null","","","",""
"null","are marrying each other","","html-keyboard-response","268","1910653","0.0-17.0-2.5","80332","List1A","black","woman","","","","null","","","",""
"18164","","","survey-text","269","1928821","0.0-17.0-3.5","80332","List1A","black","woman","","","","","{""Q0"":""beth and jane are marrying each other""}","<img src=""stim_listA/marry8.gif""style=""height:400px;""></stim_listA>","are marrying each other",""
"null","<div style=""font-size:60px;"">+</div>","","html-keyboard-response","270","1929338","0.0-17.0-0.6","80332","List1A","black","woman","","","","null","","","",""
"null","<img src=""stim_listA/flirt4.gif""style=""height:400px;""></stim_listA>","","html-keyboard-response","271","1931351","0.0-17.0-1.6","80332","List1A","black","woman","","","","null","","","",""
"null","are flirting with each other","","html-keyboard-response","272","1933353","0.0-17.0-2.6","80332","List1A","black","woman","","","","null","","","",""
"19028","","","survey-text","273","1952385","0.0-17.0-3.6","80332","List1A","black","woman","","","","","{""Q0"":""ruth and dave are flirting with each other""}","<img src=""stim_listA/flirt4.gif""style=""height:400px;""></stim_listA>","are flirting with each other",""
"null","<div style=""font-size:60px;"">+</div>","","html-keyboard-response","274","1952900","0.0-17.0-0.7","80332","List1A","black","woman","","","","null","","","",""
"null","<img src=""stim_listA/dance2.gif""style=""height:400px;""></stim_listA>","","html-keyboard-response","275","1954904","0.0-17.0-1.7","80332","List1A","black","woman","","","","null","","","",""
"null","are dancing with each other","","html-keyboard-response","276","1956909","0.0-17.0-2.7","80332","List1A","black","woman","","","","null","","","",""
"15464","","","survey-text","277","1972376","0.0-17.0-3.7","80332","List1A","black","woman","","","","","{""Q0"":""mike and beth are dancing with each other""}","<img src=""stim_listA/dance2.gif""style=""height:400px;""></stim_listA>","are dancing with each other",""
"null","<div style=""font-size:60px;"">+</div>","","html-keyboard-response","278","1972884","0.0-17.0-0.8","80332","List1A","black","woman","","","","null","","","",""
"null","<img src=""stim_listA/argue2.gif""style=""height:400px;""></stim_listA>","","html-keyboard-response","279","1974889","0.0-17.0-1.8","80332","List1A","black","woman","","","","null","","","",""
"null","are arguing with each other","","html-keyboard-response","280","1976894","0.0-17.0-2.8","80332","List1A","black","woman","","","","null","","","",""
"19589","","","survey-text","281","1996486","0.0-17.0-3.8","80332","List1A","black","woman","","","","","{""Q0"":""kate and fred are arguing with each other""}","<img src=""stim_listA/argue2.gif""style=""height:400px;""></stim_listA>","are arguing with each other",""
"null","<div style=""font-size:60px;"">+</div>","","html-keyboard-response","282","1996991","0.0-17.0-0.9","80332","List1A","black","woman","","","","null","","","",""
"null","<img src=""stim_listA/argue1.gif""style=""height:400px;""></stim_listA>","","html-keyboard-response","283","1999000","0.0-17.0-1.9","80332","List1A","black","woman","","","","null","","","",""
"null","is arguing with","","html-keyboard-response","284","2001004","0.0-17.0-2.9","80332","List1A","black","woman","","","","null","","","",""
"11436","","","survey-text","285","2012446","0.0-17.0-3.9","80332","List1A","black","woman","","","","","{""Q0"":""beth is arguing with mike""}","<img src=""stim_listA/argue1.gif""style=""height:400px;""></stim_listA>","is arguing with",""
"null","<div style=""font-size:60px;"">+</div>","","html-keyboard-response","286","2012957","0.0-17.0-0.10","80332","List1A","black","woman","","","","null","","","",""
"null","<img src=""stim_listA/touch3.gif""style=""height:400px;""></stim_listA>","","html-keyboard-response","287","2014962","0.0-17.0-1.10","80332","List1A","black","woman","","","","null","","","",""
"null","is touching","","html-keyboard-response","288","2016970","0.0-17.0-2.10","80332","List1A","black","woman","","","","null","","","",""
"29968","","","survey-text","289","2046942","0.0-17.0-3.10","80332","List1A","black","woman","","","","","{""Q0"":""jane is touching dave""}","<img src=""stim_listA/touch3.gif""style=""height:400px;""></stim_listA>","is touching",""
"null","<div style=""font-size:60px;"">+</div>","","html-keyboard-response","290","2047458","0.0-17.0-0.11","80332","List1A","black","woman","","","","null","","","",""
"null","<img src=""stim_listA/talk2.gif""style=""height:400px;""></stim_listA>","","html-keyboard-response","291","2049466","0.0-17.0-1.11","80332","List1A","black","woman","","","","null","","","",""
"null","are talking to each other","","html-keyboard-response","292","2051482","0.0-17.0-2.11","80332","List1A","black","woman","","","","null","","","",""
"22208","","","survey-text","293","2073691","0.0-17.0-3.11","80332","List1A","black","woman","","","","","{""Q0"":""mike and beth are talking to each other""}","<img src=""stim_listA/talk2.gif""style=""height:400px;""></stim_listA>","are talking to each other",""
"null","<div style=""font-size:60px;"">+</div>","","html-keyboard-response","294","2074202","0.0-17.0-0.12","80332","List1A","black","woman","","","","null","","","",""
"null","<img src=""stim_listA/touch1.gif""style=""height:400px;""></stim_listA>","","html-keyboard-response","295","2076214","0.0-17.0-1.12","80332","List1A","black","woman","","","","null","","","",""
"null","is touching","","html-keyboard-response","296","2078218","0.0-17.0-2.12","80332","List1A","black","woman","","","","null","","","",""
"12857","","","survey-text","297","2091077","0.0-17.0-3.12","80332","List1A","black","woman","","","","","{""Q0"":""kate is touching mike""}","<img src=""stim_listA/touch1.gif""style=""height:400px;""></stim_listA>","is touching",""
"null","<div style=""font-size:60px;"">+</div>","","html-keyboard-response","298","2091582","0.0-17.0-0.13","80332","List1A","black","woman","","","","null","","","",""
"null","<img src=""stim_listA/touch7.gif""style=""height:400px;""></stim_listA>","","html-keyboard-response","299","2093587","0.0-17.0-1.13","80332","List1A","black","woman","","","","null","","","",""
"null","is touching","","html-keyboard-response","300","2095592","0.0-17.0-2.13","80332","List1A","black","woman","","","","null","","","",""
"12343","","","survey-text","301","2107938","0.0-17.0-3.13","80332","List1A","black","woman","","","","","{""Q0"":""jane is touching kate""}","<img src=""stim_listA/touch7.gif""style=""height:400px;""></stim_listA>","is touching",""
"null","<div style=""font-size:60px;"">+</div>","","html-keyboard-response","302","2108459","0.0-17.0-0.14","80332","List1A","black","woman","","","","null","","","",""
"null","<img src=""stim_listA/play3.gif""style=""height:400px;""></stim_listA>","","html-keyboard-response","303","2110468","0.0-17.0-1.14","80332","List1A","black","woman","","","","null","","","",""
"null","is playing with","","html-keyboard-response","304","2112469","0.0-17.0-2.14","80332","List1A","black","woman","","","","null","","","",""
"10444","","","survey-text","305","2122917","0.0-17.0-3.14","80332","List1A","black","woman","","","","","{""Q0"":""jane is playing with dave""}","<img src=""stim_listA/play3.gif""style=""height:400px;""></stim_listA>","is playing with",""
"null","<div style=""font-size:60px;"">+</div>","","html-keyboard-response","306","2123431","0.0-17.0-0.15","80332","List1A","black","woman","","","","null","","","",""
"null","<img src=""stim_listA/fight7.gif""style=""height:400px;""></stim_listA>","","html-keyboard-response","307","2125436","0.0-17.0-1.15","80332","List1A","black","woman","","","","null","","","",""
"null","is fighting","","html-keyboard-response","308","2127439","0.0-17.0-2.15","80332","List1A","black","woman","","","","null","","","",""
"9496","","","survey-text","309","2136937","0.0-17.0-3.15","80332","List1A","black","woman","","","","","{""Q0"":""jane is fighting kate""}","<img src=""stim_listA/fight7.gif""style=""height:400px;""></stim_listA>","is fighting",""
"null","<div style=""font-size:60px;"">+</div>","","html-keyboard-response","310","2137447","0.0-17.0-0.16","80332","List1A","black","woman","","","","null","","","",""
"null","<img src=""stim_listA/fight4.gif""style=""height:400px;""></stim_listA>","","html-keyboard-response","311","2139459","0.0-17.0-1.16","80332","List1A","black","woman","","","","null","","","",""
"null","are fighting each other","","html-keyboard-response","312","2141463","0.0-17.0-2.16","80332","List1A","black","woman","","","","null","","","",""
"15599","","","survey-text","313","2157066","0.0-17.0-3.16","80332","List1A","black","woman","","","","","{""Q0"":""luke and ruth are fighting each other""}","<img src=""stim_listA/fight4.gif""style=""height:400px;""></stim_listA>","are fighting each other",""
"null","<div style=""font-size:60px;"">+</div>","","html-keyboard-response","314","2157581","0.0-17.0-0.17","80332","List1A","black","woman","","","","null","","","",""
"null","<img src=""stim_listA/play1.gif""style=""height:400px;""></stim_listA>","","html-keyboard-response","315","2159586","0.0-17.0-1.17","80332","List1A","black","woman","","","","null","","","",""
"null","is playing with","","html-keyboard-response","316","2161591","0.0-17.0-2.17","80332","List1A","black","woman","","","","null","","","",""
"16967","","","survey-text","317","2178561","0.0-17.0-3.17","80332","List1A","black","woman","","","","","{""Q0"":""mike is playing with kate""}","<img src=""stim_listA/play1.gif""style=""height:400px;""></stim_listA>","is playing with",""
"null","<div style=""font-size:60px;"">+</div>","","html-keyboard-response","318","2179068","0.0-17.0-0.18","80332","List1A","black","woman","","","","null","","","",""
"null","<img src=""stim_listA/shout3.gif""style=""height:400px;""></stim_listA>","","html-keyboard-response","319","2181087","0.0-17.0-1.18","80332","List1A","black","woman","","","","null","","","",""
"null","is shouting at","","html-keyboard-response","320","2183094","0.0-17.0-2.18","80332","List1A","black","woman","","","","null","","","",""
"18552","","","survey-text","321","2201650","0.0-17.0-3.18","80332","List1A","black","woman","","","","","{""Q0"":""ruth is shouthing at luke""}","<img src=""stim_listA/shout3.gif""style=""height:400px;""></stim_listA>","is shouting at",""
"null","<div style=""font-size:60px;"">+</div>","","html-keyboard-response","322","2202167","0.0-17.0-0.19","80332","List1A","black","woman","","","","null","","","",""
"null","<img src=""stim_listA/kiss7.gif""style=""height:400px;""></stim_listA>","","html-keyboard-response","323","2204174","0.0-17.0-1.19","80332","List1A","black","woman","","","","null","","","",""
"null","is kissing","","html-keyboard-response","324","2206177","0.0-17.0-2.19","80332","List1A","black","woman","","","","null","","","",""
"17421","","","survey-text","325","2223601","0.0-17.0-3.19","80332","List1A","black","woman","","","","","{""Q0"":""beth is kissing ruth""}","<img src=""stim_listA/kiss7.gif""style=""height:400px;""></stim_listA>","is kissing",""
"9421","<img src='img/portrait_matrix_list1.jpg' style='width:900px;height:500px;''></img><p>If you have memorised all the portraits and names and are ready to start, press Continue.</p><p><strong>Please note: Your memory of these faces will be tested 4 times during this experiment.</strong></p>","0","html-button-response","326","2233027","0.0-18.0-0.0","80332","List1A","black","woman","","","","","","","",""
"2368","<img src=""portrait/BM1.jpg""style=""height:400px;""></img>","4","html-button-response","327","2236409","0.0-18.0-1.0","80332","List1A","black","woman","","true","4","","","","",""
"null","CORRECT","","html-keyboard-response","328","2237933","0.0-18.0-2.0-0.0","80332","List1A","black","woman","","","","null","","","",""
"2753","<img src=""portrait/BW2.jpg""style=""height:400px;""></img>","2","html-button-response","329","2240689","0.0-18.0-4.0","80332","List1A","black","woman","","true","2","","","","",""
"null","CORRECT","","html-keyboard-response","330","2242221","0.0-18.0-5.0-0.0","80332","List1A","black","woman","","","","null","","","",""
"2232","<img src=""portrait/WW2.jpg""style=""height:400px;""></img>","3","html-button-response","331","2244458","0.0-18.0-7.0","80332","List1A","black","woman","","true","3","","","","",""
"null","CORRECT","","html-keyboard-response","332","2245982","0.0-18.0-8.0-0.0","80332","List1A","black","woman","","","","null","","","",""
"2850","<img src=""portrait/WM2.jpg""style=""height:400px;""></img>","7","html-button-response","333","2248837","0.0-18.0-10.0","80332","List1A","black","woman","","true","7","","","","",""
"null","CORRECT","","html-keyboard-response","334","2250357","0.0-18.0-11.0-0.0","80332","List1A","black","woman","","","","null","","","",""
"9019","<img src=""portrait/BM2.jpg""style=""height:400px;""></img>","5","html-button-response","335","2259380","0.0-18.0-13.0","80332","List1A","black","woman","","true","5","","","","",""
"null","CORRECT","","html-keyboard-response","336","2260904","0.0-18.0-14.0-0.0","80332","List1A","black","woman","","","","null","","","",""
"2936","<img src=""portrait/WW1.jpg""style=""height:400px;""></img>","1","html-button-response","337","2263849","0.0-18.0-16.0","80332","List1A","black","woman","","true","1","","","","",""
"null","CORRECT","","html-keyboard-response","338","2265362","0.0-18.0-17.0-0.0","80332","List1A","black","woman","","","","null","","","",""
"3857","<img src=""portrait/WM1.jpg""style=""height:400px;""></img>","6","html-button-response","339","2269225","0.0-18.0-19.0","80332","List1A","black","woman","","true","6","","","","",""
"null","CORRECT","","html-keyboard-response","340","2270757","0.0-18.0-20.0-0.0","80332","List1A","black","woman","","","","null","","","",""
"2521","<img src=""portrait/BW1.jpg""style=""height:400px;""></img>","0","html-button-response","341","2273285","0.0-18.0-22.0","80332","List1A","black","woman","","true","0","","","","",""
"null","CORRECT","","html-keyboard-response","342","2274813","0.0-18.0-23.0-0.0","80332","List1A","black","woman","","","","null","","","",""
"1950","<p>You got 8 out of 8 right first time. Press Continue.</p>","0","html-button-response","343","2276767","0.0-18.0-25.0","80332","List1A","black","woman","","","","","","","",""
"null","<div style=""font-size:60px;"">+</div>","","html-keyboard-response","344","2278297","0.0-19.0-0.0","80332","List1A","black","woman","","","","null","","","",""
"null","<img src=""stim_listA/shout2.gif""style=""height:400px;""></stim_listA>","","html-keyboard-response","345","2280304","0.0-19.0-1.0","80332","List1A","black","woman","","","","null","","","",""
"null","are shouting at each other","","html-keyboard-response","346","2282318","0.0-19.0-2.0","80332","List1A","black","woman","","","","null","","","",""
"17013","","","survey-text","347","2299335","0.0-19.0-3.0","80332","List1A","black","woman","","","","","{""Q0"":""kate and mike are shouting""}","<img src=""stim_listA/shout2.gif""style=""height:400px;""></stim_listA>","are shouting at each other",""
"null","<div style=""font-size:60px;"">+</div>","","html-keyboard-response","348","2299846","0.0-19.0-0.1","80332","List1A","black","woman","","","","null","","","",""
"null","<img src=""stim_listA/fight3.gif""style=""height:400px;""></stim_listA>","","html-keyboard-response","349","2301854","0.0-19.0-1.1","80332","List1A","black","woman","","","","null","","","",""
"null","is fighting","","html-keyboard-response","350","2303857","0.0-19.0-2.1","80332","List1A","black","woman","","","","null","","","",""
"13874","","","survey-text","351","2317735","0.0-19.0-3.1","80332","List1A","black","woman","","","","","{""Q0"":""dave is fighting jane""}","<img src=""stim_listA/fight3.gif""style=""height:400px;""></stim_listA>","is fighting",""
"null","<div style=""font-size:60px;"">+</div>","","html-keyboard-response","352","2318251","0.0-19.0-0.2","80332","List1A","black","woman","","","","null","","","",""
"null","<img src=""stim_listA/fight1.gif""style=""height:400px;""></stim_listA>","","html-keyboard-response","353","2320258","0.0-19.0-1.2","80332","List1A","black","woman","","","","null","","","",""
"null","is fighting","","html-keyboard-response","354","2322261","0.0-19.0-2.2","80332","List1A","black","woman","","","","null","","","",""
"27638","","","survey-text","355","2349903","0.0-19.0-3.2","80332","List1A","black","woman","","","","","{""Q0"":""mike is fighting kate""}","<img src=""stim_listA/fight1.gif""style=""height:400px;""></stim_listA>","is fighting",""
"null","<div style=""font-size:60px;"">+</div>","","html-keyboard-response","356","2350407","0.0-19.0-0.3","80332","List1A","black","woman","","","","null","","","",""
"null","<img src=""stim_listA/talk3.gif""style=""height:400px;""></stim_listA>","","html-keyboard-response","357","2352414","0.0-19.0-1.3","80332","List1A","black","woman","","","","null","","","",""
"null","is talking to","","html-keyboard-response","358","2354421","0.0-19.0-2.3","80332","List1A","black","woman","","","","null","","","",""
"17856","","","survey-text","359","2372281","0.0-19.0-3.3","80332","List1A","black","woman","","","","","{""Q0"":""luke is talking to jane""}","<img src=""stim_listA/talk3.gif""style=""height:400px;""></stim_listA>","is talking to",""
"null","<div style=""font-size:60px;"">+</div>","","html-keyboard-response","360","2372793","0.0-19.0-0.4","80332","List1A","black","woman","","","","null","","","",""
"null","<img src=""stim_listA/shout8.gif""style=""height:400px;""></stim_listA>","","html-keyboard-response","361","2374801","0.0-19.0-1.4","80332","List1A","black","woman","","","","null","","","",""
"null","are shouting at each other","","html-keyboard-response","362","2376818","0.0-19.0-2.4","80332","List1A","black","woman","","","","null","","","",""
"35590","","","survey-text","363","2412411","0.0-19.0-3.4","80332","List1A","black","woman","","","","","{""Q0"":""jane and kate are shouting at each other""}","<img src=""stim_listA/shout8.gif""style=""height:400px;""></stim_listA>","are shouting at each other",""
"null","<div style=""font-size:60px;"">+</div>","","html-keyboard-response","364","2412921","0.0-19.0-0.5","80332","List1A","black","woman","","","","null","","","",""
"null","<img src=""stim_listA/touch4.gif""style=""height:400px;""></stim_listA>","","html-keyboard-response","365","2414929","0.0-19.0-1.5","80332","List1A","black","woman","","","","null","","","",""
"null","are touching each other","","html-keyboard-response","366","2416934","0.0-19.0-2.5","80332","List1A","black","woman","","","","null","","","",""
"56035","","","survey-text","367","2472972","0.0-19.0-3.5","80332","List1A","black","woman","","","","","{""Q0"":""are toucing each other""}","<img src=""stim_listA/touch4.gif""style=""height:400px;""></stim_listA>","are touching each other",""
"null","<div style=""font-size:60px;"">+</div>","","html-keyboard-response","368","2473487","0.0-19.0-0.6","80332","List1A","black","woman","","","","null","","","",""
"null","<img src=""stim_listA/kiss4.gif""style=""height:400px;""></stim_listA>","","html-keyboard-response","369","2475494","0.0-19.0-1.6","80332","List1A","black","woman","","","","null","","","",""
"null","are kissing each other","","html-keyboard-response","370","2477504","0.0-19.0-2.6","80332","List1A","black","woman","","","","null","","","",""
"28813","","","survey-text","371","2506320","0.0-19.0-3.6","80332","List1A","black","woman","","","","","{""Q0"":""dave and jane are kissing each other""}","<img src=""stim_listA/kiss4.gif""style=""height:400px;""></stim_listA>","are kissing each other",""
"null","<div style=""font-size:60px;"">+</div>","","html-keyboard-response","372","2506837","0.0-19.0-0.7","80332","List1A","black","woman","","","","null","","","",""
"null","<img src=""stim_listA/kiss5.gif""style=""height:400px;""></stim_listA>","","html-keyboard-response","373","2508842","0.0-19.0-1.7","80332","List1A","black","woman","","","","null","","","",""
"null","is kissing","","html-keyboard-response","374","2510844","0.0-19.0-2.7","80332","List1A","black","woman","","","","null","","","",""
"29073","","","survey-text","375","2539919","0.0-19.0-3.7","80332","List1A","black","woman","","","","","{""Q0"":""dave is kissing luke""}","<img src=""stim_listA/kiss5.gif""style=""height:400px;""></stim_listA>","is kissing",""
"null","<div style=""font-size:60px;"">+</div>","","html-keyboard-response","376","2540431","0.0-19.0-0.8","80332","List1A","black","woman","","","","null","","","",""
"null","<img src=""stim_listA/argue7.gif""style=""height:400px;""></stim_listA>","","html-keyboard-response","377","2542437","0.0-19.0-1.8","80332","List1A","black","woman","","","","null","","","",""
"null","is arguing with","","html-keyboard-response","378","2544442","0.0-19.0-2.8","80332","List1A","black","woman","","","","null","","","",""
"15952","","","survey-text","379","2560397","0.0-19.0-3.8","80332","List1A","black","woman","","","","","{""Q0"":""kate is arguing with ruth""}","<img src=""stim_listA/argue7.gif""style=""height:400px;""></stim_listA>","is arguing with",""
"null","<div style=""font-size:60px;"">+</div>","","html-keyboard-response","380","2560904","0.0-19.0-0.9","80332","List1A","black","woman","","","","null","","","",""
"null","<img src=""stim_listA/dance5.gif""style=""height:400px;""></stim_listA>","","html-keyboard-response","381","2562914","0.0-19.0-1.9","80332","List1A","black","woman","","","","null","","","",""
"null","is dancing with","","html-keyboard-response","382","2564918","0.0-19.0-2.9","80332","List1A","black","woman","","","","null","","","",""
"11610","","","survey-text","383","2576531","0.0-19.0-3.9","80332","List1A","black","woman","","","","","{""Q0"":""dave is dancing with fred""}","<img src=""stim_listA/dance5.gif""style=""height:400px;""></stim_listA>","is dancing with",""
"null","<div style=""font-size:60px;"">+</div>","","html-keyboard-response","384","2577043","0.0-19.0-0.10","80332","List1A","black","woman","","","","null","","","",""
"null","<img src=""stim_listA/argue6.gif""style=""height:400px;""></stim_listA>","","html-keyboard-response","385","2579050","0.0-19.0-1.10","80332","List1A","black","woman","","","","null","","","",""
"null","are arguing with each other","","html-keyboard-response","386","2581053","0.0-19.0-2.10","80332","List1A","black","woman","","","","null","","","",""
"25338","","","survey-text","387","2606395","0.0-19.0-3.10","80332","List1A","black","woman","","","","","{""Q0"":""fred and dave are arguing with each other.""}","<img src=""stim_listA/argue6.gif""style=""height:400px;""></stim_listA>","are arguing with each other",""
"null","<div style=""font-size:60px;"">+</div>","","html-keyboard-response","388","2606906","0.0-19.0-0.11","80332","List1A","black","woman","","","","null","","","",""
"null","<img src=""stim_listA/talk5.gif""style=""height:400px;""></stim_listA>","","html-keyboard-response","389","2608912","0.0-19.0-1.11","80332","List1A","black","woman","","","","null","","","",""
"null","is talking to","","html-keyboard-response","390","2610915","0.0-19.0-2.11","80332","List1A","black","woman","","","","null","","","",""
"34424","","","survey-text","391","2645342","0.0-19.0-3.11","80332","List1A","black","woman","","","","","{""Q0"":""fred is talking to dave""}","<img src=""stim_listA/talk5.gif""style=""height:400px;""></stim_listA>","is talking to",""
"null","<div style=""font-size:60px;"">+</div>","","html-keyboard-response","392","2645853","0.0-19.0-0.12","80332","List1A","black","woman","","","","null","","","",""
"null","<img src=""stim_listA/dance4.gif""style=""height:400px;""></stim_listA>","","html-keyboard-response","393","2647865","0.0-19.0-1.12","80332","List1A","black","woman","","","","null","","","",""
"null","are dancing with each other","","html-keyboard-response","394","2649867","0.0-19.0-2.12","80332","List1A","black","woman","","","","null","","","",""
"31042","","","survey-text","395","2680913","0.0-19.0-3.12","80332","List1A","black","woman","","","","","{""Q0"":""ruth and dave are dancing with each other.""}","<img src=""stim_listA/dance4.gif""style=""height:400px;""></stim_listA>","are dancing with each other",""
"null","<div style=""font-size:60px;"">+</div>","","html-keyboard-response","396","2681420","0.0-19.0-0.13","80332","List1A","black","woman","","","","null","","","",""
"null","<img src=""stim_listA/kiss6.gif""style=""height:400px;""></stim_listA>","","html-keyboard-response","397","2683437","0.0-19.0-1.13","80332","List1A","black","woman","","","","null","","","",""
"null","are kissing each other","","html-keyboard-response","398","2685452","0.0-19.0-2.13","80332","List1A","black","woman","","","","null","","","",""
"23046","","","survey-text","399","2708500","0.0-19.0-3.13","80332","List1A","black","woman","","","","","{""Q0"":""dave and mike are kissing""}","<img src=""stim_listA/kiss6.gif""style=""height:400px;""></stim_listA>","are kissing each other",""
"null","<div style=""font-size:60px;"">+</div>","","html-keyboard-response","400","2709018","0.0-19.0-0.14","80332","List1A","black","woman","","","","null","","","",""
"null","<img src=""stim_listA/marry4.gif""style=""height:400px;""></stim_listA>","","html-keyboard-response","401","2711029","0.0-19.0-1.14","80332","List1A","black","woman","","","","null","","","",""
"null","are marrying each other","","html-keyboard-response","402","2713032","0.0-19.0-2.14","80332","List1A","black","woman","","","","null","","","",""
"18218","","","survey-text","403","2731253","0.0-19.0-3.14","80332","List1A","black","woman","","","","","{""Q0"":""jane and luke are marrying  each other""}","<img src=""stim_listA/marry4.gif""style=""height:400px;""></stim_listA>","are marrying each other",""
"null","<div style=""font-size:60px;"">+</div>","","html-keyboard-response","404","2731762","0.0-19.0-0.15","80332","List1A","black","woman","","","","null","","","",""
"null","<img src=""stim_listA/marry3.gif""style=""height:400px;""></stim_listA>","","html-keyboard-response","405","2733774","0.0-19.0-1.15","80332","List1A","black","woman","","","","null","","","",""
"null","is marrying","","html-keyboard-response","406","2735777","0.0-19.0-2.15","80332","List1A","black","woman","","","","null","","","",""
"18405","","","survey-text","407","2754186","0.0-19.0-3.15","80332","List1A","black","woman","","","","","{""Q0"":""dave is marrying ruth""}","<img src=""stim_listA/marry3.gif""style=""height:400px;""></stim_listA>","is marrying",""
"null","<div style=""font-size:60px;"">+</div>","","html-keyboard-response","408","2754701","0.0-19.0-0.16","80332","List1A","black","woman","","","","null","","","",""
"null","<img src=""stim_listA/fight2.gif""style=""height:400px;""></stim_listA>","","html-keyboard-response","409","2756708","0.0-19.0-1.16","80332","List1A","black","woman","","","","null","","","",""
"null","are fighting each other","","html-keyboard-response","410","2758712","0.0-19.0-2.16","80332","List1A","black","woman","","","","null","","","",""
"24091","","","survey-text","411","2782806","0.0-19.0-3.16","80332","List1A","black","woman","","","","","{""Q0"":""fred and beth are fighting each other""}","<img src=""stim_listA/fight2.gif""style=""height:400px;""></stim_listA>","are fighting each other",""
"null","<div style=""font-size:60px;"">+</div>","","html-keyboard-response","412","2783317","0.0-19.0-0.17","80332","List1A","black","woman","","","","null","","","",""
"null","<img src=""stim_listA/marry6.gif""style=""height:400px;""></stim_listA>","","html-keyboard-response","413","2785328","0.0-19.0-1.17","80332","List1A","black","woman","","","","null","","","",""
"null","are marrying each other","","html-keyboard-response","414","2787331","0.0-19.0-2.17","80332","List1A","black","woman","","","","null","","","",""
"33470","","","survey-text","415","2820804","0.0-19.0-3.17","80332","List1A","black","woman","","","","","{""Q0"":""fred and jane are marrying each other.""}","<img src=""stim_listA/marry6.gif""style=""height:400px;""></stim_listA>","are marrying each other",""
"null","<div style=""font-size:60px;"">+</div>","","html-keyboard-response","416","2821308","0.0-19.0-0.18","80332","List1A","black","woman","","","","null","","","",""
"null","<img src=""stim_listA/talk7.gif""style=""height:400px;""></stim_listA>","","html-keyboard-response","417","2823314","0.0-19.0-1.18","80332","List1A","black","woman","","","","null","","","",""
"null","is talking to","","html-keyboard-response","418","2825317","0.0-19.0-2.18","80332","List1A","black","woman","","","","null","","","",""
"15399","","","survey-text","419","2840718","0.0-19.0-3.18","80332","List1A","black","woman","","","","","{""Q0"":""jane is talking to beth""}","<img src=""stim_listA/talk7.gif""style=""height:400px;""></stim_listA>","is talking to",""
"null","<div style=""font-size:60px;"">+</div>","","html-keyboard-response","420","2841224","0.0-19.0-0.19","80332","List1A","black","woman","","","","null","","","",""
"null","<img src=""stim_listA/flirt1.gif""style=""height:400px;""></stim_listA>","","html-keyboard-response","421","2843231","0.0-19.0-1.19","80332","List1A","black","woman","","","","null","","","",""
"null","is flirting with","","html-keyboard-response","422","2845236","0.0-19.0-2.19","80332","List1A","black","woman","","","","null","","","",""
"16324","","","survey-text","423","2861562","0.0-19.0-3.19","80332","List1A","black","woman","","","","","{""Q0"":""fred is flirting to beth""}","<img src=""stim_listA/flirt1.gif""style=""height:400px;""></stim_listA>","is flirting with",""
"2150","<p>Thank you for completing that task.</p><p>The final part of this session is a short questionnaire.</p><p>Press Continue.</p>","0","html-button-response","424","2863718","0.0-20.0","80332","List1A","black","woman","","","","","","","",""
"58195","","","survey-text","425","2922927","0.0-21.0","80332","List1A","black","woman","","","","","{""Q0"":""49"",""Q1"":""english"",""Q2"":""english"",""Q3"":""UK"",""Q4"":""black african"",""Q5"":""female""}","","","demographics"
"8670","","","survey-likert","426","2931613","0.0-22.0","80332","List1A","black","woman","","","","","{""Q0"":4}","","","likert_ESS"
"5883","","","survey-likert","427","2937501","0.0-23.0","80332","List1A","black","woman","","","","","{""Q0"":4}","","","likert_NSSAL_Q1"
"4761","","","survey-likert","428","2942271","0.0-24.0","80332","List1A","black","woman","","","","","{""Q0"":4}","","","likert_NSSAL_Q2"
"4961","","","survey-likert","429","2947240","0.0-25.0","80332","List1A","black","woman","","","","","{""Q0"":4}","","","likert_CGRS_Q1"
"4293","","","survey-likert","430","2951541","0.0-26.0","80332","List1A","black","woman","","","","","{""Q0"":4}","","","likert_CGRS_Q2"
"3609","","","survey-likert","431","2955159","0.0-27.0","80332","List1A","black","woman","","","","","{""Q0"":4}","","","likert_CGRS_Q3"
"21260","","","survey-text","432","2976425","0.0-28.0","80332","List1A","black","woman","","","","","{""Q0"":""5c466ba9eec8c2000130ec60""}","","","worker_id"
"21967","","","external-html","433","2998729","0.0-29.0","80332","List1A","black","woman","debrief.html","","","","","","",""
