rt,stimulus,button_pressed,trial_type,trial_index,time_elapsed,internal_node_id,subject,list,ppt_race,ppt_gender,url,first_guess,correct,key_press,responses,image_type,phrase_type,test_part
2305,Welcome to the experiment. Press Continue to begin.,0,html-button-response,0,2309,0.0-0.0,80693,List2A,black,woman,,,,,,,,
9060,,,external-html,1,12444,0.0-1.0,80693,List2A,black,woman,consent.html,,,,,,,
9965,"<p>On the next page, you will see portraits of 8 people and their names.</p><p>Your first task is to take a few minutes to memorise the names of these people.</p><p>You will have to recall their names during the rest of the experiment, so it is</p><p>essential that you try to memorise these people and their names as best as you can.</p><br><p><strong>You will then be tested on your memory of these names and portraits.</strong></p><br><p>The experiment will start after you have completed this memory test.</p><br><p>Ready?</p>",0,html-button-response,2,22411,0.0-2.0,80693,List2A,black,woman,,,,,,,,
82080,"<img src='img/portrait_matrix_list2.jpg' style='width:900px;height:500px;''></img><p>If you have memorised all the portraits and names and are ready to start, press Continue.</p><p><strong>Please note: Your memory of these faces will be tested 4 times during this experiment.</strong></p>",0,html-button-response,3,105495,0.0-3.0-0.0,80693,List2A,black,woman,,,,,,,,
6214,"<img src=""portrait/BW2.jpg""style=""height:400px;""></img>",2,html-button-response,4,112711,0.0-3.0-1.0,80693,List2A,black,woman,,TRUE,2,,,,,
null,CORRECT,,html-keyboard-response,5,114217,0.0-3.0-2.0-0.0,80693,List2A,black,woman,,,,null,,,,
3557,"<img src=""portrait/BM2.jpg""style=""height:400px;""></img>",5,html-button-response,6,117776,0.0-3.0-4.0,80693,List2A,black,woman,,TRUE,5,,,,,
null,CORRECT,,html-keyboard-response,7,119280,0.0-3.0-5.0-0.0,80693,List2A,black,woman,,,,null,,,,
3054,"<img src=""portrait/BM1.jpg""style=""height:400px;""></img>",4,html-button-response,8,122336,0.0-3.0-7.0,80693,List2A,black,woman,,TRUE,4,,,,,
null,CORRECT,,html-keyboard-response,9,123839,0.0-3.0-8.0-0.0,80693,List2A,black,woman,,,,null,,,,
5617,"<img src=""portrait/BW1.jpg""style=""height:400px;""></img>",0,html-button-response,10,129456,0.0-3.0-10.0,80693,List2A,black,woman,,TRUE,0,,,,,
null,CORRECT,,html-keyboard-response,11,130960,0.0-3.0-11.0-0.0,80693,List2A,black,woman,,,,null,,,,
5054,"<img src=""portrait/WM1.jpg""style=""height:400px;""></img>",7,html-button-response,12,136015,0.0-3.0-13.0,80693,List2A,black,woman,,TRUE,6,,,,,
5053,"<img src=""portrait/WM1.jpg""style=""height:400px;""></img>",6,html-button-response,13,142071,0.0-3.0-15.0-0.0,80693,List2A,black,woman,,FALSE,6,,,,,
null,CORRECT,,html-keyboard-response,14,143573,0.0-3.0-15.0-1.0-0.0,80693,List2A,black,woman,,,,null,,,,
3017,"<img src=""portrait/WW1.jpg""style=""height:400px;""></img>",1,html-button-response,15,146592,0.0-3.0-16.0,80693,List2A,black,woman,,TRUE,1,,,,,
null,CORRECT,,html-keyboard-response,16,148095,0.0-3.0-17.0-0.0,80693,List2A,black,woman,,,,null,,,,
2151,"<img src=""portrait/WW2.jpg""style=""height:400px;""></img>",3,html-button-response,17,150248,0.0-3.0-19.0,80693,List2A,black,woman,,TRUE,3,,,,,
null,CORRECT,,html-keyboard-response,18,151751,0.0-3.0-20.0-0.0,80693,List2A,black,woman,,,,null,,,,
3455,"<img src=""portrait/WM2.jpg""style=""height:400px;""></img>",7,html-button-response,19,155207,0.0-3.0-22.0,80693,List2A,black,woman,,TRUE,7,,,,,
null,CORRECT,,html-keyboard-response,20,156710,0.0-3.0-23.0-0.0,80693,List2A,black,woman,,,,null,,,,
1784,<p>You got 7 out of 8 right first time. Press Continue.</p>,0,html-button-response,21,158496,0.0-3.0-25.0,80693,List2A,black,woman,,,,,,,,
4772,"As you did not score 100%, the memory game will repeat. Press Continue.",0,html-button-response,22,164272,0.0-3.0-26.0-0.0,80693,List2A,black,woman,,,,,,,,
10254,"<img src='img/portrait_matrix_list2.jpg' style='width:900px;height:500px;''></img><p>If you have memorised all the portraits and names and are ready to start, press Continue.</p><p><strong>Please note: Your memory of these faces will be tested 4 times during this experiment.</strong></p>",0,html-button-response,23,175530,0.0-3.1-0.1,80693,List2A,black,woman,,,,,,,,
4549,"<img src=""portrait/BW2.jpg""style=""height:400px;""></img>",2,html-button-response,24,181081,0.0-3.1-1.1,80693,List2A,black,woman,,TRUE,2,,,,,
null,CORRECT,,html-keyboard-response,25,182584,0.0-3.1-2.1-0.1,80693,List2A,black,woman,,,,null,,,,
1975,"<img src=""portrait/BM2.jpg""style=""height:400px;""></img>",5,html-button-response,26,184561,0.0-3.1-4.1,80693,List2A,black,woman,,TRUE,5,,,,,
null,CORRECT,,html-keyboard-response,27,186064,0.0-3.1-5.1-0.1,80693,List2A,black,woman,,,,null,,,,
2297,"<img src=""portrait/BM1.jpg""style=""height:400px;""></img>",4,html-button-response,28,188363,0.0-3.1-7.1,80693,List2A,black,woman,,TRUE,4,,,,,
null,CORRECT,,html-keyboard-response,29,189865,0.0-3.1-8.1-0.1,80693,List2A,black,woman,,,,null,,,,
1534,"<img src=""portrait/BW1.jpg""style=""height:400px;""></img>",0,html-button-response,30,191400,0.0-3.1-10.1,80693,List2A,black,woman,,TRUE,0,,,,,
null,CORRECT,,html-keyboard-response,31,192903,0.0-3.1-11.1-0.1,80693,List2A,black,woman,,,,null,,,,
2792,"<img src=""portrait/WM1.jpg""style=""height:400px;""></img>",6,html-button-response,32,195697,0.0-3.1-13.1,80693,List2A,black,woman,,TRUE,6,,,,,
null,CORRECT,,html-keyboard-response,33,197199,0.0-3.1-14.1-0.1,80693,List2A,black,woman,,,,null,,,,
1777,"<img src=""portrait/WW1.jpg""style=""height:400px;""></img>",1,html-button-response,34,198977,0.0-3.1-16.1,80693,List2A,black,woman,,TRUE,1,,,,,
null,CORRECT,,html-keyboard-response,35,200480,0.0-3.1-17.1-0.1,80693,List2A,black,woman,,,,null,,,,
1167,"<img src=""portrait/WW2.jpg""style=""height:400px;""></img>",3,html-button-response,36,201649,0.0-3.1-19.1,80693,List2A,black,woman,,TRUE,3,,,,,
null,CORRECT,,html-keyboard-response,37,203152,0.0-3.1-20.1-0.1,80693,List2A,black,woman,,,,null,,,,
1534,"<img src=""portrait/WM2.jpg""style=""height:400px;""></img>",7,html-button-response,38,204689,0.0-3.1-22.1,80693,List2A,black,woman,,TRUE,7,,,,,
null,CORRECT,,html-keyboard-response,39,206192,0.0-3.1-23.1-0.1,80693,List2A,black,woman,,,,null,,,,
1840,<p>You got 8 out of 8 right first time. Press Continue.</p>,0,html-button-response,40,208033,0.0-3.1-25.1,80693,List2A,black,woman,,,,,,,,
22581,"<p>In this experiment, you will view photographs of the people from the memory game interacting.</p><p>By using the <strong>exact</strong> phrase given <i>after</i> the photograph appears and recalling the correct names of the people in the photographs, form a sentence describing the interaction. You do not need to capitalise names.</p><p>Type your answer in the space provided. Please complete every sentence before moving onto the next trial.</p><p>You will only have a few seconds to memorise each given photograph and phrase before you can respond, so try your best to focus.</p><p>An example is given below. Press 'Continue' when you are ready.</p><img src='img/speaking_example.jpg' style='width:800px;height:460px;''></img>",0,html-button-response,41,231617,0.0-4.0,80693,List2A,black,woman,,,,,,,,
3167,"<p>Before the experiment starts, you will watch two example trials. Press 'Continue'.</p>",0,html-button-response,42,235786,0.0-5.0,80693,List2A,black,woman,,,,,,,,
null,<img src='img/meet_eg.gif' style='height:400px;''></img>,,html-keyboard-response,43,238789,0.0-6.0,80693,List2A,black,woman,,,,null,,,,
null,<p>is meeting</p>,,html-keyboard-response,44,240790,0.0-7.0,80693,List2A,black,woman,,,,null,,,,
4586,<p><b>Answer:</b> jane is meeting ruth</p>,0,html-button-response,45,245378,0.0-8.0,80693,List2A,black,woman,,,,,,,,
null,<img src='img/look_eg.gif' style='height:400px;''></img>,,html-keyboard-response,46,248381,0.0-9.0,80693,List2A,black,woman,,,,null,,,,
null,<p>are looking at each other</p>,,html-keyboard-response,47,250382,0.0-10.0,80693,List2A,black,woman,,,,null,,,,
4700,<p><b>Answer:</b> fred and mike are looking at each other</p>,0,html-button-response,48,255083,0.0-11.0,80693,List2A,black,woman,,,,,,,,
10606,"<p>Ready to start the experiment?</p><br><p><strong>Remember to describe the picture using a full sentence,</strong></p><p><strong>that combines the names of the people with the <i>exact</i> phrase given.</strong></p><p><strong>To receive full payment you must do this correctly.</strong></p><p><strong> You do not need to capitalise names or use punctuation.</strong></p><br><p>Press 'Continue' to begin.</p>",0,html-button-response,49,266692,0.0-12.0,80693,List2A,black,woman,,,,,,,,
null,"<div style=""font-size:60px;"">+</div>",,html-keyboard-response,50,268194,0.0-13.0-0.0,80693,List2A,black,woman,,,,null,,,,
null,"<img src=""stim_listA/talk5.gif""style=""height:400px;""></stim_listA>",,html-keyboard-response,51,270196,0.0-13.0-1.0,80693,List2A,black,woman,,,,null,,,,
null,is talking to,,html-keyboard-response,52,272198,0.0-13.0-2.0,80693,List2A,black,woman,,,,null,,,,
14771,,,survey-text,53,286971,0.0-13.0-3.0,80693,List2A,black,woman,,,,,"{""Q0"":""Luke is speaking to Mike""}","<img src=""stim_listA/talk5.gif""style=""height:400px;""></stim_listA>",is talking to,
null,"<div style=""font-size:60px;"">+</div>",,html-keyboard-response,54,287473,0.0-13.0-0.1,80693,List2A,black,woman,,,,null,,,,
null,"<img src=""stim_listA/shout5.gif""style=""height:400px;""></stim_listA>",,html-keyboard-response,55,289475,0.0-13.0-1.1,80693,List2A,black,woman,,,,null,,,,
null,is shouting at,,html-keyboard-response,56,291476,0.0-13.0-2.1,80693,List2A,black,woman,,,,null,,,,
24990,,,survey-text,57,316468,0.0-13.0-3.1,80693,List2A,black,woman,,,,,"{""Q0"":""Luke is shouting at Jack ""}","<img src=""stim_listA/shout5.gif""style=""height:400px;""></stim_listA>",is shouting at,
null,"<div style=""font-size:60px;"">+</div>",,html-keyboard-response,58,316969,0.0-13.0-0.2,80693,List2A,black,woman,,,,null,,,,
null,"<img src=""stim_listA/kiss6.gif""style=""height:400px;""></stim_listA>",,html-keyboard-response,59,318976,0.0-13.0-1.2,80693,List2A,black,woman,,,,null,,,,
null,are kissing each other,,html-keyboard-response,60,320978,0.0-13.0-2.2,80693,List2A,black,woman,,,,null,,,,
15720,,,survey-text,61,336699,0.0-13.0-3.2,80693,List2A,black,woman,,,,,"{""Q0"":""Mike are kissing Dave""}","<img src=""stim_listA/kiss6.gif""style=""height:400px;""></stim_listA>",are kissing each other,
null,"<div style=""font-size:60px;"">+</div>",,html-keyboard-response,62,337200,0.0-13.0-0.3,80693,List2A,black,woman,,,,null,,,,
null,"<img src=""stim_listA/shout4.gif""style=""height:400px;""></stim_listA>",,html-keyboard-response,63,339202,0.0-13.0-1.3,80693,List2A,black,woman,,,,null,,,,
null,are shouting at each other,,html-keyboard-response,64,341204,0.0-13.0-2.3,80693,List2A,black,woman,,,,null,,,,
22568,,,survey-text,65,363774,0.0-13.0-3.3,80693,List2A,black,woman,,,,,"{""Q0"":""Beth is shouting at Mike""}","<img src=""stim_listA/shout4.gif""style=""height:400px;""></stim_listA>",are shouting at each other,
null,"<div style=""font-size:60px;"">+</div>",,html-keyboard-response,66,364275,0.0-13.0-0.4,80693,List2A,black,woman,,,,null,,,,
null,"<img src=""stim_listA/argue8.gif""style=""height:400px;""></stim_listA>",,html-keyboard-response,67,366278,0.0-13.0-1.4,80693,List2A,black,woman,,,,null,,,,
null,are arguing with each other,,html-keyboard-response,68,368280,0.0-13.0-2.4,80693,List2A,black,woman,,,,null,,,,
10626,,,survey-text,69,378908,0.0-13.0-3.4,80693,List2A,black,woman,,,,,"{""Q0"":""Kate is arguing with Ruth""}","<img src=""stim_listA/argue8.gif""style=""height:400px;""></stim_listA>",are arguing with each other,
null,"<div style=""font-size:60px;"">+</div>",,html-keyboard-response,70,379409,0.0-13.0-0.5,80693,List2A,black,woman,,,,null,,,,
null,"<img src=""stim_listA/talk2.gif""style=""height:400px;""></stim_listA>",,html-keyboard-response,71,381411,0.0-13.0-1.5,80693,List2A,black,woman,,,,null,,,,
null,are talking to each other,,html-keyboard-response,72,383413,0.0-13.0-2.5,80693,List2A,black,woman,,,,null,,,,
8848,,,survey-text,73,392261,0.0-13.0-3.5,80693,List2A,black,woman,,,,,"{""Q0"":""Ruth is taking to Dave""}","<img src=""stim_listA/talk2.gif""style=""height:400px;""></stim_listA>",are talking to each other,
null,"<div style=""font-size:60px;"">+</div>",,html-keyboard-response,74,392762,0.0-13.0-0.6,80693,List2A,black,woman,,,,null,,,,
null,"<img src=""stim_listA/touch4.gif""style=""height:400px;""></stim_listA>",,html-keyboard-response,75,394765,0.0-13.0-1.6,80693,List2A,black,woman,,,,null,,,,
null,are touching each other,,html-keyboard-response,76,396767,0.0-13.0-2.6,80693,List2A,black,woman,,,,null,,,,
14284,,,survey-text,77,411052,0.0-13.0-3.6,80693,List2A,black,woman,,,,,"{""Q0"":""Beth is touching Jack""}","<img src=""stim_listA/touch4.gif""style=""height:400px;""></stim_listA>",are touching each other,
null,"<div style=""font-size:60px;"">+</div>",,html-keyboard-response,78,411553,0.0-13.0-0.7,80693,List2A,black,woman,,,,null,,,,
null,"<img src=""stim_listA/flirt6.gif""style=""height:400px;""></stim_listA>",,html-keyboard-response,79,413556,0.0-13.0-1.7,80693,List2A,black,woman,,,,null,,,,
null,are flirting with each other,,html-keyboard-response,80,415557,0.0-13.0-2.7,80693,List2A,black,woman,,,,null,,,,
9457,,,survey-text,81,425015,0.0-13.0-3.7,80693,List2A,black,woman,,,,,"{""Q0"":""Jack is flirting with Dave""}","<img src=""stim_listA/flirt6.gif""style=""height:400px;""></stim_listA>",are flirting with each other,
null,"<div style=""font-size:60px;"">+</div>",,html-keyboard-response,82,425516,0.0-13.0-0.8,80693,List2A,black,woman,,,,null,,,,
null,"<img src=""stim_listA/play6.gif""style=""height:400px;""></stim_listA>",,html-keyboard-response,83,427518,0.0-13.0-1.8,80693,List2A,black,woman,,,,null,,,,
null,are playing with each other,,html-keyboard-response,84,429521,0.0-13.0-2.8,80693,List2A,black,woman,,,,null,,,,
7796,,,survey-text,85,437318,0.0-13.0-3.8,80693,List2A,black,woman,,,,,"{""Q0"":""Dave is playing with Luke""}","<img src=""stim_listA/play6.gif""style=""height:400px;""></stim_listA>",are playing with each other,
null,"<div style=""font-size:60px;"">+</div>",,html-keyboard-response,86,437820,0.0-13.0-0.9,80693,List2A,black,woman,,,,null,,,,
null,"<img src=""stim_listA/shout3.gif""style=""height:400px;""></stim_listA>",,html-keyboard-response,87,439823,0.0-13.0-1.9,80693,List2A,black,woman,,,,null,,,,
null,is shouting at,,html-keyboard-response,88,441828,0.0-13.0-2.9,80693,List2A,black,woman,,,,null,,,,
10161,,,survey-text,89,451990,0.0-13.0-3.9,80693,List2A,black,woman,,,,,"{""Q0"":""Kate is shouting at Jack""}","<img src=""stim_listA/shout3.gif""style=""height:400px;""></stim_listA>",is shouting at,
null,"<div style=""font-size:60px;"">+</div>",,html-keyboard-response,90,452491,0.0-13.0-0.10,80693,List2A,black,woman,,,,null,,,,
null,"<img src=""stim_listA/play2.gif""style=""height:400px;""></stim_listA>",,html-keyboard-response,91,454494,0.0-13.0-1.10,80693,List2A,black,woman,,,,null,,,,
null,are playing with each other,,html-keyboard-response,92,456495,0.0-13.0-2.10,80693,List2A,black,woman,,,,null,,,,
11374,,,survey-text,93,467870,0.0-13.0-3.10,80693,List2A,black,woman,,,,,"{""Q0"":""Ruth is playing with Luke""}","<img src=""stim_listA/play2.gif""style=""height:400px;""></stim_listA>",are playing with each other,
null,"<div style=""font-size:60px;"">+</div>",,html-keyboard-response,94,468372,0.0-13.0-0.11,80693,List2A,black,woman,,,,null,,,,
null,"<img src=""stim_listA/flirt1.gif""style=""height:400px;""></stim_listA>",,html-keyboard-response,95,470374,0.0-13.0-1.11,80693,List2A,black,woman,,,,null,,,,
null,is flirting with,,html-keyboard-response,96,472375,0.0-13.0-2.11,80693,List2A,black,woman,,,,null,,,,
28692,,,survey-text,97,501068,0.0-13.0-3.11,80693,List2A,black,woman,,,,,"{""Q0"":""Luke is flirting with Jane""}","<img src=""stim_listA/flirt1.gif""style=""height:400px;""></stim_listA>",is flirting with,
null,"<div style=""font-size:60px;"">+</div>",,html-keyboard-response,98,501569,0.0-13.0-0.12,80693,List2A,black,woman,,,,null,,,,
null,"<img src=""stim_listA/dance7.gif""style=""height:400px;""></stim_listA>",,html-keyboard-response,99,503572,0.0-13.0-1.12,80693,List2A,black,woman,,,,null,,,,
null,is dancing with,,html-keyboard-response,100,505573,0.0-13.0-2.12,80693,List2A,black,woman,,,,null,,,,
17601,,,survey-text,101,523176,0.0-13.0-3.12,80693,List2A,black,woman,,,,,"{""Q0"":""Ruth is dancing with kate""}","<img src=""stim_listA/dance7.gif""style=""height:400px;""></stim_listA>",is dancing with,
null,"<div style=""font-size:60px;"">+</div>",,html-keyboard-response,102,523678,0.0-13.0-0.13,80693,List2A,black,woman,,,,null,,,,
null,"<img src=""stim_listA/dance1.gif""style=""height:400px;""></stim_listA>",,html-keyboard-response,103,525680,0.0-13.0-1.13,80693,List2A,black,woman,,,,null,,,,
null,is dancing with,,html-keyboard-response,104,527680,0.0-13.0-2.13,80693,List2A,black,woman,,,,null,,,,
10191,,,survey-text,105,537872,0.0-13.0-3.13,80693,List2A,black,woman,,,,,"{""Q0"":""Jane is dancing with Luke""}","<img src=""stim_listA/dance1.gif""style=""height:400px;""></stim_listA>",is dancing with,
null,"<div style=""font-size:60px;"">+</div>",,html-keyboard-response,106,538374,0.0-13.0-0.14,80693,List2A,black,woman,,,,null,,,,
null,"<img src=""stim_listA/shout1.gif""style=""height:400px;""></stim_listA>",,html-keyboard-response,107,540375,0.0-13.0-1.14,80693,List2A,black,woman,,,,null,,,,
null,is shouting at,,html-keyboard-response,108,542376,0.0-13.0-2.14,80693,List2A,black,woman,,,,null,,,,
8150,,,survey-text,109,550528,0.0-13.0-3.14,80693,List2A,black,woman,,,,,"{""Q0"":""Luke is shouting at Ruth""}","<img src=""stim_listA/shout1.gif""style=""height:400px;""></stim_listA>",is shouting at,
null,"<div style=""font-size:60px;"">+</div>",,html-keyboard-response,110,551030,0.0-13.0-0.15,80693,List2A,black,woman,,,,null,,,,
null,"<img src=""stim_listA/argue7.gif""style=""height:400px;""></stim_listA>",,html-keyboard-response,111,553032,0.0-13.0-1.15,80693,List2A,black,woman,,,,null,,,,
null,is arguing with,,html-keyboard-response,112,555033,0.0-13.0-2.15,80693,List2A,black,woman,,,,null,,,,
16663,,,survey-text,113,571698,0.0-13.0-3.15,80693,List2A,black,woman,,,,,"{""Q0"":""Jane is taking to Beth""}","<img src=""stim_listA/argue7.gif""style=""height:400px;""></stim_listA>",is arguing with,
null,"<div style=""font-size:60px;"">+</div>",,html-keyboard-response,114,572199,0.0-13.0-0.16,80693,List2A,black,woman,,,,null,,,,
null,"<img src=""stim_listA/talk3.gif""style=""height:400px;""></stim_listA>",,html-keyboard-response,115,574201,0.0-13.0-1.16,80693,List2A,black,woman,,,,null,,,,
null,is talking to,,html-keyboard-response,116,576201,0.0-13.0-2.16,80693,List2A,black,woman,,,,null,,,,
18534,,,survey-text,117,594736,0.0-13.0-3.16,80693,List2A,black,woman,,,,,"{""Q0"":""Beth is taking to Fred""}","<img src=""stim_listA/talk3.gif""style=""height:400px;""></stim_listA>",is talking to,
null,"<div style=""font-size:60px;"">+</div>",,html-keyboard-response,118,595238,0.0-13.0-0.17,80693,List2A,black,woman,,,,null,,,,
null,"<img src=""stim_listA/marry4.gif""style=""height:400px;""></stim_listA>",,html-keyboard-response,119,597240,0.0-13.0-1.17,80693,List2A,black,woman,,,,null,,,,
null,are marrying each other,,html-keyboard-response,120,599241,0.0-13.0-2.17,80693,List2A,black,woman,,,,null,,,,
8309,,,survey-text,121,607552,0.0-13.0-3.17,80693,List2A,black,woman,,,,,"{""Q0"":""Fred is marrying fred""}","<img src=""stim_listA/marry4.gif""style=""height:400px;""></stim_listA>",are marrying each other,
null,"<div style=""font-size:60px;"">+</div>",,html-keyboard-response,122,608053,0.0-13.0-0.18,80693,List2A,black,woman,,,,null,,,,
null,"<img src=""stim_listA/kiss1.gif""style=""height:400px;""></stim_listA>",,html-keyboard-response,123,610055,0.0-13.0-1.18,80693,List2A,black,woman,,,,null,,,,
null,is kissing,,html-keyboard-response,124,612058,0.0-13.0-2.18,80693,List2A,black,woman,,,,null,,,,
8471,,,survey-text,125,620529,0.0-13.0-3.18,80693,List2A,black,woman,,,,,"{""Q0"":""Ruth is kissing Luke""}","<img src=""stim_listA/kiss1.gif""style=""height:400px;""></stim_listA>",is kissing,
null,"<div style=""font-size:60px;"">+</div>",,html-keyboard-response,126,621031,0.0-13.0-0.19,80693,List2A,black,woman,,,,null,,,,
null,"<img src=""stim_listA/marry5.gif""style=""height:400px;""></stim_listA>",,html-keyboard-response,127,623033,0.0-13.0-1.19,80693,List2A,black,woman,,,,null,,,,
null,is marrying,,html-keyboard-response,128,625034,0.0-13.0-2.19,80693,List2A,black,woman,,,,null,,,,
13256,,,survey-text,129,638291,0.0-13.0-3.19,80693,List2A,black,woman,,,,,"{""Q0"":""fred is marrying fred""}","<img src=""stim_listA/marry5.gif""style=""height:400px;""></stim_listA>",is marrying,
10453,"<img src='img/portrait_matrix_list2.jpg' style='width:900px;height:500px;''></img><p>If you have memorised all the portraits and names and are ready to start, press Continue.</p><p><strong>Please note: Your memory of these faces will be tested 4 times during this experiment.</strong></p>",0,html-button-response,130,648746,0.0-14.0-0.0,80693,List2A,black,woman,,,,,,,,
12766,"<img src=""portrait/BW1.jpg""style=""height:400px;""></img>",0,html-button-response,131,662515,0.0-14.0-1.0,80693,List2A,black,woman,,TRUE,0,,,,,
null,CORRECT,,html-keyboard-response,132,664018,0.0-14.0-2.0-0.0,80693,List2A,black,woman,,,,null,,,,
5846,"<img src=""portrait/WM2.jpg""style=""height:400px;""></img>",7,html-button-response,133,669866,0.0-14.0-4.0,80693,List2A,black,woman,,TRUE,7,,,,,
null,CORRECT,,html-keyboard-response,134,671369,0.0-14.0-5.0-0.0,80693,List2A,black,woman,,,,null,,,,
2839,"<img src=""portrait/WW2.jpg""style=""height:400px;""></img>",3,html-button-response,135,674210,0.0-14.0-7.0,80693,List2A,black,woman,,TRUE,3,,,,,
null,CORRECT,,html-keyboard-response,136,675713,0.0-14.0-8.0-0.0,80693,List2A,black,woman,,,,null,,,,
1896,"<img src=""portrait/BW2.jpg""style=""height:400px;""></img>",2,html-button-response,137,677611,0.0-14.0-10.0,80693,List2A,black,woman,,TRUE,2,,,,,
null,CORRECT,,html-keyboard-response,138,679114,0.0-14.0-11.0-0.0,80693,List2A,black,woman,,,,null,,,,
1719,"<img src=""portrait/WW1.jpg""style=""height:400px;""></img>",1,html-button-response,139,680835,0.0-14.0-13.0,80693,List2A,black,woman,,TRUE,1,,,,,
null,CORRECT,,html-keyboard-response,140,682338,0.0-14.0-14.0-0.0,80693,List2A,black,woman,,,,null,,,,
1479,"<img src=""portrait/WM1.jpg""style=""height:400px;""></img>",6,html-button-response,141,683819,0.0-14.0-16.0,80693,List2A,black,woman,,TRUE,6,,,,,
null,CORRECT,,html-keyboard-response,142,685321,0.0-14.0-17.0-0.0,80693,List2A,black,woman,,,,null,,,,
2424,"<img src=""portrait/BM2.jpg""style=""height:400px;""></img>",5,html-button-response,143,687747,0.0-14.0-19.0,80693,List2A,black,woman,,TRUE,5,,,,,
null,CORRECT,,html-keyboard-response,144,689249,0.0-14.0-20.0-0.0,80693,List2A,black,woman,,,,null,,,,
2873,"<img src=""portrait/BM1.jpg""style=""height:400px;""></img>",4,html-button-response,145,692123,0.0-14.0-22.0,80693,List2A,black,woman,,TRUE,4,,,,,
null,CORRECT,,html-keyboard-response,146,693626,0.0-14.0-23.0-0.0,80693,List2A,black,woman,,,,null,,,,
1696,<p>You got 8 out of 8 right first time. Press Continue.</p>,0,html-button-response,147,695323,0.0-14.0-25.0,80693,List2A,black,woman,,,,,,,,
null,"<div style=""font-size:60px;"">+</div>",,html-keyboard-response,148,696825,0.0-15.0-0.0,80693,List2A,black,woman,,,,null,,,,
null,"<img src=""stim_listA/dance3.gif""style=""height:400px;""></stim_listA>",,html-keyboard-response,149,698827,0.0-15.0-1.0,80693,List2A,black,woman,,,,null,,,,
null,is dancing with,,html-keyboard-response,150,700829,0.0-15.0-2.0,80693,List2A,black,woman,,,,null,,,,
9285,,,survey-text,151,710115,0.0-15.0-3.0,80693,List2A,black,woman,,,,,"{""Q0"":""Fred is dancing with Beth""}","<img src=""stim_listA/dance3.gif""style=""height:400px;""></stim_listA>",is dancing with,
null,"<div style=""font-size:60px;"">+</div>",,html-keyboard-response,152,710617,0.0-15.0-0.1,80693,List2A,black,woman,,,,null,,,,
null,"<img src=""stim_listA/shout2.gif""style=""height:400px;""></stim_listA>",,html-keyboard-response,153,712620,0.0-15.0-1.1,80693,List2A,black,woman,,,,null,,,,
null,are shouting at each other,,html-keyboard-response,154,714621,0.0-15.0-2.1,80693,List2A,black,woman,,,,null,,,,
10813,,,survey-text,155,725435,0.0-15.0-3.1,80693,List2A,black,woman,,,,,"{""Q0"":""Jane is shouting at Fred""}","<img src=""stim_listA/shout2.gif""style=""height:400px;""></stim_listA>",are shouting at each other,
null,"<div style=""font-size:60px;"">+</div>",,html-keyboard-response,156,725937,0.0-15.0-0.2,80693,List2A,black,woman,,,,null,,,,
null,"<img src=""stim_listA/talk8.gif""style=""height:400px;""></stim_listA>",,html-keyboard-response,157,727939,0.0-15.0-1.2,80693,List2A,black,woman,,,,null,,,,
null,are talking to each other,,html-keyboard-response,158,729941,0.0-15.0-2.2,80693,List2A,black,woman,,,,null,,,,
10068,,,survey-text,159,740011,0.0-15.0-3.2,80693,List2A,black,woman,,,,,"{""Q0"":""Jane is talking to Beth""}","<img src=""stim_listA/talk8.gif""style=""height:400px;""></stim_listA>",are talking to each other,
null,"<div style=""font-size:60px;"">+</div>",,html-keyboard-response,160,740513,0.0-15.0-0.3,80693,List2A,black,woman,,,,null,,,,
null,"<img src=""stim_listA/play5.gif""style=""height:400px;""></stim_listA>",,html-keyboard-response,161,742515,0.0-15.0-1.3,80693,List2A,black,woman,,,,null,,,,
null,is playing with,,html-keyboard-response,162,744518,0.0-15.0-2.3,80693,List2A,black,woman,,,,null,,,,
12373,,,survey-text,163,756891,0.0-15.0-3.3,80693,List2A,black,woman,,,,,"{""Q0"":""Mike is playing with Dave""}","<img src=""stim_listA/play5.gif""style=""height:400px;""></stim_listA>",is playing with,
null,"<div style=""font-size:60px;"">+</div>",,html-keyboard-response,164,757393,0.0-15.0-0.4,80693,List2A,black,woman,,,,null,,,,
null,"<img src=""stim_listA/fight3.gif""style=""height:400px;""></stim_listA>",,html-keyboard-response,165,759395,0.0-15.0-1.4,80693,List2A,black,woman,,,,null,,,,
null,is fighting,,html-keyboard-response,166,761396,0.0-15.0-2.4,80693,List2A,black,woman,,,,null,,,,
13213,,,survey-text,167,774611,0.0-15.0-3.4,80693,List2A,black,woman,,,,,"{""Q0"":""Mike is fighting with kate""}","<img src=""stim_listA/fight3.gif""style=""height:400px;""></stim_listA>",is fighting,
null,"<div style=""font-size:60px;"">+</div>",,html-keyboard-response,168,775113,0.0-15.0-0.5,80693,List2A,black,woman,,,,null,,,,
null,"<img src=""stim_listA/fight5.gif""style=""height:400px;""></stim_listA>",,html-keyboard-response,169,777115,0.0-15.0-1.5,80693,List2A,black,woman,,,,null,,,,
null,is fighting,,html-keyboard-response,170,779116,0.0-15.0-2.5,80693,List2A,black,woman,,,,null,,,,
13213,,,survey-text,171,792331,0.0-15.0-3.5,80693,List2A,black,woman,,,,,"{""Q0"":""Mike is fighting with Dave""}","<img src=""stim_listA/fight5.gif""style=""height:400px;""></stim_listA>",is fighting,
null,"<div style=""font-size:60px;"">+</div>",,html-keyboard-response,172,792833,0.0-15.0-0.6,80693,List2A,black,woman,,,,null,,,,
null,"<img src=""stim_listA/kiss7.gif""style=""height:400px;""></stim_listA>",,html-keyboard-response,173,794837,0.0-15.0-1.6,80693,List2A,black,woman,,,,null,,,,
null,is kissing,,html-keyboard-response,174,796838,0.0-15.0-2.6,80693,List2A,black,woman,,,,null,,,,
20142,,,survey-text,175,816980,0.0-15.0-3.6,80693,List2A,black,woman,,,,,"{""Q0"":""Beth is kissing Jane""}","<img src=""stim_listA/kiss7.gif""style=""height:400px;""></stim_listA>",is kissing,
null,"<div style=""font-size:60px;"">+</div>",,html-keyboard-response,176,817482,0.0-15.0-0.7,80693,List2A,black,woman,,,,null,,,,
null,"<img src=""stim_listA/argue6.gif""style=""height:400px;""></stim_listA>",,html-keyboard-response,177,819483,0.0-15.0-1.7,80693,List2A,black,woman,,,,null,,,,
null,are arguing with each other,,html-keyboard-response,178,821486,0.0-15.0-2.7,80693,List2A,black,woman,,,,null,,,,
15133,,,survey-text,179,836620,0.0-15.0-3.7,80693,List2A,black,woman,,,,,"{""Q0"":""Luke is arguing with fred""}","<img src=""stim_listA/argue6.gif""style=""height:400px;""></stim_listA>",are arguing with each other,
null,"<div style=""font-size:60px;"">+</div>",,html-keyboard-response,180,837122,0.0-15.0-0.8,80693,List2A,black,woman,,,,null,,,,
null,"<img src=""stim_listA/shout7.gif""style=""height:400px;""></stim_listA>",,html-keyboard-response,181,839125,0.0-15.0-1.8,80693,List2A,black,woman,,,,null,,,,
null,is shouting at,,html-keyboard-response,182,841126,0.0-15.0-2.8,80693,List2A,black,woman,,,,null,,,,
9118,,,survey-text,183,850245,0.0-15.0-3.8,80693,List2A,black,woman,,,,,"{""Q0"":""Beth is shouting at Ruth""}","<img src=""stim_listA/shout7.gif""style=""height:400px;""></stim_listA>",is shouting at,
null,"<div style=""font-size:60px;"">+</div>",,html-keyboard-response,184,850747,0.0-15.0-0.9,80693,List2A,black,woman,,,,null,,,,
null,"<img src=""stim_listA/dance5.gif""style=""height:400px;""></stim_listA>",,html-keyboard-response,185,852748,0.0-15.0-1.9,80693,List2A,black,woman,,,,null,,,,
null,is dancing with,,html-keyboard-response,186,854750,0.0-15.0-2.9,80693,List2A,black,woman,,,,null,,,,
11799,,,survey-text,187,866550,0.0-15.0-3.9,80693,List2A,black,woman,,,,,"{""Q0"":""Luke is dancing with Mike""}","<img src=""stim_listA/dance5.gif""style=""height:400px;""></stim_listA>",is dancing with,
null,"<div style=""font-size:60px;"">+</div>",,html-keyboard-response,188,867051,0.0-15.0-0.10,80693,List2A,black,woman,,,,null,,,,
null,"<img src=""stim_listA/argue1.gif""style=""height:400px;""></stim_listA>",,html-keyboard-response,189,869053,0.0-15.0-1.10,80693,List2A,black,woman,,,,null,,,,
null,is arguing with,,html-keyboard-response,190,871056,0.0-15.0-2.10,80693,List2A,black,woman,,,,null,,,,
8668,,,survey-text,191,879726,0.0-15.0-3.10,80693,List2A,black,woman,,,,,"{""Q0"":""Ruth is arguing with dave""}","<img src=""stim_listA/argue1.gif""style=""height:400px;""></stim_listA>",is arguing with,
null,"<div style=""font-size:60px;"">+</div>",,html-keyboard-response,192,880227,0.0-15.0-0.11,80693,List2A,black,woman,,,,null,,,,
null,"<img src=""stim_listA/fight7.gif""style=""height:400px;""></stim_listA>",,html-keyboard-response,193,882229,0.0-15.0-1.11,80693,List2A,black,woman,,,,null,,,,
null,is fighting,,html-keyboard-response,194,884231,0.0-15.0-2.11,80693,List2A,black,woman,,,,null,,,,
22509,,,survey-text,195,906742,0.0-15.0-3.11,80693,List2A,black,woman,,,,,"{""Q0"":""Jane is fighting with ruth""}","<img src=""stim_listA/fight7.gif""style=""height:400px;""></stim_listA>",is fighting,
null,"<div style=""font-size:60px;"">+</div>",,html-keyboard-response,196,907243,0.0-15.0-0.12,80693,List2A,black,woman,,,,null,,,,
null,"<img src=""stim_listA/kiss3.gif""style=""height:400px;""></stim_listA>",,html-keyboard-response,197,909245,0.0-15.0-1.12,80693,List2A,black,woman,,,,null,,,,
null,is kissing,,html-keyboard-response,198,911247,0.0-15.0-2.12,80693,List2A,black,woman,,,,null,,,,
13623,,,survey-text,199,924870,0.0-15.0-3.12,80693,List2A,black,woman,,,,,"{""Q0"":""fred is kissing beth""}","<img src=""stim_listA/kiss3.gif""style=""height:400px;""></stim_listA>",is kissing,
null,"<div style=""font-size:60px;"">+</div>",,html-keyboard-response,200,925372,0.0-15.0-0.13,80693,List2A,black,woman,,,,null,,,,
null,"<img src=""stim_listA/touch5.gif""style=""height:400px;""></stim_listA>",,html-keyboard-response,201,927374,0.0-15.0-1.13,80693,List2A,black,woman,,,,null,,,,
null,is touching,,html-keyboard-response,202,929376,0.0-15.0-2.13,80693,List2A,black,woman,,,,null,,,,
12790,,,survey-text,203,942166,0.0-15.0-3.13,80693,List2A,black,woman,,,,,"{""Q0"":""mike is touching dave""}","<img src=""stim_listA/touch5.gif""style=""height:400px;""></stim_listA>",is touching,
null,"<div style=""font-size:60px;"">+</div>",,html-keyboard-response,204,942669,0.0-15.0-0.14,80693,List2A,black,woman,,,,null,,,,
null,"<img src=""stim_listA/talk7.gif""style=""height:400px;""></stim_listA>",,html-keyboard-response,205,944671,0.0-15.0-1.14,80693,List2A,black,woman,,,,null,,,,
null,is talking to,,html-keyboard-response,206,946672,0.0-15.0-2.14,80693,List2A,black,woman,,,,null,,,,
16405,,,survey-text,207,963078,0.0-15.0-3.14,80693,List2A,black,woman,,,,,"{""Q0"":""ruth is taking to kate""}","<img src=""stim_listA/talk7.gif""style=""height:400px;""></stim_listA>",is talking to,
null,"<div style=""font-size:60px;"">+</div>",,html-keyboard-response,208,963580,0.0-15.0-0.15,80693,List2A,black,woman,,,,null,,,,
null,"<img src=""stim_listA/play7.gif""style=""height:400px;""></stim_listA>",,html-keyboard-response,209,965582,0.0-15.0-1.15,80693,List2A,black,woman,,,,null,,,,
null,is playing with,,html-keyboard-response,210,967583,0.0-15.0-2.15,80693,List2A,black,woman,,,,null,,,,
11239,,,survey-text,211,978823,0.0-15.0-3.15,80693,List2A,black,woman,,,,,"{""Q0"":""Kate Ruth""}","<img src=""stim_listA/play7.gif""style=""height:400px;""></stim_listA>",is playing with,
null,"<div style=""font-size:60px;"">+</div>",,html-keyboard-response,212,979325,0.0-15.0-0.16,80693,List2A,black,woman,,,,null,,,,
null,"<img src=""stim_listA/kiss4.gif""style=""height:400px;""></stim_listA>",,html-keyboard-response,213,981327,0.0-15.0-1.16,80693,List2A,black,woman,,,,null,,,,
null,are kissing each other,,html-keyboard-response,214,983328,0.0-15.0-2.16,80693,List2A,black,woman,,,,null,,,,
7165,,,survey-text,215,990494,0.0-15.0-3.16,80693,List2A,black,woman,,,,,"{""Q0"":""Kate is kissing mike""}","<img src=""stim_listA/kiss4.gif""style=""height:400px;""></stim_listA>",are kissing each other,
null,"<div style=""font-size:60px;"">+</div>",,html-keyboard-response,216,990997,0.0-15.0-0.17,80693,List2A,black,woman,,,,null,,,,
null,"<img src=""stim_listA/dance6.gif""style=""height:400px;""></stim_listA>",,html-keyboard-response,217,992998,0.0-15.0-1.17,80693,List2A,black,woman,,,,null,,,,
null,are dancing with each other,,html-keyboard-response,218,995000,0.0-15.0-2.17,80693,List2A,black,woman,,,,null,,,,
10789,,,survey-text,219,1005790,0.0-15.0-3.17,80693,List2A,black,woman,,,,,"{""Q0"":""Fred is dancing with dave""}","<img src=""stim_listA/dance6.gif""style=""height:400px;""></stim_listA>",are dancing with each other,
null,"<div style=""font-size:60px;"">+</div>",,html-keyboard-response,220,1006292,0.0-15.0-0.18,80693,List2A,black,woman,,,,null,,,,
null,"<img src=""stim_listA/kiss8.gif""style=""height:400px;""></stim_listA>",,html-keyboard-response,221,1008294,0.0-15.0-1.18,80693,List2A,black,woman,,,,null,,,,
null,are kissing each other,,html-keyboard-response,222,1010295,0.0-15.0-2.18,80693,List2A,black,woman,,,,null,,,,
11079,,,survey-text,223,1021375,0.0-15.0-3.18,80693,List2A,black,woman,,,,,"{""Q0"":""Jane is kissing kate""}","<img src=""stim_listA/kiss8.gif""style=""height:400px;""></stim_listA>",are kissing each other,
null,"<div style=""font-size:60px;"">+</div>",,html-keyboard-response,224,1021877,0.0-15.0-0.19,80693,List2A,black,woman,,,,null,,,,
null,"<img src=""stim_listA/argue4.gif""style=""height:400px;""></stim_listA>",,html-keyboard-response,225,1023879,0.0-15.0-1.19,80693,List2A,black,woman,,,,null,,,,
null,are arguing with each other,,html-keyboard-response,226,1025880,0.0-15.0-2.19,80693,List2A,black,woman,,,,null,,,,
14072,,,survey-text,227,1039953,0.0-15.0-3.19,80693,List2A,black,woman,,,,,"{""Q0"":""Fred are arguing with Beth""}","<img src=""stim_listA/argue4.gif""style=""height:400px;""></stim_listA>",are arguing with each other,
5054,"<img src='img/portrait_matrix_list2.jpg' style='width:900px;height:500px;''></img><p>If you have memorised all the portraits and names and are ready to start, press Continue.</p><p><strong>Please note: Your memory of these faces will be tested 4 times during this experiment.</strong></p>",0,html-button-response,228,1045008,0.0-16.0-0.0,80693,List2A,black,woman,,,,,,,,
1934,"<img src=""portrait/BM2.jpg""style=""height:400px;""></img>",5,html-button-response,229,1047944,0.0-16.0-1.0,80693,List2A,black,woman,,TRUE,5,,,,,
null,CORRECT,,html-keyboard-response,230,1049446,0.0-16.0-2.0-0.0,80693,List2A,black,woman,,,,null,,,,
1625,"<img src=""portrait/WM2.jpg""style=""height:400px;""></img>",7,html-button-response,231,1051073,0.0-16.0-4.0,80693,List2A,black,woman,,TRUE,7,,,,,
null,CORRECT,,html-keyboard-response,232,1052575,0.0-16.0-5.0-0.0,80693,List2A,black,woman,,,,null,,,,
1495,"<img src=""portrait/WM1.jpg""style=""height:400px;""></img>",6,html-button-response,233,1054071,0.0-16.0-7.0,80693,List2A,black,woman,,TRUE,6,,,,,
null,CORRECT,,html-keyboard-response,234,1055575,0.0-16.0-8.0-0.0,80693,List2A,black,woman,,,,null,,,,
3007,"<img src=""portrait/BW1.jpg""style=""height:400px;""></img>",0,html-button-response,235,1058584,0.0-16.0-10.0,80693,List2A,black,woman,,TRUE,0,,,,,
null,CORRECT,,html-keyboard-response,236,1060087,0.0-16.0-11.0-0.0,80693,List2A,black,woman,,,,null,,,,
1423,"<img src=""portrait/BW2.jpg""style=""height:400px;""></img>",2,html-button-response,237,1061512,0.0-16.0-13.0,80693,List2A,black,woman,,TRUE,2,,,,,
null,CORRECT,,html-keyboard-response,238,1063015,0.0-16.0-14.0-0.0,80693,List2A,black,woman,,,,null,,,,
1703,"<img src=""portrait/WW2.jpg""style=""height:400px;""></img>",3,html-button-response,239,1064720,0.0-16.0-16.0,80693,List2A,black,woman,,TRUE,3,,,,,
null,CORRECT,,html-keyboard-response,240,1066224,0.0-16.0-17.0-0.0,80693,List2A,black,woman,,,,null,,,,
1711,"<img src=""portrait/WW1.jpg""style=""height:400px;""></img>",1,html-button-response,241,1067936,0.0-16.0-19.0,80693,List2A,black,woman,,TRUE,1,,,,,
null,CORRECT,,html-keyboard-response,242,1069439,0.0-16.0-20.0-0.0,80693,List2A,black,woman,,,,null,,,,
2688,"<img src=""portrait/BM1.jpg""style=""height:400px;""></img>",1,html-button-response,243,1072129,0.0-16.0-22.0,80693,List2A,black,woman,,TRUE,4,,,,,
4053,"<img src=""portrait/BM1.jpg""style=""height:400px;""></img>",4,html-button-response,244,1077184,0.0-16.0-24.0-0.0,80693,List2A,black,woman,,FALSE,4,,,,,
null,CORRECT,,html-keyboard-response,245,1078686,0.0-16.0-24.0-1.0-0.0,80693,List2A,black,woman,,,,null,,,,
2048,<p>You got 7 out of 8 right first time. Press Continue.</p>,0,html-button-response,246,1080736,0.0-16.0-25.0,80693,List2A,black,woman,,,,,,,,
1902,"As you did not score 100%, the memory game will repeat. Press Continue.",0,html-button-response,247,1083639,0.0-16.0-26.0-0.0,80693,List2A,black,woman,,,,,,,,
1694,"<img src='img/portrait_matrix_list2.jpg' style='width:900px;height:500px;''></img><p>If you have memorised all the portraits and names and are ready to start, press Continue.</p><p><strong>Please note: Your memory of these faces will be tested 4 times during this experiment.</strong></p>",0,html-button-response,248,1086336,0.0-16.1-0.1,80693,List2A,black,woman,,,,,,,,
1725,"<img src=""portrait/BM2.jpg""style=""height:400px;""></img>",5,html-button-response,249,1089064,0.0-16.1-1.1,80693,List2A,black,woman,,TRUE,5,,,,,
null,CORRECT,,html-keyboard-response,250,1090566,0.0-16.1-2.1-0.1,80693,List2A,black,woman,,,,null,,,,
2177,"<img src=""portrait/WM2.jpg""style=""height:400px;""></img>",7,html-button-response,251,1092745,0.0-16.1-4.1,80693,List2A,black,woman,,TRUE,7,,,,,
null,CORRECT,,html-keyboard-response,252,1094247,0.0-16.1-5.1-0.1,80693,List2A,black,woman,,,,null,,,,
1600,"<img src=""portrait/WM1.jpg""style=""height:400px;""></img>",6,html-button-response,253,1095849,0.0-16.1-7.1,80693,List2A,black,woman,,TRUE,6,,,,,
null,CORRECT,,html-keyboard-response,254,1097351,0.0-16.1-8.1-0.1,80693,List2A,black,woman,,,,null,,,,
6703,"<img src=""portrait/BW1.jpg""style=""height:400px;""></img>",0,html-button-response,255,1104056,0.0-16.1-10.1,80693,List2A,black,woman,,TRUE,0,,,,,
null,CORRECT,,html-keyboard-response,256,1105559,0.0-16.1-11.1-0.1,80693,List2A,black,woman,,,,null,,,,
2200,"<img src=""portrait/BW2.jpg""style=""height:400px;""></img>",2,html-button-response,257,1107760,0.0-16.1-13.1,80693,List2A,black,woman,,TRUE,2,,,,,
null,CORRECT,,html-keyboard-response,258,1109263,0.0-16.1-14.1-0.1,80693,List2A,black,woman,,,,null,,,,
1784,"<img src=""portrait/WW2.jpg""style=""height:400px;""></img>",3,html-button-response,259,1111049,0.0-16.1-16.1,80693,List2A,black,woman,,TRUE,3,,,,,
null,CORRECT,,html-keyboard-response,260,1112552,0.0-16.1-17.1-0.1,80693,List2A,black,woman,,,,null,,,,
1367,"<img src=""portrait/WW1.jpg""style=""height:400px;""></img>",1,html-button-response,261,1113921,0.0-16.1-19.1,80693,List2A,black,woman,,TRUE,1,,,,,
null,CORRECT,,html-keyboard-response,262,1115423,0.0-16.1-20.1-0.1,80693,List2A,black,woman,,,,null,,,,
1391,"<img src=""portrait/BM1.jpg""style=""height:400px;""></img>",4,html-button-response,263,1116816,0.0-16.1-22.1,80693,List2A,black,woman,,TRUE,4,,,,,
null,CORRECT,,html-keyboard-response,264,1118319,0.0-16.1-23.1-0.1,80693,List2A,black,woman,,,,null,,,,
2599,<p>You got 8 out of 8 right first time. Press Continue.</p>,0,html-button-response,265,1120920,0.0-16.1-25.1,80693,List2A,black,woman,,,,,,,,
null,"<div style=""font-size:60px;"">+</div>",,html-keyboard-response,266,1122423,0.0-17.0-0.0,80693,List2A,black,woman,,,,null,,,,
null,"<img src=""stim_listA/talk6.gif""style=""height:400px;""></stim_listA>",,html-keyboard-response,267,1124424,0.0-17.0-1.0,80693,List2A,black,woman,,,,null,,,,
null,are talking to each other,,html-keyboard-response,268,1126427,0.0-17.0-2.0,80693,List2A,black,woman,,,,null,,,,
11756,,,survey-text,269,1138185,0.0-17.0-3.0,80693,List2A,black,woman,,,,,"{""Q0"":""Fred talking to Dave""}","<img src=""stim_listA/talk6.gif""style=""height:400px;""></stim_listA>",are talking to each other,
null,"<div style=""font-size:60px;"">+</div>",,html-keyboard-response,270,1138687,0.0-17.0-0.1,80693,List2A,black,woman,,,,null,,,,
null,"<img src=""stim_listA/play4.gif""style=""height:400px;""></stim_listA>",,html-keyboard-response,271,1140689,0.0-17.0-1.1,80693,List2A,black,woman,,,,null,,,,
null,are playing with each other,,html-keyboard-response,272,1142691,0.0-17.0-2.1,80693,List2A,black,woman,,,,null,,,,
14285,,,survey-text,273,1156977,0.0-17.0-3.1,80693,List2A,black,woman,,,,,"{""Q0"":""fred is playing with Beth""}","<img src=""stim_listA/play4.gif""style=""height:400px;""></stim_listA>",are playing with each other,
null,"<div style=""font-size:60px;"">+</div>",,html-keyboard-response,274,1157478,0.0-17.0-0.2,80693,List2A,black,woman,,,,null,,,,
null,"<img src=""stim_listA/marry8.gif""style=""height:400px;""></stim_listA>",,html-keyboard-response,275,1159480,0.0-17.0-1.2,80693,List2A,black,woman,,,,null,,,,
null,are marrying each other,,html-keyboard-response,276,1161482,0.0-17.0-2.2,80693,List2A,black,woman,,,,null,,,,
6909,,,survey-text,277,1168393,0.0-17.0-3.2,80693,List2A,black,woman,,,,,"{""Q0"":""kate is marrying ruth""}","<img src=""stim_listA/marry8.gif""style=""height:400px;""></stim_listA>",are marrying each other,
null,"<div style=""font-size:60px;"">+</div>",,html-keyboard-response,278,1168895,0.0-17.0-0.3,80693,List2A,black,woman,,,,null,,,,
null,"<img src=""stim_listA/flirt3.gif""style=""height:400px;""></stim_listA>",,html-keyboard-response,279,1170897,0.0-17.0-1.3,80693,List2A,black,woman,,,,null,,,,
null,is flirting with,,html-keyboard-response,280,1172898,0.0-17.0-2.3,80693,List2A,black,woman,,,,null,,,,
15935,,,survey-text,281,1188833,0.0-17.0-3.3,80693,List2A,black,woman,,,,,"{""Q0"":""fred is flirting with kate""}","<img src=""stim_listA/flirt3.gif""style=""height:400px;""></stim_listA>",is flirting with,
null,"<div style=""font-size:60px;"">+</div>",,html-keyboard-response,282,1189334,0.0-17.0-0.4,80693,List2A,black,woman,,,,null,,,,
null,"<img src=""stim_listA/dance2.gif""style=""height:400px;""></stim_listA>",,html-keyboard-response,283,1191336,0.0-17.0-1.4,80693,List2A,black,woman,,,,null,,,,
null,are dancing with each other,,html-keyboard-response,284,1193337,0.0-17.0-2.4,80693,List2A,black,woman,,,,null,,,,
8454,,,survey-text,285,1201793,0.0-17.0-3.4,80693,List2A,black,woman,,,,,"{""Q0"":""Ruth is dancing with dave""}","<img src=""stim_listA/dance2.gif""style=""height:400px;""></stim_listA>",are dancing with each other,
null,"<div style=""font-size:60px;"">+</div>",,html-keyboard-response,286,1202294,0.0-17.0-0.5,80693,List2A,black,woman,,,,null,,,,
null,"<img src=""stim_listA/touch3.gif""style=""height:400px;""></stim_listA>",,html-keyboard-response,287,1204297,0.0-17.0-1.5,80693,List2A,black,woman,,,,null,,,,
null,is touching,,html-keyboard-response,288,1206298,0.0-17.0-2.5,80693,List2A,black,woman,,,,null,,,,
12126,,,survey-text,289,1218426,0.0-17.0-3.5,80693,List2A,black,woman,,,,,"{""Q0"":""Mike is touching kate""}","<img src=""stim_listA/touch3.gif""style=""height:400px;""></stim_listA>",is touching,
null,"<div style=""font-size:60px;"">+</div>",,html-keyboard-response,290,1218928,0.0-17.0-0.6,80693,List2A,black,woman,,,,null,,,,
null,"<img src=""stim_listA/flirt2.gif""style=""height:400px;""></stim_listA>",,html-keyboard-response,291,1220930,0.0-17.0-1.6,80693,List2A,black,woman,,,,null,,,,
null,are flirting with each other,,html-keyboard-response,292,1222931,0.0-17.0-2.6,80693,List2A,black,woman,,,,null,,,,
12501,,,survey-text,293,1235433,0.0-17.0-3.6,80693,List2A,black,woman,,,,,"{""Q0"":""ruth is flirting with dave""}","<img src=""stim_listA/flirt2.gif""style=""height:400px;""></stim_listA>",are flirting with each other,
null,"<div style=""font-size:60px;"">+</div>",,html-keyboard-response,294,1235934,0.0-17.0-0.7,80693,List2A,black,woman,,,,null,,,,
null,"<img src=""stim_listA/argue3.gif""style=""height:400px;""></stim_listA>",,html-keyboard-response,295,1237936,0.0-17.0-1.7,80693,List2A,black,woman,,,,null,,,,
null,is arguing with,,html-keyboard-response,296,1239937,0.0-17.0-2.7,80693,List2A,black,woman,,,,null,,,,
9633,,,survey-text,297,1249571,0.0-17.0-3.7,80693,List2A,black,woman,,,,,"{""Q0"":""mike is arguing with beth""}","<img src=""stim_listA/argue3.gif""style=""height:400px;""></stim_listA>",is arguing with,
null,"<div style=""font-size:60px;"">+</div>",,html-keyboard-response,298,1250073,0.0-17.0-0.8,80693,List2A,black,woman,,,,null,,,,
null,"<img src=""stim_listA/marry2.gif""style=""height:400px;""></stim_listA>",,html-keyboard-response,299,1252075,0.0-17.0-1.8,80693,List2A,black,woman,,,,null,,,,
null,are marrying each other,,html-keyboard-response,300,1254076,0.0-17.0-2.8,80693,List2A,black,woman,,,,null,,,,
8301,,,survey-text,301,1262378,0.0-17.0-3.8,80693,List2A,black,woman,,,,,"{""Q0"":""luke is marrying jane""}","<img src=""stim_listA/marry2.gif""style=""height:400px;""></stim_listA>",are marrying each other,
null,"<div style=""font-size:60px;"">+</div>",,html-keyboard-response,302,1262880,0.0-17.0-0.9,80693,List2A,black,woman,,,,null,,,,
null,"<img src=""stim_listA/touch2.gif""style=""height:400px;""></stim_listA>",,html-keyboard-response,303,1264882,0.0-17.0-1.9,80693,List2A,black,woman,,,,null,,,,
null,are touching each other,,html-keyboard-response,304,1266883,0.0-17.0-2.9,80693,List2A,black,woman,,,,null,,,,
10876,,,survey-text,305,1277761,0.0-17.0-3.9,80693,List2A,black,woman,,,,,"{""Q0"":""ruth is touching luke""}","<img src=""stim_listA/touch2.gif""style=""height:400px;""></stim_listA>",are touching each other,
null,"<div style=""font-size:60px;"">+</div>",,html-keyboard-response,306,1278262,0.0-17.0-0.10,80693,List2A,black,woman,,,,null,,,,
null,"<img src=""stim_listA/talk1.gif""style=""height:400px;""></stim_listA>",,html-keyboard-response,307,1280264,0.0-17.0-1.10,80693,List2A,black,woman,,,,null,,,,
null,is talking to,,html-keyboard-response,308,1282266,0.0-17.0-2.10,80693,List2A,black,woman,,,,null,,,,
11256,,,survey-text,309,1293522,0.0-17.0-3.10,80693,List2A,black,woman,,,,,"{""Q0"":""luke is talking to jane""}","<img src=""stim_listA/talk1.gif""style=""height:400px;""></stim_listA>",is talking to,
null,"<div style=""font-size:60px;"">+</div>",,html-keyboard-response,310,1294024,0.0-17.0-0.11,80693,List2A,black,woman,,,,null,,,,
null,"<img src=""stim_listA/dance4.gif""style=""height:400px;""></stim_listA>",,html-keyboard-response,311,1296026,0.0-17.0-1.11,80693,List2A,black,woman,,,,null,,,,
null,are dancing with each other,,html-keyboard-response,312,1298027,0.0-17.0-2.11,80693,List2A,black,woman,,,,null,,,,
7341,,,survey-text,313,1305369,0.0-17.0-3.11,80693,List2A,black,woman,,,,,"{""Q0"":""Mike is dancing with beth""}","<img src=""stim_listA/dance4.gif""style=""height:400px;""></stim_listA>",are dancing with each other,
null,"<div style=""font-size:60px;"">+</div>",,html-keyboard-response,314,1305871,0.0-17.0-0.12,80693,List2A,black,woman,,,,null,,,,
null,"<img src=""stim_listA/dance8.gif""style=""height:400px;""></stim_listA>",,html-keyboard-response,315,1307873,0.0-17.0-1.12,80693,List2A,black,woman,,,,null,,,,
null,are dancing with each other,,html-keyboard-response,316,1309875,0.0-17.0-2.12,80693,List2A,black,woman,,,,null,,,,
8552,,,survey-text,317,1318427,0.0-17.0-3.12,80693,List2A,black,woman,,,,,"{""Q0"":""beth is dancing with jane""}","<img src=""stim_listA/dance8.gif""style=""height:400px;""></stim_listA>",are dancing with each other,
null,"<div style=""font-size:60px;"">+</div>",,html-keyboard-response,318,1318929,0.0-17.0-0.13,80693,List2A,black,woman,,,,null,,,,
null,"<img src=""stim_listA/shout8.gif""style=""height:400px;""></stim_listA>",,html-keyboard-response,319,1320932,0.0-17.0-1.13,80693,List2A,black,woman,,,,null,,,,
null,are shouting at each other,,html-keyboard-response,320,1322934,0.0-17.0-2.13,80693,List2A,black,woman,,,,null,,,,
9004,,,survey-text,321,1331938,0.0-17.0-3.13,80693,List2A,black,woman,,,,,"{""Q0"":""jane is shouting at kate""}","<img src=""stim_listA/shout8.gif""style=""height:400px;""></stim_listA>",are shouting at each other,
null,"<div style=""font-size:60px;"">+</div>",,html-keyboard-response,322,1332441,0.0-17.0-0.14,80693,List2A,black,woman,,,,null,,,,
null,"<img src=""stim_listA/argue5.gif""style=""height:400px;""></stim_listA>",,html-keyboard-response,323,1334443,0.0-17.0-1.14,80693,List2A,black,woman,,,,null,,,,
null,is arguing with,,html-keyboard-response,324,1336445,0.0-17.0-2.14,80693,List2A,black,woman,,,,null,,,,
9525,,,survey-text,325,1345972,0.0-17.0-3.14,80693,List2A,black,woman,,,,,"{""Q0"":""Fred is arguing with dave""}","<img src=""stim_listA/argue5.gif""style=""height:400px;""></stim_listA>",is arguing with,
null,"<div style=""font-size:60px;"">+</div>",,html-keyboard-response,326,1346474,0.0-17.0-0.15,80693,List2A,black,woman,,,,null,,,,
null,"<img src=""stim_listA/flirt4.gif""style=""height:400px;""></stim_listA>",,html-keyboard-response,327,1348475,0.0-17.0-1.15,80693,List2A,black,woman,,,,null,,,,
null,are flirting with each other,,html-keyboard-response,328,1350477,0.0-17.0-2.15,80693,List2A,black,woman,,,,null,,,,
9277,,,survey-text,329,1359754,0.0-17.0-3.15,80693,List2A,black,woman,,,,,"{""Q0"":""mike is flirting with beth""}","<img src=""stim_listA/flirt4.gif""style=""height:400px;""></stim_listA>",are flirting with each other,
null,"<div style=""font-size:60px;"">+</div>",,html-keyboard-response,330,1360256,0.0-17.0-0.16,80693,List2A,black,woman,,,,null,,,,
null,"<img src=""stim_listA/fight8.gif""style=""height:400px;""></stim_listA>",,html-keyboard-response,331,1362259,0.0-17.0-1.16,80693,List2A,black,woman,,,,null,,,,
null,are fighting each other,,html-keyboard-response,332,1364261,0.0-17.0-2.16,80693,List2A,black,woman,,,,null,,,,
8054,,,survey-text,333,1372315,0.0-17.0-3.16,80693,List2A,black,woman,,,,,"{""Q0"":""beth is fighting with ruth""}","<img src=""stim_listA/fight8.gif""style=""height:400px;""></stim_listA>",are fighting each other,
null,"<div style=""font-size:60px;"">+</div>",,html-keyboard-response,334,1372816,0.0-17.0-0.17,80693,List2A,black,woman,,,,null,,,,
null,"<img src=""stim_listA/touch6.gif""style=""height:400px;""></stim_listA>",,html-keyboard-response,335,1374819,0.0-17.0-1.17,80693,List2A,black,woman,,,,null,,,,
null,are touching each other,,html-keyboard-response,336,1376820,0.0-17.0-2.17,80693,List2A,black,woman,,,,null,,,,
8086,,,survey-text,337,1384907,0.0-17.0-3.17,80693,List2A,black,woman,,,,,"{""Q0"":""luke is touching fred""}","<img src=""stim_listA/touch6.gif""style=""height:400px;""></stim_listA>",are touching each other,
null,"<div style=""font-size:60px;"">+</div>",,html-keyboard-response,338,1385409,0.0-17.0-0.18,80693,List2A,black,woman,,,,null,,,,
null,"<img src=""stim_listA/touch7.gif""style=""height:400px;""></stim_listA>",,html-keyboard-response,339,1387411,0.0-17.0-1.18,80693,List2A,black,woman,,,,null,,,,
null,is touching,,html-keyboard-response,340,1389412,0.0-17.0-2.18,80693,List2A,black,woman,,,,null,,,,
8284,,,survey-text,341,1397698,0.0-17.0-3.18,80693,List2A,black,woman,,,,,"{""Q0"":""jane is touching kate""}","<img src=""stim_listA/touch7.gif""style=""height:400px;""></stim_listA>",is touching,
null,"<div style=""font-size:60px;"">+</div>",,html-keyboard-response,342,1398199,0.0-17.0-0.19,80693,List2A,black,woman,,,,null,,,,
null,"<img src=""stim_listA/shout6.gif""style=""height:400px;""></stim_listA>",,html-keyboard-response,343,1400201,0.0-17.0-1.19,80693,List2A,black,woman,,,,null,,,,
null,are shouting at each other,,html-keyboard-response,344,1402202,0.0-17.0-2.19,80693,List2A,black,woman,,,,null,,,,
7495,,,survey-text,345,1409698,0.0-17.0-3.19,80693,List2A,black,woman,,,,,"{""Q0"":""mike is shouting at dave""}","<img src=""stim_listA/shout6.gif""style=""height:400px;""></stim_listA>",are shouting at each other,
3294,"<img src='img/portrait_matrix_list2.jpg' style='width:900px;height:500px;''></img><p>If you have memorised all the portraits and names and are ready to start, press Continue.</p><p><strong>Please note: Your memory of these faces will be tested 4 times during this experiment.</strong></p>",0,html-button-response,346,1412994,0.0-18.0-0.0,80693,List2A,black,woman,,,,,,,,
2022,"<img src=""portrait/BM2.jpg""style=""height:400px;""></img>",5,html-button-response,347,1416018,0.0-18.0-1.0,80693,List2A,black,woman,,TRUE,5,,,,,
null,CORRECT,,html-keyboard-response,348,1417522,0.0-18.0-2.0-0.0,80693,List2A,black,woman,,,,null,,,,
1799,"<img src=""portrait/BM1.jpg""style=""height:400px;""></img>",4,html-button-response,349,1419323,0.0-18.0-4.0,80693,List2A,black,woman,,TRUE,4,,,,,
null,CORRECT,,html-keyboard-response,350,1420826,0.0-18.0-5.0-0.0,80693,List2A,black,woman,,,,null,,,,
1640,"<img src=""portrait/WM2.jpg""style=""height:400px;""></img>",7,html-button-response,351,1422468,0.0-18.0-7.0,80693,List2A,black,woman,,TRUE,7,,,,,
null,CORRECT,,html-keyboard-response,352,1423970,0.0-18.0-8.0-0.0,80693,List2A,black,woman,,,,null,,,,
1958,"<img src=""portrait/WW1.jpg""style=""height:400px;""></img>",1,html-button-response,353,1425930,0.0-18.0-10.0,80693,List2A,black,woman,,TRUE,1,,,,,
null,CORRECT,,html-keyboard-response,354,1427431,0.0-18.0-11.0-0.0,80693,List2A,black,woman,,,,null,,,,
3011,"<img src=""portrait/BW2.jpg""style=""height:400px;""></img>",2,html-button-response,355,1430444,0.0-18.0-13.0,80693,List2A,black,woman,,TRUE,2,,,,,
null,CORRECT,,html-keyboard-response,356,1431946,0.0-18.0-14.0-0.0,80693,List2A,black,woman,,,,null,,,,
1383,"<img src=""portrait/BW1.jpg""style=""height:400px;""></img>",0,html-button-response,357,1433331,0.0-18.0-16.0,80693,List2A,black,woman,,TRUE,0,,,,,
null,CORRECT,,html-keyboard-response,358,1434832,0.0-18.0-17.0-0.0,80693,List2A,black,woman,,,,null,,,,
1898,"<img src=""portrait/WM1.jpg""style=""height:400px;""></img>",6,html-button-response,359,1436732,0.0-18.0-19.0,80693,List2A,black,woman,,TRUE,6,,,,,
null,CORRECT,,html-keyboard-response,360,1438234,0.0-18.0-20.0-0.0,80693,List2A,black,woman,,,,null,,,,
1552,"<img src=""portrait/WW2.jpg""style=""height:400px;""></img>",3,html-button-response,361,1439787,0.0-18.0-22.0,80693,List2A,black,woman,,TRUE,3,,,,,
null,CORRECT,,html-keyboard-response,362,1441290,0.0-18.0-23.0-0.0,80693,List2A,black,woman,,,,null,,,,
1351,<p>You got 8 out of 8 right first time. Press Continue.</p>,0,html-button-response,363,1442642,0.0-18.0-25.0,80693,List2A,black,woman,,,,,,,,
null,"<div style=""font-size:60px;"">+</div>",,html-keyboard-response,364,1444146,0.0-19.0-0.0,80693,List2A,black,woman,,,,null,,,,
null,"<img src=""stim_listA/marry6.gif""style=""height:400px;""></stim_listA>",,html-keyboard-response,365,1446148,0.0-19.0-1.0,80693,List2A,black,woman,,,,null,,,,
null,are marrying each other,,html-keyboard-response,366,1448149,0.0-19.0-2.0,80693,List2A,black,woman,,,,null,,,,
8955,,,survey-text,367,1457106,0.0-19.0-3.0,80693,List2A,black,woman,,,,,"{""Q0"":""mike is marrying luke""}","<img src=""stim_listA/marry6.gif""style=""height:400px;""></stim_listA>",are marrying each other,
null,"<div style=""font-size:60px;"">+</div>",,html-keyboard-response,368,1457607,0.0-19.0-0.1,80693,List2A,black,woman,,,,null,,,,
null,"<img src=""stim_listA/flirt5.gif""style=""height:400px;""></stim_listA>",,html-keyboard-response,369,1459609,0.0-19.0-1.1,80693,List2A,black,woman,,,,null,,,,
null,is flirting with,,html-keyboard-response,370,1461610,0.0-19.0-2.1,80693,List2A,black,woman,,,,null,,,,
7552,,,survey-text,371,1469163,0.0-19.0-3.1,80693,List2A,black,woman,,,,,"{""Q0"":""mike is flirting with luke""}","<img src=""stim_listA/flirt5.gif""style=""height:400px;""></stim_listA>",is flirting with,
null,"<div style=""font-size:60px;"">+</div>",,html-keyboard-response,372,1469664,0.0-19.0-0.2,80693,List2A,black,woman,,,,null,,,,
null,"<img src=""stim_listA/kiss5.gif""style=""height:400px;""></stim_listA>",,html-keyboard-response,373,1471667,0.0-19.0-1.2,80693,List2A,black,woman,,,,null,,,,
null,is kissing,,html-keyboard-response,374,1473669,0.0-19.0-2.2,80693,List2A,black,woman,,,,null,,,,
5981,,,survey-text,375,1479651,0.0-19.0-3.2,80693,List2A,black,woman,,,,,"{""Q0"":""luke is kissing fred""}","<img src=""stim_listA/kiss5.gif""style=""height:400px;""></stim_listA>",is kissing,
null,"<div style=""font-size:60px;"">+</div>",,html-keyboard-response,376,1480152,0.0-19.0-0.3,80693,List2A,black,woman,,,,null,,,,
null,"<img src=""stim_listA/argue2.gif""style=""height:400px;""></stim_listA>",,html-keyboard-response,377,1482155,0.0-19.0-1.3,80693,List2A,black,woman,,,,null,,,,
null,are arguing with each other,,html-keyboard-response,378,1484158,0.0-19.0-2.3,80693,List2A,black,woman,,,,null,,,,
10030,,,survey-text,379,1494188,0.0-19.0-3.3,80693,List2A,black,woman,,,,,"{""Q0"":""jane is arguing with luke""}","<img src=""stim_listA/argue2.gif""style=""height:400px;""></stim_listA>",are arguing with each other,
null,"<div style=""font-size:60px;"">+</div>",,html-keyboard-response,380,1494690,0.0-19.0-0.4,80693,List2A,black,woman,,,,null,,,,
null,"<img src=""stim_listA/talk4.gif""style=""height:400px;""></stim_listA>",,html-keyboard-response,381,1496692,0.0-19.0-1.4,80693,List2A,black,woman,,,,null,,,,
null,are talking to each other,,html-keyboard-response,382,1498693,0.0-19.0-2.4,80693,List2A,black,woman,,,,null,,,,
15014,,,survey-text,383,1513708,0.0-19.0-3.4,80693,List2A,black,woman,,,,,"{""Q0"":""Mike is ? with Beth""}","<img src=""stim_listA/talk4.gif""style=""height:400px;""></stim_listA>",are talking to each other,
null,"<div style=""font-size:60px;"">+</div>",,html-keyboard-response,384,1514210,0.0-19.0-0.5,80693,List2A,black,woman,,,,null,,,,
null,"<img src=""stim_listA/marry3.gif""style=""height:400px;""></stim_listA>",,html-keyboard-response,385,1516212,0.0-19.0-1.5,80693,List2A,black,woman,,,,null,,,,
null,is marrying,,html-keyboard-response,386,1518213,0.0-19.0-2.5,80693,List2A,black,woman,,,,null,,,,
6870,,,survey-text,387,1525084,0.0-19.0-3.5,80693,List2A,black,woman,,,,,"{""Q0"":""beth is marrying mike""}","<img src=""stim_listA/marry3.gif""style=""height:400px;""></stim_listA>",is marrying,
null,"<div style=""font-size:60px;"">+</div>",,html-keyboard-response,388,1525585,0.0-19.0-0.6,80693,List2A,black,woman,,,,null,,,,
null,"<img src=""stim_listA/touch8.gif""style=""height:400px;""></stim_listA>",,html-keyboard-response,389,1527587,0.0-19.0-1.6,80693,List2A,black,woman,,,,null,,,,
null,are touching each other,,html-keyboard-response,390,1529588,0.0-19.0-2.6,80693,List2A,black,woman,,,,null,,,,
6424,,,survey-text,391,1536012,0.0-19.0-3.6,80693,List2A,black,woman,,,,,"{""Q0"":""beth is touching ruth""}","<img src=""stim_listA/touch8.gif""style=""height:400px;""></stim_listA>",are touching each other,
null,"<div style=""font-size:60px;"">+</div>",,html-keyboard-response,392,1536513,0.0-19.0-0.7,80693,List2A,black,woman,,,,null,,,,
null,"<img src=""stim_listA/fight6.gif""style=""height:400px;""></stim_listA>",,html-keyboard-response,393,1538516,0.0-19.0-1.7,80693,List2A,black,woman,,,,null,,,,
null,are fighting each other,,html-keyboard-response,394,1540518,0.0-19.0-2.7,80693,List2A,black,woman,,,,null,,,,
7629,,,survey-text,395,1548148,0.0-19.0-3.7,80693,List2A,black,woman,,,,,"{""Q0"":""fred is fighting luke""}","<img src=""stim_listA/fight6.gif""style=""height:400px;""></stim_listA>",are fighting each other,
null,"<div style=""font-size:60px;"">+</div>",,html-keyboard-response,396,1548650,0.0-19.0-0.8,80693,List2A,black,woman,,,,null,,,,
null,"<img src=""stim_listA/flirt7.gif""style=""height:400px;""></stim_listA>",,html-keyboard-response,397,1550652,0.0-19.0-1.8,80693,List2A,black,woman,,,,null,,,,
null,is flirting with,,html-keyboard-response,398,1552653,0.0-19.0-2.8,80693,List2A,black,woman,,,,null,,,,
8349,,,survey-text,399,1561003,0.0-19.0-3.8,80693,List2A,black,woman,,,,,"{""Q0"":""Kate is flirting iwth ruth""}","<img src=""stim_listA/flirt7.gif""style=""height:400px;""></stim_listA>",is flirting with,
null,"<div style=""font-size:60px;"">+</div>",,html-keyboard-response,400,1561505,0.0-19.0-0.9,80693,List2A,black,woman,,,,null,,,,
null,"<img src=""stim_listA/play3.gif""style=""height:400px;""></stim_listA>",,html-keyboard-response,401,1563507,0.0-19.0-1.9,80693,List2A,black,woman,,,,null,,,,
null,is playing with,,html-keyboard-response,402,1565508,0.0-19.0-2.9,80693,List2A,black,woman,,,,null,,,,
9752,,,survey-text,403,1575260,0.0-19.0-3.9,80693,List2A,black,woman,,,,,"{""Q0"":""kate is playing with mike""}","<img src=""stim_listA/play3.gif""style=""height:400px;""></stim_listA>",is playing with,
null,"<div style=""font-size:60px;"">+</div>",,html-keyboard-response,404,1575762,0.0-19.0-0.10,80693,List2A,black,woman,,,,null,,,,
null,"<img src=""stim_listA/touch1.gif""style=""height:400px;""></stim_listA>",,html-keyboard-response,405,1577764,0.0-19.0-1.10,80693,List2A,black,woman,,,,null,,,,
null,is touching,,html-keyboard-response,406,1579765,0.0-19.0-2.10,80693,List2A,black,woman,,,,null,,,,
9679,,,survey-text,407,1589445,0.0-19.0-3.10,80693,List2A,black,woman,,,,,"{""Q0"":""fred is touching jane""}","<img src=""stim_listA/touch1.gif""style=""height:400px;""></stim_listA>",is touching,
null,"<div style=""font-size:60px;"">+</div>",,html-keyboard-response,408,1589947,0.0-19.0-0.11,80693,List2A,black,woman,,,,null,,,,
null,"<img src=""stim_listA/fight1.gif""style=""height:400px;""></stim_listA>",,html-keyboard-response,409,1591950,0.0-19.0-1.11,80693,List2A,black,woman,,,,null,,,,
null,is fighting,,html-keyboard-response,410,1593951,0.0-19.0-2.11,80693,List2A,black,woman,,,,null,,,,
7749,,,survey-text,411,1601701,0.0-19.0-3.11,80693,List2A,black,woman,,,,,"{""Q0"":""Jane is fighting fred""}","<img src=""stim_listA/fight1.gif""style=""height:400px;""></stim_listA>",is fighting,
null,"<div style=""font-size:60px;"">+</div>",,html-keyboard-response,412,1602202,0.0-19.0-0.12,80693,List2A,black,woman,,,,null,,,,
null,"<img src=""stim_listA/fight4.gif""style=""height:400px;""></stim_listA>",,html-keyboard-response,413,1604204,0.0-19.0-1.12,80693,List2A,black,woman,,,,null,,,,
null,are fighting each other,,html-keyboard-response,414,1606205,0.0-19.0-2.12,80693,List2A,black,woman,,,,null,,,,
7910,,,survey-text,415,1614117,0.0-19.0-3.12,80693,List2A,black,woman,,,,,"{""Q0"":""beth is fighting fred""}","<img src=""stim_listA/fight4.gif""style=""height:400px;""></stim_listA>",are fighting each other,
null,"<div style=""font-size:60px;"">+</div>",,html-keyboard-response,416,1614619,0.0-19.0-0.13,80693,List2A,black,woman,,,,null,,,,
null,"<img src=""stim_listA/marry7.gif""style=""height:400px;""></stim_listA>",,html-keyboard-response,417,1616621,0.0-19.0-1.13,80693,List2A,black,woman,,,,null,,,,
null,is marrying,,html-keyboard-response,418,1618622,0.0-19.0-2.13,80693,List2A,black,woman,,,,null,,,,
6519,,,survey-text,419,1625142,0.0-19.0-3.13,80693,List2A,black,woman,,,,,"{""Q0"":""beth is marrying jane""}","<img src=""stim_listA/marry7.gif""style=""height:400px;""></stim_listA>",is marrying,
null,"<div style=""font-size:60px;"">+</div>",,html-keyboard-response,420,1625644,0.0-19.0-0.14,80693,List2A,black,woman,,,,null,,,,
null,"<img src=""stim_listA/marry1.gif""style=""height:400px;""></stim_listA>",,html-keyboard-response,421,1627645,0.0-19.0-1.14,80693,List2A,black,woman,,,,null,,,,
null,is marrying,,html-keyboard-response,422,1629647,0.0-19.0-2.14,80693,List2A,black,woman,,,,null,,,,
11358,,,survey-text,423,1641005,0.0-19.0-3.14,80693,List2A,black,woman,,,,,"{""Q0"":""ruth is marrying dave""}","<img src=""stim_listA/marry1.gif""style=""height:400px;""></stim_listA>",is marrying,
null,"<div style=""font-size:60px;"">+</div>",,html-keyboard-response,424,1641507,0.0-19.0-0.15,80693,List2A,black,woman,,,,null,,,,
null,"<img src=""stim_listA/play8.gif""style=""height:400px;""></stim_listA>",,html-keyboard-response,425,1643510,0.0-19.0-1.15,80693,List2A,black,woman,,,,null,,,,
null,are playing with each other,,html-keyboard-response,426,1645511,0.0-19.0-2.15,80693,List2A,black,woman,,,,null,,,,
1029786,,,survey-text,427,2675300,0.0-19.0-3.15,80693,List2A,black,woman,,,,,"{""Q0"":""""}","<img src=""stim_listA/play8.gif""style=""height:400px;""></stim_listA>",are playing with each other,
null,"<div style=""font-size:60px;"">+</div>",,html-keyboard-response,428,2675803,0.0-19.0-0.16,80693,List2A,black,woman,,,,null,,,,
null,"<img src=""stim_listA/fight2.gif""style=""height:400px;""></stim_listA>",,html-keyboard-response,429,2677806,0.0-19.0-1.16,80693,List2A,black,woman,,,,null,,,,
null,are fighting each other,,html-keyboard-response,430,2679808,0.0-19.0-2.16,80693,List2A,black,woman,,,,null,,,,
7641,,,survey-text,431,2687450,0.0-19.0-3.16,80693,List2A,black,woman,,,,,"{""Q0"":""ruth fighting luke""}","<img src=""stim_listA/fight2.gif""style=""height:400px;""></stim_listA>",are fighting each other,
null,"<div style=""font-size:60px;"">+</div>",,html-keyboard-response,432,2687951,0.0-19.0-0.17,80693,List2A,black,woman,,,,null,,,,
null,"<img src=""stim_listA/play1.gif""style=""height:400px;""></stim_listA>",,html-keyboard-response,433,2689953,0.0-19.0-1.17,80693,List2A,black,woman,,,,null,,,,
null,is playing with,,html-keyboard-response,434,2691955,0.0-19.0-2.17,80693,List2A,black,woman,,,,null,,,,
9893,,,survey-text,435,2701849,0.0-19.0-3.17,80693,List2A,black,woman,,,,,"{""Q0"":""dave playing with jane""}","<img src=""stim_listA/play1.gif""style=""height:400px;""></stim_listA>",is playing with,
null,"<div style=""font-size:60px;"">+</div>",,html-keyboard-response,436,2702351,0.0-19.0-0.18,80693,List2A,black,woman,,,,null,,,,
null,"<img src=""stim_listA/flirt8.gif""style=""height:400px;""></stim_listA>",,html-keyboard-response,437,2704353,0.0-19.0-1.18,80693,List2A,black,woman,,,,null,,,,
null,are flirting with each other,,html-keyboard-response,438,2706355,0.0-19.0-2.18,80693,List2A,black,woman,,,,null,,,,
12493,,,survey-text,439,2718849,0.0-19.0-3.18,80693,List2A,black,woman,,,,,"{""Q0"":""Beth flirting with jane""}","<img src=""stim_listA/flirt8.gif""style=""height:400px;""></stim_listA>",are flirting with each other,
null,"<div style=""font-size:60px;"">+</div>",,html-keyboard-response,440,2719351,0.0-19.0-0.19,80693,List2A,black,woman,,,,null,,,,
null,"<img src=""stim_listA/kiss2.gif""style=""height:400px;""></stim_listA>",,html-keyboard-response,441,2721353,0.0-19.0-1.19,80693,List2A,black,woman,,,,null,,,,
null,are kissing each other,,html-keyboard-response,442,2723355,0.0-19.0-2.19,80693,List2A,black,woman,,,,null,,,,
7350,,,survey-text,443,2730705,0.0-19.0-3.19,80693,List2A,black,woman,,,,,"{""Q0"":""jane kissing dave""}","<img src=""stim_listA/kiss2.gif""style=""height:400px;""></stim_listA>",are kissing each other,
3831,<p>Thank you for completing that task.</p><p>The final part of this session is a short questionnaire.</p><p>Press Continue.</p>,0,html-button-response,444,2734537,0.0-20.0,80693,List2A,black,woman,,,,,,,,
43499,,,survey-text,445,2779041,0.0-21.0,80693,List2A,black,woman,,,,,"{""Q0"":""52"",""Q1"":""English"",""Q2"":""English"",""Q3"":""UK"",""Q4"":""Afro carribean"",""Q5"":""female""}",,,demographics
6510,,,survey-likert,446,2785563,0.0-22.0,80693,List2A,black,woman,,,,,"{""Q0"":4}",,,likert_ESS
5676,,,survey-likert,447,2791242,0.0-23.0,80693,List2A,black,woman,,,,,"{""Q0"":4}",,,likert_NSSAL_Q1
4982,,,survey-likert,448,2796225,0.0-24.0,80693,List2A,black,woman,,,,,"{""Q0"":4}",,,likert_NSSAL_Q2
4198,,,survey-likert,449,2800426,0.0-25.0,80693,List2A,black,woman,,,,,"{""Q0"":4}",,,likert_CGRS_Q1
5109,,,survey-likert,450,2805537,0.0-26.0,80693,List2A,black,woman,,,,,"{""Q0"":4}",,,likert_CGRS_Q2
3013,,,survey-likert,451,2808553,0.0-27.0,80693,List2A,black,woman,,,,,"{""Q0"":4}",,,likert_CGRS_Q3
4613,,,survey-text,452,2813169,0.0-28.0,80693,List2A,black,woman,,,,,"{""Q0"":""ccc""}",,,worker_id
13141,,,external-html,453,2826449,0.0-29.0,80693,List2A,black,woman,debrief.html,,,,,,,
