rt,stimulus,button_pressed,trial_type,trial_index,time_elapsed,internal_node_id,subject,list,ppt_race,ppt_gender,url,first_guess,correct,key_press,responses,image_type,phrase_type,test_part
2092,Welcome to the experiment. Press Continue to begin.,0,html-button-response,0,2094,0.0-0.0,80776,List1A,black,man,,,,,,,,
26452,,,external-html,1,29762,0.0-1.0,80776,List1A,black,man,consent.html,,,,,,,
42872,"<p>On the next page, you will see portraits of 8 people and their names.</p><p>Your first task is to take a few minutes to memorise the names of these people.</p><p>You will have to recall their names during the rest of the experiment, so it is</p><p>essential that you try to memorise these people and their names as best as you can.</p><br><p><strong>You will then be tested on your memory of these names and portraits.</strong></p><br><p>The experiment will start after you have completed this memory test.</p><br><p>Ready?</p>",0,html-button-response,2,72635,0.0-2.0,80776,List1A,black,man,,,,,,,,
113887,"<img src='img/portrait_matrix_list1.jpg' style='width:900px;height:500px;''></img><p>If you have memorised all the portraits and names and are ready to start, press Continue.</p><p><strong>Please note: Your memory of these faces will be tested 4 times during this experiment.</strong></p>",0,html-button-response,3,187525,0.0-3.0-0.0,80776,List1A,black,man,,,,,,,,
3807,"<img src=""portrait/WM2.jpg""style=""height:400px;""></img>",7,html-button-response,4,192334,0.0-3.0-1.0,80776,List1A,black,man,,TRUE,7,,,,,
null,CORRECT,,html-keyboard-response,5,193837,0.0-3.0-2.0-0.0,80776,List1A,black,man,,,,null,,,,
5712,"<img src=""portrait/BW2.jpg""style=""height:400px;""></img>",2,html-button-response,6,199551,0.0-3.0-4.0,80776,List1A,black,man,,TRUE,2,,,,,
null,CORRECT,,html-keyboard-response,7,201055,0.0-3.0-5.0-0.0,80776,List1A,black,man,,,,null,,,,
4597,"<img src=""portrait/BM1.jpg""style=""height:400px;""></img>",4,html-button-response,8,205653,0.0-3.0-7.0,80776,List1A,black,man,,TRUE,4,,,,,
null,CORRECT,,html-keyboard-response,9,207156,0.0-3.0-8.0-0.0,80776,List1A,black,man,,,,null,,,,
4958,"<img src=""portrait/BM2.jpg""style=""height:400px;""></img>",5,html-button-response,10,212116,0.0-3.0-10.0,80776,List1A,black,man,,TRUE,5,,,,,
null,CORRECT,,html-keyboard-response,11,213618,0.0-3.0-11.0-0.0,80776,List1A,black,man,,,,null,,,,
5416,"<img src=""portrait/WW1.jpg""style=""height:400px;""></img>",1,html-button-response,12,219034,0.0-3.0-13.0,80776,List1A,black,man,,TRUE,1,,,,,
null,CORRECT,,html-keyboard-response,13,220537,0.0-3.0-14.0-0.0,80776,List1A,black,man,,,,null,,,,
5378,"<img src=""portrait/WM1.jpg""style=""height:400px;""></img>",6,html-button-response,14,225916,0.0-3.0-16.0,80776,List1A,black,man,,TRUE,6,,,,,
null,CORRECT,,html-keyboard-response,15,227417,0.0-3.0-17.0-0.0,80776,List1A,black,man,,,,null,,,,
2926,"<img src=""portrait/WW2.jpg""style=""height:400px;""></img>",2,html-button-response,16,230344,0.0-3.0-19.0,80776,List1A,black,man,,TRUE,3,,,,,
7093,"<img src=""portrait/WW2.jpg""style=""height:400px;""></img>",3,html-button-response,17,238439,0.0-3.0-21.0-0.0,80776,List1A,black,man,,FALSE,3,,,,,
null,CORRECT,,html-keyboard-response,18,239941,0.0-3.0-21.0-1.0-0.0,80776,List1A,black,man,,,,null,,,,
4803,"<img src=""portrait/BW1.jpg""style=""height:400px;""></img>",0,html-button-response,19,244746,0.0-3.0-22.0,80776,List1A,black,man,,TRUE,0,,,,,
null,CORRECT,,html-keyboard-response,20,246248,0.0-3.0-23.0-0.0,80776,List1A,black,man,,,,null,,,,
6013,<p>You got 7 out of 8 right first time. Press Continue.</p>,0,html-button-response,21,252262,0.0-3.0-25.0,80776,List1A,black,man,,,,,,,,
7114,"As you did not score 100%, the memory game will repeat. Press Continue.",0,html-button-response,22,260377,0.0-3.0-26.0-0.0,80776,List1A,black,man,,,,,,,,
1699,"<img src='img/portrait_matrix_list1.jpg' style='width:900px;height:500px;''></img><p>If you have memorised all the portraits and names and are ready to start, press Continue.</p><p><strong>Please note: Your memory of these faces will be tested 4 times during this experiment.</strong></p>",0,html-button-response,23,263079,0.0-3.1-0.1,80776,List1A,black,man,,,,,,,,
2577,"<img src=""portrait/WM2.jpg""style=""height:400px;""></img>",7,html-button-response,24,266658,0.0-3.1-1.1,80776,List1A,black,man,,TRUE,7,,,,,
null,CORRECT,,html-keyboard-response,25,268160,0.0-3.1-2.1-0.1,80776,List1A,black,man,,,,null,,,,
5111,"<img src=""portrait/BW2.jpg""style=""height:400px;""></img>",2,html-button-response,26,273272,0.0-3.1-4.1,80776,List1A,black,man,,TRUE,2,,,,,
null,CORRECT,,html-keyboard-response,27,274774,0.0-3.1-5.1-0.1,80776,List1A,black,man,,,,null,,,,
3747,"<img src=""portrait/BM1.jpg""style=""height:400px;""></img>",4,html-button-response,28,278523,0.0-3.1-7.1,80776,List1A,black,man,,TRUE,4,,,,,
null,CORRECT,,html-keyboard-response,29,280025,0.0-3.1-8.1-0.1,80776,List1A,black,man,,,,null,,,,
2084,"<img src=""portrait/BM2.jpg""style=""height:400px;""></img>",5,html-button-response,30,282111,0.0-3.1-10.1,80776,List1A,black,man,,TRUE,5,,,,,
null,CORRECT,,html-keyboard-response,31,283613,0.0-3.1-11.1-0.1,80776,List1A,black,man,,,,null,,,,
3576,"<img src=""portrait/WW1.jpg""style=""height:400px;""></img>",1,html-button-response,32,287190,0.0-3.1-13.1,80776,List1A,black,man,,TRUE,1,,,,,
null,CORRECT,,html-keyboard-response,33,288693,0.0-3.1-14.1-0.1,80776,List1A,black,man,,,,null,,,,
2892,"<img src=""portrait/WM1.jpg""style=""height:400px;""></img>",6,html-button-response,34,291587,0.0-3.1-16.1,80776,List1A,black,man,,TRUE,6,,,,,
null,CORRECT,,html-keyboard-response,35,293089,0.0-3.1-17.1-0.1,80776,List1A,black,man,,,,null,,,,
2454,"<img src=""portrait/WW2.jpg""style=""height:400px;""></img>",3,html-button-response,36,295544,0.0-3.1-19.1,80776,List1A,black,man,,TRUE,3,,,,,
null,CORRECT,,html-keyboard-response,37,297046,0.0-3.1-20.1-0.1,80776,List1A,black,man,,,,null,,,,
4821,"<img src=""portrait/BW1.jpg""style=""height:400px;""></img>",0,html-button-response,38,301868,0.0-3.1-22.1,80776,List1A,black,man,,TRUE,0,,,,,
null,CORRECT,,html-keyboard-response,39,303372,0.0-3.1-23.1-0.1,80776,List1A,black,man,,,,null,,,,
1861,<p>You got 8 out of 8 right first time. Press Continue.</p>,0,html-button-response,40,305234,0.0-3.1-25.1,80776,List1A,black,man,,,,,,,,
65820,"<p>In this experiment, you will view photographs of the people from the memory game interacting.</p><p>By using the <strong>exact</strong> phrase given <i>after</i> the photograph appears and recalling the correct names of the people in the photographs, form a sentence describing the interaction. You do not need to capitalise names.</p><p>Type your answer in the space provided. Please complete every sentence before moving onto the next trial.</p><p>You will only have a few seconds to memorise each given photograph and phrase before you can respond, so try your best to focus.</p><p>An example is given below. Press 'Continue' when you are ready.</p><img src='img/speaking_example.jpg' style='width:800px;height:460px;''></img>",0,html-button-response,41,372056,0.0-4.0,80776,List1A,black,man,,,,,,,,
5053,"<p>Before the experiment starts, you will watch two example trials. Press 'Continue'.</p>",0,html-button-response,42,378111,0.0-5.0,80776,List1A,black,man,,,,,,,,
null,<img src='img/meet_eg.gif' style='height:400px;''></img>,,html-keyboard-response,43,381114,0.0-6.0,80776,List1A,black,man,,,,null,,,,
null,<p>is meeting</p>,,html-keyboard-response,44,383116,0.0-7.0,80776,List1A,black,man,,,,null,,,,
3922,<p><b>Answer:</b> kate is meeting beth</p>,0,html-button-response,45,387038,0.0-8.0,80776,List1A,black,man,,,,,,,,
null,<img src='img/look_eg.gif' style='height:400px;''></img>,,html-keyboard-response,46,390042,0.0-9.0,80776,List1A,black,man,,,,null,,,,
null,<p>are looking at each other</p>,,html-keyboard-response,47,392043,0.0-10.0,80776,List1A,black,man,,,,null,,,,
3840,<p><b>Answer:</b> luke and dave are looking at each other</p>,0,html-button-response,48,395884,0.0-11.0,80776,List1A,black,man,,,,,,,,
23956,"<p>Ready to start the experiment?</p><br><p><strong>Remember to describe the picture using a full sentence,</strong></p><p><strong>that combines the names of the people with the <i>exact</i> phrase given.</strong></p><p><strong>To receive full payment you must do this correctly.</strong></p><p><strong> You do not need to capitalise names or use punctuation.</strong></p><br><p>Press 'Continue' to begin.</p>",0,html-button-response,49,420841,0.0-12.0,80776,List1A,black,man,,,,,,,,
null,"<div style=""font-size:60px;"">+</div>",,html-keyboard-response,50,422342,0.0-13.0-0.0,80776,List1A,black,man,,,,null,,,,
null,"<img src=""stim_listA/play7.gif""style=""height:400px;""></stim_listA>",,html-keyboard-response,51,424343,0.0-13.0-1.0,80776,List1A,black,man,,,,null,,,,
null,is playing with,,html-keyboard-response,52,426344,0.0-13.0-2.0,80776,List1A,black,man,,,,null,,,,
15085,,,survey-text,53,441431,0.0-13.0-3.0,80776,List1A,black,man,,,,,"{""Q0"":""jane is playing with kate""}","<img src=""stim_listA/play7.gif""style=""height:400px;""></stim_listA>",is playing with,
null,"<div style=""font-size:60px;"">+</div>",,html-keyboard-response,54,441933,0.0-13.0-0.1,80776,List1A,black,man,,,,null,,,,
null,"<img src=""stim_listA/argue3.gif""style=""height:400px;""></stim_listA>",,html-keyboard-response,55,443934,0.0-13.0-1.1,80776,List1A,black,man,,,,null,,,,
null,is arguing with,,html-keyboard-response,56,445935,0.0-13.0-2.1,80776,List1A,black,man,,,,null,,,,
23014,,,survey-text,57,468950,0.0-13.0-3.1,80776,List1A,black,man,,,,,"{""Q0"":""ruth is arguing with luke""}","<img src=""stim_listA/argue3.gif""style=""height:400px;""></stim_listA>",is arguing with,
null,"<div style=""font-size:60px;"">+</div>",,html-keyboard-response,58,469451,0.0-13.0-0.2,80776,List1A,black,man,,,,null,,,,
null,"<img src=""stim_listA/talk2.gif""style=""height:400px;""></stim_listA>",,html-keyboard-response,59,471453,0.0-13.0-1.2,80776,List1A,black,man,,,,null,,,,
null,are talking to each other,,html-keyboard-response,60,473455,0.0-13.0-2.2,80776,List1A,black,man,,,,null,,,,
24021,,,survey-text,61,497476,0.0-13.0-3.2,80776,List1A,black,man,,,,,"{""Q0"":""mike and beth are arguing with each other""}","<img src=""stim_listA/talk2.gif""style=""height:400px;""></stim_listA>",are talking to each other,
null,"<div style=""font-size:60px;"">+</div>",,html-keyboard-response,62,497978,0.0-13.0-0.3,80776,List1A,black,man,,,,null,,,,
null,"<img src=""stim_listA/kiss4.gif""style=""height:400px;""></stim_listA>",,html-keyboard-response,63,499979,0.0-13.0-1.3,80776,List1A,black,man,,,,null,,,,
null,are kissing each other,,html-keyboard-response,64,501980,0.0-13.0-2.3,80776,List1A,black,man,,,,null,,,,
21274,,,survey-text,65,523256,0.0-13.0-3.3,80776,List1A,black,man,,,,,"{""Q0"":""jane and dave are kissing each other""}","<img src=""stim_listA/kiss4.gif""style=""height:400px;""></stim_listA>",are kissing each other,
null,"<div style=""font-size:60px;"">+</div>",,html-keyboard-response,66,523757,0.0-13.0-0.4,80776,List1A,black,man,,,,null,,,,
null,"<img src=""stim_listA/fight3.gif""style=""height:400px;""></stim_listA>",,html-keyboard-response,67,525759,0.0-13.0-1.4,80776,List1A,black,man,,,,null,,,,
null,is fighting,,html-keyboard-response,68,527760,0.0-13.0-2.4,80776,List1A,black,man,,,,null,,,,
18802,,,survey-text,69,546562,0.0-13.0-3.4,80776,List1A,black,man,,,,,"{""Q0"":""jane is fighting dave""}","<img src=""stim_listA/fight3.gif""style=""height:400px;""></stim_listA>",is fighting,
null,"<div style=""font-size:60px;"">+</div>",,html-keyboard-response,70,547064,0.0-13.0-0.5,80776,List1A,black,man,,,,null,,,,
null,"<img src=""stim_listA/talk8.gif""style=""height:400px;""></stim_listA>",,html-keyboard-response,71,549065,0.0-13.0-1.5,80776,List1A,black,man,,,,null,,,,
null,are talking to each other,,html-keyboard-response,72,551066,0.0-13.0-2.5,80776,List1A,black,man,,,,null,,,,
20224,,,survey-text,73,571291,0.0-13.0-3.5,80776,List1A,black,man,,,,,"{""Q0"":""kate and ruth are talking to each other""}","<img src=""stim_listA/talk8.gif""style=""height:400px;""></stim_listA>",are talking to each other,
null,"<div style=""font-size:60px;"">+</div>",,html-keyboard-response,74,571793,0.0-13.0-0.6,80776,List1A,black,man,,,,null,,,,
null,"<img src=""stim_listA/kiss2.gif""style=""height:400px;""></stim_listA>",,html-keyboard-response,75,573794,0.0-13.0-1.6,80776,List1A,black,man,,,,null,,,,
null,are kissing each other,,html-keyboard-response,76,575797,0.0-13.0-2.6,80776,List1A,black,man,,,,null,,,,
18013,,,survey-text,77,593811,0.0-13.0-3.6,80776,List1A,black,man,,,,,"{""Q0"":""jane and mike are kissing each other""}","<img src=""stim_listA/kiss2.gif""style=""height:400px;""></stim_listA>",are kissing each other,
null,"<div style=""font-size:60px;"">+</div>",,html-keyboard-response,78,594312,0.0-13.0-0.7,80776,List1A,black,man,,,,null,,,,
null,"<img src=""stim_listA/marry7.gif""style=""height:400px;""></stim_listA>",,html-keyboard-response,79,596313,0.0-13.0-1.7,80776,List1A,black,man,,,,null,,,,
null,is marrying,,html-keyboard-response,80,598315,0.0-13.0-2.7,80776,List1A,black,man,,,,null,,,,
15549,,,survey-text,81,613864,0.0-13.0-3.7,80776,List1A,black,man,,,,,"{""Q0"":""jane is marrying kate""}","<img src=""stim_listA/marry7.gif""style=""height:400px;""></stim_listA>",is marrying,
null,"<div style=""font-size:60px;"">+</div>",,html-keyboard-response,82,614365,0.0-13.0-0.8,80776,List1A,black,man,,,,null,,,,
null,"<img src=""stim_listA/shout1.gif""style=""height:400px;""></stim_listA>",,html-keyboard-response,83,616367,0.0-13.0-1.8,80776,List1A,black,man,,,,null,,,,
null,is shouting at,,html-keyboard-response,84,618370,0.0-13.0-2.8,80776,List1A,black,man,,,,null,,,,
18120,,,survey-text,85,636490,0.0-13.0-3.8,80776,List1A,black,man,,,,,"{""Q0"":""beth is shouting at fred""}","<img src=""stim_listA/shout1.gif""style=""height:400px;""></stim_listA>",is shouting at,
null,"<div style=""font-size:60px;"">+</div>",,html-keyboard-response,86,636991,0.0-13.0-0.9,80776,List1A,black,man,,,,null,,,,
null,"<img src=""stim_listA/play8.gif""style=""height:400px;""></stim_listA>",,html-keyboard-response,87,638992,0.0-13.0-1.9,80776,List1A,black,man,,,,null,,,,
null,are playing with each other,,html-keyboard-response,88,640994,0.0-13.0-2.9,80776,List1A,black,man,,,,null,,,,
29459,,,survey-text,89,670453,0.0-13.0-3.9,80776,List1A,black,man,,,,,"{""Q0"":""beth and ruth are playing with each other""}","<img src=""stim_listA/play8.gif""style=""height:400px;""></stim_listA>",are playing with each other,
null,"<div style=""font-size:60px;"">+</div>",,html-keyboard-response,90,670954,0.0-13.0-0.10,80776,List1A,black,man,,,,null,,,,
null,"<img src=""stim_listA/flirt5.gif""style=""height:400px;""></stim_listA>",,html-keyboard-response,91,672956,0.0-13.0-1.10,80776,List1A,black,man,,,,null,,,,
null,is flirting with,,html-keyboard-response,92,674957,0.0-13.0-2.10,80776,List1A,black,man,,,,null,,,,
17793,,,survey-text,93,692751,0.0-13.0-3.10,80776,List1A,black,man,,,,,"{""Q0"":""fred is flirting with dave""}","<img src=""stim_listA/flirt5.gif""style=""height:400px;""></stim_listA>",is flirting with,
null,"<div style=""font-size:60px;"">+</div>",,html-keyboard-response,94,693252,0.0-13.0-0.11,80776,List1A,black,man,,,,null,,,,
null,"<img src=""stim_listA/fight2.gif""style=""height:400px;""></stim_listA>",,html-keyboard-response,95,695253,0.0-13.0-1.11,80776,List1A,black,man,,,,null,,,,
null,are fighting each other,,html-keyboard-response,96,697255,0.0-13.0-2.11,80776,List1A,black,man,,,,null,,,,
23113,,,survey-text,97,720370,0.0-13.0-3.11,80776,List1A,black,man,,,,,"{""Q0"":""fred and beth are fighting each other""}","<img src=""stim_listA/fight2.gif""style=""height:400px;""></stim_listA>",are fighting each other,
null,"<div style=""font-size:60px;"">+</div>",,html-keyboard-response,98,720870,0.0-13.0-0.12,80776,List1A,black,man,,,,null,,,,
null,"<img src=""stim_listA/flirt6.gif""style=""height:400px;""></stim_listA>",,html-keyboard-response,99,722872,0.0-13.0-1.12,80776,List1A,black,man,,,,null,,,,
null,are flirting with each other,,html-keyboard-response,100,724873,0.0-13.0-2.12,80776,List1A,black,man,,,,null,,,,
26575,,,survey-text,101,751448,0.0-13.0-3.12,80776,List1A,black,man,,,,,"{""Q0"":""mike and luke are flirting with each other""}","<img src=""stim_listA/flirt6.gif""style=""height:400px;""></stim_listA>",are flirting with each other,
null,"<div style=""font-size:60px;"">+</div>",,html-keyboard-response,102,751950,0.0-13.0-0.13,80776,List1A,black,man,,,,null,,,,
null,"<img src=""stim_listA/play4.gif""style=""height:400px;""></stim_listA>",,html-keyboard-response,103,753952,0.0-13.0-1.13,80776,List1A,black,man,,,,null,,,,
null,are playing with each other,,html-keyboard-response,104,755953,0.0-13.0-2.13,80776,List1A,black,man,,,,null,,,,
28259,,,survey-text,105,784213,0.0-13.0-3.13,80776,List1A,black,man,,,,,"{""Q0"":""jane and luke are playing with each other""}","<img src=""stim_listA/play4.gif""style=""height:400px;""></stim_listA>",are playing with each other,
null,"<div style=""font-size:60px;"">+</div>",,html-keyboard-response,106,784714,0.0-13.0-0.14,80776,List1A,black,man,,,,null,,,,
null,"<img src=""stim_listA/dance8.gif""style=""height:400px;""></stim_listA>",,html-keyboard-response,107,786715,0.0-13.0-1.14,80776,List1A,black,man,,,,null,,,,
null,are dancing with each other,,html-keyboard-response,108,788717,0.0-13.0-2.14,80776,List1A,black,man,,,,null,,,,
20338,,,survey-text,109,809056,0.0-13.0-3.14,80776,List1A,black,man,,,,,"{""Q0"":""kate and jane are dancing with each other""}","<img src=""stim_listA/dance8.gif""style=""height:400px;""></stim_listA>",are dancing with each other,
null,"<div style=""font-size:60px;"">+</div>",,html-keyboard-response,110,809558,0.0-13.0-0.15,80776,List1A,black,man,,,,null,,,,
null,"<img src=""stim_listA/shout3.gif""style=""height:400px;""></stim_listA>",,html-keyboard-response,111,811559,0.0-13.0-1.15,80776,List1A,black,man,,,,null,,,,
null,is shouting at,,html-keyboard-response,112,813560,0.0-13.0-2.15,80776,List1A,black,man,,,,null,,,,
16049,,,survey-text,113,829610,0.0-13.0-3.15,80776,List1A,black,man,,,,,"{""Q0"":""luke is shouting at jane""}","<img src=""stim_listA/shout3.gif""style=""height:400px;""></stim_listA>",is shouting at,
null,"<div style=""font-size:60px;"">+</div>",,html-keyboard-response,114,830111,0.0-13.0-0.16,80776,List1A,black,man,,,,null,,,,
null,"<img src=""stim_listA/dance5.gif""style=""height:400px;""></stim_listA>",,html-keyboard-response,115,832113,0.0-13.0-1.16,80776,List1A,black,man,,,,null,,,,
null,is dancing with,,html-keyboard-response,116,834114,0.0-13.0-2.16,80776,List1A,black,man,,,,null,,,,
14431,,,survey-text,117,848545,0.0-13.0-3.16,80776,List1A,black,man,,,,,"{""Q0"":""fred is dancing with dave""}","<img src=""stim_listA/dance5.gif""style=""height:400px;""></stim_listA>",is dancing with,
null,"<div style=""font-size:60px;"">+</div>",,html-keyboard-response,118,849046,0.0-13.0-0.17,80776,List1A,black,man,,,,null,,,,
null,"<img src=""stim_listA/touch7.gif""style=""height:400px;""></stim_listA>",,html-keyboard-response,119,851048,0.0-13.0-1.17,80776,List1A,black,man,,,,null,,,,
null,is touching,,html-keyboard-response,120,853049,0.0-13.0-2.17,80776,List1A,black,man,,,,null,,,,
20928,,,survey-text,121,873978,0.0-13.0-3.17,80776,List1A,black,man,,,,,"{""Q0"":""ruth is touching kate""}","<img src=""stim_listA/touch7.gif""style=""height:400px;""></stim_listA>",is touching,
null,"<div style=""font-size:60px;"">+</div>",,html-keyboard-response,122,874479,0.0-13.0-0.18,80776,List1A,black,man,,,,null,,,,
null,"<img src=""stim_listA/shout4.gif""style=""height:400px;""></stim_listA>",,html-keyboard-response,123,876480,0.0-13.0-1.18,80776,List1A,black,man,,,,null,,,,
null,are shouting at each other,,html-keyboard-response,124,878481,0.0-13.0-2.18,80776,List1A,black,man,,,,null,,,,
19339,,,survey-text,125,897822,0.0-13.0-3.18,80776,List1A,black,man,,,,,"{""Q0"":""dave and ruth are shouting at each other""}","<img src=""stim_listA/shout4.gif""style=""height:400px;""></stim_listA>",are shouting at each other,
null,"<div style=""font-size:60px;"">+</div>",,html-keyboard-response,126,898323,0.0-13.0-0.19,80776,List1A,black,man,,,,null,,,,
null,"<img src=""stim_listA/touch3.gif""style=""height:400px;""></stim_listA>",,html-keyboard-response,127,900324,0.0-13.0-1.19,80776,List1A,black,man,,,,null,,,,
null,is touching,,html-keyboard-response,128,902326,0.0-13.0-2.19,80776,List1A,black,man,,,,null,,,,
16854,,,survey-text,129,919181,0.0-13.0-3.19,80776,List1A,black,man,,,,,"{""Q0"":""jane is touching luke""}","<img src=""stim_listA/touch3.gif""style=""height:400px;""></stim_listA>",is touching,
32287,"<img src='img/portrait_matrix_list1.jpg' style='width:900px;height:500px;''></img><p>If you have memorised all the portraits and names and are ready to start, press Continue.</p><p><strong>Please note: Your memory of these faces will be tested 4 times during this experiment.</strong></p>",0,html-button-response,130,951468,0.0-14.0-0.0,80776,List1A,black,man,,,,,,,,
5665,"<img src=""portrait/BW2.jpg""style=""height:400px;""></img>",2,html-button-response,131,958134,0.0-14.0-1.0,80776,List1A,black,man,,TRUE,2,,,,,
null,CORRECT,,html-keyboard-response,132,959636,0.0-14.0-2.0-0.0,80776,List1A,black,man,,,,null,,,,
3459,"<img src=""portrait/WM1.jpg""style=""height:400px;""></img>",6,html-button-response,133,963096,0.0-14.0-4.0,80776,List1A,black,man,,TRUE,6,,,,,
null,CORRECT,,html-keyboard-response,134,964599,0.0-14.0-5.0-0.0,80776,List1A,black,man,,,,null,,,,
2527,"<img src=""portrait/WW2.jpg""style=""height:400px;""></img>",3,html-button-response,135,967127,0.0-14.0-7.0,80776,List1A,black,man,,TRUE,3,,,,,
null,CORRECT,,html-keyboard-response,136,968629,0.0-14.0-8.0-0.0,80776,List1A,black,man,,,,null,,,,
2376,"<img src=""portrait/WM2.jpg""style=""height:400px;""></img>",7,html-button-response,137,971006,0.0-14.0-10.0,80776,List1A,black,man,,TRUE,7,,,,,
null,CORRECT,,html-keyboard-response,138,972507,0.0-14.0-11.0-0.0,80776,List1A,black,man,,,,null,,,,
3697,"<img src=""portrait/BW1.jpg""style=""height:400px;""></img>",0,html-button-response,139,976206,0.0-14.0-13.0,80776,List1A,black,man,,TRUE,0,,,,,
null,CORRECT,,html-keyboard-response,140,977708,0.0-14.0-14.0-0.0,80776,List1A,black,man,,,,null,,,,
2395,"<img src=""portrait/BM1.jpg""style=""height:400px;""></img>",4,html-button-response,141,980103,0.0-14.0-16.0,80776,List1A,black,man,,TRUE,4,,,,,
null,CORRECT,,html-keyboard-response,142,981605,0.0-14.0-17.0-0.0,80776,List1A,black,man,,,,null,,,,
2633,"<img src=""portrait/BM2.jpg""style=""height:400px;""></img>",5,html-button-response,143,984239,0.0-14.0-19.0,80776,List1A,black,man,,TRUE,5,,,,,
null,CORRECT,,html-keyboard-response,144,985742,0.0-14.0-20.0-0.0,80776,List1A,black,man,,,,null,,,,
3869,"<img src=""portrait/WW1.jpg""style=""height:400px;""></img>",1,html-button-response,145,989613,0.0-14.0-22.0,80776,List1A,black,man,,TRUE,1,,,,,
null,CORRECT,,html-keyboard-response,146,991115,0.0-14.0-23.0-0.0,80776,List1A,black,man,,,,null,,,,
2179,<p>You got 8 out of 8 right first time. Press Continue.</p>,0,html-button-response,147,993296,0.0-14.0-25.0,80776,List1A,black,man,,,,,,,,
null,"<div style=""font-size:60px;"">+</div>",,html-keyboard-response,148,994798,0.0-15.0-0.0,80776,List1A,black,man,,,,null,,,,
null,"<img src=""stim_listA/argue7.gif""style=""height:400px;""></stim_listA>",,html-keyboard-response,149,996799,0.0-15.0-1.0,80776,List1A,black,man,,,,null,,,,
null,is arguing with,,html-keyboard-response,150,998801,0.0-15.0-2.0,80776,List1A,black,man,,,,null,,,,
23633,,,survey-text,151,1022434,0.0-15.0-3.0,80776,List1A,black,man,,,,,"{""Q0"":""ruth is arguing with kate""}","<img src=""stim_listA/argue7.gif""style=""height:400px;""></stim_listA>",is arguing with,
null,"<div style=""font-size:60px;"">+</div>",,html-keyboard-response,152,1022935,0.0-15.0-0.1,80776,List1A,black,man,,,,null,,,,
null,"<img src=""stim_listA/flirt7.gif""style=""height:400px;""></stim_listA>",,html-keyboard-response,153,1024936,0.0-15.0-1.1,80776,List1A,black,man,,,,null,,,,
null,is flirting with,,html-keyboard-response,154,1026938,0.0-15.0-2.1,80776,List1A,black,man,,,,null,,,,
18901,,,survey-text,155,1045839,0.0-15.0-3.1,80776,List1A,black,man,,,,,"{""Q0"":""beth is flirting with jane""}","<img src=""stim_listA/flirt7.gif""style=""height:400px;""></stim_listA>",is flirting with,
null,"<div style=""font-size:60px;"">+</div>",,html-keyboard-response,156,1046341,0.0-15.0-0.2,80776,List1A,black,man,,,,null,,,,
null,"<img src=""stim_listA/play3.gif""style=""height:400px;""></stim_listA>",,html-keyboard-response,157,1048342,0.0-15.0-1.2,80776,List1A,black,man,,,,null,,,,
null,is playing with,,html-keyboard-response,158,1050344,0.0-15.0-2.2,80776,List1A,black,man,,,,null,,,,
16934,,,survey-text,159,1067278,0.0-15.0-3.2,80776,List1A,black,man,,,,,"{""Q0"":""jane is playing with dave""}","<img src=""stim_listA/play3.gif""style=""height:400px;""></stim_listA>",is playing with,
null,"<div style=""font-size:60px;"">+</div>",,html-keyboard-response,160,1067779,0.0-15.0-0.3,80776,List1A,black,man,,,,null,,,,
null,"<img src=""stim_listA/shout6.gif""style=""height:400px;""></stim_listA>",,html-keyboard-response,161,1069781,0.0-15.0-1.3,80776,List1A,black,man,,,,null,,,,
null,are shouting at each other,,html-keyboard-response,162,1071781,0.0-15.0-2.3,80776,List1A,black,man,,,,null,,,,
17681,,,survey-text,163,1089464,0.0-15.0-3.3,80776,List1A,black,man,,,,,"{""Q0"":""dave and mike are shouting at each other""}","<img src=""stim_listA/shout6.gif""style=""height:400px;""></stim_listA>",are shouting at each other,
null,"<div style=""font-size:60px;"">+</div>",,html-keyboard-response,164,1089965,0.0-15.0-0.4,80776,List1A,black,man,,,,null,,,,
null,"<img src=""stim_listA/play6.gif""style=""height:400px;""></stim_listA>",,html-keyboard-response,165,1091967,0.0-15.0-1.4,80776,List1A,black,man,,,,null,,,,
null,are playing with each other,,html-keyboard-response,166,1093969,0.0-15.0-2.4,80776,List1A,black,man,,,,null,,,,
21497,,,survey-text,167,1115466,0.0-15.0-3.4,80776,List1A,black,man,,,,,"{""Q0"":""fred and luke are playing with each other""}","<img src=""stim_listA/play6.gif""style=""height:400px;""></stim_listA>",are playing with each other,
null,"<div style=""font-size:60px;"">+</div>",,html-keyboard-response,168,1115967,0.0-15.0-0.5,80776,List1A,black,man,,,,null,,,,
null,"<img src=""stim_listA/marry5.gif""style=""height:400px;""></stim_listA>",,html-keyboard-response,169,1117969,0.0-15.0-1.5,80776,List1A,black,man,,,,null,,,,
null,is marrying,,html-keyboard-response,170,1119970,0.0-15.0-2.5,80776,List1A,black,man,,,,null,,,,
12833,,,survey-text,171,1132804,0.0-15.0-3.5,80776,List1A,black,man,,,,,"{""Q0"":""luke is marrying mike""}","<img src=""stim_listA/marry5.gif""style=""height:400px;""></stim_listA>",is marrying,
null,"<div style=""font-size:60px;"">+</div>",,html-keyboard-response,172,1133305,0.0-15.0-0.6,80776,List1A,black,man,,,,null,,,,
null,"<img src=""stim_listA/kiss1.gif""style=""height:400px;""></stim_listA>",,html-keyboard-response,173,1135306,0.0-15.0-1.6,80776,List1A,black,man,,,,null,,,,
null,is kissing,,html-keyboard-response,174,1137309,0.0-15.0-2.6,80776,List1A,black,man,,,,null,,,,
15809,,,survey-text,175,1153118,0.0-15.0-3.6,80776,List1A,black,man,,,,,"{""Q0"":""beth is kissing fred""}","<img src=""stim_listA/kiss1.gif""style=""height:400px;""></stim_listA>",is kissing,
null,"<div style=""font-size:60px;"">+</div>",,html-keyboard-response,176,1153620,0.0-15.0-0.7,80776,List1A,black,man,,,,null,,,,
null,"<img src=""stim_listA/kiss3.gif""style=""height:400px;""></stim_listA>",,html-keyboard-response,177,1155621,0.0-15.0-1.7,80776,List1A,black,man,,,,null,,,,
null,is kissing,,html-keyboard-response,178,1157623,0.0-15.0-2.7,80776,List1A,black,man,,,,null,,,,
12639,,,survey-text,179,1170262,0.0-15.0-3.7,80776,List1A,black,man,,,,,"{""Q0"":""luke is kissing ruth""}","<img src=""stim_listA/kiss3.gif""style=""height:400px;""></stim_listA>",is kissing,
null,"<div style=""font-size:60px;"">+</div>",,html-keyboard-response,180,1170763,0.0-15.0-0.8,80776,List1A,black,man,,,,null,,,,
null,"<img src=""stim_listA/touch1.gif""style=""height:400px;""></stim_listA>",,html-keyboard-response,181,1172765,0.0-15.0-1.8,80776,List1A,black,man,,,,null,,,,
null,is touching,,html-keyboard-response,182,1174765,0.0-15.0-2.8,80776,List1A,black,man,,,,null,,,,
11842,,,survey-text,183,1186608,0.0-15.0-3.8,80776,List1A,black,man,,,,,"{""Q0"":""kate is touching mike""}","<img src=""stim_listA/touch1.gif""style=""height:400px;""></stim_listA>",is touching,
null,"<div style=""font-size:60px;"">+</div>",,html-keyboard-response,184,1187109,0.0-15.0-0.9,80776,List1A,black,man,,,,null,,,,
null,"<img src=""stim_listA/marry8.gif""style=""height:400px;""></stim_listA>",,html-keyboard-response,185,1189111,0.0-15.0-1.9,80776,List1A,black,man,,,,null,,,,
null,are marrying each other,,html-keyboard-response,186,1191112,0.0-15.0-2.9,80776,List1A,black,man,,,,null,,,,
17649,,,survey-text,187,1208761,0.0-15.0-3.9,80776,List1A,black,man,,,,,"{""Q0"":""beth and jane are marrying each other""}","<img src=""stim_listA/marry8.gif""style=""height:400px;""></stim_listA>",are marrying each other,
null,"<div style=""font-size:60px;"">+</div>",,html-keyboard-response,188,1209262,0.0-15.0-0.10,80776,List1A,black,man,,,,null,,,,
null,"<img src=""stim_listA/marry3.gif""style=""height:400px;""></stim_listA>",,html-keyboard-response,189,1211263,0.0-15.0-1.10,80776,List1A,black,man,,,,null,,,,
null,is marrying,,html-keyboard-response,190,1213264,0.0-15.0-2.10,80776,List1A,black,man,,,,null,,,,
11048,,,survey-text,191,1224312,0.0-15.0-3.10,80776,List1A,black,man,,,,,"{""Q0"":""ruth is marring dave""}","<img src=""stim_listA/marry3.gif""style=""height:400px;""></stim_listA>",is marrying,
null,"<div style=""font-size:60px;"">+</div>",,html-keyboard-response,192,1224813,0.0-15.0-0.11,80776,List1A,black,man,,,,null,,,,
null,"<img src=""stim_listA/talk3.gif""style=""height:400px;""></stim_listA>",,html-keyboard-response,193,1226815,0.0-15.0-1.11,80776,List1A,black,man,,,,null,,,,
null,is talking to,,html-keyboard-response,194,1228816,0.0-15.0-2.11,80776,List1A,black,man,,,,null,,,,
16864,,,survey-text,195,1245682,0.0-15.0-3.11,80776,List1A,black,man,,,,,"{""Q0"":""luke is talking to jane""}","<img src=""stim_listA/talk3.gif""style=""height:400px;""></stim_listA>",is talking to,
null,"<div style=""font-size:60px;"">+</div>",,html-keyboard-response,196,1246183,0.0-15.0-0.12,80776,List1A,black,man,,,,null,,,,
null,"<img src=""stim_listA/play5.gif""style=""height:400px;""></stim_listA>",,html-keyboard-response,197,1248184,0.0-15.0-1.12,80776,List1A,black,man,,,,null,,,,
null,is playing with,,html-keyboard-response,198,1250185,0.0-15.0-2.12,80776,List1A,black,man,,,,null,,,,
13737,,,survey-text,199,1263923,0.0-15.0-3.12,80776,List1A,black,man,,,,,"{""Q0"":""dave is playing with mike""}","<img src=""stim_listA/play5.gif""style=""height:400px;""></stim_listA>",is playing with,
null,"<div style=""font-size:60px;"">+</div>",,html-keyboard-response,200,1264424,0.0-15.0-0.13,80776,List1A,black,man,,,,null,,,,
null,"<img src=""stim_listA/talk1.gif""style=""height:400px;""></stim_listA>",,html-keyboard-response,201,1266426,0.0-15.0-1.13,80776,List1A,black,man,,,,null,,,,
null,is talking to,,html-keyboard-response,202,1268427,0.0-15.0-2.13,80776,List1A,black,man,,,,null,,,,
12261,,,survey-text,203,1280689,0.0-15.0-3.13,80776,List1A,black,man,,,,,"{""Q0"":""fred is talking to kate""}","<img src=""stim_listA/talk1.gif""style=""height:400px;""></stim_listA>",is talking to,
null,"<div style=""font-size:60px;"">+</div>",,html-keyboard-response,204,1281190,0.0-15.0-0.14,80776,List1A,black,man,,,,null,,,,
null,"<img src=""stim_listA/argue1.gif""style=""height:400px;""></stim_listA>",,html-keyboard-response,205,1283192,0.0-15.0-1.14,80776,List1A,black,man,,,,null,,,,
null,is arguing with,,html-keyboard-response,206,1285193,0.0-15.0-2.14,80776,List1A,black,man,,,,null,,,,
14117,,,survey-text,207,1299310,0.0-15.0-3.14,80776,List1A,black,man,,,,,"{""Q0"":""mike is arguing with kate""}","<img src=""stim_listA/argue1.gif""style=""height:400px;""></stim_listA>",is arguing with,
null,"<div style=""font-size:60px;"">+</div>",,html-keyboard-response,208,1299811,0.0-15.0-0.15,80776,List1A,black,man,,,,null,,,,
null,"<img src=""stim_listA/shout8.gif""style=""height:400px;""></stim_listA>",,html-keyboard-response,209,1301813,0.0-15.0-1.15,80776,List1A,black,man,,,,null,,,,
null,are shouting at each other,,html-keyboard-response,210,1303814,0.0-15.0-2.15,80776,List1A,black,man,,,,null,,,,
19587,,,survey-text,211,1323402,0.0-15.0-3.15,80776,List1A,black,man,,,,,"{""Q0"":""beth and jane are shouting at each other""}","<img src=""stim_listA/shout8.gif""style=""height:400px;""></stim_listA>",are shouting at each other,
null,"<div style=""font-size:60px;"">+</div>",,html-keyboard-response,212,1323905,0.0-15.0-0.16,80776,List1A,black,man,,,,null,,,,
null,"<img src=""stim_listA/fight6.gif""style=""height:400px;""></stim_listA>",,html-keyboard-response,213,1325906,0.0-15.0-1.16,80776,List1A,black,man,,,,null,,,,
null,are fighting each other,,html-keyboard-response,214,1327908,0.0-15.0-2.16,80776,List1A,black,man,,,,null,,,,
16484,,,survey-text,215,1344392,0.0-15.0-3.16,80776,List1A,black,man,,,,,"{""Q0"":""fred and luke are fighting each other""}","<img src=""stim_listA/fight6.gif""style=""height:400px;""></stim_listA>",are fighting each other,
null,"<div style=""font-size:60px;"">+</div>",,html-keyboard-response,216,1344894,0.0-15.0-0.17,80776,List1A,black,man,,,,null,,,,
null,"<img src=""stim_listA/argue4.gif""style=""height:400px;""></stim_listA>",,html-keyboard-response,217,1346895,0.0-15.0-1.17,80776,List1A,black,man,,,,null,,,,
null,are arguing with each other,,html-keyboard-response,218,1348897,0.0-15.0-2.17,80776,List1A,black,man,,,,null,,,,
20894,,,survey-text,219,1369791,0.0-15.0-3.17,80776,List1A,black,man,,,,,"{""Q0"":""jane and luke are arguing with each other""}","<img src=""stim_listA/argue4.gif""style=""height:400px;""></stim_listA>",are arguing with each other,
null,"<div style=""font-size:60px;"">+</div>",,html-keyboard-response,220,1370293,0.0-15.0-0.18,80776,List1A,black,man,,,,null,,,,
null,"<img src=""stim_listA/kiss5.gif""style=""height:400px;""></stim_listA>",,html-keyboard-response,221,1372294,0.0-15.0-1.18,80776,List1A,black,man,,,,null,,,,
null,is kissing,,html-keyboard-response,222,1374296,0.0-15.0-2.18,80776,List1A,black,man,,,,null,,,,
12224,,,survey-text,223,1386521,0.0-15.0-3.18,80776,List1A,black,man,,,,,"{""Q0"":""fred is kissing luke""}","<img src=""stim_listA/kiss5.gif""style=""height:400px;""></stim_listA>",is kissing,
null,"<div style=""font-size:60px;"">+</div>",,html-keyboard-response,224,1387023,0.0-15.0-0.19,80776,List1A,black,man,,,,null,,,,
null,"<img src=""stim_listA/talk6.gif""style=""height:400px;""></stim_listA>",,html-keyboard-response,225,1389024,0.0-15.0-1.19,80776,List1A,black,man,,,,null,,,,
null,are talking to each other,,html-keyboard-response,226,1391026,0.0-15.0-2.19,80776,List1A,black,man,,,,null,,,,
16202,,,survey-text,227,1407230,0.0-15.0-3.19,80776,List1A,black,man,,,,,"{""Q0"":""mike and luke are talking to each other""}","<img src=""stim_listA/talk6.gif""style=""height:400px;""></stim_listA>",are talking to each other,
19571,"<img src='img/portrait_matrix_list1.jpg' style='width:900px;height:500px;''></img><p>If you have memorised all the portraits and names and are ready to start, press Continue.</p><p><strong>Please note: Your memory of these faces will be tested 4 times during this experiment.</strong></p>",0,html-button-response,228,1426802,0.0-16.0-0.0,80776,List1A,black,man,,,,,,,,
3201,"<img src=""portrait/WM1.jpg""style=""height:400px;""></img>",6,html-button-response,229,1431003,0.0-16.0-1.0,80776,List1A,black,man,,TRUE,6,,,,,
null,CORRECT,,html-keyboard-response,230,1432505,0.0-16.0-2.0-0.0,80776,List1A,black,man,,,,null,,,,
2270,"<img src=""portrait/WW1.jpg""style=""height:400px;""></img>",1,html-button-response,231,1434777,0.0-16.0-4.0,80776,List1A,black,man,,TRUE,1,,,,,
null,CORRECT,,html-keyboard-response,232,1436280,0.0-16.0-5.0-0.0,80776,List1A,black,man,,,,null,,,,
6853,"<img src=""portrait/BW1.jpg""style=""height:400px;""></img>",0,html-button-response,233,1443134,0.0-16.0-7.0,80776,List1A,black,man,,TRUE,0,,,,,
null,CORRECT,,html-keyboard-response,234,1444636,0.0-16.0-8.0-0.0,80776,List1A,black,man,,,,null,,,,
2216,"<img src=""portrait/BM1.jpg""style=""height:400px;""></img>",4,html-button-response,235,1446853,0.0-16.0-10.0,80776,List1A,black,man,,TRUE,4,,,,,
null,CORRECT,,html-keyboard-response,236,1448355,0.0-16.0-11.0-0.0,80776,List1A,black,man,,,,null,,,,
2329,"<img src=""portrait/BW2.jpg""style=""height:400px;""></img>",2,html-button-response,237,1450685,0.0-16.0-13.0,80776,List1A,black,man,,TRUE,2,,,,,
null,CORRECT,,html-keyboard-response,238,1452186,0.0-16.0-14.0-0.0,80776,List1A,black,man,,,,null,,,,
2208,"<img src=""portrait/WM2.jpg""style=""height:400px;""></img>",7,html-button-response,239,1454396,0.0-16.0-16.0,80776,List1A,black,man,,TRUE,7,,,,,
null,CORRECT,,html-keyboard-response,240,1455897,0.0-16.0-17.0-0.0,80776,List1A,black,man,,,,null,,,,
1785,"<img src=""portrait/WW2.jpg""style=""height:400px;""></img>",3,html-button-response,241,1457684,0.0-16.0-19.0,80776,List1A,black,man,,TRUE,3,,,,,
null,CORRECT,,html-keyboard-response,242,1459187,0.0-16.0-20.0-0.0,80776,List1A,black,man,,,,null,,,,
1993,"<img src=""portrait/BM2.jpg""style=""height:400px;""></img>",5,html-button-response,243,1461181,0.0-16.0-22.0,80776,List1A,black,man,,TRUE,5,,,,,
null,CORRECT,,html-keyboard-response,244,1462683,0.0-16.0-23.0-0.0,80776,List1A,black,man,,,,null,,,,
968,<p>You got 8 out of 8 right first time. Press Continue.</p>,0,html-button-response,245,1463652,0.0-16.0-25.0,80776,List1A,black,man,,,,,,,,
null,"<div style=""font-size:60px;"">+</div>",,html-keyboard-response,246,1465155,0.0-17.0-0.0,80776,List1A,black,man,,,,null,,,,
null,"<img src=""stim_listA/flirt2.gif""style=""height:400px;""></stim_listA>",,html-keyboard-response,247,1467156,0.0-17.0-1.0,80776,List1A,black,man,,,,null,,,,
null,are flirting with each other,,html-keyboard-response,248,1469158,0.0-17.0-2.0,80776,List1A,black,man,,,,null,,,,
36499,,,survey-text,249,1505657,0.0-17.0-3.0,80776,List1A,black,man,,,,,"{""Q0"":""mike and beth are flirting with each other""}","<img src=""stim_listA/flirt2.gif""style=""height:400px;""></stim_listA>",are flirting with each other,
null,"<div style=""font-size:60px;"">+</div>",,html-keyboard-response,250,1506158,0.0-17.0-0.1,80776,List1A,black,man,,,,null,,,,
null,"<img src=""stim_listA/argue6.gif""style=""height:400px;""></stim_listA>",,html-keyboard-response,251,1508159,0.0-17.0-1.1,80776,List1A,black,man,,,,null,,,,
null,are arguing with each other,,html-keyboard-response,252,1510161,0.0-17.0-2.1,80776,List1A,black,man,,,,null,,,,
20394,,,survey-text,253,1530556,0.0-17.0-3.1,80776,List1A,black,man,,,,,"{""Q0"":""fred and dave are arguing with each other""}","<img src=""stim_listA/argue6.gif""style=""height:400px;""></stim_listA>",are arguing with each other,
null,"<div style=""font-size:60px;"">+</div>",,html-keyboard-response,254,1531057,0.0-17.0-0.2,80776,List1A,black,man,,,,null,,,,
null,"<img src=""stim_listA/shout5.gif""style=""height:400px;""></stim_listA>",,html-keyboard-response,255,1533059,0.0-17.0-1.2,80776,List1A,black,man,,,,null,,,,
null,is shouting at,,html-keyboard-response,256,1535060,0.0-17.0-2.2,80776,List1A,black,man,,,,null,,,,
12653,,,survey-text,257,1547714,0.0-17.0-3.2,80776,List1A,black,man,,,,,"{""Q0"":""fred is shouting at luke""}","<img src=""stim_listA/shout5.gif""style=""height:400px;""></stim_listA>",is shouting at,
null,"<div style=""font-size:60px;"">+</div>",,html-keyboard-response,258,1548215,0.0-17.0-0.3,80776,List1A,black,man,,,,null,,,,
null,"<img src=""stim_listA/argue2.gif""style=""height:400px;""></stim_listA>",,html-keyboard-response,259,1550216,0.0-17.0-1.3,80776,List1A,black,man,,,,null,,,,
null,are arguing with each other,,html-keyboard-response,260,1552218,0.0-17.0-2.3,80776,List1A,black,man,,,,null,,,,
19067,,,survey-text,261,1571286,0.0-17.0-3.3,80776,List1A,black,man,,,,,"{""Q0"":""kate and fred are arguing with each other""}","<img src=""stim_listA/argue2.gif""style=""height:400px;""></stim_listA>",are arguing with each other,
null,"<div style=""font-size:60px;"">+</div>",,html-keyboard-response,262,1571787,0.0-17.0-0.4,80776,List1A,black,man,,,,null,,,,
null,"<img src=""stim_listA/touch6.gif""style=""height:400px;""></stim_listA>",,html-keyboard-response,263,1573788,0.0-17.0-1.4,80776,List1A,black,man,,,,null,,,,
null,are touching each other,,html-keyboard-response,264,1575790,0.0-17.0-2.4,80776,List1A,black,man,,,,null,,,,
19431,,,survey-text,265,1595222,0.0-17.0-3.4,80776,List1A,black,man,,,,,"{""Q0"":""luke and fred are touching each other""}","<img src=""stim_listA/touch6.gif""style=""height:400px;""></stim_listA>",are touching each other,
null,"<div style=""font-size:60px;"">+</div>",,html-keyboard-response,266,1595724,0.0-17.0-0.5,80776,List1A,black,man,,,,null,,,,
null,"<img src=""stim_listA/talk4.gif""style=""height:400px;""></stim_listA>",,html-keyboard-response,267,1597725,0.0-17.0-1.5,80776,List1A,black,man,,,,null,,,,
null,are talking to each other,,html-keyboard-response,268,1599726,0.0-17.0-2.5,80776,List1A,black,man,,,,null,,,,
16451,,,survey-text,269,1616179,0.0-17.0-3.5,80776,List1A,black,man,,,,,"{""Q0"":""ruth and dave are talking to each other""}","<img src=""stim_listA/talk4.gif""style=""height:400px;""></stim_listA>",are talking to each other,
null,"<div style=""font-size:60px;"">+</div>",,html-keyboard-response,270,1616681,0.0-17.0-0.6,80776,List1A,black,man,,,,null,,,,
null,"<img src=""stim_listA/shout2.gif""style=""height:400px;""></stim_listA>",,html-keyboard-response,271,1618682,0.0-17.0-1.6,80776,List1A,black,man,,,,null,,,,
null,are shouting at each other,,html-keyboard-response,272,1620683,0.0-17.0-2.6,80776,List1A,black,man,,,,null,,,,
17630,,,survey-text,273,1638314,0.0-17.0-3.6,80776,List1A,black,man,,,,,"{""Q0"":""mike and jane are shouting at each other""}","<img src=""stim_listA/shout2.gif""style=""height:400px;""></stim_listA>",are shouting at each other,
null,"<div style=""font-size:60px;"">+</div>",,html-keyboard-response,274,1638815,0.0-17.0-0.7,80776,List1A,black,man,,,,null,,,,
null,"<img src=""stim_listA/marry6.gif""style=""height:400px;""></stim_listA>",,html-keyboard-response,275,1640816,0.0-17.0-1.7,80776,List1A,black,man,,,,null,,,,
null,are marrying each other,,html-keyboard-response,276,1642817,0.0-17.0-2.7,80776,List1A,black,man,,,,null,,,,
16992,,,survey-text,277,1659811,0.0-17.0-3.7,80776,List1A,black,man,,,,,"{""Q0"":""fred and mike are marrying each other""}","<img src=""stim_listA/marry6.gif""style=""height:400px;""></stim_listA>",are marrying each other,
null,"<div style=""font-size:60px;"">+</div>",,html-keyboard-response,278,1660312,0.0-17.0-0.8,80776,List1A,black,man,,,,null,,,,
null,"<img src=""stim_listA/touch2.gif""style=""height:400px;""></stim_listA>",,html-keyboard-response,279,1662313,0.0-17.0-1.8,80776,List1A,black,man,,,,null,,,,
null,are touching each other,,html-keyboard-response,280,1664315,0.0-17.0-2.8,80776,List1A,black,man,,,,null,,,,
24031,,,survey-text,281,1688346,0.0-17.0-3.8,80776,List1A,black,man,,,,,"{""Q0"":""fred and beth are touching teaching each other""}","<img src=""stim_listA/touch2.gif""style=""height:400px;""></stim_listA>",are touching each other,
null,"<div style=""font-size:60px;"">+</div>",,html-keyboard-response,282,1688847,0.0-17.0-0.9,80776,List1A,black,man,,,,null,,,,
null,"<img src=""stim_listA/fight7.gif""style=""height:400px;""></stim_listA>",,html-keyboard-response,283,1690849,0.0-17.0-1.9,80776,List1A,black,man,,,,null,,,,
null,is fighting,,html-keyboard-response,284,1692850,0.0-17.0-2.9,80776,List1A,black,man,,,,null,,,,
13194,,,survey-text,285,1706045,0.0-17.0-3.9,80776,List1A,black,man,,,,,"{""Q0"":""kate is fighting jane""}","<img src=""stim_listA/fight7.gif""style=""height:400px;""></stim_listA>",is fighting,
null,"<div style=""font-size:60px;"">+</div>",,html-keyboard-response,286,1706546,0.0-17.0-0.10,80776,List1A,black,man,,,,null,,,,
null,"<img src=""stim_listA/dance3.gif""style=""height:400px;""></stim_listA>",,html-keyboard-response,287,1708548,0.0-17.0-1.10,80776,List1A,black,man,,,,null,,,,
null,is dancing with,,html-keyboard-response,288,1710549,0.0-17.0-2.10,80776,List1A,black,man,,,,null,,,,
15507,,,survey-text,289,1726057,0.0-17.0-3.10,80776,List1A,black,man,,,,,"{""Q0"":""jane is dancing with luke""}","<img src=""stim_listA/dance3.gif""style=""height:400px;""></stim_listA>",is dancing with,
null,"<div style=""font-size:60px;"">+</div>",,html-keyboard-response,290,1726559,0.0-17.0-0.11,80776,List1A,black,man,,,,null,,,,
null,"<img src=""stim_listA/flirt4.gif""style=""height:400px;""></stim_listA>",,html-keyboard-response,291,1728560,0.0-17.0-1.11,80776,List1A,black,man,,,,null,,,,
null,are flirting with each other,,html-keyboard-response,292,1730561,0.0-17.0-2.11,80776,List1A,black,man,,,,null,,,,
21686,,,survey-text,293,1752248,0.0-17.0-3.11,80776,List1A,black,man,,,,,"{""Q0"":""dave and ruth are dancing with each other""}","<img src=""stim_listA/flirt4.gif""style=""height:400px;""></stim_listA>",are flirting with each other,
null,"<div style=""font-size:60px;"">+</div>",,html-keyboard-response,294,1752750,0.0-17.0-0.12,80776,List1A,black,man,,,,null,,,,
null,"<img src=""stim_listA/marry2.gif""style=""height:400px;""></stim_listA>",,html-keyboard-response,295,1754752,0.0-17.0-1.12,80776,List1A,black,man,,,,null,,,,
null,are marrying each other,,html-keyboard-response,296,1756753,0.0-17.0-2.12,80776,List1A,black,man,,,,null,,,,
15334,,,survey-text,297,1772088,0.0-17.0-3.12,80776,List1A,black,man,,,,,"{""Q0"":""kate and fred are marrying each other""}","<img src=""stim_listA/marry2.gif""style=""height:400px;""></stim_listA>",are marrying each other,
null,"<div style=""font-size:60px;"">+</div>",,html-keyboard-response,298,1772589,0.0-17.0-0.13,80776,List1A,black,man,,,,null,,,,
null,"<img src=""stim_listA/fight1.gif""style=""height:400px;""></stim_listA>",,html-keyboard-response,299,1774590,0.0-17.0-1.13,80776,List1A,black,man,,,,null,,,,
null,is fighting,,html-keyboard-response,300,1776592,0.0-17.0-2.13,80776,List1A,black,man,,,,null,,,,
11754,,,survey-text,301,1788346,0.0-17.0-3.13,80776,List1A,black,man,,,,,"{""Q0"":""kate is fighting mike""}","<img src=""stim_listA/fight1.gif""style=""height:400px;""></stim_listA>",is fighting,
null,"<div style=""font-size:60px;"">+</div>",,html-keyboard-response,302,1788849,0.0-17.0-0.14,80776,List1A,black,man,,,,null,,,,
null,"<img src=""stim_listA/talk5.gif""style=""height:400px;""></stim_listA>",,html-keyboard-response,303,1790850,0.0-17.0-1.14,80776,List1A,black,man,,,,null,,,,
null,is talking to,,html-keyboard-response,304,1792852,0.0-17.0-2.14,80776,List1A,black,man,,,,null,,,,
10615,,,survey-text,305,1803468,0.0-17.0-3.14,80776,List1A,black,man,,,,,"{""Q0"":""dave is talking to fred""}","<img src=""stim_listA/talk5.gif""style=""height:400px;""></stim_listA>",is talking to,
null,"<div style=""font-size:60px;"">+</div>",,html-keyboard-response,306,1803970,0.0-17.0-0.15,80776,List1A,black,man,,,,null,,,,
null,"<img src=""stim_listA/flirt1.gif""style=""height:400px;""></stim_listA>",,html-keyboard-response,307,1805972,0.0-17.0-1.15,80776,List1A,black,man,,,,null,,,,
null,is flirting with,,html-keyboard-response,308,1807973,0.0-17.0-2.15,80776,List1A,black,man,,,,null,,,,
19250,,,survey-text,309,1827224,0.0-17.0-3.15,80776,List1A,black,man,,,,,"{""Q0"":""kate is flirting with fred""}","<img src=""stim_listA/flirt1.gif""style=""height:400px;""></stim_listA>",is flirting with,
null,"<div style=""font-size:60px;"">+</div>",,html-keyboard-response,310,1827726,0.0-17.0-0.16,80776,List1A,black,man,,,,null,,,,
null,"<img src=""stim_listA/kiss7.gif""style=""height:400px;""></stim_listA>",,html-keyboard-response,311,1829727,0.0-17.0-1.16,80776,List1A,black,man,,,,null,,,,
null,is kissing,,html-keyboard-response,312,1831729,0.0-17.0-2.16,80776,List1A,black,man,,,,null,,,,
16481,,,survey-text,313,1848210,0.0-17.0-3.16,80776,List1A,black,man,,,,,"{""Q0"":""beth is kissing ruth""}","<img src=""stim_listA/kiss7.gif""style=""height:400px;""></stim_listA>",is kissing,
null,"<div style=""font-size:60px;"">+</div>",,html-keyboard-response,314,1848712,0.0-17.0-0.17,80776,List1A,black,man,,,,null,,,,
null,"<img src=""stim_listA/flirt8.gif""style=""height:400px;""></stim_listA>",,html-keyboard-response,315,1850713,0.0-17.0-1.17,80776,List1A,black,man,,,,null,,,,
null,are flirting with each other,,html-keyboard-response,316,1852715,0.0-17.0-2.17,80776,List1A,black,man,,,,null,,,,
21037,,,survey-text,317,1873752,0.0-17.0-3.17,80776,List1A,black,man,,,,,"{""Q0"":""kate and ruth are flirting with each other""}","<img src=""stim_listA/flirt8.gif""style=""height:400px;""></stim_listA>",are flirting with each other,
null,"<div style=""font-size:60px;"">+</div>",,html-keyboard-response,318,1874253,0.0-17.0-0.18,80776,List1A,black,man,,,,null,,,,
null,"<img src=""stim_listA/dance1.gif""style=""height:400px;""></stim_listA>",,html-keyboard-response,319,1876254,0.0-17.0-1.18,80776,List1A,black,man,,,,null,,,,
null,is dancing with,,html-keyboard-response,320,1878256,0.0-17.0-2.18,80776,List1A,black,man,,,,null,,,,
17411,,,survey-text,321,1895668,0.0-17.0-3.18,80776,List1A,black,man,,,,,"{""Q0"":""kate is dancing with fred""}","<img src=""stim_listA/dance1.gif""style=""height:400px;""></stim_listA>",is dancing with,
null,"<div style=""font-size:60px;"">+</div>",,html-keyboard-response,322,1896170,0.0-17.0-0.19,80776,List1A,black,man,,,,null,,,,
null,"<img src=""stim_listA/talk7.gif""style=""height:400px;""></stim_listA>",,html-keyboard-response,323,1898171,0.0-17.0-1.19,80776,List1A,black,man,,,,null,,,,
null,is talking to,,html-keyboard-response,324,1900172,0.0-17.0-2.19,80776,List1A,black,man,,,,null,,,,
11966,,,survey-text,325,1912139,0.0-17.0-3.19,80776,List1A,black,man,,,,,"{""Q0"":""jane is talking to beth""}","<img src=""stim_listA/talk7.gif""style=""height:400px;""></stim_listA>",is talking to,
27076,"<img src='img/portrait_matrix_list1.jpg' style='width:900px;height:500px;''></img><p>If you have memorised all the portraits and names and are ready to start, press Continue.</p><p><strong>Please note: Your memory of these faces will be tested 4 times during this experiment.</strong></p>",0,html-button-response,326,1939215,0.0-18.0-0.0,80776,List1A,black,man,,,,,,,,
2368,"<img src=""portrait/BM2.jpg""style=""height:400px;""></img>",5,html-button-response,327,1942585,0.0-18.0-1.0,80776,List1A,black,man,,TRUE,5,,,,,
null,CORRECT,,html-keyboard-response,328,1944087,0.0-18.0-2.0-0.0,80776,List1A,black,man,,,,null,,,,
1673,"<img src=""portrait/WW2.jpg""style=""height:400px;""></img>",3,html-button-response,329,1945761,0.0-18.0-4.0,80776,List1A,black,man,,TRUE,3,,,,,
null,CORRECT,,html-keyboard-response,330,1947263,0.0-18.0-5.0-0.0,80776,List1A,black,man,,,,null,,,,
1520,"<img src=""portrait/WM2.jpg""style=""height:400px;""></img>",7,html-button-response,331,1948784,0.0-18.0-7.0,80776,List1A,black,man,,TRUE,7,,,,,
null,CORRECT,,html-keyboard-response,332,1950286,0.0-18.0-8.0-0.0,80776,List1A,black,man,,,,null,,,,
4294,"<img src=""portrait/WM1.jpg""style=""height:400px;""></img>",6,html-button-response,333,1954582,0.0-18.0-10.0,80776,List1A,black,man,,TRUE,6,,,,,
null,CORRECT,,html-keyboard-response,334,1956084,0.0-18.0-11.0-0.0,80776,List1A,black,man,,,,null,,,,
2628,"<img src=""portrait/BW1.jpg""style=""height:400px;""></img>",0,html-button-response,335,1958712,0.0-18.0-13.0,80776,List1A,black,man,,TRUE,0,,,,,
null,CORRECT,,html-keyboard-response,336,1960215,0.0-18.0-14.0-0.0,80776,List1A,black,man,,,,null,,,,
1390,"<img src=""portrait/WW1.jpg""style=""height:400px;""></img>",1,html-button-response,337,1961606,0.0-18.0-16.0,80776,List1A,black,man,,TRUE,1,,,,,
null,CORRECT,,html-keyboard-response,338,1963109,0.0-18.0-17.0-0.0,80776,List1A,black,man,,,,null,,,,
2362,"<img src=""portrait/BM1.jpg""style=""height:400px;""></img>",4,html-button-response,339,1965472,0.0-18.0-19.0,80776,List1A,black,man,,TRUE,4,,,,,
null,CORRECT,,html-keyboard-response,340,1966974,0.0-18.0-20.0-0.0,80776,List1A,black,man,,,,null,,,,
1841,"<img src=""portrait/BW2.jpg""style=""height:400px;""></img>",2,html-button-response,341,1968817,0.0-18.0-22.0,80776,List1A,black,man,,TRUE,2,,,,,
null,CORRECT,,html-keyboard-response,342,1970319,0.0-18.0-23.0-0.0,80776,List1A,black,man,,,,null,,,,
1594,<p>You got 8 out of 8 right first time. Press Continue.</p>,0,html-button-response,343,1971914,0.0-18.0-25.0,80776,List1A,black,man,,,,,,,,
null,"<div style=""font-size:60px;"">+</div>",,html-keyboard-response,344,1973416,0.0-19.0-0.0,80776,List1A,black,man,,,,null,,,,
null,"<img src=""stim_listA/kiss6.gif""style=""height:400px;""></stim_listA>",,html-keyboard-response,345,1975417,0.0-19.0-1.0,80776,List1A,black,man,,,,null,,,,
null,are kissing each other,,html-keyboard-response,346,1977419,0.0-19.0-2.0,80776,List1A,black,man,,,,null,,,,
17420,,,survey-text,347,1994840,0.0-19.0-3.0,80776,List1A,black,man,,,,,"{""Q0"":""dave and mike are kissing each other""}","<img src=""stim_listA/kiss6.gif""style=""height:400px;""></stim_listA>",are kissing each other,
null,"<div style=""font-size:60px;"">+</div>",,html-keyboard-response,348,1995340,0.0-19.0-0.1,80776,List1A,black,man,,,,null,,,,
null,"<img src=""stim_listA/marry1.gif""style=""height:400px;""></stim_listA>",,html-keyboard-response,349,1997342,0.0-19.0-1.1,80776,List1A,black,man,,,,null,,,,
null,is marrying,,html-keyboard-response,350,1999343,0.0-19.0-2.1,80776,List1A,black,man,,,,null,,,,
10469,,,survey-text,351,2009813,0.0-19.0-3.1,80776,List1A,black,man,,,,,"{""Q0"":""mike is marrying beth""}","<img src=""stim_listA/marry1.gif""style=""height:400px;""></stim_listA>",is marrying,
null,"<div style=""font-size:60px;"">+</div>",,html-keyboard-response,352,2010314,0.0-19.0-0.2,80776,List1A,black,man,,,,null,,,,
null,"<img src=""stim_listA/kiss8.gif""style=""height:400px;""></stim_listA>",,html-keyboard-response,353,2012316,0.0-19.0-1.2,80776,List1A,black,man,,,,null,,,,
null,are kissing each other,,html-keyboard-response,354,2014317,0.0-19.0-2.2,80776,List1A,black,man,,,,null,,,,
15601,,,survey-text,355,2029919,0.0-19.0-3.2,80776,List1A,black,man,,,,,"{""Q0"":""jane and kate are kissing each other""}","<img src=""stim_listA/kiss8.gif""style=""height:400px;""></stim_listA>",are kissing each other,
null,"<div style=""font-size:60px;"">+</div>",,html-keyboard-response,356,2030421,0.0-19.0-0.3,80776,List1A,black,man,,,,null,,,,
null,"<img src=""stim_listA/play1.gif""style=""height:400px;""></stim_listA>",,html-keyboard-response,357,2032422,0.0-19.0-1.3,80776,List1A,black,man,,,,null,,,,
null,is playing with,,html-keyboard-response,358,2034424,0.0-19.0-2.3,80776,List1A,black,man,,,,null,,,,
12741,,,survey-text,359,2047165,0.0-19.0-3.3,80776,List1A,black,man,,,,,"{""Q0"":""mike is playing with kate""}","<img src=""stim_listA/play1.gif""style=""height:400px;""></stim_listA>",is playing with,
null,"<div style=""font-size:60px;"">+</div>",,html-keyboard-response,360,2047666,0.0-19.0-0.4,80776,List1A,black,man,,,,null,,,,
null,"<img src=""stim_listA/argue8.gif""style=""height:400px;""></stim_listA>",,html-keyboard-response,361,2049669,0.0-19.0-1.4,80776,List1A,black,man,,,,null,,,,
null,are arguing with each other,,html-keyboard-response,362,2051671,0.0-19.0-2.4,80776,List1A,black,man,,,,null,,,,
19380,,,survey-text,363,2071052,0.0-19.0-3.4,80776,List1A,black,man,,,,,"{""Q0"":""jane and beth are arguing with each other""}","<img src=""stim_listA/argue8.gif""style=""height:400px;""></stim_listA>",are arguing with each other,
null,"<div style=""font-size:60px;"">+</div>",,html-keyboard-response,364,2071554,0.0-19.0-0.5,80776,List1A,black,man,,,,null,,,,
null,"<img src=""stim_listA/dance4.gif""style=""height:400px;""></stim_listA>",,html-keyboard-response,365,2073556,0.0-19.0-1.5,80776,List1A,black,man,,,,null,,,,
null,are dancing with each other,,html-keyboard-response,366,2075557,0.0-19.0-2.5,80776,List1A,black,man,,,,null,,,,
20155,,,survey-text,367,2095713,0.0-19.0-3.5,80776,List1A,black,man,,,,,"{""Q0"":""ruth and dave are dancing with each other""}","<img src=""stim_listA/dance4.gif""style=""height:400px;""></stim_listA>",are dancing with each other,
null,"<div style=""font-size:60px;"">+</div>",,html-keyboard-response,368,2096215,0.0-19.0-0.6,80776,List1A,black,man,,,,null,,,,
null,"<img src=""stim_listA/fight4.gif""style=""height:400px;""></stim_listA>",,html-keyboard-response,369,2098217,0.0-19.0-1.6,80776,List1A,black,man,,,,null,,,,
null,are fighting each other,,html-keyboard-response,370,2100218,0.0-19.0-2.6,80776,List1A,black,man,,,,null,,,,
18839,,,survey-text,371,2119057,0.0-19.0-3.6,80776,List1A,black,man,,,,,"{""Q0"":""luke and ruth are fighting each other""}","<img src=""stim_listA/fight4.gif""style=""height:400px;""></stim_listA>",are fighting each other,
null,"<div style=""font-size:60px;"">+</div>",,html-keyboard-response,372,2119558,0.0-19.0-0.7,80776,List1A,black,man,,,,null,,,,
null,"<img src=""stim_listA/dance6.gif""style=""height:400px;""></stim_listA>",,html-keyboard-response,373,2121559,0.0-19.0-1.7,80776,List1A,black,man,,,,null,,,,
null,are dancing with each other,,html-keyboard-response,374,2123561,0.0-19.0-2.7,80776,List1A,black,man,,,,null,,,,
20321,,,survey-text,375,2143883,0.0-19.0-3.7,80776,List1A,black,man,,,,,"{""Q0"":""mike and luke are dancing with each  other""}","<img src=""stim_listA/dance6.gif""style=""height:400px;""></stim_listA>",are dancing with each other,
null,"<div style=""font-size:60px;"">+</div>",,html-keyboard-response,376,2144384,0.0-19.0-0.8,80776,List1A,black,man,,,,null,,,,
null,"<img src=""stim_listA/shout7.gif""style=""height:400px;""></stim_listA>",,html-keyboard-response,377,2146385,0.0-19.0-1.8,80776,List1A,black,man,,,,null,,,,
null,is shouting at,,html-keyboard-response,378,2148387,0.0-19.0-2.8,80776,List1A,black,man,,,,null,,,,
11297,,,survey-text,379,2159684,0.0-19.0-3.8,80776,List1A,black,man,,,,,"{""Q0"":""beth is shouting at ruth""}","<img src=""stim_listA/shout7.gif""style=""height:400px;""></stim_listA>",is shouting at,
null,"<div style=""font-size:60px;"">+</div>",,html-keyboard-response,380,2160185,0.0-19.0-0.9,80776,List1A,black,man,,,,null,,,,
null,"<img src=""stim_listA/play2.gif""style=""height:400px;""></stim_listA>",,html-keyboard-response,381,2162187,0.0-19.0-1.9,80776,List1A,black,man,,,,null,,,,
null,are playing with each other,,html-keyboard-response,382,2164188,0.0-19.0-2.9,80776,List1A,black,man,,,,null,,,,
18356,,,survey-text,383,2182545,0.0-19.0-3.9,80776,List1A,black,man,,,,,"{""Q0"":""beth and fred are playing with each other""}","<img src=""stim_listA/play2.gif""style=""height:400px;""></stim_listA>",are playing with each other,
null,"<div style=""font-size:60px;"">+</div>",,html-keyboard-response,384,2183046,0.0-19.0-0.10,80776,List1A,black,man,,,,null,,,,
null,"<img src=""stim_listA/fight8.gif""style=""height:400px;""></stim_listA>",,html-keyboard-response,385,2185047,0.0-19.0-1.10,80776,List1A,black,man,,,,null,,,,
null,are fighting each other,,html-keyboard-response,386,2187048,0.0-19.0-2.10,80776,List1A,black,man,,,,null,,,,
17036,,,survey-text,387,2204085,0.0-19.0-3.10,80776,List1A,black,man,,,,,"{""Q0"":""ruth and beth are fighting each other""}","<img src=""stim_listA/fight8.gif""style=""height:400px;""></stim_listA>",are fighting each other,
null,"<div style=""font-size:60px;"">+</div>",,html-keyboard-response,388,2204586,0.0-19.0-0.11,80776,List1A,black,man,,,,null,,,,
null,"<img src=""stim_listA/marry4.gif""style=""height:400px;""></stim_listA>",,html-keyboard-response,389,2206587,0.0-19.0-1.11,80776,List1A,black,man,,,,null,,,,
null,are marrying each other,,html-keyboard-response,390,2208588,0.0-19.0-2.11,80776,List1A,black,man,,,,null,,,,
18439,,,survey-text,391,2227028,0.0-19.0-3.11,80776,List1A,black,man,,,,,"{""Q0"":""jane and luke are marrying each other""}","<img src=""stim_listA/marry4.gif""style=""height:400px;""></stim_listA>",are marrying each other,
null,"<div style=""font-size:60px;"">+</div>",,html-keyboard-response,392,2227529,0.0-19.0-0.12,80776,List1A,black,man,,,,null,,,,
null,"<img src=""stim_listA/dance7.gif""style=""height:400px;""></stim_listA>",,html-keyboard-response,393,2229530,0.0-19.0-1.12,80776,List1A,black,man,,,,null,,,,
null,is dancing with,,html-keyboard-response,394,2231532,0.0-19.0-2.12,80776,List1A,black,man,,,,null,,,,
12509,,,survey-text,395,2244042,0.0-19.0-3.12,80776,List1A,black,man,,,,,"{""Q0"":""jane is dancing with beth""}","<img src=""stim_listA/dance7.gif""style=""height:400px;""></stim_listA>",is dancing with,
null,"<div style=""font-size:60px;"">+</div>",,html-keyboard-response,396,2244542,0.0-19.0-0.13,80776,List1A,black,man,,,,null,,,,
null,"<img src=""stim_listA/touch5.gif""style=""height:400px;""></stim_listA>",,html-keyboard-response,397,2246545,0.0-19.0-1.13,80776,List1A,black,man,,,,null,,,,
null,is touching,,html-keyboard-response,398,2248546,0.0-19.0-2.13,80776,List1A,black,man,,,,null,,,,
10004,,,survey-text,399,2258550,0.0-19.0-3.13,80776,List1A,black,man,,,,,"{""Q0"":""mike is touching dave""}","<img src=""stim_listA/touch5.gif""style=""height:400px;""></stim_listA>",is touching,
null,"<div style=""font-size:60px;"">+</div>",,html-keyboard-response,400,2259051,0.0-19.0-0.14,80776,List1A,black,man,,,,null,,,,
null,"<img src=""stim_listA/fight5.gif""style=""height:400px;""></stim_listA>",,html-keyboard-response,401,2261052,0.0-19.0-1.14,80776,List1A,black,man,,,,null,,,,
null,is fighting,,html-keyboard-response,402,2263054,0.0-19.0-2.14,80776,List1A,black,man,,,,null,,,,
9795,,,survey-text,403,2272850,0.0-19.0-3.14,80776,List1A,black,man,,,,,"{""Q0"":""mike is fighting dave""}","<img src=""stim_listA/fight5.gif""style=""height:400px;""></stim_listA>",is fighting,
null,"<div style=""font-size:60px;"">+</div>",,html-keyboard-response,404,2273351,0.0-19.0-0.15,80776,List1A,black,man,,,,null,,,,
null,"<img src=""stim_listA/dance2.gif""style=""height:400px;""></stim_listA>",,html-keyboard-response,405,2275353,0.0-19.0-1.15,80776,List1A,black,man,,,,null,,,,
null,are dancing with each other,,html-keyboard-response,406,2277355,0.0-19.0-2.15,80776,List1A,black,man,,,,null,,,,
16622,,,survey-text,407,2293977,0.0-19.0-3.15,80776,List1A,black,man,,,,,"{""Q0"":""mike and beth are dancing with each other""}","<img src=""stim_listA/dance2.gif""style=""height:400px;""></stim_listA>",are dancing with each other,
null,"<div style=""font-size:60px;"">+</div>",,html-keyboard-response,408,2294478,0.0-19.0-0.16,80776,List1A,black,man,,,,null,,,,
null,"<img src=""stim_listA/touch8.gif""style=""height:400px;""></stim_listA>",,html-keyboard-response,409,2296479,0.0-19.0-1.16,80776,List1A,black,man,,,,null,,,,
null,are touching each other,,html-keyboard-response,410,2298481,0.0-19.0-2.16,80776,List1A,black,man,,,,null,,,,
16355,,,survey-text,411,2314837,0.0-19.0-3.16,80776,List1A,black,man,,,,,"{""Q0"":""ruth and beth are touching each other""}","<img src=""stim_listA/touch8.gif""style=""height:400px;""></stim_listA>",are touching each other,
null,"<div style=""font-size:60px;"">+</div>",,html-keyboard-response,412,2315338,0.0-19.0-0.17,80776,List1A,black,man,,,,null,,,,
null,"<img src=""stim_listA/touch4.gif""style=""height:400px;""></stim_listA>",,html-keyboard-response,413,2317339,0.0-19.0-1.17,80776,List1A,black,man,,,,null,,,,
null,are touching each other,,html-keyboard-response,414,2319341,0.0-19.0-2.17,80776,List1A,black,man,,,,null,,,,
16532,,,survey-text,415,2335873,0.0-19.0-3.17,80776,List1A,black,man,,,,,"{""Q0"":""luke and ruth are touching each other""}","<img src=""stim_listA/touch4.gif""style=""height:400px;""></stim_listA>",are touching each other,
null,"<div style=""font-size:60px;"">+</div>",,html-keyboard-response,416,2336374,0.0-19.0-0.18,80776,List1A,black,man,,,,null,,,,
null,"<img src=""stim_listA/argue5.gif""style=""height:400px;""></stim_listA>",,html-keyboard-response,417,2338375,0.0-19.0-1.18,80776,List1A,black,man,,,,null,,,,
null,is arguing with,,html-keyboard-response,418,2340377,0.0-19.0-2.18,80776,List1A,black,man,,,,null,,,,
12343,,,survey-text,419,2352720,0.0-19.0-3.18,80776,List1A,black,man,,,,,"{""Q0"":""mike is arguing with luke""}","<img src=""stim_listA/argue5.gif""style=""height:400px;""></stim_listA>",is arguing with,
null,"<div style=""font-size:60px;"">+</div>",,html-keyboard-response,420,2353222,0.0-19.0-0.19,80776,List1A,black,man,,,,null,,,,
null,"<img src=""stim_listA/flirt3.gif""style=""height:400px;""></stim_listA>",,html-keyboard-response,421,2355223,0.0-19.0-1.19,80776,List1A,black,man,,,,null,,,,
null,is flirting with,,html-keyboard-response,422,2357226,0.0-19.0-2.19,80776,List1A,black,man,,,,null,,,,
14445,,,survey-text,423,2371671,0.0-19.0-3.19,80776,List1A,black,man,,,,,"{""Q0"":""luke is flirting with jane""}","<img src=""stim_listA/flirt3.gif""style=""height:400px;""></stim_listA>",is flirting with,
2327,<p>Thank you for completing that task.</p><p>The final part of this session is a short questionnaire.</p><p>Press Continue.</p>,0,html-button-response,424,2373999,0.0-20.0,80776,List1A,black,man,,,,,,,,
36364,,,survey-text,425,2411364,0.0-21.0,80776,List1A,black,man,,,,,"{""Q0"":""35"",""Q1"":""english"",""Q2"":""english"",""Q3"":""usa"",""Q4"":""black"",""Q5"":""male""}",,,demographics
10289,,,survey-likert,426,2421658,0.0-22.0,80776,List1A,black,man,,,,,"{""Q0"":4}",,,likert_ESS
7147,,,survey-likert,427,2428807,0.0-23.0,80776,List1A,black,man,,,,,"{""Q0"":4}",,,likert_NSSAL_Q1
7992,,,survey-likert,428,2436801,0.0-24.0,80776,List1A,black,man,,,,,"{""Q0"":4}",,,likert_NSSAL_Q2
6841,,,survey-likert,429,2443644,0.0-25.0,80776,List1A,black,man,,,,,"{""Q0"":4}",,,likert_CGRS_Q1
4347,,,survey-likert,430,2447993,0.0-26.0,80776,List1A,black,man,,,,,"{""Q0"":4}",,,likert_CGRS_Q2
3439,,,survey-likert,431,2451434,0.0-27.0,80776,List1A,black,man,,,,,"{""Q0"":4}",,,likert_CGRS_Q3
22339,,,survey-text,432,2473775,0.0-28.0,80776,List1A,black,man,,,,,"{""Q0"":""ccc""}",,,worker_id
2608,,,external-html,433,2476618,0.0-29.0,80776,List1A,black,man,debrief.html,,,,,,,
