rt,stimulus,button_pressed,trial_type,trial_index,time_elapsed,internal_node_id,subject,list,ppt_race,ppt_gender,url,first_guess,correct,key_press,responses,image_type,phrase_type,test_part
2299,Welcome to the experiment. Press Continue to begin.,0,html-button-response,0,2307,0.0-0.0,81840,List1A,white,woman,,,,,,,,
34203,,,external-html,1,38544,0.0-1.0,81840,List1A,white,woman,consent.html,,,,,,,
10744,"<p>On the next page, you will see portraits of 8 people and their names.</p><p>Your first task is to take a few minutes to memorise the names of these people.</p><p>You will have to recall their names during the rest of the experiment, so it is</p><p>essential that you try to memorise these people and their names as best as you can.</p><br><p><strong>You will then be tested on your memory of these names and portraits.</strong></p><br><p>The experiment will start after you have completed this memory test.</p><br><p>Ready?</p>",0,html-button-response,2,49298,0.0-2.0,81840,List1A,white,woman,,,,,,,,
101155,"<img src='img/portrait_matrix_list1.jpg' style='width:900px;height:500px;''></img><p>If you have memorised all the portraits and names and are ready to start, press Continue.</p><p><strong>Please note: Your memory of these faces will be tested 4 times during this experiment.</strong></p>",0,html-button-response,3,151457,0.0-3.0-0.0,81840,List1A,white,woman,,,,,,,,
6544,"<img src=""portrait/BM2.jpg""style=""height:400px;""></img>",7,html-button-response,4,159008,0.0-3.0-1.0,81840,List1A,white,woman,,TRUE,5,,,,,
4104,"<img src=""portrait/BM2.jpg""style=""height:400px;""></img>",5,html-button-response,5,164120,0.0-3.0-3.0-0.0,81840,List1A,white,woman,,FALSE,5,,,,,
null,CORRECT,,html-keyboard-response,6,165631,0.0-3.0-3.0-1.0-0.0,81840,List1A,white,woman,,,,null,,,,
3089,"<img src=""portrait/WW1.jpg""style=""height:400px;""></img>",1,html-button-response,7,168725,0.0-3.0-4.0,81840,List1A,white,woman,,TRUE,1,,,,,
null,CORRECT,,html-keyboard-response,8,170230,0.0-3.0-5.0-0.0,81840,List1A,white,woman,,,,null,,,,
10505,"<img src=""portrait/WW2.jpg""style=""height:400px;""></img>",3,html-button-response,9,180740,0.0-3.0-7.0,81840,List1A,white,woman,,TRUE,3,,,,,
null,CORRECT,,html-keyboard-response,10,182244,0.0-3.0-8.0-0.0,81840,List1A,white,woman,,,,null,,,,
8778,"<img src=""portrait/BW2.jpg""style=""height:400px;""></img>",2,html-button-response,11,191028,0.0-3.0-10.0,81840,List1A,white,woman,,TRUE,2,,,,,
null,CORRECT,,html-keyboard-response,12,192531,0.0-3.0-11.0-0.0,81840,List1A,white,woman,,,,null,,,,
3550,"<img src=""portrait/BW1.jpg""style=""height:400px;""></img>",0,html-button-response,13,196087,0.0-3.0-13.0,81840,List1A,white,woman,,TRUE,0,,,,,
null,CORRECT,,html-keyboard-response,14,197591,0.0-3.0-14.0-0.0,81840,List1A,white,woman,,,,null,,,,
5469,"<img src=""portrait/WM2.jpg""style=""height:400px;""></img>",5,html-button-response,15,203065,0.0-3.0-16.0,81840,List1A,white,woman,,TRUE,7,,,,,
1699,"<img src=""portrait/WM2.jpg""style=""height:400px;""></img>",7,html-button-response,16,205770,0.0-3.0-18.0-0.0,81840,List1A,white,woman,,FALSE,7,,,,,
null,CORRECT,,html-keyboard-response,17,207274,0.0-3.0-18.0-1.0-0.0,81840,List1A,white,woman,,,,null,,,,
9081,"<img src=""portrait/BM1.jpg""style=""height:400px;""></img>",4,html-button-response,18,216360,0.0-3.0-19.0,81840,List1A,white,woman,,TRUE,4,,,,,
null,CORRECT,,html-keyboard-response,19,217864,0.0-3.0-20.0-0.0,81840,List1A,white,woman,,,,null,,,,
2005,"<img src=""portrait/WM1.jpg""style=""height:400px;""></img>",6,html-button-response,20,219874,0.0-3.0-22.0,81840,List1A,white,woman,,TRUE,6,,,,,
null,CORRECT,,html-keyboard-response,21,221379,0.0-3.0-23.0-0.0,81840,List1A,white,woman,,,,null,,,,
1505,<p>You got 6 out of 8 right first time. Press Continue.</p>,0,html-button-response,22,222888,0.0-3.0-25.0,81840,List1A,white,woman,,,,,,,,
2805,"As you did not score 100%, the memory game will repeat. Press Continue.",0,html-button-response,23,226696,0.0-3.0-26.0-0.0,81840,List1A,white,woman,,,,,,,,
6819,"<img src='img/portrait_matrix_list1.jpg' style='width:900px;height:500px;''></img><p>If you have memorised all the portraits and names and are ready to start, press Continue.</p><p><strong>Please note: Your memory of these faces will be tested 4 times during this experiment.</strong></p>",0,html-button-response,24,234530,0.0-3.1-0.1,81840,List1A,white,woman,,,,,,,,
3020,"<img src=""portrait/BM2.jpg""style=""height:400px;""></img>",5,html-button-response,25,238566,0.0-3.1-1.1,81840,List1A,white,woman,,TRUE,5,,,,,
null,CORRECT,,html-keyboard-response,26,240073,0.0-3.1-2.1-0.1,81840,List1A,white,woman,,,,null,,,,
1978,"<img src=""portrait/WW1.jpg""style=""height:400px;""></img>",1,html-button-response,27,242055,0.0-3.1-4.1,81840,List1A,white,woman,,TRUE,1,,,,,
null,CORRECT,,html-keyboard-response,28,243562,0.0-3.1-5.1-0.1,81840,List1A,white,woman,,,,null,,,,
5610,"<img src=""portrait/WW2.jpg""style=""height:400px;""></img>",3,html-button-response,29,249177,0.0-3.1-7.1,81840,List1A,white,woman,,TRUE,3,,,,,
null,CORRECT,,html-keyboard-response,30,250681,0.0-3.1-8.1-0.1,81840,List1A,white,woman,,,,null,,,,
2893,"<img src=""portrait/BW2.jpg""style=""height:400px;""></img>",2,html-button-response,31,253579,0.0-3.1-10.1,81840,List1A,white,woman,,TRUE,2,,,,,
null,CORRECT,,html-keyboard-response,32,255083,0.0-3.1-11.1-0.1,81840,List1A,white,woman,,,,null,,,,
5641,"<img src=""portrait/BW1.jpg""style=""height:400px;""></img>",0,html-button-response,33,260729,0.0-3.1-13.1,81840,List1A,white,woman,,TRUE,0,,,,,
null,CORRECT,,html-keyboard-response,34,262232,0.0-3.1-14.1-0.1,81840,List1A,white,woman,,,,null,,,,
3325,"<img src=""portrait/WM2.jpg""style=""height:400px;""></img>",7,html-button-response,35,265559,0.0-3.1-16.1,81840,List1A,white,woman,,TRUE,7,,,,,
null,CORRECT,,html-keyboard-response,36,267062,0.0-3.1-17.1-0.1,81840,List1A,white,woman,,,,null,,,,
3889,"<img src=""portrait/BM1.jpg""style=""height:400px;""></img>",4,html-button-response,37,270958,0.0-3.1-19.1,81840,List1A,white,woman,,TRUE,4,,,,,
null,CORRECT,,html-keyboard-response,38,272462,0.0-3.1-20.1-0.1,81840,List1A,white,woman,,,,null,,,,
3696,"<img src=""portrait/WM1.jpg""style=""height:400px;""></img>",6,html-button-response,39,276161,0.0-3.1-22.1,81840,List1A,white,woman,,TRUE,6,,,,,
null,CORRECT,,html-keyboard-response,40,277666,0.0-3.1-23.1-0.1,81840,List1A,white,woman,,,,null,,,,
2122,<p>You got 8 out of 8 right first time. Press Continue.</p>,0,html-button-response,41,279795,0.0-3.1-25.1,81840,List1A,white,woman,,,,,,,,
60465,"<p>In this experiment, you will view photographs of the people from the memory game interacting.</p><p>By using the <strong>exact</strong> phrase given <i>after</i> the photograph appears and recalling the correct names of the people in the photographs, form a sentence describing the interaction. You do not need to capitalise names.</p><p>Type your answer in the space provided. Please complete every sentence before moving onto the next trial.</p><p>You will only have a few seconds to memorise each given photograph and phrase before you can respond, so try your best to focus.</p><p>An example is given below. Press 'Continue' when you are ready.</p><img src='img/speaking_example.jpg' style='width:800px;height:460px;''></img>",0,html-button-response,42,341265,0.0-4.0,81840,List1A,white,woman,,,,,,,,
2966,"<p>Before the experiment starts, you will watch two example trials. Press 'Continue'.</p>",0,html-button-response,43,345234,0.0-5.0,81840,List1A,white,woman,,,,,,,,
null,<img src='img/meet_eg.gif' style='height:400px;''></img>,,html-keyboard-response,44,348239,0.0-6.0,81840,List1A,white,woman,,,,null,,,,
null,<p>is meeting</p>,,html-keyboard-response,45,350241,0.0-7.0,81840,List1A,white,woman,,,,null,,,,
3301,<p><b>Answer:</b> kate is meeting beth</p>,0,html-button-response,46,353546,0.0-8.0,81840,List1A,white,woman,,,,,,,,
null,<img src='img/look_eg.gif' style='height:400px;''></img>,,html-keyboard-response,47,356550,0.0-9.0,81840,List1A,white,woman,,,,null,,,,
null,<p>are looking at each other</p>,,html-keyboard-response,48,358554,0.0-10.0,81840,List1A,white,woman,,,,null,,,,
6978,<p><b>Answer:</b> luke and dave are looking at each other</p>,0,html-button-response,49,365535,0.0-11.0,81840,List1A,white,woman,,,,,,,,
12304,"<p>Ready to start the experiment?</p><br><p><strong>Remember to describe the picture using a full sentence,</strong></p><p><strong>that combines the names of the people with the <i>exact</i> phrase given.</strong></p><p><strong>To receive full payment you must do this correctly.</strong></p><p><strong> You do not need to capitalise names or use punctuation.</strong></p><br><p>Press 'Continue' to begin.</p>",0,html-button-response,50,378842,0.0-12.0,81840,List1A,white,woman,,,,,,,,
null,"<div style=""font-size:60px;"">+</div>",,html-keyboard-response,51,380346,0.0-13.0-0.0,81840,List1A,white,woman,,,,null,,,,
null,"<img src=""stim_listA/marry8.gif""style=""height:400px;""></stim_listA>",,html-keyboard-response,52,382358,0.0-13.0-1.0,81840,List1A,white,woman,,,,null,,,,
null,are marrying each other,,html-keyboard-response,53,384361,0.0-13.0-2.0,81840,List1A,white,woman,,,,null,,,,
12800,,,survey-text,54,397175,0.0-13.0-3.0,81840,List1A,white,woman,,,,,"{""Q0"":""Beth and Jane are marrying each other ""}","<img src=""stim_listA/marry8.gif""style=""height:400px;""></stim_listA>",are marrying each other,
null,"<div style=""font-size:60px;"">+</div>",,html-keyboard-response,55,397685,0.0-13.0-0.1,81840,List1A,white,woman,,,,null,,,,
null,"<img src=""stim_listA/fight8.gif""style=""height:400px;""></stim_listA>",,html-keyboard-response,56,399689,0.0-13.0-1.1,81840,List1A,white,woman,,,,null,,,,
null,are fighting each other,,html-keyboard-response,57,401693,0.0-13.0-2.1,81840,List1A,white,woman,,,,null,,,,
13348,,,survey-text,58,415045,0.0-13.0-3.1,81840,List1A,white,woman,,,,,"{""Q0"":""Beth and Ruth are fighting each other ""}","<img src=""stim_listA/fight8.gif""style=""height:400px;""></stim_listA>",are fighting each other,
null,"<div style=""font-size:60px;"">+</div>",,html-keyboard-response,59,415550,0.0-13.0-0.2,81840,List1A,white,woman,,,,null,,,,
null,"<img src=""stim_listA/kiss5.gif""style=""height:400px;""></stim_listA>",,html-keyboard-response,60,417556,0.0-13.0-1.2,81840,List1A,white,woman,,,,null,,,,
null,is kissing,,html-keyboard-response,61,419560,0.0-13.0-2.2,81840,List1A,white,woman,,,,null,,,,
9821,,,survey-text,62,429382,0.0-13.0-3.2,81840,List1A,white,woman,,,,,"{""Q0"":""Luke is kissing fred""}","<img src=""stim_listA/kiss5.gif""style=""height:400px;""></stim_listA>",is kissing,
null,"<div style=""font-size:60px;"">+</div>",,html-keyboard-response,63,429886,0.0-13.0-0.3,81840,List1A,white,woman,,,,null,,,,
null,"<img src=""stim_listA/flirt7.gif""style=""height:400px;""></stim_listA>",,html-keyboard-response,64,431890,0.0-13.0-1.3,81840,List1A,white,woman,,,,null,,,,
null,is flirting with,,html-keyboard-response,65,433895,0.0-13.0-2.3,81840,List1A,white,woman,,,,null,,,,
7681,,,survey-text,66,441579,0.0-13.0-3.3,81840,List1A,white,woman,,,,,"{""Q0"":""Jane is flirting with Beth ""}","<img src=""stim_listA/flirt7.gif""style=""height:400px;""></stim_listA>",is flirting with,
null,"<div style=""font-size:60px;"">+</div>",,html-keyboard-response,67,442083,0.0-13.0-0.4,81840,List1A,white,woman,,,,null,,,,
null,"<img src=""stim_listA/touch8.gif""style=""height:400px;""></stim_listA>",,html-keyboard-response,68,444087,0.0-13.0-1.4,81840,List1A,white,woman,,,,null,,,,
null,are touching each other,,html-keyboard-response,69,446091,0.0-13.0-2.4,81840,List1A,white,woman,,,,null,,,,
12925,,,survey-text,70,459020,0.0-13.0-3.4,81840,List1A,white,woman,,,,,"{""Q0"":""Ruth and Beth are touching each other ""}","<img src=""stim_listA/touch8.gif""style=""height:400px;""></stim_listA>",are touching each other,
null,"<div style=""font-size:60px;"">+</div>",,html-keyboard-response,71,459524,0.0-13.0-0.5,81840,List1A,white,woman,,,,null,,,,
null,"<img src=""stim_listA/argue7.gif""style=""height:400px;""></stim_listA>",,html-keyboard-response,72,461528,0.0-13.0-1.5,81840,List1A,white,woman,,,,null,,,,
null,is arguing with,,html-keyboard-response,73,463532,0.0-13.0-2.5,81840,List1A,white,woman,,,,null,,,,
14507,,,survey-text,74,478042,0.0-13.0-3.5,81840,List1A,white,woman,,,,,"{""Q0"":""Kate and Ruth ...""}","<img src=""stim_listA/argue7.gif""style=""height:400px;""></stim_listA>",is arguing with,
null,"<div style=""font-size:60px;"">+</div>",,html-keyboard-response,75,478545,0.0-13.0-0.6,81840,List1A,white,woman,,,,null,,,,
null,"<img src=""stim_listA/play3.gif""style=""height:400px;""></stim_listA>",,html-keyboard-response,76,480549,0.0-13.0-1.6,81840,List1A,white,woman,,,,null,,,,
null,is playing with,,html-keyboard-response,77,482553,0.0-13.0-2.6,81840,List1A,white,woman,,,,null,,,,
8720,,,survey-text,78,491276,0.0-13.0-3.6,81840,List1A,white,woman,,,,,"{""Q0"":""Jane is playing with Dave ""}","<img src=""stim_listA/play3.gif""style=""height:400px;""></stim_listA>",is playing with,
null,"<div style=""font-size:60px;"">+</div>",,html-keyboard-response,79,491779,0.0-13.0-0.7,81840,List1A,white,woman,,,,null,,,,
null,"<img src=""stim_listA/touch4.gif""style=""height:400px;""></stim_listA>",,html-keyboard-response,80,493782,0.0-13.0-1.7,81840,List1A,white,woman,,,,null,,,,
null,are touching each other,,html-keyboard-response,81,495787,0.0-13.0-2.7,81840,List1A,white,woman,,,,null,,,,
11452,,,survey-text,82,507244,0.0-13.0-3.7,81840,List1A,white,woman,,,,,"{""Q0"":""Luke and Ruth are touching each other ""}","<img src=""stim_listA/touch4.gif""style=""height:400px;""></stim_listA>",are touching each other,
null,"<div style=""font-size:60px;"">+</div>",,html-keyboard-response,83,507747,0.0-13.0-0.8,81840,List1A,white,woman,,,,null,,,,
null,"<img src=""stim_listA/kiss6.gif""style=""height:400px;""></stim_listA>",,html-keyboard-response,84,509750,0.0-13.0-1.8,81840,List1A,white,woman,,,,null,,,,
null,are kissing each other,,html-keyboard-response,85,511754,0.0-13.0-2.8,81840,List1A,white,woman,,,,null,,,,
17883,,,survey-text,86,529642,0.0-13.0-3.8,81840,List1A,white,woman,,,,,"{""Q0"":""Fred and mike...""}","<img src=""stim_listA/kiss6.gif""style=""height:400px;""></stim_listA>",are kissing each other,
null,"<div style=""font-size:60px;"">+</div>",,html-keyboard-response,87,530146,0.0-13.0-0.9,81840,List1A,white,woman,,,,null,,,,
null,"<img src=""stim_listA/flirt4.gif""style=""height:400px;""></stim_listA>",,html-keyboard-response,88,532149,0.0-13.0-1.9,81840,List1A,white,woman,,,,null,,,,
null,are flirting with each other,,html-keyboard-response,89,534154,0.0-13.0-2.9,81840,List1A,white,woman,,,,null,,,,
20231,,,survey-text,90,554389,0.0-13.0-3.9,81840,List1A,white,woman,,,,,"{""Q0"":""Dave and Ruth are flirting with each other ""}","<img src=""stim_listA/flirt4.gif""style=""height:400px;""></stim_listA>",are flirting with each other,
null,"<div style=""font-size:60px;"">+</div>",,html-keyboard-response,91,554892,0.0-13.0-0.10,81840,List1A,white,woman,,,,null,,,,
null,"<img src=""stim_listA/talk6.gif""style=""height:400px;""></stim_listA>",,html-keyboard-response,92,556897,0.0-13.0-1.10,81840,List1A,white,woman,,,,null,,,,
null,are talking to each other,,html-keyboard-response,93,558900,0.0-13.0-2.10,81840,List1A,white,woman,,,,null,,,,
12112,,,survey-text,94,571016,0.0-13.0-3.10,81840,List1A,white,woman,,,,,"{""Q0"":""Mike and Luke are talking to each other ""}","<img src=""stim_listA/talk6.gif""style=""height:400px;""></stim_listA>",are talking to each other,
null,"<div style=""font-size:60px;"">+</div>",,html-keyboard-response,95,571519,0.0-13.0-0.11,81840,List1A,white,woman,,,,null,,,,
null,"<img src=""stim_listA/argue8.gif""style=""height:400px;""></stim_listA>",,html-keyboard-response,96,573523,0.0-13.0-1.11,81840,List1A,white,woman,,,,null,,,,
null,are arguing with each other,,html-keyboard-response,97,575526,0.0-13.0-2.11,81840,List1A,white,woman,,,,null,,,,
14350,,,survey-text,98,589880,0.0-13.0-3.11,81840,List1A,white,woman,,,,,"{""Q0"":""Beth and Jane are arguing with each other ""}","<img src=""stim_listA/argue8.gif""style=""height:400px;""></stim_listA>",are arguing with each other,
null,"<div style=""font-size:60px;"">+</div>",,html-keyboard-response,99,590384,0.0-13.0-0.12,81840,List1A,white,woman,,,,null,,,,
null,"<img src=""stim_listA/touch7.gif""style=""height:400px;""></stim_listA>",,html-keyboard-response,100,592388,0.0-13.0-1.12,81840,List1A,white,woman,,,,null,,,,
null,is touching,,html-keyboard-response,101,594392,0.0-13.0-2.12,81840,List1A,white,woman,,,,null,,,,
14581,,,survey-text,102,608977,0.0-13.0-3.12,81840,List1A,white,woman,,,,,"{""Q0"":""Kate is touching Jane""}","<img src=""stim_listA/touch7.gif""style=""height:400px;""></stim_listA>",is touching,
null,"<div style=""font-size:60px;"">+</div>",,html-keyboard-response,103,609480,0.0-13.0-0.13,81840,List1A,white,woman,,,,null,,,,
null,"<img src=""stim_listA/kiss1.gif""style=""height:400px;""></stim_listA>",,html-keyboard-response,104,611484,0.0-13.0-1.13,81840,List1A,white,woman,,,,null,,,,
null,is kissing,,html-keyboard-response,105,613488,0.0-13.0-2.13,81840,List1A,white,woman,,,,null,,,,
10013,,,survey-text,106,623504,0.0-13.0-3.13,81840,List1A,white,woman,,,,,"{""Q0"":""Beth is kissing Fred ""}","<img src=""stim_listA/kiss1.gif""style=""height:400px;""></stim_listA>",is kissing,
null,"<div style=""font-size:60px;"">+</div>",,html-keyboard-response,107,624008,0.0-13.0-0.14,81840,List1A,white,woman,,,,null,,,,
null,"<img src=""stim_listA/marry2.gif""style=""height:400px;""></stim_listA>",,html-keyboard-response,108,626011,0.0-13.0-1.14,81840,List1A,white,woman,,,,null,,,,
null,are marrying each other,,html-keyboard-response,109,628016,0.0-13.0-2.14,81840,List1A,white,woman,,,,null,,,,
18530,,,survey-text,110,646549,0.0-13.0-3.14,81840,List1A,white,woman,,,,,"{""Q0"":""Mike is marrying Kate""}","<img src=""stim_listA/marry2.gif""style=""height:400px;""></stim_listA>",are marrying each other,
null,"<div style=""font-size:60px;"">+</div>",,html-keyboard-response,111,647053,0.0-13.0-0.15,81840,List1A,white,woman,,,,null,,,,
null,"<img src=""stim_listA/dance6.gif""style=""height:400px;""></stim_listA>",,html-keyboard-response,112,649057,0.0-13.0-1.15,81840,List1A,white,woman,,,,null,,,,
null,are dancing with each other,,html-keyboard-response,113,651062,0.0-13.0-2.15,81840,List1A,white,woman,,,,null,,,,
12925,,,survey-text,114,663990,0.0-13.0-3.15,81840,List1A,white,woman,,,,,"{""Q0"":""Mike and Luke are dancing with each other ""}","<img src=""stim_listA/dance6.gif""style=""height:400px;""></stim_listA>",are dancing with each other,
null,"<div style=""font-size:60px;"">+</div>",,html-keyboard-response,115,664492,0.0-13.0-0.16,81840,List1A,white,woman,,,,null,,,,
null,"<img src=""stim_listA/kiss7.gif""style=""height:400px;""></stim_listA>",,html-keyboard-response,116,666497,0.0-13.0-1.16,81840,List1A,white,woman,,,,null,,,,
null,is kissing,,html-keyboard-response,117,668501,0.0-13.0-2.16,81840,List1A,white,woman,,,,null,,,,
6195,,,survey-text,118,674699,0.0-13.0-3.16,81840,List1A,white,woman,,,,,"{""Q0"":""Ruth is kissing Beth ""}","<img src=""stim_listA/kiss7.gif""style=""height:400px;""></stim_listA>",is kissing,
null,"<div style=""font-size:60px;"">+</div>",,html-keyboard-response,119,675203,0.0-13.0-0.17,81840,List1A,white,woman,,,,null,,,,
null,"<img src=""stim_listA/dance2.gif""style=""height:400px;""></stim_listA>",,html-keyboard-response,120,677206,0.0-13.0-1.17,81840,List1A,white,woman,,,,null,,,,
null,are dancing with each other,,html-keyboard-response,121,679211,0.0-13.0-2.17,81840,List1A,white,woman,,,,null,,,,
16585,,,survey-text,122,695800,0.0-13.0-3.17,81840,List1A,white,woman,,,,,"{""Q0"":""Beth is dancing with mike""}","<img src=""stim_listA/dance2.gif""style=""height:400px;""></stim_listA>",are dancing with each other,
null,"<div style=""font-size:60px;"">+</div>",,html-keyboard-response,123,696303,0.0-13.0-0.18,81840,List1A,white,woman,,,,null,,,,
null,"<img src=""stim_listA/dance5.gif""style=""height:400px;""></stim_listA>",,html-keyboard-response,124,698308,0.0-13.0-1.18,81840,List1A,white,woman,,,,null,,,,
null,is dancing with,,html-keyboard-response,125,700315,0.0-13.0-2.18,81840,List1A,white,woman,,,,null,,,,
9001,,,survey-text,126,709319,0.0-13.0-3.18,81840,List1A,white,woman,,,,,"{""Q0"":""Fred is dancing with dave""}","<img src=""stim_listA/dance5.gif""style=""height:400px;""></stim_listA>",is dancing with,
null,"<div style=""font-size:60px;"">+</div>",,html-keyboard-response,127,709822,0.0-13.0-0.19,81840,List1A,white,woman,,,,null,,,,
null,"<img src=""stim_listA/touch5.gif""style=""height:400px;""></stim_listA>",,html-keyboard-response,128,711826,0.0-13.0-1.19,81840,List1A,white,woman,,,,null,,,,
null,is touching,,html-keyboard-response,129,713830,0.0-13.0-2.19,81840,List1A,white,woman,,,,null,,,,
12257,,,survey-text,130,726090,0.0-13.0-3.19,81840,List1A,white,woman,,,,,"{""Q0"":""Dave is touching mike""}","<img src=""stim_listA/touch5.gif""style=""height:400px;""></stim_listA>",is touching,
25601,"<img src='img/portrait_matrix_list1.jpg' style='width:900px;height:500px;''></img><p>If you have memorised all the portraits and names and are ready to start, press Continue.</p><p><strong>Please note: Your memory of these faces will be tested 4 times during this experiment.</strong></p>",0,html-button-response,131,751695,0.0-14.0-0.0,81840,List1A,white,woman,,,,,,,,
4258,"<img src=""portrait/BM2.jpg""style=""height:400px;""></img>",5,html-button-response,132,756959,0.0-14.0-1.0,81840,List1A,white,woman,,TRUE,5,,,,,
null,CORRECT,,html-keyboard-response,133,758463,0.0-14.0-2.0-0.0,81840,List1A,white,woman,,,,null,,,,
4346,"<img src=""portrait/WW2.jpg""style=""height:400px;""></img>",3,html-button-response,134,762816,0.0-14.0-4.0,81840,List1A,white,woman,,TRUE,3,,,,,
null,CORRECT,,html-keyboard-response,135,764320,0.0-14.0-5.0-0.0,81840,List1A,white,woman,,,,null,,,,
3808,"<img src=""portrait/BM1.jpg""style=""height:400px;""></img>",4,html-button-response,136,768134,0.0-14.0-7.0,81840,List1A,white,woman,,TRUE,4,,,,,
null,CORRECT,,html-keyboard-response,137,769639,0.0-14.0-8.0-0.0,81840,List1A,white,woman,,,,null,,,,
2623,"<img src=""portrait/BW1.jpg""style=""height:400px;""></img>",0,html-button-response,138,772270,0.0-14.0-10.0,81840,List1A,white,woman,,TRUE,0,,,,,
null,CORRECT,,html-keyboard-response,139,773774,0.0-14.0-11.0-0.0,81840,List1A,white,woman,,,,null,,,,
3430,"<img src=""portrait/WW1.jpg""style=""height:400px;""></img>",1,html-button-response,140,777210,0.0-14.0-13.0,81840,List1A,white,woman,,TRUE,1,,,,,
null,CORRECT,,html-keyboard-response,141,778714,0.0-14.0-14.0-0.0,81840,List1A,white,woman,,,,null,,,,
4418,"<img src=""portrait/WM2.jpg""style=""height:400px;""></img>",7,html-button-response,142,783138,0.0-14.0-16.0,81840,List1A,white,woman,,TRUE,7,,,,,
null,CORRECT,,html-keyboard-response,143,784642,0.0-14.0-17.0-0.0,81840,List1A,white,woman,,,,null,,,,
3175,"<img src=""portrait/WM1.jpg""style=""height:400px;""></img>",6,html-button-response,144,787822,0.0-14.0-19.0,81840,List1A,white,woman,,TRUE,6,,,,,
null,CORRECT,,html-keyboard-response,145,789327,0.0-14.0-20.0-0.0,81840,List1A,white,woman,,,,null,,,,
3344,"<img src=""portrait/BW2.jpg""style=""height:400px;""></img>",2,html-button-response,146,792677,0.0-14.0-22.0,81840,List1A,white,woman,,TRUE,2,,,,,
null,CORRECT,,html-keyboard-response,147,794181,0.0-14.0-23.0-0.0,81840,List1A,white,woman,,,,null,,,,
1294,<p>You got 8 out of 8 right first time. Press Continue.</p>,0,html-button-response,148,795479,0.0-14.0-25.0,81840,List1A,white,woman,,,,,,,,
null,"<div style=""font-size:60px;"">+</div>",,html-keyboard-response,149,796986,0.0-15.0-0.0,81840,List1A,white,woman,,,,null,,,,
null,"<img src=""stim_listA/fight4.gif""style=""height:400px;""></stim_listA>",,html-keyboard-response,150,798991,0.0-15.0-1.0,81840,List1A,white,woman,,,,null,,,,
null,are fighting each other,,html-keyboard-response,151,800997,0.0-15.0-2.0,81840,List1A,white,woman,,,,null,,,,
10624,,,survey-text,152,811625,0.0-15.0-3.0,81840,List1A,white,woman,,,,,"{""Q0"":""Luke and Ruth are fighting each other ""}","<img src=""stim_listA/fight4.gif""style=""height:400px;""></stim_listA>",are fighting each other,
null,"<div style=""font-size:60px;"">+</div>",,html-keyboard-response,153,812128,0.0-15.0-0.1,81840,List1A,white,woman,,,,null,,,,
null,"<img src=""stim_listA/play2.gif""style=""height:400px;""></stim_listA>",,html-keyboard-response,154,814131,0.0-15.0-1.1,81840,List1A,white,woman,,,,null,,,,
null,are playing with each other,,html-keyboard-response,155,816136,0.0-15.0-2.1,81840,List1A,white,woman,,,,null,,,,
14257,,,survey-text,156,830397,0.0-15.0-3.1,81840,List1A,white,woman,,,,,"{""Q0"":""Beth and Fred are playing with each other ""}","<img src=""stim_listA/play2.gif""style=""height:400px;""></stim_listA>",are playing with each other,
null,"<div style=""font-size:60px;"">+</div>",,html-keyboard-response,157,830901,0.0-15.0-0.2,81840,List1A,white,woman,,,,null,,,,
null,"<img src=""stim_listA/talk8.gif""style=""height:400px;""></stim_listA>",,html-keyboard-response,158,832904,0.0-15.0-1.2,81840,List1A,white,woman,,,,null,,,,
null,are talking to each other,,html-keyboard-response,159,834909,0.0-15.0-2.2,81840,List1A,white,woman,,,,null,,,,
13165,,,survey-text,160,848077,0.0-15.0-3.2,81840,List1A,white,woman,,,,,"{""Q0"":""Kate and Ruth are playing with each other ""}","<img src=""stim_listA/talk8.gif""style=""height:400px;""></stim_listA>",are talking to each other,
null,"<div style=""font-size:60px;"">+</div>",,html-keyboard-response,161,848580,0.0-15.0-0.3,81840,List1A,white,woman,,,,null,,,,
null,"<img src=""stim_listA/touch3.gif""style=""height:400px;""></stim_listA>",,html-keyboard-response,162,850584,0.0-15.0-1.3,81840,List1A,white,woman,,,,null,,,,
null,is touching,,html-keyboard-response,163,852589,0.0-15.0-2.3,81840,List1A,white,woman,,,,null,,,,
6888,,,survey-text,164,859481,0.0-15.0-3.3,81840,List1A,white,woman,,,,,"{""Q0"":""Jane is touching dave""}","<img src=""stim_listA/touch3.gif""style=""height:400px;""></stim_listA>",is touching,
null,"<div style=""font-size:60px;"">+</div>",,html-keyboard-response,165,859985,0.0-15.0-0.4,81840,List1A,white,woman,,,,null,,,,
null,"<img src=""stim_listA/play6.gif""style=""height:400px;""></stim_listA>",,html-keyboard-response,166,861989,0.0-15.0-1.4,81840,List1A,white,woman,,,,null,,,,
null,are playing with each other,,html-keyboard-response,167,863994,0.0-15.0-2.4,81840,List1A,white,woman,,,,null,,,,
6760,,,survey-text,168,870759,0.0-15.0-3.4,81840,List1A,white,woman,,,,,"{""Q0"":""Luke is playing with Fred ""}","<img src=""stim_listA/play6.gif""style=""height:400px;""></stim_listA>",are playing with each other,
null,"<div style=""font-size:60px;"">+</div>",,html-keyboard-response,169,871262,0.0-15.0-0.5,81840,List1A,white,woman,,,,null,,,,
null,"<img src=""stim_listA/kiss4.gif""style=""height:400px;""></stim_listA>",,html-keyboard-response,170,873267,0.0-15.0-1.5,81840,List1A,white,woman,,,,null,,,,
null,are kissing each other,,html-keyboard-response,171,875271,0.0-15.0-2.5,81840,List1A,white,woman,,,,null,,,,
10175,,,survey-text,172,885450,0.0-15.0-3.5,81840,List1A,white,woman,,,,,"{""Q0"":""Dave and Jane are kissing each other ""}","<img src=""stim_listA/kiss4.gif""style=""height:400px;""></stim_listA>",are kissing each other,
null,"<div style=""font-size:60px;"">+</div>",,html-keyboard-response,173,885953,0.0-15.0-0.6,81840,List1A,white,woman,,,,null,,,,
null,"<img src=""stim_listA/dance1.gif""style=""height:400px;""></stim_listA>",,html-keyboard-response,174,887957,0.0-15.0-1.6,81840,List1A,white,woman,,,,null,,,,
null,is dancing with,,html-keyboard-response,175,889962,0.0-15.0-2.6,81840,List1A,white,woman,,,,null,,,,
12322,,,survey-text,176,902289,0.0-15.0-3.6,81840,List1A,white,woman,,,,,"{""Q0"":""Kate is dancing with fred""}","<img src=""stim_listA/dance1.gif""style=""height:400px;""></stim_listA>",is dancing with,
null,"<div style=""font-size:60px;"">+</div>",,html-keyboard-response,177,902792,0.0-15.0-0.7,81840,List1A,white,woman,,,,null,,,,
null,"<img src=""stim_listA/dance7.gif""style=""height:400px;""></stim_listA>",,html-keyboard-response,178,904796,0.0-15.0-1.7,81840,List1A,white,woman,,,,null,,,,
null,is dancing with,,html-keyboard-response,179,906800,0.0-15.0-2.7,81840,List1A,white,woman,,,,null,,,,
12446,,,survey-text,180,919250,0.0-15.0-3.7,81840,List1A,white,woman,,,,,"{""Q0"":""Beth is dancing with Jane ""}","<img src=""stim_listA/dance7.gif""style=""height:400px;""></stim_listA>",is dancing with,
null,"<div style=""font-size:60px;"">+</div>",,html-keyboard-response,181,919754,0.0-15.0-0.8,81840,List1A,white,woman,,,,null,,,,
null,"<img src=""stim_listA/argue1.gif""style=""height:400px;""></stim_listA>",,html-keyboard-response,182,921758,0.0-15.0-1.8,81840,List1A,white,woman,,,,null,,,,
null,is arguing with,,html-keyboard-response,183,923762,0.0-15.0-2.8,81840,List1A,white,woman,,,,null,,,,
14906,,,survey-text,184,938672,0.0-15.0-3.8,81840,List1A,white,woman,,,,,"{""Q0"":""Mike is arguing with beth""}","<img src=""stim_listA/argue1.gif""style=""height:400px;""></stim_listA>",is arguing with,
null,"<div style=""font-size:60px;"">+</div>",,html-keyboard-response,185,939175,0.0-15.0-0.9,81840,List1A,white,woman,,,,null,,,,
null,"<img src=""stim_listA/marry4.gif""style=""height:400px;""></stim_listA>",,html-keyboard-response,186,941179,0.0-15.0-1.9,81840,List1A,white,woman,,,,null,,,,
null,are marrying each other,,html-keyboard-response,187,943184,0.0-15.0-2.9,81840,List1A,white,woman,,,,null,,,,
23055,,,survey-text,188,966243,0.0-15.0-3.9,81840,List1A,white,woman,,,,,"{""Q0"":""Jane and Luke are marrying each other ""}","<img src=""stim_listA/marry4.gif""style=""height:400px;""></stim_listA>",are marrying each other,
null,"<div style=""font-size:60px;"">+</div>",,html-keyboard-response,189,966746,0.0-15.0-0.10,81840,List1A,white,woman,,,,null,,,,
null,"<img src=""stim_listA/play1.gif""style=""height:400px;""></stim_listA>",,html-keyboard-response,190,968750,0.0-15.0-1.10,81840,List1A,white,woman,,,,null,,,,
null,is playing with,,html-keyboard-response,191,970754,0.0-15.0-2.10,81840,List1A,white,woman,,,,null,,,,
11636,,,survey-text,192,982394,0.0-15.0-3.10,81840,List1A,white,woman,,,,,"{""Q0"":""Kate and mike are playing with each other ""}","<img src=""stim_listA/play1.gif""style=""height:400px;""></stim_listA>",is playing with,
null,"<div style=""font-size:60px;"">+</div>",,html-keyboard-response,193,982897,0.0-15.0-0.11,81840,List1A,white,woman,,,,null,,,,
null,"<img src=""stim_listA/talk3.gif""style=""height:400px;""></stim_listA>",,html-keyboard-response,194,984901,0.0-15.0-1.11,81840,List1A,white,woman,,,,null,,,,
null,is talking to,,html-keyboard-response,195,986905,0.0-15.0-2.11,81840,List1A,white,woman,,,,null,,,,
8767,,,survey-text,196,995676,0.0-15.0-3.11,81840,List1A,white,woman,,,,,"{""Q0"":""Luke is talking to Jane ""}","<img src=""stim_listA/talk3.gif""style=""height:400px;""></stim_listA>",is talking to,
null,"<div style=""font-size:60px;"">+</div>",,html-keyboard-response,197,996178,0.0-15.0-0.12,81840,List1A,white,woman,,,,null,,,,
null,"<img src=""stim_listA/flirt5.gif""style=""height:400px;""></stim_listA>",,html-keyboard-response,198,998181,0.0-15.0-1.12,81840,List1A,white,woman,,,,null,,,,
null,is flirting with,,html-keyboard-response,199,1000186,0.0-15.0-2.12,81840,List1A,white,woman,,,,null,,,,
9348,,,survey-text,200,1009537,0.0-15.0-3.12,81840,List1A,white,woman,,,,,"{""Q0"":""Fred is flirting with Dave ""}","<img src=""stim_listA/flirt5.gif""style=""height:400px;""></stim_listA>",is flirting with,
null,"<div style=""font-size:60px;"">+</div>",,html-keyboard-response,201,1010041,0.0-15.0-0.13,81840,List1A,white,woman,,,,null,,,,
null,"<img src=""stim_listA/fight6.gif""style=""height:400px;""></stim_listA>",,html-keyboard-response,202,1012045,0.0-15.0-1.13,81840,List1A,white,woman,,,,null,,,,
null,are fighting each other,,html-keyboard-response,203,1014049,0.0-15.0-2.13,81840,List1A,white,woman,,,,null,,,,
8684,,,survey-text,204,1022737,0.0-15.0-3.13,81840,List1A,white,woman,,,,,"{""Q0"":""Fred is fighting with Luke ""}","<img src=""stim_listA/fight6.gif""style=""height:400px;""></stim_listA>",are fighting each other,
null,"<div style=""font-size:60px;"">+</div>",,html-keyboard-response,205,1023240,0.0-15.0-0.14,81840,List1A,white,woman,,,,null,,,,
null,"<img src=""stim_listA/touch6.gif""style=""height:400px;""></stim_listA>",,html-keyboard-response,206,1025244,0.0-15.0-1.14,81840,List1A,white,woman,,,,null,,,,
null,are touching each other,,html-keyboard-response,207,1027248,0.0-15.0-2.14,81840,List1A,white,woman,,,,null,,,,
14981,,,survey-text,208,1042232,0.0-15.0-3.14,81840,List1A,white,woman,,,,,"{""Q0"":""Fred and Luke are touching each other ""}","<img src=""stim_listA/touch6.gif""style=""height:400px;""></stim_listA>",are touching each other,
null,"<div style=""font-size:60px;"">+</div>",,html-keyboard-response,209,1042739,0.0-15.0-0.15,81840,List1A,white,woman,,,,null,,,,
null,"<img src=""stim_listA/flirt2.gif""style=""height:400px;""></stim_listA>",,html-keyboard-response,210,1044743,0.0-15.0-1.15,81840,List1A,white,woman,,,,null,,,,
null,are flirting with each other,,html-keyboard-response,211,1046747,0.0-15.0-2.15,81840,List1A,white,woman,,,,null,,,,
17045,,,survey-text,212,1063796,0.0-15.0-3.15,81840,List1A,white,woman,,,,,"{""Q0"":""Beth and mike are flirting with each other ""}","<img src=""stim_listA/flirt2.gif""style=""height:400px;""></stim_listA>",are flirting with each other,
null,"<div style=""font-size:60px;"">+</div>",,html-keyboard-response,213,1064300,0.0-15.0-0.16,81840,List1A,white,woman,,,,null,,,,
null,"<img src=""stim_listA/talk4.gif""style=""height:400px;""></stim_listA>",,html-keyboard-response,214,1066303,0.0-15.0-1.16,81840,List1A,white,woman,,,,null,,,,
null,are talking to each other,,html-keyboard-response,215,1068307,0.0-15.0-2.16,81840,List1A,white,woman,,,,null,,,,
11942,,,survey-text,216,1080253,0.0-15.0-3.16,81840,List1A,white,woman,,,,,"{""Q0"":""Ruth and Dave are talking to each other ""}","<img src=""stim_listA/talk4.gif""style=""height:400px;""></stim_listA>",are talking to each other,
null,"<div style=""font-size:60px;"">+</div>",,html-keyboard-response,217,1080758,0.0-15.0-0.17,81840,List1A,white,woman,,,,null,,,,
null,"<img src=""stim_listA/argue6.gif""style=""height:400px;""></stim_listA>",,html-keyboard-response,218,1082762,0.0-15.0-1.17,81840,List1A,white,woman,,,,null,,,,
null,are arguing with each other,,html-keyboard-response,219,1084766,0.0-15.0-2.17,81840,List1A,white,woman,,,,null,,,,
12208,,,survey-text,220,1096978,0.0-15.0-3.17,81840,List1A,white,woman,,,,,"{""Q0"":""Fred and Dave are arguing with each other ""}","<img src=""stim_listA/argue6.gif""style=""height:400px;""></stim_listA>",are arguing with each other,
null,"<div style=""font-size:60px;"">+</div>",,html-keyboard-response,221,1097480,0.0-15.0-0.18,81840,List1A,white,woman,,,,null,,,,
null,"<img src=""stim_listA/kiss8.gif""style=""height:400px;""></stim_listA>",,html-keyboard-response,222,1099484,0.0-15.0-1.18,81840,List1A,white,woman,,,,null,,,,
null,are kissing each other,,html-keyboard-response,223,1101489,0.0-15.0-2.18,81840,List1A,white,woman,,,,null,,,,
11117,,,survey-text,224,1112609,0.0-15.0-3.18,81840,List1A,white,woman,,,,,"{""Q0"":""Kate and Jane are kissing each other ""}","<img src=""stim_listA/kiss8.gif""style=""height:400px;""></stim_listA>",are kissing each other,
null,"<div style=""font-size:60px;"">+</div>",,html-keyboard-response,225,1113112,0.0-15.0-0.19,81840,List1A,white,woman,,,,null,,,,
null,"<img src=""stim_listA/argue5.gif""style=""height:400px;""></stim_listA>",,html-keyboard-response,226,1115115,0.0-15.0-1.19,81840,List1A,white,woman,,,,null,,,,
null,is arguing with,,html-keyboard-response,227,1117120,0.0-15.0-2.19,81840,List1A,white,woman,,,,null,,,,
8442,,,survey-text,228,1125565,0.0-15.0-3.19,81840,List1A,white,woman,,,,,"{""Q0"":""Mike is arguing with Luke ""}","<img src=""stim_listA/argue5.gif""style=""height:400px;""></stim_listA>",is arguing with,
6727,"<img src='img/portrait_matrix_list1.jpg' style='width:900px;height:500px;''></img><p>If you have memorised all the portraits and names and are ready to start, press Continue.</p><p><strong>Please note: Your memory of these faces will be tested 4 times during this experiment.</strong></p>",0,html-button-response,229,1132296,0.0-16.0-0.0,81840,List1A,white,woman,,,,,,,,
3216,"<img src=""portrait/WM1.jpg""style=""height:400px;""></img>",6,html-button-response,230,1136515,0.0-16.0-1.0,81840,List1A,white,woman,,TRUE,6,,,,,
null,CORRECT,,html-keyboard-response,231,1138019,0.0-16.0-2.0-0.0,81840,List1A,white,woman,,,,null,,,,
1718,"<img src=""portrait/WW1.jpg""style=""height:400px;""></img>",1,html-button-response,232,1139742,0.0-16.0-4.0,81840,List1A,white,woman,,TRUE,1,,,,,
null,CORRECT,,html-keyboard-response,233,1141246,0.0-16.0-5.0-0.0,81840,List1A,white,woman,,,,null,,,,
3545,"<img src=""portrait/BM2.jpg""style=""height:400px;""></img>",5,html-button-response,234,1144797,0.0-16.0-7.0,81840,List1A,white,woman,,TRUE,5,,,,,
null,CORRECT,,html-keyboard-response,235,1146301,0.0-16.0-8.0-0.0,81840,List1A,white,woman,,,,null,,,,
4945,"<img src=""portrait/BW2.jpg""style=""height:400px;""></img>",2,html-button-response,236,1151252,0.0-16.0-10.0,81840,List1A,white,woman,,TRUE,2,,,,,
null,CORRECT,,html-keyboard-response,237,1152755,0.0-16.0-11.0-0.0,81840,List1A,white,woman,,,,null,,,,
1537,"<img src=""portrait/BW1.jpg""style=""height:400px;""></img>",0,html-button-response,238,1154297,0.0-16.0-13.0,81840,List1A,white,woman,,TRUE,0,,,,,
null,CORRECT,,html-keyboard-response,239,1155801,0.0-16.0-14.0-0.0,81840,List1A,white,woman,,,,null,,,,
3139,"<img src=""portrait/WW2.jpg""style=""height:400px;""></img>",3,html-button-response,240,1158945,0.0-16.0-16.0,81840,List1A,white,woman,,TRUE,3,,,,,
null,CORRECT,,html-keyboard-response,241,1160450,0.0-16.0-17.0-0.0,81840,List1A,white,woman,,,,null,,,,
3200,"<img src=""portrait/WM2.jpg""style=""height:400px;""></img>",7,html-button-response,242,1163655,0.0-16.0-19.0,81840,List1A,white,woman,,TRUE,7,,,,,
null,CORRECT,,html-keyboard-response,243,1165159,0.0-16.0-20.0-0.0,81840,List1A,white,woman,,,,null,,,,
3519,"<img src=""portrait/BM1.jpg""style=""height:400px;""></img>",4,html-button-response,244,1168684,0.0-16.0-22.0,81840,List1A,white,woman,,TRUE,4,,,,,
null,CORRECT,,html-keyboard-response,245,1170188,0.0-16.0-23.0-0.0,81840,List1A,white,woman,,,,null,,,,
1487,<p>You got 8 out of 8 right first time. Press Continue.</p>,0,html-button-response,246,1171679,0.0-16.0-25.0,81840,List1A,white,woman,,,,,,,,
null,"<div style=""font-size:60px;"">+</div>",,html-keyboard-response,247,1173186,0.0-17.0-0.0,81840,List1A,white,woman,,,,null,,,,
null,"<img src=""stim_listA/marry1.gif""style=""height:400px;""></stim_listA>",,html-keyboard-response,248,1175191,0.0-17.0-1.0,81840,List1A,white,woman,,,,null,,,,
null,is marrying,,html-keyboard-response,249,1177196,0.0-17.0-2.0,81840,List1A,white,woman,,,,null,,,,
20017,,,survey-text,250,1197216,0.0-17.0-3.0,81840,List1A,white,woman,,,,,"{""Q0"":""Beth is marrying mike ""}","<img src=""stim_listA/marry1.gif""style=""height:400px;""></stim_listA>",is marrying,
null,"<div style=""font-size:60px;"">+</div>",,html-keyboard-response,251,1197721,0.0-17.0-0.1,81840,List1A,white,woman,,,,null,,,,
null,"<img src=""stim_listA/marry6.gif""style=""height:400px;""></stim_listA>",,html-keyboard-response,252,1199724,0.0-17.0-1.1,81840,List1A,white,woman,,,,null,,,,
null,are marrying each other,,html-keyboard-response,253,1201727,0.0-17.0-2.1,81840,List1A,white,woman,,,,null,,,,
9883,,,survey-text,254,1211614,0.0-17.0-3.1,81840,List1A,white,woman,,,,,"{""Q0"":""Fred is marrying Dave ""}","<img src=""stim_listA/marry6.gif""style=""height:400px;""></stim_listA>",are marrying each other,
null,"<div style=""font-size:60px;"">+</div>",,html-keyboard-response,255,1212118,0.0-17.0-0.2,81840,List1A,white,woman,,,,null,,,,
null,"<img src=""stim_listA/flirt3.gif""style=""height:400px;""></stim_listA>",,html-keyboard-response,256,1214122,0.0-17.0-1.2,81840,List1A,white,woman,,,,null,,,,
null,is flirting with,,html-keyboard-response,257,1216126,0.0-17.0-2.2,81840,List1A,white,woman,,,,null,,,,
6495,,,survey-text,258,1222626,0.0-17.0-3.2,81840,List1A,white,woman,,,,,"{""Q0"":""Luke is flirting with Jane ""}","<img src=""stim_listA/flirt3.gif""style=""height:400px;""></stim_listA>",is flirting with,
null,"<div style=""font-size:60px;"">+</div>",,html-keyboard-response,259,1223133,0.0-17.0-0.3,81840,List1A,white,woman,,,,null,,,,
null,"<img src=""stim_listA/argue2.gif""style=""height:400px;""></stim_listA>",,html-keyboard-response,260,1225137,0.0-17.0-1.3,81840,List1A,white,woman,,,,null,,,,
null,are arguing with each other,,html-keyboard-response,261,1227142,0.0-17.0-2.3,81840,List1A,white,woman,,,,null,,,,
10124,,,survey-text,262,1237269,0.0-17.0-3.3,81840,List1A,white,woman,,,,,"{""Q0"":""Fred and Kate are arguing with each other ""}","<img src=""stim_listA/argue2.gif""style=""height:400px;""></stim_listA>",are arguing with each other,
null,"<div style=""font-size:60px;"">+</div>",,html-keyboard-response,263,1237772,0.0-17.0-0.4,81840,List1A,white,woman,,,,null,,,,
null,"<img src=""stim_listA/fight7.gif""style=""height:400px;""></stim_listA>",,html-keyboard-response,264,1239776,0.0-17.0-1.4,81840,List1A,white,woman,,,,null,,,,
null,is fighting,,html-keyboard-response,265,1241780,0.0-17.0-2.4,81840,List1A,white,woman,,,,null,,,,
11639,,,survey-text,266,1253423,0.0-17.0-3.4,81840,List1A,white,woman,,,,,"{""Q0"":""Kate is fighting Jane ""}","<img src=""stim_listA/fight7.gif""style=""height:400px;""></stim_listA>",is fighting,
null,"<div style=""font-size:60px;"">+</div>",,html-keyboard-response,267,1253926,0.0-17.0-0.5,81840,List1A,white,woman,,,,null,,,,
null,"<img src=""stim_listA/flirt8.gif""style=""height:400px;""></stim_listA>",,html-keyboard-response,268,1255929,0.0-17.0-1.5,81840,List1A,white,woman,,,,null,,,,
null,are flirting with each other,,html-keyboard-response,269,1257934,0.0-17.0-2.5,81840,List1A,white,woman,,,,null,,,,
12458,,,survey-text,270,1270394,0.0-17.0-3.5,81840,List1A,white,woman,,,,,"{""Q0"":""Ruth and Kate are flirting with each other ""}","<img src=""stim_listA/flirt8.gif""style=""height:400px;""></stim_listA>",are flirting with each other,
null,"<div style=""font-size:60px;"">+</div>",,html-keyboard-response,271,1270897,0.0-17.0-0.6,81840,List1A,white,woman,,,,null,,,,
null,"<img src=""stim_listA/dance8.gif""style=""height:400px;""></stim_listA>",,html-keyboard-response,272,1272900,0.0-17.0-1.6,81840,List1A,white,woman,,,,null,,,,
null,are dancing with each other,,html-keyboard-response,273,1274904,0.0-17.0-2.6,81840,List1A,white,woman,,,,null,,,,
16721,,,survey-text,274,1291628,0.0-17.0-3.6,81840,List1A,white,woman,,,,,"{""Q0"":""Ruth and Kate are dancing with each other ""}","<img src=""stim_listA/dance8.gif""style=""height:400px;""></stim_listA>",are dancing with each other,
null,"<div style=""font-size:60px;"">+</div>",,html-keyboard-response,275,1292136,0.0-17.0-0.7,81840,List1A,white,woman,,,,null,,,,
null,"<img src=""stim_listA/marry5.gif""style=""height:400px;""></stim_listA>",,html-keyboard-response,276,1294140,0.0-17.0-1.7,81840,List1A,white,woman,,,,null,,,,
null,is marrying,,html-keyboard-response,277,1296144,0.0-17.0-2.7,81840,List1A,white,woman,,,,null,,,,
6724,,,survey-text,278,1302873,0.0-17.0-3.7,81840,List1A,white,woman,,,,,"{""Q0"":""Luke is marrying mike ""}","<img src=""stim_listA/marry5.gif""style=""height:400px;""></stim_listA>",is marrying,
null,"<div style=""font-size:60px;"">+</div>",,html-keyboard-response,279,1303377,0.0-17.0-0.8,81840,List1A,white,woman,,,,null,,,,
null,"<img src=""stim_listA/shout8.gif""style=""height:400px;""></stim_listA>",,html-keyboard-response,280,1305381,0.0-17.0-1.8,81840,List1A,white,woman,,,,null,,,,
null,are shouting at each other,,html-keyboard-response,281,1307385,0.0-17.0-2.8,81840,List1A,white,woman,,,,null,,,,
10620,,,survey-text,282,1318009,0.0-17.0-3.8,81840,List1A,white,woman,,,,,"{""Q0"":""Kate and Jane are shouting at each other ""}","<img src=""stim_listA/shout8.gif""style=""height:400px;""></stim_listA>",are shouting at each other,
null,"<div style=""font-size:60px;"">+</div>",,html-keyboard-response,283,1318513,0.0-17.0-0.9,81840,List1A,white,woman,,,,null,,,,
null,"<img src=""stim_listA/play4.gif""style=""height:400px;""></stim_listA>",,html-keyboard-response,284,1320516,0.0-17.0-1.9,81840,List1A,white,woman,,,,null,,,,
null,are playing with each other,,html-keyboard-response,285,1322521,0.0-17.0-2.9,81840,List1A,white,woman,,,,null,,,,
15066,,,survey-text,286,1337591,0.0-17.0-3.9,81840,List1A,white,woman,,,,,"{""Q0"":""Luke and Ruth are playing with each other ""}","<img src=""stim_listA/play4.gif""style=""height:400px;""></stim_listA>",are playing with each other,
null,"<div style=""font-size:60px;"">+</div>",,html-keyboard-response,287,1338095,0.0-17.0-0.10,81840,List1A,white,woman,,,,null,,,,
null,"<img src=""stim_listA/argue3.gif""style=""height:400px;""></stim_listA>",,html-keyboard-response,288,1340098,0.0-17.0-1.10,81840,List1A,white,woman,,,,null,,,,
null,is arguing with,,html-keyboard-response,289,1342100,0.0-17.0-2.10,81840,List1A,white,woman,,,,null,,,,
6644,,,survey-text,290,1348748,0.0-17.0-3.10,81840,List1A,white,woman,,,,,"{""Q0"":""Ruth is arguing with Dave ""}","<img src=""stim_listA/argue3.gif""style=""height:400px;""></stim_listA>",is arguing with,
null,"<div style=""font-size:60px;"">+</div>",,html-keyboard-response,291,1349251,0.0-17.0-0.11,81840,List1A,white,woman,,,,null,,,,
null,"<img src=""stim_listA/marry3.gif""style=""height:400px;""></stim_listA>",,html-keyboard-response,292,1351254,0.0-17.0-1.11,81840,List1A,white,woman,,,,null,,,,
null,is marrying,,html-keyboard-response,293,1353258,0.0-17.0-2.11,81840,List1A,white,woman,,,,null,,,,
9118,,,survey-text,294,1362380,0.0-17.0-3.11,81840,List1A,white,woman,,,,,"{""Q0"":""Ruth is marrying Dave ""}","<img src=""stim_listA/marry3.gif""style=""height:400px;""></stim_listA>",is marrying,
null,"<div style=""font-size:60px;"">+</div>",,html-keyboard-response,295,1362883,0.0-17.0-0.12,81840,List1A,white,woman,,,,null,,,,
null,"<img src=""stim_listA/flirt6.gif""style=""height:400px;""></stim_listA>",,html-keyboard-response,296,1364887,0.0-17.0-1.12,81840,List1A,white,woman,,,,null,,,,
null,are flirting with each other,,html-keyboard-response,297,1366891,0.0-17.0-2.12,81840,List1A,white,woman,,,,null,,,,
10354,,,survey-text,298,1377249,0.0-17.0-3.12,81840,List1A,white,woman,,,,,"{""Q0"":""Luke and mike are flirting with each other ""}","<img src=""stim_listA/flirt6.gif""style=""height:400px;""></stim_listA>",are flirting with each other,
null,"<div style=""font-size:60px;"">+</div>",,html-keyboard-response,299,1377753,0.0-17.0-0.13,81840,List1A,white,woman,,,,null,,,,
null,"<img src=""stim_listA/flirt1.gif""style=""height:400px;""></stim_listA>",,html-keyboard-response,300,1379756,0.0-17.0-1.13,81840,List1A,white,woman,,,,null,,,,
null,is flirting with,,html-keyboard-response,301,1381760,0.0-17.0-2.13,81840,List1A,white,woman,,,,null,,,,
10738,,,survey-text,302,1392502,0.0-17.0-3.13,81840,List1A,white,woman,,,,,"{""Q0"":""Fred is flirting with Kate ""}","<img src=""stim_listA/flirt1.gif""style=""height:400px;""></stim_listA>",is flirting with,
null,"<div style=""font-size:60px;"">+</div>",,html-keyboard-response,303,1393007,0.0-17.0-0.14,81840,List1A,white,woman,,,,null,,,,
null,"<img src=""stim_listA/play8.gif""style=""height:400px;""></stim_listA>",,html-keyboard-response,304,1395012,0.0-17.0-1.14,81840,List1A,white,woman,,,,null,,,,
null,are playing with each other,,html-keyboard-response,305,1397015,0.0-17.0-2.14,81840,List1A,white,woman,,,,null,,,,
16234,,,survey-text,306,1413250,0.0-17.0-3.14,81840,List1A,white,woman,,,,,"{""Q0"":""Beth and Ruth are playing with each other ""}","<img src=""stim_listA/play8.gif""style=""height:400px;""></stim_listA>",are playing with each other,
null,"<div style=""font-size:60px;"">+</div>",,html-keyboard-response,307,1413754,0.0-17.0-0.15,81840,List1A,white,woman,,,,null,,,,
null,"<img src=""stim_listA/talk1.gif""style=""height:400px;""></stim_listA>",,html-keyboard-response,308,1415758,0.0-17.0-1.15,81840,List1A,white,woman,,,,null,,,,
null,is talking to,,html-keyboard-response,309,1417762,0.0-17.0-2.15,81840,List1A,white,woman,,,,null,,,,
8672,,,survey-text,310,1426438,0.0-17.0-3.15,81840,List1A,white,woman,,,,,"{""Q0"":""Kate is talking to Fred ""}","<img src=""stim_listA/talk1.gif""style=""height:400px;""></stim_listA>",is talking to,
null,"<div style=""font-size:60px;"">+</div>",,html-keyboard-response,311,1426943,0.0-17.0-0.16,81840,List1A,white,woman,,,,null,,,,
null,"<img src=""stim_listA/shout5.gif""style=""height:400px;""></stim_listA>",,html-keyboard-response,312,1428948,0.0-17.0-1.16,81840,List1A,white,woman,,,,null,,,,
null,is shouting at,,html-keyboard-response,313,1430952,0.0-17.0-2.16,81840,List1A,white,woman,,,,null,,,,
7072,,,survey-text,314,1438027,0.0-17.0-3.16,81840,List1A,white,woman,,,,,"{""Q0"":""Fred is shouting at Luke ""}","<img src=""stim_listA/shout5.gif""style=""height:400px;""></stim_listA>",is shouting at,
null,"<div style=""font-size:60px;"">+</div>",,html-keyboard-response,315,1438531,0.0-17.0-0.17,81840,List1A,white,woman,,,,null,,,,
null,"<img src=""stim_listA/argue4.gif""style=""height:400px;""></stim_listA>",,html-keyboard-response,316,1440535,0.0-17.0-1.17,81840,List1A,white,woman,,,,null,,,,
null,are arguing with each other,,html-keyboard-response,317,1442540,0.0-17.0-2.17,81840,List1A,white,woman,,,,null,,,,
10525,,,survey-text,318,1453068,0.0-17.0-3.17,81840,List1A,white,woman,,,,,"{""Q0"":""Jane and Luke are arguing with each other ""}","<img src=""stim_listA/argue4.gif""style=""height:400px;""></stim_listA>",are arguing with each other,
null,"<div style=""font-size:60px;"">+</div>",,html-keyboard-response,319,1453572,0.0-17.0-0.18,81840,List1A,white,woman,,,,null,,,,
null,"<img src=""stim_listA/shout1.gif""style=""height:400px;""></stim_listA>",,html-keyboard-response,320,1455576,0.0-17.0-1.18,81840,List1A,white,woman,,,,null,,,,
null,is shouting at,,html-keyboard-response,321,1457581,0.0-17.0-2.18,81840,List1A,white,woman,,,,null,,,,
15539,,,survey-text,322,1473123,0.0-17.0-3.18,81840,List1A,white,woman,,,,,"{""Q0"":""Beth is shouting at Fred ""}","<img src=""stim_listA/shout1.gif""style=""height:400px;""></stim_listA>",is shouting at,
null,"<div style=""font-size:60px;"">+</div>",,html-keyboard-response,323,1473632,0.0-17.0-0.19,81840,List1A,white,woman,,,,null,,,,
null,"<img src=""stim_listA/shout2.gif""style=""height:400px;""></stim_listA>",,html-keyboard-response,324,1475636,0.0-17.0-1.19,81840,List1A,white,woman,,,,null,,,,
null,are shouting at each other,,html-keyboard-response,325,1477640,0.0-17.0-2.19,81840,List1A,white,woman,,,,null,,,,
11225,,,survey-text,326,1488870,0.0-17.0-3.19,81840,List1A,white,woman,,,,,"{""Q0"":""Kate and mike are shouting at each other ""}","<img src=""stim_listA/shout2.gif""style=""height:400px;""></stim_listA>",are shouting at each other,
2694,"<img src='img/portrait_matrix_list1.jpg' style='width:900px;height:500px;''></img><p>If you have memorised all the portraits and names and are ready to start, press Continue.</p><p><strong>Please note: Your memory of these faces will be tested 4 times during this experiment.</strong></p>",0,html-button-response,327,1491567,0.0-18.0-0.0,81840,List1A,white,woman,,,,,,,,
3654,"<img src=""portrait/BM2.jpg""style=""height:400px;""></img>",5,html-button-response,328,1496228,0.0-18.0-1.0,81840,List1A,white,woman,,TRUE,5,,,,,
null,CORRECT,,html-keyboard-response,329,1497733,0.0-18.0-2.0-0.0,81840,List1A,white,woman,,,,null,,,,
4297,"<img src=""portrait/WW2.jpg""style=""height:400px;""></img>",3,html-button-response,330,1502035,0.0-18.0-4.0,81840,List1A,white,woman,,TRUE,3,,,,,
null,CORRECT,,html-keyboard-response,331,1503540,0.0-18.0-5.0-0.0,81840,List1A,white,woman,,,,null,,,,
1867,"<img src=""portrait/WW1.jpg""style=""height:400px;""></img>",1,html-button-response,332,1505412,0.0-18.0-7.0,81840,List1A,white,woman,,TRUE,1,,,,,
null,CORRECT,,html-keyboard-response,333,1506917,0.0-18.0-8.0-0.0,81840,List1A,white,woman,,,,null,,,,
6038,"<img src=""portrait/WM1.jpg""style=""height:400px;""></img>",6,html-button-response,334,1512959,0.0-18.0-10.0,81840,List1A,white,woman,,TRUE,6,,,,,
null,CORRECT,,html-keyboard-response,335,1514463,0.0-18.0-11.0-0.0,81840,List1A,white,woman,,,,null,,,,
3552,"<img src=""portrait/WM2.jpg""style=""height:400px;""></img>",7,html-button-response,336,1518020,0.0-18.0-13.0,81840,List1A,white,woman,,TRUE,7,,,,,
null,CORRECT,,html-keyboard-response,337,1519525,0.0-18.0-14.0-0.0,81840,List1A,white,woman,,,,null,,,,
1749,"<img src=""portrait/BW1.jpg""style=""height:400px;""></img>",0,html-button-response,338,1521279,0.0-18.0-16.0,81840,List1A,white,woman,,TRUE,0,,,,,
null,CORRECT,,html-keyboard-response,339,1522786,0.0-18.0-17.0-0.0,81840,List1A,white,woman,,,,null,,,,
1755,"<img src=""portrait/BW2.jpg""style=""height:400px;""></img>",2,html-button-response,340,1524546,0.0-18.0-19.0,81840,List1A,white,woman,,TRUE,2,,,,,
null,CORRECT,,html-keyboard-response,341,1526050,0.0-18.0-20.0-0.0,81840,List1A,white,woman,,,,null,,,,
3198,"<img src=""portrait/BM1.jpg""style=""height:400px;""></img>",4,html-button-response,342,1529252,0.0-18.0-22.0,81840,List1A,white,woman,,TRUE,4,,,,,
null,CORRECT,,html-keyboard-response,343,1530757,0.0-18.0-23.0-0.0,81840,List1A,white,woman,,,,null,,,,
1474,<p>You got 8 out of 8 right first time. Press Continue.</p>,0,html-button-response,344,1532235,0.0-18.0-25.0,81840,List1A,white,woman,,,,,,,,
null,"<div style=""font-size:60px;"">+</div>",,html-keyboard-response,345,1533743,0.0-19.0-0.0,81840,List1A,white,woman,,,,null,,,,
null,"<img src=""stim_listA/kiss3.gif""style=""height:400px;""></stim_listA>",,html-keyboard-response,346,1535748,0.0-19.0-1.0,81840,List1A,white,woman,,,,null,,,,
null,is kissing,,html-keyboard-response,347,1537753,0.0-19.0-2.0,81840,List1A,white,woman,,,,null,,,,
8839,,,survey-text,348,1546595,0.0-19.0-3.0,81840,List1A,white,woman,,,,,"{""Q0"":""Ruth is kissing Luke ""}","<img src=""stim_listA/kiss3.gif""style=""height:400px;""></stim_listA>",is kissing,
null,"<div style=""font-size:60px;"">+</div>",,html-keyboard-response,349,1547098,0.0-19.0-0.1,81840,List1A,white,woman,,,,null,,,,
null,"<img src=""stim_listA/shout3.gif""style=""height:400px;""></stim_listA>",,html-keyboard-response,350,1549102,0.0-19.0-1.1,81840,List1A,white,woman,,,,null,,,,
null,is shouting at,,html-keyboard-response,351,1551107,0.0-19.0-2.1,81840,List1A,white,woman,,,,null,,,,
7834,,,survey-text,352,1558945,0.0-19.0-3.1,81840,List1A,white,woman,,,,,"{""Q0"":""Luke is shouting at Ruth ""}","<img src=""stim_listA/shout3.gif""style=""height:400px;""></stim_listA>",is shouting at,
null,"<div style=""font-size:60px;"">+</div>",,html-keyboard-response,353,1559447,0.0-19.0-0.2,81840,List1A,white,woman,,,,null,,,,
null,"<img src=""stim_listA/kiss2.gif""style=""height:400px;""></stim_listA>",,html-keyboard-response,354,1561451,0.0-19.0-1.2,81840,List1A,white,woman,,,,null,,,,
null,are kissing each other,,html-keyboard-response,355,1563455,0.0-19.0-2.2,81840,List1A,white,woman,,,,null,,,,
14452,,,survey-text,356,1577911,0.0-19.0-3.2,81840,List1A,white,woman,,,,,"{""Q0"":""Kate and mike are kissing each other ""}","<img src=""stim_listA/kiss2.gif""style=""height:400px;""></stim_listA>",are kissing each other,
null,"<div style=""font-size:60px;"">+</div>",,html-keyboard-response,357,1578414,0.0-19.0-0.3,81840,List1A,white,woman,,,,null,,,,
null,"<img src=""stim_listA/touch2.gif""style=""height:400px;""></stim_listA>",,html-keyboard-response,358,1580418,0.0-19.0-1.3,81840,List1A,white,woman,,,,null,,,,
null,are touching each other,,html-keyboard-response,359,1582422,0.0-19.0-2.3,81840,List1A,white,woman,,,,null,,,,
14782,,,survey-text,360,1597208,0.0-19.0-3.3,81840,List1A,white,woman,,,,,"{""Q0"":""Fred and Beth are touching each other ""}","<img src=""stim_listA/touch2.gif""style=""height:400px;""></stim_listA>",are touching each other,
null,"<div style=""font-size:60px;"">+</div>",,html-keyboard-response,361,1597712,0.0-19.0-0.4,81840,List1A,white,woman,,,,null,,,,
null,"<img src=""stim_listA/talk7.gif""style=""height:400px;""></stim_listA>",,html-keyboard-response,362,1599715,0.0-19.0-1.4,81840,List1A,white,woman,,,,null,,,,
null,is talking to,,html-keyboard-response,363,1601720,0.0-19.0-2.4,81840,List1A,white,woman,,,,null,,,,
14393,,,survey-text,364,1616117,0.0-19.0-3.4,81840,List1A,white,woman,,,,,"{""Q0"":""Jane is talking to Beth ""}","<img src=""stim_listA/talk7.gif""style=""height:400px;""></stim_listA>",is talking to,
null,"<div style=""font-size:60px;"">+</div>",,html-keyboard-response,365,1616619,0.0-19.0-0.5,81840,List1A,white,woman,,,,null,,,,
null,"<img src=""stim_listA/shout6.gif""style=""height:400px;""></stim_listA>",,html-keyboard-response,366,1618623,0.0-19.0-1.5,81840,List1A,white,woman,,,,null,,,,
null,are shouting at each other,,html-keyboard-response,367,1620628,0.0-19.0-2.5,81840,List1A,white,woman,,,,null,,,,
17348,,,survey-text,368,1637980,0.0-19.0-3.5,81840,List1A,white,woman,,,,,"{""Q0"":""Dave and mike are shouting at each other ""}","<img src=""stim_listA/shout6.gif""style=""height:400px;""></stim_listA>",are shouting at each other,
null,"<div style=""font-size:60px;"">+</div>",,html-keyboard-response,369,1638484,0.0-19.0-0.6,81840,List1A,white,woman,,,,null,,,,
null,"<img src=""stim_listA/dance4.gif""style=""height:400px;""></stim_listA>",,html-keyboard-response,370,1640487,0.0-19.0-1.6,81840,List1A,white,woman,,,,null,,,,
null,are dancing with each other,,html-keyboard-response,371,1642492,0.0-19.0-2.6,81840,List1A,white,woman,,,,null,,,,
17284,,,survey-text,372,1659780,0.0-19.0-3.6,81840,List1A,white,woman,,,,,"{""Q0"":""Dave and Ruth are dancing with each other ""}","<img src=""stim_listA/dance4.gif""style=""height:400px;""></stim_listA>",are dancing with each other,
null,"<div style=""font-size:60px;"">+</div>",,html-keyboard-response,373,1660283,0.0-19.0-0.7,81840,List1A,white,woman,,,,null,,,,
null,"<img src=""stim_listA/touch1.gif""style=""height:400px;""></stim_listA>",,html-keyboard-response,374,1662287,0.0-19.0-1.7,81840,List1A,white,woman,,,,null,,,,
null,is touching,,html-keyboard-response,375,1664292,0.0-19.0-2.7,81840,List1A,white,woman,,,,null,,,,
9277,,,survey-text,376,1673573,0.0-19.0-3.7,81840,List1A,white,woman,,,,,"{""Q0"":""Beth is touching mike ""}","<img src=""stim_listA/touch1.gif""style=""height:400px;""></stim_listA>",is touching,
null,"<div style=""font-size:60px;"">+</div>",,html-keyboard-response,377,1674076,0.0-19.0-0.8,81840,List1A,white,woman,,,,null,,,,
null,"<img src=""stim_listA/fight3.gif""style=""height:400px;""></stim_listA>",,html-keyboard-response,378,1676080,0.0-19.0-1.8,81840,List1A,white,woman,,,,null,,,,
null,is fighting,,html-keyboard-response,379,1678085,0.0-19.0-2.8,81840,List1A,white,woman,,,,null,,,,
9472,,,survey-text,380,1687560,0.0-19.0-3.8,81840,List1A,white,woman,,,,,"{""Q0"":""Dave is fighting Jane ""}","<img src=""stim_listA/fight3.gif""style=""height:400px;""></stim_listA>",is fighting,
null,"<div style=""font-size:60px;"">+</div>",,html-keyboard-response,381,1688064,0.0-19.0-0.9,81840,List1A,white,woman,,,,null,,,,
null,"<img src=""stim_listA/play7.gif""style=""height:400px;""></stim_listA>",,html-keyboard-response,382,1690069,0.0-19.0-1.9,81840,List1A,white,woman,,,,null,,,,
null,is playing with,,html-keyboard-response,383,1692074,0.0-19.0-2.9,81840,List1A,white,woman,,,,null,,,,
19240,,,survey-text,384,1711317,0.0-19.0-3.9,81840,List1A,white,woman,,,,,"{""Q0"":""Kate and Jane are playing with each other ""}","<img src=""stim_listA/play7.gif""style=""height:400px;""></stim_listA>",is playing with,
null,"<div style=""font-size:60px;"">+</div>",,html-keyboard-response,385,1711820,0.0-19.0-0.10,81840,List1A,white,woman,,,,null,,,,
null,"<img src=""stim_listA/dance3.gif""style=""height:400px;""></stim_listA>",,html-keyboard-response,386,1713824,0.0-19.0-1.10,81840,List1A,white,woman,,,,null,,,,
null,is dancing with,,html-keyboard-response,387,1715828,0.0-19.0-2.10,81840,List1A,white,woman,,,,null,,,,
6101,,,survey-text,388,1721933,0.0-19.0-3.10,81840,List1A,white,woman,,,,,"{""Q0"":""Jane is dancing with Luke ""}","<img src=""stim_listA/dance3.gif""style=""height:400px;""></stim_listA>",is dancing with,
null,"<div style=""font-size:60px;"">+</div>",,html-keyboard-response,389,1722437,0.0-19.0-0.11,81840,List1A,white,woman,,,,null,,,,
null,"<img src=""stim_listA/fight2.gif""style=""height:400px;""></stim_listA>",,html-keyboard-response,390,1724440,0.0-19.0-1.11,81840,List1A,white,woman,,,,null,,,,
null,are fighting each other,,html-keyboard-response,391,1726445,0.0-19.0-2.11,81840,List1A,white,woman,,,,null,,,,
14541,,,survey-text,392,1740989,0.0-19.0-3.11,81840,List1A,white,woman,,,,,"{""Q0"":""Beth and Fred are fighting each other ""}","<img src=""stim_listA/fight2.gif""style=""height:400px;""></stim_listA>",are fighting each other,
null,"<div style=""font-size:60px;"">+</div>",,html-keyboard-response,393,1741493,0.0-19.0-0.12,81840,List1A,white,woman,,,,null,,,,
null,"<img src=""stim_listA/talk5.gif""style=""height:400px;""></stim_listA>",,html-keyboard-response,394,1743496,0.0-19.0-1.12,81840,List1A,white,woman,,,,null,,,,
null,is talking to,,html-keyboard-response,395,1745499,0.0-19.0-2.12,81840,List1A,white,woman,,,,null,,,,
9660,,,survey-text,396,1755168,0.0-19.0-3.12,81840,List1A,white,woman,,,,,"{""Q0"":""Dave is talking to Fred ""}","<img src=""stim_listA/talk5.gif""style=""height:400px;""></stim_listA>",is talking to,
null,"<div style=""font-size:60px;"">+</div>",,html-keyboard-response,397,1755671,0.0-19.0-0.13,81840,List1A,white,woman,,,,null,,,,
null,"<img src=""stim_listA/marry7.gif""style=""height:400px;""></stim_listA>",,html-keyboard-response,398,1757675,0.0-19.0-1.13,81840,List1A,white,woman,,,,null,,,,
null,is marrying,,html-keyboard-response,399,1759679,0.0-19.0-2.13,81840,List1A,white,woman,,,,null,,,,
8746,,,survey-text,400,1768430,0.0-19.0-3.13,81840,List1A,white,woman,,,,,"{""Q0"":""Kate is marrying ruth""}","<img src=""stim_listA/marry7.gif""style=""height:400px;""></stim_listA>",is marrying,
null,"<div style=""font-size:60px;"">+</div>",,html-keyboard-response,401,1768936,0.0-19.0-0.14,81840,List1A,white,woman,,,,null,,,,
null,"<img src=""stim_listA/talk2.gif""style=""height:400px;""></stim_listA>",,html-keyboard-response,402,1770941,0.0-19.0-1.14,81840,List1A,white,woman,,,,null,,,,
null,are talking to each other,,html-keyboard-response,403,1772945,0.0-19.0-2.14,81840,List1A,white,woman,,,,null,,,,
19799,,,survey-text,404,1792748,0.0-19.0-3.14,81840,List1A,white,woman,,,,,"{""Q0"":""Beth and mike are talking to each other ""}","<img src=""stim_listA/talk2.gif""style=""height:400px;""></stim_listA>",are talking to each other,
null,"<div style=""font-size:60px;"">+</div>",,html-keyboard-response,405,1793250,0.0-19.0-0.15,81840,List1A,white,woman,,,,null,,,,
null,"<img src=""stim_listA/shout4.gif""style=""height:400px;""></stim_listA>",,html-keyboard-response,406,1795254,0.0-19.0-1.15,81840,List1A,white,woman,,,,null,,,,
null,are shouting at each other,,html-keyboard-response,407,1797258,0.0-19.0-2.15,81840,List1A,white,woman,,,,null,,,,
9259,,,survey-text,408,1806521,0.0-19.0-3.15,81840,List1A,white,woman,,,,,"{""Q0"":""Jane and Dave are shouting at each other ""}","<img src=""stim_listA/shout4.gif""style=""height:400px;""></stim_listA>",are shouting at each other,
null,"<div style=""font-size:60px;"">+</div>",,html-keyboard-response,409,1807024,0.0-19.0-0.16,81840,List1A,white,woman,,,,null,,,,
null,"<img src=""stim_listA/fight5.gif""style=""height:400px;""></stim_listA>",,html-keyboard-response,410,1809029,0.0-19.0-1.16,81840,List1A,white,woman,,,,null,,,,
null,is fighting,,html-keyboard-response,411,1811033,0.0-19.0-2.16,81840,List1A,white,woman,,,,null,,,,
8964,,,survey-text,412,1820001,0.0-19.0-3.16,81840,List1A,white,woman,,,,,"{""Q0"":""Dave is fighting mike ""}","<img src=""stim_listA/fight5.gif""style=""height:400px;""></stim_listA>",is fighting,
null,"<div style=""font-size:60px;"">+</div>",,html-keyboard-response,413,1820506,0.0-19.0-0.17,81840,List1A,white,woman,,,,null,,,,
null,"<img src=""stim_listA/shout7.gif""style=""height:400px;""></stim_listA>",,html-keyboard-response,414,1822511,0.0-19.0-1.17,81840,List1A,white,woman,,,,null,,,,
null,is shouting at,,html-keyboard-response,415,1824515,0.0-19.0-2.17,81840,List1A,white,woman,,,,null,,,,
6852,,,survey-text,416,1831371,0.0-19.0-3.17,81840,List1A,white,woman,,,,,"{""Q0"":""Ruth is shouting at Beth ""}","<img src=""stim_listA/shout7.gif""style=""height:400px;""></stim_listA>",is shouting at,
null,"<div style=""font-size:60px;"">+</div>",,html-keyboard-response,417,1831875,0.0-19.0-0.18,81840,List1A,white,woman,,,,null,,,,
null,"<img src=""stim_listA/fight1.gif""style=""height:400px;""></stim_listA>",,html-keyboard-response,418,1833879,0.0-19.0-1.18,81840,List1A,white,woman,,,,null,,,,
null,is fighting,,html-keyboard-response,419,1835883,0.0-19.0-2.18,81840,List1A,white,woman,,,,null,,,,
9138,,,survey-text,420,1845025,0.0-19.0-3.18,81840,List1A,white,woman,,,,,"{""Q0"":""Kate is fighting mike ""}","<img src=""stim_listA/fight1.gif""style=""height:400px;""></stim_listA>",is fighting,
null,"<div style=""font-size:60px;"">+</div>",,html-keyboard-response,421,1845528,0.0-19.0-0.19,81840,List1A,white,woman,,,,null,,,,
null,"<img src=""stim_listA/play5.gif""style=""height:400px;""></stim_listA>",,html-keyboard-response,422,1847532,0.0-19.0-1.19,81840,List1A,white,woman,,,,null,,,,
null,is playing with,,html-keyboard-response,423,1849536,0.0-19.0-2.19,81840,List1A,white,woman,,,,null,,,,
6598,,,survey-text,424,1856140,0.0-19.0-3.19,81840,List1A,white,woman,,,,,"{""Q0"":""Dave is playing with mike ""}","<img src=""stim_listA/play5.gif""style=""height:400px;""></stim_listA>",is playing with,
1973,<p>Thank you for completing that task.</p><p>The final part of this session is a short questionnaire.</p><p>Press Continue.</p>,0,html-button-response,425,1858114,0.0-20.0,81840,List1A,white,woman,,,,,,,,
32301,,,survey-text,426,1891418,0.0-21.0,81840,List1A,white,woman,,,,,"{""Q0"":""28"",""Q1"":""English"",""Q2"":""English "",""Q3"":""England "",""Q4"":""White "",""Q5"":""Female ""}",,,demographics
7143,,,survey-likert,427,1898576,0.0-22.0,81840,List1A,white,woman,,,,,"{""Q0"":4}",,,likert_ESS
3512,,,survey-likert,428,1902095,0.0-23.0,81840,List1A,white,woman,,,,,"{""Q0"":4}",,,likert_NSSAL_Q1
1565,,,survey-likert,429,1903666,0.0-24.0,81840,List1A,white,woman,,,,,"{""Q0"":4}",,,likert_NSSAL_Q2
2458,,,survey-likert,430,1906130,0.0-25.0,81840,List1A,white,woman,,,,,"{""Q0"":4}",,,likert_CGRS_Q1
3021,,,survey-likert,431,1909156,0.0-26.0,81840,List1A,white,woman,,,,,"{""Q0"":4}",,,likert_CGRS_Q2
3016,,,survey-likert,432,1912180,0.0-27.0,81840,List1A,white,woman,,,,,"{""Q0"":4}",,,likert_CGRS_Q3
23215,,,survey-text,433,1935403,0.0-28.0,81840,List1A,white,woman,,,,,"{""Q0"":""ccc""}",,,worker_id
28474,,,external-html,434,1964211,0.0-29.0,81840,List1A,white,woman,debrief.html,,,,,,,
