rt,stimulus,button_pressed,trial_type,trial_index,time_elapsed,internal_node_id,subject,list,ppt_race,ppt_gender,url,first_guess,correct,key_press,responses,image_type,phrase_type,test_part
2456,Welcome to the experiment. Press Continue to begin.,0,html-button-response,0,2462,0.0-0.0,8199,List1A,white,man,,,,,,,,
12891,,,external-html,1,16529,0.0-1.0,8199,List1A,white,man,consent.html,,,,,,,
13039,"<p>On the next page, you will see portraits of 8 people and their names.</p><p>Your first task is to take a few minutes to memorise the names of these people.</p><p>You will have to recall their names during the rest of the experiment, so it is</p><p>essential that you try to memorise these people and their names as best as you can.</p><br><p><strong>You will then be tested on your memory of these names and portraits.</strong></p><br><p>The experiment will start after you have completed this memory test.</p><br><p>Ready?</p>",0,html-button-response,2,29570,0.0-2.0,8199,List1A,white,man,,,,,,,,
85704,"<img src='img/portrait_matrix_list1.jpg' style='width:900px;height:500px;''></img><p>If you have memorised all the portraits and names and are ready to start, press Continue.</p><p><strong>Please note: Your memory of these faces will be tested 4 times during this experiment.</strong></p>",0,html-button-response,3,116278,0.0-3.0-0.0,8199,List1A,white,man,,,,,,,,
4121,"<img src=""portrait/WM1.jpg""style=""height:400px;""></img>",6,html-button-response,4,121403,0.0-3.0-1.0,8199,List1A,white,man,,TRUE,6,,,,,
null,CORRECT,,html-keyboard-response,5,122908,0.0-3.0-2.0-0.0,8199,List1A,white,man,,,,null,,,,
3258,"<img src=""portrait/BM1.jpg""style=""height:400px;""></img>",4,html-button-response,6,126168,0.0-3.0-4.0,8199,List1A,white,man,,TRUE,4,,,,,
null,CORRECT,,html-keyboard-response,7,127673,0.0-3.0-5.0-0.0,8199,List1A,white,man,,,,null,,,,
3898,"<img src=""portrait/BW2.jpg""style=""height:400px;""></img>",2,html-button-response,8,131573,0.0-3.0-7.0,8199,List1A,white,man,,TRUE,2,,,,,
null,CORRECT,,html-keyboard-response,9,133076,0.0-3.0-8.0-0.0,8199,List1A,white,man,,,,null,,,,
4408,"<img src=""portrait/BW1.jpg""style=""height:400px;""></img>",0,html-button-response,10,137486,0.0-3.0-10.0,8199,List1A,white,man,,TRUE,0,,,,,
null,CORRECT,,html-keyboard-response,11,138989,0.0-3.0-11.0-0.0,8199,List1A,white,man,,,,null,,,,
2398,"<img src=""portrait/WM2.jpg""style=""height:400px;""></img>",7,html-button-response,12,141389,0.0-3.0-13.0,8199,List1A,white,man,,TRUE,7,,,,,
null,CORRECT,,html-keyboard-response,13,142892,0.0-3.0-14.0-0.0,8199,List1A,white,man,,,,null,,,,
3908,"<img src=""portrait/BM2.jpg""style=""height:400px;""></img>",5,html-button-response,14,146802,0.0-3.0-16.0,8199,List1A,white,man,,TRUE,5,,,,,
null,CORRECT,,html-keyboard-response,15,148306,0.0-3.0-17.0-0.0,8199,List1A,white,man,,,,null,,,,
5401,"<img src=""portrait/WW1.jpg""style=""height:400px;""></img>",1,html-button-response,16,153710,0.0-3.0-19.0,8199,List1A,white,man,,TRUE,1,,,,,
null,CORRECT,,html-keyboard-response,17,155214,0.0-3.0-20.0-0.0,8199,List1A,white,man,,,,null,,,,
2551,"<img src=""portrait/WW2.jpg""style=""height:400px;""></img>",3,html-button-response,18,157767,0.0-3.0-22.0,8199,List1A,white,man,,TRUE,3,,,,,
null,CORRECT,,html-keyboard-response,19,159270,0.0-3.0-23.0-0.0,8199,List1A,white,man,,,,null,,,,
2951,<p>You got 8 out of 8 right first time. Press Continue.</p>,0,html-button-response,20,162224,0.0-3.0-25.0,8199,List1A,white,man,,,,,,,,
29526,"<p>In this experiment, you will view photographs of the people from the memory game interacting.</p><p>By using the <strong>exact</strong> phrase given <i>after</i> the photograph appears and recalling the correct names of the people in the photographs, form a sentence describing the interaction. You do not need to capitalise names.</p><p>Type your answer in the space provided. Please complete every sentence before moving onto the next trial.</p><p>You will only have a few seconds to memorise each given photograph and phrase before you can respond, so try your best to focus.</p><p>An example is given below. Press 'Continue' when you are ready.</p><img src='img/speaking_example.jpg' style='width:800px;height:460px;''></img>",0,html-button-response,21,192753,0.0-4.0,8199,List1A,white,man,,,,,,,,
2840,"<p>Before the experiment starts, you will watch two example trials. Press 'Continue'.</p>",0,html-button-response,22,196596,0.0-5.0,8199,List1A,white,man,,,,,,,,
null,<img src='img/meet_eg.gif' style='height:400px;''></img>,,html-keyboard-response,23,199600,0.0-6.0,8199,List1A,white,man,,,,null,,,,
null,<p>is meeting</p>,,html-keyboard-response,24,201602,0.0-7.0,8199,List1A,white,man,,,,null,,,,
2354,<p><b>Answer:</b> kate is meeting beth</p>,0,html-button-response,25,203957,0.0-8.0,8199,List1A,white,man,,,,,,,,
null,<img src='img/look_eg.gif' style='height:400px;''></img>,,html-keyboard-response,26,206961,0.0-9.0,8199,List1A,white,man,,,,null,,,,
null,<p>are looking at each other</p>,,html-keyboard-response,27,208962,0.0-10.0,8199,List1A,white,man,,,,null,,,,
2955,<p><b>Answer:</b> luke and dave are looking at each other</p>,0,html-button-response,28,211919,0.0-11.0,8199,List1A,white,man,,,,,,,,
8913,"<p>Ready to start the experiment?</p><br><p><strong>Remember to describe the picture using a full sentence,</strong></p><p><strong>that combines the names of the people with the <i>exact</i> phrase given.</strong></p><p><strong>To receive full payment you must do this correctly.</strong></p><p><strong> You do not need to capitalise names or use punctuation.</strong></p><br><p>Press 'Continue' to begin.</p>",0,html-button-response,29,221835,0.0-12.0,8199,List1A,white,man,,,,,,,,
null,"<div style=""font-size:60px;"">+</div>",,html-keyboard-response,30,223339,0.0-13.0-0.0,8199,List1A,white,man,,,,null,,,,
null,"<img src=""stim_listA/kiss4.gif""style=""height:400px;""></stim_listA>",,html-keyboard-response,31,225343,0.0-13.0-1.0,8199,List1A,white,man,,,,null,,,,
null,are kissing each other,,html-keyboard-response,32,227344,0.0-13.0-2.0,8199,List1A,white,man,,,,null,,,,
12273,,,survey-text,33,239619,0.0-13.0-3.0,8199,List1A,white,man,,,,,"{""Q0"":""dave and jane are almost kissing""}","<img src=""stim_listA/kiss4.gif""style=""height:400px;""></stim_listA>",are kissing each other,
null,"<div style=""font-size:60px;"">+</div>",,html-keyboard-response,34,240122,0.0-13.0-0.1,8199,List1A,white,man,,,,null,,,,
null,"<img src=""stim_listA/marry1.gif""style=""height:400px;""></stim_listA>",,html-keyboard-response,35,242124,0.0-13.0-1.1,8199,List1A,white,man,,,,null,,,,
null,is marrying,,html-keyboard-response,36,244125,0.0-13.0-2.1,8199,List1A,white,man,,,,null,,,,
13414,,,survey-text,37,257541,0.0-13.0-3.1,8199,List1A,white,man,,,,,"{""Q0"":""beth and mike are holding their hands up""}","<img src=""stim_listA/marry1.gif""style=""height:400px;""></stim_listA>",is marrying,
null,"<div style=""font-size:60px;"">+</div>",,html-keyboard-response,38,258043,0.0-13.0-0.2,8199,List1A,white,man,,,,null,,,,
null,"<img src=""stim_listA/play7.gif""style=""height:400px;""></stim_listA>",,html-keyboard-response,39,260045,0.0-13.0-1.2,8199,List1A,white,man,,,,null,,,,
null,is playing with,,html-keyboard-response,40,262046,0.0-13.0-2.2,8199,List1A,white,man,,,,null,,,,
11433,,,survey-text,41,273481,0.0-13.0-3.2,8199,List1A,white,man,,,,,"{""Q0"":""kate is playing with jane""}","<img src=""stim_listA/play7.gif""style=""height:400px;""></stim_listA>",is playing with,
null,"<div style=""font-size:60px;"">+</div>",,html-keyboard-response,42,273983,0.0-13.0-0.3,8199,List1A,white,man,,,,null,,,,
null,"<img src=""stim_listA/kiss2.gif""style=""height:400px;""></stim_listA>",,html-keyboard-response,43,275986,0.0-13.0-1.3,8199,List1A,white,man,,,,null,,,,
null,are kissing each other,,html-keyboard-response,44,277987,0.0-13.0-2.3,8199,List1A,white,man,,,,null,,,,
9900,,,survey-text,45,287889,0.0-13.0-3.3,8199,List1A,white,man,,,,,"{""Q0"":""mike and kate are kissing each other""}","<img src=""stim_listA/kiss2.gif""style=""height:400px;""></stim_listA>",are kissing each other,
null,"<div style=""font-size:60px;"">+</div>",,html-keyboard-response,46,288392,0.0-13.0-0.4,8199,List1A,white,man,,,,null,,,,
null,"<img src=""stim_listA/dance1.gif""style=""height:400px;""></stim_listA>",,html-keyboard-response,47,290394,0.0-13.0-1.4,8199,List1A,white,man,,,,null,,,,
null,is dancing with,,html-keyboard-response,48,292395,0.0-13.0-2.4,8199,List1A,white,man,,,,null,,,,
10560,,,survey-text,49,302956,0.0-13.0-3.4,8199,List1A,white,man,,,,,"{""Q0"":""kate is dancing with fred""}","<img src=""stim_listA/dance1.gif""style=""height:400px;""></stim_listA>",is dancing with,
null,"<div style=""font-size:60px;"">+</div>",,html-keyboard-response,50,303458,0.0-13.0-0.5,8199,List1A,white,man,,,,null,,,,
null,"<img src=""stim_listA/touch7.gif""style=""height:400px;""></stim_listA>",,html-keyboard-response,51,305461,0.0-13.0-1.5,8199,List1A,white,man,,,,null,,,,
null,is touching,,html-keyboard-response,52,307463,0.0-13.0-2.5,8199,List1A,white,man,,,,null,,,,
6617,,,survey-text,53,314082,0.0-13.0-3.5,8199,List1A,white,man,,,,,"{""Q0"":""kate is touching jane""}","<img src=""stim_listA/touch7.gif""style=""height:400px;""></stim_listA>",is touching,
null,"<div style=""font-size:60px;"">+</div>",,html-keyboard-response,54,314583,0.0-13.0-0.6,8199,List1A,white,man,,,,null,,,,
null,"<img src=""stim_listA/touch8.gif""style=""height:400px;""></stim_listA>",,html-keyboard-response,55,316585,0.0-13.0-1.6,8199,List1A,white,man,,,,null,,,,
null,are touching each other,,html-keyboard-response,56,318587,0.0-13.0-2.6,8199,List1A,white,man,,,,null,,,,
9324,,,survey-text,57,327911,0.0-13.0-3.6,8199,List1A,white,man,,,,,"{""Q0"":""ruth and beth are touching each other""}","<img src=""stim_listA/touch8.gif""style=""height:400px;""></stim_listA>",are touching each other,
null,"<div style=""font-size:60px;"">+</div>",,html-keyboard-response,58,328413,0.0-13.0-0.7,8199,List1A,white,man,,,,null,,,,
null,"<img src=""stim_listA/marry3.gif""style=""height:400px;""></stim_listA>",,html-keyboard-response,59,330415,0.0-13.0-1.7,8199,List1A,white,man,,,,null,,,,
null,is marrying,,html-keyboard-response,60,332416,0.0-13.0-2.7,8199,List1A,white,man,,,,null,,,,
8830,,,survey-text,61,341247,0.0-13.0-3.7,8199,List1A,white,man,,,,,"{""Q0"":""ruth is marrying dave""}","<img src=""stim_listA/marry3.gif""style=""height:400px;""></stim_listA>",is marrying,
null,"<div style=""font-size:60px;"">+</div>",,html-keyboard-response,62,341749,0.0-13.0-0.8,8199,List1A,white,man,,,,null,,,,
null,"<img src=""stim_listA/argue8.gif""style=""height:400px;""></stim_listA>",,html-keyboard-response,63,343752,0.0-13.0-1.8,8199,List1A,white,man,,,,null,,,,
null,are arguing with each other,,html-keyboard-response,64,345754,0.0-13.0-2.8,8199,List1A,white,man,,,,null,,,,
12479,,,survey-text,65,358233,0.0-13.0-3.8,8199,List1A,white,man,,,,,"{""Q0"":""beth and jane are arguing with each other""}","<img src=""stim_listA/argue8.gif""style=""height:400px;""></stim_listA>",are arguing with each other,
null,"<div style=""font-size:60px;"">+</div>",,html-keyboard-response,66,358737,0.0-13.0-0.9,8199,List1A,white,man,,,,null,,,,
null,"<img src=""stim_listA/kiss5.gif""style=""height:400px;""></stim_listA>",,html-keyboard-response,67,360739,0.0-13.0-1.9,8199,List1A,white,man,,,,null,,,,
null,is kissing,,html-keyboard-response,68,362742,0.0-13.0-2.9,8199,List1A,white,man,,,,null,,,,
14090,,,survey-text,69,376833,0.0-13.0-3.9,8199,List1A,white,man,,,,,"{""Q0"":""fred and luke are arguing with each other""}","<img src=""stim_listA/kiss5.gif""style=""height:400px;""></stim_listA>",is kissing,
null,"<div style=""font-size:60px;"">+</div>",,html-keyboard-response,70,377335,0.0-13.0-0.10,8199,List1A,white,man,,,,null,,,,
null,"<img src=""stim_listA/shout7.gif""style=""height:400px;""></stim_listA>",,html-keyboard-response,71,379337,0.0-13.0-1.10,8199,List1A,white,man,,,,null,,,,
null,is shouting at,,html-keyboard-response,72,381340,0.0-13.0-2.10,8199,List1A,white,man,,,,null,,,,
8056,,,survey-text,73,389398,0.0-13.0-3.10,8199,List1A,white,man,,,,,"{""Q0"":""beth is shouting at ruth""}","<img src=""stim_listA/shout7.gif""style=""height:400px;""></stim_listA>",is shouting at,
null,"<div style=""font-size:60px;"">+</div>",,html-keyboard-response,74,389899,0.0-13.0-0.11,8199,List1A,white,man,,,,null,,,,
null,"<img src=""stim_listA/fight1.gif""style=""height:400px;""></stim_listA>",,html-keyboard-response,75,391902,0.0-13.0-1.11,8199,List1A,white,man,,,,null,,,,
null,is fighting,,html-keyboard-response,76,393904,0.0-13.0-2.11,8199,List1A,white,man,,,,null,,,,
10723,,,survey-text,77,404628,0.0-13.0-3.11,8199,List1A,white,man,,,,,"{""Q0"":""mike is fighting kate""}","<img src=""stim_listA/fight1.gif""style=""height:400px;""></stim_listA>",is fighting,
null,"<div style=""font-size:60px;"">+</div>",,html-keyboard-response,78,405131,0.0-13.0-0.12,8199,List1A,white,man,,,,null,,,,
null,"<img src=""stim_listA/shout2.gif""style=""height:400px;""></stim_listA>",,html-keyboard-response,79,407133,0.0-13.0-1.12,8199,List1A,white,man,,,,null,,,,
null,are shouting at each other,,html-keyboard-response,80,409135,0.0-13.0-2.12,8199,List1A,white,man,,,,null,,,,
9568,,,survey-text,81,418704,0.0-13.0-3.12,8199,List1A,white,man,,,,,"{""Q0"":""kate and mike are fighting with each other""}","<img src=""stim_listA/shout2.gif""style=""height:400px;""></stim_listA>",are shouting at each other,
null,"<div style=""font-size:60px;"">+</div>",,html-keyboard-response,82,419206,0.0-13.0-0.13,8199,List1A,white,man,,,,null,,,,
null,"<img src=""stim_listA/kiss7.gif""style=""height:400px;""></stim_listA>",,html-keyboard-response,83,421209,0.0-13.0-1.13,8199,List1A,white,man,,,,null,,,,
null,is kissing,,html-keyboard-response,84,423212,0.0-13.0-2.13,8199,List1A,white,man,,,,null,,,,
8737,,,survey-text,85,431949,0.0-13.0-3.13,8199,List1A,white,man,,,,,"{""Q0"":""beth is kissing ruth""}","<img src=""stim_listA/kiss7.gif""style=""height:400px;""></stim_listA>",is kissing,
null,"<div style=""font-size:60px;"">+</div>",,html-keyboard-response,86,432451,0.0-13.0-0.14,8199,List1A,white,man,,,,null,,,,
null,"<img src=""stim_listA/shout8.gif""style=""height:400px;""></stim_listA>",,html-keyboard-response,87,434453,0.0-13.0-1.14,8199,List1A,white,man,,,,null,,,,
null,are shouting at each other,,html-keyboard-response,88,436455,0.0-13.0-2.14,8199,List1A,white,man,,,,null,,,,
9161,,,survey-text,89,445617,0.0-13.0-3.14,8199,List1A,white,man,,,,,"{""Q0"":""Jane and kate are shouting at each other""}","<img src=""stim_listA/shout8.gif""style=""height:400px;""></stim_listA>",are shouting at each other,
null,"<div style=""font-size:60px;"">+</div>",,html-keyboard-response,90,446120,0.0-13.0-0.15,8199,List1A,white,man,,,,null,,,,
null,"<img src=""stim_listA/argue6.gif""style=""height:400px;""></stim_listA>",,html-keyboard-response,91,448122,0.0-13.0-1.15,8199,List1A,white,man,,,,null,,,,
null,are arguing with each other,,html-keyboard-response,92,450124,0.0-13.0-2.15,8199,List1A,white,man,,,,null,,,,
9092,,,survey-text,93,459218,0.0-13.0-3.15,8199,List1A,white,man,,,,,"{""Q0"":""fred and dave are arguing with each other""}","<img src=""stim_listA/argue6.gif""style=""height:400px;""></stim_listA>",are arguing with each other,
null,"<div style=""font-size:60px;"">+</div>",,html-keyboard-response,94,459721,0.0-13.0-0.16,8199,List1A,white,man,,,,null,,,,
null,"<img src=""stim_listA/argue5.gif""style=""height:400px;""></stim_listA>",,html-keyboard-response,95,461723,0.0-13.0-1.16,8199,List1A,white,man,,,,null,,,,
null,is arguing with,,html-keyboard-response,96,463724,0.0-13.0-2.16,8199,List1A,white,man,,,,null,,,,
7326,,,survey-text,97,471051,0.0-13.0-3.16,8199,List1A,white,man,,,,,"{""Q0"":""mike is arguing with luke""}","<img src=""stim_listA/argue5.gif""style=""height:400px;""></stim_listA>",is arguing with,
null,"<div style=""font-size:60px;"">+</div>",,html-keyboard-response,98,471554,0.0-13.0-0.17,8199,List1A,white,man,,,,null,,,,
null,"<img src=""stim_listA/touch3.gif""style=""height:400px;""></stim_listA>",,html-keyboard-response,99,473556,0.0-13.0-1.17,8199,List1A,white,man,,,,null,,,,
null,is touching,,html-keyboard-response,100,475558,0.0-13.0-2.17,8199,List1A,white,man,,,,null,,,,
9337,,,survey-text,101,484895,0.0-13.0-3.17,8199,List1A,white,man,,,,,"{""Q0"":""dave is touching jane""}","<img src=""stim_listA/touch3.gif""style=""height:400px;""></stim_listA>",is touching,
null,"<div style=""font-size:60px;"">+</div>",,html-keyboard-response,102,485398,0.0-13.0-0.18,8199,List1A,white,man,,,,null,,,,
null,"<img src=""stim_listA/argue1.gif""style=""height:400px;""></stim_listA>",,html-keyboard-response,103,487401,0.0-13.0-1.18,8199,List1A,white,man,,,,null,,,,
null,is arguing with,,html-keyboard-response,104,489404,0.0-13.0-2.18,8199,List1A,white,man,,,,null,,,,
6741,,,survey-text,105,496147,0.0-13.0-3.18,8199,List1A,white,man,,,,,"{""Q0"":""mike is arguing with beth""}","<img src=""stim_listA/argue1.gif""style=""height:400px;""></stim_listA>",is arguing with,
null,"<div style=""font-size:60px;"">+</div>",,html-keyboard-response,106,496648,0.0-13.0-0.19,8199,List1A,white,man,,,,null,,,,
null,"<img src=""stim_listA/talk4.gif""style=""height:400px;""></stim_listA>",,html-keyboard-response,107,498650,0.0-13.0-1.19,8199,List1A,white,man,,,,null,,,,
null,are talking to each other,,html-keyboard-response,108,500653,0.0-13.0-2.19,8199,List1A,white,man,,,,null,,,,
8931,,,survey-text,109,509584,0.0-13.0-3.19,8199,List1A,white,man,,,,,"{""Q0"":""dave and ruth are talking to each other""}","<img src=""stim_listA/talk4.gif""style=""height:400px;""></stim_listA>",are talking to each other,
12540,"<img src='img/portrait_matrix_list1.jpg' style='width:900px;height:500px;''></img><p>If you have memorised all the portraits and names and are ready to start, press Continue.</p><p><strong>Please note: Your memory of these faces will be tested 4 times during this experiment.</strong></p>",0,html-button-response,110,522126,0.0-14.0-0.0,8199,List1A,white,man,,,,,,,,
2618,"<img src=""portrait/BW2.jpg""style=""height:400px;""></img>",2,html-button-response,111,525746,0.0-14.0-1.0,8199,List1A,white,man,,TRUE,2,,,,,
null,CORRECT,,html-keyboard-response,112,527249,0.0-14.0-2.0-0.0,8199,List1A,white,man,,,,null,,,,
2599,"<img src=""portrait/BW1.jpg""style=""height:400px;""></img>",0,html-button-response,113,529849,0.0-14.0-4.0,8199,List1A,white,man,,TRUE,0,,,,,
null,CORRECT,,html-keyboard-response,114,531354,0.0-14.0-5.0-0.0,8199,List1A,white,man,,,,null,,,,
3406,"<img src=""portrait/WW1.jpg""style=""height:400px;""></img>",1,html-button-response,115,534762,0.0-14.0-7.0,8199,List1A,white,man,,TRUE,1,,,,,
null,CORRECT,,html-keyboard-response,116,536266,0.0-14.0-8.0-0.0,8199,List1A,white,man,,,,null,,,,
2945,"<img src=""portrait/WM1.jpg""style=""height:400px;""></img>",6,html-button-response,117,539212,0.0-14.0-10.0,8199,List1A,white,man,,TRUE,6,,,,,
null,CORRECT,,html-keyboard-response,118,540716,0.0-14.0-11.0-0.0,8199,List1A,white,man,,,,null,,,,
1881,"<img src=""portrait/BM1.jpg""style=""height:400px;""></img>",4,html-button-response,119,542599,0.0-14.0-13.0,8199,List1A,white,man,,TRUE,4,,,,,
null,CORRECT,,html-keyboard-response,120,544103,0.0-14.0-14.0-0.0,8199,List1A,white,man,,,,null,,,,
1923,"<img src=""portrait/WM2.jpg""style=""height:400px;""></img>",7,html-button-response,121,546027,0.0-14.0-16.0,8199,List1A,white,man,,TRUE,7,,,,,
null,CORRECT,,html-keyboard-response,122,547531,0.0-14.0-17.0-0.0,8199,List1A,white,man,,,,null,,,,
1535,"<img src=""portrait/WW2.jpg""style=""height:400px;""></img>",3,html-button-response,123,549068,0.0-14.0-19.0,8199,List1A,white,man,,TRUE,3,,,,,
null,CORRECT,,html-keyboard-response,124,550571,0.0-14.0-20.0-0.0,8199,List1A,white,man,,,,null,,,,
3055,"<img src=""portrait/BM2.jpg""style=""height:400px;""></img>",5,html-button-response,125,553627,0.0-14.0-22.0,8199,List1A,white,man,,TRUE,5,,,,,
null,CORRECT,,html-keyboard-response,126,555132,0.0-14.0-23.0-0.0,8199,List1A,white,man,,,,null,,,,
1034,<p>You got 8 out of 8 right first time. Press Continue.</p>,0,html-button-response,127,556167,0.0-14.0-25.0,8199,List1A,white,man,,,,,,,,
null,"<div style=""font-size:60px;"">+</div>",,html-keyboard-response,128,557670,0.0-15.0-0.0,8199,List1A,white,man,,,,null,,,,
null,"<img src=""stim_listA/fight4.gif""style=""height:400px;""></stim_listA>",,html-keyboard-response,129,559672,0.0-15.0-1.0,8199,List1A,white,man,,,,null,,,,
null,are fighting each other,,html-keyboard-response,130,561674,0.0-15.0-2.0,8199,List1A,white,man,,,,null,,,,
9439,,,survey-text,131,571115,0.0-15.0-3.0,8199,List1A,white,man,,,,,"{""Q0"":""ruth and luke are fighting each other""}","<img src=""stim_listA/fight4.gif""style=""height:400px;""></stim_listA>",are fighting each other,
null,"<div style=""font-size:60px;"">+</div>",,html-keyboard-response,132,571616,0.0-15.0-0.1,8199,List1A,white,man,,,,null,,,,
null,"<img src=""stim_listA/talk7.gif""style=""height:400px;""></stim_listA>",,html-keyboard-response,133,573618,0.0-15.0-1.1,8199,List1A,white,man,,,,null,,,,
null,is talking to,,html-keyboard-response,134,575620,0.0-15.0-2.1,8199,List1A,white,man,,,,null,,,,
7384,,,survey-text,135,583006,0.0-15.0-3.1,8199,List1A,white,man,,,,,"{""Q0"":""Jane is talking to beth""}","<img src=""stim_listA/talk7.gif""style=""height:400px;""></stim_listA>",is talking to,
null,"<div style=""font-size:60px;"">+</div>",,html-keyboard-response,136,583507,0.0-15.0-0.2,8199,List1A,white,man,,,,null,,,,
null,"<img src=""stim_listA/play3.gif""style=""height:400px;""></stim_listA>",,html-keyboard-response,137,585508,0.0-15.0-1.2,8199,List1A,white,man,,,,null,,,,
null,is playing with,,html-keyboard-response,138,587510,0.0-15.0-2.2,8199,List1A,white,man,,,,null,,,,
7445,,,survey-text,139,594956,0.0-15.0-3.2,8199,List1A,white,man,,,,,"{""Q0"":""dave is playing with jane""}","<img src=""stim_listA/play3.gif""style=""height:400px;""></stim_listA>",is playing with,
null,"<div style=""font-size:60px;"">+</div>",,html-keyboard-response,140,595459,0.0-15.0-0.3,8199,List1A,white,man,,,,null,,,,
null,"<img src=""stim_listA/argue2.gif""style=""height:400px;""></stim_listA>",,html-keyboard-response,141,597461,0.0-15.0-1.3,8199,List1A,white,man,,,,null,,,,
null,are arguing with each other,,html-keyboard-response,142,599462,0.0-15.0-2.3,8199,List1A,white,man,,,,null,,,,
8953,,,survey-text,143,608416,0.0-15.0-3.3,8199,List1A,white,man,,,,,"{""Q0"":""kate and fred are arguing with each other""}","<img src=""stim_listA/argue2.gif""style=""height:400px;""></stim_listA>",are arguing with each other,
null,"<div style=""font-size:60px;"">+</div>",,html-keyboard-response,144,608919,0.0-15.0-0.4,8199,List1A,white,man,,,,null,,,,
null,"<img src=""stim_listA/dance7.gif""style=""height:400px;""></stim_listA>",,html-keyboard-response,145,610922,0.0-15.0-1.4,8199,List1A,white,man,,,,null,,,,
null,is dancing with,,html-keyboard-response,146,612926,0.0-15.0-2.4,8199,List1A,white,man,,,,null,,,,
6756,,,survey-text,147,619682,0.0-15.0-3.4,8199,List1A,white,man,,,,,"{""Q0"":""jane is dancing with beth""}","<img src=""stim_listA/dance7.gif""style=""height:400px;""></stim_listA>",is dancing with,
null,"<div style=""font-size:60px;"">+</div>",,html-keyboard-response,148,620184,0.0-15.0-0.5,8199,List1A,white,man,,,,null,,,,
null,"<img src=""stim_listA/dance6.gif""style=""height:400px;""></stim_listA>",,html-keyboard-response,149,622186,0.0-15.0-1.5,8199,List1A,white,man,,,,null,,,,
null,are dancing with each other,,html-keyboard-response,150,624187,0.0-15.0-2.5,8199,List1A,white,man,,,,null,,,,
8468,,,survey-text,151,632656,0.0-15.0-3.5,8199,List1A,white,man,,,,,"{""Q0"":""mike and luke are dancing with each other""}","<img src=""stim_listA/dance6.gif""style=""height:400px;""></stim_listA>",are dancing with each other,
null,"<div style=""font-size:60px;"">+</div>",,html-keyboard-response,152,633159,0.0-15.0-0.6,8199,List1A,white,man,,,,null,,,,
null,"<img src=""stim_listA/dance2.gif""style=""height:400px;""></stim_listA>",,html-keyboard-response,153,635161,0.0-15.0-1.6,8199,List1A,white,man,,,,null,,,,
null,are dancing with each other,,html-keyboard-response,154,637162,0.0-15.0-2.6,8199,List1A,white,man,,,,null,,,,
9217,,,survey-text,155,646381,0.0-15.0-3.6,8199,List1A,white,man,,,,,"{""Q0"":""beth and mike are dancing with each other""}","<img src=""stim_listA/dance2.gif""style=""height:400px;""></stim_listA>",are dancing with each other,
null,"<div style=""font-size:60px;"">+</div>",,html-keyboard-response,156,646883,0.0-15.0-0.7,8199,List1A,white,man,,,,null,,,,
null,"<img src=""stim_listA/flirt2.gif""style=""height:400px;""></stim_listA>",,html-keyboard-response,157,648885,0.0-15.0-1.7,8199,List1A,white,man,,,,null,,,,
null,are flirting with each other,,html-keyboard-response,158,650887,0.0-15.0-2.7,8199,List1A,white,man,,,,null,,,,
8789,,,survey-text,159,659678,0.0-15.0-3.7,8199,List1A,white,man,,,,,"{""Q0"":""beth and mike are flirting with each other""}","<img src=""stim_listA/flirt2.gif""style=""height:400px;""></stim_listA>",are flirting with each other,
null,"<div style=""font-size:60px;"">+</div>",,html-keyboard-response,160,660180,0.0-15.0-0.8,8199,List1A,white,man,,,,null,,,,
null,"<img src=""stim_listA/kiss3.gif""style=""height:400px;""></stim_listA>",,html-keyboard-response,161,662183,0.0-15.0-1.8,8199,List1A,white,man,,,,null,,,,
null,is kissing,,html-keyboard-response,162,664183,0.0-15.0-2.8,8199,List1A,white,man,,,,null,,,,
7222,,,survey-text,163,671406,0.0-15.0-3.8,8199,List1A,white,man,,,,,"{""Q0"":""ruth is kissing luke""}","<img src=""stim_listA/kiss3.gif""style=""height:400px;""></stim_listA>",is kissing,
null,"<div style=""font-size:60px;"">+</div>",,html-keyboard-response,164,671908,0.0-15.0-0.9,8199,List1A,white,man,,,,null,,,,
null,"<img src=""stim_listA/shout1.gif""style=""height:400px;""></stim_listA>",,html-keyboard-response,165,673911,0.0-15.0-1.9,8199,List1A,white,man,,,,null,,,,
null,is shouting at,,html-keyboard-response,166,675912,0.0-15.0-2.9,8199,List1A,white,man,,,,null,,,,
7836,,,survey-text,167,683749,0.0-15.0-3.9,8199,List1A,white,man,,,,,"{""Q0"":""fred is shouting at beth""}","<img src=""stim_listA/shout1.gif""style=""height:400px;""></stim_listA>",is shouting at,
null,"<div style=""font-size:60px;"">+</div>",,html-keyboard-response,168,684252,0.0-15.0-0.10,8199,List1A,white,man,,,,null,,,,
null,"<img src=""stim_listA/kiss8.gif""style=""height:400px;""></stim_listA>",,html-keyboard-response,169,686255,0.0-15.0-1.10,8199,List1A,white,man,,,,null,,,,
null,are kissing each other,,html-keyboard-response,170,688256,0.0-15.0-2.10,8199,List1A,white,man,,,,null,,,,
7411,,,survey-text,171,695670,0.0-15.0-3.10,8199,List1A,white,man,,,,,"{""Q0"":""jane and kate are kissing each other""}","<img src=""stim_listA/kiss8.gif""style=""height:400px;""></stim_listA>",are kissing each other,
null,"<div style=""font-size:60px;"">+</div>",,html-keyboard-response,172,696174,0.0-15.0-0.11,8199,List1A,white,man,,,,null,,,,
null,"<img src=""stim_listA/marry5.gif""style=""height:400px;""></stim_listA>",,html-keyboard-response,173,698177,0.0-15.0-1.11,8199,List1A,white,man,,,,null,,,,
null,is marrying,,html-keyboard-response,174,700180,0.0-15.0-2.11,8199,List1A,white,man,,,,null,,,,
6290,,,survey-text,175,706471,0.0-15.0-3.11,8199,List1A,white,man,,,,,"{""Q0"":""mike is marrying luke""}","<img src=""stim_listA/marry5.gif""style=""height:400px;""></stim_listA>",is marrying,
null,"<div style=""font-size:60px;"">+</div>",,html-keyboard-response,176,706974,0.0-15.0-0.12,8199,List1A,white,man,,,,null,,,,
null,"<img src=""stim_listA/fight8.gif""style=""height:400px;""></stim_listA>",,html-keyboard-response,177,708976,0.0-15.0-1.12,8199,List1A,white,man,,,,null,,,,
null,are fighting each other,,html-keyboard-response,178,710977,0.0-15.0-2.12,8199,List1A,white,man,,,,null,,,,
7881,,,survey-text,179,718859,0.0-15.0-3.12,8199,List1A,white,man,,,,,"{""Q0"":""beth and ruth are fighting each other""}","<img src=""stim_listA/fight8.gif""style=""height:400px;""></stim_listA>",are fighting each other,
null,"<div style=""font-size:60px;"">+</div>",,html-keyboard-response,180,719360,0.0-15.0-0.13,8199,List1A,white,man,,,,null,,,,
null,"<img src=""stim_listA/talk6.gif""style=""height:400px;""></stim_listA>",,html-keyboard-response,181,721362,0.0-15.0-1.13,8199,List1A,white,man,,,,null,,,,
null,are talking to each other,,html-keyboard-response,182,723365,0.0-15.0-2.13,8199,List1A,white,man,,,,null,,,,
8924,,,survey-text,183,732289,0.0-15.0-3.13,8199,List1A,white,man,,,,,"{""Q0"":""luke and mike are talking to each other""}","<img src=""stim_listA/talk6.gif""style=""height:400px;""></stim_listA>",are talking to each other,
null,"<div style=""font-size:60px;"">+</div>",,html-keyboard-response,184,732791,0.0-15.0-0.14,8199,List1A,white,man,,,,null,,,,
null,"<img src=""stim_listA/shout4.gif""style=""height:400px;""></stim_listA>",,html-keyboard-response,185,734794,0.0-15.0-1.14,8199,List1A,white,man,,,,null,,,,
null,are shouting at each other,,html-keyboard-response,186,736796,0.0-15.0-2.14,8199,List1A,white,man,,,,null,,,,
7421,,,survey-text,187,744218,0.0-15.0-3.14,8199,List1A,white,man,,,,,"{""Q0"":""dave and jane are shouting at each other""}","<img src=""stim_listA/shout4.gif""style=""height:400px;""></stim_listA>",are shouting at each other,
null,"<div style=""font-size:60px;"">+</div>",,html-keyboard-response,188,744720,0.0-15.0-0.15,8199,List1A,white,man,,,,null,,,,
null,"<img src=""stim_listA/play2.gif""style=""height:400px;""></stim_listA>",,html-keyboard-response,189,746722,0.0-15.0-1.15,8199,List1A,white,man,,,,null,,,,
null,are playing with each other,,html-keyboard-response,190,748724,0.0-15.0-2.15,8199,List1A,white,man,,,,null,,,,
11802,,,survey-text,191,760528,0.0-15.0-3.15,8199,List1A,white,man,,,,,"{""Q0"":""fred and beth are arguing with each other""}","<img src=""stim_listA/play2.gif""style=""height:400px;""></stim_listA>",are playing with each other,
null,"<div style=""font-size:60px;"">+</div>",,html-keyboard-response,192,761030,0.0-15.0-0.16,8199,List1A,white,man,,,,null,,,,
null,"<img src=""stim_listA/kiss6.gif""style=""height:400px;""></stim_listA>",,html-keyboard-response,193,763033,0.0-15.0-1.16,8199,List1A,white,man,,,,null,,,,
null,are kissing each other,,html-keyboard-response,194,765034,0.0-15.0-2.16,8199,List1A,white,man,,,,null,,,,
7735,,,survey-text,195,772770,0.0-15.0-3.16,8199,List1A,white,man,,,,,"{""Q0"":""dave and mike are kissing each other""}","<img src=""stim_listA/kiss6.gif""style=""height:400px;""></stim_listA>",are kissing each other,
null,"<div style=""font-size:60px;"">+</div>",,html-keyboard-response,196,773272,0.0-15.0-0.17,8199,List1A,white,man,,,,null,,,,
null,"<img src=""stim_listA/shout6.gif""style=""height:400px;""></stim_listA>",,html-keyboard-response,197,775276,0.0-15.0-1.17,8199,List1A,white,man,,,,null,,,,
null,are shouting at each other,,html-keyboard-response,198,777277,0.0-15.0-2.17,8199,List1A,white,man,,,,null,,,,
8615,,,survey-text,199,785892,0.0-15.0-3.17,8199,List1A,white,man,,,,,"{""Q0"":""dave and mike are shouting at each other""}","<img src=""stim_listA/shout6.gif""style=""height:400px;""></stim_listA>",are shouting at each other,
null,"<div style=""font-size:60px;"">+</div>",,html-keyboard-response,200,786394,0.0-15.0-0.18,8199,List1A,white,man,,,,null,,,,
null,"<img src=""stim_listA/talk3.gif""style=""height:400px;""></stim_listA>",,html-keyboard-response,201,788397,0.0-15.0-1.18,8199,List1A,white,man,,,,null,,,,
null,is talking to,,html-keyboard-response,202,790398,0.0-15.0-2.18,8199,List1A,white,man,,,,null,,,,
7222,,,survey-text,203,797621,0.0-15.0-3.18,8199,List1A,white,man,,,,,"{""Q0"":""jane is talking to luke""}","<img src=""stim_listA/talk3.gif""style=""height:400px;""></stim_listA>",is talking to,
null,"<div style=""font-size:60px;"">+</div>",,html-keyboard-response,204,798123,0.0-15.0-0.19,8199,List1A,white,man,,,,null,,,,
null,"<img src=""stim_listA/flirt1.gif""style=""height:400px;""></stim_listA>",,html-keyboard-response,205,800125,0.0-15.0-1.19,8199,List1A,white,man,,,,null,,,,
null,is flirting with,,html-keyboard-response,206,802128,0.0-15.0-2.19,8199,List1A,white,man,,,,null,,,,
6441,,,survey-text,207,808571,0.0-15.0-3.19,8199,List1A,white,man,,,,,"{""Q0"":""fred is flirting with kate""}","<img src=""stim_listA/flirt1.gif""style=""height:400px;""></stim_listA>",is flirting with,
3993,"<img src='img/portrait_matrix_list1.jpg' style='width:900px;height:500px;''></img><p>If you have memorised all the portraits and names and are ready to start, press Continue.</p><p><strong>Please note: Your memory of these faces will be tested 4 times during this experiment.</strong></p>",0,html-button-response,208,812566,0.0-16.0-0.0,8199,List1A,white,man,,,,,,,,
1854,"<img src=""portrait/BM1.jpg""style=""height:400px;""></img>",4,html-button-response,209,815423,0.0-16.0-1.0,8199,List1A,white,man,,TRUE,4,,,,,
null,CORRECT,,html-keyboard-response,210,816927,0.0-16.0-2.0-0.0,8199,List1A,white,man,,,,null,,,,
1860,"<img src=""portrait/BW2.jpg""style=""height:400px;""></img>",2,html-button-response,211,818789,0.0-16.0-4.0,8199,List1A,white,man,,TRUE,2,,,,,
null,CORRECT,,html-keyboard-response,212,820293,0.0-16.0-5.0-0.0,8199,List1A,white,man,,,,null,,,,
4097,"<img src=""portrait/WM1.jpg""style=""height:400px;""></img>",6,html-button-response,213,824393,0.0-16.0-7.0,8199,List1A,white,man,,TRUE,6,,,,,
null,CORRECT,,html-keyboard-response,214,825896,0.0-16.0-8.0-0.0,8199,List1A,white,man,,,,null,,,,
2068,"<img src=""portrait/WM2.jpg""style=""height:400px;""></img>",7,html-button-response,215,827966,0.0-16.0-10.0,8199,List1A,white,man,,TRUE,7,,,,,
null,CORRECT,,html-keyboard-response,216,829470,0.0-16.0-11.0-0.0,8199,List1A,white,man,,,,null,,,,
2767,"<img src=""portrait/WW1.jpg""style=""height:400px;""></img>",1,html-button-response,217,832239,0.0-16.0-13.0,8199,List1A,white,man,,TRUE,1,,,,,
null,CORRECT,,html-keyboard-response,218,833743,0.0-16.0-14.0-0.0,8199,List1A,white,man,,,,null,,,,
1967,"<img src=""portrait/BM2.jpg""style=""height:400px;""></img>",5,html-button-response,219,835712,0.0-16.0-16.0,8199,List1A,white,man,,TRUE,5,,,,,
null,CORRECT,,html-keyboard-response,220,837216,0.0-16.0-17.0-0.0,8199,List1A,white,man,,,,null,,,,
3507,"<img src=""portrait/BW1.jpg""style=""height:400px;""></img>",0,html-button-response,221,840725,0.0-16.0-19.0,8199,List1A,white,man,,TRUE,0,,,,,
null,CORRECT,,html-keyboard-response,222,842229,0.0-16.0-20.0-0.0,8199,List1A,white,man,,,,null,,,,
1596,"<img src=""portrait/WW2.jpg""style=""height:400px;""></img>",3,html-button-response,223,843826,0.0-16.0-22.0,8199,List1A,white,man,,TRUE,3,,,,,
null,CORRECT,,html-keyboard-response,224,845330,0.0-16.0-23.0-0.0,8199,List1A,white,man,,,,null,,,,
4280,<p>You got 8 out of 8 right first time. Press Continue.</p>,0,html-button-response,225,849612,0.0-16.0-25.0,8199,List1A,white,man,,,,,,,,
null,"<div style=""font-size:60px;"">+</div>",,html-keyboard-response,226,851116,0.0-17.0-0.0,8199,List1A,white,man,,,,null,,,,
null,"<img src=""stim_listA/argue4.gif""style=""height:400px;""></stim_listA>",,html-keyboard-response,227,853118,0.0-17.0-1.0,8199,List1A,white,man,,,,null,,,,
null,are arguing with each other,,html-keyboard-response,228,855120,0.0-17.0-2.0,8199,List1A,white,man,,,,null,,,,
10406,,,survey-text,229,865527,0.0-17.0-3.0,8199,List1A,white,man,,,,,"{""Q0"":""luke and jane are arguing with each other""}","<img src=""stim_listA/argue4.gif""style=""height:400px;""></stim_listA>",are arguing with each other,
null,"<div style=""font-size:60px;"">+</div>",,html-keyboard-response,230,866029,0.0-17.0-0.1,8199,List1A,white,man,,,,null,,,,
null,"<img src=""stim_listA/talk1.gif""style=""height:400px;""></stim_listA>",,html-keyboard-response,231,868032,0.0-17.0-1.1,8199,List1A,white,man,,,,null,,,,
null,is talking to,,html-keyboard-response,232,870033,0.0-17.0-2.1,8199,List1A,white,man,,,,null,,,,
5951,,,survey-text,233,875986,0.0-17.0-3.1,8199,List1A,white,man,,,,,"{""Q0"":""kate is talking to fred""}","<img src=""stim_listA/talk1.gif""style=""height:400px;""></stim_listA>",is talking to,
null,"<div style=""font-size:60px;"">+</div>",,html-keyboard-response,234,876489,0.0-17.0-0.2,8199,List1A,white,man,,,,null,,,,
null,"<img src=""stim_listA/flirt7.gif""style=""height:400px;""></stim_listA>",,html-keyboard-response,235,878491,0.0-17.0-1.2,8199,List1A,white,man,,,,null,,,,
null,is flirting with,,html-keyboard-response,236,880496,0.0-17.0-2.2,8199,List1A,white,man,,,,null,,,,
8920,,,survey-text,237,889418,0.0-17.0-3.2,8199,List1A,white,man,,,,,"{""Q0"":""beth is flirting with jane""}","<img src=""stim_listA/flirt7.gif""style=""height:400px;""></stim_listA>",is flirting with,
null,"<div style=""font-size:60px;"">+</div>",,html-keyboard-response,238,889921,0.0-17.0-0.3,8199,List1A,white,man,,,,null,,,,
null,"<img src=""stim_listA/dance4.gif""style=""height:400px;""></stim_listA>",,html-keyboard-response,239,891923,0.0-17.0-1.3,8199,List1A,white,man,,,,null,,,,
null,are dancing with each other,,html-keyboard-response,240,893925,0.0-17.0-2.3,8199,List1A,white,man,,,,null,,,,
8780,,,survey-text,241,902707,0.0-17.0-3.3,8199,List1A,white,man,,,,,"{""Q0"":""ruth and dave are dancing with each other""}","<img src=""stim_listA/dance4.gif""style=""height:400px;""></stim_listA>",are dancing with each other,
null,"<div style=""font-size:60px;"">+</div>",,html-keyboard-response,242,903210,0.0-17.0-0.4,8199,List1A,white,man,,,,null,,,,
null,"<img src=""stim_listA/marry8.gif""style=""height:400px;""></stim_listA>",,html-keyboard-response,243,905213,0.0-17.0-1.4,8199,List1A,white,man,,,,null,,,,
null,are marrying each other,,html-keyboard-response,244,907215,0.0-17.0-2.4,8199,List1A,white,man,,,,null,,,,
6994,,,survey-text,245,914209,0.0-17.0-3.4,8199,List1A,white,man,,,,,"{""Q0"":""jane and kate are marrying each other""}","<img src=""stim_listA/marry8.gif""style=""height:400px;""></stim_listA>",are marrying each other,
null,"<div style=""font-size:60px;"">+</div>",,html-keyboard-response,246,914711,0.0-17.0-0.5,8199,List1A,white,man,,,,null,,,,
null,"<img src=""stim_listA/marry2.gif""style=""height:400px;""></stim_listA>",,html-keyboard-response,247,916713,0.0-17.0-1.5,8199,List1A,white,man,,,,null,,,,
null,are marrying each other,,html-keyboard-response,248,918716,0.0-17.0-2.5,8199,List1A,white,man,,,,null,,,,
7976,,,survey-text,249,926694,0.0-17.0-3.5,8199,List1A,white,man,,,,,"{""Q0"":""kate and fred are marrying each other""}","<img src=""stim_listA/marry2.gif""style=""height:400px;""></stim_listA>",are marrying each other,
null,"<div style=""font-size:60px;"">+</div>",,html-keyboard-response,250,927197,0.0-17.0-0.6,8199,List1A,white,man,,,,null,,,,
null,"<img src=""stim_listA/play5.gif""style=""height:400px;""></stim_listA>",,html-keyboard-response,251,929198,0.0-17.0-1.6,8199,List1A,white,man,,,,null,,,,
null,is playing with,,html-keyboard-response,252,931200,0.0-17.0-2.6,8199,List1A,white,man,,,,null,,,,
7184,,,survey-text,253,938385,0.0-17.0-3.6,8199,List1A,white,man,,,,,"{""Q0"":""dave is playing with mike""}","<img src=""stim_listA/play5.gif""style=""height:400px;""></stim_listA>",is playing with,
null,"<div style=""font-size:60px;"">+</div>",,html-keyboard-response,254,938887,0.0-17.0-0.7,8199,List1A,white,man,,,,null,,,,
null,"<img src=""stim_listA/marry7.gif""style=""height:400px;""></stim_listA>",,html-keyboard-response,255,940889,0.0-17.0-1.7,8199,List1A,white,man,,,,null,,,,
null,is marrying,,html-keyboard-response,256,942892,0.0-17.0-2.7,8199,List1A,white,man,,,,null,,,,
6302,,,survey-text,257,949195,0.0-17.0-3.7,8199,List1A,white,man,,,,,"{""Q0"":""kate is marrying ruth""}","<img src=""stim_listA/marry7.gif""style=""height:400px;""></stim_listA>",is marrying,
null,"<div style=""font-size:60px;"">+</div>",,html-keyboard-response,258,949698,0.0-17.0-0.8,8199,List1A,white,man,,,,null,,,,
null,"<img src=""stim_listA/fight7.gif""style=""height:400px;""></stim_listA>",,html-keyboard-response,259,951699,0.0-17.0-1.8,8199,List1A,white,man,,,,null,,,,
null,is fighting,,html-keyboard-response,260,953701,0.0-17.0-2.8,8199,List1A,white,man,,,,null,,,,
6766,,,survey-text,261,960469,0.0-17.0-3.8,8199,List1A,white,man,,,,,"{""Q0"":""kate is fighting jane""}","<img src=""stim_listA/fight7.gif""style=""height:400px;""></stim_listA>",is fighting,
null,"<div style=""font-size:60px;"">+</div>",,html-keyboard-response,262,960971,0.0-17.0-0.9,8199,List1A,white,man,,,,null,,,,
null,"<img src=""stim_listA/fight6.gif""style=""height:400px;""></stim_listA>",,html-keyboard-response,263,962973,0.0-17.0-1.9,8199,List1A,white,man,,,,null,,,,
null,are fighting each other,,html-keyboard-response,264,964975,0.0-17.0-2.9,8199,List1A,white,man,,,,null,,,,
9285,,,survey-text,265,974260,0.0-17.0-3.9,8199,List1A,white,man,,,,,"{""Q0"":""fred and luke are fighting each other""}","<img src=""stim_listA/fight6.gif""style=""height:400px;""></stim_listA>",are fighting each other,
null,"<div style=""font-size:60px;"">+</div>",,html-keyboard-response,266,974762,0.0-17.0-0.10,8199,List1A,white,man,,,,null,,,,
null,"<img src=""stim_listA/talk8.gif""style=""height:400px;""></stim_listA>",,html-keyboard-response,267,976765,0.0-17.0-1.10,8199,List1A,white,man,,,,null,,,,
null,are talking to each other,,html-keyboard-response,268,978767,0.0-17.0-2.10,8199,List1A,white,man,,,,null,,,,
10949,,,survey-text,269,989717,0.0-17.0-3.10,8199,List1A,white,man,,,,,"{""Q0"":""ruth and kate are talking to each other""}","<img src=""stim_listA/talk8.gif""style=""height:400px;""></stim_listA>",are talking to each other,
null,"<div style=""font-size:60px;"">+</div>",,html-keyboard-response,270,990220,0.0-17.0-0.11,8199,List1A,white,man,,,,null,,,,
null,"<img src=""stim_listA/dance5.gif""style=""height:400px;""></stim_listA>",,html-keyboard-response,271,992223,0.0-17.0-1.11,8199,List1A,white,man,,,,null,,,,
null,is dancing with,,html-keyboard-response,272,994223,0.0-17.0-2.11,8199,List1A,white,man,,,,null,,,,
7311,,,survey-text,273,1001535,0.0-17.0-3.11,8199,List1A,white,man,,,,,"{""Q0"":""dave is dancing with fred""}","<img src=""stim_listA/dance5.gif""style=""height:400px;""></stim_listA>",is dancing with,
null,"<div style=""font-size:60px;"">+</div>",,html-keyboard-response,274,1002038,0.0-17.0-0.12,8199,List1A,white,man,,,,null,,,,
null,"<img src=""stim_listA/talk2.gif""style=""height:400px;""></stim_listA>",,html-keyboard-response,275,1004041,0.0-17.0-1.12,8199,List1A,white,man,,,,null,,,,
null,are talking to each other,,html-keyboard-response,276,1006043,0.0-17.0-2.12,8199,List1A,white,man,,,,null,,,,
14181,,,survey-text,277,1020225,0.0-17.0-3.12,8199,List1A,white,man,,,,,"{""Q0"":""mike and beth are talking to each other""}","<img src=""stim_listA/talk2.gif""style=""height:400px;""></stim_listA>",are talking to each other,
null,"<div style=""font-size:60px;"">+</div>",,html-keyboard-response,278,1020728,0.0-17.0-0.13,8199,List1A,white,man,,,,null,,,,
null,"<img src=""stim_listA/touch4.gif""style=""height:400px;""></stim_listA>",,html-keyboard-response,279,1022731,0.0-17.0-1.13,8199,List1A,white,man,,,,null,,,,
null,are touching each other,,html-keyboard-response,280,1024733,0.0-17.0-2.13,8199,List1A,white,man,,,,null,,,,
10301,,,survey-text,281,1035036,0.0-17.0-3.13,8199,List1A,white,man,,,,,"{""Q0"":""ruth and luke are touching each other""}","<img src=""stim_listA/touch4.gif""style=""height:400px;""></stim_listA>",are touching each other,
null,"<div style=""font-size:60px;"">+</div>",,html-keyboard-response,282,1035538,0.0-17.0-0.14,8199,List1A,white,man,,,,null,,,,
null,"<img src=""stim_listA/flirt8.gif""style=""height:400px;""></stim_listA>",,html-keyboard-response,283,1037540,0.0-17.0-1.14,8199,List1A,white,man,,,,null,,,,
null,are flirting with each other,,html-keyboard-response,284,1039542,0.0-17.0-2.14,8199,List1A,white,man,,,,null,,,,
8884,,,survey-text,285,1048427,0.0-17.0-3.14,8199,List1A,white,man,,,,,"{""Q0"":""ruth and kate are flirting with each other""}","<img src=""stim_listA/flirt8.gif""style=""height:400px;""></stim_listA>",are flirting with each other,
null,"<div style=""font-size:60px;"">+</div>",,html-keyboard-response,286,1048929,0.0-17.0-0.15,8199,List1A,white,man,,,,null,,,,
null,"<img src=""stim_listA/marry6.gif""style=""height:400px;""></stim_listA>",,html-keyboard-response,287,1050932,0.0-17.0-1.15,8199,List1A,white,man,,,,null,,,,
null,are marrying each other,,html-keyboard-response,288,1052933,0.0-17.0-2.15,8199,List1A,white,man,,,,null,,,,
8237,,,survey-text,289,1061171,0.0-17.0-3.15,8199,List1A,white,man,,,,,"{""Q0"":""dave and fred are marrying each other""}","<img src=""stim_listA/marry6.gif""style=""height:400px;""></stim_listA>",are marrying each other,
null,"<div style=""font-size:60px;"">+</div>",,html-keyboard-response,290,1061673,0.0-17.0-0.16,8199,List1A,white,man,,,,null,,,,
null,"<img src=""stim_listA/touch6.gif""style=""height:400px;""></stim_listA>",,html-keyboard-response,291,1063675,0.0-17.0-1.16,8199,List1A,white,man,,,,null,,,,
null,are touching each other,,html-keyboard-response,292,1065677,0.0-17.0-2.16,8199,List1A,white,man,,,,null,,,,
8970,,,survey-text,293,1074649,0.0-17.0-3.16,8199,List1A,white,man,,,,,"{""Q0"":""luke and fred are touching each other""}","<img src=""stim_listA/touch6.gif""style=""height:400px;""></stim_listA>",are touching each other,
null,"<div style=""font-size:60px;"">+</div>",,html-keyboard-response,294,1075150,0.0-17.0-0.17,8199,List1A,white,man,,,,null,,,,
null,"<img src=""stim_listA/talk5.gif""style=""height:400px;""></stim_listA>",,html-keyboard-response,295,1077152,0.0-17.0-1.17,8199,List1A,white,man,,,,null,,,,
null,is talking to,,html-keyboard-response,296,1079153,0.0-17.0-2.17,8199,List1A,white,man,,,,null,,,,
6253,,,survey-text,297,1085407,0.0-17.0-3.17,8199,List1A,white,man,,,,,"{""Q0"":""dave is talking to fred""}","<img src=""stim_listA/talk5.gif""style=""height:400px;""></stim_listA>",is talking to,
null,"<div style=""font-size:60px;"">+</div>",,html-keyboard-response,298,1085908,0.0-17.0-0.18,8199,List1A,white,man,,,,null,,,,
null,"<img src=""stim_listA/play4.gif""style=""height:400px;""></stim_listA>",,html-keyboard-response,299,1087911,0.0-17.0-1.18,8199,List1A,white,man,,,,null,,,,
null,are playing with each other,,html-keyboard-response,300,1089914,0.0-17.0-2.18,8199,List1A,white,man,,,,null,,,,
7675,,,survey-text,301,1097590,0.0-17.0-3.18,8199,List1A,white,man,,,,,"{""Q0"":""ruth and luke are playing with each other""}","<img src=""stim_listA/play4.gif""style=""height:400px;""></stim_listA>",are playing with each other,
null,"<div style=""font-size:60px;"">+</div>",,html-keyboard-response,302,1098094,0.0-17.0-0.19,8199,List1A,white,man,,,,null,,,,
null,"<img src=""stim_listA/play8.gif""style=""height:400px;""></stim_listA>",,html-keyboard-response,303,1100096,0.0-17.0-1.19,8199,List1A,white,man,,,,null,,,,
null,are playing with each other,,html-keyboard-response,304,1102097,0.0-17.0-2.19,8199,List1A,white,man,,,,null,,,,
8782,,,survey-text,305,1110881,0.0-17.0-3.19,8199,List1A,white,man,,,,,"{""Q0"":""ruth and beth are playing with each other""}","<img src=""stim_listA/play8.gif""style=""height:400px;""></stim_listA>",are playing with each other,
4625,"<img src='img/portrait_matrix_list1.jpg' style='width:900px;height:500px;''></img><p>If you have memorised all the portraits and names and are ready to start, press Continue.</p><p><strong>Please note: Your memory of these faces will be tested 4 times during this experiment.</strong></p>",0,html-button-response,306,1115508,0.0-18.0-0.0,8199,List1A,white,man,,,,,,,,
1746,"<img src=""portrait/BM1.jpg""style=""height:400px;""></img>",4,html-button-response,307,1118256,0.0-18.0-1.0,8199,List1A,white,man,,TRUE,4,,,,,
null,CORRECT,,html-keyboard-response,308,1119759,0.0-18.0-2.0-0.0,8199,List1A,white,man,,,,null,,,,
2477,"<img src=""portrait/BW2.jpg""style=""height:400px;""></img>",2,html-button-response,309,1122238,0.0-18.0-4.0,8199,List1A,white,man,,TRUE,2,,,,,
null,CORRECT,,html-keyboard-response,310,1123742,0.0-18.0-5.0-0.0,8199,List1A,white,man,,,,null,,,,
2420,"<img src=""portrait/WM2.jpg""style=""height:400px;""></img>",7,html-button-response,311,1126164,0.0-18.0-7.0,8199,List1A,white,man,,TRUE,7,,,,,
null,CORRECT,,html-keyboard-response,312,1127668,0.0-18.0-8.0-0.0,8199,List1A,white,man,,,,null,,,,
5851,"<img src=""portrait/WM1.jpg""style=""height:400px;""></img>",6,html-button-response,313,1133521,0.0-18.0-10.0,8199,List1A,white,man,,TRUE,6,,,,,
null,CORRECT,,html-keyboard-response,314,1135025,0.0-18.0-11.0-0.0,8199,List1A,white,man,,,,null,,,,
1981,"<img src=""portrait/BM2.jpg""style=""height:400px;""></img>",5,html-button-response,315,1137008,0.0-18.0-13.0,8199,List1A,white,man,,TRUE,5,,,,,
null,CORRECT,,html-keyboard-response,316,1138513,0.0-18.0-14.0-0.0,8199,List1A,white,man,,,,null,,,,
1420,"<img src=""portrait/WW2.jpg""style=""height:400px;""></img>",3,html-button-response,317,1139935,0.0-18.0-16.0,8199,List1A,white,man,,TRUE,3,,,,,
null,CORRECT,,html-keyboard-response,318,1141439,0.0-18.0-17.0-0.0,8199,List1A,white,man,,,,null,,,,
2113,"<img src=""portrait/BW1.jpg""style=""height:400px;""></img>",0,html-button-response,319,1143554,0.0-18.0-19.0,8199,List1A,white,man,,TRUE,0,,,,,
null,CORRECT,,html-keyboard-response,320,1145057,0.0-18.0-20.0-0.0,8199,List1A,white,man,,,,null,,,,
1862,"<img src=""portrait/WW1.jpg""style=""height:400px;""></img>",1,html-button-response,321,1146921,0.0-18.0-22.0,8199,List1A,white,man,,TRUE,1,,,,,
null,CORRECT,,html-keyboard-response,322,1148426,0.0-18.0-23.0-0.0,8199,List1A,white,man,,,,null,,,,
2264,<p>You got 8 out of 8 right first time. Press Continue.</p>,0,html-button-response,323,1150692,0.0-18.0-25.0,8199,List1A,white,man,,,,,,,,
null,"<div style=""font-size:60px;"">+</div>",,html-keyboard-response,324,1152198,0.0-19.0-0.0,8199,List1A,white,man,,,,null,,,,
null,"<img src=""stim_listA/touch1.gif""style=""height:400px;""></stim_listA>",,html-keyboard-response,325,1154200,0.0-19.0-1.0,8199,List1A,white,man,,,,null,,,,
null,is touching,,html-keyboard-response,326,1156202,0.0-19.0-2.0,8199,List1A,white,man,,,,null,,,,
5989,,,survey-text,327,1162193,0.0-19.0-3.0,8199,List1A,white,man,,,,,"{""Q0"":""kate is touching mike""}","<img src=""stim_listA/touch1.gif""style=""height:400px;""></stim_listA>",is touching,
null,"<div style=""font-size:60px;"">+</div>",,html-keyboard-response,328,1162697,0.0-19.0-0.1,8199,List1A,white,man,,,,null,,,,
null,"<img src=""stim_listA/kiss1.gif""style=""height:400px;""></stim_listA>",,html-keyboard-response,329,1164699,0.0-19.0-1.1,8199,List1A,white,man,,,,null,,,,
null,is kissing,,html-keyboard-response,330,1166701,0.0-19.0-2.1,8199,List1A,white,man,,,,null,,,,
5605,,,survey-text,331,1172309,0.0-19.0-3.1,8199,List1A,white,man,,,,,"{""Q0"":""fred is kissing beth""}","<img src=""stim_listA/kiss1.gif""style=""height:400px;""></stim_listA>",is kissing,
null,"<div style=""font-size:60px;"">+</div>",,html-keyboard-response,332,1172811,0.0-19.0-0.2,8199,List1A,white,man,,,,null,,,,
null,"<img src=""stim_listA/dance8.gif""style=""height:400px;""></stim_listA>",,html-keyboard-response,333,1174813,0.0-19.0-1.2,8199,List1A,white,man,,,,null,,,,
null,are dancing with each other,,html-keyboard-response,334,1176814,0.0-19.0-2.2,8199,List1A,white,man,,,,null,,,,
7638,,,survey-text,335,1184454,0.0-19.0-3.2,8199,List1A,white,man,,,,,"{""Q0"":""kate and ruth are dancing with each other""}","<img src=""stim_listA/dance8.gif""style=""height:400px;""></stim_listA>",are dancing with each other,
null,"<div style=""font-size:60px;"">+</div>",,html-keyboard-response,336,1184955,0.0-19.0-0.3,8199,List1A,white,man,,,,null,,,,
null,"<img src=""stim_listA/touch5.gif""style=""height:400px;""></stim_listA>",,html-keyboard-response,337,1186957,0.0-19.0-1.3,8199,List1A,white,man,,,,null,,,,
null,is touching,,html-keyboard-response,338,1188959,0.0-19.0-2.3,8199,List1A,white,man,,,,null,,,,
5544,,,survey-text,339,1194504,0.0-19.0-3.3,8199,List1A,white,man,,,,,"{""Q0"":""dave is touching mike""}","<img src=""stim_listA/touch5.gif""style=""height:400px;""></stim_listA>",is touching,
null,"<div style=""font-size:60px;"">+</div>",,html-keyboard-response,340,1195007,0.0-19.0-0.4,8199,List1A,white,man,,,,null,,,,
null,"<img src=""stim_listA/flirt5.gif""style=""height:400px;""></stim_listA>",,html-keyboard-response,341,1197010,0.0-19.0-1.4,8199,List1A,white,man,,,,null,,,,
null,is flirting with,,html-keyboard-response,342,1199013,0.0-19.0-2.4,8199,List1A,white,man,,,,null,,,,
8512,,,survey-text,343,1207526,0.0-19.0-3.4,8199,List1A,white,man,,,,,"{""Q0"":""fred is flirting with dave""}","<img src=""stim_listA/flirt5.gif""style=""height:400px;""></stim_listA>",is flirting with,
null,"<div style=""font-size:60px;"">+</div>",,html-keyboard-response,344,1208028,0.0-19.0-0.5,8199,List1A,white,man,,,,null,,,,
null,"<img src=""stim_listA/dance3.gif""style=""height:400px;""></stim_listA>",,html-keyboard-response,345,1210029,0.0-19.0-1.5,8199,List1A,white,man,,,,null,,,,
null,is dancing with,,html-keyboard-response,346,1212032,0.0-19.0-2.5,8199,List1A,white,man,,,,null,,,,
6536,,,survey-text,347,1218570,0.0-19.0-3.5,8199,List1A,white,man,,,,,"{""Q0"":""jane is dancing with luke""}","<img src=""stim_listA/dance3.gif""style=""height:400px;""></stim_listA>",is dancing with,
null,"<div style=""font-size:60px;"">+</div>",,html-keyboard-response,348,1219072,0.0-19.0-0.6,8199,List1A,white,man,,,,null,,,,
null,"<img src=""stim_listA/argue3.gif""style=""height:400px;""></stim_listA>",,html-keyboard-response,349,1221075,0.0-19.0-1.6,8199,List1A,white,man,,,,null,,,,
null,is arguing with,,html-keyboard-response,350,1223077,0.0-19.0-2.6,8199,List1A,white,man,,,,null,,,,
7284,,,survey-text,351,1230363,0.0-19.0-3.6,8199,List1A,white,man,,,,,"{""Q0"":""dave is arguing with ruth""}","<img src=""stim_listA/argue3.gif""style=""height:400px;""></stim_listA>",is arguing with,
null,"<div style=""font-size:60px;"">+</div>",,html-keyboard-response,352,1230866,0.0-19.0-0.7,8199,List1A,white,man,,,,null,,,,
null,"<img src=""stim_listA/play6.gif""style=""height:400px;""></stim_listA>",,html-keyboard-response,353,1232868,0.0-19.0-1.7,8199,List1A,white,man,,,,null,,,,
null,are playing with each other,,html-keyboard-response,354,1234870,0.0-19.0-2.7,8199,List1A,white,man,,,,null,,,,
7688,,,survey-text,355,1242560,0.0-19.0-3.7,8199,List1A,white,man,,,,,"{""Q0"":""fred and luke are playing with each other""}","<img src=""stim_listA/play6.gif""style=""height:400px;""></stim_listA>",are playing with each other,
null,"<div style=""font-size:60px;"">+</div>",,html-keyboard-response,356,1243061,0.0-19.0-0.8,8199,List1A,white,man,,,,null,,,,
null,"<img src=""stim_listA/fight3.gif""style=""height:400px;""></stim_listA>",,html-keyboard-response,357,1245064,0.0-19.0-1.8,8199,List1A,white,man,,,,null,,,,
null,is fighting,,html-keyboard-response,358,1247064,0.0-19.0-2.8,8199,List1A,white,man,,,,null,,,,
5227,,,survey-text,359,1252294,0.0-19.0-3.8,8199,List1A,white,man,,,,,"{""Q0"":""dave is fighting jane""}","<img src=""stim_listA/fight3.gif""style=""height:400px;""></stim_listA>",is fighting,
null,"<div style=""font-size:60px;"">+</div>",,html-keyboard-response,360,1252797,0.0-19.0-0.9,8199,List1A,white,man,,,,null,,,,
null,"<img src=""stim_listA/touch2.gif""style=""height:400px;""></stim_listA>",,html-keyboard-response,361,1254802,0.0-19.0-1.9,8199,List1A,white,man,,,,null,,,,
null,are touching each other,,html-keyboard-response,362,1256803,0.0-19.0-2.9,8199,List1A,white,man,,,,null,,,,
11245,,,survey-text,363,1268049,0.0-19.0-3.9,8199,List1A,white,man,,,,,"{""Q0"":""beth and fred are touching each other""}","<img src=""stim_listA/touch2.gif""style=""height:400px;""></stim_listA>",are touching each other,
null,"<div style=""font-size:60px;"">+</div>",,html-keyboard-response,364,1268552,0.0-19.0-0.10,8199,List1A,white,man,,,,null,,,,
null,"<img src=""stim_listA/flirt4.gif""style=""height:400px;""></stim_listA>",,html-keyboard-response,365,1270554,0.0-19.0-1.10,8199,List1A,white,man,,,,null,,,,
null,are flirting with each other,,html-keyboard-response,366,1272556,0.0-19.0-2.10,8199,List1A,white,man,,,,null,,,,
8537,,,survey-text,367,1281095,0.0-19.0-3.10,8199,List1A,white,man,,,,,"{""Q0"":""dave and ruth are flirting with each other""}","<img src=""stim_listA/flirt4.gif""style=""height:400px;""></stim_listA>",are flirting with each other,
null,"<div style=""font-size:60px;"">+</div>",,html-keyboard-response,368,1281598,0.0-19.0-0.11,8199,List1A,white,man,,,,null,,,,
null,"<img src=""stim_listA/shout5.gif""style=""height:400px;""></stim_listA>",,html-keyboard-response,369,1283601,0.0-19.0-1.11,8199,List1A,white,man,,,,null,,,,
null,is shouting at,,html-keyboard-response,370,1285602,0.0-19.0-2.11,8199,List1A,white,man,,,,null,,,,
5758,,,survey-text,371,1291361,0.0-19.0-3.11,8199,List1A,white,man,,,,,"{""Q0"":""fred is shouting at luke""}","<img src=""stim_listA/shout5.gif""style=""height:400px;""></stim_listA>",is shouting at,
null,"<div style=""font-size:60px;"">+</div>",,html-keyboard-response,372,1291864,0.0-19.0-0.12,8199,List1A,white,man,,,,null,,,,
null,"<img src=""stim_listA/argue7.gif""style=""height:400px;""></stim_listA>",,html-keyboard-response,373,1293866,0.0-19.0-1.12,8199,List1A,white,man,,,,null,,,,
null,is arguing with,,html-keyboard-response,374,1295867,0.0-19.0-2.12,8199,List1A,white,man,,,,null,,,,
7037,,,survey-text,375,1302905,0.0-19.0-3.12,8199,List1A,white,man,,,,,"{""Q0"":""kate is arguing with ruth""}","<img src=""stim_listA/argue7.gif""style=""height:400px;""></stim_listA>",is arguing with,
null,"<div style=""font-size:60px;"">+</div>",,html-keyboard-response,376,1303408,0.0-19.0-0.13,8199,List1A,white,man,,,,null,,,,
null,"<img src=""stim_listA/marry4.gif""style=""height:400px;""></stim_listA>",,html-keyboard-response,377,1305411,0.0-19.0-1.13,8199,List1A,white,man,,,,null,,,,
null,are marrying each other,,html-keyboard-response,378,1307412,0.0-19.0-2.13,8199,List1A,white,man,,,,null,,,,
9722,,,survey-text,379,1317136,0.0-19.0-3.13,8199,List1A,white,man,,,,,"{""Q0"":""jane and luke are marrying each other""}","<img src=""stim_listA/marry4.gif""style=""height:400px;""></stim_listA>",are marrying each other,
null,"<div style=""font-size:60px;"">+</div>",,html-keyboard-response,380,1317637,0.0-19.0-0.14,8199,List1A,white,man,,,,null,,,,
null,"<img src=""stim_listA/fight5.gif""style=""height:400px;""></stim_listA>",,html-keyboard-response,381,1319640,0.0-19.0-1.14,8199,List1A,white,man,,,,null,,,,
null,is fighting,,html-keyboard-response,382,1321641,0.0-19.0-2.14,8199,List1A,white,man,,,,null,,,,
6013,,,survey-text,383,1327656,0.0-19.0-3.14,8199,List1A,white,man,,,,,"{""Q0"":""mike is fighting dave""}","<img src=""stim_listA/fight5.gif""style=""height:400px;""></stim_listA>",is fighting,
null,"<div style=""font-size:60px;"">+</div>",,html-keyboard-response,384,1328158,0.0-19.0-0.15,8199,List1A,white,man,,,,null,,,,
null,"<img src=""stim_listA/play1.gif""style=""height:400px;""></stim_listA>",,html-keyboard-response,385,1330160,0.0-19.0-1.15,8199,List1A,white,man,,,,null,,,,
null,is playing with,,html-keyboard-response,386,1332162,0.0-19.0-2.15,8199,List1A,white,man,,,,null,,,,
6866,,,survey-text,387,1339029,0.0-19.0-3.15,8199,List1A,white,man,,,,,"{""Q0"":""mike is playing with kate""}","<img src=""stim_listA/play1.gif""style=""height:400px;""></stim_listA>",is playing with,
null,"<div style=""font-size:60px;"">+</div>",,html-keyboard-response,388,1339531,0.0-19.0-0.16,8199,List1A,white,man,,,,null,,,,
null,"<img src=""stim_listA/flirt3.gif""style=""height:400px;""></stim_listA>",,html-keyboard-response,389,1341534,0.0-19.0-1.16,8199,List1A,white,man,,,,null,,,,
null,is flirting with,,html-keyboard-response,390,1343536,0.0-19.0-2.16,8199,List1A,white,man,,,,null,,,,
7690,,,survey-text,391,1351227,0.0-19.0-3.16,8199,List1A,white,man,,,,,"{""Q0"":""luke is flirting with jane""}","<img src=""stim_listA/flirt3.gif""style=""height:400px;""></stim_listA>",is flirting with,
null,"<div style=""font-size:60px;"">+</div>",,html-keyboard-response,392,1351729,0.0-19.0-0.17,8199,List1A,white,man,,,,null,,,,
null,"<img src=""stim_listA/flirt6.gif""style=""height:400px;""></stim_listA>",,html-keyboard-response,393,1353733,0.0-19.0-1.17,8199,List1A,white,man,,,,null,,,,
null,are flirting with each other,,html-keyboard-response,394,1355734,0.0-19.0-2.17,8199,List1A,white,man,,,,null,,,,
14252,,,survey-text,395,1369987,0.0-19.0-3.17,8199,List1A,white,man,,,,,"{""Q0"":""mike is flirting with luke""}","<img src=""stim_listA/flirt6.gif""style=""height:400px;""></stim_listA>",are flirting with each other,
null,"<div style=""font-size:60px;"">+</div>",,html-keyboard-response,396,1370489,0.0-19.0-0.18,8199,List1A,white,man,,,,null,,,,
null,"<img src=""stim_listA/fight2.gif""style=""height:400px;""></stim_listA>",,html-keyboard-response,397,1372491,0.0-19.0-1.18,8199,List1A,white,man,,,,null,,,,
null,are fighting each other,,html-keyboard-response,398,1374492,0.0-19.0-2.18,8199,List1A,white,man,,,,null,,,,
9341,,,survey-text,399,1383835,0.0-19.0-3.18,8199,List1A,white,man,,,,,"{""Q0"":""beth and fred are fighting each other""}","<img src=""stim_listA/fight2.gif""style=""height:400px;""></stim_listA>",are fighting each other,
null,"<div style=""font-size:60px;"">+</div>",,html-keyboard-response,400,1384337,0.0-19.0-0.19,8199,List1A,white,man,,,,null,,,,
null,"<img src=""stim_listA/shout3.gif""style=""height:400px;""></stim_listA>",,html-keyboard-response,401,1386339,0.0-19.0-1.19,8199,List1A,white,man,,,,null,,,,
null,is shouting at,,html-keyboard-response,402,1388341,0.0-19.0-2.19,8199,List1A,white,man,,,,null,,,,
7697,,,survey-text,403,1396040,0.0-19.0-3.19,8199,List1A,white,man,,,,,"{""Q0"":""luke is shouting at ruth""}","<img src=""stim_listA/shout3.gif""style=""height:400px;""></stim_listA>",is shouting at,
2745,<p>Thank you for completing that task.</p><p>The final part of this session is a short questionnaire.</p><p>Press Continue.</p>,0,html-button-response,404,1398786,0.0-20.0,8199,List1A,white,man,,,,,,,,
14871,,,survey-text,405,1414661,0.0-21.0,8199,List1A,white,man,,,,,"{""Q0"":""41"",""Q1"":""English"",""Q2"":""English"",""Q3"":""United States"",""Q4"":""White"",""Q5"":""male""}",,,demographics
8846,,,survey-likert,406,1423510,0.0-22.0,8199,List1A,white,man,,,,,"{""Q0"":3}",,,likert_ESS
6572,,,survey-likert,407,1430085,0.0-23.0,8199,List1A,white,man,,,,,"{""Q0"":4}",,,likert_NSSAL_Q1
3639,,,survey-likert,408,1433727,0.0-24.0,8199,List1A,white,man,,,,,"{""Q0"":4}",,,likert_NSSAL_Q2
6189,,,survey-likert,409,1439918,0.0-25.0,8199,List1A,white,man,,,,,"{""Q0"":3}",,,likert_CGRS_Q1
3294,,,survey-likert,410,1443215,0.0-26.0,8199,List1A,white,man,,,,,"{""Q0"":3}",,,likert_CGRS_Q2
3322,,,survey-likert,411,1446540,0.0-27.0,8199,List1A,white,man,,,,,"{""Q0"":3}",,,likert_CGRS_Q3
12597,,,survey-text,412,1459140,0.0-28.0,8199,List1A,white,man,,,,,"{""Q0"":""ccc""}",,,worker_id
8470,,,external-html,413,1467948,0.0-29.0,8199,List1A,white,man,debrief.html,,,,,,,
