rt,stimulus,button_pressed,trial_type,trial_index,time_elapsed,internal_node_id,subject,list,ppt_race,ppt_gender,url,first_guess,correct,key_press,responses,image_type,phrase_type,test_part
10129,Welcome to the experiment. Press Continue to begin.,0,html-button-response,0,10134,0.0-0.0,82686,List2B,white,man,,,,,,,,
6724,,,external-html,1,18316,0.0-1.0,82686,List2B,white,man,consent.html,,,,,,,
9017,"<p>On the next page, you will see portraits of 8 people and their names.</p><p>Your first task is to take a few minutes to memorise the names of these people.</p><p>You will have to recall their names during the rest of the experiment, so it is</p><p>essential that you try to memorise these people and their names as best as you can.</p><br><p><strong>You will then be tested on your memory of these names and portraits.</strong></p><br><p>The experiment will start after you have completed this memory test.</p><br><p>Ready?</p>",0,html-button-response,2,27335,0.0-2.0,82686,List2B,white,man,,,,,,,,
47255,"<img src='img/portrait_matrix_list2.jpg' style='width:900px;height:500px;''></img><p>If you have memorised all the portraits and names and are ready to start, press Continue.</p><p><strong>Please note: Your memory of these faces will be tested 4 times during this experiment.</strong></p>",0,html-button-response,3,75611,0.0-3.0-0.0,82686,List2B,white,man,,,,,,,,
10084,"<img src=""portrait/WW1.jpg""style=""height:400px;""></img>",1,html-button-response,4,86702,0.0-3.0-1.0,82686,List2B,white,man,,TRUE,1,,,,,
null,CORRECT,,html-keyboard-response,5,88224,0.0-3.0-2.0-0.0,82686,List2B,white,man,,,,null,,,,
5196,"<img src=""portrait/WW2.jpg""style=""height:400px;""></img>",3,html-button-response,6,93422,0.0-3.0-4.0,82686,List2B,white,man,,TRUE,3,,,,,
null,CORRECT,,html-keyboard-response,7,94944,0.0-3.0-5.0-0.0,82686,List2B,white,man,,,,null,,,,
6670,"<img src=""portrait/WM1.jpg""style=""height:400px;""></img>",6,html-button-response,8,101615,0.0-3.0-7.0,82686,List2B,white,man,,TRUE,6,,,,,
null,CORRECT,,html-keyboard-response,9,103145,0.0-3.0-8.0-0.0,82686,List2B,white,man,,,,null,,,,
2686,"<img src=""portrait/WM2.jpg""style=""height:400px;""></img>",5,html-button-response,10,105833,0.0-3.0-10.0,82686,List2B,white,man,,TRUE,7,,,,,
3110,"<img src=""portrait/WM2.jpg""style=""height:400px;""></img>",7,html-button-response,11,109956,0.0-3.0-12.0-0.0,82686,List2B,white,man,,FALSE,7,,,,,
null,CORRECT,,html-keyboard-response,12,111480,0.0-3.0-12.0-1.0-0.0,82686,List2B,white,man,,,,null,,,,
3780,"<img src=""portrait/BW1.jpg""style=""height:400px;""></img>",0,html-button-response,13,115262,0.0-3.0-13.0,82686,List2B,white,man,,TRUE,0,,,,,
null,CORRECT,,html-keyboard-response,14,116784,0.0-3.0-14.0-0.0,82686,List2B,white,man,,,,null,,,,
7653,"<img src=""portrait/BM1.jpg""style=""height:400px;""></img>",4,html-button-response,15,124439,0.0-3.0-16.0,82686,List2B,white,man,,TRUE,4,,,,,
null,CORRECT,,html-keyboard-response,16,125975,0.0-3.0-17.0-0.0,82686,List2B,white,man,,,,null,,,,
6703,"<img src=""portrait/BW2.jpg""style=""height:400px;""></img>",2,html-button-response,17,132679,0.0-3.0-19.0,82686,List2B,white,man,,TRUE,2,,,,,
null,CORRECT,,html-keyboard-response,18,134199,0.0-3.0-20.0-0.0,82686,List2B,white,man,,,,null,,,,
4511,"<img src=""portrait/BM2.jpg""style=""height:400px;""></img>",6,html-button-response,19,138711,0.0-3.0-22.0,82686,List2B,white,man,,TRUE,5,,,,,
1520,"<img src=""portrait/BM2.jpg""style=""height:400px;""></img>",5,html-button-response,20,141235,0.0-3.0-24.0-0.0,82686,List2B,white,man,,FALSE,5,,,,,
null,CORRECT,,html-keyboard-response,21,142774,0.0-3.0-24.0-1.0-0.0,82686,List2B,white,man,,,,null,,,,
1577,<p>You got 6 out of 8 right first time. Press Continue.</p>,0,html-button-response,22,144352,0.0-3.0-25.0,82686,List2B,white,man,,,,,,,,
2738,"As you did not score 100%, the memory game will repeat. Press Continue.",0,html-button-response,23,148093,0.0-3.0-26.0-0.0,82686,List2B,white,man,,,,,,,,
9663,"<img src='img/portrait_matrix_list2.jpg' style='width:900px;height:500px;''></img><p>If you have memorised all the portraits and names and are ready to start, press Continue.</p><p><strong>Please note: Your memory of these faces will be tested 4 times during this experiment.</strong></p>",0,html-button-response,24,158760,0.0-3.1-0.1,82686,List2B,white,man,,,,,,,,
3994,"<img src=""portrait/WW1.jpg""style=""height:400px;""></img>",1,html-button-response,25,163772,0.0-3.1-1.1,82686,List2B,white,man,,TRUE,1,,,,,
null,CORRECT,,html-keyboard-response,26,165294,0.0-3.1-2.1-0.1,82686,List2B,white,man,,,,null,,,,
2575,"<img src=""portrait/WW2.jpg""style=""height:400px;""></img>",3,html-button-response,27,167872,0.0-3.1-4.1,82686,List2B,white,man,,TRUE,3,,,,,
null,CORRECT,,html-keyboard-response,28,169395,0.0-3.1-5.1-0.1,82686,List2B,white,man,,,,null,,,,
3230,"<img src=""portrait/WM1.jpg""style=""height:400px;""></img>",6,html-button-response,29,172627,0.0-3.1-7.1,82686,List2B,white,man,,TRUE,6,,,,,
null,CORRECT,,html-keyboard-response,30,174155,0.0-3.1-8.1-0.1,82686,List2B,white,man,,,,null,,,,
3147,"<img src=""portrait/WM2.jpg""style=""height:400px;""></img>",7,html-button-response,31,177304,0.0-3.1-10.1,82686,List2B,white,man,,TRUE,7,,,,,
null,CORRECT,,html-keyboard-response,32,178836,0.0-3.1-11.1-0.1,82686,List2B,white,man,,,,null,,,,
2724,"<img src=""portrait/BW1.jpg""style=""height:400px;""></img>",0,html-button-response,33,181563,0.0-3.1-13.1,82686,List2B,white,man,,TRUE,0,,,,,
null,CORRECT,,html-keyboard-response,34,183095,0.0-3.1-14.1-0.1,82686,List2B,white,man,,,,null,,,,
2567,"<img src=""portrait/BM1.jpg""style=""height:400px;""></img>",4,html-button-response,35,185665,0.0-3.1-16.1,82686,List2B,white,man,,TRUE,4,,,,,
null,CORRECT,,html-keyboard-response,36,187196,0.0-3.1-17.1-0.1,82686,List2B,white,man,,,,null,,,,
3258,"<img src=""portrait/BW2.jpg""style=""height:400px;""></img>",2,html-button-response,37,190456,0.0-3.1-19.1,82686,List2B,white,man,,TRUE,2,,,,,
null,CORRECT,,html-keyboard-response,38,191995,0.0-3.1-20.1-0.1,82686,List2B,white,man,,,,null,,,,
3329,"<img src=""portrait/BM2.jpg""style=""height:400px;""></img>",5,html-button-response,39,195325,0.0-3.1-22.1,82686,List2B,white,man,,TRUE,5,,,,,
null,CORRECT,,html-keyboard-response,40,196855,0.0-3.1-23.1-0.1,82686,List2B,white,man,,,,null,,,,
1492,<p>You got 8 out of 8 right first time. Press Continue.</p>,0,html-button-response,41,198349,0.0-3.1-25.1,82686,List2B,white,man,,,,,,,,
16821,"<p>In this experiment, you will view photographs of the people from the memory game interacting.</p><p>By using the <strong>exact</strong> phrase given <i>after</i> the photograph appears and recalling the correct names of the people in the photographs, form a sentence describing the interaction. You do not need to capitalise names.</p><p>Type your answer in the space provided. Please complete every sentence before moving onto the next trial.</p><p>You will only have a few seconds to memorise each given photograph and phrase before you can respond, so try your best to focus.</p><p>An example is given below. Press 'Continue' when you are ready.</p><img src='img/speaking_example.jpg' style='width:800px;height:460px;''></img>",0,html-button-response,42,216178,0.0-4.0,82686,List2B,white,man,,,,,,,,
2218,"<p>Before the experiment starts, you will watch two example trials. Press 'Continue'.</p>",0,html-button-response,43,219404,0.0-5.0,82686,List2B,white,man,,,,,,,,
null,<img src='img/meet_eg.gif' style='height:400px;''></img>,,html-keyboard-response,44,222425,0.0-6.0,82686,List2B,white,man,,,,null,,,,
null,<p>is meeting</p>,,html-keyboard-response,45,224436,0.0-7.0,82686,List2B,white,man,,,,null,,,,
5281,<p><b>Answer:</b> jane is meeting ruth</p>,0,html-button-response,46,229718,0.0-8.0,82686,List2B,white,man,,,,,,,,
null,<img src='img/look_eg.gif' style='height:400px;''></img>,,html-keyboard-response,47,232756,0.0-9.0,82686,List2B,white,man,,,,null,,,,
null,<p>are looking at each other</p>,,html-keyboard-response,48,234775,0.0-10.0,82686,List2B,white,man,,,,null,,,,
1633,<p><b>Answer:</b> fred and mike are looking at each other</p>,0,html-button-response,49,236410,0.0-11.0,82686,List2B,white,man,,,,,,,,
14512,"<p>Ready to start the experiment?</p><br><p><strong>Remember to describe the picture using a full sentence,</strong></p><p><strong>that combines the names of the people with the <i>exact</i> phrase given.</strong></p><p><strong>To receive full payment you must do this correctly.</strong></p><p><strong> You do not need to capitalise names or use punctuation.</strong></p><br><p>Press 'Continue' to begin.</p>",0,html-button-response,50,251930,0.0-12.0,82686,List2B,white,man,,,,,,,,
null,"<div style=""font-size:60px;"">+</div>",,html-keyboard-response,51,253456,0.0-13.0-0.0,82686,List2B,white,man,,,,null,,,,
null,"<img src=""stim_listB/play4.gif""style=""height:400px;""></stim_listB>",,html-keyboard-response,52,255476,0.0-13.0-1.0,82686,List2B,white,man,,,,null,,,,
null,are playing with each other,,html-keyboard-response,53,257496,0.0-13.0-2.0,82686,List2B,white,man,,,,null,,,,
19321,,,survey-text,54,276818,0.0-13.0-3.0,82686,List2B,white,man,,,,,"{""Q0"":""fred and beth are playing with each other""}","<img src=""stim_listB/play4.gif""style=""height:400px;""></stim_listB>",are playing with each other,
null,"<div style=""font-size:60px;"">+</div>",,html-keyboard-response,55,277326,0.0-13.0-0.1,82686,List2B,white,man,,,,null,,,,
null,"<img src=""stim_listB/argue3.gif""style=""height:400px;""></stim_listB>",,html-keyboard-response,56,279336,0.0-13.0-1.1,82686,List2B,white,man,,,,null,,,,
null,is arguing with,,html-keyboard-response,57,281355,0.0-13.0-2.1,82686,List2B,white,man,,,,null,,,,
26876,,,survey-text,58,308233,0.0-13.0-3.1,82686,List2B,white,man,,,,,"{""Q0"":""mike is arguing with beth""}","<img src=""stim_listB/argue3.gif""style=""height:400px;""></stim_listB>",is arguing with,
null,"<div style=""font-size:60px;"">+</div>",,html-keyboard-response,59,308736,0.0-13.0-0.2,82686,List2B,white,man,,,,null,,,,
null,"<img src=""stim_listB/kiss8.gif""style=""height:400px;""></stim_listB>",,html-keyboard-response,60,310756,0.0-13.0-1.2,82686,List2B,white,man,,,,null,,,,
null,are kissing each other,,html-keyboard-response,61,312777,0.0-13.0-2.2,82686,List2B,white,man,,,,null,,,,
18901,,,survey-text,62,331679,0.0-13.0-3.2,82686,List2B,white,man,,,,,"{""Q0"":""jane and kate are kissing each other""}","<img src=""stim_listB/kiss8.gif""style=""height:400px;""></stim_listB>",are kissing each other,
null,"<div style=""font-size:60px;"">+</div>",,html-keyboard-response,63,332196,0.0-13.0-0.3,82686,List2B,white,man,,,,null,,,,
null,"<img src=""stim_listB/shout7.gif""style=""height:400px;""></stim_listB>",,html-keyboard-response,64,334216,0.0-13.0-1.3,82686,List2B,white,man,,,,null,,,,
null,is shouting at,,html-keyboard-response,65,336237,0.0-13.0-2.3,82686,List2B,white,man,,,,null,,,,
34259,,,survey-text,66,370498,0.0-13.0-3.3,82686,List2B,white,man,,,,,"{""Q0"":""ruth is shouting at beth""}","<img src=""stim_listB/shout7.gif""style=""height:400px;""></stim_listB>",is shouting at,
null,"<div style=""font-size:60px;"">+</div>",,html-keyboard-response,67,371007,0.0-13.0-0.4,82686,List2B,white,man,,,,null,,,,
null,"<img src=""stim_listB/dance4.gif""style=""height:400px;""></stim_listB>",,html-keyboard-response,68,373027,0.0-13.0-1.4,82686,List2B,white,man,,,,null,,,,
null,are dancing with each other,,html-keyboard-response,69,375038,0.0-13.0-2.4,82686,List2B,white,man,,,,null,,,,
39135,,,survey-text,70,414174,0.0-13.0-3.4,82686,List2B,white,man,,,,,"{""Q0"":""mike and beth are dancing with each other""}","<img src=""stim_listB/dance4.gif""style=""height:400px;""></stim_listB>",are dancing with each other,
null,"<div style=""font-size:60px;"">+</div>",,html-keyboard-response,71,414685,0.0-13.0-0.5,82686,List2B,white,man,,,,null,,,,
null,"<img src=""stim_listB/play2.gif""style=""height:400px;""></stim_listB>",,html-keyboard-response,72,416687,0.0-13.0-1.5,82686,List2B,white,man,,,,null,,,,
null,are playing with each other,,html-keyboard-response,73,418708,0.0-13.0-2.5,82686,List2B,white,man,,,,null,,,,
16778,,,survey-text,74,435487,0.0-13.0-3.5,82686,List2B,white,man,,,,,"{""Q0"":""ruth and luke are playing with each other""}","<img src=""stim_listB/play2.gif""style=""height:400px;""></stim_listB>",are playing with each other,
null,"<div style=""font-size:60px;"">+</div>",,html-keyboard-response,75,436008,0.0-13.0-0.6,82686,List2B,white,man,,,,null,,,,
null,"<img src=""stim_listB/talk2.gif""style=""height:400px;""></stim_listB>",,html-keyboard-response,76,438028,0.0-13.0-1.6,82686,List2B,white,man,,,,null,,,,
null,are talking to each other,,html-keyboard-response,77,440048,0.0-13.0-2.6,82686,List2B,white,man,,,,null,,,,
31962,,,survey-text,78,472012,0.0-13.0-3.6,82686,List2B,white,man,,,,,"{""Q0"":""ruth and dave are talking to each other""}","<img src=""stim_listB/talk2.gif""style=""height:400px;""></stim_listB>",are talking to each other,
null,"<div style=""font-size:60px;"">+</div>",,html-keyboard-response,79,472518,0.0-13.0-0.7,82686,List2B,white,man,,,,null,,,,
null,"<img src=""stim_listB/marry1.gif""style=""height:400px;""></stim_listB>",,html-keyboard-response,80,474538,0.0-13.0-1.7,82686,List2B,white,man,,,,null,,,,
null,is marrying,,html-keyboard-response,81,476551,0.0-13.0-2.7,82686,List2B,white,man,,,,null,,,,
10773,,,survey-text,82,487326,0.0-13.0-3.7,82686,List2B,white,man,,,,,"{""Q0"":""ruth is marrying dave""}","<img src=""stim_listB/marry1.gif""style=""height:400px;""></stim_listB>",is marrying,
null,"<div style=""font-size:60px;"">+</div>",,html-keyboard-response,83,487828,0.0-13.0-0.8,82686,List2B,white,man,,,,null,,,,
null,"<img src=""stim_listB/argue8.gif""style=""height:400px;""></stim_listB>",,html-keyboard-response,84,489849,0.0-13.0-1.8,82686,List2B,white,man,,,,null,,,,
null,are arguing with each other,,html-keyboard-response,85,491854,0.0-13.0-2.8,82686,List2B,white,man,,,,null,,,,
26875,,,survey-text,86,518731,0.0-13.0-3.8,82686,List2B,white,man,,,,,"{""Q0"":""ruth and kate are arguing with each other""}","<img src=""stim_listB/argue8.gif""style=""height:400px;""></stim_listB>",are arguing with each other,
null,"<div style=""font-size:60px;"">+</div>",,html-keyboard-response,87,519248,0.0-13.0-0.9,82686,List2B,white,man,,,,null,,,,
null,"<img src=""stim_listB/flirt6.gif""style=""height:400px;""></stim_listB>",,html-keyboard-response,88,521269,0.0-13.0-1.9,82686,List2B,white,man,,,,null,,,,
null,are flirting with each other,,html-keyboard-response,89,523288,0.0-13.0-2.9,82686,List2B,white,man,,,,null,,,,
24494,,,survey-text,90,547782,0.0-13.0-3.9,82686,List2B,white,man,,,,,"{""Q0"":""fred and dave are flirting with each other ""}","<img src=""stim_listB/flirt6.gif""style=""height:400px;""></stim_listB>",are flirting with each other,
null,"<div style=""font-size:60px;"">+</div>",,html-keyboard-response,91,548298,0.0-13.0-0.10,82686,List2B,white,man,,,,null,,,,
null,"<img src=""stim_listB/fight8.gif""style=""height:400px;""></stim_listB>",,html-keyboard-response,92,550319,0.0-13.0-1.10,82686,List2B,white,man,,,,null,,,,
null,are fighting each other,,html-keyboard-response,93,552338,0.0-13.0-2.10,82686,List2B,white,man,,,,null,,,,
13204,,,survey-text,94,565545,0.0-13.0-3.10,82686,List2B,white,man,,,,,"{""Q0"":""ruth and beth are fighting each other ""}","<img src=""stim_listB/fight8.gif""style=""height:400px;""></stim_listB>",are fighting each other,
null,"<div style=""font-size:60px;"">+</div>",,html-keyboard-response,95,566059,0.0-13.0-0.11,82686,List2B,white,man,,,,null,,,,
null,"<img src=""stim_listB/marry7.gif""style=""height:400px;""></stim_listB>",,html-keyboard-response,96,568077,0.0-13.0-1.11,82686,List2B,white,man,,,,null,,,,
null,is marrying,,html-keyboard-response,97,570079,0.0-13.0-2.11,82686,List2B,white,man,,,,null,,,,
27454,,,survey-text,98,597534,0.0-13.0-3.11,82686,List2B,white,man,,,,,"{""Q0"":""beth is marrying jane""}","<img src=""stim_listB/marry7.gif""style=""height:400px;""></stim_listB>",is marrying,
null,"<div style=""font-size:60px;"">+</div>",,html-keyboard-response,99,598049,0.0-13.0-0.12,82686,List2B,white,man,,,,null,,,,
null,"<img src=""stim_listB/dance8.gif""style=""height:400px;""></stim_listB>",,html-keyboard-response,100,600069,0.0-13.0-1.12,82686,List2B,white,man,,,,null,,,,
null,are dancing with each other,,html-keyboard-response,101,602089,0.0-13.0-2.12,82686,List2B,white,man,,,,null,,,,
26478,,,survey-text,102,628568,0.0-13.0-3.12,82686,List2B,white,man,,,,,"{""Q0"":""beth and jane are dancing with each other""}","<img src=""stim_listB/dance8.gif""style=""height:400px;""></stim_listB>",are dancing with each other,
null,"<div style=""font-size:60px;"">+</div>",,html-keyboard-response,103,629085,0.0-13.0-0.13,82686,List2B,white,man,,,,null,,,,
null,"<img src=""stim_listB/shout5.gif""style=""height:400px;""></stim_listB>",,html-keyboard-response,104,631089,0.0-13.0-1.13,82686,List2B,white,man,,,,null,,,,
null,is shouting at,,html-keyboard-response,105,633090,0.0-13.0-2.13,82686,List2B,white,man,,,,null,,,,
17957,,,survey-text,106,651048,0.0-13.0-3.13,82686,List2B,white,man,,,,,"{""Q0"":""fred is shouting at luke""}","<img src=""stim_listB/shout5.gif""style=""height:400px;""></stim_listB>",is shouting at,
null,"<div style=""font-size:60px;"">+</div>",,html-keyboard-response,107,651559,0.0-13.0-0.14,82686,List2B,white,man,,,,null,,,,
null,"<img src=""stim_listB/dance5.gif""style=""height:400px;""></stim_listB>",,html-keyboard-response,108,653580,0.0-13.0-1.14,82686,List2B,white,man,,,,null,,,,
null,is dancing with,,html-keyboard-response,109,655600,0.0-13.0-2.14,82686,List2B,white,man,,,,null,,,,
28523,,,survey-text,110,684124,0.0-13.0-3.14,82686,List2B,white,man,,,,,"{""Q0"":""luke is dancing with mike""}","<img src=""stim_listB/dance5.gif""style=""height:400px;""></stim_listB>",is dancing with,
null,"<div style=""font-size:60px;"">+</div>",,html-keyboard-response,111,684640,0.0-13.0-0.15,82686,List2B,white,man,,,,null,,,,
null,"<img src=""stim_listB/kiss5.gif""style=""height:400px;""></stim_listB>",,html-keyboard-response,112,686660,0.0-13.0-1.15,82686,List2B,white,man,,,,null,,,,
null,is kissing,,html-keyboard-response,113,688680,0.0-13.0-2.15,82686,List2B,white,man,,,,null,,,,
15704,,,survey-text,114,704386,0.0-13.0-3.15,82686,List2B,white,man,,,,,"{""Q0"":""luke is kissing fred""}","<img src=""stim_listB/kiss5.gif""style=""height:400px;""></stim_listB>",is kissing,
null,"<div style=""font-size:60px;"">+</div>",,html-keyboard-response,115,704901,0.0-13.0-0.16,82686,List2B,white,man,,,,null,,,,
null,"<img src=""stim_listB/argue7.gif""style=""height:400px;""></stim_listB>",,html-keyboard-response,116,706911,0.0-13.0-1.16,82686,List2B,white,man,,,,null,,,,
null,is arguing with,,html-keyboard-response,117,708931,0.0-13.0-2.16,82686,List2B,white,man,,,,null,,,,
20600,,,survey-text,118,729533,0.0-13.0-3.16,82686,List2B,white,man,,,,,"{""Q0"":""beth is arguing with jane""}","<img src=""stim_listB/argue7.gif""style=""height:400px;""></stim_listB>",is arguing with,
null,"<div style=""font-size:60px;"">+</div>",,html-keyboard-response,119,730040,0.0-13.0-0.17,82686,List2B,white,man,,,,null,,,,
null,"<img src=""stim_listB/marry4.gif""style=""height:400px;""></stim_listB>",,html-keyboard-response,120,732061,0.0-13.0-1.17,82686,List2B,white,man,,,,null,,,,
null,are marrying each other,,html-keyboard-response,121,734081,0.0-13.0-2.17,82686,List2B,white,man,,,,null,,,,
18759,,,survey-text,122,752840,0.0-13.0-3.17,82686,List2B,white,man,,,,,"{""Q0"":""fred and kate are marrying each other""}","<img src=""stim_listB/marry4.gif""style=""height:400px;""></stim_listB>",are marrying each other,
null,"<div style=""font-size:60px;"">+</div>",,html-keyboard-response,123,753361,0.0-13.0-0.18,82686,List2B,white,man,,,,null,,,,
null,"<img src=""stim_listB/fight4.gif""style=""height:400px;""></stim_listB>",,html-keyboard-response,124,755381,0.0-13.0-1.18,82686,List2B,white,man,,,,null,,,,
null,are fighting each other,,html-keyboard-response,125,757401,0.0-13.0-2.18,82686,List2B,white,man,,,,null,,,,
26062,,,survey-text,126,783464,0.0-13.0-3.18,82686,List2B,white,man,,,,,"{""Q0"":""fred and beth are fighting each other""}","<img src=""stim_listB/fight4.gif""style=""height:400px;""></stim_listB>",are fighting each other,
null,"<div style=""font-size:60px;"">+</div>",,html-keyboard-response,127,783982,0.0-13.0-0.19,82686,List2B,white,man,,,,null,,,,
null,"<img src=""stim_listB/marry2.gif""style=""height:400px;""></stim_listB>",,html-keyboard-response,128,786001,0.0-13.0-1.19,82686,List2B,white,man,,,,null,,,,
null,are marrying each other,,html-keyboard-response,129,788011,0.0-13.0-2.19,82686,List2B,white,man,,,,null,,,,
26349,,,survey-text,130,814362,0.0-13.0-3.19,82686,List2B,white,man,,,,,"{""Q0"":""luke and jane are marrying each other""}","<img src=""stim_listB/marry2.gif""style=""height:400px;""></stim_listB>",are marrying each other,
5724,"<img src='img/portrait_matrix_list2.jpg' style='width:900px;height:500px;''></img><p>If you have memorised all the portraits and names and are ready to start, press Continue.</p><p><strong>Please note: Your memory of these faces will be tested 4 times during this experiment.</strong></p>",0,html-button-response,131,820089,0.0-14.0-0.0,82686,List2B,white,man,,,,,,,,
5050,"<img src=""portrait/WM2.jpg""style=""height:400px;""></img>",7,html-button-response,132,826156,0.0-14.0-1.0,82686,List2B,white,man,,TRUE,7,,,,,
null,CORRECT,,html-keyboard-response,133,827665,0.0-14.0-2.0-0.0,82686,List2B,white,man,,,,null,,,,
27526,"<img src=""portrait/BM1.jpg""style=""height:400px;""></img>",4,html-button-response,134,855194,0.0-14.0-4.0,82686,List2B,white,man,,TRUE,4,,,,,
null,CORRECT,,html-keyboard-response,135,856732,0.0-14.0-5.0-0.0,82686,List2B,white,man,,,,null,,,,
3494,"<img src=""portrait/WM1.jpg""style=""height:400px;""></img>",6,html-button-response,136,860229,0.0-14.0-7.0,82686,List2B,white,man,,TRUE,6,,,,,
null,CORRECT,,html-keyboard-response,137,861752,0.0-14.0-8.0-0.0,82686,List2B,white,man,,,,null,,,,
5106,"<img src=""portrait/BW1.jpg""style=""height:400px;""></img>",0,html-button-response,138,866860,0.0-14.0-10.0,82686,List2B,white,man,,TRUE,0,,,,,
null,CORRECT,,html-keyboard-response,139,868381,0.0-14.0-11.0-0.0,82686,List2B,white,man,,,,null,,,,
5851,"<img src=""portrait/WW1.jpg""style=""height:400px;""></img>",1,html-button-response,140,874235,0.0-14.0-13.0,82686,List2B,white,man,,TRUE,1,,,,,
null,CORRECT,,html-keyboard-response,141,875773,0.0-14.0-14.0-0.0,82686,List2B,white,man,,,,null,,,,
2782,"<img src=""portrait/BM2.jpg""style=""height:400px;""></img>",5,html-button-response,142,878558,0.0-14.0-16.0,82686,List2B,white,man,,TRUE,5,,,,,
null,CORRECT,,html-keyboard-response,143,880092,0.0-14.0-17.0-0.0,82686,List2B,white,man,,,,null,,,,
3217,"<img src=""portrait/BW2.jpg""style=""height:400px;""></img>",2,html-button-response,144,883311,0.0-14.0-19.0,82686,List2B,white,man,,TRUE,2,,,,,
null,CORRECT,,html-keyboard-response,145,884822,0.0-14.0-20.0-0.0,82686,List2B,white,man,,,,null,,,,
2331,"<img src=""portrait/WW2.jpg""style=""height:400px;""></img>",3,html-button-response,146,887156,0.0-14.0-22.0,82686,List2B,white,man,,TRUE,3,,,,,
null,CORRECT,,html-keyboard-response,147,888673,0.0-14.0-23.0-0.0,82686,List2B,white,man,,,,null,,,,
1711,<p>You got 8 out of 8 right first time. Press Continue.</p>,0,html-button-response,148,890386,0.0-14.0-25.0,82686,List2B,white,man,,,,,,,,
null,"<div style=""font-size:60px;"">+</div>",,html-keyboard-response,149,891912,0.0-15.0-0.0,82686,List2B,white,man,,,,null,,,,
null,"<img src=""stim_listB/argue2.gif""style=""height:400px;""></stim_listB>",,html-keyboard-response,150,893932,0.0-15.0-1.0,82686,List2B,white,man,,,,null,,,,
null,are arguing with each other,,html-keyboard-response,151,895952,0.0-15.0-2.0,82686,List2B,white,man,,,,null,,,,
10746,,,survey-text,152,906699,0.0-15.0-3.0,82686,List2B,white,man,,,,,"{""Q0"":""jane and luke are arguing with each other ""}","<img src=""stim_listB/argue2.gif""style=""height:400px;""></stim_listB>",are arguing with each other,
null,"<div style=""font-size:60px;"">+</div>",,html-keyboard-response,153,907202,0.0-15.0-0.1,82686,List2B,white,man,,,,null,,,,
null,"<img src=""stim_listB/flirt1.gif""style=""height:400px;""></stim_listB>",,html-keyboard-response,154,909212,0.0-15.0-1.1,82686,List2B,white,man,,,,null,,,,
null,is flirting with,,html-keyboard-response,155,911227,0.0-15.0-2.1,82686,List2B,white,man,,,,null,,,,
27556,,,survey-text,156,938784,0.0-15.0-3.1,82686,List2B,white,man,,,,,"{""Q0"":""jane is flirting with luke""}","<img src=""stim_listB/flirt1.gif""style=""height:400px;""></stim_listB>",is flirting with,
null,"<div style=""font-size:60px;"">+</div>",,html-keyboard-response,157,939303,0.0-15.0-0.2,82686,List2B,white,man,,,,null,,,,
null,"<img src=""stim_listB/kiss2.gif""style=""height:400px;""></stim_listB>",,html-keyboard-response,158,941323,0.0-15.0-1.2,82686,List2B,white,man,,,,null,,,,
null,are kissing each other,,html-keyboard-response,159,943345,0.0-15.0-2.2,82686,List2B,white,man,,,,null,,,,
8140,,,survey-text,160,951487,0.0-15.0-3.2,82686,List2B,white,man,,,,,"{""Q0"":""dave and jane are kissing each other ""}","<img src=""stim_listB/kiss2.gif""style=""height:400px;""></stim_listB>",are kissing each other,
null,"<div style=""font-size:60px;"">+</div>",,html-keyboard-response,161,951993,0.0-15.0-0.3,82686,List2B,white,man,,,,null,,,,
null,"<img src=""stim_listB/play6.gif""style=""height:400px;""></stim_listB>",,html-keyboard-response,162,954012,0.0-15.0-1.3,82686,List2B,white,man,,,,null,,,,
null,are playing with each other,,html-keyboard-response,163,956023,0.0-15.0-2.3,82686,List2B,white,man,,,,null,,,,
36960,,,survey-text,164,992984,0.0-15.0-3.3,82686,List2B,white,man,,,,,"{""Q0"":""luke and fred are playing with each other ""}","<img src=""stim_listB/play6.gif""style=""height:400px;""></stim_listB>",are playing with each other,
null,"<div style=""font-size:60px;"">+</div>",,html-keyboard-response,165,993503,0.0-15.0-0.4,82686,List2B,white,man,,,,null,,,,
null,"<img src=""stim_listB/kiss6.gif""style=""height:400px;""></stim_listB>",,html-keyboard-response,166,995524,0.0-15.0-1.4,82686,List2B,white,man,,,,null,,,,
null,are kissing each other,,html-keyboard-response,167,997536,0.0-15.0-2.4,82686,List2B,white,man,,,,null,,,,
16894,,,survey-text,168,1014431,0.0-15.0-3.4,82686,List2B,white,man,,,,,"{""Q0"":""mike and dave are kissing each other""}","<img src=""stim_listB/kiss6.gif""style=""height:400px;""></stim_listB>",are kissing each other,
null,"<div style=""font-size:60px;"">+</div>",,html-keyboard-response,169,1014934,0.0-15.0-0.5,82686,List2B,white,man,,,,null,,,,
null,"<img src=""stim_listB/argue1.gif""style=""height:400px;""></stim_listB>",,html-keyboard-response,170,1016953,0.0-15.0-1.5,82686,List2B,white,man,,,,null,,,,
null,is arguing with,,html-keyboard-response,171,1018973,0.0-15.0-2.5,82686,List2B,white,man,,,,null,,,,
6063,,,survey-text,172,1025038,0.0-15.0-3.5,82686,List2B,white,man,,,,,"{""Q0"":""ruth is arguing with dave""}","<img src=""stim_listB/argue1.gif""style=""height:400px;""></stim_listB>",is arguing with,
null,"<div style=""font-size:60px;"">+</div>",,html-keyboard-response,173,1025544,0.0-15.0-0.6,82686,List2B,white,man,,,,null,,,,
null,"<img src=""stim_listB/talk1.gif""style=""height:400px;""></stim_listB>",,html-keyboard-response,174,1027553,0.0-15.0-1.6,82686,List2B,white,man,,,,null,,,,
null,is talking to,,html-keyboard-response,175,1029573,0.0-15.0-2.6,82686,List2B,white,man,,,,null,,,,
6671,,,survey-text,176,1036245,0.0-15.0-3.6,82686,List2B,white,man,,,,,"{""Q0"":""luke is talking to jane""}","<img src=""stim_listB/talk1.gif""style=""height:400px;""></stim_listB>",is talking to,
null,"<div style=""font-size:60px;"">+</div>",,html-keyboard-response,177,1036752,0.0-15.0-0.7,82686,List2B,white,man,,,,null,,,,
null,"<img src=""stim_listB/play7.gif""style=""height:400px;""></stim_listB>",,html-keyboard-response,178,1038754,0.0-15.0-1.7,82686,List2B,white,man,,,,null,,,,
null,is playing with,,html-keyboard-response,179,1040773,0.0-15.0-2.7,82686,List2B,white,man,,,,null,,,,
6514,,,survey-text,180,1047289,0.0-15.0-3.7,82686,List2B,white,man,,,,,"{""Q0"":""jane is playing with kate""}","<img src=""stim_listB/play7.gif""style=""height:400px;""></stim_listB>",is playing with,
null,"<div style=""font-size:60px;"">+</div>",,html-keyboard-response,181,1047792,0.0-15.0-0.8,82686,List2B,white,man,,,,null,,,,
null,"<img src=""stim_listB/dance3.gif""style=""height:400px;""></stim_listB>",,html-keyboard-response,182,1049804,0.0-15.0-1.8,82686,List2B,white,man,,,,null,,,,
null,is dancing with,,html-keyboard-response,183,1051824,0.0-15.0-2.8,82686,List2B,white,man,,,,null,,,,
6474,,,survey-text,184,1058298,0.0-15.0-3.8,82686,List2B,white,man,,,,,"{""Q0"":""kate is dancing with fred""}","<img src=""stim_listB/dance3.gif""style=""height:400px;""></stim_listB>",is dancing with,
null,"<div style=""font-size:60px;"">+</div>",,html-keyboard-response,185,1058804,0.0-15.0-0.9,82686,List2B,white,man,,,,null,,,,
null,"<img src=""stim_listB/marry3.gif""style=""height:400px;""></stim_listB>",,html-keyboard-response,186,1060824,0.0-15.0-1.9,82686,List2B,white,man,,,,null,,,,
null,is marrying,,html-keyboard-response,187,1062844,0.0-15.0-2.9,82686,List2B,white,man,,,,null,,,,
7190,,,survey-text,188,1070035,0.0-15.0-3.9,82686,List2B,white,man,,,,,"{""Q0"":""beth is marrying mike""}","<img src=""stim_listB/marry3.gif""style=""height:400px;""></stim_listB>",is marrying,
null,"<div style=""font-size:60px;"">+</div>",,html-keyboard-response,189,1070554,0.0-15.0-0.10,82686,List2B,white,man,,,,null,,,,
null,"<img src=""stim_listB/fight1.gif""style=""height:400px;""></stim_listB>",,html-keyboard-response,190,1072574,0.0-15.0-1.10,82686,List2B,white,man,,,,null,,,,
null,is fighting,,html-keyboard-response,191,1074586,0.0-15.0-2.10,82686,List2B,white,man,,,,null,,,,
4985,,,survey-text,192,1079571,0.0-15.0-3.10,82686,List2B,white,man,,,,,"{""Q0"":""jane is fighting dave""}","<img src=""stim_listB/fight1.gif""style=""height:400px;""></stim_listB>",is fighting,
null,"<div style=""font-size:60px;"">+</div>",,html-keyboard-response,193,1080081,0.0-15.0-0.11,82686,List2B,white,man,,,,null,,,,
null,"<img src=""stim_listB/touch5.gif""style=""height:400px;""></stim_listB>",,html-keyboard-response,194,1082084,0.0-15.0-1.11,82686,List2B,white,man,,,,null,,,,
null,is touching,,html-keyboard-response,195,1084105,0.0-15.0-2.11,82686,List2B,white,man,,,,null,,,,
4799,,,survey-text,196,1088907,0.0-15.0-3.11,82686,List2B,white,man,,,,,"{""Q0"":""mike is touching dave""}","<img src=""stim_listB/touch5.gif""style=""height:400px;""></stim_listB>",is touching,
null,"<div style=""font-size:60px;"">+</div>",,html-keyboard-response,197,1089414,0.0-15.0-0.12,82686,List2B,white,man,,,,null,,,,
null,"<img src=""stim_listB/fight7.gif""style=""height:400px;""></stim_listB>",,html-keyboard-response,198,1091435,0.0-15.0-1.12,82686,List2B,white,man,,,,null,,,,
null,is fighting,,html-keyboard-response,199,1093454,0.0-15.0-2.12,82686,List2B,white,man,,,,null,,,,
5085,,,survey-text,200,1098542,0.0-15.0-3.12,82686,List2B,white,man,,,,,"{""Q0"":""kate is fighting jane""}","<img src=""stim_listB/fight7.gif""style=""height:400px;""></stim_listB>",is fighting,
null,"<div style=""font-size:60px;"">+</div>",,html-keyboard-response,201,1099045,0.0-15.0-0.13,82686,List2B,white,man,,,,null,,,,
null,"<img src=""stim_listB/flirt2.gif""style=""height:400px;""></stim_listB>",,html-keyboard-response,202,1101064,0.0-15.0-1.13,82686,List2B,white,man,,,,null,,,,
null,are flirting with each other,,html-keyboard-response,203,1103085,0.0-15.0-2.13,82686,List2B,white,man,,,,null,,,,
8555,,,survey-text,204,1111640,0.0-15.0-3.13,82686,List2B,white,man,,,,,"{""Q0"":""ruth and dave are flirting with each other""}","<img src=""stim_listB/flirt2.gif""style=""height:400px;""></stim_listB>",are flirting with each other,
null,"<div style=""font-size:60px;"">+</div>",,html-keyboard-response,205,1112153,0.0-15.0-0.14,82686,List2B,white,man,,,,null,,,,
null,"<img src=""stim_listB/argue6.gif""style=""height:400px;""></stim_listB>",,html-keyboard-response,206,1114164,0.0-15.0-1.14,82686,List2B,white,man,,,,null,,,,
null,are arguing with each other,,html-keyboard-response,207,1116166,0.0-15.0-2.14,82686,List2B,white,man,,,,null,,,,
7766,,,survey-text,208,1123934,0.0-15.0-3.14,82686,List2B,white,man,,,,,"{""Q0"":""luke and mike are arguing with each other""}","<img src=""stim_listB/argue6.gif""style=""height:400px;""></stim_listB>",are arguing with each other,
null,"<div style=""font-size:60px;"">+</div>",,html-keyboard-response,209,1124434,0.0-15.0-0.15,82686,List2B,white,man,,,,null,,,,
null,"<img src=""stim_listB/talk5.gif""style=""height:400px;""></stim_listB>",,html-keyboard-response,210,1126444,0.0-15.0-1.15,82686,List2B,white,man,,,,null,,,,
null,is talking to,,html-keyboard-response,211,1128456,0.0-15.0-2.15,82686,List2B,white,man,,,,null,,,,
4502,,,survey-text,212,1132959,0.0-15.0-3.15,82686,List2B,white,man,,,,,"{""Q0"":""luke is talking to mike""}","<img src=""stim_listB/talk5.gif""style=""height:400px;""></stim_listB>",is talking to,
null,"<div style=""font-size:60px;"">+</div>",,html-keyboard-response,213,1133465,0.0-15.0-0.16,82686,List2B,white,man,,,,null,,,,
null,"<img src=""stim_listB/kiss1.gif""style=""height:400px;""></stim_listB>",,html-keyboard-response,214,1135485,0.0-15.0-1.16,82686,List2B,white,man,,,,null,,,,
null,is kissing,,html-keyboard-response,215,1137498,0.0-15.0-2.16,82686,List2B,white,man,,,,null,,,,
4503,,,survey-text,216,1142002,0.0-15.0-3.16,82686,List2B,white,man,,,,,"{""Q0"":""luke is kissing ruth""}","<img src=""stim_listB/kiss1.gif""style=""height:400px;""></stim_listB>",is kissing,
null,"<div style=""font-size:60px;"">+</div>",,html-keyboard-response,217,1142505,0.0-15.0-0.17,82686,List2B,white,man,,,,null,,,,
null,"<img src=""stim_listB/touch7.gif""style=""height:400px;""></stim_listB>",,html-keyboard-response,218,1144509,0.0-15.0-1.17,82686,List2B,white,man,,,,null,,,,
null,is touching,,html-keyboard-response,219,1146515,0.0-15.0-2.17,82686,List2B,white,man,,,,null,,,,
4272,,,survey-text,220,1150791,0.0-15.0-3.17,82686,List2B,white,man,,,,,"{""Q0"":""jane is touching kate""}","<img src=""stim_listB/touch7.gif""style=""height:400px;""></stim_listB>",is touching,
null,"<div style=""font-size:60px;"">+</div>",,html-keyboard-response,221,1151295,0.0-15.0-0.18,82686,List2B,white,man,,,,null,,,,
null,"<img src=""stim_listB/flirt7.gif""style=""height:400px;""></stim_listB>",,html-keyboard-response,222,1153314,0.0-15.0-1.18,82686,List2B,white,man,,,,null,,,,
null,is flirting with,,html-keyboard-response,223,1155330,0.0-15.0-2.18,82686,List2B,white,man,,,,null,,,,
5475,,,survey-text,224,1160807,0.0-15.0-3.18,82686,List2B,white,man,,,,,"{""Q0"":""kate is flirting with ruth""}","<img src=""stim_listB/flirt7.gif""style=""height:400px;""></stim_listB>",is flirting with,
null,"<div style=""font-size:60px;"">+</div>",,html-keyboard-response,225,1161315,0.0-15.0-0.19,82686,List2B,white,man,,,,null,,,,
null,"<img src=""stim_listB/play5.gif""style=""height:400px;""></stim_listB>",,html-keyboard-response,226,1163335,0.0-15.0-1.19,82686,List2B,white,man,,,,null,,,,
null,is playing with,,html-keyboard-response,227,1165341,0.0-15.0-2.19,82686,List2B,white,man,,,,null,,,,
5718,,,survey-text,228,1171060,0.0-15.0-3.19,82686,List2B,white,man,,,,,"{""Q0"":""mike is playing with dave""}","<img src=""stim_listB/play5.gif""style=""height:400px;""></stim_listB>",is playing with,
10959,"<img src='img/portrait_matrix_list2.jpg' style='width:900px;height:500px;''></img><p>If you have memorised all the portraits and names and are ready to start, press Continue.</p><p><strong>Please note: Your memory of these faces will be tested 4 times during this experiment.</strong></p>",0,html-button-response,229,1182021,0.0-16.0-0.0,82686,List2B,white,man,,,,,,,,
2793,"<img src=""portrait/BW2.jpg""style=""height:400px;""></img>",2,html-button-response,230,1185820,0.0-16.0-1.0,82686,List2B,white,man,,TRUE,2,,,,,
null,CORRECT,,html-keyboard-response,231,1187345,0.0-16.0-2.0-0.0,82686,List2B,white,man,,,,null,,,,
2509,"<img src=""portrait/WM1.jpg""style=""height:400px;""></img>",6,html-button-response,232,1189857,0.0-16.0-4.0,82686,List2B,white,man,,TRUE,6,,,,,
null,CORRECT,,html-keyboard-response,233,1191368,0.0-16.0-5.0-0.0,82686,List2B,white,man,,,,null,,,,
2137,"<img src=""portrait/WW1.jpg""style=""height:400px;""></img>",1,html-button-response,234,1193507,0.0-16.0-7.0,82686,List2B,white,man,,TRUE,1,,,,,
null,CORRECT,,html-keyboard-response,235,1195032,0.0-16.0-8.0-0.0,82686,List2B,white,man,,,,null,,,,
2144,"<img src=""portrait/WM2.jpg""style=""height:400px;""></img>",7,html-button-response,236,1197177,0.0-16.0-10.0,82686,List2B,white,man,,TRUE,7,,,,,
null,CORRECT,,html-keyboard-response,237,1198705,0.0-16.0-11.0-0.0,82686,List2B,white,man,,,,null,,,,
2997,"<img src=""portrait/BM1.jpg""style=""height:400px;""></img>",4,html-button-response,238,1201703,0.0-16.0-13.0,82686,List2B,white,man,,TRUE,4,,,,,
null,CORRECT,,html-keyboard-response,239,1203225,0.0-16.0-14.0-0.0,82686,List2B,white,man,,,,null,,,,
2952,"<img src=""portrait/BM2.jpg""style=""height:400px;""></img>",5,html-button-response,240,1206179,0.0-16.0-16.0,82686,List2B,white,man,,TRUE,5,,,,,
null,CORRECT,,html-keyboard-response,241,1207700,0.0-16.0-17.0-0.0,82686,List2B,white,man,,,,null,,,,
2203,"<img src=""portrait/WW2.jpg""style=""height:400px;""></img>",3,html-button-response,242,1209905,0.0-16.0-19.0,82686,List2B,white,man,,TRUE,3,,,,,
null,CORRECT,,html-keyboard-response,243,1211436,0.0-16.0-20.0-0.0,82686,List2B,white,man,,,,null,,,,
2401,"<img src=""portrait/BW1.jpg""style=""height:400px;""></img>",4,html-button-response,244,1213841,0.0-16.0-22.0,82686,List2B,white,man,,TRUE,0,,,,,
3924,"<img src=""portrait/BW1.jpg""style=""height:400px;""></img>",0,html-button-response,245,1218775,0.0-16.0-24.0-0.0,82686,List2B,white,man,,FALSE,0,,,,,
null,CORRECT,,html-keyboard-response,246,1220306,0.0-16.0-24.0-1.0-0.0,82686,List2B,white,man,,,,null,,,,
13139,<p>You got 7 out of 8 right first time. Press Continue.</p>,0,html-button-response,247,1233448,0.0-16.0-25.0,82686,List2B,white,man,,,,,,,,
1734,"As you did not score 100%, the memory game will repeat. Press Continue.",0,html-button-response,248,1236191,0.0-16.0-26.0-0.0,82686,List2B,white,man,,,,,,,,
2419,"<img src='img/portrait_matrix_list2.jpg' style='width:900px;height:500px;''></img><p>If you have memorised all the portraits and names and are ready to start, press Continue.</p><p><strong>Please note: Your memory of these faces will be tested 4 times during this experiment.</strong></p>",0,html-button-response,249,1239619,0.0-16.1-0.1,82686,List2B,white,man,,,,,,,,
2920,"<img src=""portrait/BW2.jpg""style=""height:400px;""></img>",2,html-button-response,250,1243558,0.0-16.1-1.1,82686,List2B,white,man,,TRUE,2,,,,,
null,CORRECT,,html-keyboard-response,251,1245089,0.0-16.1-2.1-0.1,82686,List2B,white,man,,,,null,,,,
2426,"<img src=""portrait/WM1.jpg""style=""height:400px;""></img>",6,html-button-response,252,1247518,0.0-16.1-4.1,82686,List2B,white,man,,TRUE,6,,,,,
null,CORRECT,,html-keyboard-response,253,1249056,0.0-16.1-5.1-0.1,82686,List2B,white,man,,,,null,,,,
1998,"<img src=""portrait/WW1.jpg""style=""height:400px;""></img>",1,html-button-response,254,1251055,0.0-16.1-7.1,82686,List2B,white,man,,TRUE,1,,,,,
null,CORRECT,,html-keyboard-response,255,1252596,0.0-16.1-8.1-0.1,82686,List2B,white,man,,,,null,,,,
1754,"<img src=""portrait/WM2.jpg""style=""height:400px;""></img>",7,html-button-response,256,1254353,0.0-16.1-10.1,82686,List2B,white,man,,TRUE,7,,,,,
null,CORRECT,,html-keyboard-response,257,1255876,0.0-16.1-11.1-0.1,82686,List2B,white,man,,,,null,,,,
2057,"<img src=""portrait/BM1.jpg""style=""height:400px;""></img>",4,html-button-response,258,1257935,0.0-16.1-13.1,82686,List2B,white,man,,TRUE,4,,,,,
null,CORRECT,,html-keyboard-response,259,1259456,0.0-16.1-14.1-0.1,82686,List2B,white,man,,,,null,,,,
3614,"<img src=""portrait/BM2.jpg""style=""height:400px;""></img>",5,html-button-response,260,1263072,0.0-16.1-16.1,82686,List2B,white,man,,TRUE,5,,,,,
null,CORRECT,,html-keyboard-response,261,1264595,0.0-16.1-17.1-0.1,82686,List2B,white,man,,,,null,,,,
2279,"<img src=""portrait/WW2.jpg""style=""height:400px;""></img>",3,html-button-response,262,1266876,0.0-16.1-19.1,82686,List2B,white,man,,TRUE,3,,,,,
null,CORRECT,,html-keyboard-response,263,1268396,0.0-16.1-20.1-0.1,82686,List2B,white,man,,,,null,,,,
4488,"<img src=""portrait/BW1.jpg""style=""height:400px;""></img>",0,html-button-response,264,1272884,0.0-16.1-22.1,82686,List2B,white,man,,TRUE,0,,,,,
null,CORRECT,,html-keyboard-response,265,1274416,0.0-16.1-23.1-0.1,82686,List2B,white,man,,,,null,,,,
1555,<p>You got 8 out of 8 right first time. Press Continue.</p>,0,html-button-response,266,1275973,0.0-16.1-25.1,82686,List2B,white,man,,,,,,,,
null,"<div style=""font-size:60px;"">+</div>",,html-keyboard-response,267,1277496,0.0-17.0-0.0,82686,List2B,white,man,,,,null,,,,
null,"<img src=""stim_listB/talk6.gif""style=""height:400px;""></stim_listB>",,html-keyboard-response,268,1279506,0.0-17.0-1.0,82686,List2B,white,man,,,,null,,,,
null,are talking to each other,,html-keyboard-response,269,1281508,0.0-17.0-2.0,82686,List2B,white,man,,,,null,,,,
7346,,,survey-text,270,1288855,0.0-17.0-3.0,82686,List2B,white,man,,,,,"{""Q0"":""dave and fred are talking to each other""}","<img src=""stim_listB/talk6.gif""style=""height:400px;""></stim_listB>",are talking to each other,
null,"<div style=""font-size:60px;"">+</div>",,html-keyboard-response,271,1289368,0.0-17.0-0.1,82686,List2B,white,man,,,,null,,,,
null,"<img src=""stim_listB/touch2.gif""style=""height:400px;""></stim_listB>",,html-keyboard-response,272,1291376,0.0-17.0-1.1,82686,List2B,white,man,,,,null,,,,
null,are touching each other,,html-keyboard-response,273,1293396,0.0-17.0-2.1,82686,List2B,white,man,,,,null,,,,
7324,,,survey-text,274,1300722,0.0-17.0-3.1,82686,List2B,white,man,,,,,"{""Q0"":""ruth and luke are touching each other""}","<img src=""stim_listB/touch2.gif""style=""height:400px;""></stim_listB>",are touching each other,
null,"<div style=""font-size:60px;"">+</div>",,html-keyboard-response,275,1301226,0.0-17.0-0.2,82686,List2B,white,man,,,,null,,,,
null,"<img src=""stim_listB/flirt5.gif""style=""height:400px;""></stim_listB>",,html-keyboard-response,276,1303246,0.0-17.0-1.2,82686,List2B,white,man,,,,null,,,,
null,is flirting with,,html-keyboard-response,277,1305262,0.0-17.0-2.2,82686,List2B,white,man,,,,null,,,,
5471,,,survey-text,278,1310735,0.0-17.0-3.2,82686,List2B,white,man,,,,,"{""Q0"":""luke is flirting with mike""}","<img src=""stim_listB/flirt5.gif""style=""height:400px;""></stim_listB>",is flirting with,
null,"<div style=""font-size:60px;"">+</div>",,html-keyboard-response,279,1311236,0.0-17.0-0.3,82686,List2B,white,man,,,,null,,,,
null,"<img src=""stim_listB/shout3.gif""style=""height:400px;""></stim_listB>",,html-keyboard-response,280,1313247,0.0-17.0-1.3,82686,List2B,white,man,,,,null,,,,
null,is shouting at,,html-keyboard-response,281,1315262,0.0-17.0-2.3,82686,List2B,white,man,,,,null,,,,
5528,,,survey-text,282,1320790,0.0-17.0-3.3,82686,List2B,white,man,,,,,"{""Q0"":""beth is shouting at fred""}","<img src=""stim_listB/shout3.gif""style=""height:400px;""></stim_listB>",is shouting at,
null,"<div style=""font-size:60px;"">+</div>",,html-keyboard-response,283,1321307,0.0-17.0-0.4,82686,List2B,white,man,,,,null,,,,
null,"<img src=""stim_listB/touch3.gif""style=""height:400px;""></stim_listB>",,html-keyboard-response,284,1323327,0.0-17.0-1.4,82686,List2B,white,man,,,,null,,,,
null,is touching,,html-keyboard-response,285,1325347,0.0-17.0-2.4,82686,List2B,white,man,,,,null,,,,
4719,,,survey-text,286,1330068,0.0-17.0-3.4,82686,List2B,white,man,,,,,"{""Q0"":""mike is touching kate""}","<img src=""stim_listB/touch3.gif""style=""height:400px;""></stim_listB>",is touching,
null,"<div style=""font-size:60px;"">+</div>",,html-keyboard-response,287,1330587,0.0-17.0-0.5,82686,List2B,white,man,,,,null,,,,
null,"<img src=""stim_listB/flirt4.gif""style=""height:400px;""></stim_listB>",,html-keyboard-response,288,1332603,0.0-17.0-1.5,82686,List2B,white,man,,,,null,,,,
null,are flirting with each other,,html-keyboard-response,289,1334606,0.0-17.0-2.5,82686,List2B,white,man,,,,null,,,,
8651,,,survey-text,290,1343260,0.0-17.0-3.5,82686,List2B,white,man,,,,,"{""Q0"":""mike and beth are flirting witheach other""}","<img src=""stim_listB/flirt4.gif""style=""height:400px;""></stim_listB>",are flirting with each other,
null,"<div style=""font-size:60px;"">+</div>",,html-keyboard-response,291,1343776,0.0-17.0-0.6,82686,List2B,white,man,,,,null,,,,
null,"<img src=""stim_listB/talk4.gif""style=""height:400px;""></stim_listB>",,html-keyboard-response,292,1345797,0.0-17.0-1.6,82686,List2B,white,man,,,,null,,,,
null,are talking to each other,,html-keyboard-response,293,1347800,0.0-17.0-2.6,82686,List2B,white,man,,,,null,,,,
6980,,,survey-text,294,1354781,0.0-17.0-3.6,82686,List2B,white,man,,,,,"{""Q0"":""mike and beth are talking to each other""}","<img src=""stim_listB/talk4.gif""style=""height:400px;""></stim_listB>",are talking to each other,
null,"<div style=""font-size:60px;"">+</div>",,html-keyboard-response,295,1355297,0.0-17.0-0.7,82686,List2B,white,man,,,,null,,,,
null,"<img src=""stim_listB/talk7.gif""style=""height:400px;""></stim_listB>",,html-keyboard-response,296,1357316,0.0-17.0-1.7,82686,List2B,white,man,,,,null,,,,
null,is talking to,,html-keyboard-response,297,1359324,0.0-17.0-2.7,82686,List2B,white,man,,,,null,,,,
6040,,,survey-text,298,1365367,0.0-17.0-3.7,82686,List2B,white,man,,,,,"{""Q0"":""ruth is talking to kate""}","<img src=""stim_listB/talk7.gif""style=""height:400px;""></stim_listB>",is talking to,
null,"<div style=""font-size:60px;"">+</div>",,html-keyboard-response,299,1365878,0.0-17.0-0.8,82686,List2B,white,man,,,,null,,,,
null,"<img src=""stim_listB/flirt3.gif""style=""height:400px;""></stim_listB>",,html-keyboard-response,300,1367897,0.0-17.0-1.8,82686,List2B,white,man,,,,null,,,,
null,is flirting with,,html-keyboard-response,301,1369899,0.0-17.0-2.8,82686,List2B,white,man,,,,null,,,,
5428,,,survey-text,302,1375328,0.0-17.0-3.8,82686,List2B,white,man,,,,,"{""Q0"":""kate is flirting with fred""}","<img src=""stim_listB/flirt3.gif""style=""height:400px;""></stim_listB>",is flirting with,
null,"<div style=""font-size:60px;"">+</div>",,html-keyboard-response,303,1375838,0.0-17.0-0.9,82686,List2B,white,man,,,,null,,,,
null,"<img src=""stim_listB/shout4.gif""style=""height:400px;""></stim_listB>",,html-keyboard-response,304,1377857,0.0-17.0-1.9,82686,List2B,white,man,,,,null,,,,
null,are shouting at each other,,html-keyboard-response,305,1379877,0.0-17.0-2.9,82686,List2B,white,man,,,,null,,,,
8078,,,survey-text,306,1387956,0.0-17.0-3.9,82686,List2B,white,man,,,,,"{""Q0"":""mike and kate are shouting at each other""}","<img src=""stim_listB/shout4.gif""style=""height:400px;""></stim_listB>",are shouting at each other,
null,"<div style=""font-size:60px;"">+</div>",,html-keyboard-response,307,1388477,0.0-17.0-0.10,82686,List2B,white,man,,,,null,,,,
null,"<img src=""stim_listB/kiss4.gif""style=""height:400px;""></stim_listB>",,html-keyboard-response,308,1390497,0.0-17.0-1.10,82686,List2B,white,man,,,,null,,,,
null,are kissing each other,,html-keyboard-response,309,1392517,0.0-17.0-2.10,82686,List2B,white,man,,,,null,,,,
8738,,,survey-text,310,1401257,0.0-17.0-3.10,82686,List2B,white,man,,,,,"{""Q0"":""mike and kate are kissing each other""}","<img src=""stim_listB/kiss4.gif""style=""height:400px;""></stim_listB>",are kissing each other,
null,"<div style=""font-size:60px;"">+</div>",,html-keyboard-response,311,1401778,0.0-17.0-0.11,82686,List2B,white,man,,,,null,,,,
null,"<img src=""stim_listB/talk3.gif""style=""height:400px;""></stim_listB>",,html-keyboard-response,312,1403797,0.0-17.0-1.11,82686,List2B,white,man,,,,null,,,,
null,is talking to,,html-keyboard-response,313,1405801,0.0-17.0-2.11,82686,List2B,white,man,,,,null,,,,
5048,,,survey-text,314,1410849,0.0-17.0-3.11,82686,List2B,white,man,,,,,"{""Q0"":""kate is talking to fred""}","<img src=""stim_listB/talk3.gif""style=""height:400px;""></stim_listB>",is talking to,
null,"<div style=""font-size:60px;"">+</div>",,html-keyboard-response,315,1411363,0.0-17.0-0.12,82686,List2B,white,man,,,,null,,,,
null,"<img src=""stim_listB/shout8.gif""style=""height:400px;""></stim_listB>",,html-keyboard-response,316,1413367,0.0-17.0-1.12,82686,List2B,white,man,,,,null,,,,
null,are shouting at each other,,html-keyboard-response,317,1415376,0.0-17.0-2.12,82686,List2B,white,man,,,,null,,,,
6071,,,survey-text,318,1421448,0.0-17.0-3.12,82686,List2B,white,man,,,,,"{""Q0"":""kate and jane are shouting at each other""}","<img src=""stim_listB/shout8.gif""style=""height:400px;""></stim_listB>",are shouting at each other,
null,"<div style=""font-size:60px;"">+</div>",,html-keyboard-response,319,1421968,0.0-17.0-0.13,82686,List2B,white,man,,,,null,,,,
null,"<img src=""stim_listB/dance2.gif""style=""height:400px;""></stim_listB>",,html-keyboard-response,320,1423987,0.0-17.0-1.13,82686,List2B,white,man,,,,null,,,,
null,are dancing with each other,,html-keyboard-response,321,1426000,0.0-17.0-2.13,82686,List2B,white,man,,,,null,,,,
5898,,,survey-text,322,1431899,0.0-17.0-3.13,82686,List2B,white,man,,,,,"{""Q0"":""ruth and dave are dancing with each other""}","<img src=""stim_listB/dance2.gif""style=""height:400px;""></stim_listB>",are dancing with each other,
null,"<div style=""font-size:60px;"">+</div>",,html-keyboard-response,323,1432407,0.0-17.0-0.14,82686,List2B,white,man,,,,null,,,,
null,"<img src=""stim_listB/shout2.gif""style=""height:400px;""></stim_listB>",,html-keyboard-response,324,1434428,0.0-17.0-1.14,82686,List2B,white,man,,,,null,,,,
null,are shouting at each other,,html-keyboard-response,325,1436448,0.0-17.0-2.14,82686,List2B,white,man,,,,null,,,,
8325,,,survey-text,326,1444773,0.0-17.0-3.14,82686,List2B,white,man,,,,,"{""Q0"":""dave and jane are shouting at each other""}","<img src=""stim_listB/shout2.gif""style=""height:400px;""></stim_listB>",are shouting at each other,
null,"<div style=""font-size:60px;"">+</div>",,html-keyboard-response,327,1445283,0.0-17.0-0.15,82686,List2B,white,man,,,,null,,,,
null,"<img src=""stim_listB/play3.gif""style=""height:400px;""></stim_listB>",,html-keyboard-response,328,1447287,0.0-17.0-1.15,82686,List2B,white,man,,,,null,,,,
null,is playing with,,html-keyboard-response,329,1449297,0.0-17.0-2.15,82686,List2B,white,man,,,,null,,,,
5566,,,survey-text,330,1454866,0.0-17.0-3.15,82686,List2B,white,man,,,,,"{""Q0"":""mike is playing with kate""}","<img src=""stim_listB/play3.gif""style=""height:400px;""></stim_listB>",is playing with,
null,"<div style=""font-size:60px;"">+</div>",,html-keyboard-response,331,1455374,0.0-17.0-0.16,82686,List2B,white,man,,,,null,,,,
null,"<img src=""stim_listB/kiss7.gif""style=""height:400px;""></stim_listB>",,html-keyboard-response,332,1457377,0.0-17.0-1.16,82686,List2B,white,man,,,,null,,,,
null,is kissing,,html-keyboard-response,333,1459398,0.0-17.0-2.16,82686,List2B,white,man,,,,null,,,,
6027,,,survey-text,334,1465428,0.0-17.0-3.16,82686,List2B,white,man,,,,,"{""Q0"":""beth is kissing ruth""}","<img src=""stim_listB/kiss7.gif""style=""height:400px;""></stim_listB>",is kissing,
null,"<div style=""font-size:60px;"">+</div>",,html-keyboard-response,335,1465933,0.0-17.0-0.17,82686,List2B,white,man,,,,null,,,,
null,"<img src=""stim_listB/fight6.gif""style=""height:400px;""></stim_listB>",,html-keyboard-response,336,1467938,0.0-17.0-1.17,82686,List2B,white,man,,,,null,,,,
null,are fighting each other,,html-keyboard-response,337,1469959,0.0-17.0-2.17,82686,List2B,white,man,,,,null,,,,
6978,,,survey-text,338,1476937,0.0-17.0-3.17,82686,List2B,white,man,,,,,"{""Q0"":""luke and fred are fighting each other""}","<img src=""stim_listB/fight6.gif""style=""height:400px;""></stim_listB>",are fighting each other,
null,"<div style=""font-size:60px;"">+</div>",,html-keyboard-response,339,1477439,0.0-17.0-0.18,82686,List2B,white,man,,,,null,,,,
null,"<img src=""stim_listB/marry6.gif""style=""height:400px;""></stim_listB>",,html-keyboard-response,340,1479448,0.0-17.0-1.18,82686,List2B,white,man,,,,null,,,,
null,are marrying each other,,html-keyboard-response,341,1481452,0.0-17.0-2.18,82686,List2B,white,man,,,,null,,,,
8945,,,survey-text,342,1490399,0.0-17.0-3.18,82686,List2B,white,man,,,,,"{""Q0"":""luke and mike are marrying each other""}","<img src=""stim_listB/marry6.gif""style=""height:400px;""></stim_listB>",are marrying each other,
null,"<div style=""font-size:60px;"">+</div>",,html-keyboard-response,343,1490909,0.0-17.0-0.19,82686,List2B,white,man,,,,null,,,,
null,"<img src=""stim_listB/touch1.gif""style=""height:400px;""></stim_listB>",,html-keyboard-response,344,1492929,0.0-17.0-1.19,82686,List2B,white,man,,,,null,,,,
null,is touching,,html-keyboard-response,345,1494949,0.0-17.0-2.19,82686,List2B,white,man,,,,null,,,,
4470,,,survey-text,346,1499420,0.0-17.0-3.19,82686,List2B,white,man,,,,,"{""Q0"":""jane is touching dave""}","<img src=""stim_listB/touch1.gif""style=""height:400px;""></stim_listB>",is touching,
12614,"<img src='img/portrait_matrix_list2.jpg' style='width:900px;height:500px;''></img><p>If you have memorised all the portraits and names and are ready to start, press Continue.</p><p><strong>Please note: Your memory of these faces will be tested 4 times during this experiment.</strong></p>",0,html-button-response,347,1512036,0.0-18.0-0.0,82686,List2B,white,man,,,,,,,,
2803,"<img src=""portrait/WM1.jpg""style=""height:400px;""></img>",6,html-button-response,348,1515854,0.0-18.0-1.0,82686,List2B,white,man,,TRUE,6,,,,,
null,CORRECT,,html-keyboard-response,349,1517388,0.0-18.0-2.0-0.0,82686,List2B,white,man,,,,null,,,,
1795,"<img src=""portrait/BM1.jpg""style=""height:400px;""></img>",4,html-button-response,350,1519186,0.0-18.0-4.0,82686,List2B,white,man,,TRUE,4,,,,,
null,CORRECT,,html-keyboard-response,351,1520708,0.0-18.0-5.0-0.0,82686,List2B,white,man,,,,null,,,,
1486,"<img src=""portrait/WW1.jpg""style=""height:400px;""></img>",1,html-button-response,352,1522196,0.0-18.0-7.0,82686,List2B,white,man,,TRUE,1,,,,,
null,CORRECT,,html-keyboard-response,353,1523730,0.0-18.0-8.0-0.0,82686,List2B,white,man,,,,null,,,,
1691,"<img src=""portrait/BW1.jpg""style=""height:400px;""></img>",0,html-button-response,354,1525424,0.0-18.0-10.0,82686,List2B,white,man,,TRUE,0,,,,,
null,CORRECT,,html-keyboard-response,355,1526959,0.0-18.0-11.0-0.0,82686,List2B,white,man,,,,null,,,,
2277,"<img src=""portrait/WM2.jpg""style=""height:400px;""></img>",7,html-button-response,356,1529240,0.0-18.0-13.0,82686,List2B,white,man,,TRUE,7,,,,,
null,CORRECT,,html-keyboard-response,357,1530779,0.0-18.0-14.0-0.0,82686,List2B,white,man,,,,null,,,,
4314,"<img src=""portrait/WW2.jpg""style=""height:400px;""></img>",3,html-button-response,358,1535096,0.0-18.0-16.0,82686,List2B,white,man,,TRUE,3,,,,,
null,CORRECT,,html-keyboard-response,359,1536619,0.0-18.0-17.0-0.0,82686,List2B,white,man,,,,null,,,,
2342,"<img src=""portrait/BM2.jpg""style=""height:400px;""></img>",5,html-button-response,360,1538966,0.0-18.0-19.0,82686,List2B,white,man,,TRUE,5,,,,,
null,CORRECT,,html-keyboard-response,361,1540499,0.0-18.0-20.0-0.0,82686,List2B,white,man,,,,null,,,,
3434,"<img src=""portrait/BW2.jpg""style=""height:400px;""></img>",2,html-button-response,362,1543936,0.0-18.0-22.0,82686,List2B,white,man,,TRUE,2,,,,,
null,CORRECT,,html-keyboard-response,363,1545459,0.0-18.0-23.0-0.0,82686,List2B,white,man,,,,null,,,,
8042,<p>You got 8 out of 8 right first time. Press Continue.</p>,0,html-button-response,364,1553504,0.0-18.0-25.0,82686,List2B,white,man,,,,,,,,
null,"<div style=""font-size:60px;"">+</div>",,html-keyboard-response,365,1555039,0.0-19.0-0.0,82686,List2B,white,man,,,,null,,,,
null,"<img src=""stim_listB/talk8.gif""style=""height:400px;""></stim_listB>",,html-keyboard-response,366,1557058,0.0-19.0-1.0,82686,List2B,white,man,,,,null,,,,
null,are talking to each other,,html-keyboard-response,367,1559068,0.0-19.0-2.0,82686,List2B,white,man,,,,null,,,,
9087,,,survey-text,368,1568157,0.0-19.0-3.0,82686,List2B,white,man,,,,,"{""Q0"":""jane and beth are talking to each other""}","<img src=""stim_listB/talk8.gif""style=""height:400px;""></stim_listB>",are talking to each other,
null,"<div style=""font-size:60px;"">+</div>",,html-keyboard-response,369,1568669,0.0-19.0-0.1,82686,List2B,white,man,,,,null,,,,
null,"<img src=""stim_listB/play8.gif""style=""height:400px;""></stim_listB>",,html-keyboard-response,370,1570689,0.0-19.0-1.1,82686,List2B,white,man,,,,null,,,,
null,are playing with each other,,html-keyboard-response,371,1572710,0.0-19.0-2.1,82686,List2B,white,man,,,,null,,,,
11798,,,survey-text,372,1584510,0.0-19.0-3.1,82686,List2B,white,man,,,,,"{""Q0"":""beth and ruth are playing with each other""}","<img src=""stim_listB/play8.gif""style=""height:400px;""></stim_listB>",are playing with each other,
null,"<div style=""font-size:60px;"">+</div>",,html-keyboard-response,373,1585029,0.0-19.0-0.2,82686,List2B,white,man,,,,null,,,,
null,"<img src=""stim_listB/touch4.gif""style=""height:400px;""></stim_listB>",,html-keyboard-response,374,1587046,0.0-19.0-1.2,82686,List2B,white,man,,,,null,,,,
null,are touching each other,,html-keyboard-response,375,1589049,0.0-19.0-2.2,82686,List2B,white,man,,,,null,,,,
18958,,,survey-text,376,1608009,0.0-19.0-3.2,82686,List2B,white,man,,,,,"{""Q0"":""beth and fred are touching each other""}","<img src=""stim_listB/touch4.gif""style=""height:400px;""></stim_listB>",are touching each other,
null,"<div style=""font-size:60px;"">+</div>",,html-keyboard-response,377,1608520,0.0-19.0-0.3,82686,List2B,white,man,,,,null,,,,
null,"<img src=""stim_listB/dance1.gif""style=""height:400px;""></stim_listB>",,html-keyboard-response,378,1610540,0.0-19.0-1.3,82686,List2B,white,man,,,,null,,,,
null,is dancing with,,html-keyboard-response,379,1612560,0.0-19.0-2.3,82686,List2B,white,man,,,,null,,,,
10397,,,survey-text,380,1622959,0.0-19.0-3.3,82686,List2B,white,man,,,,,"{""Q0"":""jane is dancing with luke""}","<img src=""stim_listB/dance1.gif""style=""height:400px;""></stim_listB>",is dancing with,
null,"<div style=""font-size:60px;"">+</div>",,html-keyboard-response,381,1623479,0.0-19.0-0.4,82686,List2B,white,man,,,,null,,,,
null,"<img src=""stim_listB/dance7.gif""style=""height:400px;""></stim_listB>",,html-keyboard-response,382,1625500,0.0-19.0-1.4,82686,List2B,white,man,,,,null,,,,
null,is dancing with,,html-keyboard-response,383,1627510,0.0-19.0-2.4,82686,List2B,white,man,,,,null,,,,
12176,,,survey-text,384,1639688,0.0-19.0-3.4,82686,List2B,white,man,,,,,"{""Q0"":""kate is dancing with ruth""}","<img src=""stim_listB/dance7.gif""style=""height:400px;""></stim_listB>",is dancing with,
null,"<div style=""font-size:60px;"">+</div>",,html-keyboard-response,385,1640190,0.0-19.0-0.5,82686,List2B,white,man,,,,null,,,,
null,"<img src=""stim_listB/marry5.gif""style=""height:400px;""></stim_listB>",,html-keyboard-response,386,1642210,0.0-19.0-1.5,82686,List2B,white,man,,,,null,,,,
null,is marrying,,html-keyboard-response,387,1644230,0.0-19.0-2.5,82686,List2B,white,man,,,,null,,,,
11200,,,survey-text,388,1655430,0.0-19.0-3.5,82686,List2B,white,man,,,,,"{""Q0"":""fred is marrying dave""}","<img src=""stim_listB/marry5.gif""style=""height:400px;""></stim_listB>",is marrying,
null,"<div style=""font-size:60px;"">+</div>",,html-keyboard-response,389,1655936,0.0-19.0-0.6,82686,List2B,white,man,,,,null,,,,
null,"<img src=""stim_listB/fight3.gif""style=""height:400px;""></stim_listB>",,html-keyboard-response,390,1657940,0.0-19.0-1.6,82686,List2B,white,man,,,,null,,,,
null,is fighting,,html-keyboard-response,391,1659960,0.0-19.0-2.6,82686,List2B,white,man,,,,null,,,,
8685,,,survey-text,392,1668648,0.0-19.0-3.6,82686,List2B,white,man,,,,,"{""Q0"":""kate is fighting mike""}","<img src=""stim_listB/fight3.gif""style=""height:400px;""></stim_listB>",is fighting,
null,"<div style=""font-size:60px;"">+</div>",,html-keyboard-response,393,1669158,0.0-19.0-0.7,82686,List2B,white,man,,,,null,,,,
null,"<img src=""stim_listB/flirt8.gif""style=""height:400px;""></stim_listB>",,html-keyboard-response,394,1671161,0.0-19.0-1.7,82686,List2B,white,man,,,,null,,,,
null,are flirting with each other,,html-keyboard-response,395,1673180,0.0-19.0-2.7,82686,List2B,white,man,,,,null,,,,
11268,,,survey-text,396,1684449,0.0-19.0-3.7,82686,List2B,white,man,,,,,"{""Q0"":""jane and beth are flirting with each other""}","<img src=""stim_listB/flirt8.gif""style=""height:400px;""></stim_listB>",are flirting with each other,
null,"<div style=""font-size:60px;"">+</div>",,html-keyboard-response,397,1684970,0.0-19.0-0.8,82686,List2B,white,man,,,,null,,,,
null,"<img src=""stim_listB/argue5.gif""style=""height:400px;""></stim_listB>",,html-keyboard-response,398,1686991,0.0-19.0-1.8,82686,List2B,white,man,,,,null,,,,
null,is arguing with,,html-keyboard-response,399,1689006,0.0-19.0-2.8,82686,List2B,white,man,,,,null,,,,
4919,,,survey-text,400,1693926,0.0-19.0-3.8,82686,List2B,white,man,,,,,"{""Q0"":""fred is arguing with dave""}","<img src=""stim_listB/argue5.gif""style=""height:400px;""></stim_listB>",is arguing with,
null,"<div style=""font-size:60px;"">+</div>",,html-keyboard-response,401,1694430,0.0-19.0-0.9,82686,List2B,white,man,,,,null,,,,
null,"<img src=""stim_listB/shout1.gif""style=""height:400px;""></stim_listB>",,html-keyboard-response,402,1696450,0.0-19.0-1.9,82686,List2B,white,man,,,,null,,,,
null,is shouting at,,html-keyboard-response,403,1698470,0.0-19.0-2.9,82686,List2B,white,man,,,,null,,,,
5073,,,survey-text,404,1703545,0.0-19.0-3.9,82686,List2B,white,man,,,,,"{""Q0"":""luke is shouting at ruth""}","<img src=""stim_listB/shout1.gif""style=""height:400px;""></stim_listB>",is shouting at,
null,"<div style=""font-size:60px;"">+</div>",,html-keyboard-response,405,1704050,0.0-19.0-0.10,82686,List2B,white,man,,,,null,,,,
null,"<img src=""stim_listB/fight5.gif""style=""height:400px;""></stim_listB>",,html-keyboard-response,406,1706070,0.0-19.0-1.10,82686,List2B,white,man,,,,null,,,,
null,is fighting,,html-keyboard-response,407,1708091,0.0-19.0-2.10,82686,List2B,white,man,,,,null,,,,
4815,,,survey-text,408,1712906,0.0-19.0-3.10,82686,List2B,white,man,,,,,"{""Q0"":""mike is fighting dave""}","<img src=""stim_listB/fight5.gif""style=""height:400px;""></stim_listB>",is fighting,
null,"<div style=""font-size:60px;"">+</div>",,html-keyboard-response,409,1713410,0.0-19.0-0.11,82686,List2B,white,man,,,,null,,,,
null,"<img src=""stim_listB/touch6.gif""style=""height:400px;""></stim_listB>",,html-keyboard-response,410,1715421,0.0-19.0-1.11,82686,List2B,white,man,,,,null,,,,
null,are touching each other,,html-keyboard-response,411,1717422,0.0-19.0-2.11,82686,List2B,white,man,,,,null,,,,
6624,,,survey-text,412,1724047,0.0-19.0-3.11,82686,List2B,white,man,,,,,"{""Q0"":""luke and fred are touching each other""}","<img src=""stim_listB/touch6.gif""style=""height:400px;""></stim_listB>",are touching each other,
null,"<div style=""font-size:60px;"">+</div>",,html-keyboard-response,413,1724560,0.0-19.0-0.12,82686,List2B,white,man,,,,null,,,,
null,"<img src=""stim_listB/fight2.gif""style=""height:400px;""></stim_listB>",,html-keyboard-response,414,1726563,0.0-19.0-1.12,82686,List2B,white,man,,,,null,,,,
null,are fighting each other,,html-keyboard-response,415,1728573,0.0-19.0-2.12,82686,List2B,white,man,,,,null,,,,
5609,,,survey-text,416,1734182,0.0-19.0-3.12,82686,List2B,white,man,,,,,"{""Q0"":""luke and ruth are fighting each other""}","<img src=""stim_listB/fight2.gif""style=""height:400px;""></stim_listB>",are fighting each other,
null,"<div style=""font-size:60px;"">+</div>",,html-keyboard-response,417,1734685,0.0-19.0-0.13,82686,List2B,white,man,,,,null,,,,
null,"<img src=""stim_listB/touch8.gif""style=""height:400px;""></stim_listB>",,html-keyboard-response,418,1736691,0.0-19.0-1.13,82686,List2B,white,man,,,,null,,,,
null,are touching each other,,html-keyboard-response,419,1738697,0.0-19.0-2.13,82686,List2B,white,man,,,,null,,,,
6039,,,survey-text,420,1744738,0.0-19.0-3.13,82686,List2B,white,man,,,,,"{""Q0"":""beth and ruth are touching each other""}","<img src=""stim_listB/touch8.gif""style=""height:400px;""></stim_listB>",are touching each other,
null,"<div style=""font-size:60px;"">+</div>",,html-keyboard-response,421,1745251,0.0-19.0-0.14,82686,List2B,white,man,,,,null,,,,
null,"<img src=""stim_listB/kiss3.gif""style=""height:400px;""></stim_listB>",,html-keyboard-response,422,1747271,0.0-19.0-1.14,82686,List2B,white,man,,,,null,,,,
null,is kissing,,html-keyboard-response,423,1749288,0.0-19.0-2.14,82686,List2B,white,man,,,,null,,,,
4340,,,survey-text,424,1753629,0.0-19.0-3.14,82686,List2B,white,man,,,,,"{""Q0"":""beth is kissing fred""}","<img src=""stim_listB/kiss3.gif""style=""height:400px;""></stim_listB>",is kissing,
null,"<div style=""font-size:60px;"">+</div>",,html-keyboard-response,425,1754130,0.0-19.0-0.15,82686,List2B,white,man,,,,null,,,,
null,"<img src=""stim_listB/marry8.gif""style=""height:400px;""></stim_listB>",,html-keyboard-response,426,1756151,0.0-19.0-1.15,82686,List2B,white,man,,,,null,,,,
null,are marrying each other,,html-keyboard-response,427,1758171,0.0-19.0-2.15,82686,List2B,white,man,,,,null,,,,
6592,,,survey-text,428,1764765,0.0-19.0-3.15,82686,List2B,white,man,,,,,"{""Q0"":""ruth and kate are marrying each other""}","<img src=""stim_listB/marry8.gif""style=""height:400px;""></stim_listB>",are marrying each other,
null,"<div style=""font-size:60px;"">+</div>",,html-keyboard-response,429,1765271,0.0-19.0-0.16,82686,List2B,white,man,,,,null,,,,
null,"<img src=""stim_listB/shout6.gif""style=""height:400px;""></stim_listB>",,html-keyboard-response,430,1767273,0.0-19.0-1.16,82686,List2B,white,man,,,,null,,,,
null,are shouting at each other,,html-keyboard-response,431,1769291,0.0-19.0-2.16,82686,List2B,white,man,,,,null,,,,
11646,,,survey-text,432,1780938,0.0-19.0-3.16,82686,List2B,white,man,,,,,"{""Q0"":""mike and dave are shouting at each other""}","<img src=""stim_listB/shout6.gif""style=""height:400px;""></stim_listB>",are shouting at each other,
null,"<div style=""font-size:60px;"">+</div>",,html-keyboard-response,433,1781452,0.0-19.0-0.17,82686,List2B,white,man,,,,null,,,,
null,"<img src=""stim_listB/argue4.gif""style=""height:400px;""></stim_listB>",,html-keyboard-response,434,1783471,0.0-19.0-1.17,82686,List2B,white,man,,,,null,,,,
null,are arguing with each other,,html-keyboard-response,435,1785474,0.0-19.0-2.17,82686,List2B,white,man,,,,null,,,,
7860,,,survey-text,436,1793337,0.0-19.0-3.17,82686,List2B,white,man,,,,,"{""Q0"":""kate and fred are arguing with each other""}","<img src=""stim_listB/argue4.gif""style=""height:400px;""></stim_listB>",are arguing with each other,
null,"<div style=""font-size:60px;"">+</div>",,html-keyboard-response,437,1793841,0.0-19.0-0.18,82686,List2B,white,man,,,,null,,,,
null,"<img src=""stim_listB/dance6.gif""style=""height:400px;""></stim_listB>",,html-keyboard-response,438,1795861,0.0-19.0-1.18,82686,List2B,white,man,,,,null,,,,
null,are dancing with each other,,html-keyboard-response,439,1797871,0.0-19.0-2.18,82686,List2B,white,man,,,,null,,,,
5937,,,survey-text,440,1803810,0.0-19.0-3.18,82686,List2B,white,man,,,,,"{""Q0"":""fred and dave are dancing with each other""}","<img src=""stim_listB/dance6.gif""style=""height:400px;""></stim_listB>",are dancing with each other,
null,"<div style=""font-size:60px;"">+</div>",,html-keyboard-response,441,1804311,0.0-19.0-0.19,82686,List2B,white,man,,,,null,,,,
null,"<img src=""stim_listB/play1.gif""style=""height:400px;""></stim_listB>",,html-keyboard-response,442,1806332,0.0-19.0-1.19,82686,List2B,white,man,,,,null,,,,
null,is playing with,,html-keyboard-response,443,1808351,0.0-19.0-2.19,82686,List2B,white,man,,,,null,,,,
5104,,,survey-text,444,1813456,0.0-19.0-3.19,82686,List2B,white,man,,,,,"{""Q0"":""dave is playing with jane""}","<img src=""stim_listB/play1.gif""style=""height:400px;""></stim_listB>",is playing with,
2229,<p>Thank you for completing that task.</p><p>The final part of this session is a short questionnaire.</p><p>Press Continue.</p>,0,html-button-response,445,1815687,0.0-20.0,82686,List2B,white,man,,,,,,,,
16865,,,survey-text,446,1833564,0.0-21.0,82686,List2B,white,man,,,,,"{""Q0"":""32"",""Q1"":""English"",""Q2"":""English"",""Q3"":""United States"",""Q4"":""White"",""Q5"":""Male""}",,,demographics
9239,,,survey-likert,447,1842805,0.0-22.0,82686,List2B,white,man,,,,,"{""Q0"":4}",,,likert_ESS
4296,,,survey-likert,448,1847106,0.0-23.0,82686,List2B,white,man,,,,,"{""Q0"":4}",,,likert_NSSAL_Q1
2916,,,survey-likert,449,1850025,0.0-24.0,82686,List2B,white,man,,,,,"{""Q0"":4}",,,likert_NSSAL_Q2
4863,,,survey-likert,450,1854893,0.0-25.0,82686,List2B,white,man,,,,,"{""Q0"":4}",,,likert_CGRS_Q1
2879,,,survey-likert,451,1857774,0.0-26.0,82686,List2B,white,man,,,,,"{""Q0"":4}",,,likert_CGRS_Q2
2867,,,survey-likert,452,1860644,0.0-27.0,82686,List2B,white,man,,,,,"{""Q0"":4}",,,likert_CGRS_Q3
7465,,,survey-text,453,1868112,0.0-28.0,82686,List2B,white,man,,,,,"{""Q0"":""ccc""}",,,worker_id
2768,,,external-html,454,1871327,0.0-29.0,82686,List2B,white,man,debrief.html,,,,,,,
