rt,stimulus,button_pressed,trial_type,trial_index,time_elapsed,internal_node_id,subject,list,ppt_race,ppt_gender,url,first_guess,correct,key_press,responses,image_type,phrase_type,test_part
4219,Welcome to the experiment. Press Continue to begin.,0,html-button-response,0,4221,0.0-0.0,82913,List1B,black,man,,,,,,,,
10104,,,external-html,1,15624,0.0-1.0,82913,List1B,black,man,consent.html,,,,,,,
20267,"<p>On the next page, you will see portraits of 8 people and their names.</p><p>Your first task is to take a few minutes to memorise the names of these people.</p><p>You will have to recall their names during the rest of the experiment, so it is</p><p>essential that you try to memorise these people and their names as best as you can.</p><br><p><strong>You will then be tested on your memory of these names and portraits.</strong></p><br><p>The experiment will start after you have completed this memory test.</p><br><p>Ready?</p>",0,html-button-response,2,35893,0.0-2.0,82913,List1B,black,man,,,,,,,,
106879,"<img src='img/portrait_matrix_list1.jpg' style='width:900px;height:500px;''></img><p>If you have memorised all the portraits and names and are ready to start, press Continue.</p><p><strong>Please note: Your memory of these faces will be tested 4 times during this experiment.</strong></p>",0,html-button-response,3,143776,0.0-3.0-0.0,82913,List1B,black,man,,,,,,,,
3956,"<img src=""portrait/WM1.jpg""style=""height:400px;""></img>",6,html-button-response,4,148735,0.0-3.0-1.0,82913,List1B,black,man,,TRUE,6,,,,,
null,CORRECT,,html-keyboard-response,5,150238,0.0-3.0-2.0-0.0,82913,List1B,black,man,,,,null,,,,
2904,"<img src=""portrait/WW1.jpg""style=""height:400px;""></img>",1,html-button-response,6,153143,0.0-3.0-4.0,82913,List1B,black,man,,TRUE,1,,,,,
null,CORRECT,,html-keyboard-response,7,154653,0.0-3.0-5.0-0.0,82913,List1B,black,man,,,,null,,,,
5555,"<img src=""portrait/BM1.jpg""style=""height:400px;""></img>",4,html-button-response,8,160209,0.0-3.0-7.0,82913,List1B,black,man,,TRUE,4,,,,,
null,CORRECT,,html-keyboard-response,9,161711,0.0-3.0-8.0-0.0,82913,List1B,black,man,,,,null,,,,
2264,"<img src=""portrait/WW2.jpg""style=""height:400px;""></img>",3,html-button-response,10,163977,0.0-3.0-10.0,82913,List1B,black,man,,TRUE,3,,,,,
null,CORRECT,,html-keyboard-response,11,165479,0.0-3.0-11.0-0.0,82913,List1B,black,man,,,,null,,,,
2663,"<img src=""portrait/BW2.jpg""style=""height:400px;""></img>",2,html-button-response,12,168142,0.0-3.0-13.0,82913,List1B,black,man,,TRUE,2,,,,,
null,CORRECT,,html-keyboard-response,13,169644,0.0-3.0-14.0-0.0,82913,List1B,black,man,,,,null,,,,
1990,"<img src=""portrait/WM2.jpg""style=""height:400px;""></img>",7,html-button-response,14,171635,0.0-3.0-16.0,82913,List1B,black,man,,TRUE,7,,,,,
null,CORRECT,,html-keyboard-response,15,173137,0.0-3.0-17.0-0.0,82913,List1B,black,man,,,,null,,,,
3659,"<img src=""portrait/BW1.jpg""style=""height:400px;""></img>",0,html-button-response,16,176797,0.0-3.0-19.0,82913,List1B,black,man,,TRUE,0,,,,,
null,CORRECT,,html-keyboard-response,17,178300,0.0-3.0-20.0-0.0,82913,List1B,black,man,,,,null,,,,
3349,"<img src=""portrait/BM2.jpg""style=""height:400px;""></img>",5,html-button-response,18,181650,0.0-3.0-22.0,82913,List1B,black,man,,TRUE,5,,,,,
null,CORRECT,,html-keyboard-response,19,183153,0.0-3.0-23.0-0.0,82913,List1B,black,man,,,,null,,,,
2315,<p>You got 8 out of 8 right first time. Press Continue.</p>,0,html-button-response,20,185469,0.0-3.0-25.0,82913,List1B,black,man,,,,,,,,
33165,"<p>In this experiment, you will view photographs of the people from the memory game interacting.</p><p>By using the <strong>exact</strong> phrase given <i>after</i> the photograph appears and recalling the correct names of the people in the photographs, form a sentence describing the interaction. You do not need to capitalise names.</p><p>Type your answer in the space provided. Please complete every sentence before moving onto the next trial.</p><p>You will only have a few seconds to memorise each given photograph and phrase before you can respond, so try your best to focus.</p><p>An example is given below. Press 'Continue' when you are ready.</p><img src='img/speaking_example.jpg' style='width:800px;height:460px;''></img>",0,html-button-response,21,219637,0.0-4.0,82913,List1B,black,man,,,,,,,,
2740,"<p>Before the experiment starts, you will watch two example trials. Press 'Continue'.</p>",0,html-button-response,22,223378,0.0-5.0,82913,List1B,black,man,,,,,,,,
null,<img src='img/meet_eg.gif' style='height:400px;''></img>,,html-keyboard-response,23,226381,0.0-6.0,82913,List1B,black,man,,,,null,,,,
null,<p>is meeting</p>,,html-keyboard-response,24,228382,0.0-7.0,82913,List1B,black,man,,,,null,,,,
1969,<p><b>Answer:</b> kate is meeting beth</p>,0,html-button-response,25,230351,0.0-8.0,82913,List1B,black,man,,,,,,,,
null,<img src='img/look_eg.gif' style='height:400px;''></img>,,html-keyboard-response,26,233356,0.0-9.0,82913,List1B,black,man,,,,null,,,,
null,<p>are looking at each other</p>,,html-keyboard-response,27,235357,0.0-10.0,82913,List1B,black,man,,,,null,,,,
2529,<p><b>Answer:</b> luke and dave are looking at each other</p>,0,html-button-response,28,237886,0.0-11.0,82913,List1B,black,man,,,,,,,,
2099,"<p>Ready to start the experiment?</p><br><p><strong>Remember to describe the picture using a full sentence,</strong></p><p><strong>that combines the names of the people with the <i>exact</i> phrase given.</strong></p><p><strong>To receive full payment you must do this correctly.</strong></p><p><strong> You do not need to capitalise names or use punctuation.</strong></p><br><p>Press 'Continue' to begin.</p>",0,html-button-response,29,240987,0.0-12.0,82913,List1B,black,man,,,,,,,,
null,"<div style=""font-size:60px;"">+</div>",,html-keyboard-response,30,242490,0.0-13.0-0.0,82913,List1B,black,man,,,,null,,,,
null,"<img src=""stim_listB/dance3.gif""style=""height:400px;""></stim_listB>",,html-keyboard-response,31,244492,0.0-13.0-1.0,82913,List1B,black,man,,,,null,,,,
null,is dancing with,,html-keyboard-response,32,246493,0.0-13.0-2.0,82913,List1B,black,man,,,,null,,,,
16430,,,survey-text,33,262925,0.0-13.0-3.0,82913,List1B,black,man,,,,,"{""Q0"":""jane is dancing with luke""}","<img src=""stim_listB/dance3.gif""style=""height:400px;""></stim_listB>",is dancing with,
null,"<div style=""font-size:60px;"">+</div>",,html-keyboard-response,34,263426,0.0-13.0-0.1,82913,List1B,black,man,,,,null,,,,
null,"<img src=""stim_listB/flirt7.gif""style=""height:400px;""></stim_listB>",,html-keyboard-response,35,265427,0.0-13.0-1.1,82913,List1B,black,man,,,,null,,,,
null,is flirting with,,html-keyboard-response,36,267429,0.0-13.0-2.1,82913,List1B,black,man,,,,null,,,,
15883,,,survey-text,37,283313,0.0-13.0-3.1,82913,List1B,black,man,,,,,"{""Q0"":""beth is flirting with jane""}","<img src=""stim_listB/flirt7.gif""style=""height:400px;""></stim_listB>",is flirting with,
null,"<div style=""font-size:60px;"">+</div>",,html-keyboard-response,38,283814,0.0-13.0-0.2,82913,List1B,black,man,,,,null,,,,
null,"<img src=""stim_listB/play6.gif""style=""height:400px;""></stim_listB>",,html-keyboard-response,39,285816,0.0-13.0-1.2,82913,List1B,black,man,,,,null,,,,
null,are playing with each other,,html-keyboard-response,40,287817,0.0-13.0-2.2,82913,List1B,black,man,,,,null,,,,
15814,,,survey-text,41,303632,0.0-13.0-3.2,82913,List1B,black,man,,,,,"{""Q0"":""fred is playing with luke""}","<img src=""stim_listB/play6.gif""style=""height:400px;""></stim_listB>",are playing with each other,
null,"<div style=""font-size:60px;"">+</div>",,html-keyboard-response,42,304133,0.0-13.0-0.3,82913,List1B,black,man,,,,null,,,,
null,"<img src=""stim_listB/argue1.gif""style=""height:400px;""></stim_listB>",,html-keyboard-response,43,306135,0.0-13.0-1.3,82913,List1B,black,man,,,,null,,,,
null,is arguing with,,html-keyboard-response,44,308137,0.0-13.0-2.3,82913,List1B,black,man,,,,null,,,,
14452,,,survey-text,45,322590,0.0-13.0-3.3,82913,List1B,black,man,,,,,"{""Q0"":""mike is arguing with beth""}","<img src=""stim_listB/argue1.gif""style=""height:400px;""></stim_listB>",is arguing with,
null,"<div style=""font-size:60px;"">+</div>",,html-keyboard-response,46,323091,0.0-13.0-0.4,82913,List1B,black,man,,,,null,,,,
null,"<img src=""stim_listB/dance8.gif""style=""height:400px;""></stim_listB>",,html-keyboard-response,47,325094,0.0-13.0-1.4,82913,List1B,black,man,,,,null,,,,
null,are dancing with each other,,html-keyboard-response,48,327095,0.0-13.0-2.4,82913,List1B,black,man,,,,null,,,,
22869,,,survey-text,49,349965,0.0-13.0-3.4,82913,List1B,black,man,,,,,"{""Q0"":""kate and ruth are dancing with each other""}","<img src=""stim_listB/dance8.gif""style=""height:400px;""></stim_listB>",are dancing with each other,
null,"<div style=""font-size:60px;"">+</div>",,html-keyboard-response,50,350468,0.0-13.0-0.5,82913,List1B,black,man,,,,null,,,,
null,"<img src=""stim_listB/kiss5.gif""style=""height:400px;""></stim_listB>",,html-keyboard-response,51,352469,0.0-13.0-1.5,82913,List1B,black,man,,,,null,,,,
null,is kissing,,html-keyboard-response,52,354470,0.0-13.0-2.5,82913,List1B,black,man,,,,null,,,,
7700,,,survey-text,53,362171,0.0-13.0-3.5,82913,List1B,black,man,,,,,"{""Q0"":""fred is kissing luke""}","<img src=""stim_listB/kiss5.gif""style=""height:400px;""></stim_listB>",is kissing,
null,"<div style=""font-size:60px;"">+</div>",,html-keyboard-response,54,362672,0.0-13.0-0.6,82913,List1B,black,man,,,,null,,,,
null,"<img src=""stim_listB/talk8.gif""style=""height:400px;""></stim_listB>",,html-keyboard-response,55,364674,0.0-13.0-1.6,82913,List1B,black,man,,,,null,,,,
null,are talking to each other,,html-keyboard-response,56,366675,0.0-13.0-2.6,82913,List1B,black,man,,,,null,,,,
12194,,,survey-text,57,378870,0.0-13.0-3.6,82913,List1B,black,man,,,,,"{""Q0"":""ruth and kate are talking to each other""}","<img src=""stim_listB/talk8.gif""style=""height:400px;""></stim_listB>",are talking to each other,
null,"<div style=""font-size:60px;"">+</div>",,html-keyboard-response,58,379371,0.0-13.0-0.7,82913,List1B,black,man,,,,null,,,,
null,"<img src=""stim_listB/argue3.gif""style=""height:400px;""></stim_listB>",,html-keyboard-response,59,381373,0.0-13.0-1.7,82913,List1B,black,man,,,,null,,,,
null,is arguing with,,html-keyboard-response,60,383374,0.0-13.0-2.7,82913,List1B,black,man,,,,null,,,,
9739,,,survey-text,61,393113,0.0-13.0-3.7,82913,List1B,black,man,,,,,"{""Q0"":""dave is arguing with ruth""}","<img src=""stim_listB/argue3.gif""style=""height:400px;""></stim_listB>",is arguing with,
null,"<div style=""font-size:60px;"">+</div>",,html-keyboard-response,62,393614,0.0-13.0-0.8,82913,List1B,black,man,,,,null,,,,
null,"<img src=""stim_listB/fight3.gif""style=""height:400px;""></stim_listB>",,html-keyboard-response,63,395616,0.0-13.0-1.8,82913,List1B,black,man,,,,null,,,,
null,is fighting,,html-keyboard-response,64,397618,0.0-13.0-2.8,82913,List1B,black,man,,,,null,,,,
7336,,,survey-text,65,404955,0.0-13.0-3.8,82913,List1B,black,man,,,,,"{""Q0"":""jane is fighting dave""}","<img src=""stim_listB/fight3.gif""style=""height:400px;""></stim_listB>",is fighting,
null,"<div style=""font-size:60px;"">+</div>",,html-keyboard-response,66,405458,0.0-13.0-0.9,82913,List1B,black,man,,,,null,,,,
null,"<img src=""stim_listB/touch5.gif""style=""height:400px;""></stim_listB>",,html-keyboard-response,67,407460,0.0-13.0-1.9,82913,List1B,black,man,,,,null,,,,
null,is touching,,html-keyboard-response,68,409461,0.0-13.0-2.9,82913,List1B,black,man,,,,null,,,,
8514,,,survey-text,69,417977,0.0-13.0-3.9,82913,List1B,black,man,,,,,"{""Q0"":""mike is touching dave""}","<img src=""stim_listB/touch5.gif""style=""height:400px;""></stim_listB>",is touching,
null,"<div style=""font-size:60px;"">+</div>",,html-keyboard-response,70,418478,0.0-13.0-0.10,82913,List1B,black,man,,,,null,,,,
null,"<img src=""stim_listB/marry7.gif""style=""height:400px;""></stim_listB>",,html-keyboard-response,71,420480,0.0-13.0-1.10,82913,List1B,black,man,,,,null,,,,
null,is marrying,,html-keyboard-response,72,422481,0.0-13.0-2.10,82913,List1B,black,man,,,,null,,,,
8640,,,survey-text,73,431121,0.0-13.0-3.10,82913,List1B,black,man,,,,,"{""Q0"":""ruth is marrying kate""}","<img src=""stim_listB/marry7.gif""style=""height:400px;""></stim_listB>",is marrying,
null,"<div style=""font-size:60px;"">+</div>",,html-keyboard-response,74,431622,0.0-13.0-0.11,82913,List1B,black,man,,,,null,,,,
null,"<img src=""stim_listB/kiss4.gif""style=""height:400px;""></stim_listB>",,html-keyboard-response,75,433624,0.0-13.0-1.11,82913,List1B,black,man,,,,null,,,,
null,are kissing each other,,html-keyboard-response,76,435625,0.0-13.0-2.11,82913,List1B,black,man,,,,null,,,,
10696,,,survey-text,77,446323,0.0-13.0-3.11,82913,List1B,black,man,,,,,"{""Q0"":""dave and jane are kissing each other""}","<img src=""stim_listB/kiss4.gif""style=""height:400px;""></stim_listB>",are kissing each other,
null,"<div style=""font-size:60px;"">+</div>",,html-keyboard-response,78,446824,0.0-13.0-0.12,82913,List1B,black,man,,,,null,,,,
null,"<img src=""stim_listB/touch8.gif""style=""height:400px;""></stim_listB>",,html-keyboard-response,79,448825,0.0-13.0-1.12,82913,List1B,black,man,,,,null,,,,
null,are touching each other,,html-keyboard-response,80,450826,0.0-13.0-2.12,82913,List1B,black,man,,,,null,,,,
11742,,,survey-text,81,462569,0.0-13.0-3.12,82913,List1B,black,man,,,,,"{""Q0"":""ruth and beth are touching each other""}","<img src=""stim_listB/touch8.gif""style=""height:400px;""></stim_listB>",are touching each other,
null,"<div style=""font-size:60px;"">+</div>",,html-keyboard-response,82,463070,0.0-13.0-0.13,82913,List1B,black,man,,,,null,,,,
null,"<img src=""stim_listB/marry2.gif""style=""height:400px;""></stim_listB>",,html-keyboard-response,83,465072,0.0-13.0-1.13,82913,List1B,black,man,,,,null,,,,
null,are marrying each other,,html-keyboard-response,84,467073,0.0-13.0-2.13,82913,List1B,black,man,,,,null,,,,
10479,,,survey-text,85,477552,0.0-13.0-3.13,82913,List1B,black,man,,,,,"{""Q0"":""kate and fred are marrying each other""}","<img src=""stim_listB/marry2.gif""style=""height:400px;""></stim_listB>",are marrying each other,
null,"<div style=""font-size:60px;"">+</div>",,html-keyboard-response,86,478054,0.0-13.0-0.14,82913,List1B,black,man,,,,null,,,,
null,"<img src=""stim_listB/touch3.gif""style=""height:400px;""></stim_listB>",,html-keyboard-response,87,480056,0.0-13.0-1.14,82913,List1B,black,man,,,,null,,,,
null,is touching,,html-keyboard-response,88,482057,0.0-13.0-2.14,82913,List1B,black,man,,,,null,,,,
5800,,,survey-text,89,487858,0.0-13.0-3.14,82913,List1B,black,man,,,,,"{""Q0"":""jane is touching david""}","<img src=""stim_listB/touch3.gif""style=""height:400px;""></stim_listB>",is touching,
null,"<div style=""font-size:60px;"">+</div>",,html-keyboard-response,90,488360,0.0-13.0-0.15,82913,List1B,black,man,,,,null,,,,
null,"<img src=""stim_listB/play1.gif""style=""height:400px;""></stim_listB>",,html-keyboard-response,91,490361,0.0-13.0-1.15,82913,List1B,black,man,,,,null,,,,
null,is playing with,,html-keyboard-response,92,492362,0.0-13.0-2.15,82913,List1B,black,man,,,,null,,,,
14814,,,survey-text,93,507177,0.0-13.0-3.15,82913,List1B,black,man,,,,,"{""Q0"":""mike is playing with kate""}","<img src=""stim_listB/play1.gif""style=""height:400px;""></stim_listB>",is playing with,
null,"<div style=""font-size:60px;"">+</div>",,html-keyboard-response,94,507679,0.0-13.0-0.16,82913,List1B,black,man,,,,null,,,,
null,"<img src=""stim_listB/touch6.gif""style=""height:400px;""></stim_listB>",,html-keyboard-response,95,509681,0.0-13.0-1.16,82913,List1B,black,man,,,,null,,,,
null,are touching each other,,html-keyboard-response,96,511683,0.0-13.0-2.16,82913,List1B,black,man,,,,null,,,,
41345,,,survey-text,97,553028,0.0-13.0-3.16,82913,List1B,black,man,,,,,"{""Q0"":""fred and forget are touching each other""}","<img src=""stim_listB/touch6.gif""style=""height:400px;""></stim_listB>",are touching each other,
null,"<div style=""font-size:60px;"">+</div>",,html-keyboard-response,98,553530,0.0-13.0-0.17,82913,List1B,black,man,,,,null,,,,
null,"<img src=""stim_listB/flirt3.gif""style=""height:400px;""></stim_listB>",,html-keyboard-response,99,555532,0.0-13.0-1.17,82913,List1B,black,man,,,,null,,,,
null,is flirting with,,html-keyboard-response,100,557532,0.0-13.0-2.17,82913,List1B,black,man,,,,null,,,,
16898,,,survey-text,101,574431,0.0-13.0-3.17,82913,List1B,black,man,,,,,"{""Q0"":""jane is flirting with dave""}","<img src=""stim_listB/flirt3.gif""style=""height:400px;""></stim_listB>",is flirting with,
null,"<div style=""font-size:60px;"">+</div>",,html-keyboard-response,102,574932,0.0-13.0-0.18,82913,List1B,black,man,,,,null,,,,
null,"<img src=""stim_listB/flirt5.gif""style=""height:400px;""></stim_listB>",,html-keyboard-response,103,576935,0.0-13.0-1.18,82913,List1B,black,man,,,,null,,,,
null,is flirting with,,html-keyboard-response,104,578950,0.0-13.0-2.18,82913,List1B,black,man,,,,null,,,,
8122,,,survey-text,105,587074,0.0-13.0-3.18,82913,List1B,black,man,,,,,"{""Q0"":""dave is flirting with fred""}","<img src=""stim_listB/flirt5.gif""style=""height:400px;""></stim_listB>",is flirting with,
null,"<div style=""font-size:60px;"">+</div>",,html-keyboard-response,106,587576,0.0-13.0-0.19,82913,List1B,black,man,,,,null,,,,
null,"<img src=""stim_listB/play2.gif""style=""height:400px;""></stim_listB>",,html-keyboard-response,107,589578,0.0-13.0-1.19,82913,List1B,black,man,,,,null,,,,
null,are playing with each other,,html-keyboard-response,108,591580,0.0-13.0-2.19,82913,List1B,black,man,,,,null,,,,
10371,,,survey-text,109,601953,0.0-13.0-3.19,82913,List1B,black,man,,,,,"{""Q0"":""fred and beth are playing with each other""}","<img src=""stim_listB/play2.gif""style=""height:400px;""></stim_listB>",are playing with each other,
13957,"<img src='img/portrait_matrix_list1.jpg' style='width:900px;height:500px;''></img><p>If you have memorised all the portraits and names and are ready to start, press Continue.</p><p><strong>Please note: Your memory of these faces will be tested 4 times during this experiment.</strong></p>",0,html-button-response,110,615911,0.0-14.0-0.0,82913,List1B,black,man,,,,,,,,
4256,"<img src=""portrait/BM2.jpg""style=""height:400px;""></img>",5,html-button-response,111,621170,0.0-14.0-1.0,82913,List1B,black,man,,TRUE,5,,,,,
null,CORRECT,,html-keyboard-response,112,622672,0.0-14.0-2.0-0.0,82913,List1B,black,man,,,,null,,,,
4207,"<img src=""portrait/BW1.jpg""style=""height:400px;""></img>",1,html-button-response,113,626880,0.0-14.0-4.0,82913,List1B,black,man,,TRUE,0,,,,,
1630,"<img src=""portrait/BW1.jpg""style=""height:400px;""></img>",0,html-button-response,114,629512,0.0-14.0-6.0-0.0,82913,List1B,black,man,,FALSE,0,,,,,
null,CORRECT,,html-keyboard-response,115,631015,0.0-14.0-6.0-1.0-0.0,82913,List1B,black,man,,,,null,,,,
2061,"<img src=""portrait/WW2.jpg""style=""height:400px;""></img>",3,html-button-response,116,633077,0.0-14.0-7.0,82913,List1B,black,man,,TRUE,3,,,,,
null,CORRECT,,html-keyboard-response,117,634580,0.0-14.0-8.0-0.0,82913,List1B,black,man,,,,null,,,,
3361,"<img src=""portrait/BW2.jpg""style=""height:400px;""></img>",2,html-button-response,118,637942,0.0-14.0-10.0,82913,List1B,black,man,,TRUE,2,,,,,
null,CORRECT,,html-keyboard-response,119,639445,0.0-14.0-11.0-0.0,82913,List1B,black,man,,,,null,,,,
1872,"<img src=""portrait/WM2.jpg""style=""height:400px;""></img>",7,html-button-response,120,641319,0.0-14.0-13.0,82913,List1B,black,man,,TRUE,7,,,,,
null,CORRECT,,html-keyboard-response,121,642820,0.0-14.0-14.0-0.0,82913,List1B,black,man,,,,null,,,,
4048,"<img src=""portrait/WM1.jpg""style=""height:400px;""></img>",6,html-button-response,122,646870,0.0-14.0-16.0,82913,List1B,black,man,,TRUE,6,,,,,
null,CORRECT,,html-keyboard-response,123,648372,0.0-14.0-17.0-0.0,82913,List1B,black,man,,,,null,,,,
1987,"<img src=""portrait/WW1.jpg""style=""height:400px;""></img>",1,html-button-response,124,650359,0.0-14.0-19.0,82913,List1B,black,man,,TRUE,1,,,,,
null,CORRECT,,html-keyboard-response,125,651861,0.0-14.0-20.0-0.0,82913,List1B,black,man,,,,null,,,,
3159,"<img src=""portrait/BM1.jpg""style=""height:400px;""></img>",4,html-button-response,126,655022,0.0-14.0-22.0,82913,List1B,black,man,,TRUE,4,,,,,
null,CORRECT,,html-keyboard-response,127,656524,0.0-14.0-23.0-0.0,82913,List1B,black,man,,,,null,,,,
2644,<p>You got 7 out of 8 right first time. Press Continue.</p>,0,html-button-response,128,659170,0.0-14.0-25.0,82913,List1B,black,man,,,,,,,,
3456,"As you did not score 100%, the memory game will repeat. Press Continue.",0,html-button-response,129,663629,0.0-14.0-26.0-0.0,82913,List1B,black,man,,,,,,,,
2963,"<img src='img/portrait_matrix_list1.jpg' style='width:900px;height:500px;''></img><p>If you have memorised all the portraits and names and are ready to start, press Continue.</p><p><strong>Please note: Your memory of these faces will be tested 4 times during this experiment.</strong></p>",0,html-button-response,130,667594,0.0-14.1-0.1,82913,List1B,black,man,,,,,,,,
3321,"<img src=""portrait/BM2.jpg""style=""height:400px;""></img>",5,html-button-response,131,671917,0.0-14.1-1.1,82913,List1B,black,man,,TRUE,5,,,,,
null,CORRECT,,html-keyboard-response,132,673420,0.0-14.1-2.1-0.1,82913,List1B,black,man,,,,null,,,,
2159,"<img src=""portrait/BW1.jpg""style=""height:400px;""></img>",0,html-button-response,133,675580,0.0-14.1-4.1,82913,List1B,black,man,,TRUE,0,,,,,
null,CORRECT,,html-keyboard-response,134,677082,0.0-14.1-5.1-0.1,82913,List1B,black,man,,,,null,,,,
2619,"<img src=""portrait/WW2.jpg""style=""height:400px;""></img>",3,html-button-response,135,679703,0.0-14.1-7.1,82913,List1B,black,man,,TRUE,3,,,,,
null,CORRECT,,html-keyboard-response,136,681206,0.0-14.1-8.1-0.1,82913,List1B,black,man,,,,null,,,,
2797,"<img src=""portrait/BW2.jpg""style=""height:400px;""></img>",2,html-button-response,137,684005,0.0-14.1-10.1,82913,List1B,black,man,,TRUE,2,,,,,
null,CORRECT,,html-keyboard-response,138,685507,0.0-14.1-11.1-0.1,82913,List1B,black,man,,,,null,,,,
2075,"<img src=""portrait/WM2.jpg""style=""height:400px;""></img>",7,html-button-response,139,687583,0.0-14.1-13.1,82913,List1B,black,man,,TRUE,7,,,,,
null,CORRECT,,html-keyboard-response,140,689085,0.0-14.1-14.1-0.1,82913,List1B,black,man,,,,null,,,,
4271,"<img src=""portrait/WM1.jpg""style=""height:400px;""></img>",6,html-button-response,141,693358,0.0-14.1-16.1,82913,List1B,black,man,,TRUE,6,,,,,
null,CORRECT,,html-keyboard-response,142,694860,0.0-14.1-17.1-0.1,82913,List1B,black,man,,,,null,,,,
3116,"<img src=""portrait/WW1.jpg""style=""height:400px;""></img>",1,html-button-response,143,697977,0.0-14.1-19.1,82913,List1B,black,man,,TRUE,1,,,,,
null,CORRECT,,html-keyboard-response,144,699482,0.0-14.1-20.1-0.1,82913,List1B,black,man,,,,null,,,,
2013,"<img src=""portrait/BM1.jpg""style=""height:400px;""></img>",4,html-button-response,145,701496,0.0-14.1-22.1,82913,List1B,black,man,,TRUE,4,,,,,
null,CORRECT,,html-keyboard-response,146,702998,0.0-14.1-23.1-0.1,82913,List1B,black,man,,,,null,,,,
1704,<p>You got 8 out of 8 right first time. Press Continue.</p>,0,html-button-response,147,704703,0.0-14.1-25.1,82913,List1B,black,man,,,,,,,,
null,"<div style=""font-size:60px;"">+</div>",,html-keyboard-response,148,706206,0.0-15.0-0.0,82913,List1B,black,man,,,,null,,,,
null,"<img src=""stim_listB/fight2.gif""style=""height:400px;""></stim_listB>",,html-keyboard-response,149,708207,0.0-15.0-1.0,82913,List1B,black,man,,,,null,,,,
null,are fighting each other,,html-keyboard-response,150,710209,0.0-15.0-2.0,82913,List1B,black,man,,,,null,,,,
10955,,,survey-text,151,721164,0.0-15.0-3.0,82913,List1B,black,man,,,,,"{""Q0"":""fred and beth are fighting each other""}","<img src=""stim_listB/fight2.gif""style=""height:400px;""></stim_listB>",are fighting each other,
null,"<div style=""font-size:60px;"">+</div>",,html-keyboard-response,152,721666,0.0-15.0-0.1,82913,List1B,black,man,,,,null,,,,
null,"<img src=""stim_listB/talk2.gif""style=""height:400px;""></stim_listB>",,html-keyboard-response,153,723667,0.0-15.0-1.1,82913,List1B,black,man,,,,null,,,,
null,are talking to each other,,html-keyboard-response,154,725668,0.0-15.0-2.1,82913,List1B,black,man,,,,null,,,,
11428,,,survey-text,155,737097,0.0-15.0-3.1,82913,List1B,black,man,,,,,"{""Q0"":""beth and mike are taking to each other""}","<img src=""stim_listB/talk2.gif""style=""height:400px;""></stim_listB>",are talking to each other,
null,"<div style=""font-size:60px;"">+</div>",,html-keyboard-response,156,737599,0.0-15.0-0.2,82913,List1B,black,man,,,,null,,,,
null,"<img src=""stim_listB/kiss6.gif""style=""height:400px;""></stim_listB>",,html-keyboard-response,157,739600,0.0-15.0-1.2,82913,List1B,black,man,,,,null,,,,
null,are kissing each other,,html-keyboard-response,158,741601,0.0-15.0-2.2,82913,List1B,black,man,,,,null,,,,
17859,,,survey-text,159,759462,0.0-15.0-3.2,82913,List1B,black,man,,,,,"{""Q0"":""dave and mike are kissing each other""}","<img src=""stim_listB/kiss6.gif""style=""height:400px;""></stim_listB>",are kissing each other,
null,"<div style=""font-size:60px;"">+</div>",,html-keyboard-response,160,759962,0.0-15.0-0.3,82913,List1B,black,man,,,,null,,,,
null,"<img src=""stim_listB/dance1.gif""style=""height:400px;""></stim_listB>",,html-keyboard-response,161,761965,0.0-15.0-1.3,82913,List1B,black,man,,,,null,,,,
null,is dancing with,,html-keyboard-response,162,763966,0.0-15.0-2.3,82913,List1B,black,man,,,,null,,,,
10034,,,survey-text,163,774001,0.0-15.0-3.3,82913,List1B,black,man,,,,,"{""Q0"":""fred is dancing with kate""}","<img src=""stim_listB/dance1.gif""style=""height:400px;""></stim_listB>",is dancing with,
null,"<div style=""font-size:60px;"">+</div>",,html-keyboard-response,164,774502,0.0-15.0-0.4,82913,List1B,black,man,,,,null,,,,
null,"<img src=""stim_listB/argue5.gif""style=""height:400px;""></stim_listB>",,html-keyboard-response,165,776504,0.0-15.0-1.4,82913,List1B,black,man,,,,null,,,,
null,is arguing with,,html-keyboard-response,166,778505,0.0-15.0-2.4,82913,List1B,black,man,,,,null,,,,
8995,,,survey-text,167,787501,0.0-15.0-3.4,82913,List1B,black,man,,,,,"{""Q0"":""luke is arguing with mike""}","<img src=""stim_listB/argue5.gif""style=""height:400px;""></stim_listB>",is arguing with,
null,"<div style=""font-size:60px;"">+</div>",,html-keyboard-response,168,788003,0.0-15.0-0.5,82913,List1B,black,man,,,,null,,,,
null,"<img src=""stim_listB/argue8.gif""style=""height:400px;""></stim_listB>",,html-keyboard-response,169,790005,0.0-15.0-1.5,82913,List1B,black,man,,,,null,,,,
null,are arguing with each other,,html-keyboard-response,170,792006,0.0-15.0-2.5,82913,List1B,black,man,,,,null,,,,
10430,,,survey-text,171,802437,0.0-15.0-3.5,82913,List1B,black,man,,,,,"{""Q0"":""beth and jane are arguing with each other""}","<img src=""stim_listB/argue8.gif""style=""height:400px;""></stim_listB>",are arguing with each other,
null,"<div style=""font-size:60px;"">+</div>",,html-keyboard-response,172,802939,0.0-15.0-0.6,82913,List1B,black,man,,,,null,,,,
null,"<img src=""stim_listB/talk1.gif""style=""height:400px;""></stim_listB>",,html-keyboard-response,173,804941,0.0-15.0-1.6,82913,List1B,black,man,,,,null,,,,
null,is talking to,,html-keyboard-response,174,806942,0.0-15.0-2.6,82913,List1B,black,man,,,,null,,,,
9055,,,survey-text,175,815998,0.0-15.0-3.6,82913,List1B,black,man,,,,,"{""Q0"":""kate is talking to fred""}","<img src=""stim_listB/talk1.gif""style=""height:400px;""></stim_listB>",is talking to,
null,"<div style=""font-size:60px;"">+</div>",,html-keyboard-response,176,816499,0.0-15.0-0.7,82913,List1B,black,man,,,,null,,,,
null,"<img src=""stim_listB/flirt2.gif""style=""height:400px;""></stim_listB>",,html-keyboard-response,177,818501,0.0-15.0-1.7,82913,List1B,black,man,,,,null,,,,
null,are flirting with each other,,html-keyboard-response,178,820503,0.0-15.0-2.7,82913,List1B,black,man,,,,null,,,,
13994,,,survey-text,179,834497,0.0-15.0-3.7,82913,List1B,black,man,,,,,"{""Q0"":""mike and beth are flirting with each other""}","<img src=""stim_listB/flirt2.gif""style=""height:400px;""></stim_listB>",are flirting with each other,
null,"<div style=""font-size:60px;"">+</div>",,html-keyboard-response,180,834999,0.0-15.0-0.8,82913,List1B,black,man,,,,null,,,,
null,"<img src=""stim_listB/shout5.gif""style=""height:400px;""></stim_listB>",,html-keyboard-response,181,837001,0.0-15.0-1.8,82913,List1B,black,man,,,,null,,,,
null,is shouting at,,html-keyboard-response,182,839003,0.0-15.0-2.8,82913,List1B,black,man,,,,null,,,,
7538,,,survey-text,183,846542,0.0-15.0-3.8,82913,List1B,black,man,,,,,"{""Q0"":""luke is shouting at fred""}","<img src=""stim_listB/shout5.gif""style=""height:400px;""></stim_listB>",is shouting at,
null,"<div style=""font-size:60px;"">+</div>",,html-keyboard-response,184,847044,0.0-15.0-0.9,82913,List1B,black,man,,,,null,,,,
null,"<img src=""stim_listB/touch7.gif""style=""height:400px;""></stim_listB>",,html-keyboard-response,185,849047,0.0-15.0-1.9,82913,List1B,black,man,,,,null,,,,
null,is touching,,html-keyboard-response,186,851048,0.0-15.0-2.9,82913,List1B,black,man,,,,null,,,,
7151,,,survey-text,187,858199,0.0-15.0-3.9,82913,List1B,black,man,,,,,"{""Q0"":""kate is touching jane""}","<img src=""stim_listB/touch7.gif""style=""height:400px;""></stim_listB>",is touching,
null,"<div style=""font-size:60px;"">+</div>",,html-keyboard-response,188,858701,0.0-15.0-0.10,82913,List1B,black,man,,,,null,,,,
null,"<img src=""stim_listB/shout6.gif""style=""height:400px;""></stim_listB>",,html-keyboard-response,189,860702,0.0-15.0-1.10,82913,List1B,black,man,,,,null,,,,
null,are shouting at each other,,html-keyboard-response,190,862703,0.0-15.0-2.10,82913,List1B,black,man,,,,null,,,,
10168,,,survey-text,191,872873,0.0-15.0-3.10,82913,List1B,black,man,,,,,"{""Q0"":""mike and dave are shouting at each other""}","<img src=""stim_listB/shout6.gif""style=""height:400px;""></stim_listB>",are shouting at each other,
null,"<div style=""font-size:60px;"">+</div>",,html-keyboard-response,192,873374,0.0-15.0-0.11,82913,List1B,black,man,,,,null,,,,
null,"<img src=""stim_listB/touch2.gif""style=""height:400px;""></stim_listB>",,html-keyboard-response,193,875375,0.0-15.0-1.11,82913,List1B,black,man,,,,null,,,,
null,are touching each other,,html-keyboard-response,194,877376,0.0-15.0-2.11,82913,List1B,black,man,,,,null,,,,
10219,,,survey-text,195,887596,0.0-15.0-3.11,82913,List1B,black,man,,,,,"{""Q0"":""beth and fred are touching each other""}","<img src=""stim_listB/touch2.gif""style=""height:400px;""></stim_listB>",are touching each other,
null,"<div style=""font-size:60px;"">+</div>",,html-keyboard-response,196,888096,0.0-15.0-0.12,82913,List1B,black,man,,,,null,,,,
null,"<img src=""stim_listB/shout8.gif""style=""height:400px;""></stim_listB>",,html-keyboard-response,197,890098,0.0-15.0-1.12,82913,List1B,black,man,,,,null,,,,
null,are shouting at each other,,html-keyboard-response,198,892100,0.0-15.0-2.12,82913,List1B,black,man,,,,null,,,,
16699,,,survey-text,199,908799,0.0-15.0-3.12,82913,List1B,black,man,,,,,"{""Q0"":""kate and jane are shouting at each other""}","<img src=""stim_listB/shout8.gif""style=""height:400px;""></stim_listB>",are shouting at each other,
null,"<div style=""font-size:60px;"">+</div>",,html-keyboard-response,200,909301,0.0-15.0-0.13,82913,List1B,black,man,,,,null,,,,
null,"<img src=""stim_listB/fight8.gif""style=""height:400px;""></stim_listB>",,html-keyboard-response,201,911303,0.0-15.0-1.13,82913,List1B,black,man,,,,null,,,,
null,are fighting each other,,html-keyboard-response,202,913304,0.0-15.0-2.13,82913,List1B,black,man,,,,null,,,,
11058,,,survey-text,203,924363,0.0-15.0-3.13,82913,List1B,black,man,,,,,"{""Q0"":""ruth and beth are fighting each other""}","<img src=""stim_listB/fight8.gif""style=""height:400px;""></stim_listB>",are fighting each other,
null,"<div style=""font-size:60px;"">+</div>",,html-keyboard-response,204,924863,0.0-15.0-0.14,82913,List1B,black,man,,,,null,,,,
null,"<img src=""stim_listB/flirt4.gif""style=""height:400px;""></stim_listB>",,html-keyboard-response,205,926866,0.0-15.0-1.14,82913,List1B,black,man,,,,null,,,,
null,are flirting with each other,,html-keyboard-response,206,928868,0.0-15.0-2.14,82913,List1B,black,man,,,,null,,,,
21066,,,survey-text,207,949934,0.0-15.0-3.14,82913,List1B,black,man,,,,,"{""Q0"":""dave and ruth are flirting with each other""}","<img src=""stim_listB/flirt4.gif""style=""height:400px;""></stim_listB>",are flirting with each other,
null,"<div style=""font-size:60px;"">+</div>",,html-keyboard-response,208,950435,0.0-15.0-0.15,82913,List1B,black,man,,,,null,,,,
null,"<img src=""stim_listB/fight5.gif""style=""height:400px;""></stim_listB>",,html-keyboard-response,209,952437,0.0-15.0-1.15,82913,List1B,black,man,,,,null,,,,
null,is fighting,,html-keyboard-response,210,954438,0.0-15.0-2.15,82913,List1B,black,man,,,,null,,,,
11142,,,survey-text,211,965581,0.0-15.0-3.15,82913,List1B,black,man,,,,,"{""Q0"":""dave is fighting mike""}","<img src=""stim_listB/fight5.gif""style=""height:400px;""></stim_listB>",is fighting,
null,"<div style=""font-size:60px;"">+</div>",,html-keyboard-response,212,966083,0.0-15.0-0.16,82913,List1B,black,man,,,,null,,,,
null,"<img src=""stim_listB/touch4.gif""style=""height:400px;""></stim_listB>",,html-keyboard-response,213,968085,0.0-15.0-1.16,82913,List1B,black,man,,,,null,,,,
null,are touching each other,,html-keyboard-response,214,970086,0.0-15.0-2.16,82913,List1B,black,man,,,,null,,,,
16765,,,survey-text,215,986853,0.0-15.0-3.16,82913,List1B,black,man,,,,,"{""Q0"":""luke and ruth are touching each other""}","<img src=""stim_listB/touch4.gif""style=""height:400px;""></stim_listB>",are touching each other,
null,"<div style=""font-size:60px;"">+</div>",,html-keyboard-response,216,987355,0.0-15.0-0.17,82913,List1B,black,man,,,,null,,,,
null,"<img src=""stim_listB/shout2.gif""style=""height:400px;""></stim_listB>",,html-keyboard-response,217,989357,0.0-15.0-1.17,82913,List1B,black,man,,,,null,,,,
null,are shouting at each other,,html-keyboard-response,218,991359,0.0-15.0-2.17,82913,List1B,black,man,,,,null,,,,
11816,,,survey-text,219,1003176,0.0-15.0-3.17,82913,List1B,black,man,,,,,"{""Q0"":""mike and kate are shouting at each other""}","<img src=""stim_listB/shout2.gif""style=""height:400px;""></stim_listB>",are shouting at each other,
null,"<div style=""font-size:60px;"">+</div>",,html-keyboard-response,220,1003678,0.0-15.0-0.18,82913,List1B,black,man,,,,null,,,,
null,"<img src=""stim_listB/argue6.gif""style=""height:400px;""></stim_listB>",,html-keyboard-response,221,1005680,0.0-15.0-1.18,82913,List1B,black,man,,,,null,,,,
null,are arguing with each other,,html-keyboard-response,222,1007681,0.0-15.0-2.18,82913,List1B,black,man,,,,null,,,,
10004,,,survey-text,223,1017686,0.0-15.0-3.18,82913,List1B,black,man,,,,,"{""Q0"":""dave and fred are arguing with each other""}","<img src=""stim_listB/argue6.gif""style=""height:400px;""></stim_listB>",are arguing with each other,
null,"<div style=""font-size:60px;"">+</div>",,html-keyboard-response,224,1018188,0.0-15.0-0.19,82913,List1B,black,man,,,,null,,,,
null,"<img src=""stim_listB/kiss1.gif""style=""height:400px;""></stim_listB>",,html-keyboard-response,225,1020189,0.0-15.0-1.19,82913,List1B,black,man,,,,null,,,,
null,is kissing,,html-keyboard-response,226,1022190,0.0-15.0-2.19,82913,List1B,black,man,,,,null,,,,
7457,,,survey-text,227,1029647,0.0-15.0-3.19,82913,List1B,black,man,,,,,"{""Q0"":""fred is kissing beth""}","<img src=""stim_listB/kiss1.gif""style=""height:400px;""></stim_listB>",is kissing,
15711,"<img src='img/portrait_matrix_list1.jpg' style='width:900px;height:500px;''></img><p>If you have memorised all the portraits and names and are ready to start, press Continue.</p><p><strong>Please note: Your memory of these faces will be tested 4 times during this experiment.</strong></p>",0,html-button-response,228,1045359,0.0-16.0-0.0,82913,List1B,black,man,,,,,,,,
1895,"<img src=""portrait/BM1.jpg""style=""height:400px;""></img>",4,html-button-response,229,1048255,0.0-16.0-1.0,82913,List1B,black,man,,TRUE,4,,,,,
null,CORRECT,,html-keyboard-response,230,1049757,0.0-16.0-2.0-0.0,82913,List1B,black,man,,,,null,,,,
4025,"<img src=""portrait/WW1.jpg""style=""height:400px;""></img>",1,html-button-response,231,1053782,0.0-16.0-4.0,82913,List1B,black,man,,TRUE,1,,,,,
null,CORRECT,,html-keyboard-response,232,1055286,0.0-16.0-5.0-0.0,82913,List1B,black,man,,,,null,,,,
1762,"<img src=""portrait/WW2.jpg""style=""height:400px;""></img>",3,html-button-response,233,1057049,0.0-16.0-7.0,82913,List1B,black,man,,TRUE,3,,,,,
null,CORRECT,,html-keyboard-response,234,1058552,0.0-16.0-8.0-0.0,82913,List1B,black,man,,,,null,,,,
1963,"<img src=""portrait/BW1.jpg""style=""height:400px;""></img>",0,html-button-response,235,1060516,0.0-16.0-10.0,82913,List1B,black,man,,TRUE,0,,,,,
null,CORRECT,,html-keyboard-response,236,1062018,0.0-16.0-11.0-0.0,82913,List1B,black,man,,,,null,,,,
2644,"<img src=""portrait/WM1.jpg""style=""height:400px;""></img>",6,html-button-response,237,1064664,0.0-16.0-13.0,82913,List1B,black,man,,TRUE,6,,,,,
null,CORRECT,,html-keyboard-response,238,1066167,0.0-16.0-14.0-0.0,82913,List1B,black,man,,,,null,,,,
1553,"<img src=""portrait/BM2.jpg""style=""height:400px;""></img>",5,html-button-response,239,1067721,0.0-16.0-16.0,82913,List1B,black,man,,TRUE,5,,,,,
null,CORRECT,,html-keyboard-response,240,1069223,0.0-16.0-17.0-0.0,82913,List1B,black,man,,,,null,,,,
1977,"<img src=""portrait/BW2.jpg""style=""height:400px;""></img>",2,html-button-response,241,1071202,0.0-16.0-19.0,82913,List1B,black,man,,TRUE,2,,,,,
null,CORRECT,,html-keyboard-response,242,1072704,0.0-16.0-20.0-0.0,82913,List1B,black,man,,,,null,,,,
664,"<img src=""portrait/WM2.jpg""style=""height:400px;""></img>",7,html-button-response,243,1073369,0.0-16.0-22.0,82913,List1B,black,man,,TRUE,7,,,,,
null,CORRECT,,html-keyboard-response,244,1074871,0.0-16.0-23.0-0.0,82913,List1B,black,man,,,,null,,,,
1456,<p>You got 8 out of 8 right first time. Press Continue.</p>,0,html-button-response,245,1076328,0.0-16.0-25.0,82913,List1B,black,man,,,,,,,,
null,"<div style=""font-size:60px;"">+</div>",,html-keyboard-response,246,1077830,0.0-17.0-0.0,82913,List1B,black,man,,,,null,,,,
null,"<img src=""stim_listB/argue2.gif""style=""height:400px;""></stim_listB>",,html-keyboard-response,247,1079832,0.0-17.0-1.0,82913,List1B,black,man,,,,null,,,,
null,are arguing with each other,,html-keyboard-response,248,1081835,0.0-17.0-2.0,82913,List1B,black,man,,,,null,,,,
8850,,,survey-text,249,1090686,0.0-17.0-3.0,82913,List1B,black,man,,,,,"{""Q0"":""fred and kate are arguing with each other""}","<img src=""stim_listB/argue2.gif""style=""height:400px;""></stim_listB>",are arguing with each other,
null,"<div style=""font-size:60px;"">+</div>",,html-keyboard-response,250,1091187,0.0-17.0-0.1,82913,List1B,black,man,,,,null,,,,
null,"<img src=""stim_listB/kiss7.gif""style=""height:400px;""></stim_listB>",,html-keyboard-response,251,1093189,0.0-17.0-1.1,82913,List1B,black,man,,,,null,,,,
null,is kissing,,html-keyboard-response,252,1095190,0.0-17.0-2.1,82913,List1B,black,man,,,,null,,,,
6735,,,survey-text,253,1101926,0.0-17.0-3.1,82913,List1B,black,man,,,,,"{""Q0"":""ruth is kissing beth""}","<img src=""stim_listB/kiss7.gif""style=""height:400px;""></stim_listB>",is kissing,
null,"<div style=""font-size:60px;"">+</div>",,html-keyboard-response,254,1102428,0.0-17.0-0.2,82913,List1B,black,man,,,,null,,,,
null,"<img src=""stim_listB/talk6.gif""style=""height:400px;""></stim_listB>",,html-keyboard-response,255,1104429,0.0-17.0-1.2,82913,List1B,black,man,,,,null,,,,
null,are talking to each other,,html-keyboard-response,256,1106430,0.0-17.0-2.2,82913,List1B,black,man,,,,null,,,,
14229,,,survey-text,257,1120659,0.0-17.0-3.2,82913,List1B,black,man,,,,,"{""Q0"":""luke and mike are talking to each other""}","<img src=""stim_listB/talk6.gif""style=""height:400px;""></stim_listB>",are talking to each other,
null,"<div style=""font-size:60px;"">+</div>",,html-keyboard-response,258,1121161,0.0-17.0-0.3,82913,List1B,black,man,,,,null,,,,
null,"<img src=""stim_listB/marry5.gif""style=""height:400px;""></stim_listB>",,html-keyboard-response,259,1123163,0.0-17.0-1.3,82913,List1B,black,man,,,,null,,,,
null,is marrying,,html-keyboard-response,260,1125165,0.0-17.0-2.3,82913,List1B,black,man,,,,null,,,,
8416,,,survey-text,261,1133582,0.0-17.0-3.3,82913,List1B,black,man,,,,,"{""Q0"":""Mike is marrying luke""}","<img src=""stim_listB/marry5.gif""style=""height:400px;""></stim_listB>",is marrying,
null,"<div style=""font-size:60px;"">+</div>",,html-keyboard-response,262,1134083,0.0-17.0-0.4,82913,List1B,black,man,,,,null,,,,
null,"<img src=""stim_listB/dance5.gif""style=""height:400px;""></stim_listB>",,html-keyboard-response,263,1136085,0.0-17.0-1.4,82913,List1B,black,man,,,,null,,,,
null,is dancing with,,html-keyboard-response,264,1138086,0.0-17.0-2.4,82913,List1B,black,man,,,,null,,,,
11442,,,survey-text,265,1149530,0.0-17.0-3.4,82913,List1B,black,man,,,,,"{""Q0"":""dave is dancing with fred""}","<img src=""stim_listB/dance5.gif""style=""height:400px;""></stim_listB>",is dancing with,
null,"<div style=""font-size:60px;"">+</div>",,html-keyboard-response,266,1150032,0.0-17.0-0.5,82913,List1B,black,man,,,,null,,,,
null,"<img src=""stim_listB/marry3.gif""style=""height:400px;""></stim_listB>",,html-keyboard-response,267,1152034,0.0-17.0-1.5,82913,List1B,black,man,,,,null,,,,
null,is marrying,,html-keyboard-response,268,1154035,0.0-17.0-2.5,82913,List1B,black,man,,,,null,,,,
7079,,,survey-text,269,1161115,0.0-17.0-3.5,82913,List1B,black,man,,,,,"{""Q0"":""dave is marrying ruth""}","<img src=""stim_listB/marry3.gif""style=""height:400px;""></stim_listB>",is marrying,
null,"<div style=""font-size:60px;"">+</div>",,html-keyboard-response,270,1161617,0.0-17.0-0.6,82913,List1B,black,man,,,,null,,,,
null,"<img src=""stim_listB/play8.gif""style=""height:400px;""></stim_listB>",,html-keyboard-response,271,1163618,0.0-17.0-1.6,82913,List1B,black,man,,,,null,,,,
null,are playing with each other,,html-keyboard-response,272,1165619,0.0-17.0-2.6,82913,List1B,black,man,,,,null,,,,
11695,,,survey-text,273,1177314,0.0-17.0-3.6,82913,List1B,black,man,,,,,"{""Q0"":""ruth and beth are playing with each other""}","<img src=""stim_listB/play8.gif""style=""height:400px;""></stim_listB>",are playing with each other,
null,"<div style=""font-size:60px;"">+</div>",,html-keyboard-response,274,1177816,0.0-17.0-0.7,82913,List1B,black,man,,,,null,,,,
null,"<img src=""stim_listB/touch1.gif""style=""height:400px;""></stim_listB>",,html-keyboard-response,275,1179817,0.0-17.0-1.7,82913,List1B,black,man,,,,null,,,,
null,is touching,,html-keyboard-response,276,1181819,0.0-17.0-2.7,82913,List1B,black,man,,,,null,,,,
5687,,,survey-text,277,1187506,0.0-17.0-3.7,82913,List1B,black,man,,,,,"{""Q0"":""mike is touching kate""}","<img src=""stim_listB/touch1.gif""style=""height:400px;""></stim_listB>",is touching,
null,"<div style=""font-size:60px;"">+</div>",,html-keyboard-response,278,1188007,0.0-17.0-0.8,82913,List1B,black,man,,,,null,,,,
null,"<img src=""stim_listB/shout7.gif""style=""height:400px;""></stim_listB>",,html-keyboard-response,279,1190008,0.0-17.0-1.8,82913,List1B,black,man,,,,null,,,,
null,is shouting at,,html-keyboard-response,280,1192010,0.0-17.0-2.8,82913,List1B,black,man,,,,null,,,,
9763,,,survey-text,281,1201773,0.0-17.0-3.8,82913,List1B,black,man,,,,,"{""Q0"":""beth is shouting at ruth""}","<img src=""stim_listB/shout7.gif""style=""height:400px;""></stim_listB>",is shouting at,
null,"<div style=""font-size:60px;"">+</div>",,html-keyboard-response,282,1202275,0.0-17.0-0.9,82913,List1B,black,man,,,,null,,,,
null,"<img src=""stim_listB/fight1.gif""style=""height:400px;""></stim_listB>",,html-keyboard-response,283,1204277,0.0-17.0-1.9,82913,List1B,black,man,,,,null,,,,
null,is fighting,,html-keyboard-response,284,1206278,0.0-17.0-2.9,82913,List1B,black,man,,,,null,,,,
6622,,,survey-text,285,1212901,0.0-17.0-3.9,82913,List1B,black,man,,,,,"{""Q0"":""kate is fighting mike""}","<img src=""stim_listB/fight1.gif""style=""height:400px;""></stim_listB>",is fighting,
null,"<div style=""font-size:60px;"">+</div>",,html-keyboard-response,286,1213403,0.0-17.0-0.10,82913,List1B,black,man,,,,null,,,,
null,"<img src=""stim_listB/play3.gif""style=""height:400px;""></stim_listB>",,html-keyboard-response,287,1215405,0.0-17.0-1.10,82913,List1B,black,man,,,,null,,,,
null,is playing with,,html-keyboard-response,288,1217406,0.0-17.0-2.10,82913,List1B,black,man,,,,null,,,,
9827,,,survey-text,289,1227235,0.0-17.0-3.10,82913,List1B,black,man,,,,,"{""Q0"":""dave is playing with jane""}","<img src=""stim_listB/play3.gif""style=""height:400px;""></stim_listB>",is playing with,
null,"<div style=""font-size:60px;"">+</div>",,html-keyboard-response,290,1227736,0.0-17.0-0.11,82913,List1B,black,man,,,,null,,,,
null,"<img src=""stim_listB/play7.gif""style=""height:400px;""></stim_listB>",,html-keyboard-response,291,1229738,0.0-17.0-1.11,82913,List1B,black,man,,,,null,,,,
null,is playing with,,html-keyboard-response,292,1231739,0.0-17.0-2.11,82913,List1B,black,man,,,,null,,,,
7659,,,survey-text,293,1239399,0.0-17.0-3.11,82913,List1B,black,man,,,,,"{""Q0"":""kate is playing with jane""}","<img src=""stim_listB/play7.gif""style=""height:400px;""></stim_listB>",is playing with,
null,"<div style=""font-size:60px;"">+</div>",,html-keyboard-response,294,1239900,0.0-17.0-0.12,82913,List1B,black,man,,,,null,,,,
null,"<img src=""stim_listB/shout1.gif""style=""height:400px;""></stim_listB>",,html-keyboard-response,295,1241902,0.0-17.0-1.12,82913,List1B,black,man,,,,null,,,,
null,is shouting at,,html-keyboard-response,296,1243903,0.0-17.0-2.12,82913,List1B,black,man,,,,null,,,,
8139,,,survey-text,297,1252043,0.0-17.0-3.12,82913,List1B,black,man,,,,,"{""Q0"":""beth is shouting at fred""}","<img src=""stim_listB/shout1.gif""style=""height:400px;""></stim_listB>",is shouting at,
null,"<div style=""font-size:60px;"">+</div>",,html-keyboard-response,298,1252545,0.0-17.0-0.13,82913,List1B,black,man,,,,null,,,,
null,"<img src=""stim_listB/dance7.gif""style=""height:400px;""></stim_listB>",,html-keyboard-response,299,1254546,0.0-17.0-1.13,82913,List1B,black,man,,,,null,,,,
null,is dancing with,,html-keyboard-response,300,1256549,0.0-17.0-2.13,82913,List1B,black,man,,,,null,,,,
5954,,,survey-text,301,1262504,0.0-17.0-3.13,82913,List1B,black,man,,,,,"{""Q0"":""beth is dancing with jane""}","<img src=""stim_listB/dance7.gif""style=""height:400px;""></stim_listB>",is dancing with,
null,"<div style=""font-size:60px;"">+</div>",,html-keyboard-response,302,1263005,0.0-17.0-0.14,82913,List1B,black,man,,,,null,,,,
null,"<img src=""stim_listB/marry1.gif""style=""height:400px;""></stim_listB>",,html-keyboard-response,303,1265006,0.0-17.0-1.14,82913,List1B,black,man,,,,null,,,,
null,is marrying,,html-keyboard-response,304,1267008,0.0-17.0-2.14,82913,List1B,black,man,,,,null,,,,
7542,,,survey-text,305,1274551,0.0-17.0-3.14,82913,List1B,black,man,,,,,"{""Q0"":""mike is marrying beth""}","<img src=""stim_listB/marry1.gif""style=""height:400px;""></stim_listB>",is marrying,
null,"<div style=""font-size:60px;"">+</div>",,html-keyboard-response,306,1275053,0.0-17.0-0.15,82913,List1B,black,man,,,,null,,,,
null,"<img src=""stim_listB/flirt1.gif""style=""height:400px;""></stim_listB>",,html-keyboard-response,307,1277055,0.0-17.0-1.15,82913,List1B,black,man,,,,null,,,,
null,is flirting with,,html-keyboard-response,308,1279057,0.0-17.0-2.15,82913,List1B,black,man,,,,null,,,,
7224,,,survey-text,309,1286282,0.0-17.0-3.15,82913,List1B,black,man,,,,,"{""Q0"":""kate is flirting with fred""}","<img src=""stim_listB/flirt1.gif""style=""height:400px;""></stim_listB>",is flirting with,
null,"<div style=""font-size:60px;"">+</div>",,html-keyboard-response,310,1286784,0.0-17.0-0.16,82913,List1B,black,man,,,,null,,,,
null,"<img src=""stim_listB/talk5.gif""style=""height:400px;""></stim_listB>",,html-keyboard-response,311,1288786,0.0-17.0-1.16,82913,List1B,black,man,,,,null,,,,
null,is talking to,,html-keyboard-response,312,1290788,0.0-17.0-2.16,82913,List1B,black,man,,,,null,,,,
6152,,,survey-text,313,1296940,0.0-17.0-3.16,82913,List1B,black,man,,,,,"{""Q0"":""dave is talking to fred""}","<img src=""stim_listB/talk5.gif""style=""height:400px;""></stim_listB>",is talking to,
null,"<div style=""font-size:60px;"">+</div>",,html-keyboard-response,314,1297442,0.0-17.0-0.17,82913,List1B,black,man,,,,null,,,,
null,"<img src=""stim_listB/talk7.gif""style=""height:400px;""></stim_listB>",,html-keyboard-response,315,1299445,0.0-17.0-1.17,82913,List1B,black,man,,,,null,,,,
null,is talking to,,html-keyboard-response,316,1301447,0.0-17.0-2.17,82913,List1B,black,man,,,,null,,,,
9954,,,survey-text,317,1311401,0.0-17.0-3.17,82913,List1B,black,man,,,,,"{""Q0"":""beth is talking to jane""}","<img src=""stim_listB/talk7.gif""style=""height:400px;""></stim_listB>",is talking to,
null,"<div style=""font-size:60px;"">+</div>",,html-keyboard-response,318,1311904,0.0-17.0-0.18,82913,List1B,black,man,,,,null,,,,
null,"<img src=""stim_listB/kiss8.gif""style=""height:400px;""></stim_listB>",,html-keyboard-response,319,1313905,0.0-17.0-1.18,82913,List1B,black,man,,,,null,,,,
null,are kissing each other,,html-keyboard-response,320,1315907,0.0-17.0-2.18,82913,List1B,black,man,,,,null,,,,
11408,,,survey-text,321,1327315,0.0-17.0-3.18,82913,List1B,black,man,,,,,"{""Q0"":""kate and jane are kissing each other""}","<img src=""stim_listB/kiss8.gif""style=""height:400px;""></stim_listB>",are kissing each other,
null,"<div style=""font-size:60px;"">+</div>",,html-keyboard-response,322,1327817,0.0-17.0-0.19,82913,List1B,black,man,,,,null,,,,
null,"<img src=""stim_listB/talk3.gif""style=""height:400px;""></stim_listB>",,html-keyboard-response,323,1329818,0.0-17.0-1.19,82913,List1B,black,man,,,,null,,,,
null,is talking to,,html-keyboard-response,324,1331820,0.0-17.0-2.19,82913,List1B,black,man,,,,null,,,,
7168,,,survey-text,325,1338988,0.0-17.0-3.19,82913,List1B,black,man,,,,,"{""Q0"":""luke is talking to jane""}","<img src=""stim_listB/talk3.gif""style=""height:400px;""></stim_listB>",is talking to,
3781,"<img src='img/portrait_matrix_list1.jpg' style='width:900px;height:500px;''></img><p>If you have memorised all the portraits and names and are ready to start, press Continue.</p><p><strong>Please note: Your memory of these faces will be tested 4 times during this experiment.</strong></p>",0,html-button-response,326,1342770,0.0-18.0-0.0,82913,List1B,black,man,,,,,,,,
3597,"<img src=""portrait/WM1.jpg""style=""height:400px;""></img>",6,html-button-response,327,1347370,0.0-18.0-1.0,82913,List1B,black,man,,TRUE,6,,,,,
null,CORRECT,,html-keyboard-response,328,1348873,0.0-18.0-2.0-0.0,82913,List1B,black,man,,,,null,,,,
2251,"<img src=""portrait/WW2.jpg""style=""height:400px;""></img>",3,html-button-response,329,1351125,0.0-18.0-4.0,82913,List1B,black,man,,TRUE,3,,,,,
null,CORRECT,,html-keyboard-response,330,1352627,0.0-18.0-5.0-0.0,82913,List1B,black,man,,,,null,,,,
1933,"<img src=""portrait/WM2.jpg""style=""height:400px;""></img>",7,html-button-response,331,1354561,0.0-18.0-7.0,82913,List1B,black,man,,TRUE,7,,,,,
null,CORRECT,,html-keyboard-response,332,1356064,0.0-18.0-8.0-0.0,82913,List1B,black,man,,,,null,,,,
1904,"<img src=""portrait/BM1.jpg""style=""height:400px;""></img>",4,html-button-response,333,1357970,0.0-18.0-10.0,82913,List1B,black,man,,TRUE,4,,,,,
null,CORRECT,,html-keyboard-response,334,1359472,0.0-18.0-11.0-0.0,82913,List1B,black,man,,,,null,,,,
2075,"<img src=""portrait/WW1.jpg""style=""height:400px;""></img>",1,html-button-response,335,1361548,0.0-18.0-13.0,82913,List1B,black,man,,TRUE,1,,,,,
null,CORRECT,,html-keyboard-response,336,1363050,0.0-18.0-14.0-0.0,82913,List1B,black,man,,,,null,,,,
1758,"<img src=""portrait/BW2.jpg""style=""height:400px;""></img>",2,html-button-response,337,1364808,0.0-18.0-16.0,82913,List1B,black,man,,TRUE,2,,,,,
null,CORRECT,,html-keyboard-response,338,1366311,0.0-18.0-17.0-0.0,82913,List1B,black,man,,,,null,,,,
2889,"<img src=""portrait/BW1.jpg""style=""height:400px;""></img>",0,html-button-response,339,1369201,0.0-18.0-19.0,82913,List1B,black,man,,TRUE,0,,,,,
null,CORRECT,,html-keyboard-response,340,1370704,0.0-18.0-20.0-0.0,82913,List1B,black,man,,,,null,,,,
2532,"<img src=""portrait/BM2.jpg""style=""height:400px;""></img>",5,html-button-response,341,1373236,0.0-18.0-22.0,82913,List1B,black,man,,TRUE,5,,,,,
null,CORRECT,,html-keyboard-response,342,1374739,0.0-18.0-23.0-0.0,82913,List1B,black,man,,,,null,,,,
2270,<p>You got 8 out of 8 right first time. Press Continue.</p>,0,html-button-response,343,1377010,0.0-18.0-25.0,82913,List1B,black,man,,,,,,,,
null,"<div style=""font-size:60px;"">+</div>",,html-keyboard-response,344,1378514,0.0-19.0-0.0,82913,List1B,black,man,,,,null,,,,
null,"<img src=""stim_listB/play5.gif""style=""height:400px;""></stim_listB>",,html-keyboard-response,345,1380516,0.0-19.0-1.0,82913,List1B,black,man,,,,null,,,,
null,is playing with,,html-keyboard-response,346,1382518,0.0-19.0-2.0,82913,List1B,black,man,,,,null,,,,
149449,,,survey-text,347,1531967,0.0-19.0-3.0,82913,List1B,black,man,,,,,"{""Q0"":""mike is playing with dave""}","<img src=""stim_listB/play5.gif""style=""height:400px;""></stim_listB>",is playing with,
null,"<div style=""font-size:60px;"">+</div>",,html-keyboard-response,348,1532469,0.0-19.0-0.1,82913,List1B,black,man,,,,null,,,,
null,"<img src=""stim_listB/dance6.gif""style=""height:400px;""></stim_listB>",,html-keyboard-response,349,1534471,0.0-19.0-1.1,82913,List1B,black,man,,,,null,,,,
null,are dancing with each other,,html-keyboard-response,350,1536473,0.0-19.0-2.1,82913,List1B,black,man,,,,null,,,,
12529,,,survey-text,351,1549003,0.0-19.0-3.1,82913,List1B,black,man,,,,,"{""Q0"":""luke and mike are dancing with each other""}","<img src=""stim_listB/dance6.gif""style=""height:400px;""></stim_listB>",are dancing with each other,
null,"<div style=""font-size:60px;"">+</div>",,html-keyboard-response,352,1549504,0.0-19.0-0.2,82913,List1B,black,man,,,,null,,,,
null,"<img src=""stim_listB/argue7.gif""style=""height:400px;""></stim_listB>",,html-keyboard-response,353,1551506,0.0-19.0-1.2,82913,List1B,black,man,,,,null,,,,
null,is arguing with,,html-keyboard-response,354,1553508,0.0-19.0-2.2,82913,List1B,black,man,,,,null,,,,
9196,,,survey-text,355,1562704,0.0-19.0-3.2,82913,List1B,black,man,,,,,"{""Q0"":""ruth is arguing with kate""}","<img src=""stim_listB/argue7.gif""style=""height:400px;""></stim_listB>",is arguing with,
null,"<div style=""font-size:60px;"">+</div>",,html-keyboard-response,356,1563206,0.0-19.0-0.3,82913,List1B,black,man,,,,null,,,,
null,"<img src=""stim_listB/play4.gif""style=""height:400px;""></stim_listB>",,html-keyboard-response,357,1565207,0.0-19.0-1.3,82913,List1B,black,man,,,,null,,,,
null,are playing with each other,,html-keyboard-response,358,1567209,0.0-19.0-2.3,82913,List1B,black,man,,,,null,,,,
17334,,,survey-text,359,1584543,0.0-19.0-3.3,82913,List1B,black,man,,,,,"{""Q0"":""ruth and luke are playing with each other""}","<img src=""stim_listB/play4.gif""style=""height:400px;""></stim_listB>",are playing with each other,
null,"<div style=""font-size:60px;"">+</div>",,html-keyboard-response,360,1585045,0.0-19.0-0.4,82913,List1B,black,man,,,,null,,,,
null,"<img src=""stim_listB/shout3.gif""style=""height:400px;""></stim_listB>",,html-keyboard-response,361,1587048,0.0-19.0-1.4,82913,List1B,black,man,,,,null,,,,
null,is shouting at,,html-keyboard-response,362,1589049,0.0-19.0-2.4,82913,List1B,black,man,,,,null,,,,
6147,,,survey-text,363,1595197,0.0-19.0-3.4,82913,List1B,black,man,,,,,"{""Q0"":""ruth is shouting at luke""}","<img src=""stim_listB/shout3.gif""style=""height:400px;""></stim_listB>",is shouting at,
null,"<div style=""font-size:60px;"">+</div>",,html-keyboard-response,364,1595713,0.0-19.0-0.5,82913,List1B,black,man,,,,null,,,,
null,"<img src=""stim_listB/fight6.gif""style=""height:400px;""></stim_listB>",,html-keyboard-response,365,1597714,0.0-19.0-1.5,82913,List1B,black,man,,,,null,,,,
null,are fighting each other,,html-keyboard-response,366,1599715,0.0-19.0-2.5,82913,List1B,black,man,,,,null,,,,
11616,,,survey-text,367,1611332,0.0-19.0-3.5,82913,List1B,black,man,,,,,"{""Q0"":""fred and luke are fighting each other""}","<img src=""stim_listB/fight6.gif""style=""height:400px;""></stim_listB>",are fighting each other,
null,"<div style=""font-size:60px;"">+</div>",,html-keyboard-response,368,1611834,0.0-19.0-0.6,82913,List1B,black,man,,,,null,,,,
null,"<img src=""stim_listB/marry8.gif""style=""height:400px;""></stim_listB>",,html-keyboard-response,369,1613835,0.0-19.0-1.6,82913,List1B,black,man,,,,null,,,,
null,are marrying each other,,html-keyboard-response,370,1615836,0.0-19.0-2.6,82913,List1B,black,man,,,,null,,,,
10755,,,survey-text,371,1626591,0.0-19.0-3.6,82913,List1B,black,man,,,,,"{""Q0"":""jane and beth are marring each other""}","<img src=""stim_listB/marry8.gif""style=""height:400px;""></stim_listB>",are marrying each other,
null,"<div style=""font-size:60px;"">+</div>",,html-keyboard-response,372,1627093,0.0-19.0-0.7,82913,List1B,black,man,,,,null,,,,
null,"<img src=""stim_listB/marry4.gif""style=""height:400px;""></stim_listB>",,html-keyboard-response,373,1629095,0.0-19.0-1.7,82913,List1B,black,man,,,,null,,,,
null,are marrying each other,,html-keyboard-response,374,1631096,0.0-19.0-2.7,82913,List1B,black,man,,,,null,,,,
10237,,,survey-text,375,1641335,0.0-19.0-3.7,82913,List1B,black,man,,,,,"{""Q0"":""luke and jane are marrying each other""}","<img src=""stim_listB/marry4.gif""style=""height:400px;""></stim_listB>",are marrying each other,
null,"<div style=""font-size:60px;"">+</div>",,html-keyboard-response,376,1641836,0.0-19.0-0.8,82913,List1B,black,man,,,,null,,,,
null,"<img src=""stim_listB/kiss3.gif""style=""height:400px;""></stim_listB>",,html-keyboard-response,377,1643838,0.0-19.0-1.8,82913,List1B,black,man,,,,null,,,,
null,is kissing,,html-keyboard-response,378,1645840,0.0-19.0-2.8,82913,List1B,black,man,,,,null,,,,
7004,,,survey-text,379,1652845,0.0-19.0-3.8,82913,List1B,black,man,,,,,"{""Q0"":""ruth is kissing luke""}","<img src=""stim_listB/kiss3.gif""style=""height:400px;""></stim_listB>",is kissing,
null,"<div style=""font-size:60px;"">+</div>",,html-keyboard-response,380,1653346,0.0-19.0-0.9,82913,List1B,black,man,,,,null,,,,
null,"<img src=""stim_listB/flirt8.gif""style=""height:400px;""></stim_listB>",,html-keyboard-response,381,1655349,0.0-19.0-1.9,82913,List1B,black,man,,,,null,,,,
null,are flirting with each other,,html-keyboard-response,382,1657350,0.0-19.0-2.9,82913,List1B,black,man,,,,null,,,,
9952,,,survey-text,383,1667303,0.0-19.0-3.9,82913,List1B,black,man,,,,,"{""Q0"":""ruth and kate are flirting with each other""}","<img src=""stim_listB/flirt8.gif""style=""height:400px;""></stim_listB>",are flirting with each other,
null,"<div style=""font-size:60px;"">+</div>",,html-keyboard-response,384,1667805,0.0-19.0-0.10,82913,List1B,black,man,,,,null,,,,
null,"<img src=""stim_listB/dance2.gif""style=""height:400px;""></stim_listB>",,html-keyboard-response,385,1669806,0.0-19.0-1.10,82913,List1B,black,man,,,,null,,,,
null,are dancing with each other,,html-keyboard-response,386,1671807,0.0-19.0-2.10,82913,List1B,black,man,,,,null,,,,
10061,,,survey-text,387,1681868,0.0-19.0-3.10,82913,List1B,black,man,,,,,"{""Q0"":""mike and beth are dancing with each other""}","<img src=""stim_listB/dance2.gif""style=""height:400px;""></stim_listB>",are dancing with each other,
null,"<div style=""font-size:60px;"">+</div>",,html-keyboard-response,388,1682370,0.0-19.0-0.11,82913,List1B,black,man,,,,null,,,,
null,"<img src=""stim_listB/talk4.gif""style=""height:400px;""></stim_listB>",,html-keyboard-response,389,1684373,0.0-19.0-1.11,82913,List1B,black,man,,,,null,,,,
null,are talking to each other,,html-keyboard-response,390,1686375,0.0-19.0-2.11,82913,List1B,black,man,,,,null,,,,
9480,,,survey-text,391,1695855,0.0-19.0-3.11,82913,List1B,black,man,,,,,"{""Q0"":""ruth and dave are talking to each other""}","<img src=""stim_listB/talk4.gif""style=""height:400px;""></stim_listB>",are talking to each other,
null,"<div style=""font-size:60px;"">+</div>",,html-keyboard-response,392,1696357,0.0-19.0-0.12,82913,List1B,black,man,,,,null,,,,
null,"<img src=""stim_listB/fight4.gif""style=""height:400px;""></stim_listB>",,html-keyboard-response,393,1698359,0.0-19.0-1.12,82913,List1B,black,man,,,,null,,,,
null,are fighting each other,,html-keyboard-response,394,1700361,0.0-19.0-2.12,82913,List1B,black,man,,,,null,,,,
21813,,,survey-text,395,1722175,0.0-19.0-3.12,82913,List1B,black,man,,,,,"{""Q0"":""dave and ruth are fighting with each other""}","<img src=""stim_listB/fight4.gif""style=""height:400px;""></stim_listB>",are fighting each other,
null,"<div style=""font-size:60px;"">+</div>",,html-keyboard-response,396,1722677,0.0-19.0-0.13,82913,List1B,black,man,,,,null,,,,
null,"<img src=""stim_listB/kiss2.gif""style=""height:400px;""></stim_listB>",,html-keyboard-response,397,1724679,0.0-19.0-1.13,82913,List1B,black,man,,,,null,,,,
null,are kissing each other,,html-keyboard-response,398,1726681,0.0-19.0-2.13,82913,List1B,black,man,,,,null,,,,
9334,,,survey-text,399,1736016,0.0-19.0-3.13,82913,List1B,black,man,,,,,"{""Q0"":""kate and mike are kissing each other""}","<img src=""stim_listB/kiss2.gif""style=""height:400px;""></stim_listB>",are kissing each other,
null,"<div style=""font-size:60px;"">+</div>",,html-keyboard-response,400,1736517,0.0-19.0-0.14,82913,List1B,black,man,,,,null,,,,
null,"<img src=""stim_listB/argue4.gif""style=""height:400px;""></stim_listB>",,html-keyboard-response,401,1738519,0.0-19.0-1.14,82913,List1B,black,man,,,,null,,,,
null,are arguing with each other,,html-keyboard-response,402,1740520,0.0-19.0-2.14,82913,List1B,black,man,,,,null,,,,
9889,,,survey-text,403,1750409,0.0-19.0-3.14,82913,List1B,black,man,,,,,"{""Q0"":""luke and jane are arguing with each other""}","<img src=""stim_listB/argue4.gif""style=""height:400px;""></stim_listB>",are arguing with each other,
null,"<div style=""font-size:60px;"">+</div>",,html-keyboard-response,404,1750911,0.0-19.0-0.15,82913,List1B,black,man,,,,null,,,,
null,"<img src=""stim_listB/marry6.gif""style=""height:400px;""></stim_listB>",,html-keyboard-response,405,1752912,0.0-19.0-1.15,82913,List1B,black,man,,,,null,,,,
null,are marrying each other,,html-keyboard-response,406,1754913,0.0-19.0-2.15,82913,List1B,black,man,,,,null,,,,
15639,,,survey-text,407,1770554,0.0-19.0-3.15,82913,List1B,black,man,,,,,"{""Q0"":""dave and fred are marrying each other""}","<img src=""stim_listB/marry6.gif""style=""height:400px;""></stim_listB>",are marrying each other,
null,"<div style=""font-size:60px;"">+</div>",,html-keyboard-response,408,1771055,0.0-19.0-0.16,82913,List1B,black,man,,,,null,,,,
null,"<img src=""stim_listB/shout4.gif""style=""height:400px;""></stim_listB>",,html-keyboard-response,409,1773056,0.0-19.0-1.16,82913,List1B,black,man,,,,null,,,,
null,are shouting at each other,,html-keyboard-response,410,1775057,0.0-19.0-2.16,82913,List1B,black,man,,,,null,,,,
11302,,,survey-text,411,1786361,0.0-19.0-3.16,82913,List1B,black,man,,,,,"{""Q0"":""dave and jane are shouting at each other""}","<img src=""stim_listB/shout4.gif""style=""height:400px;""></stim_listB>",are shouting at each other,
null,"<div style=""font-size:60px;"">+</div>",,html-keyboard-response,412,1786862,0.0-19.0-0.17,82913,List1B,black,man,,,,null,,,,
null,"<img src=""stim_listB/dance4.gif""style=""height:400px;""></stim_listB>",,html-keyboard-response,413,1788863,0.0-19.0-1.17,82913,List1B,black,man,,,,null,,,,
null,are dancing with each other,,html-keyboard-response,414,1790865,0.0-19.0-2.17,82913,List1B,black,man,,,,null,,,,
18031,,,survey-text,415,1808896,0.0-19.0-3.17,82913,List1B,black,man,,,,,"{""Q0"":""dave and ruth are dancing with each other""}","<img src=""stim_listB/dance4.gif""style=""height:400px;""></stim_listB>",are dancing with each other,
null,"<div style=""font-size:60px;"">+</div>",,html-keyboard-response,416,1809398,0.0-19.0-0.18,82913,List1B,black,man,,,,null,,,,
null,"<img src=""stim_listB/fight7.gif""style=""height:400px;""></stim_listB>",,html-keyboard-response,417,1811399,0.0-19.0-1.18,82913,List1B,black,man,,,,null,,,,
null,is fighting,,html-keyboard-response,418,1813400,0.0-19.0-2.18,82913,List1B,black,man,,,,null,,,,
5906,,,survey-text,419,1819307,0.0-19.0-3.18,82913,List1B,black,man,,,,,"{""Q0"":""jane is fighting kate""}","<img src=""stim_listB/fight7.gif""style=""height:400px;""></stim_listB>",is fighting,
null,"<div style=""font-size:60px;"">+</div>",,html-keyboard-response,420,1819809,0.0-19.0-0.19,82913,List1B,black,man,,,,null,,,,
null,"<img src=""stim_listB/flirt6.gif""style=""height:400px;""></stim_listB>",,html-keyboard-response,421,1821810,0.0-19.0-1.19,82913,List1B,black,man,,,,null,,,,
null,are flirting with each other,,html-keyboard-response,422,1823812,0.0-19.0-2.19,82913,List1B,black,man,,,,null,,,,
22980,,,survey-text,423,1846794,0.0-19.0-3.19,82913,List1B,black,man,,,,,"{""Q0"":""luke and mike are flirting with each otherw""}","<img src=""stim_listB/flirt6.gif""style=""height:400px;""></stim_listB>",are flirting with each other,
3504,<p>Thank you for completing that task.</p><p>The final part of this session is a short questionnaire.</p><p>Press Continue.</p>,0,html-button-response,424,1850299,0.0-20.0,82913,List1B,black,man,,,,,,,,
28196,,,survey-text,425,1879498,0.0-21.0,82913,List1B,black,man,,,,,"{""Q0"":""20"",""Q1"":""English"",""Q2"":""English"",""Q3"":""America"",""Q4"":""Black"",""Q5"":""Male""}",,,demographics
9448,,,survey-likert,426,1888948,0.0-22.0,82913,List1B,black,man,,,,,"{""Q0"":3}",,,likert_ESS
14810,,,survey-likert,427,1903762,0.0-23.0,82913,List1B,black,man,,,,,"{""Q0"":5}",,,likert_NSSAL_Q1
1849,,,survey-likert,428,1905615,0.0-24.0,82913,List1B,black,man,,,,,"{""Q0"":""""}",,,likert_NSSAL_Q2
5945,,,survey-likert,429,1911563,0.0-25.0,82913,List1B,black,man,,,,,"{""Q0"":4}",,,likert_CGRS_Q1
10453,,,survey-likert,430,1922020,0.0-26.0,82913,List1B,black,man,,,,,"{""Q0"":2}",,,likert_CGRS_Q2
7193,,,survey-likert,431,1929217,0.0-27.0,82913,List1B,black,man,,,,,"{""Q0"":2}",,,likert_CGRS_Q3
5927,,,survey-text,432,1935147,0.0-28.0,82913,List1B,black,man,,,,,"{""Q0"":""ccc""}",,,worker_id
38253,,,external-html,433,1973652,0.0-29.0,82913,List1B,black,man,debrief.html,,,,,,,
