rt,stimulus,button_pressed,trial_type,trial_index,time_elapsed,internal_node_id,subject,list,ppt_race,ppt_gender,url,first_guess,correct,key_press,responses,image_type,phrase_type,test_part
2105,Welcome to the experiment. Press Continue to begin.,0,html-button-response,0,2107,0.0-0.0,83786,List2B,white,woman,,,,,,,,
56515,,,external-html,1,59711,0.0-1.0,83786,List2B,white,woman,consent.html,,,,,,,
15684,"<p>On the next page, you will see portraits of 8 people and their names.</p><p>Your first task is to take a few minutes to memorise the names of these people.</p><p>You will have to recall their names during the rest of the experiment, so it is</p><p>essential that you try to memorise these people and their names as best as you can.</p><br><p><strong>You will then be tested on your memory of these names and portraits.</strong></p><br><p>The experiment will start after you have completed this memory test.</p><br><p>Ready?</p>",0,html-button-response,2,75397,0.0-2.0,83786,List2B,white,woman,,,,,,,,
38760,"<img src='img/portrait_matrix_list2.jpg' style='width:900px;height:500px;''></img><p>If you have memorised all the portraits and names and are ready to start, press Continue.</p><p><strong>Please note: Your memory of these faces will be tested 4 times during this experiment.</strong></p>",0,html-button-response,3,115161,0.0-3.0-0.0,83786,List2B,white,woman,,,,,,,,
4438,"<img src=""portrait/BW2.jpg""style=""height:400px;""></img>",2,html-button-response,4,120614,0.0-3.0-1.0,83786,List2B,white,woman,,TRUE,2,,,,,
null,CORRECT,,html-keyboard-response,5,122142,0.0-3.0-2.0-0.0,83786,List2B,white,woman,,,,null,,,,
1739,"<img src=""portrait/BM2.jpg""style=""height:400px;""></img>",5,html-button-response,6,123882,0.0-3.0-4.0,83786,List2B,white,woman,,TRUE,5,,,,,
null,CORRECT,,html-keyboard-response,7,125406,0.0-3.0-5.0-0.0,83786,List2B,white,woman,,,,null,,,,
1835,"<img src=""portrait/WM2.jpg""style=""height:400px;""></img>",7,html-button-response,8,127242,0.0-3.0-7.0,83786,List2B,white,woman,,TRUE,7,,,,,
null,CORRECT,,html-keyboard-response,9,128771,0.0-3.0-8.0-0.0,83786,List2B,white,woman,,,,null,,,,
1646,"<img src=""portrait/WW2.jpg""style=""height:400px;""></img>",3,html-button-response,10,130418,0.0-3.0-10.0,83786,List2B,white,woman,,TRUE,3,,,,,
null,CORRECT,,html-keyboard-response,11,131938,0.0-3.0-11.0-0.0,83786,List2B,white,woman,,,,null,,,,
1924,"<img src=""portrait/BW1.jpg""style=""height:400px;""></img>",0,html-button-response,12,133864,0.0-3.0-13.0,83786,List2B,white,woman,,TRUE,0,,,,,
null,CORRECT,,html-keyboard-response,13,135386,0.0-3.0-14.0-0.0,83786,List2B,white,woman,,,,null,,,,
2253,"<img src=""portrait/BM1.jpg""style=""height:400px;""></img>",4,html-button-response,14,137642,0.0-3.0-16.0,83786,List2B,white,woman,,TRUE,4,,,,,
null,CORRECT,,html-keyboard-response,15,139168,0.0-3.0-17.0-0.0,83786,List2B,white,woman,,,,null,,,,
1993,"<img src=""portrait/WM1.jpg""style=""height:400px;""></img>",6,html-button-response,16,141161,0.0-3.0-19.0,83786,List2B,white,woman,,TRUE,6,,,,,
null,CORRECT,,html-keyboard-response,17,142667,0.0-3.0-20.0-0.0,83786,List2B,white,woman,,,,null,,,,
1635,"<img src=""portrait/WW1.jpg""style=""height:400px;""></img>",1,html-button-response,18,144304,0.0-3.0-22.0,83786,List2B,white,woman,,TRUE,1,,,,,
null,CORRECT,,html-keyboard-response,19,145806,0.0-3.0-23.0-0.0,83786,List2B,white,woman,,,,null,,,,
2022,<p>You got 8 out of 8 right first time. Press Continue.</p>,0,html-button-response,20,147830,0.0-3.0-25.0,83786,List2B,white,woman,,,,,,,,
75384,"<p>In this experiment, you will view photographs of the people from the memory game interacting.</p><p>By using the <strong>exact</strong> phrase given <i>after</i> the photograph appears and recalling the correct names of the people in the photographs, form a sentence describing the interaction. You do not need to capitalise names.</p><p>Type your answer in the space provided. Please complete every sentence before moving onto the next trial.</p><p>You will only have a few seconds to memorise each given photograph and phrase before you can respond, so try your best to focus.</p><p>An example is given below. Press 'Continue' when you are ready.</p><img src='img/speaking_example.jpg' style='width:800px;height:460px;''></img>",0,html-button-response,21,224228,0.0-4.0,83786,List2B,white,woman,,,,,,,,
3324,"<p>Before the experiment starts, you will watch two example trials. Press 'Continue'.</p>",0,html-button-response,22,228564,0.0-5.0,83786,List2B,white,woman,,,,,,,,
null,<img src='img/meet_eg.gif' style='height:400px;''></img>,,html-keyboard-response,23,231571,0.0-6.0,83786,List2B,white,woman,,,,null,,,,
null,<p>is meeting</p>,,html-keyboard-response,24,233585,0.0-7.0,83786,List2B,white,woman,,,,null,,,,
7851,<p><b>Answer:</b> jane is meeting ruth</p>,0,html-button-response,25,241436,0.0-8.0,83786,List2B,white,woman,,,,,,,,
null,<img src='img/look_eg.gif' style='height:400px;''></img>,,html-keyboard-response,26,244441,0.0-9.0,83786,List2B,white,woman,,,,null,,,,
null,<p>are looking at each other</p>,,html-keyboard-response,27,246447,0.0-10.0,83786,List2B,white,woman,,,,null,,,,
20544,<p><b>Answer:</b> fred and mike are looking at each other</p>,0,html-button-response,28,266992,0.0-11.0,83786,List2B,white,woman,,,,,,,,
6736,"<p>Ready to start the experiment?</p><br><p><strong>Remember to describe the picture using a full sentence,</strong></p><p><strong>that combines the names of the people with the <i>exact</i> phrase given.</strong></p><p><strong>To receive full payment you must do this correctly.</strong></p><p><strong> You do not need to capitalise names or use punctuation.</strong></p><br><p>Press 'Continue' to begin.</p>",0,html-button-response,29,274744,0.0-12.0,83786,List2B,white,woman,,,,,,,,
null,"<div style=""font-size:60px;"">+</div>",,html-keyboard-response,30,276255,0.0-13.0-0.0,83786,List2B,white,woman,,,,null,,,,
null,"<img src=""stim_listB/flirt4.gif""style=""height:400px;""></stim_listB>",,html-keyboard-response,31,278259,0.0-13.0-1.0,83786,List2B,white,woman,,,,null,,,,
null,are flirting with each other,,html-keyboard-response,32,280266,0.0-13.0-2.0,83786,List2B,white,woman,,,,null,,,,
15874,,,survey-text,33,296143,0.0-13.0-3.0,83786,List2B,white,woman,,,,,"{""Q0"":""mike and beth are flirting with each other""}","<img src=""stim_listB/flirt4.gif""style=""height:400px;""></stim_listB>",are flirting with each other,
null,"<div style=""font-size:60px;"">+</div>",,html-keyboard-response,34,296645,0.0-13.0-0.1,83786,List2B,white,woman,,,,null,,,,
null,"<img src=""stim_listB/fight8.gif""style=""height:400px;""></stim_listB>",,html-keyboard-response,35,298654,0.0-13.0-1.1,83786,List2B,white,woman,,,,null,,,,
null,are fighting each other,,html-keyboard-response,36,300657,0.0-13.0-2.1,83786,List2B,white,woman,,,,null,,,,
15000,,,survey-text,37,315659,0.0-13.0-3.1,83786,List2B,white,woman,,,,,"{""Q0"":""ruth and beth are fighting each other""}","<img src=""stim_listB/fight8.gif""style=""height:400px;""></stim_listB>",are fighting each other,
null,"<div style=""font-size:60px;"">+</div>",,html-keyboard-response,38,316165,0.0-13.0-0.2,83786,List2B,white,woman,,,,null,,,,
null,"<img src=""stim_listB/touch5.gif""style=""height:400px;""></stim_listB>",,html-keyboard-response,39,318174,0.0-13.0-1.2,83786,List2B,white,woman,,,,null,,,,
null,is touching,,html-keyboard-response,40,320181,0.0-13.0-2.2,83786,List2B,white,woman,,,,null,,,,
7324,,,survey-text,41,327507,0.0-13.0-3.2,83786,List2B,white,woman,,,,,"{""Q0"":""mike is touching dave""}","<img src=""stim_listB/touch5.gif""style=""height:400px;""></stim_listB>",is touching,
null,"<div style=""font-size:60px;"">+</div>",,html-keyboard-response,42,328012,0.0-13.0-0.3,83786,List2B,white,woman,,,,null,,,,
null,"<img src=""stim_listB/fight4.gif""style=""height:400px;""></stim_listB>",,html-keyboard-response,43,330014,0.0-13.0-1.3,83786,List2B,white,woman,,,,null,,,,
null,are fighting each other,,html-keyboard-response,44,332016,0.0-13.0-2.3,83786,List2B,white,woman,,,,null,,,,
11153,,,survey-text,45,343170,0.0-13.0-3.3,83786,List2B,white,woman,,,,,"{""Q0"":""fred and beth are fighting each other""}","<img src=""stim_listB/fight4.gif""style=""height:400px;""></stim_listB>",are fighting each other,
null,"<div style=""font-size:60px;"">+</div>",,html-keyboard-response,46,343672,0.0-13.0-0.4,83786,List2B,white,woman,,,,null,,,,
null,"<img src=""stim_listB/talk6.gif""style=""height:400px;""></stim_listB>",,html-keyboard-response,47,345689,0.0-13.0-1.4,83786,List2B,white,woman,,,,null,,,,
null,are talking to each other,,html-keyboard-response,48,347691,0.0-13.0-2.4,83786,List2B,white,woman,,,,null,,,,
21896,,,survey-text,49,369588,0.0-13.0-3.4,83786,List2B,white,woman,,,,,"{""Q0"":""dave and fred are talking to each other""}","<img src=""stim_listB/talk6.gif""style=""height:400px;""></stim_listB>",are talking to each other,
null,"<div style=""font-size:60px;"">+</div>",,html-keyboard-response,50,370099,0.0-13.0-0.5,83786,List2B,white,woman,,,,null,,,,
null,"<img src=""stim_listB/fight6.gif""style=""height:400px;""></stim_listB>",,html-keyboard-response,51,372102,0.0-13.0-1.5,83786,List2B,white,woman,,,,null,,,,
null,are fighting each other,,html-keyboard-response,52,374104,0.0-13.0-2.5,83786,List2B,white,woman,,,,null,,,,
10941,,,survey-text,53,385047,0.0-13.0-3.5,83786,List2B,white,woman,,,,,"{""Q0"":""luke and fred are fighting each other""}","<img src=""stim_listB/fight6.gif""style=""height:400px;""></stim_listB>",are fighting each other,
null,"<div style=""font-size:60px;"">+</div>",,html-keyboard-response,54,385554,0.0-13.0-0.6,83786,List2B,white,woman,,,,null,,,,
null,"<img src=""stim_listB/argue2.gif""style=""height:400px;""></stim_listB>",,html-keyboard-response,55,387556,0.0-13.0-1.6,83786,List2B,white,woman,,,,null,,,,
null,are arguing with each other,,html-keyboard-response,56,389557,0.0-13.0-2.6,83786,List2B,white,woman,,,,null,,,,
18618,,,survey-text,57,408177,0.0-13.0-3.6,83786,List2B,white,woman,,,,,"{""Q0"":""luke and ruth are arguing each other""}","<img src=""stim_listB/argue2.gif""style=""height:400px;""></stim_listB>",are arguing with each other,
null,"<div style=""font-size:60px;"">+</div>",,html-keyboard-response,58,408690,0.0-13.0-0.7,83786,List2B,white,woman,,,,null,,,,
null,"<img src=""stim_listB/kiss4.gif""style=""height:400px;""></stim_listB>",,html-keyboard-response,59,410692,0.0-13.0-1.7,83786,List2B,white,woman,,,,null,,,,
null,are kissing each other,,html-keyboard-response,60,412699,0.0-13.0-2.7,83786,List2B,white,woman,,,,null,,,,
11742,,,survey-text,61,424442,0.0-13.0-3.7,83786,List2B,white,woman,,,,,"{""Q0"":""mike and kate are kissing each other""}","<img src=""stim_listB/kiss4.gif""style=""height:400px;""></stim_listB>",are kissing each other,
null,"<div style=""font-size:60px;"">+</div>",,html-keyboard-response,62,424957,0.0-13.0-0.8,83786,List2B,white,woman,,,,null,,,,
null,"<img src=""stim_listB/marry3.gif""style=""height:400px;""></stim_listB>",,html-keyboard-response,63,426960,0.0-13.0-1.8,83786,List2B,white,woman,,,,null,,,,
null,is marrying,,html-keyboard-response,64,428963,0.0-13.0-2.8,83786,List2B,white,woman,,,,null,,,,
7483,,,survey-text,65,436448,0.0-13.0-3.8,83786,List2B,white,woman,,,,,"{""Q0"":""mike is marrying beth""}","<img src=""stim_listB/marry3.gif""style=""height:400px;""></stim_listB>",is marrying,
null,"<div style=""font-size:60px;"">+</div>",,html-keyboard-response,66,436965,0.0-13.0-0.9,83786,List2B,white,woman,,,,null,,,,
null,"<img src=""stim_listB/flirt3.gif""style=""height:400px;""></stim_listB>",,html-keyboard-response,67,438969,0.0-13.0-1.9,83786,List2B,white,woman,,,,null,,,,
null,is flirting with,,html-keyboard-response,68,440971,0.0-13.0-2.9,83786,List2B,white,woman,,,,null,,,,
12780,,,survey-text,69,453752,0.0-13.0-3.9,83786,List2B,white,woman,,,,,"{""Q0"":""fred is flirting with kate""}","<img src=""stim_listB/flirt3.gif""style=""height:400px;""></stim_listB>",is flirting with,
null,"<div style=""font-size:60px;"">+</div>",,html-keyboard-response,70,454264,0.0-13.0-0.10,83786,List2B,white,woman,,,,null,,,,
null,"<img src=""stim_listB/marry4.gif""style=""height:400px;""></stim_listB>",,html-keyboard-response,71,456267,0.0-13.0-1.10,83786,List2B,white,woman,,,,null,,,,
null,are marrying each other,,html-keyboard-response,72,458268,0.0-13.0-2.10,83786,List2B,white,woman,,,,null,,,,
12722,,,survey-text,73,470992,0.0-13.0-3.10,83786,List2B,white,woman,,,,,"{""Q0"":""kate and fred are marrying each other""}","<img src=""stim_listB/marry4.gif""style=""height:400px;""></stim_listB>",are marrying each other,
null,"<div style=""font-size:60px;"">+</div>",,html-keyboard-response,74,471499,0.0-13.0-0.11,83786,List2B,white,woman,,,,null,,,,
null,"<img src=""stim_listB/dance6.gif""style=""height:400px;""></stim_listB>",,html-keyboard-response,75,473503,0.0-13.0-1.11,83786,List2B,white,woman,,,,null,,,,
null,are dancing with each other,,html-keyboard-response,76,475518,0.0-13.0-2.11,83786,List2B,white,woman,,,,null,,,,
16944,,,survey-text,77,492464,0.0-13.0-3.11,83786,List2B,white,woman,,,,,"{""Q0"":""dave and fred are dancing with each other""}","<img src=""stim_listB/dance6.gif""style=""height:400px;""></stim_listB>",are dancing with each other,
null,"<div style=""font-size:60px;"">+</div>",,html-keyboard-response,78,492968,0.0-13.0-0.12,83786,List2B,white,woman,,,,null,,,,
null,"<img src=""stim_listB/touch1.gif""style=""height:400px;""></stim_listB>",,html-keyboard-response,79,494970,0.0-13.0-1.12,83786,List2B,white,woman,,,,null,,,,
null,is touching,,html-keyboard-response,80,496985,0.0-13.0-2.12,83786,List2B,white,woman,,,,null,,,,
7461,,,survey-text,81,504447,0.0-13.0-3.12,83786,List2B,white,woman,,,,,"{""Q0"":""dave is touching ruth""}","<img src=""stim_listB/touch1.gif""style=""height:400px;""></stim_listB>",is touching,
null,"<div style=""font-size:60px;"">+</div>",,html-keyboard-response,82,504952,0.0-13.0-0.13,83786,List2B,white,woman,,,,null,,,,
null,"<img src=""stim_listB/dance4.gif""style=""height:400px;""></stim_listB>",,html-keyboard-response,83,506955,0.0-13.0-1.13,83786,List2B,white,woman,,,,null,,,,
null,are dancing with each other,,html-keyboard-response,84,508957,0.0-13.0-2.13,83786,List2B,white,woman,,,,null,,,,
17166,,,survey-text,85,526125,0.0-13.0-3.13,83786,List2B,white,woman,,,,,"{""Q0"":""mike and beth are dancing with each other""}","<img src=""stim_listB/dance4.gif""style=""height:400px;""></stim_listB>",are dancing with each other,
null,"<div style=""font-size:60px;"">+</div>",,html-keyboard-response,86,526629,0.0-13.0-0.14,83786,List2B,white,woman,,,,null,,,,
null,"<img src=""stim_listB/talk5.gif""style=""height:400px;""></stim_listB>",,html-keyboard-response,87,528632,0.0-13.0-1.14,83786,List2B,white,woman,,,,null,,,,
null,is talking to,,html-keyboard-response,88,530642,0.0-13.0-2.14,83786,List2B,white,woman,,,,null,,,,
9343,,,survey-text,89,539987,0.0-13.0-3.14,83786,List2B,white,woman,,,,,"{""Q0"":""mike is talking to luke""}","<img src=""stim_listB/talk5.gif""style=""height:400px;""></stim_listB>",is talking to,
null,"<div style=""font-size:60px;"">+</div>",,html-keyboard-response,90,540501,0.0-13.0-0.15,83786,List2B,white,woman,,,,null,,,,
null,"<img src=""stim_listB/shout2.gif""style=""height:400px;""></stim_listB>",,html-keyboard-response,91,542505,0.0-13.0-1.15,83786,List2B,white,woman,,,,null,,,,
null,are shouting at each other,,html-keyboard-response,92,544516,0.0-13.0-2.15,83786,List2B,white,woman,,,,null,,,,
24604,,,survey-text,93,569121,0.0-13.0-3.15,83786,List2B,white,woman,,,,,"{""Q0"":""dave and jane are shouting at each other""}","<img src=""stim_listB/shout2.gif""style=""height:400px;""></stim_listB>",are shouting at each other,
null,"<div style=""font-size:60px;"">+</div>",,html-keyboard-response,94,569636,0.0-13.0-0.16,83786,List2B,white,woman,,,,null,,,,
null,"<img src=""stim_listB/play1.gif""style=""height:400px;""></stim_listB>",,html-keyboard-response,95,571640,0.0-13.0-1.16,83786,List2B,white,woman,,,,null,,,,
null,is playing with,,html-keyboard-response,96,573642,0.0-13.0-2.16,83786,List2B,white,woman,,,,null,,,,
9382,,,survey-text,97,583026,0.0-13.0-3.16,83786,List2B,white,woman,,,,,"{""Q0"":""dave is playing with jane""}","<img src=""stim_listB/play1.gif""style=""height:400px;""></stim_listB>",is playing with,
null,"<div style=""font-size:60px;"">+</div>",,html-keyboard-response,98,583531,0.0-13.0-0.17,83786,List2B,white,woman,,,,null,,,,
null,"<img src=""stim_listB/argue3.gif""style=""height:400px;""></stim_listB>",,html-keyboard-response,99,585538,0.0-13.0-1.17,83786,List2B,white,woman,,,,null,,,,
null,is arguing with,,html-keyboard-response,100,587546,0.0-13.0-2.17,83786,List2B,white,woman,,,,null,,,,
10526,,,survey-text,101,598073,0.0-13.0-3.17,83786,List2B,white,woman,,,,,"{""Q0"":""mike is arguing with beth""}","<img src=""stim_listB/argue3.gif""style=""height:400px;""></stim_listB>",is arguing with,
null,"<div style=""font-size:60px;"">+</div>",,html-keyboard-response,102,598588,0.0-13.0-0.18,83786,List2B,white,woman,,,,null,,,,
null,"<img src=""stim_listB/play2.gif""style=""height:400px;""></stim_listB>",,html-keyboard-response,103,600591,0.0-13.0-1.18,83786,List2B,white,woman,,,,null,,,,
null,are playing with each other,,html-keyboard-response,104,602592,0.0-13.0-2.18,83786,List2B,white,woman,,,,null,,,,
11880,,,survey-text,105,614473,0.0-13.0-3.18,83786,List2B,white,woman,,,,,"{""Q0"":""luke and ruth are playing with each other""}","<img src=""stim_listB/play2.gif""style=""height:400px;""></stim_listB>",are playing with each other,
null,"<div style=""font-size:60px;"">+</div>",,html-keyboard-response,106,614982,0.0-13.0-0.19,83786,List2B,white,woman,,,,null,,,,
null,"<img src=""stim_listB/dance8.gif""style=""height:400px;""></stim_listB>",,html-keyboard-response,107,616986,0.0-13.0-1.19,83786,List2B,white,woman,,,,null,,,,
null,are dancing with each other,,html-keyboard-response,108,618989,0.0-13.0-2.19,83786,List2B,white,woman,,,,null,,,,
13068,,,survey-text,109,632058,0.0-13.0-3.19,83786,List2B,white,woman,,,,,"{""Q0"":""jane and beth are dancing with each other""}","<img src=""stim_listB/dance8.gif""style=""height:400px;""></stim_listB>",are dancing with each other,
23361,"<img src='img/portrait_matrix_list2.jpg' style='width:900px;height:500px;''></img><p>If you have memorised all the portraits and names and are ready to start, press Continue.</p><p><strong>Please note: Your memory of these faces will be tested 4 times during this experiment.</strong></p>",0,html-button-response,110,655421,0.0-14.0-0.0,83786,List2B,white,woman,,,,,,,,
3874,"<img src=""portrait/WW1.jpg""style=""height:400px;""></img>",1,html-button-response,111,660303,0.0-14.0-1.0,83786,List2B,white,woman,,TRUE,1,,,,,
null,CORRECT,,html-keyboard-response,112,661812,0.0-14.0-2.0-0.0,83786,List2B,white,woman,,,,null,,,,
2349,"<img src=""portrait/BW2.jpg""style=""height:400px;""></img>",2,html-button-response,113,664163,0.0-14.0-4.0,83786,List2B,white,woman,,TRUE,2,,,,,
null,CORRECT,,html-keyboard-response,114,665680,0.0-14.0-5.0-0.0,83786,List2B,white,woman,,,,null,,,,
1378,"<img src=""portrait/WW2.jpg""style=""height:400px;""></img>",3,html-button-response,115,667061,0.0-14.0-7.0,83786,List2B,white,woman,,TRUE,3,,,,,
null,CORRECT,,html-keyboard-response,116,668575,0.0-14.0-8.0-0.0,83786,List2B,white,woman,,,,null,,,,
1593,"<img src=""portrait/WM2.jpg""style=""height:400px;""></img>",7,html-button-response,117,670169,0.0-14.0-10.0,83786,List2B,white,woman,,TRUE,7,,,,,
null,CORRECT,,html-keyboard-response,118,671692,0.0-14.0-11.0-0.0,83786,List2B,white,woman,,,,null,,,,
1718,"<img src=""portrait/WM1.jpg""style=""height:400px;""></img>",6,html-button-response,119,673413,0.0-14.0-13.0,83786,List2B,white,woman,,TRUE,6,,,,,
null,CORRECT,,html-keyboard-response,120,674941,0.0-14.0-14.0-0.0,83786,List2B,white,woman,,,,null,,,,
1262,"<img src=""portrait/BM2.jpg""style=""height:400px;""></img>",5,html-button-response,121,676205,0.0-14.0-16.0,83786,List2B,white,woman,,TRUE,5,,,,,
null,CORRECT,,html-keyboard-response,122,677723,0.0-14.0-17.0-0.0,83786,List2B,white,woman,,,,null,,,,
2703,"<img src=""portrait/BW1.jpg""style=""height:400px;""></img>",0,html-button-response,123,680429,0.0-14.0-19.0,83786,List2B,white,woman,,TRUE,0,,,,,
null,CORRECT,,html-keyboard-response,124,681947,0.0-14.0-20.0-0.0,83786,List2B,white,woman,,,,null,,,,
1394,"<img src=""portrait/BM1.jpg""style=""height:400px;""></img>",4,html-button-response,125,683343,0.0-14.0-22.0,83786,List2B,white,woman,,TRUE,4,,,,,
null,CORRECT,,html-keyboard-response,126,684855,0.0-14.0-23.0-0.0,83786,List2B,white,woman,,,,null,,,,
1627,<p>You got 8 out of 8 right first time. Press Continue.</p>,0,html-button-response,127,686485,0.0-14.0-25.0,83786,List2B,white,woman,,,,,,,,
null,"<div style=""font-size:60px;"">+</div>",,html-keyboard-response,128,688003,0.0-15.0-0.0,83786,List2B,white,woman,,,,null,,,,
null,"<img src=""stim_listB/flirt5.gif""style=""height:400px;""></stim_listB>",,html-keyboard-response,129,690007,0.0-15.0-1.0,83786,List2B,white,woman,,,,null,,,,
null,is flirting with,,html-keyboard-response,130,692008,0.0-15.0-2.0,83786,List2B,white,woman,,,,null,,,,
12559,,,survey-text,131,704568,0.0-15.0-3.0,83786,List2B,white,woman,,,,,"{""Q0"":""luke is flirting with mike""}","<img src=""stim_listB/flirt5.gif""style=""height:400px;""></stim_listB>",is flirting with,
null,"<div style=""font-size:60px;"">+</div>",,html-keyboard-response,132,705070,0.0-15.0-0.1,83786,List2B,white,woman,,,,null,,,,
null,"<img src=""stim_listB/kiss5.gif""style=""height:400px;""></stim_listB>",,html-keyboard-response,133,707073,0.0-15.0-1.1,83786,List2B,white,woman,,,,null,,,,
null,is kissing,,html-keyboard-response,134,709075,0.0-15.0-2.1,83786,List2B,white,woman,,,,null,,,,
5287,,,survey-text,135,714363,0.0-15.0-3.1,83786,List2B,white,woman,,,,,"{""Q0"":""luke is kissing fred""}","<img src=""stim_listB/kiss5.gif""style=""height:400px;""></stim_listB>",is kissing,
null,"<div style=""font-size:60px;"">+</div>",,html-keyboard-response,136,714872,0.0-15.0-0.2,83786,List2B,white,woman,,,,null,,,,
null,"<img src=""stim_listB/fight2.gif""style=""height:400px;""></stim_listB>",,html-keyboard-response,137,716879,0.0-15.0-1.2,83786,List2B,white,woman,,,,null,,,,
null,are fighting each other,,html-keyboard-response,138,718880,0.0-15.0-2.2,83786,List2B,white,woman,,,,null,,,,
11913,,,survey-text,139,730794,0.0-15.0-3.2,83786,List2B,white,woman,,,,,"{""Q0"":""ruth and luke are fighting each other""}","<img src=""stim_listB/fight2.gif""style=""height:400px;""></stim_listB>",are fighting each other,
null,"<div style=""font-size:60px;"">+</div>",,html-keyboard-response,140,731297,0.0-15.0-0.3,83786,List2B,white,woman,,,,null,,,,
null,"<img src=""stim_listB/flirt6.gif""style=""height:400px;""></stim_listB>",,html-keyboard-response,141,733300,0.0-15.0-1.3,83786,List2B,white,woman,,,,null,,,,
null,are flirting with each other,,html-keyboard-response,142,735301,0.0-15.0-2.3,83786,List2B,white,woman,,,,null,,,,
14390,,,survey-text,143,749692,0.0-15.0-3.3,83786,List2B,white,woman,,,,,"{""Q0"":""dave and fred are flirting with each other""}","<img src=""stim_listB/flirt6.gif""style=""height:400px;""></stim_listB>",are flirting with each other,
null,"<div style=""font-size:60px;"">+</div>",,html-keyboard-response,144,750200,0.0-15.0-0.4,83786,List2B,white,woman,,,,null,,,,
null,"<img src=""stim_listB/touch2.gif""style=""height:400px;""></stim_listB>",,html-keyboard-response,145,752202,0.0-15.0-1.4,83786,List2B,white,woman,,,,null,,,,
null,are touching each other,,html-keyboard-response,146,754204,0.0-15.0-2.4,83786,List2B,white,woman,,,,null,,,,
11809,,,survey-text,147,766014,0.0-15.0-3.4,83786,List2B,white,woman,,,,,"{""Q0"":""luke and ruth are touching each other""}","<img src=""stim_listB/touch2.gif""style=""height:400px;""></stim_listB>",are touching each other,
null,"<div style=""font-size:60px;"">+</div>",,html-keyboard-response,148,766518,0.0-15.0-0.5,83786,List2B,white,woman,,,,null,,,,
null,"<img src=""stim_listB/shout3.gif""style=""height:400px;""></stim_listB>",,html-keyboard-response,149,768521,0.0-15.0-1.5,83786,List2B,white,woman,,,,null,,,,
null,is shouting at,,html-keyboard-response,150,770522,0.0-15.0-2.5,83786,List2B,white,woman,,,,null,,,,
9005,,,survey-text,151,779528,0.0-15.0-3.5,83786,List2B,white,woman,,,,,"{""Q0"":""beth is shouting at fred""}","<img src=""stim_listB/shout3.gif""style=""height:400px;""></stim_listB>",is shouting at,
null,"<div style=""font-size:60px;"">+</div>",,html-keyboard-response,152,780042,0.0-15.0-0.6,83786,List2B,white,woman,,,,null,,,,
null,"<img src=""stim_listB/play3.gif""style=""height:400px;""></stim_listB>",,html-keyboard-response,153,782045,0.0-15.0-1.6,83786,List2B,white,woman,,,,null,,,,
null,is playing with,,html-keyboard-response,154,784046,0.0-15.0-2.6,83786,List2B,white,woman,,,,null,,,,
12199,,,survey-text,155,796246,0.0-15.0-3.6,83786,List2B,white,woman,,,,,"{""Q0"":""kate is playing with mike""}","<img src=""stim_listB/play3.gif""style=""height:400px;""></stim_listB>",is playing with,
null,"<div style=""font-size:60px;"">+</div>",,html-keyboard-response,156,796762,0.0-15.0-0.7,83786,List2B,white,woman,,,,null,,,,
null,"<img src=""stim_listB/talk3.gif""style=""height:400px;""></stim_listB>",,html-keyboard-response,157,798766,0.0-15.0-1.7,83786,List2B,white,woman,,,,null,,,,
null,is talking to,,html-keyboard-response,158,800767,0.0-15.0-2.7,83786,List2B,white,woman,,,,null,,,,
8930,,,survey-text,159,809698,0.0-15.0-3.7,83786,List2B,white,woman,,,,,"{""Q0"":""kate is talking to fred""}","<img src=""stim_listB/talk3.gif""style=""height:400px;""></stim_listB>",is talking to,
null,"<div style=""font-size:60px;"">+</div>",,html-keyboard-response,160,810213,0.0-15.0-0.8,83786,List2B,white,woman,,,,null,,,,
null,"<img src=""stim_listB/fight5.gif""style=""height:400px;""></stim_listB>",,html-keyboard-response,161,812216,0.0-15.0-1.8,83786,List2B,white,woman,,,,null,,,,
null,is fighting,,html-keyboard-response,162,814227,0.0-15.0-2.8,83786,List2B,white,woman,,,,null,,,,
38116,,,survey-text,163,852344,0.0-15.0-3.8,83786,List2B,white,woman,,,,,"{""Q0"":""mike is fighting dave""}","<img src=""stim_listB/fight5.gif""style=""height:400px;""></stim_listB>",is fighting,
null,"<div style=""font-size:60px;"">+</div>",,html-keyboard-response,164,852845,0.0-15.0-0.9,83786,List2B,white,woman,,,,null,,,,
null,"<img src=""stim_listB/marry5.gif""style=""height:400px;""></stim_listB>",,html-keyboard-response,165,854850,0.0-15.0-1.9,83786,List2B,white,woman,,,,null,,,,
null,is marrying,,html-keyboard-response,166,856852,0.0-15.0-2.9,83786,List2B,white,woman,,,,null,,,,
7807,,,survey-text,167,864660,0.0-15.0-3.9,83786,List2B,white,woman,,,,,"{""Q0"":""fred is marrying dave""}","<img src=""stim_listB/marry5.gif""style=""height:400px;""></stim_listB>",is marrying,
null,"<div style=""font-size:60px;"">+</div>",,html-keyboard-response,168,865169,0.0-15.0-0.10,83786,List2B,white,woman,,,,null,,,,
null,"<img src=""stim_listB/marry6.gif""style=""height:400px;""></stim_listB>",,html-keyboard-response,169,867171,0.0-15.0-1.10,83786,List2B,white,woman,,,,null,,,,
null,are marrying each other,,html-keyboard-response,170,869174,0.0-15.0-2.10,83786,List2B,white,woman,,,,null,,,,
8514,,,survey-text,171,877689,0.0-15.0-3.10,83786,List2B,white,woman,,,,,"{""Q0"":""luke and mike are marrying each other""}","<img src=""stim_listB/marry6.gif""style=""height:400px;""></stim_listB>",are marrying each other,
null,"<div style=""font-size:60px;"">+</div>",,html-keyboard-response,172,878200,0.0-15.0-0.11,83786,List2B,white,woman,,,,null,,,,
null,"<img src=""stim_listB/talk8.gif""style=""height:400px;""></stim_listB>",,html-keyboard-response,173,880204,0.0-15.0-1.11,83786,List2B,white,woman,,,,null,,,,
null,are talking to each other,,html-keyboard-response,174,882210,0.0-15.0-2.11,83786,List2B,white,woman,,,,null,,,,
15786,,,survey-text,175,897997,0.0-15.0-3.11,83786,List2B,white,woman,,,,,"{""Q0"":""jane and beth are talking to each other""}","<img src=""stim_listB/talk8.gif""style=""height:400px;""></stim_listB>",are talking to each other,
null,"<div style=""font-size:60px;"">+</div>",,html-keyboard-response,176,898507,0.0-15.0-0.12,83786,List2B,white,woman,,,,null,,,,
null,"<img src=""stim_listB/argue5.gif""style=""height:400px;""></stim_listB>",,html-keyboard-response,177,900510,0.0-15.0-1.12,83786,List2B,white,woman,,,,null,,,,
null,is arguing with,,html-keyboard-response,178,902511,0.0-15.0-2.12,83786,List2B,white,woman,,,,null,,,,
7175,,,survey-text,179,909687,0.0-15.0-3.12,83786,List2B,white,woman,,,,,"{""Q0"":""fred is arguing with dave""}","<img src=""stim_listB/argue5.gif""style=""height:400px;""></stim_listB>",is arguing with,
null,"<div style=""font-size:60px;"">+</div>",,html-keyboard-response,180,910196,0.0-15.0-0.13,83786,List2B,white,woman,,,,null,,,,
null,"<img src=""stim_listB/kiss7.gif""style=""height:400px;""></stim_listB>",,html-keyboard-response,181,912203,0.0-15.0-1.13,83786,List2B,white,woman,,,,null,,,,
null,is kissing,,html-keyboard-response,182,914205,0.0-15.0-2.13,83786,List2B,white,woman,,,,null,,,,
11853,,,survey-text,183,926059,0.0-15.0-3.13,83786,List2B,white,woman,,,,,"{""Q0"":""ruth is kissing beth""}","<img src=""stim_listB/kiss7.gif""style=""height:400px;""></stim_listB>",is kissing,
null,"<div style=""font-size:60px;"">+</div>",,html-keyboard-response,184,926566,0.0-15.0-0.14,83786,List2B,white,woman,,,,null,,,,
null,"<img src=""stim_listB/flirt7.gif""style=""height:400px;""></stim_listB>",,html-keyboard-response,185,928570,0.0-15.0-1.14,83786,List2B,white,woman,,,,null,,,,
null,is flirting with,,html-keyboard-response,186,930572,0.0-15.0-2.14,83786,List2B,white,woman,,,,null,,,,
52396,,,survey-text,187,982970,0.0-15.0-3.14,83786,List2B,white,woman,,,,,"{""Q0"":""kate is flirting with ruth""}","<img src=""stim_listB/flirt7.gif""style=""height:400px;""></stim_listB>",is flirting with,
null,"<div style=""font-size:60px;"">+</div>",,html-keyboard-response,188,983471,0.0-15.0-0.15,83786,List2B,white,woman,,,,null,,,,
null,"<img src=""stim_listB/kiss1.gif""style=""height:400px;""></stim_listB>",,html-keyboard-response,189,985474,0.0-15.0-1.15,83786,List2B,white,woman,,,,null,,,,
null,is kissing,,html-keyboard-response,190,987476,0.0-15.0-2.15,83786,List2B,white,woman,,,,null,,,,
7467,,,survey-text,191,994944,0.0-15.0-3.15,83786,List2B,white,woman,,,,,"{""Q0"":""ruth is kissing luke""}","<img src=""stim_listB/kiss1.gif""style=""height:400px;""></stim_listB>",is kissing,
null,"<div style=""font-size:60px;"">+</div>",,html-keyboard-response,192,995460,0.0-15.0-0.16,83786,List2B,white,woman,,,,null,,,,
null,"<img src=""stim_listB/marry2.gif""style=""height:400px;""></stim_listB>",,html-keyboard-response,193,997462,0.0-15.0-1.16,83786,List2B,white,woman,,,,null,,,,
null,are marrying each other,,html-keyboard-response,194,999464,0.0-15.0-2.16,83786,List2B,white,woman,,,,null,,,,
13077,,,survey-text,195,1012543,0.0-15.0-3.16,83786,List2B,white,woman,,,,,"{""Q0"":""luke and jane are marrying each other""}","<img src=""stim_listB/marry2.gif""style=""height:400px;""></stim_listB>",are marrying each other,
null,"<div style=""font-size:60px;"">+</div>",,html-keyboard-response,196,1013044,0.0-15.0-0.17,83786,List2B,white,woman,,,,null,,,,
null,"<img src=""stim_listB/touch6.gif""style=""height:400px;""></stim_listB>",,html-keyboard-response,197,1015048,0.0-15.0-1.17,83786,List2B,white,woman,,,,null,,,,
null,are touching each other,,html-keyboard-response,198,1017051,0.0-15.0-2.17,83786,List2B,white,woman,,,,null,,,,
10816,,,survey-text,199,1027869,0.0-15.0-3.17,83786,List2B,white,woman,,,,,"{""Q0"":""luke and fred are touching each other""}","<img src=""stim_listB/touch6.gif""style=""height:400px;""></stim_listB>",are touching each other,
null,"<div style=""font-size:60px;"">+</div>",,html-keyboard-response,200,1028370,0.0-15.0-0.18,83786,List2B,white,woman,,,,null,,,,
null,"<img src=""stim_listB/dance2.gif""style=""height:400px;""></stim_listB>",,html-keyboard-response,201,1030381,0.0-15.0-1.18,83786,List2B,white,woman,,,,null,,,,
null,are dancing with each other,,html-keyboard-response,202,1032393,0.0-15.0-2.18,83786,List2B,white,woman,,,,null,,,,
12184,,,survey-text,203,1044578,0.0-15.0-3.18,83786,List2B,white,woman,,,,,"{""Q0"":""dave and ruth are dancing with each other""}","<img src=""stim_listB/dance2.gif""style=""height:400px;""></stim_listB>",are dancing with each other,
null,"<div style=""font-size:60px;"">+</div>",,html-keyboard-response,204,1045081,0.0-15.0-0.19,83786,List2B,white,woman,,,,null,,,,
null,"<img src=""stim_listB/touch7.gif""style=""height:400px;""></stim_listB>",,html-keyboard-response,205,1047084,0.0-15.0-1.19,83786,List2B,white,woman,,,,null,,,,
null,is touching,,html-keyboard-response,206,1049086,0.0-15.0-2.19,83786,List2B,white,woman,,,,null,,,,
8181,,,survey-text,207,1057268,0.0-15.0-3.19,83786,List2B,white,woman,,,,,"{""Q0"":""jane is touching kate""}","<img src=""stim_listB/touch7.gif""style=""height:400px;""></stim_listB>",is touching,
13743,"<img src='img/portrait_matrix_list2.jpg' style='width:900px;height:500px;''></img><p>If you have memorised all the portraits and names and are ready to start, press Continue.</p><p><strong>Please note: Your memory of these faces will be tested 4 times during this experiment.</strong></p>",0,html-button-response,208,1071013,0.0-16.0-0.0,83786,List2B,white,woman,,,,,,,,
2261,"<img src=""portrait/WM1.jpg""style=""height:400px;""></img>",6,html-button-response,209,1074276,0.0-16.0-1.0,83786,List2B,white,woman,,TRUE,6,,,,,
null,CORRECT,,html-keyboard-response,210,1075794,0.0-16.0-2.0-0.0,83786,List2B,white,woman,,,,null,,,,
1351,"<img src=""portrait/BM1.jpg""style=""height:400px;""></img>",4,html-button-response,211,1077147,0.0-16.0-4.0,83786,List2B,white,woman,,TRUE,4,,,,,
null,CORRECT,,html-keyboard-response,212,1078650,0.0-16.0-5.0-0.0,83786,List2B,white,woman,,,,null,,,,
1239,"<img src=""portrait/WM2.jpg""style=""height:400px;""></img>",7,html-button-response,213,1079891,0.0-16.0-7.0,83786,List2B,white,woman,,TRUE,7,,,,,
null,CORRECT,,html-keyboard-response,214,1081408,0.0-16.0-8.0-0.0,83786,List2B,white,woman,,,,null,,,,
1357,"<img src=""portrait/WW2.jpg""style=""height:400px;""></img>",3,html-button-response,215,1082767,0.0-16.0-10.0,83786,List2B,white,woman,,TRUE,3,,,,,
null,CORRECT,,html-keyboard-response,216,1084278,0.0-16.0-11.0-0.0,83786,List2B,white,woman,,,,null,,,,
1257,"<img src=""portrait/BM2.jpg""style=""height:400px;""></img>",5,html-button-response,217,1085537,0.0-16.0-13.0,83786,List2B,white,woman,,TRUE,5,,,,,
null,CORRECT,,html-keyboard-response,218,1087056,0.0-16.0-14.0-0.0,83786,List2B,white,woman,,,,null,,,,
2729,"<img src=""portrait/BW1.jpg""style=""height:400px;""></img>",0,html-button-response,219,1089786,0.0-16.0-16.0,83786,List2B,white,woman,,TRUE,0,,,,,
null,CORRECT,,html-keyboard-response,220,1091293,0.0-16.0-17.0-0.0,83786,List2B,white,woman,,,,null,,,,
4162,"<img src=""portrait/BW2.jpg""style=""height:400px;""></img>",2,html-button-response,221,1095457,0.0-16.0-19.0,83786,List2B,white,woman,,TRUE,2,,,,,
null,CORRECT,,html-keyboard-response,222,1096960,0.0-16.0-20.0-0.0,83786,List2B,white,woman,,,,null,,,,
1948,"<img src=""portrait/WW1.jpg""style=""height:400px;""></img>",1,html-button-response,223,1098910,0.0-16.0-22.0,83786,List2B,white,woman,,TRUE,1,,,,,
null,CORRECT,,html-keyboard-response,224,1100414,0.0-16.0-23.0-0.0,83786,List2B,white,woman,,,,null,,,,
2243,<p>You got 8 out of 8 right first time. Press Continue.</p>,0,html-button-response,225,1102659,0.0-16.0-25.0,83786,List2B,white,woman,,,,,,,,
null,"<div style=""font-size:60px;"">+</div>",,html-keyboard-response,226,1104182,0.0-17.0-0.0,83786,List2B,white,woman,,,,null,,,,
null,"<img src=""stim_listB/touch8.gif""style=""height:400px;""></stim_listB>",,html-keyboard-response,227,1106186,0.0-17.0-1.0,83786,List2B,white,woman,,,,null,,,,
null,are touching each other,,html-keyboard-response,228,1108187,0.0-17.0-2.0,83786,List2B,white,woman,,,,null,,,,
8088,,,survey-text,229,1116276,0.0-17.0-3.0,83786,List2B,white,woman,,,,,"{""Q0"":""ruth and beth are touching each other""}","<img src=""stim_listB/touch8.gif""style=""height:400px;""></stim_listB>",are touching each other,
null,"<div style=""font-size:60px;"">+</div>",,html-keyboard-response,230,1116779,0.0-17.0-0.1,83786,List2B,white,woman,,,,null,,,,
null,"<img src=""stim_listB/fight1.gif""style=""height:400px;""></stim_listB>",,html-keyboard-response,231,1118783,0.0-17.0-1.1,83786,List2B,white,woman,,,,null,,,,
null,is fighting,,html-keyboard-response,232,1120786,0.0-17.0-2.1,83786,List2B,white,woman,,,,null,,,,
9002,,,survey-text,233,1129789,0.0-17.0-3.1,83786,List2B,white,woman,,,,,"{""Q0"":""jane is fighting dave""}","<img src=""stim_listB/fight1.gif""style=""height:400px;""></stim_listB>",is fighting,
null,"<div style=""font-size:60px;"">+</div>",,html-keyboard-response,234,1130297,0.0-17.0-0.2,83786,List2B,white,woman,,,,null,,,,
null,"<img src=""stim_listB/play7.gif""style=""height:400px;""></stim_listB>",,html-keyboard-response,235,1132299,0.0-17.0-1.2,83786,List2B,white,woman,,,,null,,,,
null,is playing with,,html-keyboard-response,236,1134301,0.0-17.0-2.2,83786,List2B,white,woman,,,,null,,,,
9806,,,survey-text,237,1144108,0.0-17.0-3.2,83786,List2B,white,woman,,,,,"{""Q0"":""kate is playing with jane""}","<img src=""stim_listB/play7.gif""style=""height:400px;""></stim_listB>",is playing with,
null,"<div style=""font-size:60px;"">+</div>",,html-keyboard-response,238,1144622,0.0-17.0-0.3,83786,List2B,white,woman,,,,null,,,,
null,"<img src=""stim_listB/talk7.gif""style=""height:400px;""></stim_listB>",,html-keyboard-response,239,1146626,0.0-17.0-1.3,83786,List2B,white,woman,,,,null,,,,
null,is talking to,,html-keyboard-response,240,1148636,0.0-17.0-2.3,83786,List2B,white,woman,,,,null,,,,
10581,,,survey-text,241,1159218,0.0-17.0-3.3,83786,List2B,white,woman,,,,,"{""Q0"":""kate is talking to ruth""}","<img src=""stim_listB/talk7.gif""style=""height:400px;""></stim_listB>",is talking to,
null,"<div style=""font-size:60px;"">+</div>",,html-keyboard-response,242,1159733,0.0-17.0-0.4,83786,List2B,white,woman,,,,null,,,,
null,"<img src=""stim_listB/dance1.gif""style=""height:400px;""></stim_listB>",,html-keyboard-response,243,1161735,0.0-17.0-1.4,83786,List2B,white,woman,,,,null,,,,
null,is dancing with,,html-keyboard-response,244,1163736,0.0-17.0-2.4,83786,List2B,white,woman,,,,null,,,,
9951,,,survey-text,245,1173688,0.0-17.0-3.4,83786,List2B,white,woman,,,,,"{""Q0"":""jane is dancing with luke""}","<img src=""stim_listB/dance1.gif""style=""height:400px;""></stim_listB>",is dancing with,
null,"<div style=""font-size:60px;"">+</div>",,html-keyboard-response,246,1174193,0.0-17.0-0.5,83786,List2B,white,woman,,,,null,,,,
null,"<img src=""stim_listB/kiss2.gif""style=""height:400px;""></stim_listB>",,html-keyboard-response,247,1176197,0.0-17.0-1.5,83786,List2B,white,woman,,,,null,,,,
null,are kissing each other,,html-keyboard-response,248,1178208,0.0-17.0-2.5,83786,List2B,white,woman,,,,null,,,,
24113,,,survey-text,249,1202323,0.0-17.0-3.5,83786,List2B,white,woman,,,,,"{""Q0"":""dave and jane are kissing each other""}","<img src=""stim_listB/kiss2.gif""style=""height:400px;""></stim_listB>",are kissing each other,
null,"<div style=""font-size:60px;"">+</div>",,html-keyboard-response,250,1202824,0.0-17.0-0.6,83786,List2B,white,woman,,,,null,,,,
null,"<img src=""stim_listB/flirt8.gif""style=""height:400px;""></stim_listB>",,html-keyboard-response,251,1204827,0.0-17.0-1.6,83786,List2B,white,woman,,,,null,,,,
null,are flirting with each other,,html-keyboard-response,252,1206833,0.0-17.0-2.6,83786,List2B,white,woman,,,,null,,,,
50330,,,survey-text,253,1257164,0.0-17.0-3.6,83786,List2B,white,woman,,,,,"{""Q0"":""beth and jane are flirting with each other""}","<img src=""stim_listB/flirt8.gif""style=""height:400px;""></stim_listB>",are flirting with each other,
null,"<div style=""font-size:60px;"">+</div>",,html-keyboard-response,254,1257666,0.0-17.0-0.7,83786,List2B,white,woman,,,,null,,,,
null,"<img src=""stim_listB/shout4.gif""style=""height:400px;""></stim_listB>",,html-keyboard-response,255,1259669,0.0-17.0-1.7,83786,List2B,white,woman,,,,null,,,,
null,are shouting at each other,,html-keyboard-response,256,1261671,0.0-17.0-2.7,83786,List2B,white,woman,,,,null,,,,
25788,,,survey-text,257,1287460,0.0-17.0-3.7,83786,List2B,white,woman,,,,,"{""Q0"":""mike and kate are shouting at each other""}","<img src=""stim_listB/shout4.gif""style=""height:400px;""></stim_listB>",are shouting at each other,
null,"<div style=""font-size:60px;"">+</div>",,html-keyboard-response,258,1287974,0.0-17.0-0.8,83786,List2B,white,woman,,,,null,,,,
null,"<img src=""stim_listB/argue7.gif""style=""height:400px;""></stim_listB>",,html-keyboard-response,259,1289977,0.0-17.0-1.8,83786,List2B,white,woman,,,,null,,,,
null,is arguing with,,html-keyboard-response,260,1291979,0.0-17.0-2.8,83786,List2B,white,woman,,,,null,,,,
9276,,,survey-text,261,1301256,0.0-17.0-3.8,83786,List2B,white,woman,,,,,"{""Q0"":""beth is arguing with jane""}","<img src=""stim_listB/argue7.gif""style=""height:400px;""></stim_listB>",is arguing with,
null,"<div style=""font-size:60px;"">+</div>",,html-keyboard-response,262,1301758,0.0-17.0-0.9,83786,List2B,white,woman,,,,null,,,,
null,"<img src=""stim_listB/dance3.gif""style=""height:400px;""></stim_listB>",,html-keyboard-response,263,1303763,0.0-17.0-1.9,83786,List2B,white,woman,,,,null,,,,
null,is dancing with,,html-keyboard-response,264,1305775,0.0-17.0-2.9,83786,List2B,white,woman,,,,null,,,,
24318,,,survey-text,265,1330095,0.0-17.0-3.9,83786,List2B,white,woman,,,,,"{""Q0"":""kate is dancing with fred""}","<img src=""stim_listB/dance3.gif""style=""height:400px;""></stim_listB>",is dancing with,
null,"<div style=""font-size:60px;"">+</div>",,html-keyboard-response,266,1330601,0.0-17.0-0.10,83786,List2B,white,woman,,,,null,,,,
null,"<img src=""stim_listB/marry7.gif""style=""height:400px;""></stim_listB>",,html-keyboard-response,267,1332604,0.0-17.0-1.10,83786,List2B,white,woman,,,,null,,,,
null,is marrying,,html-keyboard-response,268,1334605,0.0-17.0-2.10,83786,List2B,white,woman,,,,null,,,,
7816,,,survey-text,269,1342423,0.0-17.0-3.10,83786,List2B,white,woman,,,,,"{""Q0"":""beth is marrying jane""}","<img src=""stim_listB/marry7.gif""style=""height:400px;""></stim_listB>",is marrying,
null,"<div style=""font-size:60px;"">+</div>",,html-keyboard-response,270,1342926,0.0-17.0-0.11,83786,List2B,white,woman,,,,null,,,,
null,"<img src=""stim_listB/play6.gif""style=""height:400px;""></stim_listB>",,html-keyboard-response,271,1344929,0.0-17.0-1.11,83786,List2B,white,woman,,,,null,,,,
null,are playing with each other,,html-keyboard-response,272,1346932,0.0-17.0-2.11,83786,List2B,white,woman,,,,null,,,,
32529,,,survey-text,273,1379463,0.0-17.0-3.11,83786,List2B,white,woman,,,,,"{""Q0"":""luke and fred are playing with each other""}","<img src=""stim_listB/play6.gif""style=""height:400px;""></stim_listB>",are playing with each other,
null,"<div style=""font-size:60px;"">+</div>",,html-keyboard-response,274,1379978,0.0-17.0-0.12,83786,List2B,white,woman,,,,null,,,,
null,"<img src=""stim_listB/flirt2.gif""style=""height:400px;""></stim_listB>",,html-keyboard-response,275,1381981,0.0-17.0-1.12,83786,List2B,white,woman,,,,null,,,,
null,are flirting with each other,,html-keyboard-response,276,1383989,0.0-17.0-2.12,83786,List2B,white,woman,,,,null,,,,
18680,,,survey-text,277,1402671,0.0-17.0-3.12,83786,List2B,white,woman,,,,,"{""Q0"":""dave and ruth are flirting with each other""}","<img src=""stim_listB/flirt2.gif""style=""height:400px;""></stim_listB>",are flirting with each other,
null,"<div style=""font-size:60px;"">+</div>",,html-keyboard-response,278,1403175,0.0-17.0-0.13,83786,List2B,white,woman,,,,null,,,,
null,"<img src=""stim_listB/shout8.gif""style=""height:400px;""></stim_listB>",,html-keyboard-response,279,1405178,0.0-17.0-1.13,83786,List2B,white,woman,,,,null,,,,
null,are shouting at each other,,html-keyboard-response,280,1407180,0.0-17.0-2.13,83786,List2B,white,woman,,,,null,,,,
10721,,,survey-text,281,1417903,0.0-17.0-3.13,83786,List2B,white,woman,,,,,"{""Q0"":""jane and kate are shouting at each other""}","<img src=""stim_listB/shout8.gif""style=""height:400px;""></stim_listB>",are shouting at each other,
null,"<div style=""font-size:60px;"">+</div>",,html-keyboard-response,282,1418417,0.0-17.0-0.14,83786,List2B,white,woman,,,,null,,,,
null,"<img src=""stim_listB/kiss3.gif""style=""height:400px;""></stim_listB>",,html-keyboard-response,283,1420419,0.0-17.0-1.14,83786,List2B,white,woman,,,,null,,,,
null,is kissing,,html-keyboard-response,284,1422422,0.0-17.0-2.14,83786,List2B,white,woman,,,,null,,,,
6625,,,survey-text,285,1429048,0.0-17.0-3.14,83786,List2B,white,woman,,,,,"{""Q0"":""beth is kissing fred""}","<img src=""stim_listB/kiss3.gif""style=""height:400px;""></stim_listB>",is kissing,
null,"<div style=""font-size:60px;"">+</div>",,html-keyboard-response,286,1429563,0.0-17.0-0.15,83786,List2B,white,woman,,,,null,,,,
null,"<img src=""stim_listB/touch3.gif""style=""height:400px;""></stim_listB>",,html-keyboard-response,287,1431565,0.0-17.0-1.15,83786,List2B,white,woman,,,,null,,,,
null,is touching,,html-keyboard-response,288,1433578,0.0-17.0-2.15,83786,List2B,white,woman,,,,null,,,,
136749,,,survey-text,289,1570328,0.0-17.0-3.15,83786,List2B,white,woman,,,,,"{""Q0"":""kate is touching mike""}","<img src=""stim_listB/touch3.gif""style=""height:400px;""></stim_listB>",is touching,
null,"<div style=""font-size:60px;"">+</div>",,html-keyboard-response,290,1570833,0.0-17.0-0.16,83786,List2B,white,woman,,,,null,,,,
null,"<img src=""stim_listB/play8.gif""style=""height:400px;""></stim_listB>",,html-keyboard-response,291,1572837,0.0-17.0-1.16,83786,List2B,white,woman,,,,null,,,,
null,are playing with each other,,html-keyboard-response,292,1574839,0.0-17.0-2.16,83786,List2B,white,woman,,,,null,,,,
10114,,,survey-text,293,1584955,0.0-17.0-3.16,83786,List2B,white,woman,,,,,"{""Q0"":""ruth and beth are playing with each other""}","<img src=""stim_listB/play8.gif""style=""height:400px;""></stim_listB>",are playing with each other,
null,"<div style=""font-size:60px;"">+</div>",,html-keyboard-response,294,1585458,0.0-17.0-0.17,83786,List2B,white,woman,,,,null,,,,
null,"<img src=""stim_listB/shout5.gif""style=""height:400px;""></stim_listB>",,html-keyboard-response,295,1587461,0.0-17.0-1.17,83786,List2B,white,woman,,,,null,,,,
null,is shouting at,,html-keyboard-response,296,1589473,0.0-17.0-2.17,83786,List2B,white,woman,,,,null,,,,
12578,,,survey-text,297,1602053,0.0-17.0-3.17,83786,List2B,white,woman,,,,,"{""Q0"":""fred is shouting at luke""}","<img src=""stim_listB/shout5.gif""style=""height:400px;""></stim_listB>",is shouting at,
null,"<div style=""font-size:60px;"">+</div>",,html-keyboard-response,298,1602555,0.0-17.0-0.18,83786,List2B,white,woman,,,,null,,,,
null,"<img src=""stim_listB/argue4.gif""style=""height:400px;""></stim_listB>",,html-keyboard-response,299,1604571,0.0-17.0-1.18,83786,List2B,white,woman,,,,null,,,,
null,are arguing with each other,,html-keyboard-response,300,1606581,0.0-17.0-2.18,83786,List2B,white,woman,,,,null,,,,
8420,,,survey-text,301,1615003,0.0-17.0-3.18,83786,List2B,white,woman,,,,,"{""Q0"":""fred is arguing with kate""}","<img src=""stim_listB/argue4.gif""style=""height:400px;""></stim_listB>",are arguing with each other,
null,"<div style=""font-size:60px;"">+</div>",,html-keyboard-response,302,1615515,0.0-17.0-0.19,83786,List2B,white,woman,,,,null,,,,
null,"<img src=""stim_listB/fight3.gif""style=""height:400px;""></stim_listB>",,html-keyboard-response,303,1617518,0.0-17.0-1.19,83786,List2B,white,woman,,,,null,,,,
null,is fighting,,html-keyboard-response,304,1619520,0.0-17.0-2.19,83786,List2B,white,woman,,,,null,,,,
16203,,,survey-text,305,1635725,0.0-17.0-3.19,83786,List2B,white,woman,,,,,"{""Q0"":""kate is fighting mike""}","<img src=""stim_listB/fight3.gif""style=""height:400px;""></stim_listB>",is fighting,
16805,"<img src='img/portrait_matrix_list2.jpg' style='width:900px;height:500px;''></img><p>If you have memorised all the portraits and names and are ready to start, press Continue.</p><p><strong>Please note: Your memory of these faces will be tested 4 times during this experiment.</strong></p>",0,html-button-response,306,1652531,0.0-18.0-0.0,83786,List2B,white,woman,,,,,,,,
2050,"<img src=""portrait/WW1.jpg""style=""height:400px;""></img>",1,html-button-response,307,1655597,0.0-18.0-1.0,83786,List2B,white,woman,,TRUE,1,,,,,
null,CORRECT,,html-keyboard-response,308,1657117,0.0-18.0-2.0-0.0,83786,List2B,white,woman,,,,null,,,,
2529,"<img src=""portrait/WM1.jpg""style=""height:400px;""></img>",6,html-button-response,309,1659648,0.0-18.0-4.0,83786,List2B,white,woman,,TRUE,6,,,,,
null,CORRECT,,html-keyboard-response,310,1661163,0.0-18.0-5.0-0.0,83786,List2B,white,woman,,,,null,,,,
34703,"<img src=""portrait/BM1.jpg""style=""height:400px;""></img>",4,html-button-response,311,1695868,0.0-18.0-7.0,83786,List2B,white,woman,,TRUE,4,,,,,
null,CORRECT,,html-keyboard-response,312,1697373,0.0-18.0-8.0-0.0,83786,List2B,white,woman,,,,null,,,,
2072,"<img src=""portrait/WW2.jpg""style=""height:400px;""></img>",3,html-button-response,313,1699448,0.0-18.0-10.0,83786,List2B,white,woman,,TRUE,3,,,,,
null,CORRECT,,html-keyboard-response,314,1700961,0.0-18.0-11.0-0.0,83786,List2B,white,woman,,,,null,,,,
4103,"<img src=""portrait/BW2.jpg""style=""height:400px;""></img>",2,html-button-response,315,1705066,0.0-18.0-13.0,83786,List2B,white,woman,,TRUE,2,,,,,
null,CORRECT,,html-keyboard-response,316,1706586,0.0-18.0-14.0-0.0,83786,List2B,white,woman,,,,null,,,,
73727,"<img src=""portrait/BW1.jpg""style=""height:400px;""></img>",0,html-button-response,317,1780315,0.0-18.0-16.0,83786,List2B,white,woman,,TRUE,0,,,,,
null,CORRECT,,html-keyboard-response,318,1781823,0.0-18.0-17.0-0.0,83786,List2B,white,woman,,,,null,,,,
14558,"<img src=""portrait/WM2.jpg""style=""height:400px;""></img>",7,html-button-response,319,1796383,0.0-18.0-19.0,83786,List2B,white,woman,,TRUE,7,,,,,
null,CORRECT,,html-keyboard-response,320,1797902,0.0-18.0-20.0-0.0,83786,List2B,white,woman,,,,null,,,,
1291,"<img src=""portrait/BM2.jpg""style=""height:400px;""></img>",5,html-button-response,321,1799195,0.0-18.0-22.0,83786,List2B,white,woman,,TRUE,5,,,,,
null,CORRECT,,html-keyboard-response,322,1800706,0.0-18.0-23.0-0.0,83786,List2B,white,woman,,,,null,,,,
10005,<p>You got 8 out of 8 right first time. Press Continue.</p>,0,html-button-response,323,1810713,0.0-18.0-25.0,83786,List2B,white,woman,,,,,,,,
null,"<div style=""font-size:60px;"">+</div>",,html-keyboard-response,324,1812221,0.0-19.0-0.0,83786,List2B,white,woman,,,,null,,,,
null,"<img src=""stim_listB/marry1.gif""style=""height:400px;""></stim_listB>",,html-keyboard-response,325,1814224,0.0-19.0-1.0,83786,List2B,white,woman,,,,null,,,,
null,is marrying,,html-keyboard-response,326,1816226,0.0-19.0-2.0,83786,List2B,white,woman,,,,null,,,,
8390,,,survey-text,327,1824619,0.0-19.0-3.0,83786,List2B,white,woman,,,,,"{""Q0"":""ruth is marrying dave""}","<img src=""stim_listB/marry1.gif""style=""height:400px;""></stim_listB>",is marrying,
null,"<div style=""font-size:60px;"">+</div>",,html-keyboard-response,328,1825120,0.0-19.0-0.1,83786,List2B,white,woman,,,,null,,,,
null,"<img src=""stim_listB/shout7.gif""style=""height:400px;""></stim_listB>",,html-keyboard-response,329,1827136,0.0-19.0-1.1,83786,List2B,white,woman,,,,null,,,,
null,is shouting at,,html-keyboard-response,330,1829139,0.0-19.0-2.1,83786,List2B,white,woman,,,,null,,,,
10429,,,survey-text,331,1839569,0.0-19.0-3.1,83786,List2B,white,woman,,,,,"{""Q0"":""beth is shouting at ruth""}","<img src=""stim_listB/shout7.gif""style=""height:400px;""></stim_listB>",is shouting at,
null,"<div style=""font-size:60px;"">+</div>",,html-keyboard-response,332,1840084,0.0-19.0-0.2,83786,List2B,white,woman,,,,null,,,,
null,"<img src=""stim_listB/talk1.gif""style=""height:400px;""></stim_listB>",,html-keyboard-response,333,1842094,0.0-19.0-1.2,83786,List2B,white,woman,,,,null,,,,
null,is talking to,,html-keyboard-response,334,1844095,0.0-19.0-2.2,83786,List2B,white,woman,,,,null,,,,
10957,,,survey-text,335,1855053,0.0-19.0-3.2,83786,List2B,white,woman,,,,,"{""Q0"":""jane is talking to luke""}","<img src=""stim_listB/talk1.gif""style=""height:400px;""></stim_listB>",is talking to,
null,"<div style=""font-size:60px;"">+</div>",,html-keyboard-response,336,1855567,0.0-19.0-0.3,83786,List2B,white,woman,,,,null,,,,
null,"<img src=""stim_listB/flirt1.gif""style=""height:400px;""></stim_listB>",,html-keyboard-response,337,1857570,0.0-19.0-1.3,83786,List2B,white,woman,,,,null,,,,
null,is flirting with,,html-keyboard-response,338,1859572,0.0-19.0-2.3,83786,List2B,white,woman,,,,null,,,,
9300,,,survey-text,339,1868873,0.0-19.0-3.3,83786,List2B,white,woman,,,,,"{""Q0"":""jane is flirting with luke""}","<img src=""stim_listB/flirt1.gif""style=""height:400px;""></stim_listB>",is flirting with,
null,"<div style=""font-size:60px;"">+</div>",,html-keyboard-response,340,1869377,0.0-19.0-0.4,83786,List2B,white,woman,,,,null,,,,
null,"<img src=""stim_listB/fight7.gif""style=""height:400px;""></stim_listB>",,html-keyboard-response,341,1871379,0.0-19.0-1.4,83786,List2B,white,woman,,,,null,,,,
null,is fighting,,html-keyboard-response,342,1873382,0.0-19.0-2.4,83786,List2B,white,woman,,,,null,,,,
14992,,,survey-text,343,1888375,0.0-19.0-3.4,83786,List2B,white,woman,,,,,"{""Q0"":""kate is fighting jane""}","<img src=""stim_listB/fight7.gif""style=""height:400px;""></stim_listB>",is fighting,
null,"<div style=""font-size:60px;"">+</div>",,html-keyboard-response,344,1888877,0.0-19.0-0.5,83786,List2B,white,woman,,,,null,,,,
null,"<img src=""stim_listB/play5.gif""style=""height:400px;""></stim_listB>",,html-keyboard-response,345,1890881,0.0-19.0-1.5,83786,List2B,white,woman,,,,null,,,,
null,is playing with,,html-keyboard-response,346,1892883,0.0-19.0-2.5,83786,List2B,white,woman,,,,null,,,,
6259,,,survey-text,347,1899143,0.0-19.0-3.5,83786,List2B,white,woman,,,,,"{""Q0"":""mike is playing with dave""}","<img src=""stim_listB/play5.gif""style=""height:400px;""></stim_listB>",is playing with,
null,"<div style=""font-size:60px;"">+</div>",,html-keyboard-response,348,1899654,0.0-19.0-0.6,83786,List2B,white,woman,,,,null,,,,
null,"<img src=""stim_listB/talk2.gif""style=""height:400px;""></stim_listB>",,html-keyboard-response,349,1901658,0.0-19.0-1.6,83786,List2B,white,woman,,,,null,,,,
null,are talking to each other,,html-keyboard-response,350,1903661,0.0-19.0-2.6,83786,List2B,white,woman,,,,null,,,,
13564,,,survey-text,351,1917226,0.0-19.0-3.6,83786,List2B,white,woman,,,,,"{""Q0"":""dave and ruth are talking to each other""}","<img src=""stim_listB/talk2.gif""style=""height:400px;""></stim_listB>",are talking to each other,
null,"<div style=""font-size:60px;"">+</div>",,html-keyboard-response,352,1917739,0.0-19.0-0.7,83786,List2B,white,woman,,,,null,,,,
null,"<img src=""stim_listB/touch4.gif""style=""height:400px;""></stim_listB>",,html-keyboard-response,353,1919743,0.0-19.0-1.7,83786,List2B,white,woman,,,,null,,,,
null,are touching each other,,html-keyboard-response,354,1921744,0.0-19.0-2.7,83786,List2B,white,woman,,,,null,,,,
20115,,,survey-text,355,1941860,0.0-19.0-3.7,83786,List2B,white,woman,,,,,"{""Q0"":""fred and beth are touching each other""}","<img src=""stim_listB/touch4.gif""style=""height:400px;""></stim_listB>",are touching each other,
null,"<div style=""font-size:60px;"">+</div>",,html-keyboard-response,356,1942372,0.0-19.0-0.8,83786,List2B,white,woman,,,,null,,,,
null,"<img src=""stim_listB/argue6.gif""style=""height:400px;""></stim_listB>",,html-keyboard-response,357,1944375,0.0-19.0-1.8,83786,List2B,white,woman,,,,null,,,,
null,are arguing with each other,,html-keyboard-response,358,1946377,0.0-19.0-2.8,83786,List2B,white,woman,,,,null,,,,
25383,,,survey-text,359,1971761,0.0-19.0-3.8,83786,List2B,white,woman,,,,,"{""Q0"":""luke and mike are arguing with each other""}","<img src=""stim_listB/argue6.gif""style=""height:400px;""></stim_listB>",are arguing with each other,
null,"<div style=""font-size:60px;"">+</div>",,html-keyboard-response,360,1972277,0.0-19.0-0.9,83786,List2B,white,woman,,,,null,,,,
null,"<img src=""stim_listB/dance7.gif""style=""height:400px;""></stim_listB>",,html-keyboard-response,361,1974280,0.0-19.0-1.9,83786,List2B,white,woman,,,,null,,,,
null,is dancing with,,html-keyboard-response,362,1976281,0.0-19.0-2.9,83786,List2B,white,woman,,,,null,,,,
18759,,,survey-text,363,1995041,0.0-19.0-3.9,83786,List2B,white,woman,,,,,"{""Q0"":""kate is dancing with ruth""}","<img src=""stim_listB/dance7.gif""style=""height:400px;""></stim_listB>",is dancing with,
null,"<div style=""font-size:60px;"">+</div>",,html-keyboard-response,364,1995546,0.0-19.0-0.10,83786,List2B,white,woman,,,,null,,,,
null,"<img src=""stim_listB/argue1.gif""style=""height:400px;""></stim_listB>",,html-keyboard-response,365,1997551,0.0-19.0-1.10,83786,List2B,white,woman,,,,null,,,,
null,is arguing with,,html-keyboard-response,366,1999559,0.0-19.0-2.10,83786,List2B,white,woman,,,,null,,,,
9419,,,survey-text,367,2008980,0.0-19.0-3.10,83786,List2B,white,woman,,,,,"{""Q0"":""ruth is arguing with dave""}","<img src=""stim_listB/argue1.gif""style=""height:400px;""></stim_listB>",is arguing with,
null,"<div style=""font-size:60px;"">+</div>",,html-keyboard-response,368,2009492,0.0-19.0-0.11,83786,List2B,white,woman,,,,null,,,,
null,"<img src=""stim_listB/argue8.gif""style=""height:400px;""></stim_listB>",,html-keyboard-response,369,2011495,0.0-19.0-1.11,83786,List2B,white,woman,,,,null,,,,
null,are arguing with each other,,html-keyboard-response,370,2013497,0.0-19.0-2.11,83786,List2B,white,woman,,,,null,,,,
13127,,,survey-text,371,2026625,0.0-19.0-3.11,83786,List2B,white,woman,,,,,"{""Q0"":""ruth and kate are arguing with each other""}","<img src=""stim_listB/argue8.gif""style=""height:400px;""></stim_listB>",are arguing with each other,
null,"<div style=""font-size:60px;"">+</div>",,html-keyboard-response,372,2027138,0.0-19.0-0.12,83786,List2B,white,woman,,,,null,,,,
null,"<img src=""stim_listB/talk4.gif""style=""height:400px;""></stim_listB>",,html-keyboard-response,373,2029142,0.0-19.0-1.12,83786,List2B,white,woman,,,,null,,,,
null,are talking to each other,,html-keyboard-response,374,2031144,0.0-19.0-2.12,83786,List2B,white,woman,,,,null,,,,
14291,,,survey-text,375,2045435,0.0-19.0-3.12,83786,List2B,white,woman,,,,,"{""Q0"":""mike and beth are talking to each other""}","<img src=""stim_listB/talk4.gif""style=""height:400px;""></stim_listB>",are talking to each other,
null,"<div style=""font-size:60px;"">+</div>",,html-keyboard-response,376,2045948,0.0-19.0-0.13,83786,List2B,white,woman,,,,null,,,,
null,"<img src=""stim_listB/shout1.gif""style=""height:400px;""></stim_listB>",,html-keyboard-response,377,2047952,0.0-19.0-1.13,83786,List2B,white,woman,,,,null,,,,
null,is shouting at,,html-keyboard-response,378,2049954,0.0-19.0-2.13,83786,List2B,white,woman,,,,null,,,,
21595,,,survey-text,379,2071550,0.0-19.0-3.13,83786,List2B,white,woman,,,,,"{""Q0"":""ruth is shouting at luke""}","<img src=""stim_listB/shout1.gif""style=""height:400px;""></stim_listB>",is shouting at,
null,"<div style=""font-size:60px;"">+</div>",,html-keyboard-response,380,2072058,0.0-19.0-0.14,83786,List2B,white,woman,,,,null,,,,
null,"<img src=""stim_listB/kiss6.gif""style=""height:400px;""></stim_listB>",,html-keyboard-response,381,2074062,0.0-19.0-1.14,83786,List2B,white,woman,,,,null,,,,
null,are kissing each other,,html-keyboard-response,382,2076065,0.0-19.0-2.14,83786,List2B,white,woman,,,,null,,,,
20790,,,survey-text,383,2096856,0.0-19.0-3.14,83786,List2B,white,woman,,,,,"{""Q0"":""dave and mike are kissing each other""}","<img src=""stim_listB/kiss6.gif""style=""height:400px;""></stim_listB>",are kissing each other,
null,"<div style=""font-size:60px;"">+</div>",,html-keyboard-response,384,2097360,0.0-19.0-0.15,83786,List2B,white,woman,,,,null,,,,
null,"<img src=""stim_listB/kiss8.gif""style=""height:400px;""></stim_listB>",,html-keyboard-response,385,2099364,0.0-19.0-1.15,83786,List2B,white,woman,,,,null,,,,
null,are kissing each other,,html-keyboard-response,386,2101367,0.0-19.0-2.15,83786,List2B,white,woman,,,,null,,,,
15847,,,survey-text,387,2117216,0.0-19.0-3.15,83786,List2B,white,woman,,,,,"{""Q0"":""jane and kate are kissing each other""}","<img src=""stim_listB/kiss8.gif""style=""height:400px;""></stim_listB>",are kissing each other,
null,"<div style=""font-size:60px;"">+</div>",,html-keyboard-response,388,2117726,0.0-19.0-0.16,83786,List2B,white,woman,,,,null,,,,
null,"<img src=""stim_listB/marry8.gif""style=""height:400px;""></stim_listB>",,html-keyboard-response,389,2119731,0.0-19.0-1.16,83786,List2B,white,woman,,,,null,,,,
null,are marrying each other,,html-keyboard-response,390,2121732,0.0-19.0-2.16,83786,List2B,white,woman,,,,null,,,,
13346,,,survey-text,391,2135079,0.0-19.0-3.16,83786,List2B,white,woman,,,,,"{""Q0"":""ruth and kate are marrying each other""}","<img src=""stim_listB/marry8.gif""style=""height:400px;""></stim_listB>",are marrying each other,
null,"<div style=""font-size:60px;"">+</div>",,html-keyboard-response,392,2135581,0.0-19.0-0.17,83786,List2B,white,woman,,,,null,,,,
null,"<img src=""stim_listB/play4.gif""style=""height:400px;""></stim_listB>",,html-keyboard-response,393,2137598,0.0-19.0-1.17,83786,List2B,white,woman,,,,null,,,,
null,are playing with each other,,html-keyboard-response,394,2139600,0.0-19.0-2.17,83786,List2B,white,woman,,,,null,,,,
11170,,,survey-text,395,2150771,0.0-19.0-3.17,83786,List2B,white,woman,,,,,"{""Q0"":""fred and beth are playing with each other""}","<img src=""stim_listB/play4.gif""style=""height:400px;""></stim_listB>",are playing with each other,
null,"<div style=""font-size:60px;"">+</div>",,html-keyboard-response,396,2151284,0.0-19.0-0.18,83786,List2B,white,woman,,,,null,,,,
null,"<img src=""stim_listB/dance5.gif""style=""height:400px;""></stim_listB>",,html-keyboard-response,397,2153292,0.0-19.0-1.18,83786,List2B,white,woman,,,,null,,,,
null,is dancing with,,html-keyboard-response,398,2155295,0.0-19.0-2.18,83786,List2B,white,woman,,,,null,,,,
58932,,,survey-text,399,2214227,0.0-19.0-3.18,83786,List2B,white,woman,,,,,"{""Q0"":""mike is dancing with luke""}","<img src=""stim_listB/dance5.gif""style=""height:400px;""></stim_listB>",is dancing with,
null,"<div style=""font-size:60px;"">+</div>",,html-keyboard-response,400,2214741,0.0-19.0-0.19,83786,List2B,white,woman,,,,null,,,,
null,"<img src=""stim_listB/shout6.gif""style=""height:400px;""></stim_listB>",,html-keyboard-response,401,2216743,0.0-19.0-1.19,83786,List2B,white,woman,,,,null,,,,
null,are shouting at each other,,html-keyboard-response,402,2218746,0.0-19.0-2.19,83786,List2B,white,woman,,,,null,,,,
12274,,,survey-text,403,2231022,0.0-19.0-3.19,83786,List2B,white,woman,,,,,"{""Q0"":""dave and mike are shouting at each other""}","<img src=""stim_listB/shout6.gif""style=""height:400px;""></stim_listB>",are shouting at each other,
2331,<p>Thank you for completing that task.</p><p>The final part of this session is a short questionnaire.</p><p>Press Continue.</p>,0,html-button-response,404,2233354,0.0-20.0,83786,List2B,white,woman,,,,,,,,
49009,,,survey-text,405,2283371,0.0-21.0,83786,List2B,white,woman,,,,,"{""Q0"":""30"",""Q1"":""English"",""Q2"":""English"",""Q3"":""United Kingdom"",""Q4"":""white"",""Q5"":""female""}",,,demographics
11304,,,survey-likert,406,2294676,0.0-22.0,83786,List2B,white,woman,,,,,"{""Q0"":4}",,,likert_ESS
15617,,,survey-likert,407,2310295,0.0-23.0,83786,List2B,white,woman,,,,,"{""Q0"":4}",,,likert_NSSAL_Q1
6782,,,survey-likert,408,2317079,0.0-24.0,83786,List2B,white,woman,,,,,"{""Q0"":4}",,,likert_NSSAL_Q2
5400,,,survey-likert,409,2322481,0.0-25.0,83786,List2B,white,woman,,,,,"{""Q0"":4}",,,likert_CGRS_Q1
5526,,,survey-likert,410,2328009,0.0-26.0,83786,List2B,white,woman,,,,,"{""Q0"":4}",,,likert_CGRS_Q2
6550,,,survey-likert,411,2334560,0.0-27.0,83786,List2B,white,woman,,,,,"{""Q0"":4}",,,likert_CGRS_Q3
3257,,,survey-text,412,2337818,0.0-28.0,83786,List2B,white,woman,,,,,"{""Q0"":""ccc""}",,,worker_id
24308,,,external-html,413,2362204,0.0-29.0,83786,List2B,white,woman,debrief.html,,,,,,,
