rt,stimulus,button_pressed,trial_type,trial_index,time_elapsed,internal_node_id,subject,list,ppt_race,ppt_gender,url,first_guess,correct,key_press,responses,image_type,phrase_type,test_part
15049,Welcome to the experiment. Press Continue to begin.,0,html-button-response,0,15051,0.0-0.0,84161,List2B,black,man,,,,,,,,
17112,,,external-html,1,33657,0.0-1.0,84161,List2B,black,man,consent.html,,,,,,,
10494,"<p>On the next page, you will see portraits of 8 people and their names.</p><p>Your first task is to take a few minutes to memorise the names of these people.</p><p>You will have to recall their names during the rest of the experiment, so it is</p><p>essential that you try to memorise these people and their names as best as you can.</p><br><p><strong>You will then be tested on your memory of these names and portraits.</strong></p><br><p>The experiment will start after you have completed this memory test.</p><br><p>Ready?</p>",0,html-button-response,2,44153,0.0-2.0,84161,List2B,black,man,,,,,,,,
47229,"<img src='img/portrait_matrix_list2.jpg' style='width:900px;height:500px;''></img><p>If you have memorised all the portraits and names and are ready to start, press Continue.</p><p><strong>Please note: Your memory of these faces will be tested 4 times during this experiment.</strong></p>",0,html-button-response,3,92388,0.0-3.0-0.0,84161,List2B,black,man,,,,,,,,
5213,"<img src=""portrait/BW1.jpg""style=""height:400px;""></img>",0,html-button-response,4,98605,0.0-3.0-1.0,84161,List2B,black,man,,TRUE,0,,,,,
null,CORRECT,,html-keyboard-response,5,100131,0.0-3.0-2.0-0.0,84161,List2B,black,man,,,,null,,,,
3191,"<img src=""portrait/BM1.jpg""style=""height:400px;""></img>",4,html-button-response,6,103325,0.0-3.0-4.0,84161,List2B,black,man,,TRUE,4,,,,,
null,CORRECT,,html-keyboard-response,7,104846,0.0-3.0-5.0-0.0,84161,List2B,black,man,,,,null,,,,
5085,"<img src=""portrait/WM2.jpg""style=""height:400px;""></img>",7,html-button-response,8,109932,0.0-3.0-7.0,84161,List2B,black,man,,TRUE,7,,,,,
null,CORRECT,,html-keyboard-response,9,111437,0.0-3.0-8.0-0.0,84161,List2B,black,man,,,,null,,,,
4030,"<img src=""portrait/WW1.jpg""style=""height:400px;""></img>",6,html-button-response,10,115469,0.0-3.0-10.0,84161,List2B,black,man,,TRUE,1,,,,,
11423,"<img src=""portrait/WW1.jpg""style=""height:400px;""></img>",1,html-button-response,11,127900,0.0-3.0-12.0-0.0,84161,List2B,black,man,,FALSE,1,,,,,
null,CORRECT,,html-keyboard-response,12,129421,0.0-3.0-12.0-1.0-0.0,84161,List2B,black,man,,,,null,,,,
4429,"<img src=""portrait/BW2.jpg""style=""height:400px;""></img>",2,html-button-response,13,133852,0.0-3.0-13.0,84161,List2B,black,man,,TRUE,2,,,,,
null,CORRECT,,html-keyboard-response,14,135371,0.0-3.0-14.0-0.0,84161,List2B,black,man,,,,null,,,,
2215,"<img src=""portrait/WW2.jpg""style=""height:400px;""></img>",3,html-button-response,15,137588,0.0-3.0-16.0,84161,List2B,black,man,,TRUE,3,,,,,
null,CORRECT,,html-keyboard-response,16,139118,0.0-3.0-17.0-0.0,84161,List2B,black,man,,,,null,,,,
3396,"<img src=""portrait/BM2.jpg""style=""height:400px;""></img>",5,html-button-response,17,142516,0.0-3.0-19.0,84161,List2B,black,man,,TRUE,5,,,,,
null,CORRECT,,html-keyboard-response,18,144034,0.0-3.0-20.0-0.0,84161,List2B,black,man,,,,null,,,,
3704,"<img src=""portrait/WM1.jpg""style=""height:400px;""></img>",6,html-button-response,19,147740,0.0-3.0-22.0,84161,List2B,black,man,,TRUE,6,,,,,
null,CORRECT,,html-keyboard-response,20,149265,0.0-3.0-23.0-0.0,84161,List2B,black,man,,,,null,,,,
1753,<p>You got 7 out of 8 right first time. Press Continue.</p>,0,html-button-response,21,151020,0.0-3.0-25.0,84161,List2B,black,man,,,,,,,,
2640,"As you did not score 100%, the memory game will repeat. Press Continue.",0,html-button-response,22,154671,0.0-3.0-26.0-0.0,84161,List2B,black,man,,,,,,,,
1767,"<img src='img/portrait_matrix_list2.jpg' style='width:900px;height:500px;''></img><p>If you have memorised all the portraits and names and are ready to start, press Continue.</p><p><strong>Please note: Your memory of these faces will be tested 4 times during this experiment.</strong></p>",0,html-button-response,23,157455,0.0-3.1-0.1,84161,List2B,black,man,,,,,,,,
2513,"<img src=""portrait/BW1.jpg""style=""height:400px;""></img>",0,html-button-response,24,160983,0.0-3.1-1.1,84161,List2B,black,man,,TRUE,0,,,,,
null,CORRECT,,html-keyboard-response,25,162514,0.0-3.1-2.1-0.1,84161,List2B,black,man,,,,null,,,,
3483,"<img src=""portrait/BM1.jpg""style=""height:400px;""></img>",4,html-button-response,26,165999,0.0-3.1-4.1,84161,List2B,black,man,,TRUE,4,,,,,
null,CORRECT,,html-keyboard-response,27,167529,0.0-3.1-5.1-0.1,84161,List2B,black,man,,,,null,,,,
4267,"<img src=""portrait/WM2.jpg""style=""height:400px;""></img>",7,html-button-response,28,171799,0.0-3.1-7.1,84161,List2B,black,man,,TRUE,7,,,,,
null,CORRECT,,html-keyboard-response,29,173328,0.0-3.1-8.1-0.1,84161,List2B,black,man,,,,null,,,,
3677,"<img src=""portrait/WW1.jpg""style=""height:400px;""></img>",1,html-button-response,30,177007,0.0-3.1-10.1,84161,List2B,black,man,,TRUE,1,,,,,
null,CORRECT,,html-keyboard-response,31,178526,0.0-3.1-11.1-0.1,84161,List2B,black,man,,,,null,,,,
3967,"<img src=""portrait/BW2.jpg""style=""height:400px;""></img>",2,html-button-response,32,182495,0.0-3.1-13.1,84161,List2B,black,man,,TRUE,2,,,,,
null,CORRECT,,html-keyboard-response,33,184024,0.0-3.1-14.1-0.1,84161,List2B,black,man,,,,null,,,,
2045,"<img src=""portrait/WW2.jpg""style=""height:400px;""></img>",3,html-button-response,34,186071,0.0-3.1-16.1,84161,List2B,black,man,,TRUE,3,,,,,
null,CORRECT,,html-keyboard-response,35,187589,0.0-3.1-17.1-0.1,84161,List2B,black,man,,,,null,,,,
1872,"<img src=""portrait/BM2.jpg""style=""height:400px;""></img>",5,html-button-response,36,189463,0.0-3.1-19.1,84161,List2B,black,man,,TRUE,5,,,,,
null,CORRECT,,html-keyboard-response,37,190989,0.0-3.1-20.1-0.1,84161,List2B,black,man,,,,null,,,,
2512,"<img src=""portrait/WM1.jpg""style=""height:400px;""></img>",6,html-button-response,38,193503,0.0-3.1-22.1,84161,List2B,black,man,,TRUE,6,,,,,
null,CORRECT,,html-keyboard-response,39,195020,0.0-3.1-23.1-0.1,84161,List2B,black,man,,,,null,,,,
1073,<p>You got 8 out of 8 right first time. Press Continue.</p>,0,html-button-response,40,196095,0.0-3.1-25.1,84161,List2B,black,man,,,,,,,,
30510,"<p>In this experiment, you will view photographs of the people from the memory game interacting.</p><p>By using the <strong>exact</strong> phrase given <i>after</i> the photograph appears and recalling the correct names of the people in the photographs, form a sentence describing the interaction. You do not need to capitalise names.</p><p>Type your answer in the space provided. Please complete every sentence before moving onto the next trial.</p><p>You will only have a few seconds to memorise each given photograph and phrase before you can respond, so try your best to focus.</p><p>An example is given below. Press 'Continue' when you are ready.</p><img src='img/speaking_example.jpg' style='width:800px;height:460px;''></img>",0,html-button-response,41,227613,0.0-4.0,84161,List2B,black,man,,,,,,,,
2410,"<p>Before the experiment starts, you will watch two example trials. Press 'Continue'.</p>",0,html-button-response,42,231037,0.0-5.0,84161,List2B,black,man,,,,,,,,
null,<img src='img/meet_eg.gif' style='height:400px;''></img>,,html-keyboard-response,43,234042,0.0-6.0,84161,List2B,black,man,,,,null,,,,
null,<p>is meeting</p>,,html-keyboard-response,44,236051,0.0-7.0,84161,List2B,black,man,,,,null,,,,
7777,<p><b>Answer:</b> jane is meeting ruth</p>,0,html-button-response,45,243829,0.0-8.0,84161,List2B,black,man,,,,,,,,
null,<img src='img/look_eg.gif' style='height:400px;''></img>,,html-keyboard-response,46,246841,0.0-9.0,84161,List2B,black,man,,,,null,,,,
null,<p>are looking at each other</p>,,html-keyboard-response,47,248850,0.0-10.0,84161,List2B,black,man,,,,null,,,,
4538,<p><b>Answer:</b> fred and mike are looking at each other</p>,0,html-button-response,48,253389,0.0-11.0,84161,List2B,black,man,,,,,,,,
9245,"<p>Ready to start the experiment?</p><br><p><strong>Remember to describe the picture using a full sentence,</strong></p><p><strong>that combines the names of the people with the <i>exact</i> phrase given.</strong></p><p><strong>To receive full payment you must do this correctly.</strong></p><p><strong> You do not need to capitalise names or use punctuation.</strong></p><br><p>Press 'Continue' to begin.</p>",0,html-button-response,49,263645,0.0-12.0,84161,List2B,black,man,,,,,,,,
null,"<div style=""font-size:60px;"">+</div>",,html-keyboard-response,50,265162,0.0-13.0-0.0,84161,List2B,black,man,,,,null,,,,
null,"<img src=""stim_listB/marry4.gif""style=""height:400px;""></stim_listB>",,html-keyboard-response,51,267165,0.0-13.0-1.0,84161,List2B,black,man,,,,null,,,,
null,are marrying each other,,html-keyboard-response,52,269178,0.0-13.0-2.0,84161,List2B,black,man,,,,null,,,,
17145,,,survey-text,53,286325,0.0-13.0-3.0,84161,List2B,black,man,,,,,"{""Q0"":""fred is talking to kate""}","<img src=""stim_listB/marry4.gif""style=""height:400px;""></stim_listB>",are marrying each other,
null,"<div style=""font-size:60px;"">+</div>",,html-keyboard-response,54,286837,0.0-13.0-0.1,84161,List2B,black,man,,,,null,,,,
null,"<img src=""stim_listB/fight8.gif""style=""height:400px;""></stim_listB>",,html-keyboard-response,55,288842,0.0-13.0-1.1,84161,List2B,black,man,,,,null,,,,
null,are fighting each other,,html-keyboard-response,56,290854,0.0-13.0-2.1,84161,List2B,black,man,,,,null,,,,
15447,,,survey-text,57,306302,0.0-13.0-3.1,84161,List2B,black,man,,,,,"{""Q0"":""beth is fighting ruth""}","<img src=""stim_listB/fight8.gif""style=""height:400px;""></stim_listB>",are fighting each other,
null,"<div style=""font-size:60px;"">+</div>",,html-keyboard-response,58,306815,0.0-13.0-0.2,84161,List2B,black,man,,,,null,,,,
null,"<img src=""stim_listB/touch6.gif""style=""height:400px;""></stim_listB>",,html-keyboard-response,59,308821,0.0-13.0-1.2,84161,List2B,black,man,,,,null,,,,
null,are touching each other,,html-keyboard-response,60,310834,0.0-13.0-2.2,84161,List2B,black,man,,,,null,,,,
29554,,,survey-text,61,340390,0.0-13.0-3.2,84161,List2B,black,man,,,,,"{""Q0"":""fred and mike are touching each other""}","<img src=""stim_listB/touch6.gif""style=""height:400px;""></stim_listB>",are touching each other,
null,"<div style=""font-size:60px;"">+</div>",,html-keyboard-response,62,340903,0.0-13.0-0.3,84161,List2B,black,man,,,,null,,,,
null,"<img src=""stim_listB/flirt6.gif""style=""height:400px;""></stim_listB>",,html-keyboard-response,63,342906,0.0-13.0-1.3,84161,List2B,black,man,,,,null,,,,
null,are flirting with each other,,html-keyboard-response,64,344922,0.0-13.0-2.3,84161,List2B,black,man,,,,null,,,,
19648,,,survey-text,65,364570,0.0-13.0-3.3,84161,List2B,black,man,,,,,"{""Q0"":""fred and dave are flirting with each other""}","<img src=""stim_listB/flirt6.gif""style=""height:400px;""></stim_listB>",are flirting with each other,
null,"<div style=""font-size:60px;"">+</div>",,html-keyboard-response,66,365084,0.0-13.0-0.4,84161,List2B,black,man,,,,null,,,,
null,"<img src=""stim_listB/play2.gif""style=""height:400px;""></stim_listB>",,html-keyboard-response,67,367086,0.0-13.0-1.4,84161,List2B,black,man,,,,null,,,,
null,are playing with each other,,html-keyboard-response,68,369100,0.0-13.0-2.4,84161,List2B,black,man,,,,null,,,,
16317,,,survey-text,69,385418,0.0-13.0-3.4,84161,List2B,black,man,,,,,"{""Q0"":""luke and ruth are looking at each other""}","<img src=""stim_listB/play2.gif""style=""height:400px;""></stim_listB>",are playing with each other,
null,"<div style=""font-size:60px;"">+</div>",,html-keyboard-response,70,385920,0.0-13.0-0.5,84161,List2B,black,man,,,,null,,,,
null,"<img src=""stim_listB/touch2.gif""style=""height:400px;""></stim_listB>",,html-keyboard-response,71,387923,0.0-13.0-1.5,84161,List2B,black,man,,,,null,,,,
null,are touching each other,,html-keyboard-response,72,389926,0.0-13.0-2.5,84161,List2B,black,man,,,,null,,,,
10947,,,survey-text,73,400874,0.0-13.0-3.5,84161,List2B,black,man,,,,,"{""Q0"":""luke and ruth are touching each other""}","<img src=""stim_listB/touch2.gif""style=""height:400px;""></stim_listB>",are touching each other,
null,"<div style=""font-size:60px;"">+</div>",,html-keyboard-response,74,401389,0.0-13.0-0.6,84161,List2B,black,man,,,,null,,,,
null,"<img src=""stim_listB/play8.gif""style=""height:400px;""></stim_listB>",,html-keyboard-response,75,403392,0.0-13.0-1.6,84161,List2B,black,man,,,,null,,,,
null,are playing with each other,,html-keyboard-response,76,405406,0.0-13.0-2.6,84161,List2B,black,man,,,,null,,,,
12775,,,survey-text,77,418181,0.0-13.0-3.6,84161,List2B,black,man,,,,,"{""Q0"":""beth and ruth are playing with each other""}","<img src=""stim_listB/play8.gif""style=""height:400px;""></stim_listB>",are playing with each other,
null,"<div style=""font-size:60px;"">+</div>",,html-keyboard-response,78,418683,0.0-13.0-0.7,84161,List2B,black,man,,,,null,,,,
null,"<img src=""stim_listB/kiss6.gif""style=""height:400px;""></stim_listB>",,html-keyboard-response,79,420685,0.0-13.0-1.7,84161,List2B,black,man,,,,null,,,,
null,are kissing each other,,html-keyboard-response,80,422695,0.0-13.0-2.7,84161,List2B,black,man,,,,null,,,,
10437,,,survey-text,81,433133,0.0-13.0-3.7,84161,List2B,black,man,,,,,"{""Q0"":""mike and dave are kissing each other""}","<img src=""stim_listB/kiss6.gif""style=""height:400px;""></stim_listB>",are kissing each other,
null,"<div style=""font-size:60px;"">+</div>",,html-keyboard-response,82,433640,0.0-13.0-0.8,84161,List2B,black,man,,,,null,,,,
null,"<img src=""stim_listB/talk2.gif""style=""height:400px;""></stim_listB>",,html-keyboard-response,83,435644,0.0-13.0-1.8,84161,List2B,black,man,,,,null,,,,
null,are talking to each other,,html-keyboard-response,84,437655,0.0-13.0-2.8,84161,List2B,black,man,,,,null,,,,
12252,,,survey-text,85,449909,0.0-13.0-3.8,84161,List2B,black,man,,,,,"{""Q0"":""dave and ruth are talking to each other""}","<img src=""stim_listB/talk2.gif""style=""height:400px;""></stim_listB>",are talking to each other,
null,"<div style=""font-size:60px;"">+</div>",,html-keyboard-response,86,450421,0.0-13.0-0.9,84161,List2B,black,man,,,,null,,,,
null,"<img src=""stim_listB/play7.gif""style=""height:400px;""></stim_listB>",,html-keyboard-response,87,452424,0.0-13.0-1.9,84161,List2B,black,man,,,,null,,,,
null,is playing with,,html-keyboard-response,88,454432,0.0-13.0-2.9,84161,List2B,black,man,,,,null,,,,
11731,,,survey-text,89,466165,0.0-13.0-3.9,84161,List2B,black,man,,,,,"{""Q0"":""jane and kate is playing with""}","<img src=""stim_listB/play7.gif""style=""height:400px;""></stim_listB>",is playing with,
null,"<div style=""font-size:60px;"">+</div>",,html-keyboard-response,90,466678,0.0-13.0-0.10,84161,List2B,black,man,,,,null,,,,
null,"<img src=""stim_listB/shout1.gif""style=""height:400px;""></stim_listB>",,html-keyboard-response,91,468681,0.0-13.0-1.10,84161,List2B,black,man,,,,null,,,,
null,is shouting at,,html-keyboard-response,92,470700,0.0-13.0-2.10,84161,List2B,black,man,,,,null,,,,
16061,,,survey-text,93,486761,0.0-13.0-3.10,84161,List2B,black,man,,,,,"{""Q0"":""luke is shouting at ruth""}","<img src=""stim_listB/shout1.gif""style=""height:400px;""></stim_listB>",is shouting at,
null,"<div style=""font-size:60px;"">+</div>",,html-keyboard-response,94,487277,0.0-13.0-0.11,84161,List2B,black,man,,,,null,,,,
null,"<img src=""stim_listB/argue1.gif""style=""height:400px;""></stim_listB>",,html-keyboard-response,95,489280,0.0-13.0-1.11,84161,List2B,black,man,,,,null,,,,
null,is arguing with,,html-keyboard-response,96,491287,0.0-13.0-2.11,84161,List2B,black,man,,,,null,,,,
20120,,,survey-text,97,511409,0.0-13.0-3.11,84161,List2B,black,man,,,,,"{""Q0"":""dave is arguing with ruth""}","<img src=""stim_listB/argue1.gif""style=""height:400px;""></stim_listB>",is arguing with,
null,"<div style=""font-size:60px;"">+</div>",,html-keyboard-response,98,511918,0.0-13.0-0.12,84161,List2B,black,man,,,,null,,,,
null,"<img src=""stim_listB/play4.gif""style=""height:400px;""></stim_listB>",,html-keyboard-response,99,513921,0.0-13.0-1.12,84161,List2B,black,man,,,,null,,,,
null,are playing with each other,,html-keyboard-response,100,515924,0.0-13.0-2.12,84161,List2B,black,man,,,,null,,,,
15231,,,survey-text,101,531156,0.0-13.0-3.12,84161,List2B,black,man,,,,,"{""Q0"":""beth and fred are playing with each other""}","<img src=""stim_listB/play4.gif""style=""height:400px;""></stim_listB>",are playing with each other,
null,"<div style=""font-size:60px;"">+</div>",,html-keyboard-response,102,531673,0.0-13.0-0.13,84161,List2B,black,man,,,,null,,,,
null,"<img src=""stim_listB/touch7.gif""style=""height:400px;""></stim_listB>",,html-keyboard-response,103,533676,0.0-13.0-1.13,84161,List2B,black,man,,,,null,,,,
null,is touching,,html-keyboard-response,104,535679,0.0-13.0-2.13,84161,List2B,black,man,,,,null,,,,
50539,,,survey-text,105,586219,0.0-13.0-3.13,84161,List2B,black,man,,,,,"{""Q0"":""kate is touching jane""}","<img src=""stim_listB/touch7.gif""style=""height:400px;""></stim_listB>",is touching,
null,"<div style=""font-size:60px;"">+</div>",,html-keyboard-response,106,586722,0.0-13.0-0.14,84161,List2B,black,man,,,,null,,,,
null,"<img src=""stim_listB/argue8.gif""style=""height:400px;""></stim_listB>",,html-keyboard-response,107,588732,0.0-13.0-1.14,84161,List2B,black,man,,,,null,,,,
null,are arguing with each other,,html-keyboard-response,108,590739,0.0-13.0-2.14,84161,List2B,black,man,,,,null,,,,
26070,,,survey-text,109,616809,0.0-13.0-3.14,84161,List2B,black,man,,,,,"{""Q0"":""ruth and kate and touching each other""}","<img src=""stim_listB/argue8.gif""style=""height:400px;""></stim_listB>",are arguing with each other,
null,"<div style=""font-size:60px;"">+</div>",,html-keyboard-response,110,617326,0.0-13.0-0.15,84161,List2B,black,man,,,,null,,,,
null,"<img src=""stim_listB/argue4.gif""style=""height:400px;""></stim_listB>",,html-keyboard-response,111,619328,0.0-13.0-1.15,84161,List2B,black,man,,,,null,,,,
null,are arguing with each other,,html-keyboard-response,112,621334,0.0-13.0-2.15,84161,List2B,black,man,,,,null,,,,
20835,,,survey-text,113,642169,0.0-13.0-3.15,84161,List2B,black,man,,,,,"{""Q0"":""fred and kate arguing with each other""}","<img src=""stim_listB/argue4.gif""style=""height:400px;""></stim_listB>",are arguing with each other,
null,"<div style=""font-size:60px;"">+</div>",,html-keyboard-response,114,642673,0.0-13.0-0.16,84161,List2B,black,man,,,,null,,,,
null,"<img src=""stim_listB/shout3.gif""style=""height:400px;""></stim_listB>",,html-keyboard-response,115,644676,0.0-13.0-1.16,84161,List2B,black,man,,,,null,,,,
null,is shouting at,,html-keyboard-response,116,646677,0.0-13.0-2.16,84161,List2B,black,man,,,,null,,,,
17064,,,survey-text,117,663742,0.0-13.0-3.16,84161,List2B,black,man,,,,,"{""Q0"":""beth is fighting with fred""}","<img src=""stim_listB/shout3.gif""style=""height:400px;""></stim_listB>",is shouting at,
null,"<div style=""font-size:60px;"">+</div>",,html-keyboard-response,118,664257,0.0-13.0-0.17,84161,List2B,black,man,,,,null,,,,
null,"<img src=""stim_listB/argue2.gif""style=""height:400px;""></stim_listB>",,html-keyboard-response,119,666259,0.0-13.0-1.17,84161,List2B,black,man,,,,null,,,,
null,are arguing with each other,,html-keyboard-response,120,668274,0.0-13.0-2.17,84161,List2B,black,man,,,,null,,,,
16899,,,survey-text,121,685174,0.0-13.0-3.17,84161,List2B,black,man,,,,,"{""Q0"":""luke is fighting with jane""}","<img src=""stim_listB/argue2.gif""style=""height:400px;""></stim_listB>",are arguing with each other,
null,"<div style=""font-size:60px;"">+</div>",,html-keyboard-response,122,685682,0.0-13.0-0.18,84161,List2B,black,man,,,,null,,,,
null,"<img src=""stim_listB/touch3.gif""style=""height:400px;""></stim_listB>",,html-keyboard-response,123,687685,0.0-13.0-1.18,84161,List2B,black,man,,,,null,,,,
null,is touching,,html-keyboard-response,124,689687,0.0-13.0-2.18,84161,List2B,black,man,,,,null,,,,
14302,,,survey-text,125,703990,0.0-13.0-3.18,84161,List2B,black,man,,,,,"{""Q0"":""mike is touching kate""}","<img src=""stim_listB/touch3.gif""style=""height:400px;""></stim_listB>",is touching,
null,"<div style=""font-size:60px;"">+</div>",,html-keyboard-response,126,704496,0.0-13.0-0.19,84161,List2B,black,man,,,,null,,,,
null,"<img src=""stim_listB/touch8.gif""style=""height:400px;""></stim_listB>",,html-keyboard-response,127,706498,0.0-13.0-1.19,84161,List2B,black,man,,,,null,,,,
null,are touching each other,,html-keyboard-response,128,708508,0.0-13.0-2.19,84161,List2B,black,man,,,,null,,,,
7256,,,survey-text,129,715765,0.0-13.0-3.19,84161,List2B,black,man,,,,,"{""Q0"":""beth is touching ruth""}","<img src=""stim_listB/touch8.gif""style=""height:400px;""></stim_listB>",are touching each other,
7145,"<img src='img/portrait_matrix_list2.jpg' style='width:900px;height:500px;''></img><p>If you have memorised all the portraits and names and are ready to start, press Continue.</p><p><strong>Please note: Your memory of these faces will be tested 4 times during this experiment.</strong></p>",0,html-button-response,130,722912,0.0-14.0-0.0,84161,List2B,black,man,,,,,,,,
2292,"<img src=""portrait/WW2.jpg""style=""height:400px;""></img>",3,html-button-response,131,726216,0.0-14.0-1.0,84161,List2B,black,man,,TRUE,3,,,,,
null,CORRECT,,html-keyboard-response,132,727724,0.0-14.0-2.0-0.0,84161,List2B,black,man,,,,null,,,,
3930,"<img src=""portrait/WM2.jpg""style=""height:400px;""></img>",7,html-button-response,133,731656,0.0-14.0-4.0,84161,List2B,black,man,,TRUE,7,,,,,
null,CORRECT,,html-keyboard-response,134,733171,0.0-14.0-5.0-0.0,84161,List2B,black,man,,,,null,,,,
2827,"<img src=""portrait/BW1.jpg""style=""height:400px;""></img>",0,html-button-response,135,736000,0.0-14.0-7.0,84161,List2B,black,man,,TRUE,0,,,,,
null,CORRECT,,html-keyboard-response,136,737519,0.0-14.0-8.0-0.0,84161,List2B,black,man,,,,null,,,,
2319,"<img src=""portrait/BM2.jpg""style=""height:400px;""></img>",5,html-button-response,137,739840,0.0-14.0-10.0,84161,List2B,black,man,,TRUE,5,,,,,
null,CORRECT,,html-keyboard-response,138,741352,0.0-14.0-11.0-0.0,84161,List2B,black,man,,,,null,,,,
2518,"<img src=""portrait/WW1.jpg""style=""height:400px;""></img>",1,html-button-response,139,743872,0.0-14.0-13.0,84161,List2B,black,man,,TRUE,1,,,,,
null,CORRECT,,html-keyboard-response,140,745399,0.0-14.0-14.0-0.0,84161,List2B,black,man,,,,null,,,,
1967,"<img src=""portrait/BM1.jpg""style=""height:400px;""></img>",4,html-button-response,141,747368,0.0-14.0-16.0,84161,List2B,black,man,,TRUE,4,,,,,
null,CORRECT,,html-keyboard-response,142,748897,0.0-14.0-17.0-0.0,84161,List2B,black,man,,,,null,,,,
4917,"<img src=""portrait/BW2.jpg""style=""height:400px;""></img>",2,html-button-response,143,753816,0.0-14.0-19.0,84161,List2B,black,man,,TRUE,2,,,,,
null,CORRECT,,html-keyboard-response,144,755329,0.0-14.0-20.0-0.0,84161,List2B,black,man,,,,null,,,,
3574,"<img src=""portrait/WM1.jpg""style=""height:400px;""></img>",6,html-button-response,145,758905,0.0-14.0-22.0,84161,List2B,black,man,,TRUE,6,,,,,
null,CORRECT,,html-keyboard-response,146,760426,0.0-14.0-23.0-0.0,84161,List2B,black,man,,,,null,,,,
1612,<p>You got 8 out of 8 right first time. Press Continue.</p>,0,html-button-response,147,762040,0.0-14.0-25.0,84161,List2B,black,man,,,,,,,,
null,"<div style=""font-size:60px;"">+</div>",,html-keyboard-response,148,763566,0.0-15.0-0.0,84161,List2B,black,man,,,,null,,,,
null,"<img src=""stim_listB/flirt8.gif""style=""height:400px;""></stim_listB>",,html-keyboard-response,149,765568,0.0-15.0-1.0,84161,List2B,black,man,,,,null,,,,
null,are flirting with each other,,html-keyboard-response,150,767578,0.0-15.0-2.0,84161,List2B,black,man,,,,null,,,,
15560,,,survey-text,151,783140,0.0-15.0-3.0,84161,List2B,black,man,,,,,"{""Q0"":""beth is flirting with jane""}","<img src=""stim_listB/flirt8.gif""style=""height:400px;""></stim_listB>",are flirting with each other,
null,"<div style=""font-size:60px;"">+</div>",,html-keyboard-response,152,783649,0.0-15.0-0.1,84161,List2B,black,man,,,,null,,,,
null,"<img src=""stim_listB/play1.gif""style=""height:400px;""></stim_listB>",,html-keyboard-response,153,785652,0.0-15.0-1.1,84161,List2B,black,man,,,,null,,,,
null,is playing with,,html-keyboard-response,154,787663,0.0-15.0-2.1,84161,List2B,black,man,,,,null,,,,
7427,,,survey-text,155,795091,0.0-15.0-3.1,84161,List2B,black,man,,,,,"{""Q0"":""dave is playing with jane""}","<img src=""stim_listB/play1.gif""style=""height:400px;""></stim_listB>",is playing with,
null,"<div style=""font-size:60px;"">+</div>",,html-keyboard-response,156,795604,0.0-15.0-0.2,84161,List2B,black,man,,,,null,,,,
null,"<img src=""stim_listB/dance3.gif""style=""height:400px;""></stim_listB>",,html-keyboard-response,157,797606,0.0-15.0-1.2,84161,List2B,black,man,,,,null,,,,
null,is dancing with,,html-keyboard-response,158,799615,0.0-15.0-2.2,84161,List2B,black,man,,,,null,,,,
13060,,,survey-text,159,812675,0.0-15.0-3.2,84161,List2B,black,man,,,,,"{""Q0"":""fred is dancing with kate""}","<img src=""stim_listB/dance3.gif""style=""height:400px;""></stim_listB>",is dancing with,
null,"<div style=""font-size:60px;"">+</div>",,html-keyboard-response,160,813188,0.0-15.0-0.3,84161,List2B,black,man,,,,null,,,,
null,"<img src=""stim_listB/dance2.gif""style=""height:400px;""></stim_listB>",,html-keyboard-response,161,815191,0.0-15.0-1.3,84161,List2B,black,man,,,,null,,,,
null,are dancing with each other,,html-keyboard-response,162,817204,0.0-15.0-2.3,84161,List2B,black,man,,,,null,,,,
9975,,,survey-text,163,827179,0.0-15.0-3.3,84161,List2B,black,man,,,,,"{""Q0"":""dave is dancing with ruth""}","<img src=""stim_listB/dance2.gif""style=""height:400px;""></stim_listB>",are dancing with each other,
null,"<div style=""font-size:60px;"">+</div>",,html-keyboard-response,164,827683,0.0-15.0-0.4,84161,List2B,black,man,,,,null,,,,
null,"<img src=""stim_listB/play5.gif""style=""height:400px;""></stim_listB>",,html-keyboard-response,165,829687,0.0-15.0-1.4,84161,List2B,black,man,,,,null,,,,
null,is playing with,,html-keyboard-response,166,831688,0.0-15.0-2.4,84161,List2B,black,man,,,,null,,,,
8809,,,survey-text,167,840499,0.0-15.0-3.4,84161,List2B,black,man,,,,,"{""Q0"":""dave is playing with mike""}","<img src=""stim_listB/play5.gif""style=""height:400px;""></stim_listB>",is playing with,
null,"<div style=""font-size:60px;"">+</div>",,html-keyboard-response,168,841010,0.0-15.0-0.5,84161,List2B,black,man,,,,null,,,,
null,"<img src=""stim_listB/marry7.gif""style=""height:400px;""></stim_listB>",,html-keyboard-response,169,843015,0.0-15.0-1.5,84161,List2B,black,man,,,,null,,,,
null,is marrying,,html-keyboard-response,170,845031,0.0-15.0-2.5,84161,List2B,black,man,,,,null,,,,
8878,,,survey-text,171,853910,0.0-15.0-3.5,84161,List2B,black,man,,,,,"{""Q0"":""beth is marrying jane""}","<img src=""stim_listB/marry7.gif""style=""height:400px;""></stim_listB>",is marrying,
null,"<div style=""font-size:60px;"">+</div>",,html-keyboard-response,172,854427,0.0-15.0-0.6,84161,List2B,black,man,,,,null,,,,
null,"<img src=""stim_listB/fight6.gif""style=""height:400px;""></stim_listB>",,html-keyboard-response,173,856430,0.0-15.0-1.6,84161,List2B,black,man,,,,null,,,,
null,are fighting each other,,html-keyboard-response,174,858443,0.0-15.0-2.6,84161,List2B,black,man,,,,null,,,,
15930,,,survey-text,175,874374,0.0-15.0-3.6,84161,List2B,black,man,,,,,"{""Q0"":""luke and fred is fighting with each other""}","<img src=""stim_listB/fight6.gif""style=""height:400px;""></stim_listB>",are fighting each other,
null,"<div style=""font-size:60px;"">+</div>",,html-keyboard-response,176,874880,0.0-15.0-0.7,84161,List2B,black,man,,,,null,,,,
null,"<img src=""stim_listB/dance5.gif""style=""height:400px;""></stim_listB>",,html-keyboard-response,177,876881,0.0-15.0-1.7,84161,List2B,black,man,,,,null,,,,
null,is dancing with,,html-keyboard-response,178,878894,0.0-15.0-2.7,84161,List2B,black,man,,,,null,,,,
8751,,,survey-text,179,887646,0.0-15.0-3.7,84161,List2B,black,man,,,,,"{""Q0"":""mike is dancing with luke""}","<img src=""stim_listB/dance5.gif""style=""height:400px;""></stim_listB>",is dancing with,
null,"<div style=""font-size:60px;"">+</div>",,html-keyboard-response,180,888150,0.0-15.0-0.8,84161,List2B,black,man,,,,null,,,,
null,"<img src=""stim_listB/dance4.gif""style=""height:400px;""></stim_listB>",,html-keyboard-response,181,890153,0.0-15.0-1.8,84161,List2B,black,man,,,,null,,,,
null,are dancing with each other,,html-keyboard-response,182,892167,0.0-15.0-2.8,84161,List2B,black,man,,,,null,,,,
10398,,,survey-text,183,902566,0.0-15.0-3.8,84161,List2B,black,man,,,,,"{""Q0"":""mike and beth is dancing with each other""}","<img src=""stim_listB/dance4.gif""style=""height:400px;""></stim_listB>",are dancing with each other,
null,"<div style=""font-size:60px;"">+</div>",,html-keyboard-response,184,903078,0.0-15.0-0.9,84161,List2B,black,man,,,,null,,,,
null,"<img src=""stim_listB/shout6.gif""style=""height:400px;""></stim_listB>",,html-keyboard-response,185,905081,0.0-15.0-1.9,84161,List2B,black,man,,,,null,,,,
null,are shouting at each other,,html-keyboard-response,186,907087,0.0-15.0-2.9,84161,List2B,black,man,,,,null,,,,
9528,,,survey-text,187,916615,0.0-15.0-3.9,84161,List2B,black,man,,,,,"{""Q0"":""dave and mike are shouting with each other""}","<img src=""stim_listB/shout6.gif""style=""height:400px;""></stim_listB>",are shouting at each other,
null,"<div style=""font-size:60px;"">+</div>",,html-keyboard-response,188,917128,0.0-15.0-0.10,84161,List2B,black,man,,,,null,,,,
null,"<img src=""stim_listB/dance7.gif""style=""height:400px;""></stim_listB>",,html-keyboard-response,189,919129,0.0-15.0-1.10,84161,List2B,black,man,,,,null,,,,
null,is dancing with,,html-keyboard-response,190,921140,0.0-15.0-2.10,84161,List2B,black,man,,,,null,,,,
12138,,,survey-text,191,933279,0.0-15.0-3.10,84161,List2B,black,man,,,,,"{""Q0"":""ruth is dancing with kate""}","<img src=""stim_listB/dance7.gif""style=""height:400px;""></stim_listB>",is dancing with,
null,"<div style=""font-size:60px;"">+</div>",,html-keyboard-response,192,933785,0.0-15.0-0.11,84161,List2B,black,man,,,,null,,,,
null,"<img src=""stim_listB/flirt2.gif""style=""height:400px;""></stim_listB>",,html-keyboard-response,193,935788,0.0-15.0-1.11,84161,List2B,black,man,,,,null,,,,
null,are flirting with each other,,html-keyboard-response,194,937790,0.0-15.0-2.11,84161,List2B,black,man,,,,null,,,,
17096,,,survey-text,195,954887,0.0-15.0-3.11,84161,List2B,black,man,,,,,"{""Q0"":""ruth and dave are flirting with each other""}","<img src=""stim_listB/flirt2.gif""style=""height:400px;""></stim_listB>",are flirting with each other,
null,"<div style=""font-size:60px;"">+</div>",,html-keyboard-response,196,955395,0.0-15.0-0.12,84161,List2B,black,man,,,,null,,,,
null,"<img src=""stim_listB/argue5.gif""style=""height:400px;""></stim_listB>",,html-keyboard-response,197,957398,0.0-15.0-1.12,84161,List2B,black,man,,,,null,,,,
null,is arguing with,,html-keyboard-response,198,959400,0.0-15.0-2.12,84161,List2B,black,man,,,,null,,,,
8887,,,survey-text,199,968288,0.0-15.0-3.12,84161,List2B,black,man,,,,,"{""Q0"":""fred is arguing with dave""}","<img src=""stim_listB/argue5.gif""style=""height:400px;""></stim_listB>",is arguing with,
null,"<div style=""font-size:60px;"">+</div>",,html-keyboard-response,200,968793,0.0-15.0-0.13,84161,List2B,black,man,,,,null,,,,
null,"<img src=""stim_listB/argue7.gif""style=""height:400px;""></stim_listB>",,html-keyboard-response,201,970795,0.0-15.0-1.13,84161,List2B,black,man,,,,null,,,,
null,is arguing with,,html-keyboard-response,202,972806,0.0-15.0-2.13,84161,List2B,black,man,,,,null,,,,
7992,,,survey-text,203,980799,0.0-15.0-3.13,84161,List2B,black,man,,,,,"{""Q0"":""beth is arguing with jane""}","<img src=""stim_listB/argue7.gif""style=""height:400px;""></stim_listB>",is arguing with,
null,"<div style=""font-size:60px;"">+</div>",,html-keyboard-response,204,981306,0.0-15.0-0.14,84161,List2B,black,man,,,,null,,,,
null,"<img src=""stim_listB/marry5.gif""style=""height:400px;""></stim_listB>",,html-keyboard-response,205,983312,0.0-15.0-1.14,84161,List2B,black,man,,,,null,,,,
null,is marrying,,html-keyboard-response,206,985314,0.0-15.0-2.14,84161,List2B,black,man,,,,null,,,,
4853,,,survey-text,207,990167,0.0-15.0-3.14,84161,List2B,black,man,,,,,"{""Q0"":""fred is marrying dave""}","<img src=""stim_listB/marry5.gif""style=""height:400px;""></stim_listB>",is marrying,
null,"<div style=""font-size:60px;"">+</div>",,html-keyboard-response,208,990668,0.0-15.0-0.15,84161,List2B,black,man,,,,null,,,,
null,"<img src=""stim_listB/marry3.gif""style=""height:400px;""></stim_listB>",,html-keyboard-response,209,992672,0.0-15.0-1.15,84161,List2B,black,man,,,,null,,,,
null,is marrying,,html-keyboard-response,210,994673,0.0-15.0-2.15,84161,List2B,black,man,,,,null,,,,
7734,,,survey-text,211,1002407,0.0-15.0-3.15,84161,List2B,black,man,,,,,"{""Q0"":""beth is marrying dave""}","<img src=""stim_listB/marry3.gif""style=""height:400px;""></stim_listB>",is marrying,
null,"<div style=""font-size:60px;"">+</div>",,html-keyboard-response,212,1002917,0.0-15.0-0.16,84161,List2B,black,man,,,,null,,,,
null,"<img src=""stim_listB/talk8.gif""style=""height:400px;""></stim_listB>",,html-keyboard-response,213,1004919,0.0-15.0-1.16,84161,List2B,black,man,,,,null,,,,
null,are talking to each other,,html-keyboard-response,214,1006920,0.0-15.0-2.16,84161,List2B,black,man,,,,null,,,,
12511,,,survey-text,215,1019431,0.0-15.0-3.16,84161,List2B,black,man,,,,,"{""Q0"":""beth and jane are talking to each other""}","<img src=""stim_listB/talk8.gif""style=""height:400px;""></stim_listB>",are talking to each other,
null,"<div style=""font-size:60px;"">+</div>",,html-keyboard-response,216,1019943,0.0-15.0-0.17,84161,List2B,black,man,,,,null,,,,
null,"<img src=""stim_listB/talk5.gif""style=""height:400px;""></stim_listB>",,html-keyboard-response,217,1021944,0.0-15.0-1.17,84161,List2B,black,man,,,,null,,,,
null,is talking to,,html-keyboard-response,218,1023946,0.0-15.0-2.17,84161,List2B,black,man,,,,null,,,,
7717,,,survey-text,219,1031664,0.0-15.0-3.17,84161,List2B,black,man,,,,,"{""Q0"":""luke is talking to mike""}","<img src=""stim_listB/talk5.gif""style=""height:400px;""></stim_listB>",is talking to,
null,"<div style=""font-size:60px;"">+</div>",,html-keyboard-response,220,1032169,0.0-15.0-0.18,84161,List2B,black,man,,,,null,,,,
null,"<img src=""stim_listB/shout7.gif""style=""height:400px;""></stim_listB>",,html-keyboard-response,221,1034171,0.0-15.0-1.18,84161,List2B,black,man,,,,null,,,,
null,is shouting at,,html-keyboard-response,222,1036172,0.0-15.0-2.18,84161,List2B,black,man,,,,null,,,,
6690,,,survey-text,223,1042863,0.0-15.0-3.18,84161,List2B,black,man,,,,,"{""Q0"":""beth is shouting at ruth""}","<img src=""stim_listB/shout7.gif""style=""height:400px;""></stim_listB>",is shouting at,
null,"<div style=""font-size:60px;"">+</div>",,html-keyboard-response,224,1043377,0.0-15.0-0.19,84161,List2B,black,man,,,,null,,,,
null,"<img src=""stim_listB/marry8.gif""style=""height:400px;""></stim_listB>",,html-keyboard-response,225,1045379,0.0-15.0-1.19,84161,List2B,black,man,,,,null,,,,
null,are marrying each other,,html-keyboard-response,226,1047394,0.0-15.0-2.19,84161,List2B,black,man,,,,null,,,,
13781,,,survey-text,227,1061175,0.0-15.0-3.19,84161,List2B,black,man,,,,,"{""Q0"":""ruth and kate are marrying each other""}","<img src=""stim_listB/marry8.gif""style=""height:400px;""></stim_listB>",are marrying each other,
1999,"<img src='img/portrait_matrix_list2.jpg' style='width:900px;height:500px;''></img><p>If you have memorised all the portraits and names and are ready to start, press Continue.</p><p><strong>Please note: Your memory of these faces will be tested 4 times during this experiment.</strong></p>",0,html-button-response,228,1063175,0.0-16.0-0.0,84161,List2B,black,man,,,,,,,,
3374,"<img src=""portrait/BM1.jpg""style=""height:400px;""></img>",4,html-button-response,229,1067551,0.0-16.0-1.0,84161,List2B,black,man,,TRUE,4,,,,,
null,CORRECT,,html-keyboard-response,230,1069083,0.0-16.0-2.0-0.0,84161,List2B,black,man,,,,null,,,,
3867,"<img src=""portrait/BW1.jpg""style=""height:400px;""></img>",0,html-button-response,231,1072951,0.0-16.0-4.0,84161,List2B,black,man,,TRUE,0,,,,,
null,CORRECT,,html-keyboard-response,232,1074480,0.0-16.0-5.0-0.0,84161,List2B,black,man,,,,null,,,,
2582,"<img src=""portrait/WW2.jpg""style=""height:400px;""></img>",3,html-button-response,233,1077063,0.0-16.0-7.0,84161,List2B,black,man,,TRUE,3,,,,,
null,CORRECT,,html-keyboard-response,234,1078598,0.0-16.0-8.0-0.0,84161,List2B,black,man,,,,null,,,,
2824,"<img src=""portrait/WM1.jpg""style=""height:400px;""></img>",6,html-button-response,235,1081423,0.0-16.0-10.0,84161,List2B,black,man,,TRUE,6,,,,,
null,CORRECT,,html-keyboard-response,236,1082930,0.0-16.0-11.0-0.0,84161,List2B,black,man,,,,null,,,,
972,"<img src=""portrait/BW2.jpg""style=""height:400px;""></img>",5,html-button-response,237,1083903,0.0-16.0-13.0,84161,List2B,black,man,,TRUE,2,,,,,
2843,"<img src=""portrait/BW2.jpg""style=""height:400px;""></img>",2,html-button-response,238,1087757,0.0-16.0-15.0-0.0,84161,List2B,black,man,,FALSE,2,,,,,
null,CORRECT,,html-keyboard-response,239,1089274,0.0-16.0-15.0-1.0-0.0,84161,List2B,black,man,,,,null,,,,
3025,"<img src=""portrait/WM2.jpg""style=""height:400px;""></img>",7,html-button-response,240,1092301,0.0-16.0-16.0,84161,List2B,black,man,,TRUE,7,,,,,
null,CORRECT,,html-keyboard-response,241,1093824,0.0-16.0-17.0-0.0,84161,List2B,black,man,,,,null,,,,
3187,"<img src=""portrait/BM2.jpg""style=""height:400px;""></img>",5,html-button-response,242,1097013,0.0-16.0-19.0,84161,List2B,black,man,,TRUE,5,,,,,
null,CORRECT,,html-keyboard-response,243,1098538,0.0-16.0-20.0-0.0,84161,List2B,black,man,,,,null,,,,
5625,"<img src=""portrait/WW1.jpg""style=""height:400px;""></img>",1,html-button-response,244,1104165,0.0-16.0-22.0,84161,List2B,black,man,,TRUE,1,,,,,
null,CORRECT,,html-keyboard-response,245,1105685,0.0-16.0-23.0-0.0,84161,List2B,black,man,,,,null,,,,
1309,<p>You got 7 out of 8 right first time. Press Continue.</p>,0,html-button-response,246,1106997,0.0-16.0-25.0,84161,List2B,black,man,,,,,,,,
1698,"As you did not score 100%, the memory game will repeat. Press Continue.",0,html-button-response,247,1109701,0.0-16.0-26.0-0.0,84161,List2B,black,man,,,,,,,,
1676,"<img src='img/portrait_matrix_list2.jpg' style='width:900px;height:500px;''></img><p>If you have memorised all the portraits and names and are ready to start, press Continue.</p><p><strong>Please note: Your memory of these faces will be tested 4 times during this experiment.</strong></p>",0,html-button-response,248,1112380,0.0-16.1-0.1,84161,List2B,black,man,,,,,,,,
2735,"<img src=""portrait/BM1.jpg""style=""height:400px;""></img>",4,html-button-response,249,1116133,0.0-16.1-1.1,84161,List2B,black,man,,TRUE,4,,,,,
null,CORRECT,,html-keyboard-response,250,1117666,0.0-16.1-2.1-0.1,84161,List2B,black,man,,,,null,,,,
1657,"<img src=""portrait/BW1.jpg""style=""height:400px;""></img>",0,html-button-response,251,1119325,0.0-16.1-4.1,84161,List2B,black,man,,TRUE,0,,,,,
null,CORRECT,,html-keyboard-response,252,1120847,0.0-16.1-5.1-0.1,84161,List2B,black,man,,,,null,,,,
2356,"<img src=""portrait/WW2.jpg""style=""height:400px;""></img>",3,html-button-response,253,1123204,0.0-16.1-7.1,84161,List2B,black,man,,TRUE,3,,,,,
null,CORRECT,,html-keyboard-response,254,1124729,0.0-16.1-8.1-0.1,84161,List2B,black,man,,,,null,,,,
1898,"<img src=""portrait/WM1.jpg""style=""height:400px;""></img>",6,html-button-response,255,1126629,0.0-16.1-10.1,84161,List2B,black,man,,TRUE,6,,,,,
null,CORRECT,,html-keyboard-response,256,1128160,0.0-16.1-11.1-0.1,84161,List2B,black,man,,,,null,,,,
3171,"<img src=""portrait/BW2.jpg""style=""height:400px;""></img>",2,html-button-response,257,1131332,0.0-16.1-13.1,84161,List2B,black,man,,TRUE,2,,,,,
null,CORRECT,,html-keyboard-response,258,1132859,0.0-16.1-14.1-0.1,84161,List2B,black,man,,,,null,,,,
2726,"<img src=""portrait/WM2.jpg""style=""height:400px;""></img>",7,html-button-response,259,1135589,0.0-16.1-16.1,84161,List2B,black,man,,TRUE,7,,,,,
null,CORRECT,,html-keyboard-response,260,1137105,0.0-16.1-17.1-0.1,84161,List2B,black,man,,,,null,,,,
2298,"<img src=""portrait/BM2.jpg""style=""height:400px;""></img>",5,html-button-response,261,1139404,0.0-16.1-19.1,84161,List2B,black,man,,TRUE,5,,,,,
null,CORRECT,,html-keyboard-response,262,1140923,0.0-16.1-20.1-0.1,84161,List2B,black,man,,,,null,,,,
2663,"<img src=""portrait/WW1.jpg""style=""height:400px;""></img>",1,html-button-response,263,1143588,0.0-16.1-22.1,84161,List2B,black,man,,TRUE,1,,,,,
null,CORRECT,,html-keyboard-response,264,1145095,0.0-16.1-23.1-0.1,84161,List2B,black,man,,,,null,,,,
1676,<p>You got 8 out of 8 right first time. Press Continue.</p>,0,html-button-response,265,1146772,0.0-16.1-25.1,84161,List2B,black,man,,,,,,,,
null,"<div style=""font-size:60px;"">+</div>",,html-keyboard-response,266,1148314,0.0-17.0-0.0,84161,List2B,black,man,,,,null,,,,
null,"<img src=""stim_listB/fight2.gif""style=""height:400px;""></stim_listB>",,html-keyboard-response,267,1150318,0.0-17.0-1.0,84161,List2B,black,man,,,,null,,,,
null,are fighting each other,,html-keyboard-response,268,1152325,0.0-17.0-2.0,84161,List2B,black,man,,,,null,,,,
10196,,,survey-text,269,1162522,0.0-17.0-3.0,84161,List2B,black,man,,,,,"{""Q0"":""luke and ruth are fighting each other""}","<img src=""stim_listB/fight2.gif""style=""height:400px;""></stim_listB>",are fighting each other,
null,"<div style=""font-size:60px;"">+</div>",,html-keyboard-response,270,1163031,0.0-17.0-0.1,84161,List2B,black,man,,,,null,,,,
null,"<img src=""stim_listB/argue6.gif""style=""height:400px;""></stim_listB>",,html-keyboard-response,271,1165033,0.0-17.0-1.1,84161,List2B,black,man,,,,null,,,,
null,are arguing with each other,,html-keyboard-response,272,1167035,0.0-17.0-2.1,84161,List2B,black,man,,,,null,,,,
12486,,,survey-text,273,1179522,0.0-17.0-3.1,84161,List2B,black,man,,,,,"{""Q0"":""luke and mike are arguing with each other""}","<img src=""stim_listB/argue6.gif""style=""height:400px;""></stim_listB>",are arguing with each other,
null,"<div style=""font-size:60px;"">+</div>",,html-keyboard-response,274,1180026,0.0-17.0-0.2,84161,List2B,black,man,,,,null,,,,
null,"<img src=""stim_listB/talk1.gif""style=""height:400px;""></stim_listB>",,html-keyboard-response,275,1182029,0.0-17.0-1.2,84161,List2B,black,man,,,,null,,,,
null,is talking to,,html-keyboard-response,276,1184040,0.0-17.0-2.2,84161,List2B,black,man,,,,null,,,,
12648,,,survey-text,277,1196689,0.0-17.0-3.2,84161,List2B,black,man,,,,,"{""Q0"":""luke is talking to jane""}","<img src=""stim_listB/talk1.gif""style=""height:400px;""></stim_listB>",is talking to,
null,"<div style=""font-size:60px;"">+</div>",,html-keyboard-response,278,1197203,0.0-17.0-0.3,84161,List2B,black,man,,,,null,,,,
null,"<img src=""stim_listB/shout2.gif""style=""height:400px;""></stim_listB>",,html-keyboard-response,279,1199205,0.0-17.0-1.3,84161,List2B,black,man,,,,null,,,,
null,are shouting at each other,,html-keyboard-response,280,1201217,0.0-17.0-2.3,84161,List2B,black,man,,,,null,,,,
15716,,,survey-text,281,1216934,0.0-17.0-3.3,84161,List2B,black,man,,,,,"{""Q0"":""dave and jane are fighting each other""}","<img src=""stim_listB/shout2.gif""style=""height:400px;""></stim_listB>",are shouting at each other,
null,"<div style=""font-size:60px;"">+</div>",,html-keyboard-response,282,1217435,0.0-17.0-0.4,84161,List2B,black,man,,,,null,,,,
null,"<img src=""stim_listB/fight5.gif""style=""height:400px;""></stim_listB>",,html-keyboard-response,283,1219437,0.0-17.0-1.4,84161,List2B,black,man,,,,null,,,,
null,is fighting,,html-keyboard-response,284,1221441,0.0-17.0-2.4,84161,List2B,black,man,,,,null,,,,
6435,,,survey-text,285,1227878,0.0-17.0-3.4,84161,List2B,black,man,,,,,"{""Q0"":""mike is fighting dave""}","<img src=""stim_listB/fight5.gif""style=""height:400px;""></stim_listB>",is fighting,
null,"<div style=""font-size:60px;"">+</div>",,html-keyboard-response,286,1228381,0.0-17.0-0.5,84161,List2B,black,man,,,,null,,,,
null,"<img src=""stim_listB/touch5.gif""style=""height:400px;""></stim_listB>",,html-keyboard-response,287,1230384,0.0-17.0-1.5,84161,List2B,black,man,,,,null,,,,
null,is touching,,html-keyboard-response,288,1232386,0.0-17.0-2.5,84161,List2B,black,man,,,,null,,,,
6084,,,survey-text,289,1238470,0.0-17.0-3.5,84161,List2B,black,man,,,,,"{""Q0"":""mike is touching dave""}","<img src=""stim_listB/touch5.gif""style=""height:400px;""></stim_listB>",is touching,
null,"<div style=""font-size:60px;"">+</div>",,html-keyboard-response,290,1238983,0.0-17.0-0.6,84161,List2B,black,man,,,,null,,,,
null,"<img src=""stim_listB/talk3.gif""style=""height:400px;""></stim_listB>",,html-keyboard-response,291,1240986,0.0-17.0-1.6,84161,List2B,black,man,,,,null,,,,
null,is talking to,,html-keyboard-response,292,1242992,0.0-17.0-2.6,84161,List2B,black,man,,,,null,,,,
9164,,,survey-text,293,1252157,0.0-17.0-3.6,84161,List2B,black,man,,,,,"{""Q0"":""fred is talking to kate""}","<img src=""stim_listB/talk3.gif""style=""height:400px;""></stim_listB>",is talking to,
null,"<div style=""font-size:60px;"">+</div>",,html-keyboard-response,294,1252671,0.0-17.0-0.7,84161,List2B,black,man,,,,null,,,,
null,"<img src=""stim_listB/flirt5.gif""style=""height:400px;""></stim_listB>",,html-keyboard-response,295,1254676,0.0-17.0-1.7,84161,List2B,black,man,,,,null,,,,
null,is flirting with,,html-keyboard-response,296,1256691,0.0-17.0-2.7,84161,List2B,black,man,,,,null,,,,
15988,,,survey-text,297,1272681,0.0-17.0-3.7,84161,List2B,black,man,,,,,"{""Q0"":""luke is flirting with mike""}","<img src=""stim_listB/flirt5.gif""style=""height:400px;""></stim_listB>",is flirting with,
null,"<div style=""font-size:60px;"">+</div>",,html-keyboard-response,298,1273189,0.0-17.0-0.8,84161,List2B,black,man,,,,null,,,,
null,"<img src=""stim_listB/shout8.gif""style=""height:400px;""></stim_listB>",,html-keyboard-response,299,1275192,0.0-17.0-1.8,84161,List2B,black,man,,,,null,,,,
null,are shouting at each other,,html-keyboard-response,300,1277207,0.0-17.0-2.8,84161,List2B,black,man,,,,null,,,,
17383,,,survey-text,301,1294592,0.0-17.0-3.8,84161,List2B,black,man,,,,,"{""Q0"":""jane and kate are arguing with each other""}","<img src=""stim_listB/shout8.gif""style=""height:400px;""></stim_listB>",are shouting at each other,
null,"<div style=""font-size:60px;"">+</div>",,html-keyboard-response,302,1295108,0.0-17.0-0.9,84161,List2B,black,man,,,,null,,,,
null,"<img src=""stim_listB/kiss5.gif""style=""height:400px;""></stim_listB>",,html-keyboard-response,303,1297112,0.0-17.0-1.9,84161,List2B,black,man,,,,null,,,,
null,is kissing,,html-keyboard-response,304,1299117,0.0-17.0-2.9,84161,List2B,black,man,,,,null,,,,
23217,,,survey-text,305,1322336,0.0-17.0-3.9,84161,List2B,black,man,,,,,"{""Q0"":""luke and fred are kissing each other""}","<img src=""stim_listB/kiss5.gif""style=""height:400px;""></stim_listB>",is kissing,
null,"<div style=""font-size:60px;"">+</div>",,html-keyboard-response,306,1322843,0.0-17.0-0.10,84161,List2B,black,man,,,,null,,,,
null,"<img src=""stim_listB/fight1.gif""style=""height:400px;""></stim_listB>",,html-keyboard-response,307,1324845,0.0-17.0-1.10,84161,List2B,black,man,,,,null,,,,
null,is fighting,,html-keyboard-response,308,1326857,0.0-17.0-2.10,84161,List2B,black,man,,,,null,,,,
14190,,,survey-text,309,1341049,0.0-17.0-3.10,84161,List2B,black,man,,,,,"{""Q0"":""jane is fighting with dave""}","<img src=""stim_listB/fight1.gif""style=""height:400px;""></stim_listB>",is fighting,
null,"<div style=""font-size:60px;"">+</div>",,html-keyboard-response,310,1341562,0.0-17.0-0.11,84161,List2B,black,man,,,,null,,,,
null,"<img src=""stim_listB/shout5.gif""style=""height:400px;""></stim_listB>",,html-keyboard-response,311,1343565,0.0-17.0-1.11,84161,List2B,black,man,,,,null,,,,
null,is shouting at,,html-keyboard-response,312,1345578,0.0-17.0-2.11,84161,List2B,black,man,,,,null,,,,
14013,,,survey-text,313,1359592,0.0-17.0-3.11,84161,List2B,black,man,,,,,"{""Q0"":""luke is shouting at fred""}","<img src=""stim_listB/shout5.gif""style=""height:400px;""></stim_listB>",is shouting at,
null,"<div style=""font-size:60px;"">+</div>",,html-keyboard-response,314,1360098,0.0-17.0-0.12,84161,List2B,black,man,,,,null,,,,
null,"<img src=""stim_listB/argue3.gif""style=""height:400px;""></stim_listB>",,html-keyboard-response,315,1362105,0.0-17.0-1.12,84161,List2B,black,man,,,,null,,,,
null,is arguing with,,html-keyboard-response,316,1364107,0.0-17.0-2.12,84161,List2B,black,man,,,,null,,,,
9011,,,survey-text,317,1373120,0.0-17.0-3.12,84161,List2B,black,man,,,,,"{""Q0"":""mike is arguing with beth""}","<img src=""stim_listB/argue3.gif""style=""height:400px;""></stim_listB>",is arguing with,
null,"<div style=""font-size:60px;"">+</div>",,html-keyboard-response,318,1373629,0.0-17.0-0.13,84161,List2B,black,man,,,,null,,,,
null,"<img src=""stim_listB/marry1.gif""style=""height:400px;""></stim_listB>",,html-keyboard-response,319,1375635,0.0-17.0-1.13,84161,List2B,black,man,,,,null,,,,
null,is marrying,,html-keyboard-response,320,1377651,0.0-17.0-2.13,84161,List2B,black,man,,,,null,,,,
17784,,,survey-text,321,1395436,0.0-17.0-3.13,84161,List2B,black,man,,,,,"{""Q0"":""ruth is marrying dave""}","<img src=""stim_listB/marry1.gif""style=""height:400px;""></stim_listB>",is marrying,
null,"<div style=""font-size:60px;"">+</div>",,html-keyboard-response,322,1395938,0.0-17.0-0.14,84161,List2B,black,man,,,,null,,,,
null,"<img src=""stim_listB/kiss3.gif""style=""height:400px;""></stim_listB>",,html-keyboard-response,323,1397941,0.0-17.0-1.14,84161,List2B,black,man,,,,null,,,,
null,is kissing,,html-keyboard-response,324,1399942,0.0-17.0-2.14,84161,List2B,black,man,,,,null,,,,
6724,,,survey-text,325,1406668,0.0-17.0-3.14,84161,List2B,black,man,,,,,"{""Q0"":""beth is kissing fred""}","<img src=""stim_listB/kiss3.gif""style=""height:400px;""></stim_listB>",is kissing,
null,"<div style=""font-size:60px;"">+</div>",,html-keyboard-response,326,1407169,0.0-17.0-0.15,84161,List2B,black,man,,,,null,,,,
null,"<img src=""stim_listB/marry2.gif""style=""height:400px;""></stim_listB>",,html-keyboard-response,327,1409172,0.0-17.0-1.15,84161,List2B,black,man,,,,null,,,,
null,are marrying each other,,html-keyboard-response,328,1411185,0.0-17.0-2.15,84161,List2B,black,man,,,,null,,,,
16050,,,survey-text,329,1427235,0.0-17.0-3.15,84161,List2B,black,man,,,,,"{""Q0"":""luke and jane are marrying each other""}","<img src=""stim_listB/marry2.gif""style=""height:400px;""></stim_listB>",are marrying each other,
null,"<div style=""font-size:60px;"">+</div>",,html-keyboard-response,330,1427745,0.0-17.0-0.16,84161,List2B,black,man,,,,null,,,,
null,"<img src=""stim_listB/flirt3.gif""style=""height:400px;""></stim_listB>",,html-keyboard-response,331,1429749,0.0-17.0-1.16,84161,List2B,black,man,,,,null,,,,
null,is flirting with,,html-keyboard-response,332,1431760,0.0-17.0-2.16,84161,List2B,black,man,,,,null,,,,
15731,,,survey-text,333,1447491,0.0-17.0-3.16,84161,List2B,black,man,,,,,"{""Q0"":""kate is flirting with fred""}","<img src=""stim_listB/flirt3.gif""style=""height:400px;""></stim_listB>",is flirting with,
null,"<div style=""font-size:60px;"">+</div>",,html-keyboard-response,334,1448005,0.0-17.0-0.17,84161,List2B,black,man,,,,null,,,,
null,"<img src=""stim_listB/fight3.gif""style=""height:400px;""></stim_listB>",,html-keyboard-response,335,1450011,0.0-17.0-1.17,84161,List2B,black,man,,,,null,,,,
null,is fighting,,html-keyboard-response,336,1452023,0.0-17.0-2.17,84161,List2B,black,man,,,,null,,,,
9886,,,survey-text,337,1461910,0.0-17.0-3.17,84161,List2B,black,man,,,,,"{""Q0"":""kate is fighting with mike""}","<img src=""stim_listB/fight3.gif""style=""height:400px;""></stim_listB>",is fighting,
null,"<div style=""font-size:60px;"">+</div>",,html-keyboard-response,338,1462419,0.0-17.0-0.18,84161,List2B,black,man,,,,null,,,,
null,"<img src=""stim_listB/dance8.gif""style=""height:400px;""></stim_listB>",,html-keyboard-response,339,1464421,0.0-17.0-1.18,84161,List2B,black,man,,,,null,,,,
null,are dancing with each other,,html-keyboard-response,340,1466434,0.0-17.0-2.18,84161,List2B,black,man,,,,null,,,,
11602,,,survey-text,341,1478038,0.0-17.0-3.18,84161,List2B,black,man,,,,,"{""Q0"":""beth and jane are dancing with each other""}","<img src=""stim_listB/dance8.gif""style=""height:400px;""></stim_listB>",are dancing with each other,
null,"<div style=""font-size:60px;"">+</div>",,html-keyboard-response,342,1478548,0.0-17.0-0.19,84161,List2B,black,man,,,,null,,,,
null,"<img src=""stim_listB/shout4.gif""style=""height:400px;""></stim_listB>",,html-keyboard-response,343,1480551,0.0-17.0-1.19,84161,List2B,black,man,,,,null,,,,
null,are shouting at each other,,html-keyboard-response,344,1482564,0.0-17.0-2.19,84161,List2B,black,man,,,,null,,,,
9960,,,survey-text,345,1492526,0.0-17.0-3.19,84161,List2B,black,man,,,,,"{""Q0"":""mike and kate are shouting at each other""}","<img src=""stim_listB/shout4.gif""style=""height:400px;""></stim_listB>",are shouting at each other,
2782,"<img src='img/portrait_matrix_list2.jpg' style='width:900px;height:500px;''></img><p>If you have memorised all the portraits and names and are ready to start, press Continue.</p><p><strong>Please note: Your memory of these faces will be tested 4 times during this experiment.</strong></p>",0,html-button-response,346,1495310,0.0-18.0-0.0,84161,List2B,black,man,,,,,,,,
2304,"<img src=""portrait/WM2.jpg""style=""height:400px;""></img>",7,html-button-response,347,1498630,0.0-18.0-1.0,84161,List2B,black,man,,TRUE,7,,,,,
null,CORRECT,,html-keyboard-response,348,1500156,0.0-18.0-2.0-0.0,84161,List2B,black,man,,,,null,,,,
2560,"<img src=""portrait/BM2.jpg""style=""height:400px;""></img>",5,html-button-response,349,1502718,0.0-18.0-4.0,84161,List2B,black,man,,TRUE,5,,,,,
null,CORRECT,,html-keyboard-response,350,1504224,0.0-18.0-5.0-0.0,84161,List2B,black,man,,,,null,,,,
2300,"<img src=""portrait/WM1.jpg""style=""height:400px;""></img>",6,html-button-response,351,1506526,0.0-18.0-7.0,84161,List2B,black,man,,TRUE,6,,,,,
null,CORRECT,,html-keyboard-response,352,1508053,0.0-18.0-8.0-0.0,84161,List2B,black,man,,,,null,,,,
2308,"<img src=""portrait/BM1.jpg""style=""height:400px;""></img>",4,html-button-response,353,1510363,0.0-18.0-10.0,84161,List2B,black,man,,TRUE,4,,,,,
null,CORRECT,,html-keyboard-response,354,1511891,0.0-18.0-11.0-0.0,84161,List2B,black,man,,,,null,,,,
2366,"<img src=""portrait/BW1.jpg""style=""height:400px;""></img>",0,html-button-response,355,1514259,0.0-18.0-13.0,84161,List2B,black,man,,TRUE,0,,,,,
null,CORRECT,,html-keyboard-response,356,1515788,0.0-18.0-14.0-0.0,84161,List2B,black,man,,,,null,,,,
2805,"<img src=""portrait/BW2.jpg""style=""height:400px;""></img>",2,html-button-response,357,1518595,0.0-18.0-16.0,84161,List2B,black,man,,TRUE,2,,,,,
null,CORRECT,,html-keyboard-response,358,1520106,0.0-18.0-17.0-0.0,84161,List2B,black,man,,,,null,,,,
2287,"<img src=""portrait/WW1.jpg""style=""height:400px;""></img>",1,html-button-response,359,1522395,0.0-18.0-19.0,84161,List2B,black,man,,TRUE,1,,,,,
null,CORRECT,,html-keyboard-response,360,1523917,0.0-18.0-20.0-0.0,84161,List2B,black,man,,,,null,,,,
2836,"<img src=""portrait/WW2.jpg""style=""height:400px;""></img>",3,html-button-response,361,1526754,0.0-18.0-22.0,84161,List2B,black,man,,TRUE,3,,,,,
null,CORRECT,,html-keyboard-response,362,1528286,0.0-18.0-23.0-0.0,84161,List2B,black,man,,,,null,,,,
1883,<p>You got 8 out of 8 right first time. Press Continue.</p>,0,html-button-response,363,1530170,0.0-18.0-25.0,84161,List2B,black,man,,,,,,,,
null,"<div style=""font-size:60px;"">+</div>",,html-keyboard-response,364,1531687,0.0-19.0-0.0,84161,List2B,black,man,,,,null,,,,
null,"<img src=""stim_listB/kiss4.gif""style=""height:400px;""></stim_listB>",,html-keyboard-response,365,1533695,0.0-19.0-1.0,84161,List2B,black,man,,,,null,,,,
null,are kissing each other,,html-keyboard-response,366,1535699,0.0-19.0-2.0,84161,List2B,black,man,,,,null,,,,
8902,,,survey-text,367,1544603,0.0-19.0-3.0,84161,List2B,black,man,,,,,"{""Q0"":""mike and kate are kissing each other""}","<img src=""stim_listB/kiss4.gif""style=""height:400px;""></stim_listB>",are kissing each other,
null,"<div style=""font-size:60px;"">+</div>",,html-keyboard-response,368,1545114,0.0-19.0-0.1,84161,List2B,black,man,,,,null,,,,
null,"<img src=""stim_listB/talk6.gif""style=""height:400px;""></stim_listB>",,html-keyboard-response,369,1547117,0.0-19.0-1.1,84161,List2B,black,man,,,,null,,,,
null,are talking to each other,,html-keyboard-response,370,1549118,0.0-19.0-2.1,84161,List2B,black,man,,,,null,,,,
14571,,,survey-text,371,1563690,0.0-19.0-3.1,84161,List2B,black,man,,,,,"{""Q0"":""fred and mike are talking to each other""}","<img src=""stim_listB/talk6.gif""style=""height:400px;""></stim_listB>",are talking to each other,
null,"<div style=""font-size:60px;"">+</div>",,html-keyboard-response,372,1564197,0.0-19.0-0.2,84161,List2B,black,man,,,,null,,,,
null,"<img src=""stim_listB/play6.gif""style=""height:400px;""></stim_listB>",,html-keyboard-response,373,1566199,0.0-19.0-1.2,84161,List2B,black,man,,,,null,,,,
null,are playing with each other,,html-keyboard-response,374,1568205,0.0-19.0-2.2,84161,List2B,black,man,,,,null,,,,
11204,,,survey-text,375,1579411,0.0-19.0-3.2,84161,List2B,black,man,,,,,"{""Q0"":""fred and luke are playing with each other""}","<img src=""stim_listB/play6.gif""style=""height:400px;""></stim_listB>",are playing with each other,
null,"<div style=""font-size:60px;"">+</div>",,html-keyboard-response,376,1579918,0.0-19.0-0.3,84161,List2B,black,man,,,,null,,,,
null,"<img src=""stim_listB/dance6.gif""style=""height:400px;""></stim_listB>",,html-keyboard-response,377,1581920,0.0-19.0-1.3,84161,List2B,black,man,,,,null,,,,
null,are dancing with each other,,html-keyboard-response,378,1583930,0.0-19.0-2.3,84161,List2B,black,man,,,,null,,,,
12647,,,survey-text,379,1596579,0.0-19.0-3.3,84161,List2B,black,man,,,,,"{""Q0"":""fred and dave are dancing with each other""}","<img src=""stim_listB/dance6.gif""style=""height:400px;""></stim_listB>",are dancing with each other,
null,"<div style=""font-size:60px;"">+</div>",,html-keyboard-response,380,1597081,0.0-19.0-0.4,84161,List2B,black,man,,,,null,,,,
null,"<img src=""stim_listB/kiss7.gif""style=""height:400px;""></stim_listB>",,html-keyboard-response,381,1599084,0.0-19.0-1.4,84161,List2B,black,man,,,,null,,,,
null,is kissing,,html-keyboard-response,382,1601097,0.0-19.0-2.4,84161,List2B,black,man,,,,null,,,,
6505,,,survey-text,383,1607603,0.0-19.0-3.4,84161,List2B,black,man,,,,,"{""Q0"":""beth is kissing ruth""}","<img src=""stim_listB/kiss7.gif""style=""height:400px;""></stim_listB>",is kissing,
null,"<div style=""font-size:60px;"">+</div>",,html-keyboard-response,384,1608108,0.0-19.0-0.5,84161,List2B,black,man,,,,null,,,,
null,"<img src=""stim_listB/fight7.gif""style=""height:400px;""></stim_listB>",,html-keyboard-response,385,1610109,0.0-19.0-1.5,84161,List2B,black,man,,,,null,,,,
null,is fighting,,html-keyboard-response,386,1612121,0.0-19.0-2.5,84161,List2B,black,man,,,,null,,,,
6729,,,survey-text,387,1618851,0.0-19.0-3.5,84161,List2B,black,man,,,,,"{""Q0"":""jane is fighting with kate""}","<img src=""stim_listB/fight7.gif""style=""height:400px;""></stim_listB>",is fighting,
null,"<div style=""font-size:60px;"">+</div>",,html-keyboard-response,388,1619357,0.0-19.0-0.6,84161,List2B,black,man,,,,null,,,,
null,"<img src=""stim_listB/flirt1.gif""style=""height:400px;""></stim_listB>",,html-keyboard-response,389,1621359,0.0-19.0-1.6,84161,List2B,black,man,,,,null,,,,
null,is flirting with,,html-keyboard-response,390,1623362,0.0-19.0-2.6,84161,List2B,black,man,,,,null,,,,
10054,,,survey-text,391,1633418,0.0-19.0-3.6,84161,List2B,black,man,,,,,"{""Q0"":""luke is flirting with jane""}","<img src=""stim_listB/flirt1.gif""style=""height:400px;""></stim_listB>",is flirting with,
null,"<div style=""font-size:60px;"">+</div>",,html-keyboard-response,392,1633919,0.0-19.0-0.7,84161,List2B,black,man,,,,null,,,,
null,"<img src=""stim_listB/marry6.gif""style=""height:400px;""></stim_listB>",,html-keyboard-response,393,1635926,0.0-19.0-1.7,84161,List2B,black,man,,,,null,,,,
null,are marrying each other,,html-keyboard-response,394,1637928,0.0-19.0-2.7,84161,List2B,black,man,,,,null,,,,
8257,,,survey-text,395,1646186,0.0-19.0-3.7,84161,List2B,black,man,,,,,"{""Q0"":""luke and mike are marrying each other""}","<img src=""stim_listB/marry6.gif""style=""height:400px;""></stim_listB>",are marrying each other,
null,"<div style=""font-size:60px;"">+</div>",,html-keyboard-response,396,1646690,0.0-19.0-0.8,84161,List2B,black,man,,,,null,,,,
null,"<img src=""stim_listB/kiss1.gif""style=""height:400px;""></stim_listB>",,html-keyboard-response,397,1648692,0.0-19.0-1.8,84161,List2B,black,man,,,,null,,,,
null,is kissing,,html-keyboard-response,398,1650703,0.0-19.0-2.8,84161,List2B,black,man,,,,null,,,,
10233,,,survey-text,399,1660938,0.0-19.0-3.8,84161,List2B,black,man,,,,,"{""Q0"":""luke is kissing ruth""}","<img src=""stim_listB/kiss1.gif""style=""height:400px;""></stim_listB>",is kissing,
null,"<div style=""font-size:60px;"">+</div>",,html-keyboard-response,400,1661440,0.0-19.0-0.9,84161,List2B,black,man,,,,null,,,,
null,"<img src=""stim_listB/touch4.gif""style=""height:400px;""></stim_listB>",,html-keyboard-response,401,1663442,0.0-19.0-1.9,84161,List2B,black,man,,,,null,,,,
null,are touching each other,,html-keyboard-response,402,1665448,0.0-19.0-2.9,84161,List2B,black,man,,,,null,,,,
10488,,,survey-text,403,1675937,0.0-19.0-3.9,84161,List2B,black,man,,,,,"{""Q0"":""beth and fred are touching each other""}","<img src=""stim_listB/touch4.gif""style=""height:400px;""></stim_listB>",are touching each other,
null,"<div style=""font-size:60px;"">+</div>",,html-keyboard-response,404,1676444,0.0-19.0-0.10,84161,List2B,black,man,,,,null,,,,
null,"<img src=""stim_listB/play3.gif""style=""height:400px;""></stim_listB>",,html-keyboard-response,405,1678450,0.0-19.0-1.10,84161,List2B,black,man,,,,null,,,,
null,is playing with,,html-keyboard-response,406,1680452,0.0-19.0-2.10,84161,List2B,black,man,,,,null,,,,
6621,,,survey-text,407,1687073,0.0-19.0-3.10,84161,List2B,black,man,,,,,"{""Q0"":""mike is playing with kate""}","<img src=""stim_listB/play3.gif""style=""height:400px;""></stim_listB>",is playing with,
null,"<div style=""font-size:60px;"">+</div>",,html-keyboard-response,408,1687577,0.0-19.0-0.11,84161,List2B,black,man,,,,null,,,,
null,"<img src=""stim_listB/talk7.gif""style=""height:400px;""></stim_listB>",,html-keyboard-response,409,1689583,0.0-19.0-1.11,84161,List2B,black,man,,,,null,,,,
null,is talking to,,html-keyboard-response,410,1691599,0.0-19.0-2.11,84161,List2B,black,man,,,,null,,,,
10498,,,survey-text,411,1702098,0.0-19.0-3.11,84161,List2B,black,man,,,,,"{""Q0"":""ruth is talking to kate""}","<img src=""stim_listB/talk7.gif""style=""height:400px;""></stim_listB>",is talking to,
null,"<div style=""font-size:60px;"">+</div>",,html-keyboard-response,412,1702612,0.0-19.0-0.12,84161,List2B,black,man,,,,null,,,,
null,"<img src=""stim_listB/flirt7.gif""style=""height:400px;""></stim_listB>",,html-keyboard-response,413,1704624,0.0-19.0-1.12,84161,List2B,black,man,,,,null,,,,
null,is flirting with,,html-keyboard-response,414,1706626,0.0-19.0-2.12,84161,List2B,black,man,,,,null,,,,
8135,,,survey-text,415,1714762,0.0-19.0-3.12,84161,List2B,black,man,,,,,"{""Q0"":""ruth is flirting with kate""}","<img src=""stim_listB/flirt7.gif""style=""height:400px;""></stim_listB>",is flirting with,
null,"<div style=""font-size:60px;"">+</div>",,html-keyboard-response,416,1715264,0.0-19.0-0.13,84161,List2B,black,man,,,,null,,,,
null,"<img src=""stim_listB/kiss8.gif""style=""height:400px;""></stim_listB>",,html-keyboard-response,417,1717273,0.0-19.0-1.13,84161,List2B,black,man,,,,null,,,,
null,are kissing each other,,html-keyboard-response,418,1719289,0.0-19.0-2.13,84161,List2B,black,man,,,,null,,,,
11895,,,survey-text,419,1731186,0.0-19.0-3.13,84161,List2B,black,man,,,,,"{""Q0"":""jane and kate are kissing each other""}","<img src=""stim_listB/kiss8.gif""style=""height:400px;""></stim_listB>",are kissing each other,
null,"<div style=""font-size:60px;"">+</div>",,html-keyboard-response,420,1731702,0.0-19.0-0.14,84161,List2B,black,man,,,,null,,,,
null,"<img src=""stim_listB/fight4.gif""style=""height:400px;""></stim_listB>",,html-keyboard-response,421,1734201,0.0-19.0-1.14,84161,List2B,black,man,,,,null,,,,
null,are fighting each other,,html-keyboard-response,422,1736202,0.0-19.0-2.14,84161,List2B,black,man,,,,null,,,,
20291,,,survey-text,423,1756494,0.0-19.0-3.14,84161,List2B,black,man,,,,,"{""Q0"":""beth and fred are fighting each other""}","<img src=""stim_listB/fight4.gif""style=""height:400px;""></stim_listB>",are fighting each other,
null,"<div style=""font-size:60px;"">+</div>",,html-keyboard-response,424,1757010,0.0-19.0-0.15,84161,List2B,black,man,,,,null,,,,
null,"<img src=""stim_listB/touch1.gif""style=""height:400px;""></stim_listB>",,html-keyboard-response,425,1759012,0.0-19.0-1.15,84161,List2B,black,man,,,,null,,,,
null,is touching,,html-keyboard-response,426,1761013,0.0-19.0-2.15,84161,List2B,black,man,,,,null,,,,
5639,,,survey-text,427,1766653,0.0-19.0-3.15,84161,List2B,black,man,,,,,"{""Q0"":""jane is touching dave""}","<img src=""stim_listB/touch1.gif""style=""height:400px;""></stim_listB>",is touching,
null,"<div style=""font-size:60px;"">+</div>",,html-keyboard-response,428,1767172,0.0-19.0-0.16,84161,List2B,black,man,,,,null,,,,
null,"<img src=""stim_listB/dance1.gif""style=""height:400px;""></stim_listB>",,html-keyboard-response,429,1769174,0.0-19.0-1.16,84161,List2B,black,man,,,,null,,,,
null,is dancing with,,html-keyboard-response,430,1771176,0.0-19.0-2.16,84161,List2B,black,man,,,,null,,,,
6588,,,survey-text,431,1777765,0.0-19.0-3.16,84161,List2B,black,man,,,,,"{""Q0"":""jane is dancing with luke""}","<img src=""stim_listB/dance1.gif""style=""height:400px;""></stim_listB>",is dancing with,
null,"<div style=""font-size:60px;"">+</div>",,html-keyboard-response,432,1778271,0.0-19.0-0.17,84161,List2B,black,man,,,,null,,,,
null,"<img src=""stim_listB/kiss2.gif""style=""height:400px;""></stim_listB>",,html-keyboard-response,433,1780274,0.0-19.0-1.17,84161,List2B,black,man,,,,null,,,,
null,are kissing each other,,html-keyboard-response,434,1782284,0.0-19.0-2.17,84161,List2B,black,man,,,,null,,,,
11288,,,survey-text,435,1793573,0.0-19.0-3.17,84161,List2B,black,man,,,,,"{""Q0"":""jane and dave are kissing each other""}","<img src=""stim_listB/kiss2.gif""style=""height:400px;""></stim_listB>",are kissing each other,
null,"<div style=""font-size:60px;"">+</div>",,html-keyboard-response,436,1794075,0.0-19.0-0.18,84161,List2B,black,man,,,,null,,,,
null,"<img src=""stim_listB/flirt4.gif""style=""height:400px;""></stim_listB>",,html-keyboard-response,437,1796080,0.0-19.0-1.18,84161,List2B,black,man,,,,null,,,,
null,are flirting with each other,,html-keyboard-response,438,1798093,0.0-19.0-2.18,84161,List2B,black,man,,,,null,,,,
12103,,,survey-text,439,1810197,0.0-19.0-3.18,84161,List2B,black,man,,,,,"{""Q0"":""mike and beth are flirting with each other""}","<img src=""stim_listB/flirt4.gif""style=""height:400px;""></stim_listB>",are flirting with each other,
null,"<div style=""font-size:60px;"">+</div>",,html-keyboard-response,440,1810704,0.0-19.0-0.19,84161,List2B,black,man,,,,null,,,,
null,"<img src=""stim_listB/talk4.gif""style=""height:400px;""></stim_listB>",,html-keyboard-response,441,1812708,0.0-19.0-1.19,84161,List2B,black,man,,,,null,,,,
null,are talking to each other,,html-keyboard-response,442,1814709,0.0-19.0-2.19,84161,List2B,black,man,,,,null,,,,
11452,,,survey-text,443,1826162,0.0-19.0-3.19,84161,List2B,black,man,,,,,"{""Q0"":""mike and beth are talking to each other""}","<img src=""stim_listB/talk4.gif""style=""height:400px;""></stim_listB>",are talking to each other,
2975,<p>Thank you for completing that task.</p><p>The final part of this session is a short questionnaire.</p><p>Press Continue.</p>,0,html-button-response,444,1829138,0.0-20.0,84161,List2B,black,man,,,,,,,,
39027,,,survey-text,445,1869170,0.0-21.0,84161,List2B,black,man,,,,,"{""Q0"":""31"",""Q1"":""English"",""Q2"":""English"",""Q3"":""United Kingdom"",""Q4"":""Black - Black British"",""Q5"":""Male""}",,,demographics
9680,,,survey-likert,446,1878853,0.0-22.0,84161,List2B,black,man,,,,,"{""Q0"":4}",,,likert_ESS
8486,,,survey-likert,447,1887341,0.0-23.0,84161,List2B,black,man,,,,,"{""Q0"":4}",,,likert_NSSAL_Q1
3141,,,survey-likert,448,1890484,0.0-24.0,84161,List2B,black,man,,,,,"{""Q0"":4}",,,likert_NSSAL_Q2
5070,,,survey-likert,449,1895556,0.0-25.0,84161,List2B,black,man,,,,,"{""Q0"":4}",,,likert_CGRS_Q1
2870,,,survey-likert,450,1898428,0.0-26.0,84161,List2B,black,man,,,,,"{""Q0"":4}",,,likert_CGRS_Q2
3142,,,survey-likert,451,1901572,0.0-27.0,84161,List2B,black,man,,,,,"{""Q0"":4}",,,likert_CGRS_Q3
8574,,,survey-text,452,1910147,0.0-28.0,84161,List2B,black,man,,,,,"{""Q0"":""ccc""}",,,worker_id
12077,,,external-html,453,1923371,0.0-29.0,84161,List2B,black,man,debrief.html,,,,,,,
