rt,stimulus,button_pressed,trial_type,trial_index,time_elapsed,internal_node_id,subject,list,ppt_race,ppt_gender,url,first_guess,correct,key_press,responses,image_type,phrase_type,test_part
3255,Welcome to the experiment. Press Continue to begin.,0,html-button-response,0,3319,0.0-0.0,84413,List2B,black,man,,,,,,,,
17095,,,external-html,1,21595,0.0-1.0,84413,List2B,black,man,consent.html,,,,,,,
4419,"<p>On the next page, you will see portraits of 8 people and their names.</p><p>Your first task is to take a few minutes to memorise the names of these people.</p><p>You will have to recall their names during the rest of the experiment, so it is</p><p>essential that you try to memorise these people and their names as best as you can.</p><br><p><strong>You will then be tested on your memory of these names and portraits.</strong></p><br><p>The experiment will start after you have completed this memory test.</p><br><p>Ready?</p>",0,html-button-response,2,26016,0.0-2.0,84413,List2B,black,man,,,,,,,,
47113,"<img src='img/portrait_matrix_list2.jpg' style='width:900px;height:500px;''></img><p>If you have memorised all the portraits and names and are ready to start, press Continue.</p><p><strong>Please note: Your memory of these faces will be tested 4 times during this experiment.</strong></p>",0,html-button-response,3,74144,0.0-3.0-0.0,84413,List2B,black,man,,,,,,,,
2613,"<img src=""portrait/WW2.jpg""style=""height:400px;""></img>",3,html-button-response,4,77765,0.0-3.0-1.0,84413,List2B,black,man,,TRUE,3,,,,,
null,CORRECT,,html-keyboard-response,5,79295,0.0-3.0-2.0-0.0,84413,List2B,black,man,,,,null,,,,
3067,"<img src=""portrait/BW1.jpg""style=""height:400px;""></img>",0,html-button-response,6,82364,0.0-3.0-4.0,84413,List2B,black,man,,TRUE,0,,,,,
null,CORRECT,,html-keyboard-response,7,83971,0.0-3.0-5.0-0.0,84413,List2B,black,man,,,,null,,,,
2101,"<img src=""portrait/BW2.jpg""style=""height:400px;""></img>",2,html-button-response,8,86074,0.0-3.0-7.0,84413,List2B,black,man,,TRUE,2,,,,,
null,CORRECT,,html-keyboard-response,9,87578,0.0-3.0-8.0-0.0,84413,List2B,black,man,,,,null,,,,
3792,"<img src=""portrait/WM1.jpg""style=""height:400px;""></img>",6,html-button-response,10,91372,0.0-3.0-10.0,84413,List2B,black,man,,TRUE,6,,,,,
null,CORRECT,,html-keyboard-response,11,92888,0.0-3.0-11.0-0.0,84413,List2B,black,man,,,,null,,,,
2035,"<img src=""portrait/BM1.jpg""style=""height:400px;""></img>",4,html-button-response,12,94925,0.0-3.0-13.0,84413,List2B,black,man,,TRUE,4,,,,,
null,CORRECT,,html-keyboard-response,13,96428,0.0-3.0-14.0-0.0,84413,List2B,black,man,,,,null,,,,
3358,"<img src=""portrait/WW1.jpg""style=""height:400px;""></img>",1,html-button-response,14,99787,0.0-3.0-16.0,84413,List2B,black,man,,TRUE,1,,,,,
null,CORRECT,,html-keyboard-response,15,101309,0.0-3.0-17.0-0.0,84413,List2B,black,man,,,,null,,,,
2990,"<img src=""portrait/BM2.jpg""style=""height:400px;""></img>",5,html-button-response,16,104301,0.0-3.0-19.0,84413,List2B,black,man,,TRUE,5,,,,,
null,CORRECT,,html-keyboard-response,17,105819,0.0-3.0-20.0-0.0,84413,List2B,black,man,,,,null,,,,
2371,"<img src=""portrait/WM2.jpg""style=""height:400px;""></img>",7,html-button-response,18,108191,0.0-3.0-22.0,84413,List2B,black,man,,TRUE,7,,,,,
null,CORRECT,,html-keyboard-response,19,109703,0.0-3.0-23.0-0.0,84413,List2B,black,man,,,,null,,,,
2099,<p>You got 8 out of 8 right first time. Press Continue.</p>,0,html-button-response,20,111804,0.0-3.0-25.0,84413,List2B,black,man,,,,,,,,
27847,"<p>In this experiment, you will view photographs of the people from the memory game interacting.</p><p>By using the <strong>exact</strong> phrase given <i>after</i> the photograph appears and recalling the correct names of the people in the photographs, form a sentence describing the interaction. You do not need to capitalise names.</p><p>Type your answer in the space provided. Please complete every sentence before moving onto the next trial.</p><p>You will only have a few seconds to memorise each given photograph and phrase before you can respond, so try your best to focus.</p><p>An example is given below. Press 'Continue' when you are ready.</p><img src='img/speaking_example.jpg' style='width:800px;height:460px;''></img>",0,html-button-response,21,140659,0.0-4.0,84413,List2B,black,man,,,,,,,,
1983,"<p>Before the experiment starts, you will watch two example trials. Press 'Continue'.</p>",0,html-button-response,22,143648,0.0-5.0,84413,List2B,black,man,,,,,,,,
null,<img src='img/meet_eg.gif' style='height:400px;''></img>,,html-keyboard-response,23,146653,0.0-6.0,84413,List2B,black,man,,,,null,,,,
null,<p>is meeting</p>,,html-keyboard-response,24,148655,0.0-7.0,84413,List2B,black,man,,,,null,,,,
2856,<p><b>Answer:</b> jane is meeting ruth</p>,0,html-button-response,25,151513,0.0-8.0,84413,List2B,black,man,,,,,,,,
null,<img src='img/look_eg.gif' style='height:400px;''></img>,,html-keyboard-response,26,154516,0.0-9.0,84413,List2B,black,man,,,,null,,,,
null,<p>are looking at each other</p>,,html-keyboard-response,27,156527,0.0-10.0,84413,List2B,black,man,,,,null,,,,
1593,<p><b>Answer:</b> fred and mike are looking at each other</p>,0,html-button-response,28,158121,0.0-11.0,84413,List2B,black,man,,,,,,,,
20387,"<p>Ready to start the experiment?</p><br><p><strong>Remember to describe the picture using a full sentence,</strong></p><p><strong>that combines the names of the people with the <i>exact</i> phrase given.</strong></p><p><strong>To receive full payment you must do this correctly.</strong></p><p><strong> You do not need to capitalise names or use punctuation.</strong></p><br><p>Press 'Continue' to begin.</p>",0,html-button-response,29,179527,0.0-12.0,84413,List2B,black,man,,,,,,,,
null,"<div style=""font-size:60px;"">+</div>",,html-keyboard-response,30,181380,0.0-13.0-0.0,84413,List2B,black,man,,,,null,,,,
null,"<img src=""stim_listB/talk7.gif""style=""height:400px;""></stim_listB>",,html-keyboard-response,31,183386,0.0-13.0-1.0,84413,List2B,black,man,,,,null,,,,
null,is talking to,,html-keyboard-response,32,185390,0.0-13.0-2.0,84413,List2B,black,man,,,,null,,,,
11353,,,survey-text,33,196745,0.0-13.0-3.0,84413,List2B,black,man,,,,,"{""Q0"":""ruth is talking to kate""}","<img src=""stim_listB/talk7.gif""style=""height:400px;""></stim_listB>",is talking to,
null,"<div style=""font-size:60px;"">+</div>",,html-keyboard-response,34,197253,0.0-13.0-0.1,84413,List2B,black,man,,,,null,,,,
null,"<img src=""stim_listB/talk1.gif""style=""height:400px;""></stim_listB>",,html-keyboard-response,35,199255,0.0-13.0-1.1,84413,List2B,black,man,,,,null,,,,
null,is talking to,,html-keyboard-response,36,201261,0.0-13.0-2.1,84413,List2B,black,man,,,,null,,,,
10404,,,survey-text,37,211666,0.0-13.0-3.1,84413,List2B,black,man,,,,,"{""Q0"":""luke is talking to jane""}","<img src=""stim_listB/talk1.gif""style=""height:400px;""></stim_listB>",is talking to,
null,"<div style=""font-size:60px;"">+</div>",,html-keyboard-response,38,212180,0.0-13.0-0.2,84413,List2B,black,man,,,,null,,,,
null,"<img src=""stim_listB/shout8.gif""style=""height:400px;""></stim_listB>",,html-keyboard-response,39,214182,0.0-13.0-1.2,84413,List2B,black,man,,,,null,,,,
null,are shouting at each other,,html-keyboard-response,40,216193,0.0-13.0-2.2,84413,List2B,black,man,,,,null,,,,
25641,,,survey-text,41,241837,0.0-13.0-3.2,84413,List2B,black,man,,,,,"{""Q0"":""jane and kate are shouting at each other""}","<img src=""stim_listB/shout8.gif""style=""height:400px;""></stim_listB>",are shouting at each other,
null,"<div style=""font-size:60px;"">+</div>",,html-keyboard-response,42,242341,0.0-13.0-0.3,84413,List2B,black,man,,,,null,,,,
null,"<img src=""stim_listB/dance2.gif""style=""height:400px;""></stim_listB>",,html-keyboard-response,43,244366,0.0-13.0-1.3,84413,List2B,black,man,,,,null,,,,
null,are dancing with each other,,html-keyboard-response,44,246379,0.0-13.0-2.3,84413,List2B,black,man,,,,null,,,,
19173,,,survey-text,45,265554,0.0-13.0-3.3,84413,List2B,black,man,,,,,"{""Q0"":""ruth and dave are dancing with each other""}","<img src=""stim_listB/dance2.gif""style=""height:400px;""></stim_listB>",are dancing with each other,
null,"<div style=""font-size:60px;"">+</div>",,html-keyboard-response,46,266057,0.0-13.0-0.4,84413,List2B,black,man,,,,null,,,,
null,"<img src=""stim_listB/flirt2.gif""style=""height:400px;""></stim_listB>",,html-keyboard-response,47,268061,0.0-13.0-1.4,84413,List2B,black,man,,,,null,,,,
null,are flirting with each other,,html-keyboard-response,48,270064,0.0-13.0-2.4,84413,List2B,black,man,,,,null,,,,
14246,,,survey-text,49,284310,0.0-13.0-3.4,84413,List2B,black,man,,,,,"{""Q0"":""ruth and dave are flirting with each other""}","<img src=""stim_listB/flirt2.gif""style=""height:400px;""></stim_listB>",are flirting with each other,
null,"<div style=""font-size:60px;"">+</div>",,html-keyboard-response,50,284817,0.0-13.0-0.5,84413,List2B,black,man,,,,null,,,,
null,"<img src=""stim_listB/fight8.gif""style=""height:400px;""></stim_listB>",,html-keyboard-response,51,286819,0.0-13.0-1.5,84413,List2B,black,man,,,,null,,,,
null,are fighting each other,,html-keyboard-response,52,288839,0.0-13.0-2.5,84413,List2B,black,man,,,,null,,,,
12467,,,survey-text,53,301308,0.0-13.0-3.5,84413,List2B,black,man,,,,,"{""Q0"":""ruth and beth are fighting each other""}","<img src=""stim_listB/fight8.gif""style=""height:400px;""></stim_listB>",are fighting each other,
null,"<div style=""font-size:60px;"">+</div>",,html-keyboard-response,54,301810,0.0-13.0-0.6,84413,List2B,black,man,,,,null,,,,
null,"<img src=""stim_listB/play8.gif""style=""height:400px;""></stim_listB>",,html-keyboard-response,55,303812,0.0-13.0-1.6,84413,List2B,black,man,,,,null,,,,
null,are playing with each other,,html-keyboard-response,56,305824,0.0-13.0-2.6,84413,List2B,black,man,,,,null,,,,
13227,,,survey-text,57,319053,0.0-13.0-3.6,84413,List2B,black,man,,,,,"{""Q0"":""ruth and beth are playing with each other""}","<img src=""stim_listB/play8.gif""style=""height:400px;""></stim_listB>",are playing with each other,
null,"<div style=""font-size:60px;"">+</div>",,html-keyboard-response,58,319569,0.0-13.0-0.7,84413,List2B,black,man,,,,null,,,,
null,"<img src=""stim_listB/flirt6.gif""style=""height:400px;""></stim_listB>",,html-keyboard-response,59,321571,0.0-13.0-1.7,84413,List2B,black,man,,,,null,,,,
null,are flirting with each other,,html-keyboard-response,60,323593,0.0-13.0-2.7,84413,List2B,black,man,,,,null,,,,
16505,,,survey-text,61,340099,0.0-13.0-3.7,84413,List2B,black,man,,,,,"{""Q0"":""dave and fred are flirting with each other""}","<img src=""stim_listB/flirt6.gif""style=""height:400px;""></stim_listB>",are flirting with each other,
null,"<div style=""font-size:60px;"">+</div>",,html-keyboard-response,62,340616,0.0-13.0-0.8,84413,List2B,black,man,,,,null,,,,
null,"<img src=""stim_listB/play5.gif""style=""height:400px;""></stim_listB>",,html-keyboard-response,63,342638,0.0-13.0-1.8,84413,List2B,black,man,,,,null,,,,
null,is playing with,,html-keyboard-response,64,344660,0.0-13.0-2.8,84413,List2B,black,man,,,,null,,,,
12379,,,survey-text,65,357041,0.0-13.0-3.8,84413,List2B,black,man,,,,,"{""Q0"":""mike is playing with dave""}","<img src=""stim_listB/play5.gif""style=""height:400px;""></stim_listB>",is playing with,
null,"<div style=""font-size:60px;"">+</div>",,html-keyboard-response,66,357602,0.0-13.0-0.9,84413,List2B,black,man,,,,null,,,,
null,"<img src=""stim_listB/talk8.gif""style=""height:400px;""></stim_listB>",,html-keyboard-response,67,359659,0.0-13.0-1.9,84413,List2B,black,man,,,,null,,,,
null,are talking to each other,,html-keyboard-response,68,361661,0.0-13.0-2.9,84413,List2B,black,man,,,,null,,,,
12623,,,survey-text,69,374284,0.0-13.0-3.9,84413,List2B,black,man,,,,,"{""Q0"":""beth and jane are talking to each other""}","<img src=""stim_listB/talk8.gif""style=""height:400px;""></stim_listB>",are talking to each other,
null,"<div style=""font-size:60px;"">+</div>",,html-keyboard-response,70,374797,0.0-13.0-0.10,84413,List2B,black,man,,,,null,,,,
null,"<img src=""stim_listB/talk4.gif""style=""height:400px;""></stim_listB>",,html-keyboard-response,71,376810,0.0-13.0-1.10,84413,List2B,black,man,,,,null,,,,
null,are talking to each other,,html-keyboard-response,72,378825,0.0-13.0-2.10,84413,List2B,black,man,,,,null,,,,
14101,,,survey-text,73,392927,0.0-13.0-3.10,84413,List2B,black,man,,,,,"{""Q0"":""beth and mike are talking to each other""}","<img src=""stim_listB/talk4.gif""style=""height:400px;""></stim_listB>",are talking to each other,
null,"<div style=""font-size:60px;"">+</div>",,html-keyboard-response,74,393432,0.0-13.0-0.11,84413,List2B,black,man,,,,null,,,,
null,"<img src=""stim_listB/touch1.gif""style=""height:400px;""></stim_listB>",,html-keyboard-response,75,395435,0.0-13.0-1.11,84413,List2B,black,man,,,,null,,,,
null,is touching,,html-keyboard-response,76,397436,0.0-13.0-2.11,84413,List2B,black,man,,,,null,,,,
10211,,,survey-text,77,407647,0.0-13.0-3.11,84413,List2B,black,man,,,,,"{""Q0"":""jane is touching dave""}","<img src=""stim_listB/touch1.gif""style=""height:400px;""></stim_listB>",is touching,
null,"<div style=""font-size:60px;"">+</div>",,html-keyboard-response,78,408148,0.0-13.0-0.12,84413,List2B,black,man,,,,null,,,,
null,"<img src=""stim_listB/kiss7.gif""style=""height:400px;""></stim_listB>",,html-keyboard-response,79,410158,0.0-13.0-1.12,84413,List2B,black,man,,,,null,,,,
null,is kissing,,html-keyboard-response,80,412167,0.0-13.0-2.12,84413,List2B,black,man,,,,null,,,,
8995,,,survey-text,81,421162,0.0-13.0-3.12,84413,List2B,black,man,,,,,"{""Q0"":""ruth is kissing beth""}","<img src=""stim_listB/kiss7.gif""style=""height:400px;""></stim_listB>",is kissing,
null,"<div style=""font-size:60px;"">+</div>",,html-keyboard-response,82,421664,0.0-13.0-0.13,84413,List2B,black,man,,,,null,,,,
null,"<img src=""stim_listB/kiss4.gif""style=""height:400px;""></stim_listB>",,html-keyboard-response,83,423667,0.0-13.0-1.13,84413,List2B,black,man,,,,null,,,,
null,are kissing each other,,html-keyboard-response,84,425687,0.0-13.0-2.13,84413,List2B,black,man,,,,null,,,,
32183,,,survey-text,85,457871,0.0-13.0-3.13,84413,List2B,black,man,,,,,"{""Q0"":""mike and kate are kissing each other""}","<img src=""stim_listB/kiss4.gif""style=""height:400px;""></stim_listB>",are kissing each other,
null,"<div style=""font-size:60px;"">+</div>",,html-keyboard-response,86,458388,0.0-13.0-0.14,84413,List2B,black,man,,,,null,,,,
null,"<img src=""stim_listB/talk6.gif""style=""height:400px;""></stim_listB>",,html-keyboard-response,87,460390,0.0-13.0-1.14,84413,List2B,black,man,,,,null,,,,
null,are talking to each other,,html-keyboard-response,88,462412,0.0-13.0-2.14,84413,List2B,black,man,,,,null,,,,
23077,,,survey-text,89,485492,0.0-13.0-3.14,84413,List2B,black,man,,,,,"{""Q0"":""dave and fred are talking to each other""}","<img src=""stim_listB/talk6.gif""style=""height:400px;""></stim_listB>",are talking to each other,
null,"<div style=""font-size:60px;"">+</div>",,html-keyboard-response,90,486009,0.0-13.0-0.15,84413,List2B,black,man,,,,null,,,,
null,"<img src=""stim_listB/shout4.gif""style=""height:400px;""></stim_listB>",,html-keyboard-response,91,488012,0.0-13.0-1.15,84413,List2B,black,man,,,,null,,,,
null,are shouting at each other,,html-keyboard-response,92,490032,0.0-13.0-2.15,84413,List2B,black,man,,,,null,,,,
30734,,,survey-text,93,520768,0.0-13.0-3.15,84413,List2B,black,man,,,,,"{""Q0"":""kate and mike are shouting at each other""}","<img src=""stim_listB/shout4.gif""style=""height:400px;""></stim_listB>",are shouting at each other,
null,"<div style=""font-size:60px;"">+</div>",,html-keyboard-response,94,521270,0.0-13.0-0.16,84413,List2B,black,man,,,,null,,,,
null,"<img src=""stim_listB/dance4.gif""style=""height:400px;""></stim_listB>",,html-keyboard-response,95,523273,0.0-13.0-1.16,84413,List2B,black,man,,,,null,,,,
null,are dancing with each other,,html-keyboard-response,96,525283,0.0-13.0-2.16,84413,List2B,black,man,,,,null,,,,
27123,,,survey-text,97,552408,0.0-13.0-3.16,84413,List2B,black,man,,,,,"{""Q0"":""mike and beth are dancing with each other""}","<img src=""stim_listB/dance4.gif""style=""height:400px;""></stim_listB>",are dancing with each other,
null,"<div style=""font-size:60px;"">+</div>",,html-keyboard-response,98,552921,0.0-13.0-0.17,84413,List2B,black,man,,,,null,,,,
null,"<img src=""stim_listB/argue3.gif""style=""height:400px;""></stim_listB>",,html-keyboard-response,99,554928,0.0-13.0-1.17,84413,List2B,black,man,,,,null,,,,
null,is arguing with,,html-keyboard-response,100,556934,0.0-13.0-2.17,84413,List2B,black,man,,,,null,,,,
8813,,,survey-text,101,565749,0.0-13.0-3.17,84413,List2B,black,man,,,,,"{""Q0"":""mike is arguing with beth""}","<img src=""stim_listB/argue3.gif""style=""height:400px;""></stim_listB>",is arguing with,
null,"<div style=""font-size:60px;"">+</div>",,html-keyboard-response,102,566267,0.0-13.0-0.18,84413,List2B,black,man,,,,null,,,,
null,"<img src=""stim_listB/touch2.gif""style=""height:400px;""></stim_listB>",,html-keyboard-response,103,568270,0.0-13.0-1.18,84413,List2B,black,man,,,,null,,,,
null,are touching each other,,html-keyboard-response,104,570278,0.0-13.0-2.18,84413,List2B,black,man,,,,null,,,,
13969,,,survey-text,105,584248,0.0-13.0-3.18,84413,List2B,black,man,,,,,"{""Q0"":""ruth and luke are touching each other""}","<img src=""stim_listB/touch2.gif""style=""height:400px;""></stim_listB>",are touching each other,
null,"<div style=""font-size:60px;"">+</div>",,html-keyboard-response,106,584764,0.0-13.0-0.19,84413,List2B,black,man,,,,null,,,,
null,"<img src=""stim_listB/kiss2.gif""style=""height:400px;""></stim_listB>",,html-keyboard-response,107,586776,0.0-13.0-1.19,84413,List2B,black,man,,,,null,,,,
null,are kissing each other,,html-keyboard-response,108,588787,0.0-13.0-2.19,84413,List2B,black,man,,,,null,,,,
11135,,,survey-text,109,599922,0.0-13.0-3.19,84413,List2B,black,man,,,,,"{""Q0"":""jane and dave are kissing each other""}","<img src=""stim_listB/kiss2.gif""style=""height:400px;""></stim_listB>",are kissing each other,
12476,"<img src='img/portrait_matrix_list2.jpg' style='width:900px;height:500px;''></img><p>If you have memorised all the portraits and names and are ready to start, press Continue.</p><p><strong>Please note: Your memory of these faces will be tested 4 times during this experiment.</strong></p>",0,html-button-response,110,612400,0.0-14.0-0.0,84413,List2B,black,man,,,,,,,,
3934,"<img src=""portrait/BM1.jpg""style=""height:400px;""></img>",4,html-button-response,111,617345,0.0-14.0-1.0,84413,List2B,black,man,,TRUE,4,,,,,
null,CORRECT,,html-keyboard-response,112,618875,0.0-14.0-2.0-0.0,84413,List2B,black,man,,,,null,,,,
3839,"<img src=""portrait/WW1.jpg""style=""height:400px;""></img>",1,html-button-response,113,622714,0.0-14.0-4.0,84413,List2B,black,man,,TRUE,1,,,,,
null,CORRECT,,html-keyboard-response,114,624249,0.0-14.0-5.0-0.0,84413,List2B,black,man,,,,null,,,,
2007,"<img src=""portrait/BW2.jpg""style=""height:400px;""></img>",2,html-button-response,115,626258,0.0-14.0-7.0,84413,List2B,black,man,,TRUE,2,,,,,
null,CORRECT,,html-keyboard-response,116,627784,0.0-14.0-8.0-0.0,84413,List2B,black,man,,,,null,,,,
4871,"<img src=""portrait/WM1.jpg""style=""height:400px;""></img>",6,html-button-response,117,632657,0.0-14.0-10.0,84413,List2B,black,man,,TRUE,6,,,,,
null,CORRECT,,html-keyboard-response,118,634160,0.0-14.0-11.0-0.0,84413,List2B,black,man,,,,null,,,,
2185,"<img src=""portrait/BM2.jpg""style=""height:400px;""></img>",5,html-button-response,119,636347,0.0-14.0-13.0,84413,List2B,black,man,,TRUE,5,,,,,
null,CORRECT,,html-keyboard-response,120,637872,0.0-14.0-14.0-0.0,84413,List2B,black,man,,,,null,,,,
1472,"<img src=""portrait/WW2.jpg""style=""height:400px;""></img>",3,html-button-response,121,639347,0.0-14.0-16.0,84413,List2B,black,man,,TRUE,3,,,,,
null,CORRECT,,html-keyboard-response,122,640871,0.0-14.0-17.0-0.0,84413,List2B,black,man,,,,null,,,,
1961,"<img src=""portrait/BW1.jpg""style=""height:400px;""></img>",0,html-button-response,123,642833,0.0-14.0-19.0,84413,List2B,black,man,,TRUE,0,,,,,
null,CORRECT,,html-keyboard-response,124,644353,0.0-14.0-20.0-0.0,84413,List2B,black,man,,,,null,,,,
2877,"<img src=""portrait/WM2.jpg""style=""height:400px;""></img>",7,html-button-response,125,647232,0.0-14.0-22.0,84413,List2B,black,man,,TRUE,7,,,,,
null,CORRECT,,html-keyboard-response,126,648763,0.0-14.0-23.0-0.0,84413,List2B,black,man,,,,null,,,,
1615,<p>You got 8 out of 8 right first time. Press Continue.</p>,0,html-button-response,127,650379,0.0-14.0-25.0,84413,List2B,black,man,,,,,,,,
null,"<div style=""font-size:60px;"">+</div>",,html-keyboard-response,128,651912,0.0-15.0-0.0,84413,List2B,black,man,,,,null,,,,
null,"<img src=""stim_listB/marry4.gif""style=""height:400px;""></stim_listB>",,html-keyboard-response,129,653913,0.0-15.0-1.0,84413,List2B,black,man,,,,null,,,,
null,are marrying each other,,html-keyboard-response,130,655926,0.0-15.0-2.0,84413,List2B,black,man,,,,null,,,,
13575,,,survey-text,131,669501,0.0-15.0-3.0,84413,List2B,black,man,,,,,"{""Q0"":""fred and kate are marrying each other""}","<img src=""stim_listB/marry4.gif""style=""height:400px;""></stim_listB>",are marrying each other,
null,"<div style=""font-size:60px;"">+</div>",,html-keyboard-response,132,670002,0.0-15.0-0.1,84413,List2B,black,man,,,,null,,,,
null,"<img src=""stim_listB/kiss8.gif""style=""height:400px;""></stim_listB>",,html-keyboard-response,133,672006,0.0-15.0-1.1,84413,List2B,black,man,,,,null,,,,
null,are kissing each other,,html-keyboard-response,134,674009,0.0-15.0-2.1,84413,List2B,black,man,,,,null,,,,
16355,,,survey-text,135,690366,0.0-15.0-3.1,84413,List2B,black,man,,,,,"{""Q0"":""kate and jane are kissing each other""}","<img src=""stim_listB/kiss8.gif""style=""height:400px;""></stim_listB>",are kissing each other,
null,"<div style=""font-size:60px;"">+</div>",,html-keyboard-response,136,690869,0.0-15.0-0.2,84413,List2B,black,man,,,,null,,,,
null,"<img src=""stim_listB/fight2.gif""style=""height:400px;""></stim_listB>",,html-keyboard-response,137,692872,0.0-15.0-1.2,84413,List2B,black,man,,,,null,,,,
null,are fighting each other,,html-keyboard-response,138,694874,0.0-15.0-2.2,84413,List2B,black,man,,,,null,,,,
17011,,,survey-text,139,711887,0.0-15.0-3.2,84413,List2B,black,man,,,,,"{""Q0"":""ruth and luke are fighting each other""}","<img src=""stim_listB/fight2.gif""style=""height:400px;""></stim_listB>",are fighting each other,
null,"<div style=""font-size:60px;"">+</div>",,html-keyboard-response,140,712408,0.0-15.0-0.3,84413,List2B,black,man,,,,null,,,,
null,"<img src=""stim_listB/play3.gif""style=""height:400px;""></stim_listB>",,html-keyboard-response,141,714411,0.0-15.0-1.3,84413,List2B,black,man,,,,null,,,,
null,is playing with,,html-keyboard-response,142,716431,0.0-15.0-2.3,84413,List2B,black,man,,,,null,,,,
10704,,,survey-text,143,727135,0.0-15.0-3.3,84413,List2B,black,man,,,,,"{""Q0"":""mike is playing with kate""}","<img src=""stim_listB/play3.gif""style=""height:400px;""></stim_listB>",is playing with,
null,"<div style=""font-size:60px;"">+</div>",,html-keyboard-response,144,727655,0.0-15.0-0.4,84413,List2B,black,man,,,,null,,,,
null,"<img src=""stim_listB/argue5.gif""style=""height:400px;""></stim_listB>",,html-keyboard-response,145,729658,0.0-15.0-1.4,84413,List2B,black,man,,,,null,,,,
null,is arguing with,,html-keyboard-response,146,731674,0.0-15.0-2.4,84413,List2B,black,man,,,,null,,,,
21203,,,survey-text,147,752880,0.0-15.0-3.4,84413,List2B,black,man,,,,,"{""Q0"":""dave is arguing with fred""}","<img src=""stim_listB/argue5.gif""style=""height:400px;""></stim_listB>",is arguing with,
null,"<div style=""font-size:60px;"">+</div>",,html-keyboard-response,148,753384,0.0-15.0-0.5,84413,List2B,black,man,,,,null,,,,
null,"<img src=""stim_listB/touch5.gif""style=""height:400px;""></stim_listB>",,html-keyboard-response,149,755385,0.0-15.0-1.5,84413,List2B,black,man,,,,null,,,,
null,is touching,,html-keyboard-response,150,757406,0.0-15.0-2.5,84413,List2B,black,man,,,,null,,,,
13838,,,survey-text,151,771245,0.0-15.0-3.5,84413,List2B,black,man,,,,,"{""Q0"":""mike is touching dave""}","<img src=""stim_listB/touch5.gif""style=""height:400px;""></stim_listB>",is touching,
null,"<div style=""font-size:60px;"">+</div>",,html-keyboard-response,152,771761,0.0-15.0-0.6,84413,List2B,black,man,,,,null,,,,
null,"<img src=""stim_listB/fight7.gif""style=""height:400px;""></stim_listB>",,html-keyboard-response,153,773763,0.0-15.0-1.6,84413,List2B,black,man,,,,null,,,,
null,is fighting,,html-keyboard-response,154,775773,0.0-15.0-2.6,84413,List2B,black,man,,,,null,,,,
9410,,,survey-text,155,785183,0.0-15.0-3.6,84413,List2B,black,man,,,,,"{""Q0"":""kate is fighting jane""}","<img src=""stim_listB/fight7.gif""style=""height:400px;""></stim_listB>",is fighting,
null,"<div style=""font-size:60px;"">+</div>",,html-keyboard-response,156,785688,0.0-15.0-0.7,84413,List2B,black,man,,,,null,,,,
null,"<img src=""stim_listB/kiss1.gif""style=""height:400px;""></stim_listB>",,html-keyboard-response,157,787692,0.0-15.0-1.7,84413,List2B,black,man,,,,null,,,,
null,is kissing,,html-keyboard-response,158,789701,0.0-15.0-2.7,84413,List2B,black,man,,,,null,,,,
10454,,,survey-text,159,800156,0.0-15.0-3.7,84413,List2B,black,man,,,,,"{""Q0"":""luke is kissing ruth""}","<img src=""stim_listB/kiss1.gif""style=""height:400px;""></stim_listB>",is kissing,
null,"<div style=""font-size:60px;"">+</div>",,html-keyboard-response,160,800672,0.0-15.0-0.8,84413,List2B,black,man,,,,null,,,,
null,"<img src=""stim_listB/play4.gif""style=""height:400px;""></stim_listB>",,html-keyboard-response,161,802683,0.0-15.0-1.8,84413,List2B,black,man,,,,null,,,,
null,are playing with each other,,html-keyboard-response,162,804685,0.0-15.0-2.8,84413,List2B,black,man,,,,null,,,,
18126,,,survey-text,163,822812,0.0-15.0-3.8,84413,List2B,black,man,,,,,"{""Q0"":""beth and fred are playing with each other""}","<img src=""stim_listB/play4.gif""style=""height:400px;""></stim_listB>",are playing with each other,
null,"<div style=""font-size:60px;"">+</div>",,html-keyboard-response,164,823326,0.0-15.0-0.9,84413,List2B,black,man,,,,null,,,,
null,"<img src=""stim_listB/touch8.gif""style=""height:400px;""></stim_listB>",,html-keyboard-response,165,825328,0.0-15.0-1.9,84413,List2B,black,man,,,,null,,,,
null,are touching each other,,html-keyboard-response,166,827350,0.0-15.0-2.9,84413,List2B,black,man,,,,null,,,,
14801,,,survey-text,167,842153,0.0-15.0-3.9,84413,List2B,black,man,,,,,"{""Q0"":""beth and ruth are touching each other""}","<img src=""stim_listB/touch8.gif""style=""height:400px;""></stim_listB>",are touching each other,
null,"<div style=""font-size:60px;"">+</div>",,html-keyboard-response,168,842669,0.0-15.0-0.10,84413,List2B,black,man,,,,null,,,,
null,"<img src=""stim_listB/dance7.gif""style=""height:400px;""></stim_listB>",,html-keyboard-response,169,844682,0.0-15.0-1.10,84413,List2B,black,man,,,,null,,,,
null,is dancing with,,html-keyboard-response,170,846692,0.0-15.0-2.10,84413,List2B,black,man,,,,null,,,,
11161,,,survey-text,171,857855,0.0-15.0-3.10,84413,List2B,black,man,,,,,"{""Q0"":""kate is dancing with ruth""}","<img src=""stim_listB/dance7.gif""style=""height:400px;""></stim_listB>",is dancing with,
null,"<div style=""font-size:60px;"">+</div>",,html-keyboard-response,172,858365,0.0-15.0-0.11,84413,List2B,black,man,,,,null,,,,
null,"<img src=""stim_listB/dance8.gif""style=""height:400px;""></stim_listB>",,html-keyboard-response,173,860367,0.0-15.0-1.11,84413,List2B,black,man,,,,null,,,,
null,are dancing with each other,,html-keyboard-response,174,862388,0.0-15.0-2.11,84413,List2B,black,man,,,,null,,,,
15318,,,survey-text,175,877707,0.0-15.0-3.11,84413,List2B,black,man,,,,,"{""Q0"":""jane and beth are dancing with each other""}","<img src=""stim_listB/dance8.gif""style=""height:400px;""></stim_listB>",are dancing with each other,
null,"<div style=""font-size:60px;"">+</div>",,html-keyboard-response,176,878224,0.0-15.0-0.12,84413,List2B,black,man,,,,null,,,,
null,"<img src=""stim_listB/dance5.gif""style=""height:400px;""></stim_listB>",,html-keyboard-response,177,880227,0.0-15.0-1.12,84413,List2B,black,man,,,,null,,,,
null,is dancing with,,html-keyboard-response,178,882249,0.0-15.0-2.12,84413,List2B,black,man,,,,null,,,,
12684,,,survey-text,179,894934,0.0-15.0-3.12,84413,List2B,black,man,,,,,"{""Q0"":""mike is dancing with luke""}","<img src=""stim_listB/dance5.gif""style=""height:400px;""></stim_listB>",is dancing with,
null,"<div style=""font-size:60px;"">+</div>",,html-keyboard-response,180,895444,0.0-15.0-0.13,84413,List2B,black,man,,,,null,,,,
null,"<img src=""stim_listB/shout2.gif""style=""height:400px;""></stim_listB>",,html-keyboard-response,181,897446,0.0-15.0-1.13,84413,List2B,black,man,,,,null,,,,
null,are shouting at each other,,html-keyboard-response,182,899467,0.0-15.0-2.13,84413,List2B,black,man,,,,null,,,,
14843,,,survey-text,183,914311,0.0-15.0-3.13,84413,List2B,black,man,,,,,"{""Q0"":""jane and dave are shouting at each other""}","<img src=""stim_listB/shout2.gif""style=""height:400px;""></stim_listB>",are shouting at each other,
null,"<div style=""font-size:60px;"">+</div>",,html-keyboard-response,184,914816,0.0-15.0-0.14,84413,List2B,black,man,,,,null,,,,
null,"<img src=""stim_listB/shout6.gif""style=""height:400px;""></stim_listB>",,html-keyboard-response,185,916828,0.0-15.0-1.14,84413,List2B,black,man,,,,null,,,,
null,are shouting at each other,,html-keyboard-response,186,918829,0.0-15.0-2.14,84413,List2B,black,man,,,,null,,,,
12438,,,survey-text,187,931267,0.0-15.0-3.14,84413,List2B,black,man,,,,,"{""Q0"":""dave and mike are shouting at each other""}","<img src=""stim_listB/shout6.gif""style=""height:400px;""></stim_listB>",are shouting at each other,
null,"<div style=""font-size:60px;"">+</div>",,html-keyboard-response,188,931782,0.0-15.0-0.15,84413,List2B,black,man,,,,null,,,,
null,"<img src=""stim_listB/touch4.gif""style=""height:400px;""></stim_listB>",,html-keyboard-response,189,933786,0.0-15.0-1.15,84413,List2B,black,man,,,,null,,,,
null,are touching each other,,html-keyboard-response,190,935804,0.0-15.0-2.15,84413,List2B,black,man,,,,null,,,,
13166,,,survey-text,191,948972,0.0-15.0-3.15,84413,List2B,black,man,,,,,"{""Q0"":""beth and fred are touching each other""}","<img src=""stim_listB/touch4.gif""style=""height:400px;""></stim_listB>",are touching each other,
null,"<div style=""font-size:60px;"">+</div>",,html-keyboard-response,192,949489,0.0-15.0-0.16,84413,List2B,black,man,,,,null,,,,
null,"<img src=""stim_listB/fight6.gif""style=""height:400px;""></stim_listB>",,html-keyboard-response,193,951490,0.0-15.0-1.16,84413,List2B,black,man,,,,null,,,,
null,are fighting each other,,html-keyboard-response,194,953501,0.0-15.0-2.16,84413,List2B,black,man,,,,null,,,,
13545,,,survey-text,195,967046,0.0-15.0-3.16,84413,List2B,black,man,,,,,"{""Q0"":""luke and fred are fighting each other""}","<img src=""stim_listB/fight6.gif""style=""height:400px;""></stim_listB>",are fighting each other,
null,"<div style=""font-size:60px;"">+</div>",,html-keyboard-response,196,967551,0.0-15.0-0.17,84413,List2B,black,man,,,,null,,,,
null,"<img src=""stim_listB/shout1.gif""style=""height:400px;""></stim_listB>",,html-keyboard-response,197,969563,0.0-15.0-1.17,84413,List2B,black,man,,,,null,,,,
null,is shouting at,,html-keyboard-response,198,971584,0.0-15.0-2.17,84413,List2B,black,man,,,,null,,,,
14584,,,survey-text,199,986170,0.0-15.0-3.17,84413,List2B,black,man,,,,,"{""Q0"":""ruth is shouting at luke""}","<img src=""stim_listB/shout1.gif""style=""height:400px;""></stim_listB>",is shouting at,
null,"<div style=""font-size:60px;"">+</div>",,html-keyboard-response,200,986691,0.0-15.0-0.18,84413,List2B,black,man,,,,null,,,,
null,"<img src=""stim_listB/marry5.gif""style=""height:400px;""></stim_listB>",,html-keyboard-response,201,988694,0.0-15.0-1.18,84413,List2B,black,man,,,,null,,,,
null,is marrying,,html-keyboard-response,202,990703,0.0-15.0-2.18,84413,List2B,black,man,,,,null,,,,
8101,,,survey-text,203,998805,0.0-15.0-3.18,84413,List2B,black,man,,,,,"{""Q0"":""fred is marrying dave""}","<img src=""stim_listB/marry5.gif""style=""height:400px;""></stim_listB>",is marrying,
null,"<div style=""font-size:60px;"">+</div>",,html-keyboard-response,204,999321,0.0-15.0-0.19,84413,List2B,black,man,,,,null,,,,
null,"<img src=""stim_listB/dance3.gif""style=""height:400px;""></stim_listB>",,html-keyboard-response,205,1001330,0.0-15.0-1.19,84413,List2B,black,man,,,,null,,,,
null,is dancing with,,html-keyboard-response,206,1003340,0.0-15.0-2.19,84413,List2B,black,man,,,,null,,,,
16102,,,survey-text,207,1019443,0.0-15.0-3.19,84413,List2B,black,man,,,,,"{""Q0"":""kate is dancing with fred""}","<img src=""stim_listB/dance3.gif""style=""height:400px;""></stim_listB>",is dancing with,
17839,"<img src='img/portrait_matrix_list2.jpg' style='width:900px;height:500px;''></img><p>If you have memorised all the portraits and names and are ready to start, press Continue.</p><p><strong>Please note: Your memory of these faces will be tested 4 times during this experiment.</strong></p>",0,html-button-response,208,1037284,0.0-16.0-0.0,84413,List2B,black,man,,,,,,,,
2919,"<img src=""portrait/BW2.jpg""style=""height:400px;""></img>",3,html-button-response,209,1041206,0.0-16.0-1.0,84413,List2B,black,man,,TRUE,2,,,,,
4735,"<img src=""portrait/BW2.jpg""style=""height:400px;""></img>",2,html-button-response,210,1046966,0.0-16.0-3.0-0.0,84413,List2B,black,man,,FALSE,2,,,,,
null,CORRECT,,html-keyboard-response,211,1048484,0.0-16.0-3.0-1.0-0.0,84413,List2B,black,man,,,,null,,,,
1819,"<img src=""portrait/BM1.jpg""style=""height:400px;""></img>",4,html-button-response,212,1050306,0.0-16.0-4.0,84413,List2B,black,man,,TRUE,4,,,,,
null,CORRECT,,html-keyboard-response,213,1051818,0.0-16.0-5.0-0.0,84413,List2B,black,man,,,,null,,,,
2040,"<img src=""portrait/WM2.jpg""style=""height:400px;""></img>",7,html-button-response,214,1053860,0.0-16.0-7.0,84413,List2B,black,man,,TRUE,7,,,,,
null,CORRECT,,html-keyboard-response,215,1055373,0.0-16.0-8.0-0.0,84413,List2B,black,man,,,,null,,,,
2097,"<img src=""portrait/BM2.jpg""style=""height:400px;""></img>",5,html-button-response,216,1057473,0.0-16.0-10.0,84413,List2B,black,man,,TRUE,5,,,,,
null,CORRECT,,html-keyboard-response,217,1058986,0.0-16.0-11.0-0.0,84413,List2B,black,man,,,,null,,,,
2136,"<img src=""portrait/BW1.jpg""style=""height:400px;""></img>",0,html-button-response,218,1061124,0.0-16.0-13.0,84413,List2B,black,man,,TRUE,0,,,,,
null,CORRECT,,html-keyboard-response,219,1062646,0.0-16.0-14.0-0.0,84413,List2B,black,man,,,,null,,,,
1809,"<img src=""portrait/WW2.jpg""style=""height:400px;""></img>",3,html-button-response,220,1064456,0.0-16.0-16.0,84413,List2B,black,man,,TRUE,3,,,,,
null,CORRECT,,html-keyboard-response,221,1065988,0.0-16.0-17.0-0.0,84413,List2B,black,man,,,,null,,,,
2904,"<img src=""portrait/WM1.jpg""style=""height:400px;""></img>",6,html-button-response,222,1068893,0.0-16.0-19.0,84413,List2B,black,man,,TRUE,6,,,,,
null,CORRECT,,html-keyboard-response,223,1070417,0.0-16.0-20.0-0.0,84413,List2B,black,man,,,,null,,,,
3651,"<img src=""portrait/WW1.jpg""style=""height:400px;""></img>",1,html-button-response,224,1074069,0.0-16.0-22.0,84413,List2B,black,man,,TRUE,1,,,,,
null,CORRECT,,html-keyboard-response,225,1075578,0.0-16.0-23.0-0.0,84413,List2B,black,man,,,,null,,,,
2159,<p>You got 7 out of 8 right first time. Press Continue.</p>,0,html-button-response,226,1077739,0.0-16.0-25.0,84413,List2B,black,man,,,,,,,,
3556,"As you did not score 100%, the memory game will repeat. Press Continue.",0,html-button-response,227,1082312,0.0-16.0-26.0-0.0,84413,List2B,black,man,,,,,,,,
2067,"<img src='img/portrait_matrix_list2.jpg' style='width:900px;height:500px;''></img><p>If you have memorised all the portraits and names and are ready to start, press Continue.</p><p><strong>Please note: Your memory of these faces will be tested 4 times during this experiment.</strong></p>",0,html-button-response,228,1085390,0.0-16.1-0.1,84413,List2B,black,man,,,,,,,,
2225,"<img src=""portrait/BW2.jpg""style=""height:400px;""></img>",2,html-button-response,229,1088634,0.0-16.1-1.1,84413,List2B,black,man,,TRUE,2,,,,,
null,CORRECT,,html-keyboard-response,230,1090166,0.0-16.1-2.1-0.1,84413,List2B,black,man,,,,null,,,,
1677,"<img src=""portrait/BM1.jpg""style=""height:400px;""></img>",4,html-button-response,231,1091847,0.0-16.1-4.1,84413,List2B,black,man,,TRUE,4,,,,,
null,CORRECT,,html-keyboard-response,232,1093366,0.0-16.1-5.1-0.1,84413,List2B,black,man,,,,null,,,,
2363,"<img src=""portrait/WM2.jpg""style=""height:400px;""></img>",7,html-button-response,233,1095732,0.0-16.1-7.1,84413,List2B,black,man,,TRUE,7,,,,,
null,CORRECT,,html-keyboard-response,234,1097247,0.0-16.1-8.1-0.1,84413,List2B,black,man,,,,null,,,,
2846,"<img src=""portrait/BM2.jpg""style=""height:400px;""></img>",5,html-button-response,235,1100095,0.0-16.1-10.1,84413,List2B,black,man,,TRUE,5,,,,,
null,CORRECT,,html-keyboard-response,236,1101608,0.0-16.1-11.1-0.1,84413,List2B,black,man,,,,null,,,,
1913,"<img src=""portrait/BW1.jpg""style=""height:400px;""></img>",0,html-button-response,237,1103522,0.0-16.1-13.1,84413,List2B,black,man,,TRUE,0,,,,,
null,CORRECT,,html-keyboard-response,238,1105033,0.0-16.1-14.1-0.1,84413,List2B,black,man,,,,null,,,,
2974,"<img src=""portrait/WW2.jpg""style=""height:400px;""></img>",3,html-button-response,239,1108008,0.0-16.1-16.1,84413,List2B,black,man,,TRUE,3,,,,,
null,CORRECT,,html-keyboard-response,240,1109512,0.0-16.1-17.1-0.1,84413,List2B,black,man,,,,null,,,,
2260,"<img src=""portrait/WM1.jpg""style=""height:400px;""></img>",6,html-button-response,241,1111774,0.0-16.1-19.1,84413,List2B,black,man,,TRUE,6,,,,,
null,CORRECT,,html-keyboard-response,242,1113311,0.0-16.1-20.1-0.1,84413,List2B,black,man,,,,null,,,,
2664,"<img src=""portrait/WW1.jpg""style=""height:400px;""></img>",1,html-button-response,243,1115978,0.0-16.1-22.1,84413,List2B,black,man,,TRUE,1,,,,,
null,CORRECT,,html-keyboard-response,244,1117489,0.0-16.1-23.1-0.1,84413,List2B,black,man,,,,null,,,,
1518,<p>You got 8 out of 8 right first time. Press Continue.</p>,0,html-button-response,245,1119007,0.0-16.1-25.1,84413,List2B,black,man,,,,,,,,
null,"<div style=""font-size:60px;"">+</div>",,html-keyboard-response,246,1120534,0.0-17.0-0.0,84413,List2B,black,man,,,,null,,,,
null,"<img src=""stim_listB/kiss3.gif""style=""height:400px;""></stim_listB>",,html-keyboard-response,247,1122545,0.0-17.0-1.0,84413,List2B,black,man,,,,null,,,,
null,is kissing,,html-keyboard-response,248,1124557,0.0-17.0-2.0,84413,List2B,black,man,,,,null,,,,
7372,,,survey-text,249,1131931,0.0-17.0-3.0,84413,List2B,black,man,,,,,"{""Q0"":""fred is kissing beth""}","<img src=""stim_listB/kiss3.gif""style=""height:400px;""></stim_listB>",is kissing,
null,"<div style=""font-size:60px;"">+</div>",,html-keyboard-response,250,1132450,0.0-17.0-0.1,84413,List2B,black,man,,,,null,,,,
null,"<img src=""stim_listB/marry1.gif""style=""height:400px;""></stim_listB>",,html-keyboard-response,251,1134458,0.0-17.0-1.1,84413,List2B,black,man,,,,null,,,,
null,is marrying,,html-keyboard-response,252,1136468,0.0-17.0-2.1,84413,List2B,black,man,,,,null,,,,
9890,,,survey-text,253,1146359,0.0-17.0-3.1,84413,List2B,black,man,,,,,"{""Q0"":""ruth is marrying dave""}","<img src=""stim_listB/marry1.gif""style=""height:400px;""></stim_listB>",is marrying,
null,"<div style=""font-size:60px;"">+</div>",,html-keyboard-response,254,1146877,0.0-17.0-0.2,84413,List2B,black,man,,,,null,,,,
null,"<img src=""stim_listB/argue4.gif""style=""height:400px;""></stim_listB>",,html-keyboard-response,255,1148881,0.0-17.0-1.2,84413,List2B,black,man,,,,null,,,,
null,are arguing with each other,,html-keyboard-response,256,1150889,0.0-17.0-2.2,84413,List2B,black,man,,,,null,,,,
12037,,,survey-text,257,1162928,0.0-17.0-3.2,84413,List2B,black,man,,,,,"{""Q0"":""jane and fred are arguing with each other""}","<img src=""stim_listB/argue4.gif""style=""height:400px;""></stim_listB>",are arguing with each other,
null,"<div style=""font-size:60px;"">+</div>",,html-keyboard-response,258,1163431,0.0-17.0-0.3,84413,List2B,black,man,,,,null,,,,
null,"<img src=""stim_listB/touch3.gif""style=""height:400px;""></stim_listB>",,html-keyboard-response,259,1165435,0.0-17.0-1.3,84413,List2B,black,man,,,,null,,,,
null,is touching,,html-keyboard-response,260,1167443,0.0-17.0-2.3,84413,List2B,black,man,,,,null,,,,
8416,,,survey-text,261,1175861,0.0-17.0-3.3,84413,List2B,black,man,,,,,"{""Q0"":""mike is touching kate""}","<img src=""stim_listB/touch3.gif""style=""height:400px;""></stim_listB>",is touching,
null,"<div style=""font-size:60px;"">+</div>",,html-keyboard-response,262,1176382,0.0-17.0-0.4,84413,List2B,black,man,,,,null,,,,
null,"<img src=""stim_listB/kiss6.gif""style=""height:400px;""></stim_listB>",,html-keyboard-response,263,1178385,0.0-17.0-1.4,84413,List2B,black,man,,,,null,,,,
null,are kissing each other,,html-keyboard-response,264,1180405,0.0-17.0-2.4,84413,List2B,black,man,,,,null,,,,
14508,,,survey-text,265,1194914,0.0-17.0-3.4,84413,List2B,black,man,,,,,"{""Q0"":""mike and dave are kissing each other""}","<img src=""stim_listB/kiss6.gif""style=""height:400px;""></stim_listB>",are kissing each other,
null,"<div style=""font-size:60px;"">+</div>",,html-keyboard-response,266,1195420,0.0-17.0-0.5,84413,List2B,black,man,,,,null,,,,
null,"<img src=""stim_listB/marry6.gif""style=""height:400px;""></stim_listB>",,html-keyboard-response,267,1197424,0.0-17.0-1.5,84413,List2B,black,man,,,,null,,,,
null,are marrying each other,,html-keyboard-response,268,1199426,0.0-17.0-2.5,84413,List2B,black,man,,,,null,,,,
11153,,,survey-text,269,1210580,0.0-17.0-3.5,84413,List2B,black,man,,,,,"{""Q0"":""mike and luke are marrying each other""}","<img src=""stim_listB/marry6.gif""style=""height:400px;""></stim_listB>",are marrying each other,
null,"<div style=""font-size:60px;"">+</div>",,html-keyboard-response,270,1211084,0.0-17.0-0.6,84413,List2B,black,man,,,,null,,,,
null,"<img src=""stim_listB/play6.gif""style=""height:400px;""></stim_listB>",,html-keyboard-response,271,1213085,0.0-17.0-1.6,84413,List2B,black,man,,,,null,,,,
null,are playing with each other,,html-keyboard-response,272,1215086,0.0-17.0-2.6,84413,List2B,black,man,,,,null,,,,
13119,,,survey-text,273,1228207,0.0-17.0-3.6,84413,List2B,black,man,,,,,"{""Q0"":""luke and fred are playing with each other""}","<img src=""stim_listB/play6.gif""style=""height:400px;""></stim_listB>",are playing with each other,
null,"<div style=""font-size:60px;"">+</div>",,html-keyboard-response,274,1228711,0.0-17.0-0.7,84413,List2B,black,man,,,,null,,,,
null,"<img src=""stim_listB/shout5.gif""style=""height:400px;""></stim_listB>",,html-keyboard-response,275,1230723,0.0-17.0-1.7,84413,List2B,black,man,,,,null,,,,
null,is shouting at,,html-keyboard-response,276,1232725,0.0-17.0-2.7,84413,List2B,black,man,,,,null,,,,
9432,,,survey-text,277,1242157,0.0-17.0-3.7,84413,List2B,black,man,,,,,"{""Q0"":""luke is shouting at fred""}","<img src=""stim_listB/shout5.gif""style=""height:400px;""></stim_listB>",is shouting at,
null,"<div style=""font-size:60px;"">+</div>",,html-keyboard-response,278,1242668,0.0-17.0-0.8,84413,List2B,black,man,,,,null,,,,
null,"<img src=""stim_listB/fight3.gif""style=""height:400px;""></stim_listB>",,html-keyboard-response,279,1244672,0.0-17.0-1.8,84413,List2B,black,man,,,,null,,,,
null,is fighting,,html-keyboard-response,280,1246691,0.0-17.0-2.8,84413,List2B,black,man,,,,null,,,,
9505,,,survey-text,281,1256199,0.0-17.0-3.8,84413,List2B,black,man,,,,,"{""Q0"":""kate is fighting mike""}","<img src=""stim_listB/fight3.gif""style=""height:400px;""></stim_listB>",is fighting,
null,"<div style=""font-size:60px;"">+</div>",,html-keyboard-response,282,1256708,0.0-17.0-0.9,84413,List2B,black,man,,,,null,,,,
null,"<img src=""stim_listB/marry8.gif""style=""height:400px;""></stim_listB>",,html-keyboard-response,283,1258711,0.0-17.0-1.9,84413,List2B,black,man,,,,null,,,,
null,are marrying each other,,html-keyboard-response,284,1260720,0.0-17.0-2.9,84413,List2B,black,man,,,,null,,,,
12560,,,survey-text,285,1273281,0.0-17.0-3.9,84413,List2B,black,man,,,,,"{""Q0"":""ruth and kate are marrying each other""}","<img src=""stim_listB/marry8.gif""style=""height:400px;""></stim_listB>",are marrying each other,
null,"<div style=""font-size:60px;"">+</div>",,html-keyboard-response,286,1273783,0.0-17.0-0.10,84413,List2B,black,man,,,,null,,,,
null,"<img src=""stim_listB/flirt7.gif""style=""height:400px;""></stim_listB>",,html-keyboard-response,287,1275786,0.0-17.0-1.10,84413,List2B,black,man,,,,null,,,,
null,is flirting with,,html-keyboard-response,288,1277795,0.0-17.0-2.10,84413,List2B,black,man,,,,null,,,,
12137,,,survey-text,289,1289933,0.0-17.0-3.10,84413,List2B,black,man,,,,,"{""Q0"":""ruth is flirting with kate""}","<img src=""stim_listB/flirt7.gif""style=""height:400px;""></stim_listB>",is flirting with,
null,"<div style=""font-size:60px;"">+</div>",,html-keyboard-response,290,1290452,0.0-17.0-0.11,84413,List2B,black,man,,,,null,,,,
null,"<img src=""stim_listB/touch6.gif""style=""height:400px;""></stim_listB>",,html-keyboard-response,291,1292454,0.0-17.0-1.11,84413,List2B,black,man,,,,null,,,,
null,are touching each other,,html-keyboard-response,292,1294472,0.0-17.0-2.11,84413,List2B,black,man,,,,null,,,,
14542,,,survey-text,293,1309016,0.0-17.0-3.11,84413,List2B,black,man,,,,,"{""Q0"":""fred and luke are touching each other""}","<img src=""stim_listB/touch6.gif""style=""height:400px;""></stim_listB>",are touching each other,
null,"<div style=""font-size:60px;"">+</div>",,html-keyboard-response,294,1309517,0.0-17.0-0.12,84413,List2B,black,man,,,,null,,,,
null,"<img src=""stim_listB/marry2.gif""style=""height:400px;""></stim_listB>",,html-keyboard-response,295,1311530,0.0-17.0-1.12,84413,List2B,black,man,,,,null,,,,
null,are marrying each other,,html-keyboard-response,296,1313550,0.0-17.0-2.12,84413,List2B,black,man,,,,null,,,,
12063,,,survey-text,297,1325615,0.0-17.0-3.12,84413,List2B,black,man,,,,,"{""Q0"":""jane and luke are marrying each other""}","<img src=""stim_listB/marry2.gif""style=""height:400px;""></stim_listB>",are marrying each other,
null,"<div style=""font-size:60px;"">+</div>",,html-keyboard-response,298,1326127,0.0-17.0-0.13,84413,List2B,black,man,,,,null,,,,
null,"<img src=""stim_listB/marry3.gif""style=""height:400px;""></stim_listB>",,html-keyboard-response,299,1328140,0.0-17.0-1.13,84413,List2B,black,man,,,,null,,,,
null,is marrying,,html-keyboard-response,300,1330150,0.0-17.0-2.13,84413,List2B,black,man,,,,null,,,,
10712,,,survey-text,301,1340863,0.0-17.0-3.13,84413,List2B,black,man,,,,,"{""Q0"":""mike is marrying beth""}","<img src=""stim_listB/marry3.gif""style=""height:400px;""></stim_listB>",is marrying,
null,"<div style=""font-size:60px;"">+</div>",,html-keyboard-response,302,1341370,0.0-17.0-0.14,84413,List2B,black,man,,,,null,,,,
null,"<img src=""stim_listB/shout3.gif""style=""height:400px;""></stim_listB>",,html-keyboard-response,303,1343372,0.0-17.0-1.14,84413,List2B,black,man,,,,null,,,,
null,is shouting at,,html-keyboard-response,304,1345387,0.0-17.0-2.14,84413,List2B,black,man,,,,null,,,,
11042,,,survey-text,305,1356430,0.0-17.0-3.14,84413,List2B,black,man,,,,,"{""Q0"":""beth is shouting at fred""}","<img src=""stim_listB/shout3.gif""style=""height:400px;""></stim_listB>",is shouting at,
null,"<div style=""font-size:60px;"">+</div>",,html-keyboard-response,306,1356946,0.0-17.0-0.15,84413,List2B,black,man,,,,null,,,,
null,"<img src=""stim_listB/argue7.gif""style=""height:400px;""></stim_listB>",,html-keyboard-response,307,1358949,0.0-17.0-1.15,84413,List2B,black,man,,,,null,,,,
null,is arguing with,,html-keyboard-response,308,1360951,0.0-17.0-2.15,84413,List2B,black,man,,,,null,,,,
10871,,,survey-text,309,1371822,0.0-17.0-3.15,84413,List2B,black,man,,,,,"{""Q0"":""beth is arguing with jane""}","<img src=""stim_listB/argue7.gif""style=""height:400px;""></stim_listB>",is arguing with,
null,"<div style=""font-size:60px;"">+</div>",,html-keyboard-response,310,1372338,0.0-17.0-0.16,84413,List2B,black,man,,,,null,,,,
null,"<img src=""stim_listB/dance6.gif""style=""height:400px;""></stim_listB>",,html-keyboard-response,311,1374351,0.0-17.0-1.16,84413,List2B,black,man,,,,null,,,,
null,are dancing with each other,,html-keyboard-response,312,1376372,0.0-17.0-2.16,84413,List2B,black,man,,,,null,,,,
16383,,,survey-text,313,1392756,0.0-17.0-3.16,84413,List2B,black,man,,,,,"{""Q0"":""dave and fred are dancing with each other""}","<img src=""stim_listB/dance6.gif""style=""height:400px;""></stim_listB>",are dancing with each other,
null,"<div style=""font-size:60px;"">+</div>",,html-keyboard-response,314,1393276,0.0-17.0-0.17,84413,List2B,black,man,,,,null,,,,
null,"<img src=""stim_listB/talk5.gif""style=""height:400px;""></stim_listB>",,html-keyboard-response,315,1395278,0.0-17.0-1.17,84413,List2B,black,man,,,,null,,,,
null,is talking to,,html-keyboard-response,316,1397289,0.0-17.0-2.17,84413,List2B,black,man,,,,null,,,,
10359,,,survey-text,317,1407650,0.0-17.0-3.17,84413,List2B,black,man,,,,,"{""Q0"":""mike is talking to luke""}","<img src=""stim_listB/talk5.gif""style=""height:400px;""></stim_listB>",is talking to,
null,"<div style=""font-size:60px;"">+</div>",,html-keyboard-response,318,1408168,0.0-17.0-0.18,84413,List2B,black,man,,,,null,,,,
null,"<img src=""stim_listB/kiss5.gif""style=""height:400px;""></stim_listB>",,html-keyboard-response,319,1410170,0.0-17.0-1.18,84413,List2B,black,man,,,,null,,,,
null,is kissing,,html-keyboard-response,320,1412171,0.0-17.0-2.18,84413,List2B,black,man,,,,null,,,,
9040,,,survey-text,321,1421212,0.0-17.0-3.18,84413,List2B,black,man,,,,,"{""Q0"":""luke is kissing fred""}","<img src=""stim_listB/kiss5.gif""style=""height:400px;""></stim_listB>",is kissing,
null,"<div style=""font-size:60px;"">+</div>",,html-keyboard-response,322,1421735,0.0-17.0-0.19,84413,List2B,black,man,,,,null,,,,
null,"<img src=""stim_listB/flirt1.gif""style=""height:400px;""></stim_listB>",,html-keyboard-response,323,1423740,0.0-17.0-1.19,84413,List2B,black,man,,,,null,,,,
null,is flirting with,,html-keyboard-response,324,1425747,0.0-17.0-2.19,84413,List2B,black,man,,,,null,,,,
13802,,,survey-text,325,1439551,0.0-17.0-3.19,84413,List2B,black,man,,,,,"{""Q0"":""luke is flirting with jane""}","<img src=""stim_listB/flirt1.gif""style=""height:400px;""></stim_listB>",is flirting with,
3756,"<img src='img/portrait_matrix_list2.jpg' style='width:900px;height:500px;''></img><p>If you have memorised all the portraits and names and are ready to start, press Continue.</p><p><strong>Please note: Your memory of these faces will be tested 4 times during this experiment.</strong></p>",0,html-button-response,326,1443309,0.0-18.0-0.0,84413,List2B,black,man,,,,,,,,
4844,"<img src=""portrait/BW2.jpg""style=""height:400px;""></img>",2,html-button-response,327,1449175,0.0-18.0-1.0,84413,List2B,black,man,,TRUE,2,,,,,
null,CORRECT,,html-keyboard-response,328,1450697,0.0-18.0-2.0-0.0,84413,List2B,black,man,,,,null,,,,
2419,"<img src=""portrait/BM2.jpg""style=""height:400px;""></img>",5,html-button-response,329,1453117,0.0-18.0-4.0,84413,List2B,black,man,,TRUE,5,,,,,
null,CORRECT,,html-keyboard-response,330,1454623,0.0-18.0-5.0-0.0,84413,List2B,black,man,,,,null,,,,
2318,"<img src=""portrait/WW2.jpg""style=""height:400px;""></img>",3,html-button-response,331,1456944,0.0-18.0-7.0,84413,List2B,black,man,,TRUE,3,,,,,
null,CORRECT,,html-keyboard-response,332,1458469,0.0-18.0-8.0-0.0,84413,List2B,black,man,,,,null,,,,
2755,"<img src=""portrait/WM1.jpg""style=""height:400px;""></img>",6,html-button-response,333,1461226,0.0-18.0-10.0,84413,List2B,black,man,,TRUE,6,,,,,
null,CORRECT,,html-keyboard-response,334,1462746,0.0-18.0-11.0-0.0,84413,List2B,black,man,,,,null,,,,
3220,"<img src=""portrait/BM1.jpg""style=""height:400px;""></img>",4,html-button-response,335,1465967,0.0-18.0-13.0,84413,List2B,black,man,,TRUE,4,,,,,
null,CORRECT,,html-keyboard-response,336,1467500,0.0-18.0-14.0-0.0,84413,List2B,black,man,,,,null,,,,
2291,"<img src=""portrait/BW1.jpg""style=""height:400px;""></img>",0,html-button-response,337,1469793,0.0-18.0-16.0,84413,List2B,black,man,,TRUE,0,,,,,
null,CORRECT,,html-keyboard-response,338,1471309,0.0-18.0-17.0-0.0,84413,List2B,black,man,,,,null,,,,
2202,"<img src=""portrait/WW1.jpg""style=""height:400px;""></img>",1,html-button-response,339,1473512,0.0-18.0-19.0,84413,List2B,black,man,,TRUE,1,,,,,
null,CORRECT,,html-keyboard-response,340,1475038,0.0-18.0-20.0-0.0,84413,List2B,black,man,,,,null,,,,
2026,"<img src=""portrait/WM2.jpg""style=""height:400px;""></img>",7,html-button-response,341,1477067,0.0-18.0-22.0,84413,List2B,black,man,,TRUE,7,,,,,
null,CORRECT,,html-keyboard-response,342,1478604,0.0-18.0-23.0-0.0,84413,List2B,black,man,,,,null,,,,
2005,<p>You got 8 out of 8 right first time. Press Continue.</p>,0,html-button-response,343,1480611,0.0-18.0-25.0,84413,List2B,black,man,,,,,,,,
null,"<div style=""font-size:60px;"">+</div>",,html-keyboard-response,344,1482137,0.0-19.0-0.0,84413,List2B,black,man,,,,null,,,,
null,"<img src=""stim_listB/flirt8.gif""style=""height:400px;""></stim_listB>",,html-keyboard-response,345,1484141,0.0-19.0-1.0,84413,List2B,black,man,,,,null,,,,
null,are flirting with each other,,html-keyboard-response,346,1486164,0.0-19.0-2.0,84413,List2B,black,man,,,,null,,,,
11494,,,survey-text,347,1497660,0.0-19.0-3.0,84413,List2B,black,man,,,,,"{""Q0"":""beth and jane are flirting with each other""}","<img src=""stim_listB/flirt8.gif""style=""height:400px;""></stim_listB>",are flirting with each other,
null,"<div style=""font-size:60px;"">+</div>",,html-keyboard-response,348,1498162,0.0-19.0-0.1,84413,List2B,black,man,,,,null,,,,
null,"<img src=""stim_listB/talk2.gif""style=""height:400px;""></stim_listB>",,html-keyboard-response,349,1500164,0.0-19.0-1.1,84413,List2B,black,man,,,,null,,,,
null,are talking to each other,,html-keyboard-response,350,1502186,0.0-19.0-2.1,84413,List2B,black,man,,,,null,,,,
14779,,,survey-text,351,1516966,0.0-19.0-3.1,84413,List2B,black,man,,,,,"{""Q0"":""ruth and dave are talking to each other""}","<img src=""stim_listB/talk2.gif""style=""height:400px;""></stim_listB>",are talking to each other,
null,"<div style=""font-size:60px;"">+</div>",,html-keyboard-response,352,1517484,0.0-19.0-0.2,84413,List2B,black,man,,,,null,,,,
null,"<img src=""stim_listB/flirt4.gif""style=""height:400px;""></stim_listB>",,html-keyboard-response,353,1519486,0.0-19.0-1.2,84413,List2B,black,man,,,,null,,,,
null,are flirting with each other,,html-keyboard-response,354,1521508,0.0-19.0-2.2,84413,List2B,black,man,,,,null,,,,
11350,,,survey-text,355,1532859,0.0-19.0-3.2,84413,List2B,black,man,,,,,"{""Q0"":""beth and mike are flirting with each other""}","<img src=""stim_listB/flirt4.gif""style=""height:400px;""></stim_listB>",are flirting with each other,
null,"<div style=""font-size:60px;"">+</div>",,html-keyboard-response,356,1533373,0.0-19.0-0.3,84413,List2B,black,man,,,,null,,,,
null,"<img src=""stim_listB/marry7.gif""style=""height:400px;""></stim_listB>",,html-keyboard-response,357,1535374,0.0-19.0-1.3,84413,List2B,black,man,,,,null,,,,
null,is marrying,,html-keyboard-response,358,1537385,0.0-19.0-2.3,84413,List2B,black,man,,,,null,,,,
7184,,,survey-text,359,1544570,0.0-19.0-3.3,84413,List2B,black,man,,,,,"{""Q0"":""beth is marrying jane""}","<img src=""stim_listB/marry7.gif""style=""height:400px;""></stim_listB>",is marrying,
null,"<div style=""font-size:60px;"">+</div>",,html-keyboard-response,360,1545075,0.0-19.0-0.4,84413,List2B,black,man,,,,null,,,,
null,"<img src=""stim_listB/play7.gif""style=""height:400px;""></stim_listB>",,html-keyboard-response,361,1547078,0.0-19.0-1.4,84413,List2B,black,man,,,,null,,,,
null,is playing with,,html-keyboard-response,362,1549093,0.0-19.0-2.4,84413,List2B,black,man,,,,null,,,,
7600,,,survey-text,363,1556695,0.0-19.0-3.4,84413,List2B,black,man,,,,,"{""Q0"":""kate is playing with jane""}","<img src=""stim_listB/play7.gif""style=""height:400px;""></stim_listB>",is playing with,
null,"<div style=""font-size:60px;"">+</div>",,html-keyboard-response,364,1557205,0.0-19.0-0.5,84413,List2B,black,man,,,,null,,,,
null,"<img src=""stim_listB/argue8.gif""style=""height:400px;""></stim_listB>",,html-keyboard-response,365,1559208,0.0-19.0-1.5,84413,List2B,black,man,,,,null,,,,
null,are arguing with each other,,html-keyboard-response,366,1561228,0.0-19.0-2.5,84413,List2B,black,man,,,,null,,,,
12958,,,survey-text,367,1574187,0.0-19.0-3.5,84413,List2B,black,man,,,,,"{""Q0"":""kate and ruth are arguing with each other""}","<img src=""stim_listB/argue8.gif""style=""height:400px;""></stim_listB>",are arguing with each other,
null,"<div style=""font-size:60px;"">+</div>",,html-keyboard-response,368,1574699,0.0-19.0-0.6,84413,List2B,black,man,,,,null,,,,
null,"<img src=""stim_listB/fight1.gif""style=""height:400px;""></stim_listB>",,html-keyboard-response,369,1576702,0.0-19.0-1.6,84413,List2B,black,man,,,,null,,,,
null,is fighting,,html-keyboard-response,370,1578711,0.0-19.0-2.6,84413,List2B,black,man,,,,null,,,,
10045,,,survey-text,371,1588757,0.0-19.0-3.6,84413,List2B,black,man,,,,,"{""Q0"":""jane is fighting dave""}","<img src=""stim_listB/fight1.gif""style=""height:400px;""></stim_listB>",is fighting,
null,"<div style=""font-size:60px;"">+</div>",,html-keyboard-response,372,1589266,0.0-19.0-0.7,84413,List2B,black,man,,,,null,,,,
null,"<img src=""stim_listB/flirt5.gif""style=""height:400px;""></stim_listB>",,html-keyboard-response,373,1591269,0.0-19.0-1.7,84413,List2B,black,man,,,,null,,,,
null,is flirting with,,html-keyboard-response,374,1593278,0.0-19.0-2.7,84413,List2B,black,man,,,,null,,,,
8833,,,survey-text,375,1602113,0.0-19.0-3.7,84413,List2B,black,man,,,,,"{""Q0"":""luke is flirting with mike""}","<img src=""stim_listB/flirt5.gif""style=""height:400px;""></stim_listB>",is flirting with,
null,"<div style=""font-size:60px;"">+</div>",,html-keyboard-response,376,1602624,0.0-19.0-0.8,84413,List2B,black,man,,,,null,,,,
null,"<img src=""stim_listB/touch7.gif""style=""height:400px;""></stim_listB>",,html-keyboard-response,377,1604631,0.0-19.0-1.8,84413,List2B,black,man,,,,null,,,,
null,is touching,,html-keyboard-response,378,1606640,0.0-19.0-2.8,84413,List2B,black,man,,,,null,,,,
7762,,,survey-text,379,1614405,0.0-19.0-3.8,84413,List2B,black,man,,,,,"{""Q0"":""jane is touching kate""}","<img src=""stim_listB/touch7.gif""style=""height:400px;""></stim_listB>",is touching,
null,"<div style=""font-size:60px;"">+</div>",,html-keyboard-response,380,1614909,0.0-19.0-0.9,84413,List2B,black,man,,,,null,,,,
null,"<img src=""stim_listB/argue2.gif""style=""height:400px;""></stim_listB>",,html-keyboard-response,381,1616921,0.0-19.0-1.9,84413,List2B,black,man,,,,null,,,,
null,are arguing with each other,,html-keyboard-response,382,1618932,0.0-19.0-2.9,84413,List2B,black,man,,,,null,,,,
11784,,,survey-text,383,1630718,0.0-19.0-3.9,84413,List2B,black,man,,,,,"{""Q0"":""luke and jane are arguing with each other""}","<img src=""stim_listB/argue2.gif""style=""height:400px;""></stim_listB>",are arguing with each other,
null,"<div style=""font-size:60px;"">+</div>",,html-keyboard-response,384,1631229,0.0-19.0-0.10,84413,List2B,black,man,,,,null,,,,
null,"<img src=""stim_listB/dance1.gif""style=""height:400px;""></stim_listB>",,html-keyboard-response,385,1633238,0.0-19.0-1.10,84413,List2B,black,man,,,,null,,,,
null,is dancing with,,html-keyboard-response,386,1635257,0.0-19.0-2.10,84413,List2B,black,man,,,,null,,,,
12611,,,survey-text,387,1647870,0.0-19.0-3.10,84413,List2B,black,man,,,,,"{""Q0"":""jane is dancing with luke""}","<img src=""stim_listB/dance1.gif""style=""height:400px;""></stim_listB>",is dancing with,
null,"<div style=""font-size:60px;"">+</div>",,html-keyboard-response,388,1648383,0.0-19.0-0.11,84413,List2B,black,man,,,,null,,,,
null,"<img src=""stim_listB/talk3.gif""style=""height:400px;""></stim_listB>",,html-keyboard-response,389,1650396,0.0-19.0-1.11,84413,List2B,black,man,,,,null,,,,
null,is talking to,,html-keyboard-response,390,1652406,0.0-19.0-2.11,84413,List2B,black,man,,,,null,,,,
7691,,,survey-text,391,1660099,0.0-19.0-3.11,84413,List2B,black,man,,,,,"{""Q0"":""kate is talking to fred""}","<img src=""stim_listB/talk3.gif""style=""height:400px;""></stim_listB>",is talking to,
null,"<div style=""font-size:60px;"">+</div>",,html-keyboard-response,392,1660614,0.0-19.0-0.12,84413,List2B,black,man,,,,null,,,,
null,"<img src=""stim_listB/flirt3.gif""style=""height:400px;""></stim_listB>",,html-keyboard-response,393,1662625,0.0-19.0-1.12,84413,List2B,black,man,,,,null,,,,
null,is flirting with,,html-keyboard-response,394,1664646,0.0-19.0-2.12,84413,List2B,black,man,,,,null,,,,
10538,,,survey-text,395,1675185,0.0-19.0-3.12,84413,List2B,black,man,,,,,"{""Q0"":""kate is flirting with fred""}","<img src=""stim_listB/flirt3.gif""style=""height:400px;""></stim_listB>",is flirting with,
null,"<div style=""font-size:60px;"">+</div>",,html-keyboard-response,396,1675688,0.0-19.0-0.13,84413,List2B,black,man,,,,null,,,,
null,"<img src=""stim_listB/fight5.gif""style=""height:400px;""></stim_listB>",,html-keyboard-response,397,1677690,0.0-19.0-1.13,84413,List2B,black,man,,,,null,,,,
null,is fighting,,html-keyboard-response,398,1679711,0.0-19.0-2.13,84413,List2B,black,man,,,,null,,,,
7704,,,survey-text,399,1687416,0.0-19.0-3.13,84413,List2B,black,man,,,,,"{""Q0"":""mike is fighting dave""}","<img src=""stim_listB/fight5.gif""style=""height:400px;""></stim_listB>",is fighting,
null,"<div style=""font-size:60px;"">+</div>",,html-keyboard-response,400,1687929,0.0-19.0-0.14,84413,List2B,black,man,,,,null,,,,
null,"<img src=""stim_listB/argue1.gif""style=""height:400px;""></stim_listB>",,html-keyboard-response,401,1689932,0.0-19.0-1.14,84413,List2B,black,man,,,,null,,,,
null,is arguing with,,html-keyboard-response,402,1691942,0.0-19.0-2.14,84413,List2B,black,man,,,,null,,,,
11388,,,survey-text,403,1703331,0.0-19.0-3.14,84413,List2B,black,man,,,,,"{""Q0"":""dave is arguing with ruth""}","<img src=""stim_listB/argue1.gif""style=""height:400px;""></stim_listB>",is arguing with,
null,"<div style=""font-size:60px;"">+</div>",,html-keyboard-response,404,1703848,0.0-19.0-0.15,84413,List2B,black,man,,,,null,,,,
null,"<img src=""stim_listB/fight4.gif""style=""height:400px;""></stim_listB>",,html-keyboard-response,405,1705869,0.0-19.0-1.15,84413,List2B,black,man,,,,null,,,,
null,are fighting each other,,html-keyboard-response,406,1707891,0.0-19.0-2.15,84413,List2B,black,man,,,,null,,,,
18468,,,survey-text,407,1726361,0.0-19.0-3.15,84413,List2B,black,man,,,,,"{""Q0"":""beth and fred are fighting with each other""}","<img src=""stim_listB/fight4.gif""style=""height:400px;""></stim_listB>",are fighting each other,
null,"<div style=""font-size:60px;"">+</div>",,html-keyboard-response,408,1726864,0.0-19.0-0.16,84413,List2B,black,man,,,,null,,,,
null,"<img src=""stim_listB/shout7.gif""style=""height:400px;""></stim_listB>",,html-keyboard-response,409,1728867,0.0-19.0-1.16,84413,List2B,black,man,,,,null,,,,
null,is shouting at,,html-keyboard-response,410,1730870,0.0-19.0-2.16,84413,List2B,black,man,,,,null,,,,
10306,,,survey-text,411,1741179,0.0-19.0-3.16,84413,List2B,black,man,,,,,"{""Q0"":""ruth is shouting at beth""}","<img src=""stim_listB/shout7.gif""style=""height:400px;""></stim_listB>",is shouting at,
null,"<div style=""font-size:60px;"">+</div>",,html-keyboard-response,412,1741691,0.0-19.0-0.17,84413,List2B,black,man,,,,null,,,,
null,"<img src=""stim_listB/play1.gif""style=""height:400px;""></stim_listB>",,html-keyboard-response,413,1743696,0.0-19.0-1.17,84413,List2B,black,man,,,,null,,,,
null,is playing with,,html-keyboard-response,414,1745697,0.0-19.0-2.17,84413,List2B,black,man,,,,null,,,,
7233,,,survey-text,415,1752932,0.0-19.0-3.17,84413,List2B,black,man,,,,,"{""Q0"":""jane is playing with dave""}","<img src=""stim_listB/play1.gif""style=""height:400px;""></stim_listB>",is playing with,
null,"<div style=""font-size:60px;"">+</div>",,html-keyboard-response,416,1753433,0.0-19.0-0.18,84413,List2B,black,man,,,,null,,,,
null,"<img src=""stim_listB/play2.gif""style=""height:400px;""></stim_listB>",,html-keyboard-response,417,1755435,0.0-19.0-1.18,84413,List2B,black,man,,,,null,,,,
null,are playing with each other,,html-keyboard-response,418,1757437,0.0-19.0-2.18,84413,List2B,black,man,,,,null,,,,
13961,,,survey-text,419,1771398,0.0-19.0-3.18,84413,List2B,black,man,,,,,"{""Q0"":""ruth and luke are playing with each other""}","<img src=""stim_listB/play2.gif""style=""height:400px;""></stim_listB>",are playing with each other,
null,"<div style=""font-size:60px;"">+</div>",,html-keyboard-response,420,1771903,0.0-19.0-0.19,84413,List2B,black,man,,,,null,,,,
null,"<img src=""stim_listB/argue6.gif""style=""height:400px;""></stim_listB>",,html-keyboard-response,421,1773905,0.0-19.0-1.19,84413,List2B,black,man,,,,null,,,,
null,are arguing with each other,,html-keyboard-response,422,1775907,0.0-19.0-2.19,84413,List2B,black,man,,,,null,,,,
11638,,,survey-text,423,1787547,0.0-19.0-3.19,84413,List2B,black,man,,,,,"{""Q0"":""luke and mike are arguing with each other""}","<img src=""stim_listB/argue6.gif""style=""height:400px;""></stim_listB>",are arguing with each other,
2446,<p>Thank you for completing that task.</p><p>The final part of this session is a short questionnaire.</p><p>Press Continue.</p>,0,html-button-response,424,1789994,0.0-20.0,84413,List2B,black,man,,,,,,,,
33260,,,survey-text,425,1824268,0.0-21.0,84413,List2B,black,man,,,,,"{""Q0"":""64"",""Q1"":""Yoruba"",""Q2"":""English"",""Q3"":""UK"",""Q4"":""African"",""Q5"":""Male""}",,,demographics
14925,,,survey-likert,426,1839378,0.0-22.0,84413,List2B,black,man,,,,,"{""Q0"":5}",,,likert_ESS
6033,,,survey-likert,427,1845422,0.0-23.0,84413,List2B,black,man,,,,,"{""Q0"":5}",,,likert_NSSAL_Q1
3935,,,survey-likert,428,1849360,0.0-24.0,84413,List2B,black,man,,,,,"{""Q0"":5}",,,likert_NSSAL_Q2
6159,,,survey-likert,429,1855520,0.0-25.0,84413,List2B,black,man,,,,,"{""Q0"":4}",,,likert_CGRS_Q1
2883,,,survey-likert,430,1858405,0.0-26.0,84413,List2B,black,man,,,,,"{""Q0"":4}",,,likert_CGRS_Q2
4468,,,survey-likert,431,1862875,0.0-27.0,84413,List2B,black,man,,,,,"{""Q0"":4}",,,likert_CGRS_Q3
24347,,,survey-text,432,1887224,0.0-28.0,84413,List2B,black,man,,,,,"{""Q0"":""ccc""}",,,worker_id
16841,,,external-html,433,1904165,0.0-29.0,84413,List2B,black,man,debrief.html,,,,,,,
