rt,stimulus,button_pressed,trial_type,trial_index,time_elapsed,internal_node_id,subject,list,ppt_race,ppt_gender,url,first_guess,correct,key_press,responses,image_type,phrase_type,test_part
876936,Welcome to the experiment. Press Continue to begin.,0,html-button-response,0,876939,0.0-0.0,86053,List1B,black,man,,,,,,,,
83022,,,external-html,1,962030,0.0-1.0,86053,List1B,black,man,consent.html,,,,,,,
9401,"<p>On the next page, you will see portraits of 8 people and their names.</p><p>Your first task is to take a few minutes to memorise the names of these people.</p><p>You will have to recall their names during the rest of the experiment, so it is</p><p>essential that you try to memorise these people and their names as best as you can.</p><br><p><strong>You will then be tested on your memory of these names and portraits.</strong></p><br><p>The experiment will start after you have completed this memory test.</p><br><p>Ready?</p>",0,html-button-response,2,971433,0.0-2.0,86053,List1B,black,man,,,,,,,,
67024,"<img src='img/portrait_matrix_list1.jpg' style='width:900px;height:500px;''></img><p>If you have memorised all the portraits and names and are ready to start, press Continue.</p><p><strong>Please note: Your memory of these faces will be tested 4 times during this experiment.</strong></p>",0,html-button-response,3,1039459,0.0-3.0-0.0,86053,List1B,black,man,,,,,,,,
4300,"<img src=""portrait/WW1.jpg""style=""height:400px;""></img>",1,html-button-response,4,1044762,0.0-3.0-1.0,86053,List1B,black,man,,TRUE,1,,,,,
null,CORRECT,,html-keyboard-response,5,1046268,0.0-3.0-2.0-0.0,86053,List1B,black,man,,,,null,,,,
7017,"<img src=""portrait/WM1.jpg""style=""height:400px;""></img>",6,html-button-response,6,1053286,0.0-3.0-4.0,86053,List1B,black,man,,TRUE,6,,,,,
null,CORRECT,,html-keyboard-response,7,1054789,0.0-3.0-5.0-0.0,86053,List1B,black,man,,,,null,,,,
3778,"<img src=""portrait/BW2.jpg""style=""height:400px;""></img>",0,html-button-response,8,1058567,0.0-3.0-7.0,86053,List1B,black,man,,TRUE,2,,,,,
3038,"<img src=""portrait/BW2.jpg""style=""height:400px;""></img>",2,html-button-response,9,1062608,0.0-3.0-9.0-0.0,86053,List1B,black,man,,FALSE,2,,,,,
null,CORRECT,,html-keyboard-response,10,1064111,0.0-3.0-9.0-1.0-0.0,86053,List1B,black,man,,,,null,,,,
6199,"<img src=""portrait/BM1.jpg""style=""height:400px;""></img>",4,html-button-response,11,1070312,0.0-3.0-10.0,86053,List1B,black,man,,TRUE,4,,,,,
null,CORRECT,,html-keyboard-response,12,1071814,0.0-3.0-11.0-0.0,86053,List1B,black,man,,,,null,,,,
4745,"<img src=""portrait/WM2.jpg""style=""height:400px;""></img>",7,html-button-response,13,1076560,0.0-3.0-13.0,86053,List1B,black,man,,TRUE,7,,,,,
null,CORRECT,,html-keyboard-response,14,1078062,0.0-3.0-14.0-0.0,86053,List1B,black,man,,,,null,,,,
4632,"<img src=""portrait/WW2.jpg""style=""height:400px;""></img>",3,html-button-response,15,1082696,0.0-3.0-16.0,86053,List1B,black,man,,TRUE,3,,,,,
null,CORRECT,,html-keyboard-response,16,1084200,0.0-3.0-17.0-0.0,86053,List1B,black,man,,,,null,,,,
2567,"<img src=""portrait/BM2.jpg""style=""height:400px;""></img>",7,html-button-response,17,1086768,0.0-3.0-19.0,86053,List1B,black,man,,TRUE,5,,,,,
1601,"<img src=""portrait/BM2.jpg""style=""height:400px;""></img>",5,html-button-response,18,1089372,0.0-3.0-21.0-0.0,86053,List1B,black,man,,FALSE,5,,,,,
null,CORRECT,,html-keyboard-response,19,1090875,0.0-3.0-21.0-1.0-0.0,86053,List1B,black,man,,,,null,,,,
3432,"<img src=""portrait/BW1.jpg""style=""height:400px;""></img>",0,html-button-response,20,1094307,0.0-3.0-22.0,86053,List1B,black,man,,TRUE,0,,,,,
null,CORRECT,,html-keyboard-response,21,1095810,0.0-3.0-23.0-0.0,86053,List1B,black,man,,,,null,,,,
1661,<p>You got 6 out of 8 right first time. Press Continue.</p>,0,html-button-response,22,1097472,0.0-3.0-25.0,86053,List1B,black,man,,,,,,,,
2406,"As you did not score 100%, the memory game will repeat. Press Continue.",0,html-button-response,23,1100881,0.0-3.0-26.0-0.0,86053,List1B,black,man,,,,,,,,
6139,"<img src='img/portrait_matrix_list1.jpg' style='width:900px;height:500px;''></img><p>If you have memorised all the portraits and names and are ready to start, press Continue.</p><p><strong>Please note: Your memory of these faces will be tested 4 times during this experiment.</strong></p>",0,html-button-response,24,1108025,0.0-3.1-0.1,86053,List1B,black,man,,,,,,,,
2854,"<img src=""portrait/WW1.jpg""style=""height:400px;""></img>",1,html-button-response,25,1111882,0.0-3.1-1.1,86053,List1B,black,man,,TRUE,1,,,,,
null,CORRECT,,html-keyboard-response,26,1113385,0.0-3.1-2.1-0.1,86053,List1B,black,man,,,,null,,,,
6819,"<img src=""portrait/WM1.jpg""style=""height:400px;""></img>",6,html-button-response,27,1120206,0.0-3.1-4.1,86053,List1B,black,man,,TRUE,6,,,,,
null,CORRECT,,html-keyboard-response,28,1121709,0.0-3.1-5.1-0.1,86053,List1B,black,man,,,,null,,,,
6754,"<img src=""portrait/BW2.jpg""style=""height:400px;""></img>",2,html-button-response,29,1128464,0.0-3.1-7.1,86053,List1B,black,man,,TRUE,2,,,,,
null,CORRECT,,html-keyboard-response,30,1129967,0.0-3.1-8.1-0.1,86053,List1B,black,man,,,,null,,,,
5111,"<img src=""portrait/BM1.jpg""style=""height:400px;""></img>",4,html-button-response,31,1135078,0.0-3.1-10.1,86053,List1B,black,man,,TRUE,4,,,,,
null,CORRECT,,html-keyboard-response,32,1136582,0.0-3.1-11.1-0.1,86053,List1B,black,man,,,,null,,,,
3318,"<img src=""portrait/WM2.jpg""style=""height:400px;""></img>",7,html-button-response,33,1139902,0.0-3.1-13.1,86053,List1B,black,man,,TRUE,7,,,,,
null,CORRECT,,html-keyboard-response,34,1141407,0.0-3.1-14.1-0.1,86053,List1B,black,man,,,,null,,,,
3673,"<img src=""portrait/WW2.jpg""style=""height:400px;""></img>",3,html-button-response,35,1145082,0.0-3.1-16.1,86053,List1B,black,man,,TRUE,3,,,,,
null,CORRECT,,html-keyboard-response,36,1146586,0.0-3.1-17.1-0.1,86053,List1B,black,man,,,,null,,,,
1029,"<img src=""portrait/BM2.jpg""style=""height:400px;""></img>",3,html-button-response,37,1147615,0.0-3.1-19.1,86053,List1B,black,man,,TRUE,5,,,,,
1908,"<img src=""portrait/BM2.jpg""style=""height:400px;""></img>",5,html-button-response,38,1150526,0.0-3.1-21.1-0.1,86053,List1B,black,man,,FALSE,5,,,,,
null,CORRECT,,html-keyboard-response,39,1152029,0.0-3.1-21.1-1.1-0.1,86053,List1B,black,man,,,,null,,,,
3685,"<img src=""portrait/BW1.jpg""style=""height:400px;""></img>",0,html-button-response,40,1155716,0.0-3.1-22.1,86053,List1B,black,man,,TRUE,0,,,,,
null,CORRECT,,html-keyboard-response,41,1157219,0.0-3.1-23.1-0.1,86053,List1B,black,man,,,,null,,,,
1324,<p>You got 7 out of 8 right first time. Press Continue.</p>,0,html-button-response,42,1158545,0.0-3.1-25.1,86053,List1B,black,man,,,,,,,,
1247,"As you did not score 100%, the memory game will repeat. Press Continue.",0,html-button-response,43,1160794,0.0-3.1-26.1-0.1,86053,List1B,black,man,,,,,,,,
8012,"<img src='img/portrait_matrix_list1.jpg' style='width:900px;height:500px;''></img><p>If you have memorised all the portraits and names and are ready to start, press Continue.</p><p><strong>Please note: Your memory of these faces will be tested 4 times during this experiment.</strong></p>",0,html-button-response,44,1169811,0.0-3.2-0.2,86053,List1B,black,man,,,,,,,,
4390,"<img src=""portrait/WW1.jpg""style=""height:400px;""></img>",1,html-button-response,45,1175203,0.0-3.2-1.2,86053,List1B,black,man,,TRUE,1,,,,,
null,CORRECT,,html-keyboard-response,46,1176706,0.0-3.2-2.2-0.2,86053,List1B,black,man,,,,null,,,,
3838,"<img src=""portrait/WM1.jpg""style=""height:400px;""></img>",6,html-button-response,47,1180546,0.0-3.2-4.2,86053,List1B,black,man,,TRUE,6,,,,,
null,CORRECT,,html-keyboard-response,48,1182049,0.0-3.2-5.2-0.2,86053,List1B,black,man,,,,null,,,,
3544,"<img src=""portrait/BW2.jpg""style=""height:400px;""></img>",2,html-button-response,49,1185593,0.0-3.2-7.2,86053,List1B,black,man,,TRUE,2,,,,,
null,CORRECT,,html-keyboard-response,50,1187116,0.0-3.2-8.2-0.2,86053,List1B,black,man,,,,null,,,,
4458,"<img src=""portrait/BM1.jpg""style=""height:400px;""></img>",4,html-button-response,51,1191577,0.0-3.2-10.2,86053,List1B,black,man,,TRUE,4,,,,,
null,CORRECT,,html-keyboard-response,52,1193079,0.0-3.2-11.2-0.2,86053,List1B,black,man,,,,null,,,,
5416,"<img src=""portrait/WM2.jpg""style=""height:400px;""></img>",7,html-button-response,53,1198497,0.0-3.2-13.2,86053,List1B,black,man,,TRUE,7,,,,,
null,CORRECT,,html-keyboard-response,54,1200002,0.0-3.2-14.2-0.2,86053,List1B,black,man,,,,null,,,,
2636,"<img src=""portrait/WW2.jpg""style=""height:400px;""></img>",3,html-button-response,55,1202638,0.0-3.2-16.2,86053,List1B,black,man,,TRUE,3,,,,,
null,CORRECT,,html-keyboard-response,56,1204826,0.0-3.2-17.2-0.2,86053,List1B,black,man,,,,null,,,,
4476,"<img src=""portrait/BM2.jpg""style=""height:400px;""></img>",5,html-button-response,57,1209304,0.0-3.2-19.2,86053,List1B,black,man,,TRUE,5,,,,,
null,CORRECT,,html-keyboard-response,58,1210808,0.0-3.2-20.2-0.2,86053,List1B,black,man,,,,null,,,,
5140,"<img src=""portrait/BW1.jpg""style=""height:400px;""></img>",0,html-button-response,59,1215949,0.0-3.2-22.2,86053,List1B,black,man,,TRUE,0,,,,,
null,CORRECT,,html-keyboard-response,60,1217451,0.0-3.2-23.2-0.2,86053,List1B,black,man,,,,null,,,,
1671,<p>You got 8 out of 8 right first time. Press Continue.</p>,0,html-button-response,61,1219123,0.0-3.2-25.2,86053,List1B,black,man,,,,,,,,
79746,"<p>In this experiment, you will view photographs of the people from the memory game interacting.</p><p>By using the <strong>exact</strong> phrase given <i>after</i> the photograph appears and recalling the correct names of the people in the photographs, form a sentence describing the interaction. You do not need to capitalise names.</p><p>Type your answer in the space provided. Please complete every sentence before moving onto the next trial.</p><p>You will only have a few seconds to memorise each given photograph and phrase before you can respond, so try your best to focus.</p><p>An example is given below. Press 'Continue' when you are ready.</p><img src='img/speaking_example.jpg' style='width:800px;height:460px;''></img>",0,html-button-response,62,1299872,0.0-4.0,86053,List1B,black,man,,,,,,,,
2284,"<p>Before the experiment starts, you will watch two example trials. Press 'Continue'.</p>",0,html-button-response,63,1303158,0.0-5.0,86053,List1B,black,man,,,,,,,,
null,<img src='img/meet_eg.gif' style='height:400px;''></img>,,html-keyboard-response,64,1306163,0.0-6.0,86053,List1B,black,man,,,,null,,,,
null,<p>is meeting</p>,,html-keyboard-response,65,1308165,0.0-7.0,86053,List1B,black,man,,,,null,,,,
6060,<p><b>Answer:</b> kate is meeting beth</p>,0,html-button-response,66,1314226,0.0-8.0,86053,List1B,black,man,,,,,,,,
null,<img src='img/look_eg.gif' style='height:400px;''></img>,,html-keyboard-response,67,1317228,0.0-9.0,86053,List1B,black,man,,,,null,,,,
null,<p>are looking at each other</p>,,html-keyboard-response,68,1319230,0.0-10.0,86053,List1B,black,man,,,,null,,,,
2404,<p><b>Answer:</b> luke and dave are looking at each other</p>,0,html-button-response,69,1321634,0.0-11.0,86053,List1B,black,man,,,,,,,,
7781,"<p>Ready to start the experiment?</p><br><p><strong>Remember to describe the picture using a full sentence,</strong></p><p><strong>that combines the names of the people with the <i>exact</i> phrase given.</strong></p><p><strong>To receive full payment you must do this correctly.</strong></p><p><strong> You do not need to capitalise names or use punctuation.</strong></p><br><p>Press 'Continue' to begin.</p>",0,html-button-response,70,1330416,0.0-12.0,86053,List1B,black,man,,,,,,,,
null,"<div style=""font-size:60px;"">+</div>",,html-keyboard-response,71,1331921,0.0-13.0-0.0,86053,List1B,black,man,,,,null,,,,
null,"<img src=""stim_listB/argue3.gif""style=""height:400px;""></stim_listB>",,html-keyboard-response,72,1333925,0.0-13.0-1.0,86053,List1B,black,man,,,,null,,,,
null,is arguing with,,html-keyboard-response,73,1335927,0.0-13.0-2.0,86053,List1B,black,man,,,,null,,,,
25306,,,survey-text,74,1361235,0.0-13.0-3.0,86053,List1B,black,man,,,,,"{""Q0"":""ruth is arguing with dave""}","<img src=""stim_listB/argue3.gif""style=""height:400px;""></stim_listB>",is arguing with,
null,"<div style=""font-size:60px;"">+</div>",,html-keyboard-response,75,1361737,0.0-13.0-0.1,86053,List1B,black,man,,,,null,,,,
null,"<img src=""stim_listB/kiss2.gif""style=""height:400px;""></stim_listB>",,html-keyboard-response,76,1363739,0.0-13.0-1.1,86053,List1B,black,man,,,,null,,,,
null,are kissing each other,,html-keyboard-response,77,1365741,0.0-13.0-2.1,86053,List1B,black,man,,,,null,,,,
25121,,,survey-text,78,1390862,0.0-13.0-3.1,86053,List1B,black,man,,,,,"{""Q0"":""mike and kate are kissing each other""}","<img src=""stim_listB/kiss2.gif""style=""height:400px;""></stim_listB>",are kissing each other,
null,"<div style=""font-size:60px;"">+</div>",,html-keyboard-response,79,1391364,0.0-13.0-0.2,86053,List1B,black,man,,,,null,,,,
null,"<img src=""stim_listB/flirt6.gif""style=""height:400px;""></stim_listB>",,html-keyboard-response,80,1393365,0.0-13.0-1.2,86053,List1B,black,man,,,,null,,,,
null,are flirting with each other,,html-keyboard-response,81,1395366,0.0-13.0-2.2,86053,List1B,black,man,,,,null,,,,
31786,,,survey-text,82,1427153,0.0-13.0-3.2,86053,List1B,black,man,,,,,"{""Q0"":""mike and luke are flirting with each other""}","<img src=""stim_listB/flirt6.gif""style=""height:400px;""></stim_listB>",are flirting with each other,
null,"<div style=""font-size:60px;"">+</div>",,html-keyboard-response,83,1427655,0.0-13.0-0.3,86053,List1B,black,man,,,,null,,,,
null,"<img src=""stim_listB/play8.gif""style=""height:400px;""></stim_listB>",,html-keyboard-response,84,1429657,0.0-13.0-1.3,86053,List1B,black,man,,,,null,,,,
null,are playing with each other,,html-keyboard-response,85,1431658,0.0-13.0-2.3,86053,List1B,black,man,,,,null,,,,
21026,,,survey-text,86,1452684,0.0-13.0-3.3,86053,List1B,black,man,,,,,"{""Q0"":""ruth and beth are playing with each other""}","<img src=""stim_listB/play8.gif""style=""height:400px;""></stim_listB>",are playing with each other,
null,"<div style=""font-size:60px;"">+</div>",,html-keyboard-response,87,1453186,0.0-13.0-0.4,86053,List1B,black,man,,,,null,,,,
null,"<img src=""stim_listB/fight4.gif""style=""height:400px;""></stim_listB>",,html-keyboard-response,88,1455188,0.0-13.0-1.4,86053,List1B,black,man,,,,null,,,,
null,are fighting each other,,html-keyboard-response,89,1457189,0.0-13.0-2.4,86053,List1B,black,man,,,,null,,,,
19973,,,survey-text,90,1477163,0.0-13.0-3.4,86053,List1B,black,man,,,,,"{""Q0"":""ruth and luke are fighting each other""}","<img src=""stim_listB/fight4.gif""style=""height:400px;""></stim_listB>",are fighting each other,
null,"<div style=""font-size:60px;"">+</div>",,html-keyboard-response,91,1477665,0.0-13.0-0.5,86053,List1B,black,man,,,,null,,,,
null,"<img src=""stim_listB/argue6.gif""style=""height:400px;""></stim_listB>",,html-keyboard-response,92,1479667,0.0-13.0-1.5,86053,List1B,black,man,,,,null,,,,
null,are arguing with each other,,html-keyboard-response,93,1481670,0.0-13.0-2.5,86053,List1B,black,man,,,,null,,,,
20367,,,survey-text,94,1502039,0.0-13.0-3.5,86053,List1B,black,man,,,,,"{""Q0"":""fred and dave are arguing with each other""}","<img src=""stim_listB/argue6.gif""style=""height:400px;""></stim_listB>",are arguing with each other,
null,"<div style=""font-size:60px;"">+</div>",,html-keyboard-response,95,1502540,0.0-13.0-0.6,86053,List1B,black,man,,,,null,,,,
null,"<img src=""stim_listB/dance4.gif""style=""height:400px;""></stim_listB>",,html-keyboard-response,96,1504542,0.0-13.0-1.6,86053,List1B,black,man,,,,null,,,,
null,are dancing with each other,,html-keyboard-response,97,1506544,0.0-13.0-2.6,86053,List1B,black,man,,,,null,,,,
20981,,,survey-text,98,1527527,0.0-13.0-3.6,86053,List1B,black,man,,,,,"{""Q0"":""dave and ruth are dancing with each other""}","<img src=""stim_listB/dance4.gif""style=""height:400px;""></stim_listB>",are dancing with each other,
null,"<div style=""font-size:60px;"">+</div>",,html-keyboard-response,99,1528029,0.0-13.0-0.7,86053,List1B,black,man,,,,null,,,,
null,"<img src=""stim_listB/shout6.gif""style=""height:400px;""></stim_listB>",,html-keyboard-response,100,1530031,0.0-13.0-1.7,86053,List1B,black,man,,,,null,,,,
null,are shouting at each other,,html-keyboard-response,101,1532033,0.0-13.0-2.7,86053,List1B,black,man,,,,null,,,,
20927,,,survey-text,102,1552961,0.0-13.0-3.7,86053,List1B,black,man,,,,,"{""Q0"":""dave and mike are shouting at each other""}","<img src=""stim_listB/shout6.gif""style=""height:400px;""></stim_listB>",are shouting at each other,
null,"<div style=""font-size:60px;"">+</div>",,html-keyboard-response,103,1553463,0.0-13.0-0.8,86053,List1B,black,man,,,,null,,,,
null,"<img src=""stim_listB/touch7.gif""style=""height:400px;""></stim_listB>",,html-keyboard-response,104,1555465,0.0-13.0-1.8,86053,List1B,black,man,,,,null,,,,
null,is touching,,html-keyboard-response,105,1557466,0.0-13.0-2.8,86053,List1B,black,man,,,,null,,,,
16242,,,survey-text,106,1573709,0.0-13.0-3.8,86053,List1B,black,man,,,,,"{""Q0"":""kate and jane are touching each other""}","<img src=""stim_listB/touch7.gif""style=""height:400px;""></stim_listB>",is touching,
null,"<div style=""font-size:60px;"">+</div>",,html-keyboard-response,107,1574210,0.0-13.0-0.9,86053,List1B,black,man,,,,null,,,,
null,"<img src=""stim_listB/fight7.gif""style=""height:400px;""></stim_listB>",,html-keyboard-response,108,1576212,0.0-13.0-1.9,86053,List1B,black,man,,,,null,,,,
null,is fighting,,html-keyboard-response,109,1578214,0.0-13.0-2.9,86053,List1B,black,man,,,,null,,,,
8639,,,survey-text,110,1586854,0.0-13.0-3.9,86053,List1B,black,man,,,,,"{""Q0"":""kate is fighting jane""}","<img src=""stim_listB/fight7.gif""style=""height:400px;""></stim_listB>",is fighting,
null,"<div style=""font-size:60px;"">+</div>",,html-keyboard-response,111,1587355,0.0-13.0-0.10,86053,List1B,black,man,,,,null,,,,
null,"<img src=""stim_listB/talk1.gif""style=""height:400px;""></stim_listB>",,html-keyboard-response,112,1589357,0.0-13.0-1.10,86053,List1B,black,man,,,,null,,,,
null,is talking to,,html-keyboard-response,113,1591358,0.0-13.0-2.10,86053,List1B,black,man,,,,null,,,,
22129,,,survey-text,114,1613488,0.0-13.0-3.10,86053,List1B,black,man,,,,,"{""Q0"":""kate is talking to fred""}","<img src=""stim_listB/talk1.gif""style=""height:400px;""></stim_listB>",is talking to,
null,"<div style=""font-size:60px;"">+</div>",,html-keyboard-response,115,1613991,0.0-13.0-0.11,86053,List1B,black,man,,,,null,,,,
null,"<img src=""stim_listB/play4.gif""style=""height:400px;""></stim_listB>",,html-keyboard-response,116,1615993,0.0-13.0-1.11,86053,List1B,black,man,,,,null,,,,
null,are playing with each other,,html-keyboard-response,117,1617994,0.0-13.0-2.11,86053,List1B,black,man,,,,null,,,,
24074,,,survey-text,118,1642069,0.0-13.0-3.11,86053,List1B,black,man,,,,,"{""Q0"":""luke and ruth are playing with each other""}","<img src=""stim_listB/play4.gif""style=""height:400px;""></stim_listB>",are playing with each other,
null,"<div style=""font-size:60px;"">+</div>",,html-keyboard-response,119,1642570,0.0-13.0-0.12,86053,List1B,black,man,,,,null,,,,
null,"<img src=""stim_listB/dance6.gif""style=""height:400px;""></stim_listB>",,html-keyboard-response,120,1644572,0.0-13.0-1.12,86053,List1B,black,man,,,,null,,,,
null,are dancing with each other,,html-keyboard-response,121,1646573,0.0-13.0-2.12,86053,List1B,black,man,,,,null,,,,
66488,,,survey-text,122,1713062,0.0-13.0-3.12,86053,List1B,black,man,,,,,"{""Q0"":""luke and mike are dancing with each other""}","<img src=""stim_listB/dance6.gif""style=""height:400px;""></stim_listB>",are dancing with each other,
null,"<div style=""font-size:60px;"">+</div>",,html-keyboard-response,123,1713564,0.0-13.0-0.13,86053,List1B,black,man,,,,null,,,,
null,"<img src=""stim_listB/flirt1.gif""style=""height:400px;""></stim_listB>",,html-keyboard-response,124,1715566,0.0-13.0-1.13,86053,List1B,black,man,,,,null,,,,
null,is flirting with,,html-keyboard-response,125,1717568,0.0-13.0-2.13,86053,List1B,black,man,,,,null,,,,
16477,,,survey-text,126,1734045,0.0-13.0-3.13,86053,List1B,black,man,,,,,"{""Q0"":""kate is flirting with fred""}","<img src=""stim_listB/flirt1.gif""style=""height:400px;""></stim_listB>",is flirting with,
null,"<div style=""font-size:60px;"">+</div>",,html-keyboard-response,127,1734548,0.0-13.0-0.14,86053,List1B,black,man,,,,null,,,,
null,"<img src=""stim_listB/kiss8.gif""style=""height:400px;""></stim_listB>",,html-keyboard-response,128,1736550,0.0-13.0-1.14,86053,List1B,black,man,,,,null,,,,
null,are kissing each other,,html-keyboard-response,129,1738551,0.0-13.0-2.14,86053,List1B,black,man,,,,null,,,,
15804,,,survey-text,130,1754356,0.0-13.0-3.14,86053,List1B,black,man,,,,,"{""Q0"":""kate and jane are kissing each other""}","<img src=""stim_listB/kiss8.gif""style=""height:400px;""></stim_listB>",are kissing each other,
null,"<div style=""font-size:60px;"">+</div>",,html-keyboard-response,131,1754857,0.0-13.0-0.15,86053,List1B,black,man,,,,null,,,,
null,"<img src=""stim_listB/shout7.gif""style=""height:400px;""></stim_listB>",,html-keyboard-response,132,1756859,0.0-13.0-1.15,86053,List1B,black,man,,,,null,,,,
null,is shouting at,,html-keyboard-response,133,1758860,0.0-13.0-2.15,86053,List1B,black,man,,,,null,,,,
18592,,,survey-text,134,1777453,0.0-13.0-3.15,86053,List1B,black,man,,,,,"{""Q0"":""beth is shouting at ruth""}","<img src=""stim_listB/shout7.gif""style=""height:400px;""></stim_listB>",is shouting at,
null,"<div style=""font-size:60px;"">+</div>",,html-keyboard-response,135,1777954,0.0-13.0-0.16,86053,List1B,black,man,,,,null,,,,
null,"<img src=""stim_listB/argue4.gif""style=""height:400px;""></stim_listB>",,html-keyboard-response,136,1779955,0.0-13.0-1.16,86053,List1B,black,man,,,,null,,,,
null,are arguing with each other,,html-keyboard-response,137,1781956,0.0-13.0-2.16,86053,List1B,black,man,,,,null,,,,
19811,,,survey-text,138,1801769,0.0-13.0-3.16,86053,List1B,black,man,,,,,"{""Q0"":""luke and jane are arguing with each other""}","<img src=""stim_listB/argue4.gif""style=""height:400px;""></stim_listB>",are arguing with each other,
null,"<div style=""font-size:60px;"">+</div>",,html-keyboard-response,139,1802271,0.0-13.0-0.17,86053,List1B,black,man,,,,null,,,,
null,"<img src=""stim_listB/flirt5.gif""style=""height:400px;""></stim_listB>",,html-keyboard-response,140,1804272,0.0-13.0-1.17,86053,List1B,black,man,,,,null,,,,
null,is flirting with,,html-keyboard-response,141,1806273,0.0-13.0-2.17,86053,List1B,black,man,,,,null,,,,
11686,,,survey-text,142,1817960,0.0-13.0-3.17,86053,List1B,black,man,,,,,"{""Q0"":""dave is flirting with fred""}","<img src=""stim_listB/flirt5.gif""style=""height:400px;""></stim_listB>",is flirting with,
null,"<div style=""font-size:60px;"">+</div>",,html-keyboard-response,143,1818461,0.0-13.0-0.18,86053,List1B,black,man,,,,null,,,,
null,"<img src=""stim_listB/talk7.gif""style=""height:400px;""></stim_listB>",,html-keyboard-response,144,1820463,0.0-13.0-1.18,86053,List1B,black,man,,,,null,,,,
null,is talking to,,html-keyboard-response,145,1822465,0.0-13.0-2.18,86053,List1B,black,man,,,,null,,,,
15264,,,survey-text,146,1837729,0.0-13.0-3.18,86053,List1B,black,man,,,,,"{""Q0"":""jane is talking to beth""}","<img src=""stim_listB/talk7.gif""style=""height:400px;""></stim_listB>",is talking to,
null,"<div style=""font-size:60px;"">+</div>",,html-keyboard-response,147,1838230,0.0-13.0-0.19,86053,List1B,black,man,,,,null,,,,
null,"<img src=""stim_listB/play2.gif""style=""height:400px;""></stim_listB>",,html-keyboard-response,148,1840232,0.0-13.0-1.19,86053,List1B,black,man,,,,null,,,,
null,are playing with each other,,html-keyboard-response,149,1842234,0.0-13.0-2.19,86053,List1B,black,man,,,,null,,,,
17304,,,survey-text,150,1859539,0.0-13.0-3.19,86053,List1B,black,man,,,,,"{""Q0"":""beth and fred are playing with each other""}","<img src=""stim_listB/play2.gif""style=""height:400px;""></stim_listB>",are playing with each other,
122848,"<img src='img/portrait_matrix_list1.jpg' style='width:900px;height:500px;''></img><p>If you have memorised all the portraits and names and are ready to start, press Continue.</p><p><strong>Please note: Your memory of these faces will be tested 4 times during this experiment.</strong></p>",0,html-button-response,151,1982389,0.0-14.0-0.0,86053,List1B,black,man,,,,,,,,
6527,"<img src=""portrait/BM1.jpg""style=""height:400px;""></img>",4,html-button-response,152,1989919,0.0-14.0-1.0,86053,List1B,black,man,,TRUE,4,,,,,
null,CORRECT,,html-keyboard-response,153,1991423,0.0-14.0-2.0-0.0,86053,List1B,black,man,,,,null,,,,
2544,"<img src=""portrait/WM2.jpg""style=""height:400px;""></img>",7,html-button-response,154,1993969,0.0-14.0-4.0,86053,List1B,black,man,,TRUE,7,,,,,
null,CORRECT,,html-keyboard-response,155,1995471,0.0-14.0-5.0-0.0,86053,List1B,black,man,,,,null,,,,
53476,"<img src=""portrait/WW2.jpg""style=""height:400px;""></img>",3,html-button-response,156,2048948,0.0-14.0-7.0,86053,List1B,black,man,,TRUE,3,,,,,
null,CORRECT,,html-keyboard-response,157,2050450,0.0-14.0-8.0-0.0,86053,List1B,black,man,,,,null,,,,
4085,"<img src=""portrait/BM2.jpg""style=""height:400px;""></img>",5,html-button-response,158,2054537,0.0-14.0-10.0,86053,List1B,black,man,,TRUE,5,,,,,
null,CORRECT,,html-keyboard-response,159,2056040,0.0-14.0-11.0-0.0,86053,List1B,black,man,,,,null,,,,
3534,"<img src=""portrait/BW1.jpg""style=""height:400px;""></img>",0,html-button-response,160,2059575,0.0-14.0-13.0,86053,List1B,black,man,,TRUE,0,,,,,
null,CORRECT,,html-keyboard-response,161,2061078,0.0-14.0-14.0-0.0,86053,List1B,black,man,,,,null,,,,
3228,"<img src=""portrait/WM1.jpg""style=""height:400px;""></img>",6,html-button-response,162,2064308,0.0-14.0-16.0,86053,List1B,black,man,,TRUE,6,,,,,
null,CORRECT,,html-keyboard-response,163,2065810,0.0-14.0-17.0-0.0,86053,List1B,black,man,,,,null,,,,
5100,"<img src=""portrait/BW2.jpg""style=""height:400px;""></img>",2,html-button-response,164,2070911,0.0-14.0-19.0,86053,List1B,black,man,,TRUE,2,,,,,
null,CORRECT,,html-keyboard-response,165,2072414,0.0-14.0-20.0-0.0,86053,List1B,black,man,,,,null,,,,
2342,"<img src=""portrait/WW1.jpg""style=""height:400px;""></img>",1,html-button-response,166,2074758,0.0-14.0-22.0,86053,List1B,black,man,,TRUE,1,,,,,
null,CORRECT,,html-keyboard-response,167,2076261,0.0-14.0-23.0-0.0,86053,List1B,black,man,,,,null,,,,
1782,<p>You got 8 out of 8 right first time. Press Continue.</p>,0,html-button-response,168,2078045,0.0-14.0-25.0,86053,List1B,black,man,,,,,,,,
null,"<div style=""font-size:60px;"">+</div>",,html-keyboard-response,169,2079549,0.0-15.0-0.0,86053,List1B,black,man,,,,null,,,,
null,"<img src=""stim_listB/dance1.gif""style=""height:400px;""></stim_listB>",,html-keyboard-response,170,2081552,0.0-15.0-1.0,86053,List1B,black,man,,,,null,,,,
null,is dancing with,,html-keyboard-response,171,2083553,0.0-15.0-2.0,86053,List1B,black,man,,,,null,,,,
14391,,,survey-text,172,2097946,0.0-15.0-3.0,86053,List1B,black,man,,,,,"{""Q0"":""fred is dancing with kate""}","<img src=""stim_listB/dance1.gif""style=""height:400px;""></stim_listB>",is dancing with,
null,"<div style=""font-size:60px;"">+</div>",,html-keyboard-response,173,2098448,0.0-15.0-0.1,86053,List1B,black,man,,,,null,,,,
null,"<img src=""stim_listB/argue7.gif""style=""height:400px;""></stim_listB>",,html-keyboard-response,174,2100449,0.0-15.0-1.1,86053,List1B,black,man,,,,null,,,,
null,is arguing with,,html-keyboard-response,175,2102451,0.0-15.0-2.1,86053,List1B,black,man,,,,null,,,,
37474,,,survey-text,176,2139926,0.0-15.0-3.1,86053,List1B,black,man,,,,,"{""Q0"":""kate is talking with ruth""}","<img src=""stim_listB/argue7.gif""style=""height:400px;""></stim_listB>",is arguing with,
null,"<div style=""font-size:60px;"">+</div>",,html-keyboard-response,177,2140428,0.0-15.0-0.2,86053,List1B,black,man,,,,null,,,,
null,"<img src=""stim_listB/flirt3.gif""style=""height:400px;""></stim_listB>",,html-keyboard-response,178,2142430,0.0-15.0-1.2,86053,List1B,black,man,,,,null,,,,
null,is flirting with,,html-keyboard-response,179,2144433,0.0-15.0-2.2,86053,List1B,black,man,,,,null,,,,
18933,,,survey-text,180,2163367,0.0-15.0-3.2,86053,List1B,black,man,,,,,"{""Q0"":""jane is flirting with luke""}","<img src=""stim_listB/flirt3.gif""style=""height:400px;""></stim_listB>",is flirting with,
null,"<div style=""font-size:60px;"">+</div>",,html-keyboard-response,181,2163869,0.0-15.0-0.3,86053,List1B,black,man,,,,null,,,,
null,"<img src=""stim_listB/argue2.gif""style=""height:400px;""></stim_listB>",,html-keyboard-response,182,2165872,0.0-15.0-1.3,86053,List1B,black,man,,,,null,,,,
null,are arguing with each other,,html-keyboard-response,183,2167874,0.0-15.0-2.3,86053,List1B,black,man,,,,null,,,,
14500,,,survey-text,184,2182375,0.0-15.0-3.3,86053,List1B,black,man,,,,,"{""Q0"":""fred and kate are arguing with each other""}","<img src=""stim_listB/argue2.gif""style=""height:400px;""></stim_listB>",are arguing with each other,
null,"<div style=""font-size:60px;"">+</div>",,html-keyboard-response,185,2182877,0.0-15.0-0.4,86053,List1B,black,man,,,,null,,,,
null,"<img src=""stim_listB/dance5.gif""style=""height:400px;""></stim_listB>",,html-keyboard-response,186,2184879,0.0-15.0-1.4,86053,List1B,black,man,,,,null,,,,
null,is dancing with,,html-keyboard-response,187,2186882,0.0-15.0-2.4,86053,List1B,black,man,,,,null,,,,
12877,,,survey-text,188,2199759,0.0-15.0-3.4,86053,List1B,black,man,,,,,"{""Q0"":""mike is dancing with fred""}","<img src=""stim_listB/dance5.gif""style=""height:400px;""></stim_listB>",is dancing with,
null,"<div style=""font-size:60px;"">+</div>",,html-keyboard-response,189,2200261,0.0-15.0-0.5,86053,List1B,black,man,,,,null,,,,
null,"<img src=""stim_listB/touch2.gif""style=""height:400px;""></stim_listB>",,html-keyboard-response,190,2202267,0.0-15.0-1.5,86053,List1B,black,man,,,,null,,,,
null,are touching each other,,html-keyboard-response,191,2204269,0.0-15.0-2.5,86053,List1B,black,man,,,,null,,,,
18260,,,survey-text,192,2222531,0.0-15.0-3.5,86053,List1B,black,man,,,,,"{""Q0"":""fred and beth are touching each other""}","<img src=""stim_listB/touch2.gif""style=""height:400px;""></stim_listB>",are touching each other,
null,"<div style=""font-size:60px;"">+</div>",,html-keyboard-response,193,2223033,0.0-15.0-0.6,86053,List1B,black,man,,,,null,,,,
null,"<img src=""stim_listB/marry4.gif""style=""height:400px;""></stim_listB>",,html-keyboard-response,194,2225035,0.0-15.0-1.6,86053,List1B,black,man,,,,null,,,,
null,are marrying each other,,html-keyboard-response,195,2227036,0.0-15.0-2.6,86053,List1B,black,man,,,,null,,,,
14699,,,survey-text,196,2241737,0.0-15.0-3.6,86053,List1B,black,man,,,,,"{""Q0"":""luke and jane are marrying each other""}","<img src=""stim_listB/marry4.gif""style=""height:400px;""></stim_listB>",are marrying each other,
null,"<div style=""font-size:60px;"">+</div>",,html-keyboard-response,197,2242239,0.0-15.0-0.7,86053,List1B,black,man,,,,null,,,,
null,"<img src=""stim_listB/play6.gif""style=""height:400px;""></stim_listB>",,html-keyboard-response,198,2244241,0.0-15.0-1.7,86053,List1B,black,man,,,,null,,,,
null,are playing with each other,,html-keyboard-response,199,2246242,0.0-15.0-2.7,86053,List1B,black,man,,,,null,,,,
19725,,,survey-text,200,2265968,0.0-15.0-3.7,86053,List1B,black,man,,,,,"{""Q0"":""fred and luke are playing with each other""}","<img src=""stim_listB/play6.gif""style=""height:400px;""></stim_listB>",are playing with each other,
null,"<div style=""font-size:60px;"">+</div>",,html-keyboard-response,201,2266470,0.0-15.0-0.8,86053,List1B,black,man,,,,null,,,,
null,"<img src=""stim_listB/dance7.gif""style=""height:400px;""></stim_listB>",,html-keyboard-response,202,2268472,0.0-15.0-1.8,86053,List1B,black,man,,,,null,,,,
null,is dancing with,,html-keyboard-response,203,2270473,0.0-15.0-2.8,86053,List1B,black,man,,,,null,,,,
11714,,,survey-text,204,2282188,0.0-15.0-3.8,86053,List1B,black,man,,,,,"{""Q0"":""beth is dancing with jane""}","<img src=""stim_listB/dance7.gif""style=""height:400px;""></stim_listB>",is dancing with,
null,"<div style=""font-size:60px;"">+</div>",,html-keyboard-response,205,2282689,0.0-15.0-0.9,86053,List1B,black,man,,,,null,,,,
null,"<img src=""stim_listB/kiss5.gif""style=""height:400px;""></stim_listB>",,html-keyboard-response,206,2284691,0.0-15.0-1.9,86053,List1B,black,man,,,,null,,,,
null,is kissing,,html-keyboard-response,207,2286692,0.0-15.0-2.9,86053,List1B,black,man,,,,null,,,,
8979,,,survey-text,208,2295671,0.0-15.0-3.9,86053,List1B,black,man,,,,,"{""Q0"":""fred is kissing luke""}","<img src=""stim_listB/kiss5.gif""style=""height:400px;""></stim_listB>",is kissing,
null,"<div style=""font-size:60px;"">+</div>",,html-keyboard-response,209,2296172,0.0-15.0-0.10,86053,List1B,black,man,,,,null,,,,
null,"<img src=""stim_listB/talk5.gif""style=""height:400px;""></stim_listB>",,html-keyboard-response,210,2298174,0.0-15.0-1.10,86053,List1B,black,man,,,,null,,,,
null,is talking to,,html-keyboard-response,211,2300177,0.0-15.0-2.10,86053,List1B,black,man,,,,null,,,,
8418,,,survey-text,212,2308596,0.0-15.0-3.10,86053,List1B,black,man,,,,,"{""Q0"":""fred is talking to dave""}","<img src=""stim_listB/talk5.gif""style=""height:400px;""></stim_listB>",is talking to,
null,"<div style=""font-size:60px;"">+</div>",,html-keyboard-response,213,2309097,0.0-15.0-0.11,86053,List1B,black,man,,,,null,,,,
null,"<img src=""stim_listB/fight3.gif""style=""height:400px;""></stim_listB>",,html-keyboard-response,214,2311099,0.0-15.0-1.11,86053,List1B,black,man,,,,null,,,,
null,is fighting,,html-keyboard-response,215,2313100,0.0-15.0-2.11,86053,List1B,black,man,,,,null,,,,
7893,,,survey-text,216,2320995,0.0-15.0-3.11,86053,List1B,black,man,,,,,"{""Q0"":""dave is fighting jane""}","<img src=""stim_listB/fight3.gif""style=""height:400px;""></stim_listB>",is fighting,
null,"<div style=""font-size:60px;"">+</div>",,html-keyboard-response,217,2321496,0.0-15.0-0.12,86053,List1B,black,man,,,,null,,,,
null,"<img src=""stim_listB/flirt8.gif""style=""height:400px;""></stim_listB>",,html-keyboard-response,218,2323498,0.0-15.0-1.12,86053,List1B,black,man,,,,null,,,,
null,are flirting with each other,,html-keyboard-response,219,2325500,0.0-15.0-2.12,86053,List1B,black,man,,,,null,,,,
31871,,,survey-text,220,2357371,0.0-15.0-3.12,86053,List1B,black,man,,,,,"{""Q0"":""ruth is flirting with kate""}","<img src=""stim_listB/flirt8.gif""style=""height:400px;""></stim_listB>",are flirting with each other,
null,"<div style=""font-size:60px;"">+</div>",,html-keyboard-response,221,2357873,0.0-15.0-0.13,86053,List1B,black,man,,,,null,,,,
null,"<img src=""stim_listB/shout2.gif""style=""height:400px;""></stim_listB>",,html-keyboard-response,222,2359875,0.0-15.0-1.13,86053,List1B,black,man,,,,null,,,,
null,are shouting at each other,,html-keyboard-response,223,2361877,0.0-15.0-2.13,86053,List1B,black,man,,,,null,,,,
30355,,,survey-text,224,2392232,0.0-15.0-3.13,86053,List1B,black,man,,,,,"{""Q0"":""kate and mike are shouting at each other""}","<img src=""stim_listB/shout2.gif""style=""height:400px;""></stim_listB>",are shouting at each other,
null,"<div style=""font-size:60px;"">+</div>",,html-keyboard-response,225,2392734,0.0-15.0-0.14,86053,List1B,black,man,,,,null,,,,
null,"<img src=""stim_listB/marry2.gif""style=""height:400px;""></stim_listB>",,html-keyboard-response,226,2394736,0.0-15.0-1.14,86053,List1B,black,man,,,,null,,,,
null,are marrying each other,,html-keyboard-response,227,2396737,0.0-15.0-2.14,86053,List1B,black,man,,,,null,,,,
21174,,,survey-text,228,2417912,0.0-15.0-3.14,86053,List1B,black,man,,,,,"{""Q0"":""fred and kate are marrying each other""}","<img src=""stim_listB/marry2.gif""style=""height:400px;""></stim_listB>",are marrying each other,
null,"<div style=""font-size:60px;"">+</div>",,html-keyboard-response,229,2418415,0.0-15.0-0.15,86053,List1B,black,man,,,,null,,,,
null,"<img src=""stim_listB/play3.gif""style=""height:400px;""></stim_listB>",,html-keyboard-response,230,2420417,0.0-15.0-1.15,86053,List1B,black,man,,,,null,,,,
null,is playing with,,html-keyboard-response,231,2422419,0.0-15.0-2.15,86053,List1B,black,man,,,,null,,,,
15030,,,survey-text,232,2437449,0.0-15.0-3.15,86053,List1B,black,man,,,,,"{""Q0"":""dave is playing with jane""}","<img src=""stim_listB/play3.gif""style=""height:400px;""></stim_listB>",is playing with,
null,"<div style=""font-size:60px;"">+</div>",,html-keyboard-response,233,2437951,0.0-15.0-0.16,86053,List1B,black,man,,,,null,,,,
null,"<img src=""stim_listB/marry8.gif""style=""height:400px;""></stim_listB>",,html-keyboard-response,234,2439953,0.0-15.0-1.16,86053,List1B,black,man,,,,null,,,,
null,are marrying each other,,html-keyboard-response,235,2441954,0.0-15.0-2.16,86053,List1B,black,man,,,,null,,,,
11459,,,survey-text,236,2453415,0.0-15.0-3.16,86053,List1B,black,man,,,,,"{""Q0"":""jane and beth are marrying each other""}","<img src=""stim_listB/marry8.gif""style=""height:400px;""></stim_listB>",are marrying each other,
null,"<div style=""font-size:60px;"">+</div>",,html-keyboard-response,237,2453917,0.0-15.0-0.17,86053,List1B,black,man,,,,null,,,,
null,"<img src=""stim_listB/argue5.gif""style=""height:400px;""></stim_listB>",,html-keyboard-response,238,2455920,0.0-15.0-1.17,86053,List1B,black,man,,,,null,,,,
null,is arguing with,,html-keyboard-response,239,2457921,0.0-15.0-2.17,86053,List1B,black,man,,,,null,,,,
19702,,,survey-text,240,2477624,0.0-15.0-3.17,86053,List1B,black,man,,,,,"{""Q0"":""mike is arguing with luke""}","<img src=""stim_listB/argue5.gif""style=""height:400px;""></stim_listB>",is arguing with,
null,"<div style=""font-size:60px;"">+</div>",,html-keyboard-response,241,2478126,0.0-15.0-0.18,86053,List1B,black,man,,,,null,,,,
null,"<img src=""stim_listB/shout5.gif""style=""height:400px;""></stim_listB>",,html-keyboard-response,242,2480128,0.0-15.0-1.18,86053,List1B,black,man,,,,null,,,,
null,is shouting at,,html-keyboard-response,243,2482130,0.0-15.0-2.18,86053,List1B,black,man,,,,null,,,,
15467,,,survey-text,244,2497598,0.0-15.0-3.18,86053,List1B,black,man,,,,,"{""Q0"":""fred is shouting at luke""}","<img src=""stim_listB/shout5.gif""style=""height:400px;""></stim_listB>",is shouting at,
null,"<div style=""font-size:60px;"">+</div>",,html-keyboard-response,245,2498100,0.0-15.0-0.19,86053,List1B,black,man,,,,null,,,,
null,"<img src=""stim_listB/talk4.gif""style=""height:400px;""></stim_listB>",,html-keyboard-response,246,2500102,0.0-15.0-1.19,86053,List1B,black,man,,,,null,,,,
null,are talking to each other,,html-keyboard-response,247,2502104,0.0-15.0-2.19,86053,List1B,black,man,,,,null,,,,
13075,,,survey-text,248,2515180,0.0-15.0-3.19,86053,List1B,black,man,,,,,"{""Q0"":""dave and ruth are talking to each other""}","<img src=""stim_listB/talk4.gif""style=""height:400px;""></stim_listB>",are talking to each other,
4708,"<img src='img/portrait_matrix_list1.jpg' style='width:900px;height:500px;''></img><p>If you have memorised all the portraits and names and are ready to start, press Continue.</p><p><strong>Please note: Your memory of these faces will be tested 4 times during this experiment.</strong></p>",0,html-button-response,249,2519889,0.0-16.0-0.0,86053,List1B,black,man,,,,,,,,
2313,"<img src=""portrait/BW2.jpg""style=""height:400px;""></img>",2,html-button-response,250,2523205,0.0-16.0-1.0,86053,List1B,black,man,,TRUE,2,,,,,
null,CORRECT,,html-keyboard-response,251,2524707,0.0-16.0-2.0-0.0,86053,List1B,black,man,,,,null,,,,
1702,"<img src=""portrait/WW1.jpg""style=""height:400px;""></img>",1,html-button-response,252,2526410,0.0-16.0-4.0,86053,List1B,black,man,,TRUE,1,,,,,
null,CORRECT,,html-keyboard-response,253,2527914,0.0-16.0-5.0-0.0,86053,List1B,black,man,,,,null,,,,
2441,"<img src=""portrait/BW1.jpg""style=""height:400px;""></img>",0,html-button-response,254,2530356,0.0-16.0-7.0,86053,List1B,black,man,,TRUE,0,,,,,
null,CORRECT,,html-keyboard-response,255,2531859,0.0-16.0-8.0-0.0,86053,List1B,black,man,,,,null,,,,
2108,"<img src=""portrait/BM2.jpg""style=""height:400px;""></img>",5,html-button-response,256,2533970,0.0-16.0-10.0,86053,List1B,black,man,,TRUE,5,,,,,
null,CORRECT,,html-keyboard-response,257,2535472,0.0-16.0-11.0-0.0,86053,List1B,black,man,,,,null,,,,
1556,"<img src=""portrait/BM1.jpg""style=""height:400px;""></img>",4,html-button-response,258,2537030,0.0-16.0-13.0,86053,List1B,black,man,,TRUE,4,,,,,
null,CORRECT,,html-keyboard-response,259,2538534,0.0-16.0-14.0-0.0,86053,List1B,black,man,,,,null,,,,
1546,"<img src=""portrait/WM2.jpg""style=""height:400px;""></img>",7,html-button-response,260,2540082,0.0-16.0-16.0,86053,List1B,black,man,,TRUE,7,,,,,
null,CORRECT,,html-keyboard-response,261,2541583,0.0-16.0-17.0-0.0,86053,List1B,black,man,,,,null,,,,
2912,"<img src=""portrait/WW2.jpg""style=""height:400px;""></img>",3,html-button-response,262,2544496,0.0-16.0-19.0,86053,List1B,black,man,,TRUE,3,,,,,
null,CORRECT,,html-keyboard-response,263,2546000,0.0-16.0-20.0-0.0,86053,List1B,black,man,,,,null,,,,
3113,"<img src=""portrait/WM1.jpg""style=""height:400px;""></img>",6,html-button-response,264,2549115,0.0-16.0-22.0,86053,List1B,black,man,,TRUE,6,,,,,
null,CORRECT,,html-keyboard-response,265,2550619,0.0-16.0-23.0-0.0,86053,List1B,black,man,,,,null,,,,
1882,<p>You got 8 out of 8 right first time. Press Continue.</p>,0,html-button-response,266,2552502,0.0-16.0-25.0,86053,List1B,black,man,,,,,,,,
null,"<div style=""font-size:60px;"">+</div>",,html-keyboard-response,267,2554005,0.0-17.0-0.0,86053,List1B,black,man,,,,null,,,,
null,"<img src=""stim_listB/play1.gif""style=""height:400px;""></stim_listB>",,html-keyboard-response,268,2556006,0.0-17.0-1.0,86053,List1B,black,man,,,,null,,,,
null,is playing with,,html-keyboard-response,269,2558008,0.0-17.0-2.0,86053,List1B,black,man,,,,null,,,,
8563,,,survey-text,270,2566571,0.0-17.0-3.0,86053,List1B,black,man,,,,,"{""Q0"":""kate is playing with mike""}","<img src=""stim_listB/play1.gif""style=""height:400px;""></stim_listB>",is playing with,
null,"<div style=""font-size:60px;"">+</div>",,html-keyboard-response,271,2567074,0.0-17.0-0.1,86053,List1B,black,man,,,,null,,,,
null,"<img src=""stim_listB/shout8.gif""style=""height:400px;""></stim_listB>",,html-keyboard-response,272,2569075,0.0-17.0-1.1,86053,List1B,black,man,,,,null,,,,
null,are shouting at each other,,html-keyboard-response,273,2571076,0.0-17.0-2.1,86053,List1B,black,man,,,,null,,,,
14548,,,survey-text,274,2585626,0.0-17.0-3.1,86053,List1B,black,man,,,,,"{""Q0"":""kate and jane are shouting at each other""}","<img src=""stim_listB/shout8.gif""style=""height:400px;""></stim_listB>",are shouting at each other,
null,"<div style=""font-size:60px;"">+</div>",,html-keyboard-response,275,2586128,0.0-17.0-0.2,86053,List1B,black,man,,,,null,,,,
null,"<img src=""stim_listB/touch3.gif""style=""height:400px;""></stim_listB>",,html-keyboard-response,276,2588130,0.0-17.0-1.2,86053,List1B,black,man,,,,null,,,,
null,is touching,,html-keyboard-response,277,2590130,0.0-17.0-2.2,86053,List1B,black,man,,,,null,,,,
9405,,,survey-text,278,2599537,0.0-17.0-3.2,86053,List1B,black,man,,,,,"{""Q0"":""jane is touching dave""}","<img src=""stim_listB/touch3.gif""style=""height:400px;""></stim_listB>",is touching,
null,"<div style=""font-size:60px;"">+</div>",,html-keyboard-response,279,2600039,0.0-17.0-0.3,86053,List1B,black,man,,,,null,,,,
null,"<img src=""stim_listB/dance3.gif""style=""height:400px;""></stim_listB>",,html-keyboard-response,280,2602042,0.0-17.0-1.3,86053,List1B,black,man,,,,null,,,,
null,is dancing with,,html-keyboard-response,281,2604044,0.0-17.0-2.3,86053,List1B,black,man,,,,null,,,,
8109,,,survey-text,282,2612155,0.0-17.0-3.3,86053,List1B,black,man,,,,,"{""Q0"":""jane is dancing with luke""}","<img src=""stim_listB/dance3.gif""style=""height:400px;""></stim_listB>",is dancing with,
null,"<div style=""font-size:60px;"">+</div>",,html-keyboard-response,283,2612658,0.0-17.0-0.4,86053,List1B,black,man,,,,null,,,,
null,"<img src=""stim_listB/marry3.gif""style=""height:400px;""></stim_listB>",,html-keyboard-response,284,2614661,0.0-17.0-1.4,86053,List1B,black,man,,,,null,,,,
null,is marrying,,html-keyboard-response,285,2616662,0.0-17.0-2.4,86053,List1B,black,man,,,,null,,,,
10701,,,survey-text,286,2627364,0.0-17.0-3.4,86053,List1B,black,man,,,,,"{""Q0"":""ruth is marrying dave""}","<img src=""stim_listB/marry3.gif""style=""height:400px;""></stim_listB>",is marrying,
null,"<div style=""font-size:60px;"">+</div>",,html-keyboard-response,287,2627868,0.0-17.0-0.5,86053,List1B,black,man,,,,null,,,,
null,"<img src=""stim_listB/shout1.gif""style=""height:400px;""></stim_listB>",,html-keyboard-response,288,2629870,0.0-17.0-1.5,86053,List1B,black,man,,,,null,,,,
null,is shouting at,,html-keyboard-response,289,2631871,0.0-17.0-2.5,86053,List1B,black,man,,,,null,,,,
11020,,,survey-text,290,2642894,0.0-17.0-3.5,86053,List1B,black,man,,,,,"{""Q0"":""beth is shouting at fred""}","<img src=""stim_listB/shout1.gif""style=""height:400px;""></stim_listB>",is shouting at,
null,"<div style=""font-size:60px;"">+</div>",,html-keyboard-response,291,2643395,0.0-17.0-0.6,86053,List1B,black,man,,,,null,,,,
null,"<img src=""stim_listB/play7.gif""style=""height:400px;""></stim_listB>",,html-keyboard-response,292,2645397,0.0-17.0-1.6,86053,List1B,black,man,,,,null,,,,
null,is playing with,,html-keyboard-response,293,2647398,0.0-17.0-2.6,86053,List1B,black,man,,,,null,,,,
6721,,,survey-text,294,2654120,0.0-17.0-3.6,86053,List1B,black,man,,,,,"{""Q0"":""jane is playing with kate""}","<img src=""stim_listB/play7.gif""style=""height:400px;""></stim_listB>",is playing with,
null,"<div style=""font-size:60px;"">+</div>",,html-keyboard-response,295,2654621,0.0-17.0-0.7,86053,List1B,black,man,,,,null,,,,
null,"<img src=""stim_listB/flirt2.gif""style=""height:400px;""></stim_listB>",,html-keyboard-response,296,2656622,0.0-17.0-1.7,86053,List1B,black,man,,,,null,,,,
null,are flirting with each other,,html-keyboard-response,297,2658624,0.0-17.0-2.7,86053,List1B,black,man,,,,null,,,,
20824,,,survey-text,298,2679449,0.0-17.0-3.7,86053,List1B,black,man,,,,,"{""Q0"":""beth and mike are flirting with each other""}","<img src=""stim_listB/flirt2.gif""style=""height:400px;""></stim_listB>",are flirting with each other,
null,"<div style=""font-size:60px;"">+</div>",,html-keyboard-response,299,2679952,0.0-17.0-0.8,86053,List1B,black,man,,,,null,,,,
null,"<img src=""stim_listB/shout3.gif""style=""height:400px;""></stim_listB>",,html-keyboard-response,300,2681954,0.0-17.0-1.8,86053,List1B,black,man,,,,null,,,,
null,is shouting at,,html-keyboard-response,301,2683955,0.0-17.0-2.8,86053,List1B,black,man,,,,null,,,,
8548,,,survey-text,302,2692504,0.0-17.0-3.8,86053,List1B,black,man,,,,,"{""Q0"":""ruth is shouting at luke""}","<img src=""stim_listB/shout3.gif""style=""height:400px;""></stim_listB>",is shouting at,
null,"<div style=""font-size:60px;"">+</div>",,html-keyboard-response,303,2693007,0.0-17.0-0.9,86053,List1B,black,man,,,,null,,,,
null,"<img src=""stim_listB/kiss6.gif""style=""height:400px;""></stim_listB>",,html-keyboard-response,304,2695008,0.0-17.0-1.9,86053,List1B,black,man,,,,null,,,,
null,are kissing each other,,html-keyboard-response,305,2697011,0.0-17.0-2.9,86053,List1B,black,man,,,,null,,,,
12068,,,survey-text,306,2709080,0.0-17.0-3.9,86053,List1B,black,man,,,,,"{""Q0"":""mike and dave are kissing each other""}","<img src=""stim_listB/kiss6.gif""style=""height:400px;""></stim_listB>",are kissing each other,
null,"<div style=""font-size:60px;"">+</div>",,html-keyboard-response,307,2709582,0.0-17.0-0.10,86053,List1B,black,man,,,,null,,,,
null,"<img src=""stim_listB/fight6.gif""style=""height:400px;""></stim_listB>",,html-keyboard-response,308,2711584,0.0-17.0-1.10,86053,List1B,black,man,,,,null,,,,
null,are fighting each other,,html-keyboard-response,309,2713585,0.0-17.0-2.10,86053,List1B,black,man,,,,null,,,,
10351,,,survey-text,310,2723936,0.0-17.0-3.10,86053,List1B,black,man,,,,,"{""Q0"":""fred and luke are fighting each other""}","<img src=""stim_listB/fight6.gif""style=""height:400px;""></stim_listB>",are fighting each other,
null,"<div style=""font-size:60px;"">+</div>",,html-keyboard-response,311,2724438,0.0-17.0-0.11,86053,List1B,black,man,,,,null,,,,
null,"<img src=""stim_listB/fight5.gif""style=""height:400px;""></stim_listB>",,html-keyboard-response,312,2726440,0.0-17.0-1.11,86053,List1B,black,man,,,,null,,,,
null,is fighting,,html-keyboard-response,313,2728441,0.0-17.0-2.11,86053,List1B,black,man,,,,null,,,,
8829,,,survey-text,314,2737271,0.0-17.0-3.11,86053,List1B,black,man,,,,,"{""Q0"":""dave is fighting mike""}","<img src=""stim_listB/fight5.gif""style=""height:400px;""></stim_listB>",is fighting,
null,"<div style=""font-size:60px;"">+</div>",,html-keyboard-response,315,2737772,0.0-17.0-0.12,86053,List1B,black,man,,,,null,,,,
null,"<img src=""stim_listB/kiss7.gif""style=""height:400px;""></stim_listB>",,html-keyboard-response,316,2739774,0.0-17.0-1.12,86053,List1B,black,man,,,,null,,,,
null,is kissing,,html-keyboard-response,317,2741774,0.0-17.0-2.12,86053,List1B,black,man,,,,null,,,,
10259,,,survey-text,318,2752035,0.0-17.0-3.12,86053,List1B,black,man,,,,,"{""Q0"":""beth is kissing ruth""}","<img src=""stim_listB/kiss7.gif""style=""height:400px;""></stim_listB>",is kissing,
null,"<div style=""font-size:60px;"">+</div>",,html-keyboard-response,319,2752537,0.0-17.0-0.13,86053,List1B,black,man,,,,null,,,,
null,"<img src=""stim_listB/talk8.gif""style=""height:400px;""></stim_listB>",,html-keyboard-response,320,2754539,0.0-17.0-1.13,86053,List1B,black,man,,,,null,,,,
null,are talking to each other,,html-keyboard-response,321,2756541,0.0-17.0-2.13,86053,List1B,black,man,,,,null,,,,
34271,,,survey-text,322,2790813,0.0-17.0-3.13,86053,List1B,black,man,,,,,"{""Q0"":""ruth and kate are talking to each other""}","<img src=""stim_listB/talk8.gif""style=""height:400px;""></stim_listB>",are talking to each other,
null,"<div style=""font-size:60px;"">+</div>",,html-keyboard-response,323,2791315,0.0-17.0-0.14,86053,List1B,black,man,,,,null,,,,
null,"<img src=""stim_listB/marry7.gif""style=""height:400px;""></stim_listB>",,html-keyboard-response,324,2793318,0.0-17.0-1.14,86053,List1B,black,man,,,,null,,,,
null,is marrying,,html-keyboard-response,325,2795320,0.0-17.0-2.14,86053,List1B,black,man,,,,null,,,,
6367,,,survey-text,326,2801688,0.0-17.0-3.14,86053,List1B,black,man,,,,,"{""Q0"":""ruth is marrying kate""}","<img src=""stim_listB/marry7.gif""style=""height:400px;""></stim_listB>",is marrying,
null,"<div style=""font-size:60px;"">+</div>",,html-keyboard-response,327,2802190,0.0-17.0-0.15,86053,List1B,black,man,,,,null,,,,
null,"<img src=""stim_listB/talk2.gif""style=""height:400px;""></stim_listB>",,html-keyboard-response,328,2804191,0.0-17.0-1.15,86053,List1B,black,man,,,,null,,,,
null,are talking to each other,,html-keyboard-response,329,2806192,0.0-17.0-2.15,86053,List1B,black,man,,,,null,,,,
10331,,,survey-text,330,2816524,0.0-17.0-3.15,86053,List1B,black,man,,,,,"{""Q0"":""mike and beth are talking to each other""}","<img src=""stim_listB/talk2.gif""style=""height:400px;""></stim_listB>",are talking to each other,
null,"<div style=""font-size:60px;"">+</div>",,html-keyboard-response,331,2817026,0.0-17.0-0.16,86053,List1B,black,man,,,,null,,,,
null,"<img src=""stim_listB/kiss3.gif""style=""height:400px;""></stim_listB>",,html-keyboard-response,332,2819027,0.0-17.0-1.16,86053,List1B,black,man,,,,null,,,,
null,is kissing,,html-keyboard-response,333,2821028,0.0-17.0-2.16,86053,List1B,black,man,,,,null,,,,
9023,,,survey-text,334,2830053,0.0-17.0-3.16,86053,List1B,black,man,,,,,"{""Q0"":""luke is kissing beth""}","<img src=""stim_listB/kiss3.gif""style=""height:400px;""></stim_listB>",is kissing,
null,"<div style=""font-size:60px;"">+</div>",,html-keyboard-response,335,2830556,0.0-17.0-0.17,86053,List1B,black,man,,,,null,,,,
null,"<img src=""stim_listB/touch4.gif""style=""height:400px;""></stim_listB>",,html-keyboard-response,336,2832558,0.0-17.0-1.17,86053,List1B,black,man,,,,null,,,,
null,are touching each other,,html-keyboard-response,337,2834559,0.0-17.0-2.17,86053,List1B,black,man,,,,null,,,,
17540,,,survey-text,338,2852101,0.0-17.0-3.17,86053,List1B,black,man,,,,,"{""Q0"":""luke and ruth are touching each other""}","<img src=""stim_listB/touch4.gif""style=""height:400px;""></stim_listB>",are touching each other,
null,"<div style=""font-size:60px;"">+</div>",,html-keyboard-response,339,2852603,0.0-17.0-0.18,86053,List1B,black,man,,,,null,,,,
null,"<img src=""stim_listB/argue1.gif""style=""height:400px;""></stim_listB>",,html-keyboard-response,340,2854605,0.0-17.0-1.18,86053,List1B,black,man,,,,null,,,,
null,is arguing with,,html-keyboard-response,341,2856607,0.0-17.0-2.18,86053,List1B,black,man,,,,null,,,,
13017,,,survey-text,342,2869626,0.0-17.0-3.18,86053,List1B,black,man,,,,,"{""Q0"":""beth is arguing with mike""}","<img src=""stim_listB/argue1.gif""style=""height:400px;""></stim_listB>",is arguing with,
null,"<div style=""font-size:60px;"">+</div>",,html-keyboard-response,343,2870127,0.0-17.0-0.19,86053,List1B,black,man,,,,null,,,,
null,"<img src=""stim_listB/touch8.gif""style=""height:400px;""></stim_listB>",,html-keyboard-response,344,2872128,0.0-17.0-1.19,86053,List1B,black,man,,,,null,,,,
null,are touching each other,,html-keyboard-response,345,2874129,0.0-17.0-2.19,86053,List1B,black,man,,,,null,,,,
11918,,,survey-text,346,2886050,0.0-17.0-3.19,86053,List1B,black,man,,,,,"{""Q0"":""ruth and beth are talking to each other""}","<img src=""stim_listB/touch8.gif""style=""height:400px;""></stim_listB>",are touching each other,
4897,"<img src='img/portrait_matrix_list1.jpg' style='width:900px;height:500px;''></img><p>If you have memorised all the portraits and names and are ready to start, press Continue.</p><p><strong>Please note: Your memory of these faces will be tested 4 times during this experiment.</strong></p>",0,html-button-response,347,2890949,0.0-18.0-0.0,86053,List1B,black,man,,,,,,,,
2151,"<img src=""portrait/WM2.jpg""style=""height:400px;""></img>",7,html-button-response,348,2894102,0.0-18.0-1.0,86053,List1B,black,man,,TRUE,7,,,,,
null,CORRECT,,html-keyboard-response,349,2895604,0.0-18.0-2.0-0.0,86053,List1B,black,man,,,,null,,,,
2514,"<img src=""portrait/BM2.jpg""style=""height:400px;""></img>",5,html-button-response,350,2898119,0.0-18.0-4.0,86053,List1B,black,man,,TRUE,5,,,,,
null,CORRECT,,html-keyboard-response,351,2899623,0.0-18.0-5.0-0.0,86053,List1B,black,man,,,,null,,,,
2615,"<img src=""portrait/WW1.jpg""style=""height:400px;""></img>",1,html-button-response,352,2902238,0.0-18.0-7.0,86053,List1B,black,man,,TRUE,1,,,,,
null,CORRECT,,html-keyboard-response,353,2903741,0.0-18.0-8.0-0.0,86053,List1B,black,man,,,,null,,,,
1872,"<img src=""portrait/BW1.jpg""style=""height:400px;""></img>",0,html-button-response,354,2905615,0.0-18.0-10.0,86053,List1B,black,man,,TRUE,0,,,,,
null,CORRECT,,html-keyboard-response,355,2907117,0.0-18.0-11.0-0.0,86053,List1B,black,man,,,,null,,,,
1873,"<img src=""portrait/BM1.jpg""style=""height:400px;""></img>",4,html-button-response,356,2908991,0.0-18.0-13.0,86053,List1B,black,man,,TRUE,4,,,,,
null,CORRECT,,html-keyboard-response,357,2910493,0.0-18.0-14.0-0.0,86053,List1B,black,man,,,,null,,,,
3369,"<img src=""portrait/WM1.jpg""style=""height:400px;""></img>",6,html-button-response,358,2913863,0.0-18.0-16.0,86053,List1B,black,man,,TRUE,6,,,,,
null,CORRECT,,html-keyboard-response,359,2915365,0.0-18.0-17.0-0.0,86053,List1B,black,man,,,,null,,,,
1466,"<img src=""portrait/WW2.jpg""style=""height:400px;""></img>",3,html-button-response,360,2916832,0.0-18.0-19.0,86053,List1B,black,man,,TRUE,3,,,,,
null,CORRECT,,html-keyboard-response,361,2918336,0.0-18.0-20.0-0.0,86053,List1B,black,man,,,,null,,,,
4781,"<img src=""portrait/BW2.jpg""style=""height:400px;""></img>",2,html-button-response,362,2923118,0.0-18.0-22.0,86053,List1B,black,man,,TRUE,2,,,,,
null,CORRECT,,html-keyboard-response,363,2924621,0.0-18.0-23.0-0.0,86053,List1B,black,man,,,,null,,,,
1325,<p>You got 8 out of 8 right first time. Press Continue.</p>,0,html-button-response,364,2925946,0.0-18.0-25.0,86053,List1B,black,man,,,,,,,,
null,"<div style=""font-size:60px;"">+</div>",,html-keyboard-response,365,2927450,0.0-19.0-0.0,86053,List1B,black,man,,,,null,,,,
null,"<img src=""stim_listB/fight2.gif""style=""height:400px;""></stim_listB>",,html-keyboard-response,366,2929452,0.0-19.0-1.0,86053,List1B,black,man,,,,null,,,,
null,are fighting each other,,html-keyboard-response,367,2931455,0.0-19.0-2.0,86053,List1B,black,man,,,,null,,,,
23397,,,survey-text,368,2954853,0.0-19.0-3.0,86053,List1B,black,man,,,,,"{""Q0"":""beth and fred are fighting each other""}","<img src=""stim_listB/fight2.gif""style=""height:400px;""></stim_listB>",are fighting each other,
null,"<div style=""font-size:60px;"">+</div>",,html-keyboard-response,369,2955355,0.0-19.0-0.1,86053,List1B,black,man,,,,null,,,,
null,"<img src=""stim_listB/fight1.gif""style=""height:400px;""></stim_listB>",,html-keyboard-response,370,2957357,0.0-19.0-1.1,86053,List1B,black,man,,,,null,,,,
null,is fighting,,html-keyboard-response,371,2959359,0.0-19.0-2.1,86053,List1B,black,man,,,,null,,,,
7413,,,survey-text,372,2966773,0.0-19.0-3.1,86053,List1B,black,man,,,,,"{""Q0"":""mike is fighting kate""}","<img src=""stim_listB/fight1.gif""style=""height:400px;""></stim_listB>",is fighting,
null,"<div style=""font-size:60px;"">+</div>",,html-keyboard-response,373,2967274,0.0-19.0-0.2,86053,List1B,black,man,,,,null,,,,
null,"<img src=""stim_listB/dance8.gif""style=""height:400px;""></stim_listB>",,html-keyboard-response,374,2969277,0.0-19.0-1.2,86053,List1B,black,man,,,,null,,,,
null,are dancing with each other,,html-keyboard-response,375,2971278,0.0-19.0-2.2,86053,List1B,black,man,,,,null,,,,
11995,,,survey-text,376,2983274,0.0-19.0-3.2,86053,List1B,black,man,,,,,"{""Q0"":""ruth and kate are dancing with each other""}","<img src=""stim_listB/dance8.gif""style=""height:400px;""></stim_listB>",are dancing with each other,
null,"<div style=""font-size:60px;"">+</div>",,html-keyboard-response,377,2983776,0.0-19.0-0.3,86053,List1B,black,man,,,,null,,,,
null,"<img src=""stim_listB/marry1.gif""style=""height:400px;""></stim_listB>",,html-keyboard-response,378,2985778,0.0-19.0-1.3,86053,List1B,black,man,,,,null,,,,
null,is marrying,,html-keyboard-response,379,2987779,0.0-19.0-2.3,86053,List1B,black,man,,,,null,,,,
39256,,,survey-text,380,3027037,0.0-19.0-3.3,86053,List1B,black,man,,,,,"{""Q0"":""beth is marrying mike""}","<img src=""stim_listB/marry1.gif""style=""height:400px;""></stim_listB>",is marrying,
null,"<div style=""font-size:60px;"">+</div>",,html-keyboard-response,381,3027538,0.0-19.0-0.4,86053,List1B,black,man,,,,null,,,,
null,"<img src=""stim_listB/talk3.gif""style=""height:400px;""></stim_listB>",,html-keyboard-response,382,3029540,0.0-19.0-1.4,86053,List1B,black,man,,,,null,,,,
null,is talking to,,html-keyboard-response,383,3031542,0.0-19.0-2.4,86053,List1B,black,man,,,,null,,,,
7168,,,survey-text,384,3038712,0.0-19.0-3.4,86053,List1B,black,man,,,,,"{""Q0"":""luke is talking to jane""}","<img src=""stim_listB/talk3.gif""style=""height:400px;""></stim_listB>",is talking to,
null,"<div style=""font-size:60px;"">+</div>",,html-keyboard-response,385,3039214,0.0-19.0-0.5,86053,List1B,black,man,,,,null,,,,
null,"<img src=""stim_listB/touch6.gif""style=""height:400px;""></stim_listB>",,html-keyboard-response,386,3041216,0.0-19.0-1.5,86053,List1B,black,man,,,,null,,,,
null,are touching each other,,html-keyboard-response,387,3043218,0.0-19.0-2.5,86053,List1B,black,man,,,,null,,,,
18558,,,survey-text,388,3061777,0.0-19.0-3.5,86053,List1B,black,man,,,,,"{""Q0"":""luke and fred are touching each other""}","<img src=""stim_listB/touch6.gif""style=""height:400px;""></stim_listB>",are touching each other,
null,"<div style=""font-size:60px;"">+</div>",,html-keyboard-response,389,3062279,0.0-19.0-0.6,86053,List1B,black,man,,,,null,,,,
null,"<img src=""stim_listB/marry6.gif""style=""height:400px;""></stim_listB>",,html-keyboard-response,390,3064281,0.0-19.0-1.6,86053,List1B,black,man,,,,null,,,,
null,are marrying each other,,html-keyboard-response,391,3066283,0.0-19.0-2.6,86053,List1B,black,man,,,,null,,,,
23727,,,survey-text,392,3090011,0.0-19.0-3.6,86053,List1B,black,man,,,,,"{""Q0"":""dave and fred are marrying each other""}","<img src=""stim_listB/marry6.gif""style=""height:400px;""></stim_listB>",are marrying each other,
null,"<div style=""font-size:60px;"">+</div>",,html-keyboard-response,393,3090513,0.0-19.0-0.7,86053,List1B,black,man,,,,null,,,,
null,"<img src=""stim_listB/touch1.gif""style=""height:400px;""></stim_listB>",,html-keyboard-response,394,3092517,0.0-19.0-1.7,86053,List1B,black,man,,,,null,,,,
null,is touching,,html-keyboard-response,395,3094520,0.0-19.0-2.7,86053,List1B,black,man,,,,null,,,,
9317,,,survey-text,396,3103837,0.0-19.0-3.7,86053,List1B,black,man,,,,,"{""Q0"":""kate is touching mike""}","<img src=""stim_listB/touch1.gif""style=""height:400px;""></stim_listB>",is touching,
null,"<div style=""font-size:60px;"">+</div>",,html-keyboard-response,397,3104339,0.0-19.0-0.8,86053,List1B,black,man,,,,null,,,,
null,"<img src=""stim_listB/argue8.gif""style=""height:400px;""></stim_listB>",,html-keyboard-response,398,3106342,0.0-19.0-1.8,86053,List1B,black,man,,,,null,,,,
null,are arguing with each other,,html-keyboard-response,399,3108344,0.0-19.0-2.8,86053,List1B,black,man,,,,null,,,,
16120,,,survey-text,400,3124466,0.0-19.0-3.8,86053,List1B,black,man,,,,,"{""Q0"":""beth and jane are arguing with each other""}","<img src=""stim_listB/argue8.gif""style=""height:400px;""></stim_listB>",are arguing with each other,
null,"<div style=""font-size:60px;"">+</div>",,html-keyboard-response,401,3124969,0.0-19.0-0.9,86053,List1B,black,man,,,,null,,,,
null,"<img src=""stim_listB/flirt7.gif""style=""height:400px;""></stim_listB>",,html-keyboard-response,402,3126971,0.0-19.0-1.9,86053,List1B,black,man,,,,null,,,,
null,is flirting with,,html-keyboard-response,403,3128972,0.0-19.0-2.9,86053,List1B,black,man,,,,null,,,,
14945,,,survey-text,404,3143917,0.0-19.0-3.9,86053,List1B,black,man,,,,,"{""Q0"":""beth is flirting with jane""}","<img src=""stim_listB/flirt7.gif""style=""height:400px;""></stim_listB>",is flirting with,
null,"<div style=""font-size:60px;"">+</div>",,html-keyboard-response,405,3144419,0.0-19.0-0.10,86053,List1B,black,man,,,,null,,,,
null,"<img src=""stim_listB/kiss1.gif""style=""height:400px;""></stim_listB>",,html-keyboard-response,406,3146422,0.0-19.0-1.10,86053,List1B,black,man,,,,null,,,,
null,is kissing,,html-keyboard-response,407,3148424,0.0-19.0-2.10,86053,List1B,black,man,,,,null,,,,
7574,,,survey-text,408,3155999,0.0-19.0-3.10,86053,List1B,black,man,,,,,"{""Q0"":""beth is kissing fred""}","<img src=""stim_listB/kiss1.gif""style=""height:400px;""></stim_listB>",is kissing,
null,"<div style=""font-size:60px;"">+</div>",,html-keyboard-response,409,3156501,0.0-19.0-0.11,86053,List1B,black,man,,,,null,,,,
null,"<img src=""stim_listB/dance2.gif""style=""height:400px;""></stim_listB>",,html-keyboard-response,410,3158503,0.0-19.0-1.11,86053,List1B,black,man,,,,null,,,,
null,are dancing with each other,,html-keyboard-response,411,3160505,0.0-19.0-2.11,86053,List1B,black,man,,,,null,,,,
10632,,,survey-text,412,3171137,0.0-19.0-3.11,86053,List1B,black,man,,,,,"{""Q0"":""mike and beth are dancing with each other""}","<img src=""stim_listB/dance2.gif""style=""height:400px;""></stim_listB>",are dancing with each other,
null,"<div style=""font-size:60px;"">+</div>",,html-keyboard-response,413,3171641,0.0-19.0-0.12,86053,List1B,black,man,,,,null,,,,
null,"<img src=""stim_listB/talk6.gif""style=""height:400px;""></stim_listB>",,html-keyboard-response,414,3173644,0.0-19.0-1.12,86053,List1B,black,man,,,,null,,,,
null,are talking to each other,,html-keyboard-response,415,3175645,0.0-19.0-2.12,86053,List1B,black,man,,,,null,,,,
15471,,,survey-text,416,3191116,0.0-19.0-3.12,86053,List1B,black,man,,,,,"{""Q0"":""luke and mike are talking to each other""}","<img src=""stim_listB/talk6.gif""style=""height:400px;""></stim_listB>",are talking to each other,
null,"<div style=""font-size:60px;"">+</div>",,html-keyboard-response,417,3191619,0.0-19.0-0.13,86053,List1B,black,man,,,,null,,,,
null,"<img src=""stim_listB/fight8.gif""style=""height:400px;""></stim_listB>",,html-keyboard-response,418,3193620,0.0-19.0-1.13,86053,List1B,black,man,,,,null,,,,
null,are fighting each other,,html-keyboard-response,419,3195621,0.0-19.0-2.13,86053,List1B,black,man,,,,null,,,,
12869,,,survey-text,420,3208491,0.0-19.0-3.13,86053,List1B,black,man,,,,,"{""Q0"":""ruth and beth are fighting each other""}","<img src=""stim_listB/fight8.gif""style=""height:400px;""></stim_listB>",are fighting each other,
null,"<div style=""font-size:60px;"">+</div>",,html-keyboard-response,421,3208992,0.0-19.0-0.14,86053,List1B,black,man,,,,null,,,,
null,"<img src=""stim_listB/kiss4.gif""style=""height:400px;""></stim_listB>",,html-keyboard-response,422,3210994,0.0-19.0-1.14,86053,List1B,black,man,,,,null,,,,
null,are kissing each other,,html-keyboard-response,423,3212995,0.0-19.0-2.14,86053,List1B,black,man,,,,null,,,,
12095,,,survey-text,424,3225092,0.0-19.0-3.14,86053,List1B,black,man,,,,,"{""Q0"":""jane and dave are kissing each other""}","<img src=""stim_listB/kiss4.gif""style=""height:400px;""></stim_listB>",are kissing each other,
null,"<div style=""font-size:60px;"">+</div>",,html-keyboard-response,425,3225594,0.0-19.0-0.15,86053,List1B,black,man,,,,null,,,,
null,"<img src=""stim_listB/flirt4.gif""style=""height:400px;""></stim_listB>",,html-keyboard-response,426,3227595,0.0-19.0-1.15,86053,List1B,black,man,,,,null,,,,
null,are flirting with each other,,html-keyboard-response,427,3229596,0.0-19.0-2.15,86053,List1B,black,man,,,,null,,,,
16423,,,survey-text,428,3246020,0.0-19.0-3.15,86053,List1B,black,man,,,,,"{""Q0"":""ruth and dave are flirting with each other""}","<img src=""stim_listB/flirt4.gif""style=""height:400px;""></stim_listB>",are flirting with each other,
null,"<div style=""font-size:60px;"">+</div>",,html-keyboard-response,429,3246522,0.0-19.0-0.16,86053,List1B,black,man,,,,null,,,,
null,"<img src=""stim_listB/marry5.gif""style=""height:400px;""></stim_listB>",,html-keyboard-response,430,3248524,0.0-19.0-1.16,86053,List1B,black,man,,,,null,,,,
null,is marrying,,html-keyboard-response,431,3250525,0.0-19.0-2.16,86053,List1B,black,man,,,,null,,,,
6304,,,survey-text,432,3256830,0.0-19.0-3.16,86053,List1B,black,man,,,,,"{""Q0"":""luke is marrying mike""}","<img src=""stim_listB/marry5.gif""style=""height:400px;""></stim_listB>",is marrying,
null,"<div style=""font-size:60px;"">+</div>",,html-keyboard-response,433,3257332,0.0-19.0-0.17,86053,List1B,black,man,,,,null,,,,
null,"<img src=""stim_listB/shout4.gif""style=""height:400px;""></stim_listB>",,html-keyboard-response,434,3259334,0.0-19.0-1.17,86053,List1B,black,man,,,,null,,,,
null,are shouting at each other,,html-keyboard-response,435,3261337,0.0-19.0-2.17,86053,List1B,black,man,,,,null,,,,
15598,,,survey-text,436,3276935,0.0-19.0-3.17,86053,List1B,black,man,,,,,"{""Q0"":""dave and jane are shouting at each other""}","<img src=""stim_listB/shout4.gif""style=""height:400px;""></stim_listB>",are shouting at each other,
null,"<div style=""font-size:60px;"">+</div>",,html-keyboard-response,437,3277437,0.0-19.0-0.18,86053,List1B,black,man,,,,null,,,,
null,"<img src=""stim_listB/touch5.gif""style=""height:400px;""></stim_listB>",,html-keyboard-response,438,3279439,0.0-19.0-1.18,86053,List1B,black,man,,,,null,,,,
null,is touching,,html-keyboard-response,439,3281441,0.0-19.0-2.18,86053,List1B,black,man,,,,null,,,,
11607,,,survey-text,440,3293049,0.0-19.0-3.18,86053,List1B,black,man,,,,,"{""Q0"":""dave is touching mike""}","<img src=""stim_listB/touch5.gif""style=""height:400px;""></stim_listB>",is touching,
null,"<div style=""font-size:60px;"">+</div>",,html-keyboard-response,441,3293550,0.0-19.0-0.19,86053,List1B,black,man,,,,null,,,,
null,"<img src=""stim_listB/play5.gif""style=""height:400px;""></stim_listB>",,html-keyboard-response,442,3295551,0.0-19.0-1.19,86053,List1B,black,man,,,,null,,,,
null,is playing with,,html-keyboard-response,443,3297552,0.0-19.0-2.19,86053,List1B,black,man,,,,null,,,,
11871,,,survey-text,444,3309424,0.0-19.0-3.19,86053,List1B,black,man,,,,,"{""Q0"":""dave is playing with mike""}","<img src=""stim_listB/play5.gif""style=""height:400px;""></stim_listB>",is playing with,
1677,<p>Thank you for completing that task.</p><p>The final part of this session is a short questionnaire.</p><p>Press Continue.</p>,0,html-button-response,445,3311102,0.0-20.0,86053,List1B,black,man,,,,,,,,
24426,,,survey-text,446,3336530,0.0-21.0,86053,List1B,black,man,,,,,"{""Q0"":""22"",""Q1"":""english"",""Q2"":""english"",""Q3"":""england"",""Q4"":""black"",""Q5"":""male""}",,,demographics
12261,,,survey-likert,447,3348794,0.0-22.0,86053,List1B,black,man,,,,,"{""Q0"":2}",,,likert_ESS
4614,,,survey-likert,448,3353410,0.0-23.0,86053,List1B,black,man,,,,,"{""Q0"":5}",,,likert_NSSAL_Q1
2825,,,survey-likert,449,3356237,0.0-24.0,86053,List1B,black,man,,,,,"{""Q0"":5}",,,likert_NSSAL_Q2
3547,,,survey-likert,450,3359785,0.0-25.0,86053,List1B,black,man,,,,,"{""Q0"":3}",,,likert_CGRS_Q1
2327,,,survey-likert,451,3362113,0.0-26.0,86053,List1B,black,man,,,,,"{""Q0"":3}",,,likert_CGRS_Q2
3151,,,survey-likert,452,3365266,0.0-27.0,86053,List1B,black,man,,,,,"{""Q0"":3}",,,likert_CGRS_Q3
9018,,,survey-text,453,3374286,0.0-28.0,86053,List1B,black,man,,,,,"{""Q0"":""ccc""}",,,worker_id
14585,,,external-html,454,3389009,0.0-29.0,86053,List1B,black,man,debrief.html,,,,,,,
