rt,stimulus,button_pressed,trial_type,trial_index,time_elapsed,internal_node_id,subject,list,ppt_race,ppt_gender,url,first_guess,correct,key_press,responses,image_type,phrase_type,test_part
4384,Welcome to the experiment. Press Continue to begin.,0,html-button-response,0,4397,0.0-0.0,86514,List1B,black,man,,,,,,,,
41399,,,external-html,1,47284,0.0-1.0,86514,List1B,black,man,consent.html,,,,,,,
10237,"<p>On the next page, you will see portraits of 8 people and their names.</p><p>Your first task is to take a few minutes to memorise the names of these people.</p><p>You will have to recall their names during the rest of the experiment, so it is</p><p>essential that you try to memorise these people and their names as best as you can.</p><br><p><strong>You will then be tested on your memory of these names and portraits.</strong></p><br><p>The experiment will start after you have completed this memory test.</p><br><p>Ready?</p>",0,html-button-response,2,57529,0.0-2.0,86514,List1B,black,man,,,,,,,,
14938,"<img src='img/portrait_matrix_list1.jpg' style='width:900px;height:500px;''></img><p>If you have memorised all the portraits and names and are ready to start, press Continue.</p><p><strong>Please note: Your memory of these faces will be tested 4 times during this experiment.</strong></p>",0,html-button-response,3,73488,0.0-3.0-0.0,86514,List1B,black,man,,,,,,,,
7300,"<img src=""portrait/WW1.jpg""style=""height:400px;""></img>",3,html-button-response,4,81807,0.0-3.0-1.0,86514,List1B,black,man,,TRUE,1,,,,,
6130,"<img src=""portrait/WW1.jpg""style=""height:400px;""></img>",1,html-button-response,5,88968,0.0-3.0-3.0-0.0,86514,List1B,black,man,,FALSE,1,,,,,
null,CORRECT,,html-keyboard-response,6,90622,0.0-3.0-3.0-1.0-0.0,86514,List1B,black,man,,,,null,,,,
10694,"<img src=""portrait/WW2.jpg""style=""height:400px;""></img>",0,html-button-response,7,101321,0.0-3.0-4.0,86514,List1B,black,man,,TRUE,3,,,,,
3004,"<img src=""portrait/WW2.jpg""style=""height:400px;""></img>",3,html-button-response,8,105342,0.0-3.0-6.0-0.0,86514,List1B,black,man,,FALSE,3,,,,,
null,CORRECT,,html-keyboard-response,9,106852,0.0-3.0-6.0-1.0-0.0,86514,List1B,black,man,,,,null,,,,
25442,"<img src=""portrait/WM1.jpg""style=""height:400px;""></img>",7,html-button-response,10,132316,0.0-3.0-7.0,86514,List1B,black,man,,TRUE,6,,,,,
2451,"<img src=""portrait/WM1.jpg""style=""height:400px;""></img>",6,html-button-response,11,135783,0.0-3.0-9.0-0.0,86514,List1B,black,man,,FALSE,6,,,,,
null,CORRECT,,html-keyboard-response,12,137313,0.0-3.0-9.0-1.0-0.0,86514,List1B,black,man,,,,null,,,,
5502,"<img src=""portrait/WM2.jpg""style=""height:400px;""></img>",7,html-button-response,13,142820,0.0-3.0-10.0,86514,List1B,black,man,,TRUE,7,,,,,
null,CORRECT,,html-keyboard-response,14,144332,0.0-3.0-11.0-0.0,86514,List1B,black,man,,,,null,,,,
5533,"<img src=""portrait/BW2.jpg""style=""height:400px;""></img>",2,html-button-response,15,149868,0.0-3.0-13.0,86514,List1B,black,man,,TRUE,2,,,,,
null,CORRECT,,html-keyboard-response,16,151382,0.0-3.0-14.0-0.0,86514,List1B,black,man,,,,null,,,,
64432,"<img src=""portrait/BM1.jpg""style=""height:400px;""></img>",5,html-button-response,17,215834,0.0-3.0-16.0,86514,List1B,black,man,,TRUE,4,,,,,
1675,"<img src=""portrait/BM1.jpg""style=""height:400px;""></img>",4,html-button-response,18,218521,0.0-3.0-18.0-0.0,86514,List1B,black,man,,FALSE,4,,,,,
null,CORRECT,,html-keyboard-response,19,220034,0.0-3.0-18.0-1.0-0.0,86514,List1B,black,man,,,,null,,,,
7909,"<img src=""portrait/BM2.jpg""style=""height:400px;""></img>",5,html-button-response,20,227953,0.0-3.0-19.0,86514,List1B,black,man,,TRUE,5,,,,,
null,CORRECT,,html-keyboard-response,21,229466,0.0-3.0-20.0-0.0,86514,List1B,black,man,,,,null,,,,
10632,"<img src=""portrait/BW1.jpg""style=""height:400px;""></img>",0,html-button-response,22,240109,0.0-3.0-22.0,86514,List1B,black,man,,TRUE,0,,,,,
null,CORRECT,,html-keyboard-response,23,241623,0.0-3.0-23.0-0.0,86514,List1B,black,man,,,,null,,,,
6811,<p>You got 4 out of 8 right first time. Press Continue.</p>,0,html-button-response,24,248445,0.0-3.0-25.0,86514,List1B,black,man,,,,,,,,
3979,"As you did not score 100%, the memory game will repeat. Press Continue.",0,html-button-response,25,253436,0.0-3.0-26.0-0.0,86514,List1B,black,man,,,,,,,,
4148,"<img src='img/portrait_matrix_list1.jpg' style='width:900px;height:500px;''></img><p>If you have memorised all the portraits and names and are ready to start, press Continue.</p><p><strong>Please note: Your memory of these faces will be tested 4 times during this experiment.</strong></p>",0,html-button-response,26,258607,0.0-3.1-0.1,86514,List1B,black,man,,,,,,,,
5176,"<img src=""portrait/WW1.jpg""style=""height:400px;""></img>",1,html-button-response,27,264800,0.0-3.1-1.1,86514,List1B,black,man,,TRUE,1,,,,,
null,CORRECT,,html-keyboard-response,28,266310,0.0-3.1-2.1-0.1,86514,List1B,black,man,,,,null,,,,
4389,"<img src=""portrait/WW2.jpg""style=""height:400px;""></img>",3,html-button-response,29,270715,0.0-3.1-4.1,86514,List1B,black,man,,TRUE,3,,,,,
null,CORRECT,,html-keyboard-response,30,272230,0.0-3.1-5.1-0.1,86514,List1B,black,man,,,,null,,,,
6810,"<img src=""portrait/WM1.jpg""style=""height:400px;""></img>",6,html-button-response,31,279050,0.0-3.1-7.1,86514,List1B,black,man,,TRUE,6,,,,,
null,CORRECT,,html-keyboard-response,32,280558,0.0-3.1-8.1-0.1,86514,List1B,black,man,,,,null,,,,
5341,"<img src=""portrait/WM2.jpg""style=""height:400px;""></img>",7,html-button-response,33,285912,0.0-3.1-10.1,86514,List1B,black,man,,TRUE,7,,,,,
null,CORRECT,,html-keyboard-response,34,287426,0.0-3.1-11.1-0.1,86514,List1B,black,man,,,,null,,,,
5130,"<img src=""portrait/BW2.jpg""style=""height:400px;""></img>",2,html-button-response,35,292565,0.0-3.1-13.1,86514,List1B,black,man,,TRUE,2,,,,,
null,CORRECT,,html-keyboard-response,36,294076,0.0-3.1-14.1-0.1,86514,List1B,black,man,,,,null,,,,
4153,"<img src=""portrait/BM1.jpg""style=""height:400px;""></img>",4,html-button-response,37,298239,0.0-3.1-16.1,86514,List1B,black,man,,TRUE,4,,,,,
null,CORRECT,,html-keyboard-response,38,299753,0.0-3.1-17.1-0.1,86514,List1B,black,man,,,,null,,,,
6760,"<img src=""portrait/BM2.jpg""style=""height:400px;""></img>",5,html-button-response,39,306523,0.0-3.1-19.1,86514,List1B,black,man,,TRUE,5,,,,,
null,CORRECT,,html-keyboard-response,40,308033,0.0-3.1-20.1-0.1,86514,List1B,black,man,,,,null,,,,
5972,"<img src=""portrait/BW1.jpg""style=""height:400px;""></img>",0,html-button-response,41,314016,0.0-3.1-22.1,86514,List1B,black,man,,TRUE,0,,,,,
null,CORRECT,,html-keyboard-response,42,315527,0.0-3.1-23.1-0.1,86514,List1B,black,man,,,,null,,,,
3168,<p>You got 8 out of 8 right first time. Press Continue.</p>,0,html-button-response,43,318705,0.0-3.1-25.1,86514,List1B,black,man,,,,,,,,
19317,"<p>In this experiment, you will view photographs of the people from the memory game interacting.</p><p>By using the <strong>exact</strong> phrase given <i>after</i> the photograph appears and recalling the correct names of the people in the photographs, form a sentence describing the interaction. You do not need to capitalise names.</p><p>Type your answer in the space provided. Please complete every sentence before moving onto the next trial.</p><p>You will only have a few seconds to memorise each given photograph and phrase before you can respond, so try your best to focus.</p><p>An example is given below. Press 'Continue' when you are ready.</p><img src='img/speaking_example.jpg' style='width:800px;height:460px;''></img>",0,html-button-response,44,339034,0.0-4.0,86514,List1B,black,man,,,,,,,,
2310,"<p>Before the experiment starts, you will watch two example trials. Press 'Continue'.</p>",0,html-button-response,45,342354,0.0-5.0,86514,List1B,black,man,,,,,,,,
null,<img src='img/meet_eg.gif' style='height:400px;''></img>,,html-keyboard-response,46,345371,0.0-6.0,86514,List1B,black,man,,,,null,,,,
null,<p>is meeting</p>,,html-keyboard-response,47,347381,0.0-7.0,86514,List1B,black,man,,,,null,,,,
4208,<p><b>Answer:</b> kate is meeting beth</p>,0,html-button-response,48,351593,0.0-8.0,86514,List1B,black,man,,,,,,,,
null,<img src='img/look_eg.gif' style='height:400px;''></img>,,html-keyboard-response,49,354604,0.0-9.0,86514,List1B,black,man,,,,null,,,,
null,<p>are looking at each other</p>,,html-keyboard-response,50,356615,0.0-10.0,86514,List1B,black,man,,,,null,,,,
2832,<p><b>Answer:</b> luke and dave are looking at each other</p>,0,html-button-response,51,359452,0.0-11.0,86514,List1B,black,man,,,,,,,,
9914,"<p>Ready to start the experiment?</p><br><p><strong>Remember to describe the picture using a full sentence,</strong></p><p><strong>that combines the names of the people with the <i>exact</i> phrase given.</strong></p><p><strong>To receive full payment you must do this correctly.</strong></p><p><strong> You do not need to capitalise names or use punctuation.</strong></p><br><p>Press 'Continue' to begin.</p>",0,html-button-response,52,370389,0.0-12.0,86514,List1B,black,man,,,,,,,,
null,"<div style=""font-size:60px;"">+</div>",,html-keyboard-response,53,371897,0.0-13.0-0.0,86514,List1B,black,man,,,,null,,,,
null,"<img src=""stim_listB/touch4.gif""style=""height:400px;""></stim_listB>",,html-keyboard-response,54,373915,0.0-13.0-1.0,86514,List1B,black,man,,,,null,,,,
null,are touching each other,,html-keyboard-response,55,375921,0.0-13.0-2.0,86514,List1B,black,man,,,,null,,,,
13594,,,survey-text,56,389524,0.0-13.0-3.0,86514,List1B,black,man,,,,,"{""Q0"":""ruth and luke are touching each other""}","<img src=""stim_listB/touch4.gif""style=""height:400px;""></stim_listB>",are touching each other,
null,"<div style=""font-size:60px;"">+</div>",,html-keyboard-response,57,390038,0.0-13.0-0.1,86514,List1B,black,man,,,,null,,,,
null,"<img src=""stim_listB/shout3.gif""style=""height:400px;""></stim_listB>",,html-keyboard-response,58,392052,0.0-13.0-1.1,86514,List1B,black,man,,,,null,,,,
null,is shouting at,,html-keyboard-response,59,394061,0.0-13.0-2.1,86514,List1B,black,man,,,,null,,,,
14892,,,survey-text,60,408958,0.0-13.0-3.1,86514,List1B,black,man,,,,,"{""Q0"":""luke is shouting at ruth""}","<img src=""stim_listB/shout3.gif""style=""height:400px;""></stim_listB>",is shouting at,
null,"<div style=""font-size:60px;"">+</div>",,html-keyboard-response,61,409467,0.0-13.0-0.2,86514,List1B,black,man,,,,null,,,,
null,"<img src=""stim_listB/dance5.gif""style=""height:400px;""></stim_listB>",,html-keyboard-response,62,411471,0.0-13.0-1.2,86514,List1B,black,man,,,,null,,,,
null,is dancing with,,html-keyboard-response,63,413478,0.0-13.0-2.2,86514,List1B,black,man,,,,null,,,,
12958,,,survey-text,64,426443,0.0-13.0-3.2,86514,List1B,black,man,,,,,"{""Q0"":""fred is dancing with dave""}","<img src=""stim_listB/dance5.gif""style=""height:400px;""></stim_listB>",is dancing with,
null,"<div style=""font-size:60px;"">+</div>",,html-keyboard-response,65,426949,0.0-13.0-0.3,86514,List1B,black,man,,,,null,,,,
null,"<img src=""stim_listB/shout4.gif""style=""height:400px;""></stim_listB>",,html-keyboard-response,66,428960,0.0-13.0-1.3,86514,List1B,black,man,,,,null,,,,
null,are shouting at each other,,html-keyboard-response,67,430969,0.0-13.0-2.3,86514,List1B,black,man,,,,null,,,,
17618,,,survey-text,68,448593,0.0-13.0-3.3,86514,List1B,black,man,,,,,"{""Q0"":""jane is shouting at dave""}","<img src=""stim_listB/shout4.gif""style=""height:400px;""></stim_listB>",are shouting at each other,
null,"<div style=""font-size:60px;"">+</div>",,html-keyboard-response,69,449103,0.0-13.0-0.4,86514,List1B,black,man,,,,null,,,,
null,"<img src=""stim_listB/play4.gif""style=""height:400px;""></stim_listB>",,html-keyboard-response,70,451117,0.0-13.0-1.4,86514,List1B,black,man,,,,null,,,,
null,are playing with each other,,html-keyboard-response,71,453121,0.0-13.0-2.4,86514,List1B,black,man,,,,null,,,,
22229,,,survey-text,72,475354,0.0-13.0-3.4,86514,List1B,black,man,,,,,"{""Q0"":""ruth are playing with luke""}","<img src=""stim_listB/play4.gif""style=""height:400px;""></stim_listB>",are playing with each other,
null,"<div style=""font-size:60px;"">+</div>",,html-keyboard-response,73,475859,0.0-13.0-0.5,86514,List1B,black,man,,,,null,,,,
null,"<img src=""stim_listB/dance7.gif""style=""height:400px;""></stim_listB>",,html-keyboard-response,74,477900,0.0-13.0-1.5,86514,List1B,black,man,,,,null,,,,
null,is dancing with,,html-keyboard-response,75,479905,0.0-13.0-2.5,86514,List1B,black,man,,,,null,,,,
16503,,,survey-text,76,496414,0.0-13.0-3.5,86514,List1B,black,man,,,,,"{""Q0"":""beth is dancing with jane""}","<img src=""stim_listB/dance7.gif""style=""height:400px;""></stim_listB>",is dancing with,
null,"<div style=""font-size:60px;"">+</div>",,html-keyboard-response,77,496920,0.0-13.0-0.6,86514,List1B,black,man,,,,null,,,,
null,"<img src=""stim_listB/argue4.gif""style=""height:400px;""></stim_listB>",,html-keyboard-response,78,498933,0.0-13.0-1.6,86514,List1B,black,man,,,,null,,,,
null,are arguing with each other,,html-keyboard-response,79,500938,0.0-13.0-2.6,86514,List1B,black,man,,,,null,,,,
9859,,,survey-text,80,510801,0.0-13.0-3.6,86514,List1B,black,man,,,,,"{""Q0"":""jane is arguing with luke""}","<img src=""stim_listB/argue4.gif""style=""height:400px;""></stim_listB>",are arguing with each other,
null,"<div style=""font-size:60px;"">+</div>",,html-keyboard-response,81,511308,0.0-13.0-0.7,86514,List1B,black,man,,,,null,,,,
null,"<img src=""stim_listB/dance1.gif""style=""height:400px;""></stim_listB>",,html-keyboard-response,82,513320,0.0-13.0-1.7,86514,List1B,black,man,,,,null,,,,
null,is dancing with,,html-keyboard-response,83,515326,0.0-13.0-2.7,86514,List1B,black,man,,,,null,,,,
13748,,,survey-text,84,529079,0.0-13.0-3.7,86514,List1B,black,man,,,,,"{""Q0"":""fred is dancing with kate""}","<img src=""stim_listB/dance1.gif""style=""height:400px;""></stim_listB>",is dancing with,
null,"<div style=""font-size:60px;"">+</div>",,html-keyboard-response,85,529583,0.0-13.0-0.8,86514,List1B,black,man,,,,null,,,,
null,"<img src=""stim_listB/play5.gif""style=""height:400px;""></stim_listB>",,html-keyboard-response,86,531591,0.0-13.0-1.8,86514,List1B,black,man,,,,null,,,,
null,is playing with,,html-keyboard-response,87,533596,0.0-13.0-2.8,86514,List1B,black,man,,,,null,,,,
21083,,,survey-text,88,554686,0.0-13.0-3.8,86514,List1B,black,man,,,,,"{""Q0"":""mike is playing with dave""}","<img src=""stim_listB/play5.gif""style=""height:400px;""></stim_listB>",is playing with,
null,"<div style=""font-size:60px;"">+</div>",,html-keyboard-response,89,555194,0.0-13.0-0.9,86514,List1B,black,man,,,,null,,,,
null,"<img src=""stim_listB/talk6.gif""style=""height:400px;""></stim_listB>",,html-keyboard-response,90,557202,0.0-13.0-1.9,86514,List1B,black,man,,,,null,,,,
null,are talking to each other,,html-keyboard-response,91,559208,0.0-13.0-2.9,86514,List1B,black,man,,,,null,,,,
22498,,,survey-text,92,581722,0.0-13.0-3.9,86514,List1B,black,man,,,,,"{""Q0"":""luke and mike are talking to each other""}","<img src=""stim_listB/talk6.gif""style=""height:400px;""></stim_listB>",are talking to each other,
null,"<div style=""font-size:60px;"">+</div>",,html-keyboard-response,93,582232,0.0-13.0-0.10,86514,List1B,black,man,,,,null,,,,
null,"<img src=""stim_listB/marry8.gif""style=""height:400px;""></stim_listB>",,html-keyboard-response,94,584244,0.0-13.0-1.10,86514,List1B,black,man,,,,null,,,,
null,are marrying each other,,html-keyboard-response,95,586252,0.0-13.0-2.10,86514,List1B,black,man,,,,null,,,,
13137,,,survey-text,96,599391,0.0-13.0-3.10,86514,List1B,black,man,,,,,"{""Q0"":""beth and jane are marrying each other""}","<img src=""stim_listB/marry8.gif""style=""height:400px;""></stim_listB>",are marrying each other,
null,"<div style=""font-size:60px;"">+</div>",,html-keyboard-response,97,599898,0.0-13.0-0.11,86514,List1B,black,man,,,,null,,,,
null,"<img src=""stim_listB/marry5.gif""style=""height:400px;""></stim_listB>",,html-keyboard-response,98,601909,0.0-13.0-1.11,86514,List1B,black,man,,,,null,,,,
null,is marrying,,html-keyboard-response,99,603916,0.0-13.0-2.11,86514,List1B,black,man,,,,null,,,,
12217,,,survey-text,100,616138,0.0-13.0-3.11,86514,List1B,black,man,,,,,"{""Q0"":""mike is marrying luke""}","<img src=""stim_listB/marry5.gif""style=""height:400px;""></stim_listB>",is marrying,
null,"<div style=""font-size:60px;"">+</div>",,html-keyboard-response,101,616646,0.0-13.0-0.12,86514,List1B,black,man,,,,null,,,,
null,"<img src=""stim_listB/kiss4.gif""style=""height:400px;""></stim_listB>",,html-keyboard-response,102,618663,0.0-13.0-1.12,86514,List1B,black,man,,,,null,,,,
null,are kissing each other,,html-keyboard-response,103,620672,0.0-13.0-2.12,86514,List1B,black,man,,,,null,,,,
13750,,,survey-text,104,634426,0.0-13.0-3.12,86514,List1B,black,man,,,,,"{""Q0"":""jane and dave are kissing each other""}","<img src=""stim_listB/kiss4.gif""style=""height:400px;""></stim_listB>",are kissing each other,
null,"<div style=""font-size:60px;"">+</div>",,html-keyboard-response,105,634937,0.0-13.0-0.13,86514,List1B,black,man,,,,null,,,,
null,"<img src=""stim_listB/shout5.gif""style=""height:400px;""></stim_listB>",,html-keyboard-response,106,636948,0.0-13.0-1.13,86514,List1B,black,man,,,,null,,,,
null,is shouting at,,html-keyboard-response,107,638954,0.0-13.0-2.13,86514,List1B,black,man,,,,null,,,,
11820,,,survey-text,108,650777,0.0-13.0-3.13,86514,List1B,black,man,,,,,"{""Q0"":""fred is shouting at luke""}","<img src=""stim_listB/shout5.gif""style=""height:400px;""></stim_listB>",is shouting at,
null,"<div style=""font-size:60px;"">+</div>",,html-keyboard-response,109,651283,0.0-13.0-0.14,86514,List1B,black,man,,,,null,,,,
null,"<img src=""stim_listB/touch2.gif""style=""height:400px;""></stim_listB>",,html-keyboard-response,110,653294,0.0-13.0-1.14,86514,List1B,black,man,,,,null,,,,
null,are touching each other,,html-keyboard-response,111,655304,0.0-13.0-2.14,86514,List1B,black,man,,,,null,,,,
13959,,,survey-text,112,669271,0.0-13.0-3.14,86514,List1B,black,man,,,,,"{""Q0"":""beth and dave are touching""}","<img src=""stim_listB/touch2.gif""style=""height:400px;""></stim_listB>",are touching each other,
null,"<div style=""font-size:60px;"">+</div>",,html-keyboard-response,113,669778,0.0-13.0-0.15,86514,List1B,black,man,,,,null,,,,
null,"<img src=""stim_listB/fight4.gif""style=""height:400px;""></stim_listB>",,html-keyboard-response,114,671790,0.0-13.0-1.15,86514,List1B,black,man,,,,null,,,,
null,are fighting each other,,html-keyboard-response,115,673798,0.0-13.0-2.15,86514,List1B,black,man,,,,null,,,,
10825,,,survey-text,116,684627,0.0-13.0-3.15,86514,List1B,black,man,,,,,"{""Q0"":""ruth and luke are fighting each other""}","<img src=""stim_listB/fight4.gif""style=""height:400px;""></stim_listB>",are fighting each other,
null,"<div style=""font-size:60px;"">+</div>",,html-keyboard-response,117,685134,0.0-13.0-0.16,86514,List1B,black,man,,,,null,,,,
null,"<img src=""stim_listB/flirt4.gif""style=""height:400px;""></stim_listB>",,html-keyboard-response,118,687139,0.0-13.0-1.16,86514,List1B,black,man,,,,null,,,,
null,are flirting with each other,,html-keyboard-response,119,689145,0.0-13.0-2.16,86514,List1B,black,man,,,,null,,,,
15787,,,survey-text,120,704937,0.0-13.0-3.16,86514,List1B,black,man,,,,,"{""Q0"":""ruth and dave are flirting each other""}","<img src=""stim_listB/flirt4.gif""style=""height:400px;""></stim_listB>",are flirting with each other,
null,"<div style=""font-size:60px;"">+</div>",,html-keyboard-response,121,705443,0.0-13.0-0.17,86514,List1B,black,man,,,,null,,,,
null,"<img src=""stim_listB/fight8.gif""style=""height:400px;""></stim_listB>",,html-keyboard-response,122,707451,0.0-13.0-1.17,86514,List1B,black,man,,,,null,,,,
null,are fighting each other,,html-keyboard-response,123,709458,0.0-13.0-2.17,86514,List1B,black,man,,,,null,,,,
16527,,,survey-text,124,725989,0.0-13.0-3.17,86514,List1B,black,man,,,,,"{""Q0"":""ruth and beth are fighting each other""}","<img src=""stim_listB/fight8.gif""style=""height:400px;""></stim_listB>",are fighting each other,
null,"<div style=""font-size:60px;"">+</div>",,html-keyboard-response,125,726498,0.0-13.0-0.18,86514,List1B,black,man,,,,null,,,,
null,"<img src=""stim_listB/argue1.gif""style=""height:400px;""></stim_listB>",,html-keyboard-response,126,728565,0.0-13.0-1.18,86514,List1B,black,man,,,,null,,,,
null,is arguing with,,html-keyboard-response,127,730651,0.0-13.0-2.18,86514,List1B,black,man,,,,null,,,,
9955,,,survey-text,128,740608,0.0-13.0-3.18,86514,List1B,black,man,,,,,"{""Q0"":""beth is arguing with mike""}","<img src=""stim_listB/argue1.gif""style=""height:400px;""></stim_listB>",is arguing with,
null,"<div style=""font-size:60px;"">+</div>",,html-keyboard-response,129,741116,0.0-13.0-0.19,86514,List1B,black,man,,,,null,,,,
null,"<img src=""stim_listB/flirt2.gif""style=""height:400px;""></stim_listB>",,html-keyboard-response,130,743147,0.0-13.0-1.19,86514,List1B,black,man,,,,null,,,,
null,are flirting with each other,,html-keyboard-response,131,745150,0.0-13.0-2.19,86514,List1B,black,man,,,,null,,,,
15552,,,survey-text,132,760706,0.0-13.0-3.19,86514,List1B,black,man,,,,,"{""Q0"":""beth and mike are fliring with each other""}","<img src=""stim_listB/flirt2.gif""style=""height:400px;""></stim_listB>",are flirting with each other,
5741,"<img src='img/portrait_matrix_list1.jpg' style='width:900px;height:500px;''></img><p>If you have memorised all the portraits and names and are ready to start, press Continue.</p><p><strong>Please note: Your memory of these faces will be tested 4 times during this experiment.</strong></p>",0,html-button-response,133,766454,0.0-14.0-0.0,86514,List1B,black,man,,,,,,,,
4877,"<img src=""portrait/BW2.jpg""style=""height:400px;""></img>",2,html-button-response,134,772351,0.0-14.0-1.0,86514,List1B,black,man,,TRUE,2,,,,,
null,CORRECT,,html-keyboard-response,135,773861,0.0-14.0-2.0-0.0,86514,List1B,black,man,,,,null,,,,
5001,"<img src=""portrait/BM2.jpg""style=""height:400px;""></img>",5,html-button-response,136,778867,0.0-14.0-4.0,86514,List1B,black,man,,TRUE,5,,,,,
null,CORRECT,,html-keyboard-response,137,780381,0.0-14.0-5.0-0.0,86514,List1B,black,man,,,,null,,,,
4735,"<img src=""portrait/WM1.jpg""style=""height:400px;""></img>",6,html-button-response,138,785123,0.0-14.0-7.0,86514,List1B,black,man,,TRUE,6,,,,,
null,CORRECT,,html-keyboard-response,139,786633,0.0-14.0-8.0-0.0,86514,List1B,black,man,,,,null,,,,
4943,"<img src=""portrait/WW1.jpg""style=""height:400px;""></img>",1,html-button-response,140,791586,0.0-14.0-10.0,86514,List1B,black,man,,TRUE,1,,,,,
null,CORRECT,,html-keyboard-response,141,793103,0.0-14.0-11.0-0.0,86514,List1B,black,man,,,,null,,,,
6119,"<img src=""portrait/BW1.jpg""style=""height:400px;""></img>",0,html-button-response,142,799232,0.0-14.0-13.0,86514,List1B,black,man,,TRUE,0,,,,,
null,CORRECT,,html-keyboard-response,143,800743,0.0-14.0-14.0-0.0,86514,List1B,black,man,,,,null,,,,
2465,"<img src=""portrait/BM1.jpg""style=""height:400px;""></img>",4,html-button-response,144,803212,0.0-14.0-16.0,86514,List1B,black,man,,TRUE,4,,,,,
null,CORRECT,,html-keyboard-response,145,804730,0.0-14.0-17.0-0.0,86514,List1B,black,man,,,,null,,,,
2254,"<img src=""portrait/WW2.jpg""style=""height:400px;""></img>",2,html-button-response,146,806994,0.0-14.0-19.0,86514,List1B,black,man,,TRUE,3,,,,,
2799,"<img src=""portrait/WW2.jpg""style=""height:400px;""></img>",3,html-button-response,147,810812,0.0-14.0-21.0-0.0,86514,List1B,black,man,,FALSE,3,,,,,
null,CORRECT,,html-keyboard-response,148,812319,0.0-14.0-21.0-1.0-0.0,86514,List1B,black,man,,,,null,,,,
4185,"<img src=""portrait/WM2.jpg""style=""height:400px;""></img>",7,html-button-response,149,816515,0.0-14.0-22.0,86514,List1B,black,man,,TRUE,7,,,,,
null,CORRECT,,html-keyboard-response,150,818032,0.0-14.0-23.0-0.0,86514,List1B,black,man,,,,null,,,,
2177,<p>You got 7 out of 8 right first time. Press Continue.</p>,0,html-button-response,151,820221,0.0-14.0-25.0,86514,List1B,black,man,,,,,,,,
1196,"As you did not score 100%, the memory game will repeat. Press Continue.",0,html-button-response,152,822423,0.0-14.0-26.0-0.0,86514,List1B,black,man,,,,,,,,
2232,"<img src='img/portrait_matrix_list1.jpg' style='width:900px;height:500px;''></img><p>If you have memorised all the portraits and names and are ready to start, press Continue.</p><p><strong>Please note: Your memory of these faces will be tested 4 times during this experiment.</strong></p>",0,html-button-response,153,825670,0.0-14.1-0.1,86514,List1B,black,man,,,,,,,,
5932,"<img src=""portrait/BW2.jpg""style=""height:400px;""></img>",2,html-button-response,154,832611,0.0-14.1-1.1,86514,List1B,black,man,,TRUE,2,,,,,
null,CORRECT,,html-keyboard-response,155,834122,0.0-14.1-2.1-0.1,86514,List1B,black,man,,,,null,,,,
2154,"<img src=""portrait/BM2.jpg""style=""height:400px;""></img>",5,html-button-response,156,836286,0.0-14.1-4.1,86514,List1B,black,man,,TRUE,5,,,,,
null,CORRECT,,html-keyboard-response,157,837802,0.0-14.1-5.1-0.1,86514,List1B,black,man,,,,null,,,,
3814,"<img src=""portrait/WM1.jpg""style=""height:400px;""></img>",6,html-button-response,158,841621,0.0-14.1-7.1,86514,List1B,black,man,,TRUE,6,,,,,
null,CORRECT,,html-keyboard-response,159,843137,0.0-14.1-8.1-0.1,86514,List1B,black,man,,,,null,,,,
1798,"<img src=""portrait/WW1.jpg""style=""height:400px;""></img>",1,html-button-response,160,844945,0.0-14.1-10.1,86514,List1B,black,man,,TRUE,1,,,,,
null,CORRECT,,html-keyboard-response,161,846453,0.0-14.1-11.1-0.1,86514,List1B,black,man,,,,null,,,,
2091,"<img src=""portrait/BW1.jpg""style=""height:400px;""></img>",0,html-button-response,162,848554,0.0-14.1-13.1,86514,List1B,black,man,,TRUE,0,,,,,
null,CORRECT,,html-keyboard-response,163,850065,0.0-14.1-14.1-0.1,86514,List1B,black,man,,,,null,,,,
2125,"<img src=""portrait/BM1.jpg""style=""height:400px;""></img>",4,html-button-response,164,852198,0.0-14.1-16.1,86514,List1B,black,man,,TRUE,4,,,,,
null,CORRECT,,html-keyboard-response,165,853714,0.0-14.1-17.1-0.1,86514,List1B,black,man,,,,null,,,,
1958,"<img src=""portrait/WW2.jpg""style=""height:400px;""></img>",3,html-button-response,166,855683,0.0-14.1-19.1,86514,List1B,black,man,,TRUE,3,,,,,
null,CORRECT,,html-keyboard-response,167,857191,0.0-14.1-20.1-0.1,86514,List1B,black,man,,,,null,,,,
3868,"<img src=""portrait/WM2.jpg""style=""height:400px;""></img>",7,html-button-response,168,861073,0.0-14.1-22.1,86514,List1B,black,man,,TRUE,7,,,,,
null,CORRECT,,html-keyboard-response,169,862579,0.0-14.1-23.1-0.1,86514,List1B,black,man,,,,null,,,,
1503,<p>You got 8 out of 8 right first time. Press Continue.</p>,0,html-button-response,170,864089,0.0-14.1-25.1,86514,List1B,black,man,,,,,,,,
null,"<div style=""font-size:60px;"">+</div>",,html-keyboard-response,171,865599,0.0-15.0-0.0,86514,List1B,black,man,,,,null,,,,
null,"<img src=""stim_listB/marry1.gif""style=""height:400px;""></stim_listB>",,html-keyboard-response,172,867629,0.0-15.0-1.0,86514,List1B,black,man,,,,null,,,,
null,is marrying,,html-keyboard-response,173,869634,0.0-15.0-2.0,86514,List1B,black,man,,,,null,,,,
9059,,,survey-text,174,878698,0.0-15.0-3.0,86514,List1B,black,man,,,,,"{""Q0"":""mike is marrying beth""}","<img src=""stim_listB/marry1.gif""style=""height:400px;""></stim_listB>",is marrying,
null,"<div style=""font-size:60px;"">+</div>",,html-keyboard-response,175,879207,0.0-15.0-0.1,86514,List1B,black,man,,,,null,,,,
null,"<img src=""stim_listB/touch1.gif""style=""height:400px;""></stim_listB>",,html-keyboard-response,176,881218,0.0-15.0-1.1,86514,List1B,black,man,,,,null,,,,
null,is touching,,html-keyboard-response,177,883221,0.0-15.0-2.1,86514,List1B,black,man,,,,null,,,,
8152,,,survey-text,178,891379,0.0-15.0-3.1,86514,List1B,black,man,,,,,"{""Q0"":""mike is touching kate""}","<img src=""stim_listB/touch1.gif""style=""height:400px;""></stim_listB>",is touching,
null,"<div style=""font-size:60px;"">+</div>",,html-keyboard-response,179,891891,0.0-15.0-0.2,86514,List1B,black,man,,,,null,,,,
null,"<img src=""stim_listB/fight3.gif""style=""height:400px;""></stim_listB>",,html-keyboard-response,180,893920,0.0-15.0-1.2,86514,List1B,black,man,,,,null,,,,
null,is fighting,,html-keyboard-response,181,895936,0.0-15.0-2.2,86514,List1B,black,man,,,,null,,,,
10178,,,survey-text,182,906117,0.0-15.0-3.2,86514,List1B,black,man,,,,,"{""Q0"":""dave is fighting with jane""}","<img src=""stim_listB/fight3.gif""style=""height:400px;""></stim_listB>",is fighting,
null,"<div style=""font-size:60px;"">+</div>",,html-keyboard-response,183,906626,0.0-15.0-0.3,86514,List1B,black,man,,,,null,,,,
null,"<img src=""stim_listB/talk5.gif""style=""height:400px;""></stim_listB>",,html-keyboard-response,184,908641,0.0-15.0-1.3,86514,List1B,black,man,,,,null,,,,
null,is talking to,,html-keyboard-response,185,910646,0.0-15.0-2.3,86514,List1B,black,man,,,,null,,,,
12239,,,survey-text,186,922888,0.0-15.0-3.3,86514,List1B,black,man,,,,,"{""Q0"":""fred is talking to dave""}","<img src=""stim_listB/talk5.gif""style=""height:400px;""></stim_listB>",is talking to,
null,"<div style=""font-size:60px;"">+</div>",,html-keyboard-response,187,923393,0.0-15.0-0.4,86514,List1B,black,man,,,,null,,,,
null,"<img src=""stim_listB/flirt8.gif""style=""height:400px;""></stim_listB>",,html-keyboard-response,188,925400,0.0-15.0-1.4,86514,List1B,black,man,,,,null,,,,
null,are flirting with each other,,html-keyboard-response,189,927410,0.0-15.0-2.4,86514,List1B,black,man,,,,null,,,,
14369,,,survey-text,190,941790,0.0-15.0-3.4,86514,List1B,black,man,,,,,"{""Q0"":""ruth and kate are flirting with each other""}","<img src=""stim_listB/flirt8.gif""style=""height:400px;""></stim_listB>",are flirting with each other,
null,"<div style=""font-size:60px;"">+</div>",,html-keyboard-response,191,942300,0.0-15.0-0.5,86514,List1B,black,man,,,,null,,,,
null,"<img src=""stim_listB/play3.gif""style=""height:400px;""></stim_listB>",,html-keyboard-response,192,944318,0.0-15.0-1.5,86514,List1B,black,man,,,,null,,,,
null,is playing with,,html-keyboard-response,193,946331,0.0-15.0-2.5,86514,List1B,black,man,,,,null,,,,
13406,,,survey-text,194,959740,0.0-15.0-3.5,86514,List1B,black,man,,,,,"{""Q0"":""jane is playing with dave""}","<img src=""stim_listB/play3.gif""style=""height:400px;""></stim_listB>",is playing with,
null,"<div style=""font-size:60px;"">+</div>",,html-keyboard-response,195,960248,0.0-15.0-0.6,86514,List1B,black,man,,,,null,,,,
null,"<img src=""stim_listB/kiss2.gif""style=""height:400px;""></stim_listB>",,html-keyboard-response,196,962263,0.0-15.0-1.6,86514,List1B,black,man,,,,null,,,,
null,are kissing each other,,html-keyboard-response,197,964266,0.0-15.0-2.6,86514,List1B,black,man,,,,null,,,,
13485,,,survey-text,198,977759,0.0-15.0-3.6,86514,List1B,black,man,,,,,"{""Q0"":""kate is kissing mike""}","<img src=""stim_listB/kiss2.gif""style=""height:400px;""></stim_listB>",are kissing each other,
null,"<div style=""font-size:60px;"">+</div>",,html-keyboard-response,199,978267,0.0-15.0-0.7,86514,List1B,black,man,,,,null,,,,
null,"<img src=""stim_listB/kiss1.gif""style=""height:400px;""></stim_listB>",,html-keyboard-response,200,980275,0.0-15.0-1.7,86514,List1B,black,man,,,,null,,,,
null,is kissing,,html-keyboard-response,201,982283,0.0-15.0-2.7,86514,List1B,black,man,,,,null,,,,
10285,,,survey-text,202,992571,0.0-15.0-3.7,86514,List1B,black,man,,,,,"{""Q0"":""beth is kissing fred""}","<img src=""stim_listB/kiss1.gif""style=""height:400px;""></stim_listB>",is kissing,
null,"<div style=""font-size:60px;"">+</div>",,html-keyboard-response,203,993080,0.0-15.0-0.8,86514,List1B,black,man,,,,null,,,,
null,"<img src=""stim_listB/play1.gif""style=""height:400px;""></stim_listB>",,html-keyboard-response,204,995095,0.0-15.0-1.8,86514,List1B,black,man,,,,null,,,,
null,is playing with,,html-keyboard-response,205,997102,0.0-15.0-2.8,86514,List1B,black,man,,,,null,,,,
12153,,,survey-text,206,1009259,0.0-15.0-3.8,86514,List1B,black,man,,,,,"{""Q0"":""mike is playing with kate""}","<img src=""stim_listB/play1.gif""style=""height:400px;""></stim_listB>",is playing with,
null,"<div style=""font-size:60px;"">+</div>",,html-keyboard-response,207,1009771,0.0-15.0-0.9,86514,List1B,black,man,,,,null,,,,
null,"<img src=""stim_listB/argue3.gif""style=""height:400px;""></stim_listB>",,html-keyboard-response,208,1011778,0.0-15.0-1.9,86514,List1B,black,man,,,,null,,,,
null,is arguing with,,html-keyboard-response,209,1013785,0.0-15.0-2.9,86514,List1B,black,man,,,,null,,,,
12642,,,survey-text,210,1026434,0.0-15.0-3.9,86514,List1B,black,man,,,,,"{""Q0"":""dave is arguing with kate""}","<img src=""stim_listB/argue3.gif""style=""height:400px;""></stim_listB>",is arguing with,
null,"<div style=""font-size:60px;"">+</div>",,html-keyboard-response,211,1026938,0.0-15.0-0.10,86514,List1B,black,man,,,,null,,,,
null,"<img src=""stim_listB/kiss7.gif""style=""height:400px;""></stim_listB>",,html-keyboard-response,212,1028946,0.0-15.0-1.10,86514,List1B,black,man,,,,null,,,,
null,is kissing,,html-keyboard-response,213,1030953,0.0-15.0-2.10,86514,List1B,black,man,,,,null,,,,
9651,,,survey-text,214,1040609,0.0-15.0-3.10,86514,List1B,black,man,,,,,"{""Q0"":""beth is kissing ruth""}","<img src=""stim_listB/kiss7.gif""style=""height:400px;""></stim_listB>",is kissing,
null,"<div style=""font-size:60px;"">+</div>",,html-keyboard-response,215,1041114,0.0-15.0-0.11,86514,List1B,black,man,,,,null,,,,
null,"<img src=""stim_listB/marry3.gif""style=""height:400px;""></stim_listB>",,html-keyboard-response,216,1043122,0.0-15.0-1.11,86514,List1B,black,man,,,,null,,,,
null,is marrying,,html-keyboard-response,217,1045129,0.0-15.0-2.11,86514,List1B,black,man,,,,null,,,,
9008,,,survey-text,218,1054141,0.0-15.0-3.11,86514,List1B,black,man,,,,,"{""Q0"":""dave is marrying with ruth""}","<img src=""stim_listB/marry3.gif""style=""height:400px;""></stim_listB>",is marrying,
null,"<div style=""font-size:60px;"">+</div>",,html-keyboard-response,219,1054649,0.0-15.0-0.12,86514,List1B,black,man,,,,null,,,,
null,"<img src=""stim_listB/kiss3.gif""style=""height:400px;""></stim_listB>",,html-keyboard-response,220,1056661,0.0-15.0-1.12,86514,List1B,black,man,,,,null,,,,
null,is kissing,,html-keyboard-response,221,1058673,0.0-15.0-2.12,86514,List1B,black,man,,,,null,,,,
7564,,,survey-text,222,1066242,0.0-15.0-3.12,86514,List1B,black,man,,,,,"{""Q0"":""luke is kissing ruth""}","<img src=""stim_listB/kiss3.gif""style=""height:400px;""></stim_listB>",is kissing,
null,"<div style=""font-size:60px;"">+</div>",,html-keyboard-response,223,1066751,0.0-15.0-0.13,86514,List1B,black,man,,,,null,,,,
null,"<img src=""stim_listB/argue5.gif""style=""height:400px;""></stim_listB>",,html-keyboard-response,224,1068758,0.0-15.0-1.13,86514,List1B,black,man,,,,null,,,,
null,is arguing with,,html-keyboard-response,225,1070773,0.0-15.0-2.13,86514,List1B,black,man,,,,null,,,,
14162,,,survey-text,226,1084937,0.0-15.0-3.13,86514,List1B,black,man,,,,,"{""Q0"":""mike is playing with luke""}","<img src=""stim_listB/argue5.gif""style=""height:400px;""></stim_listB>",is arguing with,
null,"<div style=""font-size:60px;"">+</div>",,html-keyboard-response,227,1085445,0.0-15.0-0.14,86514,List1B,black,man,,,,null,,,,
null,"<img src=""stim_listB/shout8.gif""style=""height:400px;""></stim_listB>",,html-keyboard-response,228,1087460,0.0-15.0-1.14,86514,List1B,black,man,,,,null,,,,
null,are shouting at each other,,html-keyboard-response,229,1089465,0.0-15.0-2.14,86514,List1B,black,man,,,,null,,,,
12606,,,survey-text,230,1102077,0.0-15.0-3.14,86514,List1B,black,man,,,,,"{""Q0"":""jane and kate are shouting at each other""}","<img src=""stim_listB/shout8.gif""style=""height:400px;""></stim_listB>",are shouting at each other,
null,"<div style=""font-size:60px;"">+</div>",,html-keyboard-response,231,1102580,0.0-15.0-0.15,86514,List1B,black,man,,,,null,,,,
null,"<img src=""stim_listB/flirt7.gif""style=""height:400px;""></stim_listB>",,html-keyboard-response,232,1104593,0.0-15.0-1.15,86514,List1B,black,man,,,,null,,,,
null,is flirting with,,html-keyboard-response,233,1106600,0.0-15.0-2.15,86514,List1B,black,man,,,,null,,,,
11384,,,survey-text,234,1117989,0.0-15.0-3.15,86514,List1B,black,man,,,,,"{""Q0"":""beth is flirting with jane""}","<img src=""stim_listB/flirt7.gif""style=""height:400px;""></stim_listB>",is flirting with,
null,"<div style=""font-size:60px;"">+</div>",,html-keyboard-response,235,1118496,0.0-15.0-0.16,86514,List1B,black,man,,,,null,,,,
null,"<img src=""stim_listB/dance4.gif""style=""height:400px;""></stim_listB>",,html-keyboard-response,236,1120508,0.0-15.0-1.16,86514,List1B,black,man,,,,null,,,,
null,are dancing with each other,,html-keyboard-response,237,1122525,0.0-15.0-2.16,86514,List1B,black,man,,,,null,,,,
16452,,,survey-text,238,1138982,0.0-15.0-3.16,86514,List1B,black,man,,,,,"{""Q0"":""jane is dancing with dave""}","<img src=""stim_listB/dance4.gif""style=""height:400px;""></stim_listB>",are dancing with each other,
null,"<div style=""font-size:60px;"">+</div>",,html-keyboard-response,239,1139495,0.0-15.0-0.17,86514,List1B,black,man,,,,null,,,,
null,"<img src=""stim_listB/talk7.gif""style=""height:400px;""></stim_listB>",,html-keyboard-response,240,1141510,0.0-15.0-1.17,86514,List1B,black,man,,,,null,,,,
null,is talking to,,html-keyboard-response,241,1143521,0.0-15.0-2.17,86514,List1B,black,man,,,,null,,,,
10747,,,survey-text,242,1154274,0.0-15.0-3.17,86514,List1B,black,man,,,,,"{""Q0"":""beth is talking to jane""}","<img src=""stim_listB/talk7.gif""style=""height:400px;""></stim_listB>",is talking to,
null,"<div style=""font-size:60px;"">+</div>",,html-keyboard-response,243,1154782,0.0-15.0-0.18,86514,List1B,black,man,,,,null,,,,
null,"<img src=""stim_listB/talk4.gif""style=""height:400px;""></stim_listB>",,html-keyboard-response,244,1156791,0.0-15.0-1.18,86514,List1B,black,man,,,,null,,,,
null,are talking to each other,,html-keyboard-response,245,1158813,0.0-15.0-2.18,86514,List1B,black,man,,,,null,,,,
17146,,,survey-text,246,1175963,0.0-15.0-3.18,86514,List1B,black,man,,,,,"{""Q0"":""dave and ruth are talking to each other""}","<img src=""stim_listB/talk4.gif""style=""height:400px;""></stim_listB>",are talking to each other,
null,"<div style=""font-size:60px;"">+</div>",,html-keyboard-response,247,1176469,0.0-15.0-0.19,86514,List1B,black,man,,,,null,,,,
null,"<img src=""stim_listB/shout1.gif""style=""height:400px;""></stim_listB>",,html-keyboard-response,248,1178476,0.0-15.0-1.19,86514,List1B,black,man,,,,null,,,,
null,is shouting at,,html-keyboard-response,249,1180483,0.0-15.0-2.19,86514,List1B,black,man,,,,null,,,,
12270,,,survey-text,250,1192760,0.0-15.0-3.19,86514,List1B,black,man,,,,,"{""Q0"":""fred is shotuing at beth""}","<img src=""stim_listB/shout1.gif""style=""height:400px;""></stim_listB>",is shouting at,
4678,"<img src='img/portrait_matrix_list1.jpg' style='width:900px;height:500px;''></img><p>If you have memorised all the portraits and names and are ready to start, press Continue.</p><p><strong>Please note: Your memory of these faces will be tested 4 times during this experiment.</strong></p>",0,html-button-response,251,1197445,0.0-16.0-0.0,86514,List1B,black,man,,,,,,,,
5422,"<img src=""portrait/WW2.jpg""style=""height:400px;""></img>",3,html-button-response,252,1203884,0.0-16.0-1.0,86514,List1B,black,man,,TRUE,3,,,,,
null,CORRECT,,html-keyboard-response,253,1205393,0.0-16.0-2.0-0.0,86514,List1B,black,man,,,,null,,,,
3743,"<img src=""portrait/WM1.jpg""style=""height:400px;""></img>",6,html-button-response,254,1209167,0.0-16.0-4.0,86514,List1B,black,man,,TRUE,6,,,,,
null,CORRECT,,html-keyboard-response,255,1210682,0.0-16.0-5.0-0.0,86514,List1B,black,man,,,,null,,,,
4927,"<img src=""portrait/BW2.jpg""style=""height:400px;""></img>",2,html-button-response,256,1215618,0.0-16.0-7.0,86514,List1B,black,man,,TRUE,2,,,,,
null,CORRECT,,html-keyboard-response,257,1217130,0.0-16.0-8.0-0.0,86514,List1B,black,man,,,,null,,,,
1899,"<img src=""portrait/BM1.jpg""style=""height:400px;""></img>",4,html-button-response,258,1219040,0.0-16.0-10.0,86514,List1B,black,man,,TRUE,4,,,,,
null,CORRECT,,html-keyboard-response,259,1220550,0.0-16.0-11.0-0.0,86514,List1B,black,man,,,,null,,,,
2059,"<img src=""portrait/BW1.jpg""style=""height:400px;""></img>",0,html-button-response,260,1222625,0.0-16.0-13.0,86514,List1B,black,man,,TRUE,0,,,,,
null,CORRECT,,html-keyboard-response,261,1224136,0.0-16.0-14.0-0.0,86514,List1B,black,man,,,,null,,,,
2080,"<img src=""portrait/WM2.jpg""style=""height:400px;""></img>",7,html-button-response,262,1226229,0.0-16.0-16.0,86514,List1B,black,man,,TRUE,7,,,,,
null,CORRECT,,html-keyboard-response,263,1227737,0.0-16.0-17.0-0.0,86514,List1B,black,man,,,,null,,,,
1691,"<img src=""portrait/BM2.jpg""style=""height:400px;""></img>",5,html-button-response,264,1229444,0.0-16.0-19.0,86514,List1B,black,man,,TRUE,5,,,,,
null,CORRECT,,html-keyboard-response,265,1230954,0.0-16.0-20.0-0.0,86514,List1B,black,man,,,,null,,,,
2524,"<img src=""portrait/WW1.jpg""style=""height:400px;""></img>",1,html-button-response,266,1233493,0.0-16.0-22.0,86514,List1B,black,man,,TRUE,1,,,,,
null,CORRECT,,html-keyboard-response,267,1235006,0.0-16.0-23.0-0.0,86514,List1B,black,man,,,,null,,,,
1241,<p>You got 8 out of 8 right first time. Press Continue.</p>,0,html-button-response,268,1236257,0.0-16.0-25.0,86514,List1B,black,man,,,,,,,,
null,"<div style=""font-size:60px;"">+</div>",,html-keyboard-response,269,1237768,0.0-17.0-0.0,86514,List1B,black,man,,,,null,,,,
null,"<img src=""stim_listB/touch7.gif""style=""height:400px;""></stim_listB>",,html-keyboard-response,270,1239774,0.0-17.0-1.0,86514,List1B,black,man,,,,null,,,,
null,is touching,,html-keyboard-response,271,1241782,0.0-17.0-2.0,86514,List1B,black,man,,,,null,,,,
9433,,,survey-text,272,1251221,0.0-17.0-3.0,86514,List1B,black,man,,,,,"{""Q0"":""kate is touching jane""}","<img src=""stim_listB/touch7.gif""style=""height:400px;""></stim_listB>",is touching,
null,"<div style=""font-size:60px;"">+</div>",,html-keyboard-response,273,1251727,0.0-17.0-0.1,86514,List1B,black,man,,,,null,,,,
null,"<img src=""stim_listB/talk2.gif""style=""height:400px;""></stim_listB>",,html-keyboard-response,274,1253734,0.0-17.0-1.1,86514,List1B,black,man,,,,null,,,,
null,are talking to each other,,html-keyboard-response,275,1255740,0.0-17.0-2.1,86514,List1B,black,man,,,,null,,,,
9216,,,survey-text,276,1264960,0.0-17.0-3.1,86514,List1B,black,man,,,,,"{""Q0"":""beth and mike are talking to each other""}","<img src=""stim_listB/talk2.gif""style=""height:400px;""></stim_listB>",are talking to each other,
null,"<div style=""font-size:60px;"">+</div>",,html-keyboard-response,277,1265467,0.0-17.0-0.2,86514,List1B,black,man,,,,null,,,,
null,"<img src=""stim_listB/marry4.gif""style=""height:400px;""></stim_listB>",,html-keyboard-response,278,1267478,0.0-17.0-1.2,86514,List1B,black,man,,,,null,,,,
null,are marrying each other,,html-keyboard-response,279,1269481,0.0-17.0-2.2,86514,List1B,black,man,,,,null,,,,
15052,,,survey-text,280,1284537,0.0-17.0-3.2,86514,List1B,black,man,,,,,"{""Q0"":""luke and jane are marrying each other""}","<img src=""stim_listB/marry4.gif""style=""height:400px;""></stim_listB>",are marrying each other,
null,"<div style=""font-size:60px;"">+</div>",,html-keyboard-response,281,1285044,0.0-17.0-0.3,86514,List1B,black,man,,,,null,,,,
null,"<img src=""stim_listB/dance2.gif""style=""height:400px;""></stim_listB>",,html-keyboard-response,282,1287052,0.0-17.0-1.3,86514,List1B,black,man,,,,null,,,,
null,are dancing with each other,,html-keyboard-response,283,1289060,0.0-17.0-2.3,86514,List1B,black,man,,,,null,,,,
16063,,,survey-text,284,1305130,0.0-17.0-3.3,86514,List1B,black,man,,,,,"{""Q0"":""beth and mike are dancing with each other""}","<img src=""stim_listB/dance2.gif""style=""height:400px;""></stim_listB>",are dancing with each other,
null,"<div style=""font-size:60px;"">+</div>",,html-keyboard-response,285,1305638,0.0-17.0-0.4,86514,List1B,black,man,,,,null,,,,
null,"<img src=""stim_listB/flirt1.gif""style=""height:400px;""></stim_listB>",,html-keyboard-response,286,1307655,0.0-17.0-1.4,86514,List1B,black,man,,,,null,,,,
null,is flirting with,,html-keyboard-response,287,1309664,0.0-17.0-2.4,86514,List1B,black,man,,,,null,,,,
9640,,,survey-text,288,1319310,0.0-17.0-3.4,86514,List1B,black,man,,,,,"{""Q0"":""kate is flirting with fred""}","<img src=""stim_listB/flirt1.gif""style=""height:400px;""></stim_listB>",is flirting with,
null,"<div style=""font-size:60px;"">+</div>",,html-keyboard-response,289,1319817,0.0-17.0-0.5,86514,List1B,black,man,,,,null,,,,
null,"<img src=""stim_listB/argue6.gif""style=""height:400px;""></stim_listB>",,html-keyboard-response,290,1321833,0.0-17.0-1.5,86514,List1B,black,man,,,,null,,,,
null,are arguing with each other,,html-keyboard-response,291,1323836,0.0-17.0-2.5,86514,List1B,black,man,,,,null,,,,
10782,,,survey-text,292,1334621,0.0-17.0-3.5,86514,List1B,black,man,,,,,"{""Q0"":""dave and fred are arguing with each other""}","<img src=""stim_listB/argue6.gif""style=""height:400px;""></stim_listB>",are arguing with each other,
null,"<div style=""font-size:60px;"">+</div>",,html-keyboard-response,293,1335128,0.0-17.0-0.6,86514,List1B,black,man,,,,null,,,,
null,"<img src=""stim_listB/marry6.gif""style=""height:400px;""></stim_listB>",,html-keyboard-response,294,1337153,0.0-17.0-1.6,86514,List1B,black,man,,,,null,,,,
null,are marrying each other,,html-keyboard-response,295,1339158,0.0-17.0-2.6,86514,List1B,black,man,,,,null,,,,
12979,,,survey-text,296,1352144,0.0-17.0-3.6,86514,List1B,black,man,,,,,"{""Q0"":""fred and dave are marrying each other""}","<img src=""stim_listB/marry6.gif""style=""height:400px;""></stim_listB>",are marrying each other,
null,"<div style=""font-size:60px;"">+</div>",,html-keyboard-response,297,1352659,0.0-17.0-0.7,86514,List1B,black,man,,,,null,,,,
null,"<img src=""stim_listB/touch3.gif""style=""height:400px;""></stim_listB>",,html-keyboard-response,298,1354671,0.0-17.0-1.7,86514,List1B,black,man,,,,null,,,,
null,is touching,,html-keyboard-response,299,1356680,0.0-17.0-2.7,86514,List1B,black,man,,,,null,,,,
7956,,,survey-text,300,1364645,0.0-17.0-3.7,86514,List1B,black,man,,,,,"{""Q0"":""jane is touching dave""}","<img src=""stim_listB/touch3.gif""style=""height:400px;""></stim_listB>",is touching,
null,"<div style=""font-size:60px;"">+</div>",,html-keyboard-response,301,1365152,0.0-17.0-0.8,86514,List1B,black,man,,,,null,,,,
null,"<img src=""stim_listB/shout2.gif""style=""height:400px;""></stim_listB>",,html-keyboard-response,302,1367156,0.0-17.0-1.8,86514,List1B,black,man,,,,null,,,,
null,are shouting at each other,,html-keyboard-response,303,1369170,0.0-17.0-2.8,86514,List1B,black,man,,,,null,,,,
9487,,,survey-text,304,1378665,0.0-17.0-3.8,86514,List1B,black,man,,,,,"{""Q0"":""kate and mike are shouting at each other""}","<img src=""stim_listB/shout2.gif""style=""height:400px;""></stim_listB>",are shouting at each other,
null,"<div style=""font-size:60px;"">+</div>",,html-keyboard-response,305,1379172,0.0-17.0-0.9,86514,List1B,black,man,,,,null,,,,
null,"<img src=""stim_listB/argue7.gif""style=""height:400px;""></stim_listB>",,html-keyboard-response,306,1381194,0.0-17.0-1.9,86514,List1B,black,man,,,,null,,,,
null,is arguing with,,html-keyboard-response,307,1383198,0.0-17.0-2.9,86514,List1B,black,man,,,,null,,,,
16389,,,survey-text,308,1399594,0.0-17.0-3.9,86514,List1B,black,man,,,,,"{""Q0"":""ruth is arguing with kate""}","<img src=""stim_listB/argue7.gif""style=""height:400px;""></stim_listB>",is arguing with,
null,"<div style=""font-size:60px;"">+</div>",,html-keyboard-response,309,1400110,0.0-17.0-0.10,86514,List1B,black,man,,,,null,,,,
null,"<img src=""stim_listB/play7.gif""style=""height:400px;""></stim_listB>",,html-keyboard-response,310,1402122,0.0-17.0-1.10,86514,List1B,black,man,,,,null,,,,
null,is playing with,,html-keyboard-response,311,1404129,0.0-17.0-2.10,86514,List1B,black,man,,,,null,,,,
12452,,,survey-text,312,1416588,0.0-17.0-3.10,86514,List1B,black,man,,,,,"{""Q0"":""kate is playing with jane""}","<img src=""stim_listB/play7.gif""style=""height:400px;""></stim_listB>",is playing with,
null,"<div style=""font-size:60px;"">+</div>",,html-keyboard-response,313,1417097,0.0-17.0-0.11,86514,List1B,black,man,,,,null,,,,
null,"<img src=""stim_listB/dance6.gif""style=""height:400px;""></stim_listB>",,html-keyboard-response,314,1419112,0.0-17.0-1.11,86514,List1B,black,man,,,,null,,,,
null,are dancing with each other,,html-keyboard-response,315,1421126,0.0-17.0-2.11,86514,List1B,black,man,,,,null,,,,
13868,,,survey-text,316,1434997,0.0-17.0-3.11,86514,List1B,black,man,,,,,"{""Q0"":""luke and mike are dancing with each other""}","<img src=""stim_listB/dance6.gif""style=""height:400px;""></stim_listB>",are dancing with each other,
null,"<div style=""font-size:60px;"">+</div>",,html-keyboard-response,317,1435502,0.0-17.0-0.12,86514,List1B,black,man,,,,null,,,,
null,"<img src=""stim_listB/dance8.gif""style=""height:400px;""></stim_listB>",,html-keyboard-response,318,1437520,0.0-17.0-1.12,86514,List1B,black,man,,,,null,,,,
null,are dancing with each other,,html-keyboard-response,319,1439527,0.0-17.0-2.12,86514,List1B,black,man,,,,null,,,,
12258,,,survey-text,320,1451791,0.0-17.0-3.12,86514,List1B,black,man,,,,,"{""Q0"":""ruth and beth are dancing with each other""}","<img src=""stim_listB/dance8.gif""style=""height:400px;""></stim_listB>",are dancing with each other,
null,"<div style=""font-size:60px;"">+</div>",,html-keyboard-response,321,1452299,0.0-17.0-0.13,86514,List1B,black,man,,,,null,,,,
null,"<img src=""stim_listB/play6.gif""style=""height:400px;""></stim_listB>",,html-keyboard-response,322,1454311,0.0-17.0-1.13,86514,List1B,black,man,,,,null,,,,
null,are playing with each other,,html-keyboard-response,323,1456329,0.0-17.0-2.13,86514,List1B,black,man,,,,null,,,,
10555,,,survey-text,324,1466888,0.0-17.0-3.13,86514,List1B,black,man,,,,,"{""Q0"":""fred and luke are playing with each other""}","<img src=""stim_listB/play6.gif""style=""height:400px;""></stim_listB>",are playing with each other,
null,"<div style=""font-size:60px;"">+</div>",,html-keyboard-response,325,1467394,0.0-17.0-0.14,86514,List1B,black,man,,,,null,,,,
null,"<img src=""stim_listB/fight1.gif""style=""height:400px;""></stim_listB>",,html-keyboard-response,326,1469406,0.0-17.0-1.14,86514,List1B,black,man,,,,null,,,,
null,is fighting,,html-keyboard-response,327,1471411,0.0-17.0-2.14,86514,List1B,black,man,,,,null,,,,
6705,,,survey-text,328,1478120,0.0-17.0-3.14,86514,List1B,black,man,,,,,"{""Q0"":""kate is fighting mike""}","<img src=""stim_listB/fight1.gif""style=""height:400px;""></stim_listB>",is fighting,
null,"<div style=""font-size:60px;"">+</div>",,html-keyboard-response,329,1478626,0.0-17.0-0.15,86514,List1B,black,man,,,,null,,,,
null,"<img src=""stim_listB/shout6.gif""style=""height:400px;""></stim_listB>",,html-keyboard-response,330,1480638,0.0-17.0-1.15,86514,List1B,black,man,,,,null,,,,
null,are shouting at each other,,html-keyboard-response,331,1482644,0.0-17.0-2.15,86514,List1B,black,man,,,,null,,,,
9715,,,survey-text,332,1492366,0.0-17.0-3.15,86514,List1B,black,man,,,,,"{""Q0"":""fred and mike are shouting at each other""}","<img src=""stim_listB/shout6.gif""style=""height:400px;""></stim_listB>",are shouting at each other,
null,"<div style=""font-size:60px;"">+</div>",,html-keyboard-response,333,1492872,0.0-17.0-0.16,86514,List1B,black,man,,,,null,,,,
null,"<img src=""stim_listB/marry7.gif""style=""height:400px;""></stim_listB>",,html-keyboard-response,334,1494893,0.0-17.0-1.16,86514,List1B,black,man,,,,null,,,,
null,is marrying,,html-keyboard-response,335,1496904,0.0-17.0-2.16,86514,List1B,black,man,,,,null,,,,
8549,,,survey-text,336,1505457,0.0-17.0-3.16,86514,List1B,black,man,,,,,"{""Q0"":""kate is marrying ruth""}","<img src=""stim_listB/marry7.gif""style=""height:400px;""></stim_listB>",is marrying,
null,"<div style=""font-size:60px;"">+</div>",,html-keyboard-response,337,1505965,0.0-17.0-0.17,86514,List1B,black,man,,,,null,,,,
null,"<img src=""stim_listB/flirt6.gif""style=""height:400px;""></stim_listB>",,html-keyboard-response,338,1507981,0.0-17.0-1.17,86514,List1B,black,man,,,,null,,,,
null,are flirting with each other,,html-keyboard-response,339,1509997,0.0-17.0-2.17,86514,List1B,black,man,,,,null,,,,
11917,,,survey-text,340,1521920,0.0-17.0-3.17,86514,List1B,black,man,,,,,"{""Q0"":""luke and mike are flirting with each other""}","<img src=""stim_listB/flirt6.gif""style=""height:400px;""></stim_listB>",are flirting with each other,
null,"<div style=""font-size:60px;"">+</div>",,html-keyboard-response,341,1522425,0.0-17.0-0.18,86514,List1B,black,man,,,,null,,,,
null,"<img src=""stim_listB/argue8.gif""style=""height:400px;""></stim_listB>",,html-keyboard-response,342,1524437,0.0-17.0-1.18,86514,List1B,black,man,,,,null,,,,
null,are arguing with each other,,html-keyboard-response,343,1526448,0.0-17.0-2.18,86514,List1B,black,man,,,,null,,,,
21221,,,survey-text,344,1547677,0.0-17.0-3.18,86514,List1B,black,man,,,,,"{""Q0"":""jane and beth are arguing with each other""}","<img src=""stim_listB/argue8.gif""style=""height:400px;""></stim_listB>",are arguing with each other,
null,"<div style=""font-size:60px;"">+</div>",,html-keyboard-response,345,1548190,0.0-17.0-0.19,86514,List1B,black,man,,,,null,,,,
null,"<img src=""stim_listB/marry2.gif""style=""height:400px;""></stim_listB>",,html-keyboard-response,346,1550197,0.0-17.0-1.19,86514,List1B,black,man,,,,null,,,,
null,are marrying each other,,html-keyboard-response,347,1552203,0.0-17.0-2.19,86514,List1B,black,man,,,,null,,,,
11592,,,survey-text,348,1563798,0.0-17.0-3.19,86514,List1B,black,man,,,,,"{""Q0"":""kate and fred are marrying each other""}","<img src=""stim_listB/marry2.gif""style=""height:400px;""></stim_listB>",are marrying each other,
8582,"<img src='img/portrait_matrix_list1.jpg' style='width:900px;height:500px;''></img><p>If you have memorised all the portraits and names and are ready to start, press Continue.</p><p><strong>Please note: Your memory of these faces will be tested 4 times during this experiment.</strong></p>",0,html-button-response,349,1572387,0.0-18.0-0.0,86514,List1B,black,man,,,,,,,,
1943,"<img src=""portrait/WM2.jpg""style=""height:400px;""></img>",7,html-button-response,350,1575349,0.0-18.0-1.0,86514,List1B,black,man,,TRUE,7,,,,,
null,CORRECT,,html-keyboard-response,351,1576856,0.0-18.0-2.0-0.0,86514,List1B,black,man,,,,null,,,,
1360,"<img src=""portrait/BM2.jpg""style=""height:400px;""></img>",5,html-button-response,352,1578229,0.0-18.0-4.0,86514,List1B,black,man,,TRUE,5,,,,,
null,CORRECT,,html-keyboard-response,353,1579739,0.0-18.0-5.0-0.0,86514,List1B,black,man,,,,null,,,,
1571,"<img src=""portrait/BM1.jpg""style=""height:400px;""></img>",4,html-button-response,354,1581325,0.0-18.0-7.0,86514,List1B,black,man,,TRUE,4,,,,,
null,CORRECT,,html-keyboard-response,355,1582852,0.0-18.0-8.0-0.0,86514,List1B,black,man,,,,null,,,,
1707,"<img src=""portrait/BW1.jpg""style=""height:400px;""></img>",0,html-button-response,356,1584573,0.0-18.0-10.0,86514,List1B,black,man,,TRUE,0,,,,,
null,CORRECT,,html-keyboard-response,357,1586090,0.0-18.0-11.0-0.0,86514,List1B,black,man,,,,null,,,,
1635,"<img src=""portrait/WW2.jpg""style=""height:400px;""></img>",3,html-button-response,358,1587742,0.0-18.0-13.0,86514,List1B,black,man,,TRUE,3,,,,,
null,CORRECT,,html-keyboard-response,359,1589252,0.0-18.0-14.0-0.0,86514,List1B,black,man,,,,null,,,,
1423,"<img src=""portrait/WW1.jpg""style=""height:400px;""></img>",1,html-button-response,360,1590689,0.0-18.0-16.0,86514,List1B,black,man,,TRUE,1,,,,,
null,CORRECT,,html-keyboard-response,361,1592206,0.0-18.0-17.0-0.0,86514,List1B,black,man,,,,null,,,,
1719,"<img src=""portrait/WM1.jpg""style=""height:400px;""></img>",6,html-button-response,362,1593936,0.0-18.0-19.0,86514,List1B,black,man,,TRUE,6,,,,,
null,CORRECT,,html-keyboard-response,363,1595444,0.0-18.0-20.0-0.0,86514,List1B,black,man,,,,null,,,,
1201,"<img src=""portrait/BW2.jpg""style=""height:400px;""></img>",2,html-button-response,364,1596654,0.0-18.0-22.0,86514,List1B,black,man,,TRUE,2,,,,,
null,CORRECT,,html-keyboard-response,365,1598165,0.0-18.0-23.0-0.0,86514,List1B,black,man,,,,null,,,,
1119,<p>You got 8 out of 8 right first time. Press Continue.</p>,0,html-button-response,366,1599294,0.0-18.0-25.0,86514,List1B,black,man,,,,,,,,
null,"<div style=""font-size:60px;"">+</div>",,html-keyboard-response,367,1600812,0.0-19.0-0.0,86514,List1B,black,man,,,,null,,,,
null,"<img src=""stim_listB/talk3.gif""style=""height:400px;""></stim_listB>",,html-keyboard-response,368,1602830,0.0-19.0-1.0,86514,List1B,black,man,,,,null,,,,
null,is talking to,,html-keyboard-response,369,1604838,0.0-19.0-2.0,86514,List1B,black,man,,,,null,,,,
8714,,,survey-text,370,1613561,0.0-19.0-3.0,86514,List1B,black,man,,,,,"{""Q0"":""jane is talking to luke""}","<img src=""stim_listB/talk3.gif""style=""height:400px;""></stim_listB>",is talking to,
null,"<div style=""font-size:60px;"">+</div>",,html-keyboard-response,371,1614069,0.0-19.0-0.1,86514,List1B,black,man,,,,null,,,,
null,"<img src=""stim_listB/argue2.gif""style=""height:400px;""></stim_listB>",,html-keyboard-response,372,1616083,0.0-19.0-1.1,86514,List1B,black,man,,,,null,,,,
null,are arguing with each other,,html-keyboard-response,373,1618097,0.0-19.0-2.1,86514,List1B,black,man,,,,null,,,,
10383,,,survey-text,374,1628489,0.0-19.0-3.1,86514,List1B,black,man,,,,,"{""Q0"":""kate and fred are arguing with each other""}","<img src=""stim_listB/argue2.gif""style=""height:400px;""></stim_listB>",are arguing with each other,
null,"<div style=""font-size:60px;"">+</div>",,html-keyboard-response,375,1628998,0.0-19.0-0.2,86514,List1B,black,man,,,,null,,,,
null,"<img src=""stim_listB/kiss6.gif""style=""height:400px;""></stim_listB>",,html-keyboard-response,376,1631020,0.0-19.0-1.2,86514,List1B,black,man,,,,null,,,,
null,are kissing each other,,html-keyboard-response,377,1633029,0.0-19.0-2.2,86514,List1B,black,man,,,,null,,,,
8322,,,survey-text,378,1641363,0.0-19.0-3.2,86514,List1B,black,man,,,,,"{""Q0"":""dave and mike are kissing each other""}","<img src=""stim_listB/kiss6.gif""style=""height:400px;""></stim_listB>",are kissing each other,
null,"<div style=""font-size:60px;"">+</div>",,html-keyboard-response,379,1641870,0.0-19.0-0.3,86514,List1B,black,man,,,,null,,,,
null,"<img src=""stim_listB/dance3.gif""style=""height:400px;""></stim_listB>",,html-keyboard-response,380,1643892,0.0-19.0-1.3,86514,List1B,black,man,,,,null,,,,
null,is dancing with,,html-keyboard-response,381,1645904,0.0-19.0-2.3,86514,List1B,black,man,,,,null,,,,
22202,,,survey-text,382,1668116,0.0-19.0-3.3,86514,List1B,black,man,,,,,"{""Q0"":""jane is dancing with luke""}","<img src=""stim_listB/dance3.gif""style=""height:400px;""></stim_listB>",is dancing with,
null,"<div style=""font-size:60px;"">+</div>",,html-keyboard-response,383,1668621,0.0-19.0-0.4,86514,List1B,black,man,,,,null,,,,
null,"<img src=""stim_listB/fight7.gif""style=""height:400px;""></stim_listB>",,html-keyboard-response,384,1670637,0.0-19.0-1.4,86514,List1B,black,man,,,,null,,,,
null,is fighting,,html-keyboard-response,385,1672651,0.0-19.0-2.4,86514,List1B,black,man,,,,null,,,,
6857,,,survey-text,386,1679512,0.0-19.0-3.4,86514,List1B,black,man,,,,,"{""Q0"":""jane is fighting with kate""}","<img src=""stim_listB/fight7.gif""style=""height:400px;""></stim_listB>",is fighting,
null,"<div style=""font-size:60px;"">+</div>",,html-keyboard-response,387,1680034,0.0-19.0-0.5,86514,List1B,black,man,,,,null,,,,
null,"<img src=""stim_listB/play8.gif""style=""height:400px;""></stim_listB>",,html-keyboard-response,388,1682044,0.0-19.0-1.5,86514,List1B,black,man,,,,null,,,,
null,are playing with each other,,html-keyboard-response,389,1684046,0.0-19.0-2.5,86514,List1B,black,man,,,,null,,,,
14815,,,survey-text,390,1698864,0.0-19.0-3.5,86514,List1B,black,man,,,,,"{""Q0"":""beth and ruth are playing with each other""}","<img src=""stim_listB/play8.gif""style=""height:400px;""></stim_listB>",are playing with each other,
null,"<div style=""font-size:60px;"">+</div>",,html-keyboard-response,391,1699375,0.0-19.0-0.6,86514,List1B,black,man,,,,null,,,,
null,"<img src=""stim_listB/fight6.gif""style=""height:400px;""></stim_listB>",,html-keyboard-response,392,1701398,0.0-19.0-1.6,86514,List1B,black,man,,,,null,,,,
null,are fighting each other,,html-keyboard-response,393,1703413,0.0-19.0-2.6,86514,List1B,black,man,,,,null,,,,
9518,,,survey-text,394,1712933,0.0-19.0-3.6,86514,List1B,black,man,,,,,"{""Q0"":""fred and luke are fighting each other""}","<img src=""stim_listB/fight6.gif""style=""height:400px;""></stim_listB>",are fighting each other,
null,"<div style=""font-size:60px;"">+</div>",,html-keyboard-response,395,1713437,0.0-19.0-0.7,86514,List1B,black,man,,,,null,,,,
null,"<img src=""stim_listB/touch6.gif""style=""height:400px;""></stim_listB>",,html-keyboard-response,396,1715445,0.0-19.0-1.7,86514,List1B,black,man,,,,null,,,,
null,are touching each other,,html-keyboard-response,397,1717457,0.0-19.0-2.7,86514,List1B,black,man,,,,null,,,,
11732,,,survey-text,398,1729195,0.0-19.0-3.7,86514,List1B,black,man,,,,,"{""Q0"":""fred and luke are touching each other""}","<img src=""stim_listB/touch6.gif""style=""height:400px;""></stim_listB>",are touching each other,
null,"<div style=""font-size:60px;"">+</div>",,html-keyboard-response,399,1729702,0.0-19.0-0.8,86514,List1B,black,man,,,,null,,,,
null,"<img src=""stim_listB/touch5.gif""style=""height:400px;""></stim_listB>",,html-keyboard-response,400,1731715,0.0-19.0-1.8,86514,List1B,black,man,,,,null,,,,
null,is touching,,html-keyboard-response,401,1733721,0.0-19.0-2.8,86514,List1B,black,man,,,,null,,,,
9373,,,survey-text,402,1743096,0.0-19.0-3.8,86514,List1B,black,man,,,,,"{""Q0"":""mike is touching dave""}","<img src=""stim_listB/touch5.gif""style=""height:400px;""></stim_listB>",is touching,
null,"<div style=""font-size:60px;"">+</div>",,html-keyboard-response,403,1743604,0.0-19.0-0.9,86514,List1B,black,man,,,,null,,,,
null,"<img src=""stim_listB/flirt5.gif""style=""height:400px;""></stim_listB>",,html-keyboard-response,404,1745618,0.0-19.0-1.9,86514,List1B,black,man,,,,null,,,,
null,is flirting with,,html-keyboard-response,405,1747626,0.0-19.0-2.9,86514,List1B,black,man,,,,null,,,,
10908,,,survey-text,406,1758542,0.0-19.0-3.9,86514,List1B,black,man,,,,,"{""Q0"":""fred is flirting with dave""}","<img src=""stim_listB/flirt5.gif""style=""height:400px;""></stim_listB>",is flirting with,
null,"<div style=""font-size:60px;"">+</div>",,html-keyboard-response,407,1759049,0.0-19.0-0.10,86514,List1B,black,man,,,,null,,,,
null,"<img src=""stim_listB/touch8.gif""style=""height:400px;""></stim_listB>",,html-keyboard-response,408,1761070,0.0-19.0-1.10,86514,List1B,black,man,,,,null,,,,
null,are touching each other,,html-keyboard-response,409,1763079,0.0-19.0-2.10,86514,List1B,black,man,,,,null,,,,
8730,,,survey-text,410,1771815,0.0-19.0-3.10,86514,List1B,black,man,,,,,"{""Q0"":""ruth and beth are touching each other""}","<img src=""stim_listB/touch8.gif""style=""height:400px;""></stim_listB>",are touching each other,
null,"<div style=""font-size:60px;"">+</div>",,html-keyboard-response,411,1772325,0.0-19.0-0.11,86514,List1B,black,man,,,,null,,,,
null,"<img src=""stim_listB/kiss8.gif""style=""height:400px;""></stim_listB>",,html-keyboard-response,412,1774336,0.0-19.0-1.11,86514,List1B,black,man,,,,null,,,,
null,are kissing each other,,html-keyboard-response,413,1776343,0.0-19.0-2.11,86514,List1B,black,man,,,,null,,,,
8147,,,survey-text,414,1784494,0.0-19.0-3.11,86514,List1B,black,man,,,,,"{""Q0"":""kate and jane are kissing each other""}","<img src=""stim_listB/kiss8.gif""style=""height:400px;""></stim_listB>",are kissing each other,
null,"<div style=""font-size:60px;"">+</div>",,html-keyboard-response,415,1785008,0.0-19.0-0.12,86514,List1B,black,man,,,,null,,,,
null,"<img src=""stim_listB/talk8.gif""style=""height:400px;""></stim_listB>",,html-keyboard-response,416,1787017,0.0-19.0-1.12,86514,List1B,black,man,,,,null,,,,
null,are talking to each other,,html-keyboard-response,417,1789029,0.0-19.0-2.12,86514,List1B,black,man,,,,null,,,,
9814,,,survey-text,418,1798846,0.0-19.0-3.12,86514,List1B,black,man,,,,,"{""Q0"":""ruth and kate are talking to each other""}","<img src=""stim_listB/talk8.gif""style=""height:400px;""></stim_listB>",are talking to each other,
null,"<div style=""font-size:60px;"">+</div>",,html-keyboard-response,419,1799356,0.0-19.0-0.13,86514,List1B,black,man,,,,null,,,,
null,"<img src=""stim_listB/fight5.gif""style=""height:400px;""></stim_listB>",,html-keyboard-response,420,1801373,0.0-19.0-1.13,86514,List1B,black,man,,,,null,,,,
null,is fighting,,html-keyboard-response,421,1803389,0.0-19.0-2.13,86514,List1B,black,man,,,,null,,,,
8522,,,survey-text,422,1811921,0.0-19.0-3.13,86514,List1B,black,man,,,,,"{""Q0"":""dave is fighting with mike""}","<img src=""stim_listB/fight5.gif""style=""height:400px;""></stim_listB>",is fighting,
null,"<div style=""font-size:60px;"">+</div>",,html-keyboard-response,423,1812426,0.0-19.0-0.14,86514,List1B,black,man,,,,null,,,,
null,"<img src=""stim_listB/talk1.gif""style=""height:400px;""></stim_listB>",,html-keyboard-response,424,1814432,0.0-19.0-1.14,86514,List1B,black,man,,,,null,,,,
null,is talking to,,html-keyboard-response,425,1816439,0.0-19.0-2.14,86514,List1B,black,man,,,,null,,,,
7862,,,survey-text,426,1824307,0.0-19.0-3.14,86514,List1B,black,man,,,,,"{""Q0"":""fred is talking with kate""}","<img src=""stim_listB/talk1.gif""style=""height:400px;""></stim_listB>",is talking to,
null,"<div style=""font-size:60px;"">+</div>",,html-keyboard-response,427,1824816,0.0-19.0-0.15,86514,List1B,black,man,,,,null,,,,
null,"<img src=""stim_listB/fight2.gif""style=""height:400px;""></stim_listB>",,html-keyboard-response,428,1826830,0.0-19.0-1.15,86514,List1B,black,man,,,,null,,,,
null,are fighting each other,,html-keyboard-response,429,1828848,0.0-19.0-2.15,86514,List1B,black,man,,,,null,,,,
8506,,,survey-text,430,1837358,0.0-19.0-3.15,86514,List1B,black,man,,,,,"{""Q0"":""beth is fighting with fred""}","<img src=""stim_listB/fight2.gif""style=""height:400px;""></stim_listB>",are fighting each other,
null,"<div style=""font-size:60px;"">+</div>",,html-keyboard-response,431,1837867,0.0-19.0-0.16,86514,List1B,black,man,,,,null,,,,
null,"<img src=""stim_listB/flirt3.gif""style=""height:400px;""></stim_listB>",,html-keyboard-response,432,1839880,0.0-19.0-1.16,86514,List1B,black,man,,,,null,,,,
null,is flirting with,,html-keyboard-response,433,1841888,0.0-19.0-2.16,86514,List1B,black,man,,,,null,,,,
10873,,,survey-text,434,1852767,0.0-19.0-3.16,86514,List1B,black,man,,,,,"{""Q0"":""jane is flirting with luke""}","<img src=""stim_listB/flirt3.gif""style=""height:400px;""></stim_listB>",is flirting with,
null,"<div style=""font-size:60px;"">+</div>",,html-keyboard-response,435,1853275,0.0-19.0-0.17,86514,List1B,black,man,,,,null,,,,
null,"<img src=""stim_listB/kiss5.gif""style=""height:400px;""></stim_listB>",,html-keyboard-response,436,1855287,0.0-19.0-1.17,86514,List1B,black,man,,,,null,,,,
null,is kissing,,html-keyboard-response,437,1857296,0.0-19.0-2.17,86514,List1B,black,man,,,,null,,,,
5659,,,survey-text,438,1862959,0.0-19.0-3.17,86514,List1B,black,man,,,,,"{""Q0"":""fred is kissing luke""}","<img src=""stim_listB/kiss5.gif""style=""height:400px;""></stim_listB>",is kissing,
null,"<div style=""font-size:60px;"">+</div>",,html-keyboard-response,439,1863466,0.0-19.0-0.18,86514,List1B,black,man,,,,null,,,,
null,"<img src=""stim_listB/play2.gif""style=""height:400px;""></stim_listB>",,html-keyboard-response,440,1865477,0.0-19.0-1.18,86514,List1B,black,man,,,,null,,,,
null,are playing with each other,,html-keyboard-response,441,1867486,0.0-19.0-2.18,86514,List1B,black,man,,,,null,,,,
10262,,,survey-text,442,1877753,0.0-19.0-3.18,86514,List1B,black,man,,,,,"{""Q0"":""beth and fred are playing with each other""}","<img src=""stim_listB/play2.gif""style=""height:400px;""></stim_listB>",are playing with each other,
null,"<div style=""font-size:60px;"">+</div>",,html-keyboard-response,443,1878262,0.0-19.0-0.19,86514,List1B,black,man,,,,null,,,,
null,"<img src=""stim_listB/shout7.gif""style=""height:400px;""></stim_listB>",,html-keyboard-response,444,1880280,0.0-19.0-1.19,86514,List1B,black,man,,,,null,,,,
null,is shouting at,,html-keyboard-response,445,1882286,0.0-19.0-2.19,86514,List1B,black,man,,,,null,,,,
11531,,,survey-text,446,1893829,0.0-19.0-3.19,86514,List1B,black,man,,,,,"{""Q0"":""beth is shouting at ruth""}","<img src=""stim_listB/shout7.gif""style=""height:400px;""></stim_listB>",is shouting at,
2179,<p>Thank you for completing that task.</p><p>The final part of this session is a short questionnaire.</p><p>Press Continue.</p>,0,html-button-response,447,1896013,0.0-20.0,86514,List1B,black,man,,,,,,,,
24763,,,survey-text,448,1921791,0.0-21.0,86514,List1B,black,man,,,,,"{""Q0"":""20"",""Q1"":""English"",""Q2"":""English"",""Q3"":""United States"",""Q4"":""African American"",""Q5"":""Male""}",,,demographics
5253,,,survey-likert,449,1927096,0.0-22.0,86514,List1B,black,man,,,,,"{""Q0"":4}",,,likert_ESS
5771,,,survey-likert,450,1932885,0.0-23.0,86514,List1B,black,man,,,,,"{""Q0"":5}",,,likert_NSSAL_Q1
6236,,,survey-likert,451,1939143,0.0-24.0,86514,List1B,black,man,,,,,"{""Q0"":5}",,,likert_NSSAL_Q2
3670,,,survey-likert,452,1942832,0.0-25.0,86514,List1B,black,man,,,,,"{""Q0"":3}",,,likert_CGRS_Q1
2566,,,survey-likert,453,1945418,0.0-26.0,86514,List1B,black,man,,,,,"{""Q0"":3}",,,likert_CGRS_Q2
3077,,,survey-likert,454,1948516,0.0-27.0,86514,List1B,black,man,,,,,"{""Q0"":3}",,,likert_CGRS_Q3
7998,,,survey-text,455,1956530,0.0-28.0,86514,List1B,black,man,,,,,"{""Q0"":""ccc""}",,,worker_id
2981,,,external-html,456,1960171,0.0-29.0,86514,List1B,black,man,debrief.html,,,,,,,
