rt,stimulus,button_pressed,trial_type,trial_index,time_elapsed,internal_node_id,subject,list,ppt_race,ppt_gender,url,first_guess,correct,key_press,responses,image_type,phrase_type,test_part
10447,Welcome to the experiment. Press Continue to begin.,0,html-button-response,0,10451,0.0-0.0,86869,List1A,white,woman,,,,,,,,
7157,,,external-html,1,18665,0.0-1.0,86869,List1A,white,woman,consent.html,,,,,,,
11688,"<p>On the next page, you will see portraits of 8 people and their names.</p><p>Your first task is to take a few minutes to memorise the names of these people.</p><p>You will have to recall their names during the rest of the experiment, so it is</p><p>essential that you try to memorise these people and their names as best as you can.</p><br><p><strong>You will then be tested on your memory of these names and portraits.</strong></p><br><p>The experiment will start after you have completed this memory test.</p><br><p>Ready?</p>",0,html-button-response,2,30354,0.0-2.0,86869,List1A,white,woman,,,,,,,,
105129,"<img src='img/portrait_matrix_list1.jpg' style='width:900px;height:500px;''></img><p>If you have memorised all the portraits and names and are ready to start, press Continue.</p><p><strong>Please note: Your memory of these faces will be tested 4 times during this experiment.</strong></p>",0,html-button-response,3,136487,0.0-3.0-0.0,86869,List1A,white,woman,,,,,,,,
6190,"<img src=""portrait/BM1.jpg""style=""height:400px;""></img>",4,html-button-response,4,143681,0.0-3.0-1.0,86869,List1A,white,woman,,TRUE,4,,,,,
null,CORRECT,,html-keyboard-response,5,145186,0.0-3.0-2.0-0.0,86869,List1A,white,woman,,,,null,,,,
2778,"<img src=""portrait/WW2.jpg""style=""height:400px;""></img>",3,html-button-response,6,147966,0.0-3.0-4.0,86869,List1A,white,woman,,TRUE,3,,,,,
null,CORRECT,,html-keyboard-response,7,149470,0.0-3.0-5.0-0.0,86869,List1A,white,woman,,,,null,,,,
5900,"<img src=""portrait/WM1.jpg""style=""height:400px;""></img>",6,html-button-response,8,155372,0.0-3.0-7.0,86869,List1A,white,woman,,TRUE,6,,,,,
null,CORRECT,,html-keyboard-response,9,156876,0.0-3.0-8.0-0.0,86869,List1A,white,woman,,,,null,,,,
5894,"<img src=""portrait/BW1.jpg""style=""height:400px;""></img>",0,html-button-response,10,162772,0.0-3.0-10.0,86869,List1A,white,woman,,TRUE,0,,,,,
null,CORRECT,,html-keyboard-response,11,164276,0.0-3.0-11.0-0.0,86869,List1A,white,woman,,,,null,,,,
2647,"<img src=""portrait/WM2.jpg""style=""height:400px;""></img>",7,html-button-response,12,166926,0.0-3.0-13.0,86869,List1A,white,woman,,TRUE,7,,,,,
null,CORRECT,,html-keyboard-response,13,168430,0.0-3.0-14.0-0.0,86869,List1A,white,woman,,,,null,,,,
2525,"<img src=""portrait/BM2.jpg""style=""height:400px;""></img>",5,html-button-response,14,170955,0.0-3.0-16.0,86869,List1A,white,woman,,TRUE,5,,,,,
null,CORRECT,,html-keyboard-response,15,172459,0.0-3.0-17.0-0.0,86869,List1A,white,woman,,,,null,,,,
3249,"<img src=""portrait/WW1.jpg""style=""height:400px;""></img>",1,html-button-response,16,175709,0.0-3.0-19.0,86869,List1A,white,woman,,TRUE,1,,,,,
null,CORRECT,,html-keyboard-response,17,177213,0.0-3.0-20.0-0.0,86869,List1A,white,woman,,,,null,,,,
1942,"<img src=""portrait/BW2.jpg""style=""height:400px;""></img>",2,html-button-response,18,179157,0.0-3.0-22.0,86869,List1A,white,woman,,TRUE,2,,,,,
null,CORRECT,,html-keyboard-response,19,180661,0.0-3.0-23.0-0.0,86869,List1A,white,woman,,,,null,,,,
2056,<p>You got 8 out of 8 right first time. Press Continue.</p>,0,html-button-response,20,182719,0.0-3.0-25.0,86869,List1A,white,woman,,,,,,,,
35516,"<p>In this experiment, you will view photographs of the people from the memory game interacting.</p><p>By using the <strong>exact</strong> phrase given <i>after</i> the photograph appears and recalling the correct names of the people in the photographs, form a sentence describing the interaction. You do not need to capitalise names.</p><p>Type your answer in the space provided. Please complete every sentence before moving onto the next trial.</p><p>You will only have a few seconds to memorise each given photograph and phrase before you can respond, so try your best to focus.</p><p>An example is given below. Press 'Continue' when you are ready.</p><img src='img/speaking_example.jpg' style='width:800px;height:460px;''></img>",0,html-button-response,21,219237,0.0-4.0,86869,List1A,white,woman,,,,,,,,
1735,"<p>Before the experiment starts, you will watch two example trials. Press 'Continue'.</p>",0,html-button-response,22,221973,0.0-5.0,86869,List1A,white,woman,,,,,,,,
null,<img src='img/meet_eg.gif' style='height:400px;''></img>,,html-keyboard-response,23,224977,0.0-6.0,86869,List1A,white,woman,,,,null,,,,
null,<p>is meeting</p>,,html-keyboard-response,24,226980,0.0-7.0,86869,List1A,white,woman,,,,null,,,,
3822,<p><b>Answer:</b> kate is meeting beth</p>,0,html-button-response,25,230802,0.0-8.0,86869,List1A,white,woman,,,,,,,,
null,<img src='img/look_eg.gif' style='height:400px;''></img>,,html-keyboard-response,26,233806,0.0-9.0,86869,List1A,white,woman,,,,null,,,,
null,<p>are looking at each other</p>,,html-keyboard-response,27,235809,0.0-10.0,86869,List1A,white,woman,,,,null,,,,
3809,<p><b>Answer:</b> luke and dave are looking at each other</p>,0,html-button-response,28,239619,0.0-11.0,86869,List1A,white,woman,,,,,,,,
7524,"<p>Ready to start the experiment?</p><br><p><strong>Remember to describe the picture using a full sentence,</strong></p><p><strong>that combines the names of the people with the <i>exact</i> phrase given.</strong></p><p><strong>To receive full payment you must do this correctly.</strong></p><p><strong> You do not need to capitalise names or use punctuation.</strong></p><br><p>Press 'Continue' to begin.</p>",0,html-button-response,29,248144,0.0-12.0,86869,List1A,white,woman,,,,,,,,
null,"<div style=""font-size:60px;"">+</div>",,html-keyboard-response,30,249648,0.0-13.0-0.0,86869,List1A,white,woman,,,,null,,,,
null,"<img src=""stim_listA/fight2.gif""style=""height:400px;""></stim_listA>",,html-keyboard-response,31,251654,0.0-13.0-1.0,86869,List1A,white,woman,,,,null,,,,
null,are fighting each other,,html-keyboard-response,32,253657,0.0-13.0-2.0,86869,List1A,white,woman,,,,null,,,,
30711,,,survey-text,33,284369,0.0-13.0-3.0,86869,List1A,white,woman,,,,,"{""Q0"":""Fred and Beth are fighting each other""}","<img src=""stim_listA/fight2.gif""style=""height:400px;""></stim_listA>",are fighting each other,
null,"<div style=""font-size:60px;"">+</div>",,html-keyboard-response,34,284872,0.0-13.0-0.1,86869,List1A,white,woman,,,,null,,,,
null,"<img src=""stim_listA/dance3.gif""style=""height:400px;""></stim_listA>",,html-keyboard-response,35,286878,0.0-13.0-1.1,86869,List1A,white,woman,,,,null,,,,
null,is dancing with,,html-keyboard-response,36,288881,0.0-13.0-2.1,86869,List1A,white,woman,,,,null,,,,
17169,,,survey-text,37,306051,0.0-13.0-3.1,86869,List1A,white,woman,,,,,"{""Q0"":""luke is dancing with jane""}","<img src=""stim_listA/dance3.gif""style=""height:400px;""></stim_listA>",is dancing with,
null,"<div style=""font-size:60px;"">+</div>",,html-keyboard-response,38,306554,0.0-13.0-0.2,86869,List1A,white,woman,,,,null,,,,
null,"<img src=""stim_listA/play4.gif""style=""height:400px;""></stim_listA>",,html-keyboard-response,39,308557,0.0-13.0-1.2,86869,List1A,white,woman,,,,null,,,,
null,are playing with each other,,html-keyboard-response,40,310559,0.0-13.0-2.2,86869,List1A,white,woman,,,,null,,,,
27381,,,survey-text,41,337941,0.0-13.0-3.2,86869,List1A,white,woman,,,,,"{""Q0"":""luke and ruth are playing against each other""}","<img src=""stim_listA/play4.gif""style=""height:400px;""></stim_listA>",are playing with each other,
null,"<div style=""font-size:60px;"">+</div>",,html-keyboard-response,42,338444,0.0-13.0-0.3,86869,List1A,white,woman,,,,null,,,,
null,"<img src=""stim_listA/marry7.gif""style=""height:400px;""></stim_listA>",,html-keyboard-response,43,340447,0.0-13.0-1.3,86869,List1A,white,woman,,,,null,,,,
null,is marrying,,html-keyboard-response,44,342450,0.0-13.0-2.3,86869,List1A,white,woman,,,,null,,,,
17061,,,survey-text,45,359514,0.0-13.0-3.3,86869,List1A,white,woman,,,,,"{""Q0"":""kate and jane are marrying each other""}","<img src=""stim_listA/marry7.gif""style=""height:400px;""></stim_listA>",is marrying,
null,"<div style=""font-size:60px;"">+</div>",,html-keyboard-response,46,360017,0.0-13.0-0.4,86869,List1A,white,woman,,,,null,,,,
null,"<img src=""stim_listA/marry2.gif""style=""height:400px;""></stim_listA>",,html-keyboard-response,47,362020,0.0-13.0-1.4,86869,List1A,white,woman,,,,null,,,,
null,are marrying each other,,html-keyboard-response,48,364023,0.0-13.0-2.4,86869,List1A,white,woman,,,,null,,,,
12393,,,survey-text,49,376417,0.0-13.0-3.4,86869,List1A,white,woman,,,,,"{""Q0"":""fred and kate are marrying each other""}","<img src=""stim_listA/marry2.gif""style=""height:400px;""></stim_listA>",are marrying each other,
null,"<div style=""font-size:60px;"">+</div>",,html-keyboard-response,50,376920,0.0-13.0-0.5,86869,List1A,white,woman,,,,null,,,,
null,"<img src=""stim_listA/dance4.gif""style=""height:400px;""></stim_listA>",,html-keyboard-response,51,378923,0.0-13.0-1.5,86869,List1A,white,woman,,,,null,,,,
null,are dancing with each other,,html-keyboard-response,52,380925,0.0-13.0-2.5,86869,List1A,white,woman,,,,null,,,,
20263,,,survey-text,53,401189,0.0-13.0-3.5,86869,List1A,white,woman,,,,,"{""Q0"":""dave and ruth are dancing together""}","<img src=""stim_listA/dance4.gif""style=""height:400px;""></stim_listA>",are dancing with each other,
null,"<div style=""font-size:60px;"">+</div>",,html-keyboard-response,54,401694,0.0-13.0-0.6,86869,List1A,white,woman,,,,null,,,,
null,"<img src=""stim_listA/flirt8.gif""style=""height:400px;""></stim_listA>",,html-keyboard-response,55,403697,0.0-13.0-1.6,86869,List1A,white,woman,,,,null,,,,
null,are flirting with each other,,html-keyboard-response,56,405700,0.0-13.0-2.6,86869,List1A,white,woman,,,,null,,,,
14488,,,survey-text,57,420189,0.0-13.0-3.6,86869,List1A,white,woman,,,,,"{""Q0"":""kate and jane are flirting with each other""}","<img src=""stim_listA/flirt8.gif""style=""height:400px;""></stim_listA>",are flirting with each other,
null,"<div style=""font-size:60px;"">+</div>",,html-keyboard-response,58,420692,0.0-13.0-0.7,86869,List1A,white,woman,,,,null,,,,
null,"<img src=""stim_listA/kiss2.gif""style=""height:400px;""></stim_listA>",,html-keyboard-response,59,422694,0.0-13.0-1.7,86869,List1A,white,woman,,,,null,,,,
null,are kissing each other,,html-keyboard-response,60,424697,0.0-13.0-2.7,86869,List1A,white,woman,,,,null,,,,
10062,,,survey-text,61,434760,0.0-13.0-3.7,86869,List1A,white,woman,,,,,"{""Q0"":""mike and kate are kissing each other""}","<img src=""stim_listA/kiss2.gif""style=""height:400px;""></stim_listA>",are kissing each other,
null,"<div style=""font-size:60px;"">+</div>",,html-keyboard-response,62,435263,0.0-13.0-0.8,86869,List1A,white,woman,,,,null,,,,
null,"<img src=""stim_listA/flirt1.gif""style=""height:400px;""></stim_listA>",,html-keyboard-response,63,437266,0.0-13.0-1.8,86869,List1A,white,woman,,,,null,,,,
null,is flirting with,,html-keyboard-response,64,439268,0.0-13.0-2.8,86869,List1A,white,woman,,,,null,,,,
7301,,,survey-text,65,446570,0.0-13.0-3.8,86869,List1A,white,woman,,,,,"{""Q0"":""kate is flirting with fred""}","<img src=""stim_listA/flirt1.gif""style=""height:400px;""></stim_listA>",is flirting with,
null,"<div style=""font-size:60px;"">+</div>",,html-keyboard-response,66,447073,0.0-13.0-0.9,86869,List1A,white,woman,,,,null,,,,
null,"<img src=""stim_listA/kiss7.gif""style=""height:400px;""></stim_listA>",,html-keyboard-response,67,449076,0.0-13.0-1.9,86869,List1A,white,woman,,,,null,,,,
null,is kissing,,html-keyboard-response,68,451079,0.0-13.0-2.9,86869,List1A,white,woman,,,,null,,,,
11120,,,survey-text,69,462202,0.0-13.0-3.9,86869,List1A,white,woman,,,,,"{""Q0"":""beth is kissing ruth""}","<img src=""stim_listA/kiss7.gif""style=""height:400px;""></stim_listA>",is kissing,
null,"<div style=""font-size:60px;"">+</div>",,html-keyboard-response,70,462704,0.0-13.0-0.10,86869,List1A,white,woman,,,,null,,,,
null,"<img src=""stim_listA/fight5.gif""style=""height:400px;""></stim_listA>",,html-keyboard-response,71,464707,0.0-13.0-1.10,86869,List1A,white,woman,,,,null,,,,
null,is fighting,,html-keyboard-response,72,466710,0.0-13.0-2.10,86869,List1A,white,woman,,,,null,,,,
5661,,,survey-text,73,472374,0.0-13.0-3.10,86869,List1A,white,woman,,,,,"{""Q0"":""mike is fighting dave""}","<img src=""stim_listA/fight5.gif""style=""height:400px;""></stim_listA>",is fighting,
null,"<div style=""font-size:60px;"">+</div>",,html-keyboard-response,74,472877,0.0-13.0-0.11,86869,List1A,white,woman,,,,null,,,,
null,"<img src=""stim_listA/flirt3.gif""style=""height:400px;""></stim_listA>",,html-keyboard-response,75,474879,0.0-13.0-1.11,86869,List1A,white,woman,,,,null,,,,
null,is flirting with,,html-keyboard-response,76,476882,0.0-13.0-2.11,86869,List1A,white,woman,,,,null,,,,
8640,,,survey-text,77,485523,0.0-13.0-3.11,86869,List1A,white,woman,,,,,"{""Q0"":""luke is flirting with jane""}","<img src=""stim_listA/flirt3.gif""style=""height:400px;""></stim_listA>",is flirting with,
null,"<div style=""font-size:60px;"">+</div>",,html-keyboard-response,78,486026,0.0-13.0-0.12,86869,List1A,white,woman,,,,null,,,,
null,"<img src=""stim_listA/argue7.gif""style=""height:400px;""></stim_listA>",,html-keyboard-response,79,488029,0.0-13.0-1.12,86869,List1A,white,woman,,,,null,,,,
null,is arguing with,,html-keyboard-response,80,490032,0.0-13.0-2.12,86869,List1A,white,woman,,,,null,,,,
8790,,,survey-text,81,498825,0.0-13.0-3.12,86869,List1A,white,woman,,,,,"{""Q0"":""kate is arguing with jane""}","<img src=""stim_listA/argue7.gif""style=""height:400px;""></stim_listA>",is arguing with,
null,"<div style=""font-size:60px;"">+</div>",,html-keyboard-response,82,499328,0.0-13.0-0.13,86869,List1A,white,woman,,,,null,,,,
null,"<img src=""stim_listA/shout2.gif""style=""height:400px;""></stim_listA>",,html-keyboard-response,83,501330,0.0-13.0-1.13,86869,List1A,white,woman,,,,null,,,,
null,are shouting at each other,,html-keyboard-response,84,503332,0.0-13.0-2.13,86869,List1A,white,woman,,,,null,,,,
8990,,,survey-text,85,512323,0.0-13.0-3.13,86869,List1A,white,woman,,,,,"{""Q0"":""kate and mike are shouting at each other""}","<img src=""stim_listA/shout2.gif""style=""height:400px;""></stim_listA>",are shouting at each other,
null,"<div style=""font-size:60px;"">+</div>",,html-keyboard-response,86,512825,0.0-13.0-0.14,86869,List1A,white,woman,,,,null,,,,
null,"<img src=""stim_listA/kiss3.gif""style=""height:400px;""></stim_listA>",,html-keyboard-response,87,514828,0.0-13.0-1.14,86869,List1A,white,woman,,,,null,,,,
null,is kissing,,html-keyboard-response,88,516831,0.0-13.0-2.14,86869,List1A,white,woman,,,,null,,,,
14259,,,survey-text,89,531091,0.0-13.0-3.14,86869,List1A,white,woman,,,,,"{""Q0"":""beth and mike are kissing each other""}","<img src=""stim_listA/kiss3.gif""style=""height:400px;""></stim_listA>",is kissing,
null,"<div style=""font-size:60px;"">+</div>",,html-keyboard-response,90,531594,0.0-13.0-0.15,86869,List1A,white,woman,,,,null,,,,
null,"<img src=""stim_listA/dance5.gif""style=""height:400px;""></stim_listA>",,html-keyboard-response,91,533597,0.0-13.0-1.15,86869,List1A,white,woman,,,,null,,,,
null,is dancing with,,html-keyboard-response,92,535599,0.0-13.0-2.15,86869,List1A,white,woman,,,,null,,,,
9889,,,survey-text,93,545491,0.0-13.0-3.15,86869,List1A,white,woman,,,,,"{""Q0"":""dave is dancing with fred""}","<img src=""stim_listA/dance5.gif""style=""height:400px;""></stim_listA>",is dancing with,
null,"<div style=""font-size:60px;"">+</div>",,html-keyboard-response,94,545994,0.0-13.0-0.16,86869,List1A,white,woman,,,,null,,,,
null,"<img src=""stim_listA/fight8.gif""style=""height:400px;""></stim_listA>",,html-keyboard-response,95,547997,0.0-13.0-1.16,86869,List1A,white,woman,,,,null,,,,
null,are fighting each other,,html-keyboard-response,96,550000,0.0-13.0-2.16,86869,List1A,white,woman,,,,null,,,,
11749,,,survey-text,97,561750,0.0-13.0-3.16,86869,List1A,white,woman,,,,,"{""Q0"":""jane and fred are fighting each other""}","<img src=""stim_listA/fight8.gif""style=""height:400px;""></stim_listA>",are fighting each other,
null,"<div style=""font-size:60px;"">+</div>",,html-keyboard-response,98,562252,0.0-13.0-0.17,86869,List1A,white,woman,,,,null,,,,
null,"<img src=""stim_listA/talk5.gif""style=""height:400px;""></stim_listA>",,html-keyboard-response,99,564255,0.0-13.0-1.17,86869,List1A,white,woman,,,,null,,,,
null,is talking to,,html-keyboard-response,100,566258,0.0-13.0-2.17,86869,List1A,white,woman,,,,null,,,,
8778,,,survey-text,101,575036,0.0-13.0-3.17,86869,List1A,white,woman,,,,,"{""Q0"":""fred is talking to dave""}","<img src=""stim_listA/talk5.gif""style=""height:400px;""></stim_listA>",is talking to,
null,"<div style=""font-size:60px;"">+</div>",,html-keyboard-response,102,575539,0.0-13.0-0.18,86869,List1A,white,woman,,,,null,,,,
null,"<img src=""stim_listA/touch1.gif""style=""height:400px;""></stim_listA>",,html-keyboard-response,103,577542,0.0-13.0-1.18,86869,List1A,white,woman,,,,null,,,,
null,is touching,,html-keyboard-response,104,579544,0.0-13.0-2.18,86869,List1A,white,woman,,,,null,,,,
8432,,,survey-text,105,587977,0.0-13.0-3.18,86869,List1A,white,woman,,,,,"{""Q0"":""mike is touching kate""}","<img src=""stim_listA/touch1.gif""style=""height:400px;""></stim_listA>",is touching,
null,"<div style=""font-size:60px;"">+</div>",,html-keyboard-response,106,588480,0.0-13.0-0.19,86869,List1A,white,woman,,,,null,,,,
null,"<img src=""stim_listA/marry5.gif""style=""height:400px;""></stim_listA>",,html-keyboard-response,107,590483,0.0-13.0-1.19,86869,List1A,white,woman,,,,null,,,,
null,is marrying,,html-keyboard-response,108,592486,0.0-13.0-2.19,86869,List1A,white,woman,,,,null,,,,
9289,,,survey-text,109,601777,0.0-13.0-3.19,86869,List1A,white,woman,,,,,"{""Q0"":""luke is marrying mike""}","<img src=""stim_listA/marry5.gif""style=""height:400px;""></stim_listA>",is marrying,
17004,"<img src='img/portrait_matrix_list1.jpg' style='width:900px;height:500px;''></img><p>If you have memorised all the portraits and names and are ready to start, press Continue.</p><p><strong>Please note: Your memory of these faces will be tested 4 times during this experiment.</strong></p>",0,html-button-response,110,618783,0.0-14.0-0.0,86869,List1A,white,woman,,,,,,,,
2683,"<img src=""portrait/BM2.jpg""style=""height:400px;""></img>",5,html-button-response,111,622470,0.0-14.0-1.0,86869,List1A,white,woman,,TRUE,5,,,,,
null,CORRECT,,html-keyboard-response,112,623972,0.0-14.0-2.0-0.0,86869,List1A,white,woman,,,,null,,,,
2920,"<img src=""portrait/BM1.jpg""style=""height:400px;""></img>",4,html-button-response,113,626893,0.0-14.0-4.0,86869,List1A,white,woman,,TRUE,4,,,,,
null,CORRECT,,html-keyboard-response,114,628397,0.0-14.0-5.0-0.0,86869,List1A,white,woman,,,,null,,,,
1819,"<img src=""portrait/WW2.jpg""style=""height:400px;""></img>",3,html-button-response,115,630217,0.0-14.0-7.0,86869,List1A,white,woman,,TRUE,3,,,,,
null,CORRECT,,html-keyboard-response,116,631720,0.0-14.0-8.0-0.0,86869,List1A,white,woman,,,,null,,,,
3031,"<img src=""portrait/WM1.jpg""style=""height:400px;""></img>",6,html-button-response,117,634753,0.0-14.0-10.0,86869,List1A,white,woman,,TRUE,6,,,,,
null,CORRECT,,html-keyboard-response,118,636257,0.0-14.0-11.0-0.0,86869,List1A,white,woman,,,,null,,,,
2093,"<img src=""portrait/WW1.jpg""style=""height:400px;""></img>",1,html-button-response,119,638351,0.0-14.0-13.0,86869,List1A,white,woman,,TRUE,1,,,,,
null,CORRECT,,html-keyboard-response,120,639855,0.0-14.0-14.0-0.0,86869,List1A,white,woman,,,,null,,,,
1630,"<img src=""portrait/WM2.jpg""style=""height:400px;""></img>",7,html-button-response,121,641486,0.0-14.0-16.0,86869,List1A,white,woman,,TRUE,7,,,,,
null,CORRECT,,html-keyboard-response,122,642990,0.0-14.0-17.0-0.0,86869,List1A,white,woman,,,,null,,,,
2811,"<img src=""portrait/BW2.jpg""style=""height:400px;""></img>",2,html-button-response,123,645803,0.0-14.0-19.0,86869,List1A,white,woman,,TRUE,2,,,,,
null,CORRECT,,html-keyboard-response,124,647306,0.0-14.0-20.0-0.0,86869,List1A,white,woman,,,,null,,,,
4516,"<img src=""portrait/BW1.jpg""style=""height:400px;""></img>",0,html-button-response,125,651824,0.0-14.0-22.0,86869,List1A,white,woman,,TRUE,0,,,,,
null,CORRECT,,html-keyboard-response,126,653327,0.0-14.0-23.0-0.0,86869,List1A,white,woman,,,,null,,,,
1386,<p>You got 8 out of 8 right first time. Press Continue.</p>,0,html-button-response,127,654714,0.0-14.0-25.0,86869,List1A,white,woman,,,,,,,,
null,"<div style=""font-size:60px;"">+</div>",,html-keyboard-response,128,656218,0.0-15.0-0.0,86869,List1A,white,woman,,,,null,,,,
null,"<img src=""stim_listA/touch5.gif""style=""height:400px;""></stim_listA>",,html-keyboard-response,129,658221,0.0-15.0-1.0,86869,List1A,white,woman,,,,null,,,,
null,is touching,,html-keyboard-response,130,660223,0.0-15.0-2.0,86869,List1A,white,woman,,,,null,,,,
5804,,,survey-text,131,666028,0.0-15.0-3.0,86869,List1A,white,woman,,,,,"{""Q0"":""mike is touching dave""}","<img src=""stim_listA/touch5.gif""style=""height:400px;""></stim_listA>",is touching,
null,"<div style=""font-size:60px;"">+</div>",,html-keyboard-response,132,666531,0.0-15.0-0.1,86869,List1A,white,woman,,,,null,,,,
null,"<img src=""stim_listA/talk6.gif""style=""height:400px;""></stim_listA>",,html-keyboard-response,133,668534,0.0-15.0-1.1,86869,List1A,white,woman,,,,null,,,,
null,are talking to each other,,html-keyboard-response,134,670537,0.0-15.0-2.1,86869,List1A,white,woman,,,,null,,,,
10066,,,survey-text,135,680604,0.0-15.0-3.1,86869,List1A,white,woman,,,,,"{""Q0"":""mike and luke are talking to each other""}","<img src=""stim_listA/talk6.gif""style=""height:400px;""></stim_listA>",are talking to each other,
null,"<div style=""font-size:60px;"">+</div>",,html-keyboard-response,136,681107,0.0-15.0-0.2,86869,List1A,white,woman,,,,null,,,,
null,"<img src=""stim_listA/argue4.gif""style=""height:400px;""></stim_listA>",,html-keyboard-response,137,683110,0.0-15.0-1.2,86869,List1A,white,woman,,,,null,,,,
null,are arguing with each other,,html-keyboard-response,138,685112,0.0-15.0-2.2,86869,List1A,white,woman,,,,null,,,,
13006,,,survey-text,139,698122,0.0-15.0-3.2,86869,List1A,white,woman,,,,,"{""Q0"":""jane and mike are arguing with each other""}","<img src=""stim_listA/argue4.gif""style=""height:400px;""></stim_listA>",are arguing with each other,
null,"<div style=""font-size:60px;"">+</div>",,html-keyboard-response,140,698625,0.0-15.0-0.3,86869,List1A,white,woman,,,,null,,,,
null,"<img src=""stim_listA/shout1.gif""style=""height:400px;""></stim_listA>",,html-keyboard-response,141,700628,0.0-15.0-1.3,86869,List1A,white,woman,,,,null,,,,
null,is shouting at,,html-keyboard-response,142,702631,0.0-15.0-2.3,86869,List1A,white,woman,,,,null,,,,
7169,,,survey-text,143,709800,0.0-15.0-3.3,86869,List1A,white,woman,,,,,"{""Q0"":""fred is shouting at beth""}","<img src=""stim_listA/shout1.gif""style=""height:400px;""></stim_listA>",is shouting at,
null,"<div style=""font-size:60px;"">+</div>",,html-keyboard-response,144,710303,0.0-15.0-0.4,86869,List1A,white,woman,,,,null,,,,
null,"<img src=""stim_listA/marry4.gif""style=""height:400px;""></stim_listA>",,html-keyboard-response,145,712306,0.0-15.0-1.4,86869,List1A,white,woman,,,,null,,,,
null,are marrying each other,,html-keyboard-response,146,714309,0.0-15.0-2.4,86869,List1A,white,woman,,,,null,,,,
10096,,,survey-text,147,724408,0.0-15.0-3.4,86869,List1A,white,woman,,,,,"{""Q0"":""mike and jane are marrying each other""}","<img src=""stim_listA/marry4.gif""style=""height:400px;""></stim_listA>",are marrying each other,
null,"<div style=""font-size:60px;"">+</div>",,html-keyboard-response,148,724911,0.0-15.0-0.5,86869,List1A,white,woman,,,,null,,,,
null,"<img src=""stim_listA/shout6.gif""style=""height:400px;""></stim_listA>",,html-keyboard-response,149,726914,0.0-15.0-1.5,86869,List1A,white,woman,,,,null,,,,
null,are shouting at each other,,html-keyboard-response,150,728917,0.0-15.0-2.5,86869,List1A,white,woman,,,,null,,,,
8315,,,survey-text,151,737236,0.0-15.0-3.5,86869,List1A,white,woman,,,,,"{""Q0"":""mike and dave are shouting at each other""}","<img src=""stim_listA/shout6.gif""style=""height:400px;""></stim_listA>",are shouting at each other,
null,"<div style=""font-size:60px;"">+</div>",,html-keyboard-response,152,737738,0.0-15.0-0.6,86869,List1A,white,woman,,,,null,,,,
null,"<img src=""stim_listA/fight1.gif""style=""height:400px;""></stim_listA>",,html-keyboard-response,153,739741,0.0-15.0-1.6,86869,List1A,white,woman,,,,null,,,,
null,is fighting,,html-keyboard-response,154,741744,0.0-15.0-2.6,86869,List1A,white,woman,,,,null,,,,
7283,,,survey-text,155,749031,0.0-15.0-3.6,86869,List1A,white,woman,,,,,"{""Q0"":""mike is fighting kate""}","<img src=""stim_listA/fight1.gif""style=""height:400px;""></stim_listA>",is fighting,
null,"<div style=""font-size:60px;"">+</div>",,html-keyboard-response,156,749533,0.0-15.0-0.7,86869,List1A,white,woman,,,,null,,,,
null,"<img src=""stim_listA/kiss4.gif""style=""height:400px;""></stim_listA>",,html-keyboard-response,157,751536,0.0-15.0-1.7,86869,List1A,white,woman,,,,null,,,,
null,are kissing each other,,html-keyboard-response,158,753539,0.0-15.0-2.7,86869,List1A,white,woman,,,,null,,,,
39369,,,survey-text,159,792911,0.0-15.0-3.7,86869,List1A,white,woman,,,,,"{""Q0"":""dave and kate are kissing""}","<img src=""stim_listA/kiss4.gif""style=""height:400px;""></stim_listA>",are kissing each other,
null,"<div style=""font-size:60px;"">+</div>",,html-keyboard-response,160,793415,0.0-15.0-0.8,86869,List1A,white,woman,,,,null,,,,
null,"<img src=""stim_listA/flirt2.gif""style=""height:400px;""></stim_listA>",,html-keyboard-response,161,795419,0.0-15.0-1.8,86869,List1A,white,woman,,,,null,,,,
null,are flirting with each other,,html-keyboard-response,162,797421,0.0-15.0-2.8,86869,List1A,white,woman,,,,null,,,,
19663,,,survey-text,163,817085,0.0-15.0-3.8,86869,List1A,white,woman,,,,,"{""Q0"":""beth and mike are flirting with each other""}","<img src=""stim_listA/flirt2.gif""style=""height:400px;""></stim_listA>",are flirting with each other,
null,"<div style=""font-size:60px;"">+</div>",,html-keyboard-response,164,817587,0.0-15.0-0.9,86869,List1A,white,woman,,,,null,,,,
null,"<img src=""stim_listA/argue8.gif""style=""height:400px;""></stim_listA>",,html-keyboard-response,165,819590,0.0-15.0-1.9,86869,List1A,white,woman,,,,null,,,,
null,are arguing with each other,,html-keyboard-response,166,821596,0.0-15.0-2.9,86869,List1A,white,woman,,,,null,,,,
11450,,,survey-text,167,833046,0.0-15.0-3.9,86869,List1A,white,woman,,,,,"{""Q0"":""beth and jane are arguing with each other""}","<img src=""stim_listA/argue8.gif""style=""height:400px;""></stim_listA>",are arguing with each other,
null,"<div style=""font-size:60px;"">+</div>",,html-keyboard-response,168,833549,0.0-15.0-0.10,86869,List1A,white,woman,,,,null,,,,
null,"<img src=""stim_listA/touch4.gif""style=""height:400px;""></stim_listA>",,html-keyboard-response,169,835552,0.0-15.0-1.10,86869,List1A,white,woman,,,,null,,,,
null,are touching each other,,html-keyboard-response,170,837555,0.0-15.0-2.10,86869,List1A,white,woman,,,,null,,,,
6679,,,survey-text,171,844235,0.0-15.0-3.10,86869,List1A,white,woman,,,,,"{""Q0"":""mike and jane are touching each other""}","<img src=""stim_listA/touch4.gif""style=""height:400px;""></stim_listA>",are touching each other,
null,"<div style=""font-size:60px;"">+</div>",,html-keyboard-response,172,844738,0.0-15.0-0.11,86869,List1A,white,woman,,,,null,,,,
null,"<img src=""stim_listA/talk3.gif""style=""height:400px;""></stim_listA>",,html-keyboard-response,173,846741,0.0-15.0-1.11,86869,List1A,white,woman,,,,null,,,,
null,is talking to,,html-keyboard-response,174,848743,0.0-15.0-2.11,86869,List1A,white,woman,,,,null,,,,
11856,,,survey-text,175,860600,0.0-15.0-3.11,86869,List1A,white,woman,,,,,"{""Q0"":""luke is talking to jane""}","<img src=""stim_listA/talk3.gif""style=""height:400px;""></stim_listA>",is talking to,
null,"<div style=""font-size:60px;"">+</div>",,html-keyboard-response,176,861104,0.0-15.0-0.12,86869,List1A,white,woman,,,,null,,,,
null,"<img src=""stim_listA/marry3.gif""style=""height:400px;""></stim_listA>",,html-keyboard-response,177,863106,0.0-15.0-1.12,86869,List1A,white,woman,,,,null,,,,
null,is marrying,,html-keyboard-response,178,865109,0.0-15.0-2.12,86869,List1A,white,woman,,,,null,,,,
8673,,,survey-text,179,873783,0.0-15.0-3.12,86869,List1A,white,woman,,,,,"{""Q0"":""dave is marrying ruth""}","<img src=""stim_listA/marry3.gif""style=""height:400px;""></stim_listA>",is marrying,
null,"<div style=""font-size:60px;"">+</div>",,html-keyboard-response,180,874286,0.0-15.0-0.13,86869,List1A,white,woman,,,,null,,,,
null,"<img src=""stim_listA/marry8.gif""style=""height:400px;""></stim_listA>",,html-keyboard-response,181,876289,0.0-15.0-1.13,86869,List1A,white,woman,,,,null,,,,
null,are marrying each other,,html-keyboard-response,182,878292,0.0-15.0-2.13,86869,List1A,white,woman,,,,null,,,,
11679,,,survey-text,183,889972,0.0-15.0-3.13,86869,List1A,white,woman,,,,,"{""Q0"":""beth and jane are marrying each other""}","<img src=""stim_listA/marry8.gif""style=""height:400px;""></stim_listA>",are marrying each other,
null,"<div style=""font-size:60px;"">+</div>",,html-keyboard-response,184,890475,0.0-15.0-0.14,86869,List1A,white,woman,,,,null,,,,
null,"<img src=""stim_listA/shout3.gif""style=""height:400px;""></stim_listA>",,html-keyboard-response,185,892478,0.0-15.0-1.14,86869,List1A,white,woman,,,,null,,,,
null,is shouting at,,html-keyboard-response,186,894481,0.0-15.0-2.14,86869,List1A,white,woman,,,,null,,,,
7854,,,survey-text,187,902338,0.0-15.0-3.14,86869,List1A,white,woman,,,,,"{""Q0"":""luke is shouting at ruth""}","<img src=""stim_listA/shout3.gif""style=""height:400px;""></stim_listA>",is shouting at,
null,"<div style=""font-size:60px;"">+</div>",,html-keyboard-response,188,902841,0.0-15.0-0.15,86869,List1A,white,woman,,,,null,,,,
null,"<img src=""stim_listA/kiss6.gif""style=""height:400px;""></stim_listA>",,html-keyboard-response,189,904844,0.0-15.0-1.15,86869,List1A,white,woman,,,,null,,,,
null,are kissing each other,,html-keyboard-response,190,906847,0.0-15.0-2.15,86869,List1A,white,woman,,,,null,,,,
6581,,,survey-text,191,913429,0.0-15.0-3.15,86869,List1A,white,woman,,,,,"{""Q0"":""mike and dave are kissing each other""}","<img src=""stim_listA/kiss6.gif""style=""height:400px;""></stim_listA>",are kissing each other,
null,"<div style=""font-size:60px;"">+</div>",,html-keyboard-response,192,913931,0.0-15.0-0.16,86869,List1A,white,woman,,,,null,,,,
null,"<img src=""stim_listA/marry6.gif""style=""height:400px;""></stim_listA>",,html-keyboard-response,193,915933,0.0-15.0-1.16,86869,List1A,white,woman,,,,null,,,,
null,are marrying each other,,html-keyboard-response,194,917936,0.0-15.0-2.16,86869,List1A,white,woman,,,,null,,,,
10297,,,survey-text,195,928234,0.0-15.0-3.16,86869,List1A,white,woman,,,,,"{""Q0"":""fred and mike are marrying each other""}","<img src=""stim_listA/marry6.gif""style=""height:400px;""></stim_listA>",are marrying each other,
null,"<div style=""font-size:60px;"">+</div>",,html-keyboard-response,196,928737,0.0-15.0-0.17,86869,List1A,white,woman,,,,null,,,,
null,"<img src=""stim_listA/argue3.gif""style=""height:400px;""></stim_listA>",,html-keyboard-response,197,930739,0.0-15.0-1.17,86869,List1A,white,woman,,,,null,,,,
null,is arguing with,,html-keyboard-response,198,932745,0.0-15.0-2.17,86869,List1A,white,woman,,,,null,,,,
11875,,,survey-text,199,944621,0.0-15.0-3.17,86869,List1A,white,woman,,,,,"{""Q0"":""ruth is arguing with dave""}","<img src=""stim_listA/argue3.gif""style=""height:400px;""></stim_listA>",is arguing with,
null,"<div style=""font-size:60px;"">+</div>",,html-keyboard-response,200,945123,0.0-15.0-0.18,86869,List1A,white,woman,,,,null,,,,
null,"<img src=""stim_listA/kiss8.gif""style=""height:400px;""></stim_listA>",,html-keyboard-response,201,947126,0.0-15.0-1.18,86869,List1A,white,woman,,,,null,,,,
null,are kissing each other,,html-keyboard-response,202,949128,0.0-15.0-2.18,86869,List1A,white,woman,,,,null,,,,
13754,,,survey-text,203,962884,0.0-15.0-3.18,86869,List1A,white,woman,,,,,"{""Q0"":""kate and jane are kissing each other""}","<img src=""stim_listA/kiss8.gif""style=""height:400px;""></stim_listA>",are kissing each other,
null,"<div style=""font-size:60px;"">+</div>",,html-keyboard-response,204,963387,0.0-15.0-0.19,86869,List1A,white,woman,,,,null,,,,
null,"<img src=""stim_listA/argue5.gif""style=""height:400px;""></stim_listA>",,html-keyboard-response,205,965390,0.0-15.0-1.19,86869,List1A,white,woman,,,,null,,,,
null,is arguing with,,html-keyboard-response,206,967395,0.0-15.0-2.19,86869,List1A,white,woman,,,,null,,,,
11675,,,survey-text,207,979071,0.0-15.0-3.19,86869,List1A,white,woman,,,,,"{""Q0"":""mike is arguing with luke""}","<img src=""stim_listA/argue5.gif""style=""height:400px;""></stim_listA>",is arguing with,
2033,"<img src='img/portrait_matrix_list1.jpg' style='width:900px;height:500px;''></img><p>If you have memorised all the portraits and names and are ready to start, press Continue.</p><p><strong>Please note: Your memory of these faces will be tested 4 times during this experiment.</strong></p>",0,html-button-response,208,981105,0.0-16.0-0.0,86869,List1A,white,woman,,,,,,,,
4803,"<img src=""portrait/BW1.jpg""style=""height:400px;""></img>",0,html-button-response,209,986910,0.0-16.0-1.0,86869,List1A,white,woman,,TRUE,0,,,,,
null,CORRECT,,html-keyboard-response,210,988414,0.0-16.0-2.0-0.0,86869,List1A,white,woman,,,,null,,,,
2695,"<img src=""portrait/BM1.jpg""style=""height:400px;""></img>",4,html-button-response,211,991110,0.0-16.0-4.0,86869,List1A,white,woman,,TRUE,4,,,,,
null,CORRECT,,html-keyboard-response,212,992615,0.0-16.0-5.0-0.0,86869,List1A,white,woman,,,,null,,,,
1647,"<img src=""portrait/WM2.jpg""style=""height:400px;""></img>",7,html-button-response,213,994264,0.0-16.0-7.0,86869,List1A,white,woman,,TRUE,7,,,,,
null,CORRECT,,html-keyboard-response,214,995767,0.0-16.0-8.0-0.0,86869,List1A,white,woman,,,,null,,,,
1550,"<img src=""portrait/BM2.jpg""style=""height:400px;""></img>",5,html-button-response,215,997321,0.0-16.0-10.0,86869,List1A,white,woman,,TRUE,5,,,,,
null,CORRECT,,html-keyboard-response,216,998825,0.0-16.0-11.0-0.0,86869,List1A,white,woman,,,,null,,,,
3284,"<img src=""portrait/WM1.jpg""style=""height:400px;""></img>",6,html-button-response,217,1002111,0.0-16.0-13.0,86869,List1A,white,woman,,TRUE,6,,,,,
null,CORRECT,,html-keyboard-response,218,1003615,0.0-16.0-14.0-0.0,86869,List1A,white,woman,,,,null,,,,
1931,"<img src=""portrait/WW1.jpg""style=""height:400px;""></img>",1,html-button-response,219,1005548,0.0-16.0-16.0,86869,List1A,white,woman,,TRUE,1,,,,,
null,CORRECT,,html-keyboard-response,220,1007051,0.0-16.0-17.0-0.0,86869,List1A,white,woman,,,,null,,,,
1804,"<img src=""portrait/WW2.jpg""style=""height:400px;""></img>",3,html-button-response,221,1008857,0.0-16.0-19.0,86869,List1A,white,woman,,TRUE,3,,,,,
null,CORRECT,,html-keyboard-response,222,1010360,0.0-16.0-20.0-0.0,86869,List1A,white,woman,,,,null,,,,
2096,"<img src=""portrait/BW2.jpg""style=""height:400px;""></img>",2,html-button-response,223,1012457,0.0-16.0-22.0,86869,List1A,white,woman,,TRUE,2,,,,,
null,CORRECT,,html-keyboard-response,224,1013961,0.0-16.0-23.0-0.0,86869,List1A,white,woman,,,,null,,,,
1317,<p>You got 8 out of 8 right first time. Press Continue.</p>,0,html-button-response,225,1015279,0.0-16.0-25.0,86869,List1A,white,woman,,,,,,,,
null,"<div style=""font-size:60px;"">+</div>",,html-keyboard-response,226,1016783,0.0-17.0-0.0,86869,List1A,white,woman,,,,null,,,,
null,"<img src=""stim_listA/dance2.gif""style=""height:400px;""></stim_listA>",,html-keyboard-response,227,1018787,0.0-17.0-1.0,86869,List1A,white,woman,,,,null,,,,
null,are dancing with each other,,html-keyboard-response,228,1020789,0.0-17.0-2.0,86869,List1A,white,woman,,,,null,,,,
12244,,,survey-text,229,1033037,0.0-17.0-3.0,86869,List1A,white,woman,,,,,"{""Q0"":""beth and mike are dancing with each other""}","<img src=""stim_listA/dance2.gif""style=""height:400px;""></stim_listA>",are dancing with each other,
null,"<div style=""font-size:60px;"">+</div>",,html-keyboard-response,230,1033540,0.0-17.0-0.1,86869,List1A,white,woman,,,,null,,,,
null,"<img src=""stim_listA/kiss1.gif""style=""height:400px;""></stim_listA>",,html-keyboard-response,231,1035543,0.0-17.0-1.1,86869,List1A,white,woman,,,,null,,,,
null,is kissing,,html-keyboard-response,232,1037545,0.0-17.0-2.1,86869,List1A,white,woman,,,,null,,,,
5627,,,survey-text,233,1043173,0.0-17.0-3.1,86869,List1A,white,woman,,,,,"{""Q0"":""beth is kissing fred""}","<img src=""stim_listA/kiss1.gif""style=""height:400px;""></stim_listA>",is kissing,
null,"<div style=""font-size:60px;"">+</div>",,html-keyboard-response,234,1043676,0.0-17.0-0.2,86869,List1A,white,woman,,,,null,,,,
null,"<img src=""stim_listA/fight4.gif""style=""height:400px;""></stim_listA>",,html-keyboard-response,235,1045678,0.0-17.0-1.2,86869,List1A,white,woman,,,,null,,,,
null,are fighting each other,,html-keyboard-response,236,1047681,0.0-17.0-2.2,86869,List1A,white,woman,,,,null,,,,
7761,,,survey-text,237,1055446,0.0-17.0-3.2,86869,List1A,white,woman,,,,,"{""Q0"":""ruth and luke are fighting each other""}","<img src=""stim_listA/fight4.gif""style=""height:400px;""></stim_listA>",are fighting each other,
null,"<div style=""font-size:60px;"">+</div>",,html-keyboard-response,238,1055949,0.0-17.0-0.3,86869,List1A,white,woman,,,,null,,,,
null,"<img src=""stim_listA/touch3.gif""style=""height:400px;""></stim_listA>",,html-keyboard-response,239,1057952,0.0-17.0-1.3,86869,List1A,white,woman,,,,null,,,,
null,is touching,,html-keyboard-response,240,1059955,0.0-17.0-2.3,86869,List1A,white,woman,,,,null,,,,
9503,,,survey-text,241,1069459,0.0-17.0-3.3,86869,List1A,white,woman,,,,,"{""Q0"":""dave is touching jane""}","<img src=""stim_listA/touch3.gif""style=""height:400px;""></stim_listA>",is touching,
null,"<div style=""font-size:60px;"">+</div>",,html-keyboard-response,242,1069962,0.0-17.0-0.4,86869,List1A,white,woman,,,,null,,,,
null,"<img src=""stim_listA/shout8.gif""style=""height:400px;""></stim_listA>",,html-keyboard-response,243,1071965,0.0-17.0-1.4,86869,List1A,white,woman,,,,null,,,,
null,are shouting at each other,,html-keyboard-response,244,1073968,0.0-17.0-2.4,86869,List1A,white,woman,,,,null,,,,
14941,,,survey-text,245,1088911,0.0-17.0-3.4,86869,List1A,white,woman,,,,,"{""Q0"":""jane and ruth are shouting at each other""}","<img src=""stim_listA/shout8.gif""style=""height:400px;""></stim_listA>",are shouting at each other,
null,"<div style=""font-size:60px;"">+</div>",,html-keyboard-response,246,1089414,0.0-17.0-0.5,86869,List1A,white,woman,,,,null,,,,
null,"<img src=""stim_listA/flirt5.gif""style=""height:400px;""></stim_listA>",,html-keyboard-response,247,1091417,0.0-17.0-1.5,86869,List1A,white,woman,,,,null,,,,
null,is flirting with,,html-keyboard-response,248,1093419,0.0-17.0-2.5,86869,List1A,white,woman,,,,null,,,,
7981,,,survey-text,249,1101402,0.0-17.0-3.5,86869,List1A,white,woman,,,,,"{""Q0"":""fred and mike are flirting with each other""}","<img src=""stim_listA/flirt5.gif""style=""height:400px;""></stim_listA>",is flirting with,
null,"<div style=""font-size:60px;"">+</div>",,html-keyboard-response,250,1101904,0.0-17.0-0.6,86869,List1A,white,woman,,,,null,,,,
null,"<img src=""stim_listA/argue1.gif""style=""height:400px;""></stim_listA>",,html-keyboard-response,251,1103907,0.0-17.0-1.6,86869,List1A,white,woman,,,,null,,,,
null,is arguing with,,html-keyboard-response,252,1105910,0.0-17.0-2.6,86869,List1A,white,woman,,,,null,,,,
6806,,,survey-text,253,1112721,0.0-17.0-3.6,86869,List1A,white,woman,,,,,"{""Q0"":""beth is arguing with mike""}","<img src=""stim_listA/argue1.gif""style=""height:400px;""></stim_listA>",is arguing with,
null,"<div style=""font-size:60px;"">+</div>",,html-keyboard-response,254,1113223,0.0-17.0-0.7,86869,List1A,white,woman,,,,null,,,,
null,"<img src=""stim_listA/talk7.gif""style=""height:400px;""></stim_listA>",,html-keyboard-response,255,1115226,0.0-17.0-1.7,86869,List1A,white,woman,,,,null,,,,
null,is talking to,,html-keyboard-response,256,1117229,0.0-17.0-2.7,86869,List1A,white,woman,,,,null,,,,
6928,,,survey-text,257,1124157,0.0-17.0-3.7,86869,List1A,white,woman,,,,,"{""Q0"":""beth is talking to jane""}","<img src=""stim_listA/talk7.gif""style=""height:400px;""></stim_listA>",is talking to,
null,"<div style=""font-size:60px;"">+</div>",,html-keyboard-response,258,1124660,0.0-17.0-0.8,86869,List1A,white,woman,,,,null,,,,
null,"<img src=""stim_listA/argue6.gif""style=""height:400px;""></stim_listA>",,html-keyboard-response,259,1126666,0.0-17.0-1.8,86869,List1A,white,woman,,,,null,,,,
null,are arguing with each other,,html-keyboard-response,260,1128669,0.0-17.0-2.8,86869,List1A,white,woman,,,,null,,,,
13943,,,survey-text,261,1142613,0.0-17.0-3.8,86869,List1A,white,woman,,,,,"{""Q0"":""fred and dave are arguing with each other""}","<img src=""stim_listA/argue6.gif""style=""height:400px;""></stim_listA>",are arguing with each other,
null,"<div style=""font-size:60px;"">+</div>",,html-keyboard-response,262,1143116,0.0-17.0-0.9,86869,List1A,white,woman,,,,null,,,,
null,"<img src=""stim_listA/play5.gif""style=""height:400px;""></stim_listA>",,html-keyboard-response,263,1145119,0.0-17.0-1.9,86869,List1A,white,woman,,,,null,,,,
null,is playing with,,html-keyboard-response,264,1147121,0.0-17.0-2.9,86869,List1A,white,woman,,,,null,,,,
15577,,,survey-text,265,1162699,0.0-17.0-3.9,86869,List1A,white,woman,,,,,"{""Q0"":""fred is playing with mike""}","<img src=""stim_listA/play5.gif""style=""height:400px;""></stim_listA>",is playing with,
null,"<div style=""font-size:60px;"">+</div>",,html-keyboard-response,266,1163202,0.0-17.0-0.10,86869,List1A,white,woman,,,,null,,,,
null,"<img src=""stim_listA/talk2.gif""style=""height:400px;""></stim_listA>",,html-keyboard-response,267,1165205,0.0-17.0-1.10,86869,List1A,white,woman,,,,null,,,,
null,are talking to each other,,html-keyboard-response,268,1167210,0.0-17.0-2.10,86869,List1A,white,woman,,,,null,,,,
11970,,,survey-text,269,1179182,0.0-17.0-3.10,86869,List1A,white,woman,,,,,"{""Q0"":""beth is talking to mike""}","<img src=""stim_listA/talk2.gif""style=""height:400px;""></stim_listA>",are talking to each other,
null,"<div style=""font-size:60px;"">+</div>",,html-keyboard-response,270,1179684,0.0-17.0-0.11,86869,List1A,white,woman,,,,null,,,,
null,"<img src=""stim_listA/fight3.gif""style=""height:400px;""></stim_listA>",,html-keyboard-response,271,1181687,0.0-17.0-1.11,86869,List1A,white,woman,,,,null,,,,
null,is fighting,,html-keyboard-response,272,1183690,0.0-17.0-2.11,86869,List1A,white,woman,,,,null,,,,
2342,,,survey-text,273,1186033,0.0-17.0-3.11,86869,List1A,white,woman,,,,,"{""Q0"":""""}","<img src=""stim_listA/fight3.gif""style=""height:400px;""></stim_listA>",is fighting,
null,"<div style=""font-size:60px;"">+</div>",,html-keyboard-response,274,1186538,0.0-17.0-0.12,86869,List1A,white,woman,,,,null,,,,
null,"<img src=""stim_listA/touch6.gif""style=""height:400px;""></stim_listA>",,html-keyboard-response,275,1188541,0.0-17.0-1.12,86869,List1A,white,woman,,,,null,,,,
null,are touching each other,,html-keyboard-response,276,1190544,0.0-17.0-2.12,86869,List1A,white,woman,,,,null,,,,
9907,,,survey-text,277,1200452,0.0-17.0-3.12,86869,List1A,white,woman,,,,,"{""Q0"":""fred and luke are touching each other""}","<img src=""stim_listA/touch6.gif""style=""height:400px;""></stim_listA>",are touching each other,
null,"<div style=""font-size:60px;"">+</div>",,html-keyboard-response,278,1200955,0.0-17.0-0.13,86869,List1A,white,woman,,,,null,,,,
null,"<img src=""stim_listA/touch7.gif""style=""height:400px;""></stim_listA>",,html-keyboard-response,279,1202958,0.0-17.0-1.13,86869,List1A,white,woman,,,,null,,,,
null,is touching,,html-keyboard-response,280,1204961,0.0-17.0-2.13,86869,List1A,white,woman,,,,null,,,,
5661,,,survey-text,281,1210622,0.0-17.0-3.13,86869,List1A,white,woman,,,,,"{""Q0"":""jane is touching kate""}","<img src=""stim_listA/touch7.gif""style=""height:400px;""></stim_listA>",is touching,
null,"<div style=""font-size:60px;"">+</div>",,html-keyboard-response,282,1211124,0.0-17.0-0.14,86869,List1A,white,woman,,,,null,,,,
null,"<img src=""stim_listA/flirt6.gif""style=""height:400px;""></stim_listA>",,html-keyboard-response,283,1213127,0.0-17.0-1.14,86869,List1A,white,woman,,,,null,,,,
null,are flirting with each other,,html-keyboard-response,284,1215130,0.0-17.0-2.14,86869,List1A,white,woman,,,,null,,,,
10370,,,survey-text,285,1225502,0.0-17.0-3.14,86869,List1A,white,woman,,,,,"{""Q0"":""mike and luke are flirting with each other""}","<img src=""stim_listA/flirt6.gif""style=""height:400px;""></stim_listA>",are flirting with each other,
null,"<div style=""font-size:60px;"">+</div>",,html-keyboard-response,286,1226003,0.0-17.0-0.15,86869,List1A,white,woman,,,,null,,,,
null,"<img src=""stim_listA/shout7.gif""style=""height:400px;""></stim_listA>",,html-keyboard-response,287,1228006,0.0-17.0-1.15,86869,List1A,white,woman,,,,null,,,,
null,is shouting at,,html-keyboard-response,288,1230009,0.0-17.0-2.15,86869,List1A,white,woman,,,,null,,,,
6094,,,survey-text,289,1236104,0.0-17.0-3.15,86869,List1A,white,woman,,,,,"{""Q0"":""beth is shouting at ruth""}","<img src=""stim_listA/shout7.gif""style=""height:400px;""></stim_listA>",is shouting at,
null,"<div style=""font-size:60px;"">+</div>",,html-keyboard-response,290,1236606,0.0-17.0-0.16,86869,List1A,white,woman,,,,null,,,,
null,"<img src=""stim_listA/play2.gif""style=""height:400px;""></stim_listA>",,html-keyboard-response,291,1238609,0.0-17.0-1.16,86869,List1A,white,woman,,,,null,,,,
null,are playing with each other,,html-keyboard-response,292,1240611,0.0-17.0-2.16,86869,List1A,white,woman,,,,null,,,,
10945,,,survey-text,293,1251558,0.0-17.0-3.16,86869,List1A,white,woman,,,,,"{""Q0"":""beth and fred are playing with each other""}","<img src=""stim_listA/play2.gif""style=""height:400px;""></stim_listA>",are playing with each other,
null,"<div style=""font-size:60px;"">+</div>",,html-keyboard-response,294,1252061,0.0-17.0-0.17,86869,List1A,white,woman,,,,null,,,,
null,"<img src=""stim_listA/play7.gif""style=""height:400px;""></stim_listA>",,html-keyboard-response,295,1254063,0.0-17.0-1.17,86869,List1A,white,woman,,,,null,,,,
null,is playing with,,html-keyboard-response,296,1256066,0.0-17.0-2.17,86869,List1A,white,woman,,,,null,,,,
6217,,,survey-text,297,1262284,0.0-17.0-3.17,86869,List1A,white,woman,,,,,"{""Q0"":""kate is playing with jane""}","<img src=""stim_listA/play7.gif""style=""height:400px;""></stim_listA>",is playing with,
null,"<div style=""font-size:60px;"">+</div>",,html-keyboard-response,298,1262787,0.0-17.0-0.18,86869,List1A,white,woman,,,,null,,,,
null,"<img src=""stim_listA/dance6.gif""style=""height:400px;""></stim_listA>",,html-keyboard-response,299,1264790,0.0-17.0-1.18,86869,List1A,white,woman,,,,null,,,,
null,are dancing with each other,,html-keyboard-response,300,1266793,0.0-17.0-2.18,86869,List1A,white,woman,,,,null,,,,
19266,,,survey-text,301,1286061,0.0-17.0-3.18,86869,List1A,white,woman,,,,,"{""Q0"":""mike and luke are playing with each other""}","<img src=""stim_listA/dance6.gif""style=""height:400px;""></stim_listA>",are dancing with each other,
null,"<div style=""font-size:60px;"">+</div>",,html-keyboard-response,302,1286567,0.0-17.0-0.19,86869,List1A,white,woman,,,,null,,,,
null,"<img src=""stim_listA/play1.gif""style=""height:400px;""></stim_listA>",,html-keyboard-response,303,1288570,0.0-17.0-1.19,86869,List1A,white,woman,,,,null,,,,
null,is playing with,,html-keyboard-response,304,1290573,0.0-17.0-2.19,86869,List1A,white,woman,,,,null,,,,
7084,,,survey-text,305,1297657,0.0-17.0-3.19,86869,List1A,white,woman,,,,,"{""Q0"":""kate is playing with mike""}","<img src=""stim_listA/play1.gif""style=""height:400px;""></stim_listA>",is playing with,
2946,"<img src='img/portrait_matrix_list1.jpg' style='width:900px;height:500px;''></img><p>If you have memorised all the portraits and names and are ready to start, press Continue.</p><p><strong>Please note: Your memory of these faces will be tested 4 times during this experiment.</strong></p>",0,html-button-response,306,1300605,0.0-18.0-0.0,86869,List1A,white,woman,,,,,,,,
2129,"<img src=""portrait/BW1.jpg""style=""height:400px;""></img>",0,html-button-response,307,1303736,0.0-18.0-1.0,86869,List1A,white,woman,,TRUE,0,,,,,
null,CORRECT,,html-keyboard-response,308,1305243,0.0-18.0-2.0-0.0,86869,List1A,white,woman,,,,null,,,,
1786,"<img src=""portrait/WW1.jpg""style=""height:400px;""></img>",1,html-button-response,309,1307031,0.0-18.0-4.0,86869,List1A,white,woman,,TRUE,1,,,,,
null,CORRECT,,html-keyboard-response,310,1308535,0.0-18.0-5.0-0.0,86869,List1A,white,woman,,,,null,,,,
1650,"<img src=""portrait/WM2.jpg""style=""height:400px;""></img>",7,html-button-response,311,1310187,0.0-18.0-7.0,86869,List1A,white,woman,,TRUE,7,,,,,
null,CORRECT,,html-keyboard-response,312,1311691,0.0-18.0-8.0-0.0,86869,List1A,white,woman,,,,null,,,,
4913,"<img src=""portrait/BW2.jpg""style=""height:400px;""></img>",2,html-button-response,313,1316606,0.0-18.0-10.0,86869,List1A,white,woman,,TRUE,2,,,,,
null,CORRECT,,html-keyboard-response,314,1318110,0.0-18.0-11.0-0.0,86869,List1A,white,woman,,,,null,,,,
4525,"<img src=""portrait/WM1.jpg""style=""height:400px;""></img>",6,html-button-response,315,1322636,0.0-18.0-13.0,86869,List1A,white,woman,,TRUE,6,,,,,
null,CORRECT,,html-keyboard-response,316,1324140,0.0-18.0-14.0-0.0,86869,List1A,white,woman,,,,null,,,,
1848,"<img src=""portrait/BM1.jpg""style=""height:400px;""></img>",4,html-button-response,317,1325990,0.0-18.0-16.0,86869,List1A,white,woman,,TRUE,4,,,,,
null,CORRECT,,html-keyboard-response,318,1327496,0.0-18.0-17.0-0.0,86869,List1A,white,woman,,,,null,,,,
2382,"<img src=""portrait/WW2.jpg""style=""height:400px;""></img>",2,html-button-response,319,1329879,0.0-18.0-19.0,86869,List1A,white,woman,,TRUE,3,,,,,
1285,"<img src=""portrait/WW2.jpg""style=""height:400px;""></img>",3,html-button-response,320,1332167,0.0-18.0-21.0-0.0,86869,List1A,white,woman,,FALSE,3,,,,,
null,CORRECT,,html-keyboard-response,321,1333670,0.0-18.0-21.0-1.0-0.0,86869,List1A,white,woman,,,,null,,,,
3108,"<img src=""portrait/BM2.jpg""style=""height:400px;""></img>",5,html-button-response,322,1336779,0.0-18.0-22.0,86869,List1A,white,woman,,TRUE,5,,,,,
null,CORRECT,,html-keyboard-response,323,1338283,0.0-18.0-23.0-0.0,86869,List1A,white,woman,,,,null,,,,
1782,<p>You got 7 out of 8 right first time. Press Continue.</p>,0,html-button-response,324,1340066,0.0-18.0-25.0,86869,List1A,white,woman,,,,,,,,
2643,"As you did not score 100%, the memory game will repeat. Press Continue.",0,html-button-response,325,1343711,0.0-18.0-26.0-0.0,86869,List1A,white,woman,,,,,,,,
1279,"<img src='img/portrait_matrix_list1.jpg' style='width:900px;height:500px;''></img><p>If you have memorised all the portraits and names and are ready to start, press Continue.</p><p><strong>Please note: Your memory of these faces will be tested 4 times during this experiment.</strong></p>",0,html-button-response,326,1345992,0.0-18.1-0.1,86869,List1A,white,woman,,,,,,,,
1502,"<img src=""portrait/BW1.jpg""style=""height:400px;""></img>",0,html-button-response,327,1348497,0.0-18.1-1.1,86869,List1A,white,woman,,TRUE,0,,,,,
null,CORRECT,,html-keyboard-response,328,1350001,0.0-18.1-2.1-0.1,86869,List1A,white,woman,,,,null,,,,
1702,"<img src=""portrait/WW1.jpg""style=""height:400px;""></img>",1,html-button-response,329,1351704,0.0-18.1-4.1,86869,List1A,white,woman,,TRUE,1,,,,,
null,CORRECT,,html-keyboard-response,330,1353208,0.0-18.1-5.1-0.1,86869,List1A,white,woman,,,,null,,,,
1383,"<img src=""portrait/WM2.jpg""style=""height:400px;""></img>",7,html-button-response,331,1354592,0.0-18.1-7.1,86869,List1A,white,woman,,TRUE,7,,,,,
null,CORRECT,,html-keyboard-response,332,1356096,0.0-18.1-8.1-0.1,86869,List1A,white,woman,,,,null,,,,
1794,"<img src=""portrait/BW2.jpg""style=""height:400px;""></img>",2,html-button-response,333,1357895,0.0-18.1-10.1,86869,List1A,white,woman,,TRUE,2,,,,,
null,CORRECT,,html-keyboard-response,334,1359399,0.0-18.1-11.1-0.1,86869,List1A,white,woman,,,,null,,,,
2119,"<img src=""portrait/WM1.jpg""style=""height:400px;""></img>",6,html-button-response,335,1361520,0.0-18.1-13.1,86869,List1A,white,woman,,TRUE,6,,,,,
null,CORRECT,,html-keyboard-response,336,1363024,0.0-18.1-14.1-0.1,86869,List1A,white,woman,,,,null,,,,
3684,"<img src=""portrait/BM1.jpg""style=""height:400px;""></img>",4,html-button-response,337,1366710,0.0-18.1-16.1,86869,List1A,white,woman,,TRUE,4,,,,,
null,CORRECT,,html-keyboard-response,338,1368214,0.0-18.1-17.1-0.1,86869,List1A,white,woman,,,,null,,,,
3137,"<img src=""portrait/WW2.jpg""style=""height:400px;""></img>",3,html-button-response,339,1371353,0.0-18.1-19.1,86869,List1A,white,woman,,TRUE,3,,,,,
null,CORRECT,,html-keyboard-response,340,1372856,0.0-18.1-20.1-0.1,86869,List1A,white,woman,,,,null,,,,
1440,"<img src=""portrait/BM2.jpg""style=""height:400px;""></img>",5,html-button-response,341,1374298,0.0-18.1-22.1,86869,List1A,white,woman,,TRUE,5,,,,,
null,CORRECT,,html-keyboard-response,342,1375802,0.0-18.1-23.1-0.1,86869,List1A,white,woman,,,,null,,,,
1838,<p>You got 8 out of 8 right first time. Press Continue.</p>,0,html-button-response,343,1377641,0.0-18.1-25.1,86869,List1A,white,woman,,,,,,,,
null,"<div style=""font-size:60px;"">+</div>",,html-keyboard-response,344,1379148,0.0-19.0-0.0,86869,List1A,white,woman,,,,null,,,,
null,"<img src=""stim_listA/talk4.gif""style=""height:400px;""></stim_listA>",,html-keyboard-response,345,1381151,0.0-19.0-1.0,86869,List1A,white,woman,,,,null,,,,
null,are talking to each other,,html-keyboard-response,346,1383154,0.0-19.0-2.0,86869,List1A,white,woman,,,,null,,,,
9901,,,survey-text,347,1393057,0.0-19.0-3.0,86869,List1A,white,woman,,,,,"{""Q0"":""dave and ruth are talking to each other""}","<img src=""stim_listA/talk4.gif""style=""height:400px;""></stim_listA>",are talking to each other,
null,"<div style=""font-size:60px;"">+</div>",,html-keyboard-response,348,1393559,0.0-19.0-0.1,86869,List1A,white,woman,,,,null,,,,
null,"<img src=""stim_listA/shout5.gif""style=""height:400px;""></stim_listA>",,html-keyboard-response,349,1395562,0.0-19.0-1.1,86869,List1A,white,woman,,,,null,,,,
null,is shouting at,,html-keyboard-response,350,1397565,0.0-19.0-2.1,86869,List1A,white,woman,,,,null,,,,
4502,,,survey-text,351,1402068,0.0-19.0-3.1,86869,List1A,white,woman,,,,,"{""Q0"":""luke is shouting at fred""}","<img src=""stim_listA/shout5.gif""style=""height:400px;""></stim_listA>",is shouting at,
null,"<div style=""font-size:60px;"">+</div>",,html-keyboard-response,352,1402570,0.0-19.0-0.2,86869,List1A,white,woman,,,,null,,,,
null,"<img src=""stim_listA/play6.gif""style=""height:400px;""></stim_listA>",,html-keyboard-response,353,1404573,0.0-19.0-1.2,86869,List1A,white,woman,,,,null,,,,
null,are playing with each other,,html-keyboard-response,354,1406579,0.0-19.0-2.2,86869,List1A,white,woman,,,,null,,,,
11842,,,survey-text,355,1418421,0.0-19.0-3.2,86869,List1A,white,woman,,,,,"{""Q0"":""luke and fred are playing with each other""}","<img src=""stim_listA/play6.gif""style=""height:400px;""></stim_listA>",are playing with each other,
null,"<div style=""font-size:60px;"">+</div>",,html-keyboard-response,356,1418924,0.0-19.0-0.3,86869,List1A,white,woman,,,,null,,,,
null,"<img src=""stim_listA/fight7.gif""style=""height:400px;""></stim_listA>",,html-keyboard-response,357,1420926,0.0-19.0-1.3,86869,List1A,white,woman,,,,null,,,,
null,is fighting,,html-keyboard-response,358,1422929,0.0-19.0-2.3,86869,List1A,white,woman,,,,null,,,,
8325,,,survey-text,359,1431257,0.0-19.0-3.3,86869,List1A,white,woman,,,,,"{""Q0"":""jane is fighting kate""}","<img src=""stim_listA/fight7.gif""style=""height:400px;""></stim_listA>",is fighting,
null,"<div style=""font-size:60px;"">+</div>",,html-keyboard-response,360,1431760,0.0-19.0-0.4,86869,List1A,white,woman,,,,null,,,,
null,"<img src=""stim_listA/shout4.gif""style=""height:400px;""></stim_listA>",,html-keyboard-response,361,1433763,0.0-19.0-1.4,86869,List1A,white,woman,,,,null,,,,
null,are shouting at each other,,html-keyboard-response,362,1435766,0.0-19.0-2.4,86869,List1A,white,woman,,,,null,,,,
9774,,,survey-text,363,1445544,0.0-19.0-3.4,86869,List1A,white,woman,,,,,"{""Q0"":""dave and jane are shouting at each other""}","<img src=""stim_listA/shout4.gif""style=""height:400px;""></stim_listA>",are shouting at each other,
null,"<div style=""font-size:60px;"">+</div>",,html-keyboard-response,364,1446047,0.0-19.0-0.5,86869,List1A,white,woman,,,,null,,,,
null,"<img src=""stim_listA/play3.gif""style=""height:400px;""></stim_listA>",,html-keyboard-response,365,1448050,0.0-19.0-1.5,86869,List1A,white,woman,,,,null,,,,
null,is playing with,,html-keyboard-response,366,1450052,0.0-19.0-2.5,86869,List1A,white,woman,,,,null,,,,
16204,,,survey-text,367,1466259,0.0-19.0-3.5,86869,List1A,white,woman,,,,,"{""Q0"":""dave is playing with jane""}","<img src=""stim_listA/play3.gif""style=""height:400px;""></stim_listA>",is playing with,
null,"<div style=""font-size:60px;"">+</div>",,html-keyboard-response,368,1466763,0.0-19.0-0.6,86869,List1A,white,woman,,,,null,,,,
null,"<img src=""stim_listA/play8.gif""style=""height:400px;""></stim_listA>",,html-keyboard-response,369,1468766,0.0-19.0-1.6,86869,List1A,white,woman,,,,null,,,,
null,are playing with each other,,html-keyboard-response,370,1470768,0.0-19.0-2.6,86869,List1A,white,woman,,,,null,,,,
11125,,,survey-text,371,1481898,0.0-19.0-3.6,86869,List1A,white,woman,,,,,"{""Q0"":""beth and ruth are playing each other""}","<img src=""stim_listA/play8.gif""style=""height:400px;""></stim_listA>",are playing with each other,
null,"<div style=""font-size:60px;"">+</div>",,html-keyboard-response,372,1482401,0.0-19.0-0.7,86869,List1A,white,woman,,,,null,,,,
null,"<img src=""stim_listA/touch8.gif""style=""height:400px;""></stim_listA>",,html-keyboard-response,373,1484403,0.0-19.0-1.7,86869,List1A,white,woman,,,,null,,,,
null,are touching each other,,html-keyboard-response,374,1486406,0.0-19.0-2.7,86869,List1A,white,woman,,,,null,,,,
15238,,,survey-text,375,1501647,0.0-19.0-3.7,86869,List1A,white,woman,,,,,"{""Q0"":""beth and jane are touching each other""}","<img src=""stim_listA/touch8.gif""style=""height:400px;""></stim_listA>",are touching each other,
null,"<div style=""font-size:60px;"">+</div>",,html-keyboard-response,376,1502150,0.0-19.0-0.8,86869,List1A,white,woman,,,,null,,,,
null,"<img src=""stim_listA/dance7.gif""style=""height:400px;""></stim_listA>",,html-keyboard-response,377,1504153,0.0-19.0-1.8,86869,List1A,white,woman,,,,null,,,,
null,is dancing with,,html-keyboard-response,378,1506156,0.0-19.0-2.8,86869,List1A,white,woman,,,,null,,,,
15298,,,survey-text,379,1521457,0.0-19.0-3.8,86869,List1A,white,woman,,,,,"{""Q0"":""jane is dancing with ruth""}","<img src=""stim_listA/dance7.gif""style=""height:400px;""></stim_listA>",is dancing with,
null,"<div style=""font-size:60px;"">+</div>",,html-keyboard-response,380,1521961,0.0-19.0-0.9,86869,List1A,white,woman,,,,null,,,,
null,"<img src=""stim_listA/flirt4.gif""style=""height:400px;""></stim_listA>",,html-keyboard-response,381,1523964,0.0-19.0-1.9,86869,List1A,white,woman,,,,null,,,,
null,are flirting with each other,,html-keyboard-response,382,1525966,0.0-19.0-2.9,86869,List1A,white,woman,,,,null,,,,
13603,,,survey-text,383,1539570,0.0-19.0-3.9,86869,List1A,white,woman,,,,,"{""Q0"":""ruth and dave are flirting with each other""}","<img src=""stim_listA/flirt4.gif""style=""height:400px;""></stim_listA>",are flirting with each other,
null,"<div style=""font-size:60px;"">+</div>",,html-keyboard-response,384,1540074,0.0-19.0-0.10,86869,List1A,white,woman,,,,null,,,,
null,"<img src=""stim_listA/kiss5.gif""style=""height:400px;""></stim_listA>",,html-keyboard-response,385,1542077,0.0-19.0-1.10,86869,List1A,white,woman,,,,null,,,,
null,is kissing,,html-keyboard-response,386,1544080,0.0-19.0-2.10,86869,List1A,white,woman,,,,null,,,,
5406,,,survey-text,387,1549487,0.0-19.0-3.10,86869,List1A,white,woman,,,,,"{""Q0"":""dave is kissing luke""}","<img src=""stim_listA/kiss5.gif""style=""height:400px;""></stim_listA>",is kissing,
null,"<div style=""font-size:60px;"">+</div>",,html-keyboard-response,388,1549989,0.0-19.0-0.11,86869,List1A,white,woman,,,,null,,,,
null,"<img src=""stim_listA/flirt7.gif""style=""height:400px;""></stim_listA>",,html-keyboard-response,389,1551992,0.0-19.0-1.11,86869,List1A,white,woman,,,,null,,,,
null,is flirting with,,html-keyboard-response,390,1553995,0.0-19.0-2.11,86869,List1A,white,woman,,,,null,,,,
9733,,,survey-text,391,1563730,0.0-19.0-3.11,86869,List1A,white,woman,,,,,"{""Q0"":""jane is flirting with beth""}","<img src=""stim_listA/flirt7.gif""style=""height:400px;""></stim_listA>",is flirting with,
null,"<div style=""font-size:60px;"">+</div>",,html-keyboard-response,392,1564233,0.0-19.0-0.12,86869,List1A,white,woman,,,,null,,,,
null,"<img src=""stim_listA/dance8.gif""style=""height:400px;""></stim_listA>",,html-keyboard-response,393,1566236,0.0-19.0-1.12,86869,List1A,white,woman,,,,null,,,,
null,are dancing with each other,,html-keyboard-response,394,1568239,0.0-19.0-2.12,86869,List1A,white,woman,,,,null,,,,
12422,,,survey-text,395,1580665,0.0-19.0-3.12,86869,List1A,white,woman,,,,,"{""Q0"":""kate and ruth are dancing with each other""}","<img src=""stim_listA/dance8.gif""style=""height:400px;""></stim_listA>",are dancing with each other,
null,"<div style=""font-size:60px;"">+</div>",,html-keyboard-response,396,1581167,0.0-19.0-0.13,86869,List1A,white,woman,,,,null,,,,
null,"<img src=""stim_listA/talk1.gif""style=""height:400px;""></stim_listA>",,html-keyboard-response,397,1583170,0.0-19.0-1.13,86869,List1A,white,woman,,,,null,,,,
null,is talking to,,html-keyboard-response,398,1585173,0.0-19.0-2.13,86869,List1A,white,woman,,,,null,,,,
7559,,,survey-text,399,1592733,0.0-19.0-3.13,86869,List1A,white,woman,,,,,"{""Q0"":""fred is talking to kate""}","<img src=""stim_listA/talk1.gif""style=""height:400px;""></stim_listA>",is talking to,
null,"<div style=""font-size:60px;"">+</div>",,html-keyboard-response,400,1593236,0.0-19.0-0.14,86869,List1A,white,woman,,,,null,,,,
null,"<img src=""stim_listA/touch2.gif""style=""height:400px;""></stim_listA>",,html-keyboard-response,401,1595242,0.0-19.0-1.14,86869,List1A,white,woman,,,,null,,,,
null,are touching each other,,html-keyboard-response,402,1597245,0.0-19.0-2.14,86869,List1A,white,woman,,,,null,,,,
9605,,,survey-text,403,1606851,0.0-19.0-3.14,86869,List1A,white,woman,,,,,"{""Q0"":""fred and beth are talking to each other""}","<img src=""stim_listA/touch2.gif""style=""height:400px;""></stim_listA>",are touching each other,
null,"<div style=""font-size:60px;"">+</div>",,html-keyboard-response,404,1607354,0.0-19.0-0.15,86869,List1A,white,woman,,,,null,,,,
null,"<img src=""stim_listA/marry1.gif""style=""height:400px;""></stim_listA>",,html-keyboard-response,405,1609357,0.0-19.0-1.15,86869,List1A,white,woman,,,,null,,,,
null,is marrying,,html-keyboard-response,406,1611360,0.0-19.0-2.15,86869,List1A,white,woman,,,,null,,,,
4365,,,survey-text,407,1615726,0.0-19.0-3.15,86869,List1A,white,woman,,,,,"{""Q0"":""mike is marrying beth""}","<img src=""stim_listA/marry1.gif""style=""height:400px;""></stim_listA>",is marrying,
null,"<div style=""font-size:60px;"">+</div>",,html-keyboard-response,408,1616229,0.0-19.0-0.16,86869,List1A,white,woman,,,,null,,,,
null,"<img src=""stim_listA/talk8.gif""style=""height:400px;""></stim_listA>",,html-keyboard-response,409,1618232,0.0-19.0-1.16,86869,List1A,white,woman,,,,null,,,,
null,are talking to each other,,html-keyboard-response,410,1620235,0.0-19.0-2.16,86869,List1A,white,woman,,,,null,,,,
3822,,,survey-text,411,1624058,0.0-19.0-3.16,86869,List1A,white,woman,,,,,"{""Q0"":""""}","<img src=""stim_listA/talk8.gif""style=""height:400px;""></stim_listA>",are talking to each other,
null,"<div style=""font-size:60px;"">+</div>",,html-keyboard-response,412,1624561,0.0-19.0-0.17,86869,List1A,white,woman,,,,null,,,,
null,"<img src=""stim_listA/argue2.gif""style=""height:400px;""></stim_listA>",,html-keyboard-response,413,1626564,0.0-19.0-1.17,86869,List1A,white,woman,,,,null,,,,
null,are arguing with each other,,html-keyboard-response,414,1628570,0.0-19.0-2.17,86869,List1A,white,woman,,,,null,,,,
11002,,,survey-text,415,1639574,0.0-19.0-3.17,86869,List1A,white,woman,,,,,"{""Q0"":""fred and kate are fighting each other""}","<img src=""stim_listA/argue2.gif""style=""height:400px;""></stim_listA>",are arguing with each other,
null,"<div style=""font-size:60px;"">+</div>",,html-keyboard-response,416,1640077,0.0-19.0-0.18,86869,List1A,white,woman,,,,null,,,,
null,"<img src=""stim_listA/dance1.gif""style=""height:400px;""></stim_listA>",,html-keyboard-response,417,1642080,0.0-19.0-1.18,86869,List1A,white,woman,,,,null,,,,
null,is dancing with,,html-keyboard-response,418,1644083,0.0-19.0-2.18,86869,List1A,white,woman,,,,null,,,,
6743,,,survey-text,419,1650827,0.0-19.0-3.18,86869,List1A,white,woman,,,,,"{""Q0"":""fred is dancing with kate""}","<img src=""stim_listA/dance1.gif""style=""height:400px;""></stim_listA>",is dancing with,
null,"<div style=""font-size:60px;"">+</div>",,html-keyboard-response,420,1651329,0.0-19.0-0.19,86869,List1A,white,woman,,,,null,,,,
null,"<img src=""stim_listA/fight6.gif""style=""height:400px;""></stim_listA>",,html-keyboard-response,421,1653331,0.0-19.0-1.19,86869,List1A,white,woman,,,,null,,,,
null,are fighting each other,,html-keyboard-response,422,1655334,0.0-19.0-2.19,86869,List1A,white,woman,,,,null,,,,
9393,,,survey-text,423,1664728,0.0-19.0-3.19,86869,List1A,white,woman,,,,,"{""Q0"":""fred and luke are fighting each other""}","<img src=""stim_listA/fight6.gif""style=""height:400px;""></stim_listA>",are fighting each other,
1787,<p>Thank you for completing that task.</p><p>The final part of this session is a short questionnaire.</p><p>Press Continue.</p>,0,html-button-response,424,1666516,0.0-20.0,86869,List1A,white,woman,,,,,,,,
20244,,,survey-text,425,1687765,0.0-21.0,86869,List1A,white,woman,,,,,"{""Q0"":""34"",""Q1"":""english"",""Q2"":""english"",""Q3"":""england"",""Q4"":""english"",""Q5"":""female""}",,,demographics
9974,,,survey-likert,426,1697741,0.0-22.0,86869,List1A,white,woman,,,,,"{""Q0"":4}",,,likert_ESS
7837,,,survey-likert,427,1705582,0.0-23.0,86869,List1A,white,woman,,,,,"{""Q0"":4}",,,likert_NSSAL_Q1
3164,,,survey-likert,428,1708749,0.0-24.0,86869,List1A,white,woman,,,,,"{""Q0"":4}",,,likert_NSSAL_Q2
3715,,,survey-likert,429,1712466,0.0-25.0,86869,List1A,white,woman,,,,,"{""Q0"":4}",,,likert_CGRS_Q1
3284,,,survey-likert,430,1715753,0.0-26.0,86869,List1A,white,woman,,,,,"{""Q0"":4}",,,likert_CGRS_Q2
2055,,,survey-likert,431,1717811,0.0-27.0,86869,List1A,white,woman,,,,,"{""Q0"":4}",,,likert_CGRS_Q3
2946,,,survey-text,432,1720760,0.0-28.0,86869,List1A,white,woman,,,,,"{""Q0"":""ccc""}",,,worker_id
32462,,,external-html,433,1753272,0.0-29.0,86869,List1A,white,woman,debrief.html,,,,,,,
