rt,stimulus,button_pressed,trial_type,trial_index,time_elapsed,internal_node_id,subject,list,ppt_race,ppt_gender,url,first_guess,correct,key_press,responses,image_type,phrase_type,test_part
7548,Welcome to the experiment. Press Continue to begin.,0,html-button-response,0,7550,0.0-0.0,87160,List2A,black,man,,,,,,,,
50498,,,external-html,1,59315,0.0-1.0,87160,List2A,black,man,consent.html,,,,,,,
3543,"<p>On the next page, you will see portraits of 8 people and their names.</p><p>Your first task is to take a few minutes to memorise the names of these people.</p><p>You will have to recall their names during the rest of the experiment, so it is</p><p>essential that you try to memorise these people and their names as best as you can.</p><br><p><strong>You will then be tested on your memory of these names and portraits.</strong></p><br><p>The experiment will start after you have completed this memory test.</p><br><p>Ready?</p>",0,html-button-response,2,62864,0.0-2.0,87160,List2A,black,man,,,,,,,,
56930,"<img src='img/portrait_matrix_list2.jpg' style='width:900px;height:500px;''></img><p>If you have memorised all the portraits and names and are ready to start, press Continue.</p><p><strong>Please note: Your memory of these faces will be tested 4 times during this experiment.</strong></p>",0,html-button-response,3,120798,0.0-3.0-0.0,87160,List2A,black,man,,,,,,,,
3560,"<img src=""portrait/WM2.jpg""style=""height:400px;""></img>",7,html-button-response,4,125372,0.0-3.0-1.0,87160,List2A,black,man,,TRUE,7,,,,,
null,CORRECT,,html-keyboard-response,5,126879,0.0-3.0-2.0-0.0,87160,List2A,black,man,,,,null,,,,
2695,"<img src=""portrait/WM1.jpg""style=""height:400px;""></img>",6,html-button-response,6,129576,0.0-3.0-4.0,87160,List2A,black,man,,TRUE,6,,,,,
null,CORRECT,,html-keyboard-response,7,131085,0.0-3.0-5.0-0.0,87160,List2A,black,man,,,,null,,,,
1580,"<img src=""portrait/WW2.jpg""style=""height:400px;""></img>",3,html-button-response,8,132668,0.0-3.0-7.0,87160,List2A,black,man,,TRUE,3,,,,,
null,CORRECT,,html-keyboard-response,9,134181,0.0-3.0-8.0-0.0,87160,List2A,black,man,,,,null,,,,
4580,"<img src=""portrait/BM1.jpg""style=""height:400px;""></img>",4,html-button-response,10,138763,0.0-3.0-10.0,87160,List2A,black,man,,TRUE,4,,,,,
null,CORRECT,,html-keyboard-response,11,140281,0.0-3.0-11.0-0.0,87160,List2A,black,man,,,,null,,,,
2283,"<img src=""portrait/BM2.jpg""style=""height:400px;""></img>",5,html-button-response,12,142566,0.0-3.0-13.0,87160,List2A,black,man,,TRUE,5,,,,,
null,CORRECT,,html-keyboard-response,13,144074,0.0-3.0-14.0-0.0,87160,List2A,black,man,,,,null,,,,
7531,"<img src=""portrait/WW1.jpg""style=""height:400px;""></img>",0,html-button-response,14,151607,0.0-3.0-16.0,87160,List2A,black,man,,TRUE,1,,,,,
2670,"<img src=""portrait/WW1.jpg""style=""height:400px;""></img>",1,html-button-response,15,155287,0.0-3.0-18.0-0.0,87160,List2A,black,man,,FALSE,1,,,,,
null,CORRECT,,html-keyboard-response,16,156806,0.0-3.0-18.0-1.0-0.0,87160,List2A,black,man,,,,null,,,,
1733,"<img src=""portrait/BW1.jpg""style=""height:400px;""></img>",0,html-button-response,17,158541,0.0-3.0-19.0,87160,List2A,black,man,,TRUE,0,,,,,
null,CORRECT,,html-keyboard-response,18,160058,0.0-3.0-20.0-0.0,87160,List2A,black,man,,,,null,,,,
4053,"<img src=""portrait/BW2.jpg""style=""height:400px;""></img>",2,html-button-response,19,164112,0.0-3.0-22.0,87160,List2A,black,man,,TRUE,2,,,,,
null,CORRECT,,html-keyboard-response,20,165627,0.0-3.0-23.0-0.0,87160,List2A,black,man,,,,null,,,,
4697,<p>You got 7 out of 8 right first time. Press Continue.</p>,0,html-button-response,21,170326,0.0-3.0-25.0,87160,List2A,black,man,,,,,,,,
2526,"As you did not score 100%, the memory game will repeat. Press Continue.",0,html-button-response,22,173855,0.0-3.0-26.0-0.0,87160,List2A,black,man,,,,,,,,
1287,"<img src='img/portrait_matrix_list2.jpg' style='width:900px;height:500px;''></img><p>If you have memorised all the portraits and names and are ready to start, press Continue.</p><p><strong>Please note: Your memory of these faces will be tested 4 times during this experiment.</strong></p>",0,html-button-response,23,176148,0.0-3.1-0.1,87160,List2A,black,man,,,,,,,,
1761,"<img src=""portrait/WM2.jpg""style=""height:400px;""></img>",7,html-button-response,24,178926,0.0-3.1-1.1,87160,List2A,black,man,,TRUE,7,,,,,
null,CORRECT,,html-keyboard-response,25,180433,0.0-3.1-2.1-0.1,87160,List2A,black,man,,,,null,,,,
2226,"<img src=""portrait/WM1.jpg""style=""height:400px;""></img>",6,html-button-response,26,182660,0.0-3.1-4.1,87160,List2A,black,man,,TRUE,6,,,,,
null,CORRECT,,html-keyboard-response,27,184181,0.0-3.1-5.1-0.1,87160,List2A,black,man,,,,null,,,,
2090,"<img src=""portrait/WW2.jpg""style=""height:400px;""></img>",3,html-button-response,28,186272,0.0-3.1-7.1,87160,List2A,black,man,,TRUE,3,,,,,
null,CORRECT,,html-keyboard-response,29,187786,0.0-3.1-8.1-0.1,87160,List2A,black,man,,,,null,,,,
1392,"<img src=""portrait/BM1.jpg""style=""height:400px;""></img>",4,html-button-response,30,189180,0.0-3.1-10.1,87160,List2A,black,man,,TRUE,4,,,,,
null,CORRECT,,html-keyboard-response,31,190700,0.0-3.1-11.1-0.1,87160,List2A,black,man,,,,null,,,,
916,"<img src=""portrait/BM2.jpg""style=""height:400px;""></img>",5,html-button-response,32,191617,0.0-3.1-13.1,87160,List2A,black,man,,TRUE,5,,,,,
null,CORRECT,,html-keyboard-response,33,193135,0.0-3.1-14.1-0.1,87160,List2A,black,man,,,,null,,,,
3078,"<img src=""portrait/WW1.jpg""style=""height:400px;""></img>",1,html-button-response,34,196215,0.0-3.1-16.1,87160,List2A,black,man,,TRUE,1,,,,,
null,CORRECT,,html-keyboard-response,35,197724,0.0-3.1-17.1-0.1,87160,List2A,black,man,,,,null,,,,
595,"<img src=""portrait/BW1.jpg""style=""height:400px;""></img>",0,html-button-response,36,198321,0.0-3.1-19.1,87160,List2A,black,man,,TRUE,0,,,,,
null,CORRECT,,html-keyboard-response,37,199845,0.0-3.1-20.1-0.1,87160,List2A,black,man,,,,null,,,,
2440,"<img src=""portrait/BW2.jpg""style=""height:400px;""></img>",2,html-button-response,38,202287,0.0-3.1-22.1,87160,List2A,black,man,,TRUE,2,,,,,
null,CORRECT,,html-keyboard-response,39,203800,0.0-3.1-23.1-0.1,87160,List2A,black,man,,,,null,,,,
1027,<p>You got 8 out of 8 right first time. Press Continue.</p>,0,html-button-response,40,204829,0.0-3.1-25.1,87160,List2A,black,man,,,,,,,,
29185,"<p>In this experiment, you will view photographs of the people from the memory game interacting.</p><p>By using the <strong>exact</strong> phrase given <i>after</i> the photograph appears and recalling the correct names of the people in the photographs, form a sentence describing the interaction. You do not need to capitalise names.</p><p>Type your answer in the space provided. Please complete every sentence before moving onto the next trial.</p><p>You will only have a few seconds to memorise each given photograph and phrase before you can respond, so try your best to focus.</p><p>An example is given below. Press 'Continue' when you are ready.</p><img src='img/speaking_example.jpg' style='width:800px;height:460px;''></img>",0,html-button-response,41,235020,0.0-4.0,87160,List2A,black,man,,,,,,,,
2151,"<p>Before the experiment starts, you will watch two example trials. Press 'Continue'.</p>",0,html-button-response,42,238190,0.0-5.0,87160,List2A,black,man,,,,,,,,
null,<img src='img/meet_eg.gif' style='height:400px;''></img>,,html-keyboard-response,43,241203,0.0-6.0,87160,List2A,black,man,,,,null,,,,
null,<p>is meeting</p>,,html-keyboard-response,44,243209,0.0-7.0,87160,List2A,black,man,,,,null,,,,
2601,<p><b>Answer:</b> jane is meeting ruth</p>,0,html-button-response,45,245812,0.0-8.0,87160,List2A,black,man,,,,,,,,
null,<img src='img/look_eg.gif' style='height:400px;''></img>,,html-keyboard-response,46,248824,0.0-9.0,87160,List2A,black,man,,,,null,,,,
null,<p>are looking at each other</p>,,html-keyboard-response,47,250841,0.0-10.0,87160,List2A,black,man,,,,null,,,,
1066,<p><b>Answer:</b> fred and mike are looking at each other</p>,0,html-button-response,48,251907,0.0-11.0,87160,List2A,black,man,,,,,,,,
4546,"<p>Ready to start the experiment?</p><br><p><strong>Remember to describe the picture using a full sentence,</strong></p><p><strong>that combines the names of the people with the <i>exact</i> phrase given.</strong></p><p><strong>To receive full payment you must do this correctly.</strong></p><p><strong> You do not need to capitalise names or use punctuation.</strong></p><br><p>Press 'Continue' to begin.</p>",0,html-button-response,49,257457,0.0-12.0,87160,List2A,black,man,,,,,,,,
null,"<div style=""font-size:60px;"">+</div>",,html-keyboard-response,50,258978,0.0-13.0-0.0,87160,List2A,black,man,,,,null,,,,
null,"<img src=""stim_listA/play4.gif""style=""height:400px;""></stim_listA>",,html-keyboard-response,51,260982,0.0-13.0-1.0,87160,List2A,black,man,,,,null,,,,
null,are playing with each other,,html-keyboard-response,52,262992,0.0-13.0-2.0,87160,List2A,black,man,,,,null,,,,
11870,,,survey-text,53,274865,0.0-13.0-3.0,87160,List2A,black,man,,,,,"{""Q0"":""beth and fred are playing with each other""}","<img src=""stim_listA/play4.gif""style=""height:400px;""></stim_listA>",are playing with each other,
null,"<div style=""font-size:60px;"">+</div>",,html-keyboard-response,54,275368,0.0-13.0-0.1,87160,List2A,black,man,,,,null,,,,
null,"<img src=""stim_listA/kiss3.gif""style=""height:400px;""></stim_listA>",,html-keyboard-response,55,277371,0.0-13.0-1.1,87160,List2A,black,man,,,,null,,,,
null,is kissing,,html-keyboard-response,56,279381,0.0-13.0-2.1,87160,List2A,black,man,,,,null,,,,
6393,,,survey-text,57,285776,0.0-13.0-3.1,87160,List2A,black,man,,,,,"{""Q0"":""fred and beth are kissing""}","<img src=""stim_listA/kiss3.gif""style=""height:400px;""></stim_listA>",is kissing,
null,"<div style=""font-size:60px;"">+</div>",,html-keyboard-response,58,286278,0.0-13.0-0.2,87160,List2A,black,man,,,,null,,,,
null,"<img src=""stim_listA/argue6.gif""style=""height:400px;""></stim_listA>",,html-keyboard-response,59,288286,0.0-13.0-1.2,87160,List2A,black,man,,,,null,,,,
null,are arguing with each other,,html-keyboard-response,60,290287,0.0-13.0-2.2,87160,List2A,black,man,,,,null,,,,
8243,,,survey-text,61,298532,0.0-13.0-3.2,87160,List2A,black,man,,,,,"{""Q0"":""mike and luke are arguing with each other""}","<img src=""stim_listA/argue6.gif""style=""height:400px;""></stim_listA>",are arguing with each other,
null,"<div style=""font-size:60px;"">+</div>",,html-keyboard-response,62,299043,0.0-13.0-0.3,87160,List2A,black,man,,,,null,,,,
null,"<img src=""stim_listA/flirt2.gif""style=""height:400px;""></stim_listA>",,html-keyboard-response,63,301047,0.0-13.0-1.3,87160,List2A,black,man,,,,null,,,,
null,are flirting with each other,,html-keyboard-response,64,303058,0.0-13.0-2.3,87160,List2A,black,man,,,,null,,,,
19256,,,survey-text,65,322316,0.0-13.0-3.3,87160,List2A,black,man,,,,,"{""Q0"":""ruth and dave are flirting with each other""}","<img src=""stim_listA/flirt2.gif""style=""height:400px;""></stim_listA>",are flirting with each other,
null,"<div style=""font-size:60px;"">+</div>",,html-keyboard-response,66,322821,0.0-13.0-0.4,87160,List2A,black,man,,,,null,,,,
null,"<img src=""stim_listA/fight1.gif""style=""height:400px;""></stim_listA>",,html-keyboard-response,67,324825,0.0-13.0-1.4,87160,List2A,black,man,,,,null,,,,
null,is fighting,,html-keyboard-response,68,326836,0.0-13.0-2.4,87160,List2A,black,man,,,,null,,,,
11108,,,survey-text,69,337945,0.0-13.0-3.4,87160,List2A,black,man,,,,,"{""Q0"":""jane and dave are fighting ""}","<img src=""stim_listA/fight1.gif""style=""height:400px;""></stim_listA>",is fighting,
null,"<div style=""font-size:60px;"">+</div>",,html-keyboard-response,70,338460,0.0-13.0-0.5,87160,List2A,black,man,,,,null,,,,
null,"<img src=""stim_listA/kiss5.gif""style=""height:400px;""></stim_listA>",,html-keyboard-response,71,340464,0.0-13.0-1.5,87160,List2A,black,man,,,,null,,,,
null,is kissing,,html-keyboard-response,72,342472,0.0-13.0-2.5,87160,List2A,black,man,,,,null,,,,
8973,,,survey-text,73,351447,0.0-13.0-3.5,87160,List2A,black,man,,,,,"{""Q0"":""luke and fred are kissing""}","<img src=""stim_listA/kiss5.gif""style=""height:400px;""></stim_listA>",is kissing,
null,"<div style=""font-size:60px;"">+</div>",,html-keyboard-response,74,351949,0.0-13.0-0.6,87160,List2A,black,man,,,,null,,,,
null,"<img src=""stim_listA/play2.gif""style=""height:400px;""></stim_listA>",,html-keyboard-response,75,353952,0.0-13.0-1.6,87160,List2A,black,man,,,,null,,,,
null,are playing with each other,,html-keyboard-response,76,355953,0.0-13.0-2.6,87160,List2A,black,man,,,,null,,,,
9015,,,survey-text,77,364970,0.0-13.0-3.6,87160,List2A,black,man,,,,,"{""Q0"":""luke and ruth are playing with each other""}","<img src=""stim_listA/play2.gif""style=""height:400px;""></stim_listA>",are playing with each other,
null,"<div style=""font-size:60px;"">+</div>",,html-keyboard-response,78,365472,0.0-13.0-0.7,87160,List2A,black,man,,,,null,,,,
null,"<img src=""stim_listA/fight3.gif""style=""height:400px;""></stim_listA>",,html-keyboard-response,79,367475,0.0-13.0-1.7,87160,List2A,black,man,,,,null,,,,
null,is fighting,,html-keyboard-response,80,369486,0.0-13.0-2.7,87160,List2A,black,man,,,,null,,,,
13520,,,survey-text,81,383007,0.0-13.0-3.7,87160,List2A,black,man,,,,,"{""Q0"":""mike and kate are fighting""}","<img src=""stim_listA/fight3.gif""style=""height:400px;""></stim_listA>",is fighting,
null,"<div style=""font-size:60px;"">+</div>",,html-keyboard-response,82,383516,0.0-13.0-0.8,87160,List2A,black,man,,,,null,,,,
null,"<img src=""stim_listA/touch2.gif""style=""height:400px;""></stim_listA>",,html-keyboard-response,83,385517,0.0-13.0-1.8,87160,List2A,black,man,,,,null,,,,
null,are touching each other,,html-keyboard-response,84,387528,0.0-13.0-2.8,87160,List2A,black,man,,,,null,,,,
6781,,,survey-text,85,394310,0.0-13.0-3.8,87160,List2A,black,man,,,,,"{""Q0"":""luke and ruth are touching each other""}","<img src=""stim_listA/touch2.gif""style=""height:400px;""></stim_listA>",are touching each other,
null,"<div style=""font-size:60px;"">+</div>",,html-keyboard-response,86,394821,0.0-13.0-0.9,87160,List2A,black,man,,,,null,,,,
null,"<img src=""stim_listA/marry1.gif""style=""height:400px;""></stim_listA>",,html-keyboard-response,87,396825,0.0-13.0-1.9,87160,List2A,black,man,,,,null,,,,
null,is marrying,,html-keyboard-response,88,398835,0.0-13.0-2.9,87160,List2A,black,man,,,,null,,,,
6261,,,survey-text,89,405098,0.0-13.0-3.9,87160,List2A,black,man,,,,,"{""Q0"":""dave is marrying ruth""}","<img src=""stim_listA/marry1.gif""style=""height:400px;""></stim_listA>",is marrying,
null,"<div style=""font-size:60px;"">+</div>",,html-keyboard-response,90,405602,0.0-13.0-0.10,87160,List2A,black,man,,,,null,,,,
null,"<img src=""stim_listA/shout2.gif""style=""height:400px;""></stim_listA>",,html-keyboard-response,91,407605,0.0-13.0-1.10,87160,List2A,black,man,,,,null,,,,
null,are shouting at each other,,html-keyboard-response,92,409612,0.0-13.0-2.10,87160,List2A,black,man,,,,null,,,,
13853,,,survey-text,93,423467,0.0-13.0-3.10,87160,List2A,black,man,,,,,"{""Q0"":""jane and dave are yelling at each other""}","<img src=""stim_listA/shout2.gif""style=""height:400px;""></stim_listA>",are shouting at each other,
null,"<div style=""font-size:60px;"">+</div>",,html-keyboard-response,94,423982,0.0-13.0-0.11,87160,List2A,black,man,,,,null,,,,
null,"<img src=""stim_listA/flirt7.gif""style=""height:400px;""></stim_listA>",,html-keyboard-response,95,425985,0.0-13.0-1.11,87160,List2A,black,man,,,,null,,,,
null,is flirting with,,html-keyboard-response,96,427987,0.0-13.0-2.11,87160,List2A,black,man,,,,null,,,,
8622,,,survey-text,97,436610,0.0-13.0-3.11,87160,List2A,black,man,,,,,"{""Q0"":""ruth is flirting with kate""}","<img src=""stim_listA/flirt7.gif""style=""height:400px;""></stim_listA>",is flirting with,
null,"<div style=""font-size:60px;"">+</div>",,html-keyboard-response,98,437118,0.0-13.0-0.12,87160,List2A,black,man,,,,null,,,,
null,"<img src=""stim_listA/flirt5.gif""style=""height:400px;""></stim_listA>",,html-keyboard-response,99,439123,0.0-13.0-1.12,87160,List2A,black,man,,,,null,,,,
null,is flirting with,,html-keyboard-response,100,441135,0.0-13.0-2.12,87160,List2A,black,man,,,,null,,,,
5593,,,survey-text,101,446730,0.0-13.0-3.12,87160,List2A,black,man,,,,,"{""Q0"":""mike is flirting with luke""}","<img src=""stim_listA/flirt5.gif""style=""height:400px;""></stim_listA>",is flirting with,
null,"<div style=""font-size:60px;"">+</div>",,html-keyboard-response,102,447242,0.0-13.0-0.13,87160,List2A,black,man,,,,null,,,,
null,"<img src=""stim_listA/shout6.gif""style=""height:400px;""></stim_listA>",,html-keyboard-response,103,449244,0.0-13.0-1.13,87160,List2A,black,man,,,,null,,,,
null,are shouting at each other,,html-keyboard-response,104,451257,0.0-13.0-2.13,87160,List2A,black,man,,,,null,,,,
19220,,,survey-text,105,470478,0.0-13.0-3.13,87160,List2A,black,man,,,,,"{""Q0"":""mike and luke are shouting at each other""}","<img src=""stim_listA/shout6.gif""style=""height:400px;""></stim_listA>",are shouting at each other,
null,"<div style=""font-size:60px;"">+</div>",,html-keyboard-response,106,470987,0.0-13.0-0.14,87160,List2A,black,man,,,,null,,,,
null,"<img src=""stim_listA/touch5.gif""style=""height:400px;""></stim_listA>",,html-keyboard-response,107,472990,0.0-13.0-1.14,87160,List2A,black,man,,,,null,,,,
null,is touching,,html-keyboard-response,108,475005,0.0-13.0-2.14,87160,List2A,black,man,,,,null,,,,
5293,,,survey-text,109,480300,0.0-13.0-3.14,87160,List2A,black,man,,,,,"{""Q0"":""mike is touching luke""}","<img src=""stim_listA/touch5.gif""style=""height:400px;""></stim_listA>",is touching,
null,"<div style=""font-size:60px;"">+</div>",,html-keyboard-response,110,480805,0.0-13.0-0.15,87160,List2A,black,man,,,,null,,,,
null,"<img src=""stim_listA/marry8.gif""style=""height:400px;""></stim_listA>",,html-keyboard-response,111,482808,0.0-13.0-1.15,87160,List2A,black,man,,,,null,,,,
null,are marrying each other,,html-keyboard-response,112,484818,0.0-13.0-2.15,87160,List2A,black,man,,,,null,,,,
11680,,,survey-text,113,496500,0.0-13.0-3.15,87160,List2A,black,man,,,,,"{""Q0"":""ruth and kate are marrying each other""}","<img src=""stim_listA/marry8.gif""style=""height:400px;""></stim_listA>",are marrying each other,
null,"<div style=""font-size:60px;"">+</div>",,html-keyboard-response,114,497010,0.0-13.0-0.16,87160,List2A,black,man,,,,null,,,,
null,"<img src=""stim_listA/touch3.gif""style=""height:400px;""></stim_listA>",,html-keyboard-response,115,499013,0.0-13.0-1.16,87160,List2A,black,man,,,,null,,,,
null,is touching,,html-keyboard-response,116,501017,0.0-13.0-2.16,87160,List2A,black,man,,,,null,,,,
7284,,,survey-text,117,508303,0.0-13.0-3.16,87160,List2A,black,man,,,,,"{""Q0"":""mike is touching kate""}","<img src=""stim_listA/touch3.gif""style=""height:400px;""></stim_listA>",is touching,
null,"<div style=""font-size:60px;"">+</div>",,html-keyboard-response,118,508817,0.0-13.0-0.17,87160,List2A,black,man,,,,null,,,,
null,"<img src=""stim_listA/argue2.gif""style=""height:400px;""></stim_listA>",,html-keyboard-response,119,510819,0.0-13.0-1.17,87160,List2A,black,man,,,,null,,,,
null,are arguing with each other,,html-keyboard-response,120,512831,0.0-13.0-2.17,87160,List2A,black,man,,,,null,,,,
8876,,,survey-text,121,521709,0.0-13.0-3.17,87160,List2A,black,man,,,,,"{""Q0"":""jane and luke are arguing with each other""}","<img src=""stim_listA/argue2.gif""style=""height:400px;""></stim_listA>",are arguing with each other,
null,"<div style=""font-size:60px;"">+</div>",,html-keyboard-response,122,522223,0.0-13.0-0.18,87160,List2A,black,man,,,,null,,,,
null,"<img src=""stim_listA/dance1.gif""style=""height:400px;""></stim_listA>",,html-keyboard-response,123,524225,0.0-13.0-1.18,87160,List2A,black,man,,,,null,,,,
null,is dancing with,,html-keyboard-response,124,526228,0.0-13.0-2.18,87160,List2A,black,man,,,,null,,,,
5595,,,survey-text,125,531824,0.0-13.0-3.18,87160,List2A,black,man,,,,,"{""Q0"":""jane is dancing with luke""}","<img src=""stim_listA/dance1.gif""style=""height:400px;""></stim_listA>",is dancing with,
null,"<div style=""font-size:60px;"">+</div>",,html-keyboard-response,126,532329,0.0-13.0-0.19,87160,List2A,black,man,,,,null,,,,
null,"<img src=""stim_listA/kiss7.gif""style=""height:400px;""></stim_listA>",,html-keyboard-response,127,534331,0.0-13.0-1.19,87160,List2A,black,man,,,,null,,,,
null,is kissing,,html-keyboard-response,128,536333,0.0-13.0-2.19,87160,List2A,black,man,,,,null,,,,
5602,,,survey-text,129,541935,0.0-13.0-3.19,87160,List2A,black,man,,,,,"{""Q0"":""beth is kissing ruth""}","<img src=""stim_listA/kiss7.gif""style=""height:400px;""></stim_listA>",is kissing,
6332,"<img src='img/portrait_matrix_list2.jpg' style='width:900px;height:500px;''></img><p>If you have memorised all the portraits and names and are ready to start, press Continue.</p><p><strong>Please note: Your memory of these faces will be tested 4 times during this experiment.</strong></p>",0,html-button-response,130,548268,0.0-14.0-0.0,87160,List2A,black,man,,,,,,,,
3636,"<img src=""portrait/WW2.jpg""style=""height:400px;""></img>",3,html-button-response,131,552908,0.0-14.0-1.0,87160,List2A,black,man,,TRUE,3,,,,,
null,CORRECT,,html-keyboard-response,132,554421,0.0-14.0-2.0-0.0,87160,List2A,black,man,,,,null,,,,
2194,"<img src=""portrait/WM1.jpg""style=""height:400px;""></img>",6,html-button-response,133,556618,0.0-14.0-4.0,87160,List2A,black,man,,TRUE,6,,,,,
null,CORRECT,,html-keyboard-response,134,558140,0.0-14.0-5.0-0.0,87160,List2A,black,man,,,,null,,,,
1214,"<img src=""portrait/BM2.jpg""style=""height:400px;""></img>",5,html-button-response,135,559355,0.0-14.0-7.0,87160,List2A,black,man,,TRUE,5,,,,,
null,CORRECT,,html-keyboard-response,136,560871,0.0-14.0-8.0-0.0,87160,List2A,black,man,,,,null,,,,
1763,"<img src=""portrait/WW1.jpg""style=""height:400px;""></img>",1,html-button-response,137,562636,0.0-14.0-10.0,87160,List2A,black,man,,TRUE,1,,,,,
null,CORRECT,,html-keyboard-response,138,564156,0.0-14.0-11.0-0.0,87160,List2A,black,man,,,,null,,,,
2460,"<img src=""portrait/WM2.jpg""style=""height:400px;""></img>",7,html-button-response,139,566618,0.0-14.0-13.0,87160,List2A,black,man,,TRUE,7,,,,,
null,CORRECT,,html-keyboard-response,140,568126,0.0-14.0-14.0-0.0,87160,List2A,black,man,,,,null,,,,
1049,"<img src=""portrait/BM1.jpg""style=""height:400px;""></img>",4,html-button-response,141,569177,0.0-14.0-16.0,87160,List2A,black,man,,TRUE,4,,,,,
null,CORRECT,,html-keyboard-response,142,570696,0.0-14.0-17.0-0.0,87160,List2A,black,man,,,,null,,,,
1799,"<img src=""portrait/BW2.jpg""style=""height:400px;""></img>",2,html-button-response,143,572498,0.0-14.0-19.0,87160,List2A,black,man,,TRUE,2,,,,,
null,CORRECT,,html-keyboard-response,144,574014,0.0-14.0-20.0-0.0,87160,List2A,black,man,,,,null,,,,
513,"<img src=""portrait/BW1.jpg""style=""height:400px;""></img>",0,html-button-response,145,574530,0.0-14.0-22.0,87160,List2A,black,man,,TRUE,0,,,,,
null,CORRECT,,html-keyboard-response,146,576047,0.0-14.0-23.0-0.0,87160,List2A,black,man,,,,null,,,,
1325,<p>You got 8 out of 8 right first time. Press Continue.</p>,0,html-button-response,147,577375,0.0-14.0-25.0,87160,List2A,black,man,,,,,,,,
null,"<div style=""font-size:60px;"">+</div>",,html-keyboard-response,148,578899,0.0-15.0-0.0,87160,List2A,black,man,,,,null,,,,
null,"<img src=""stim_listA/shout7.gif""style=""height:400px;""></stim_listA>",,html-keyboard-response,149,580901,0.0-15.0-1.0,87160,List2A,black,man,,,,null,,,,
null,is shouting at,,html-keyboard-response,150,582903,0.0-15.0-2.0,87160,List2A,black,man,,,,null,,,,
9687,,,survey-text,151,592592,0.0-15.0-3.0,87160,List2A,black,man,,,,,"{""Q0"":""beth is shouting at ruth""}","<img src=""stim_listA/shout7.gif""style=""height:400px;""></stim_listA>",is shouting at,
null,"<div style=""font-size:60px;"">+</div>",,html-keyboard-response,152,593105,0.0-15.0-0.1,87160,List2A,black,man,,,,null,,,,
null,"<img src=""stim_listA/play8.gif""style=""height:400px;""></stim_listA>",,html-keyboard-response,153,595108,0.0-15.0-1.1,87160,List2A,black,man,,,,null,,,,
null,are playing with each other,,html-keyboard-response,154,597113,0.0-15.0-2.1,87160,List2A,black,man,,,,null,,,,
7880,,,survey-text,155,604994,0.0-15.0-3.1,87160,List2A,black,man,,,,,"{""Q0"":""beth and ruth are playing with each other""}","<img src=""stim_listA/play8.gif""style=""height:400px;""></stim_listA>",are playing with each other,
null,"<div style=""font-size:60px;"">+</div>",,html-keyboard-response,156,605497,0.0-15.0-0.2,87160,List2A,black,man,,,,null,,,,
null,"<img src=""stim_listA/fight8.gif""style=""height:400px;""></stim_listA>",,html-keyboard-response,157,607501,0.0-15.0-1.2,87160,List2A,black,man,,,,null,,,,
null,are fighting each other,,html-keyboard-response,158,609502,0.0-15.0-2.2,87160,List2A,black,man,,,,null,,,,
8281,,,survey-text,159,617784,0.0-15.0-3.2,87160,List2A,black,man,,,,,"{""Q0"":""beth and ruth are fighting each other""}","<img src=""stim_listA/fight8.gif""style=""height:400px;""></stim_listA>",are fighting each other,
null,"<div style=""font-size:60px;"">+</div>",,html-keyboard-response,160,618287,0.0-15.0-0.3,87160,List2A,black,man,,,,null,,,,
null,"<img src=""stim_listA/fight7.gif""style=""height:400px;""></stim_listA>",,html-keyboard-response,161,620291,0.0-15.0-1.3,87160,List2A,black,man,,,,null,,,,
null,is fighting,,html-keyboard-response,162,622293,0.0-15.0-2.3,87160,List2A,black,man,,,,null,,,,
5922,,,survey-text,163,628217,0.0-15.0-3.3,87160,List2A,black,man,,,,,"{""Q0"":""kate is fighting jane""}","<img src=""stim_listA/fight7.gif""style=""height:400px;""></stim_listA>",is fighting,
null,"<div style=""font-size:60px;"">+</div>",,html-keyboard-response,164,628718,0.0-15.0-0.4,87160,List2A,black,man,,,,null,,,,
null,"<img src=""stim_listA/argue4.gif""style=""height:400px;""></stim_listA>",,html-keyboard-response,165,630723,0.0-15.0-1.4,87160,List2A,black,man,,,,null,,,,
null,are arguing with each other,,html-keyboard-response,166,632733,0.0-15.0-2.4,87160,List2A,black,man,,,,null,,,,
12507,,,survey-text,167,645242,0.0-15.0-3.4,87160,List2A,black,man,,,,,"{""Q0"":""fred and kate are arguing with each other""}","<img src=""stim_listA/argue4.gif""style=""height:400px;""></stim_listA>",are arguing with each other,
null,"<div style=""font-size:60px;"">+</div>",,html-keyboard-response,168,645758,0.0-15.0-0.5,87160,List2A,black,man,,,,null,,,,
null,"<img src=""stim_listA/shout8.gif""style=""height:400px;""></stim_listA>",,html-keyboard-response,169,647760,0.0-15.0-1.5,87160,List2A,black,man,,,,null,,,,
null,are shouting at each other,,html-keyboard-response,170,649772,0.0-15.0-2.5,87160,List2A,black,man,,,,null,,,,
7688,,,survey-text,171,657462,0.0-15.0-3.5,87160,List2A,black,man,,,,,"{""Q0"":""kate and jane are shouting at each other""}","<img src=""stim_listA/shout8.gif""style=""height:400px;""></stim_listA>",are shouting at each other,
null,"<div style=""font-size:60px;"">+</div>",,html-keyboard-response,172,657976,0.0-15.0-0.6,87160,List2A,black,man,,,,null,,,,
null,"<img src=""stim_listA/play6.gif""style=""height:400px;""></stim_listA>",,html-keyboard-response,173,659978,0.0-15.0-1.6,87160,List2A,black,man,,,,null,,,,
null,are playing with each other,,html-keyboard-response,174,661981,0.0-15.0-2.6,87160,List2A,black,man,,,,null,,,,
9369,,,survey-text,175,671351,0.0-15.0-3.6,87160,List2A,black,man,,,,,"{""Q0"":""luke and fred are playing with each other""}","<img src=""stim_listA/play6.gif""style=""height:400px;""></stim_listA>",are playing with each other,
null,"<div style=""font-size:60px;"">+</div>",,html-keyboard-response,176,671852,0.0-15.0-0.7,87160,List2A,black,man,,,,null,,,,
null,"<img src=""stim_listA/touch8.gif""style=""height:400px;""></stim_listA>",,html-keyboard-response,177,673854,0.0-15.0-1.7,87160,List2A,black,man,,,,null,,,,
null,are touching each other,,html-keyboard-response,178,675860,0.0-15.0-2.7,87160,List2A,black,man,,,,null,,,,
6429,,,survey-text,179,682291,0.0-15.0-3.7,87160,List2A,black,man,,,,,"{""Q0"":""beth and ruth are touching each other""}","<img src=""stim_listA/touch8.gif""style=""height:400px;""></stim_listA>",are touching each other,
null,"<div style=""font-size:60px;"">+</div>",,html-keyboard-response,180,682806,0.0-15.0-0.8,87160,List2A,black,man,,,,null,,,,
null,"<img src=""stim_listA/play7.gif""style=""height:400px;""></stim_listA>",,html-keyboard-response,181,684809,0.0-15.0-1.8,87160,List2A,black,man,,,,null,,,,
null,is playing with,,html-keyboard-response,182,686810,0.0-15.0-2.8,87160,List2A,black,man,,,,null,,,,
6913,,,survey-text,183,693724,0.0-15.0-3.8,87160,List2A,black,man,,,,,"{""Q0"":""jane is playing with kate""}","<img src=""stim_listA/play7.gif""style=""height:400px;""></stim_listA>",is playing with,
null,"<div style=""font-size:60px;"">+</div>",,html-keyboard-response,184,694230,0.0-15.0-0.9,87160,List2A,black,man,,,,null,,,,
null,"<img src=""stim_listA/dance6.gif""style=""height:400px;""></stim_listA>",,html-keyboard-response,185,696234,0.0-15.0-1.9,87160,List2A,black,man,,,,null,,,,
null,are dancing with each other,,html-keyboard-response,186,698251,0.0-15.0-2.9,87160,List2A,black,man,,,,null,,,,
7800,,,survey-text,187,706052,0.0-15.0-3.9,87160,List2A,black,man,,,,,"{""Q0"":""fred and dave are dancing with each other""}","<img src=""stim_listA/dance6.gif""style=""height:400px;""></stim_listA>",are dancing with each other,
null,"<div style=""font-size:60px;"">+</div>",,html-keyboard-response,188,706556,0.0-15.0-0.10,87160,List2A,black,man,,,,null,,,,
null,"<img src=""stim_listA/flirt1.gif""style=""height:400px;""></stim_listA>",,html-keyboard-response,189,708565,0.0-15.0-1.10,87160,List2A,black,man,,,,null,,,,
null,is flirting with,,html-keyboard-response,190,710579,0.0-15.0-2.10,87160,List2A,black,man,,,,null,,,,
6525,,,survey-text,191,717104,0.0-15.0-3.10,87160,List2A,black,man,,,,,"{""Q0"":""jane is flirting with luke""}","<img src=""stim_listA/flirt1.gif""style=""height:400px;""></stim_listA>",is flirting with,
null,"<div style=""font-size:60px;"">+</div>",,html-keyboard-response,192,717606,0.0-15.0-0.11,87160,List2A,black,man,,,,null,,,,
null,"<img src=""stim_listA/play5.gif""style=""height:400px;""></stim_listA>",,html-keyboard-response,193,719609,0.0-15.0-1.11,87160,List2A,black,man,,,,null,,,,
null,is playing with,,html-keyboard-response,194,721613,0.0-15.0-2.11,87160,List2A,black,man,,,,null,,,,
4735,,,survey-text,195,726348,0.0-15.0-3.11,87160,List2A,black,man,,,,,"{""Q0"":""mike is playing with dave""}","<img src=""stim_listA/play5.gif""style=""height:400px;""></stim_listA>",is playing with,
null,"<div style=""font-size:60px;"">+</div>",,html-keyboard-response,196,726859,0.0-15.0-0.12,87160,List2A,black,man,,,,null,,,,
null,"<img src=""stim_listA/touch6.gif""style=""height:400px;""></stim_listA>",,html-keyboard-response,197,728862,0.0-15.0-1.12,87160,List2A,black,man,,,,null,,,,
null,are touching each other,,html-keyboard-response,198,730863,0.0-15.0-2.12,87160,List2A,black,man,,,,null,,,,
7648,,,survey-text,199,738512,0.0-15.0-3.12,87160,List2A,black,man,,,,,"{""Q0"":""luke and fred are touching each other""}","<img src=""stim_listA/touch6.gif""style=""height:400px;""></stim_listA>",are touching each other,
null,"<div style=""font-size:60px;"">+</div>",,html-keyboard-response,200,739024,0.0-15.0-0.13,87160,List2A,black,man,,,,null,,,,
null,"<img src=""stim_listA/flirt6.gif""style=""height:400px;""></stim_listA>",,html-keyboard-response,201,741026,0.0-15.0-1.13,87160,List2A,black,man,,,,null,,,,
null,are flirting with each other,,html-keyboard-response,202,743028,0.0-15.0-2.13,87160,List2A,black,man,,,,null,,,,
9160,,,survey-text,203,752190,0.0-15.0-3.13,87160,List2A,black,man,,,,,"{""Q0"":""fred and dave are flirting with each other""}","<img src=""stim_listA/flirt6.gif""style=""height:400px;""></stim_listA>",are flirting with each other,
null,"<div style=""font-size:60px;"">+</div>",,html-keyboard-response,204,752703,0.0-15.0-0.14,87160,List2A,black,man,,,,null,,,,
null,"<img src=""stim_listA/fight5.gif""style=""height:400px;""></stim_listA>",,html-keyboard-response,205,754720,0.0-15.0-1.14,87160,List2A,black,man,,,,null,,,,
null,is fighting,,html-keyboard-response,206,756720,0.0-15.0-2.14,87160,List2A,black,man,,,,null,,,,
8841,,,survey-text,207,765563,0.0-15.0-3.14,87160,List2A,black,man,,,,,"{""Q0"":""mike is fighting dave""}","<img src=""stim_listA/fight5.gif""style=""height:400px;""></stim_listA>",is fighting,
null,"<div style=""font-size:60px;"">+</div>",,html-keyboard-response,208,766072,0.0-15.0-0.15,87160,List2A,black,man,,,,null,,,,
null,"<img src=""stim_listA/shout5.gif""style=""height:400px;""></stim_listA>",,html-keyboard-response,209,768075,0.0-15.0-1.15,87160,List2A,black,man,,,,null,,,,
null,is shouting at,,html-keyboard-response,210,770077,0.0-15.0-2.15,87160,List2A,black,man,,,,null,,,,
6885,,,survey-text,211,776964,0.0-15.0-3.15,87160,List2A,black,man,,,,,"{""Q0"":""fred is shouting at luke""}","<img src=""stim_listA/shout5.gif""style=""height:400px;""></stim_listA>",is shouting at,
null,"<div style=""font-size:60px;"">+</div>",,html-keyboard-response,212,777475,0.0-15.0-0.16,87160,List2A,black,man,,,,null,,,,
null,"<img src=""stim_listA/touch7.gif""style=""height:400px;""></stim_listA>",,html-keyboard-response,213,779476,0.0-15.0-1.16,87160,List2A,black,man,,,,null,,,,
null,is touching,,html-keyboard-response,214,781484,0.0-15.0-2.16,87160,List2A,black,man,,,,null,,,,
5200,,,survey-text,215,786685,0.0-15.0-3.16,87160,List2A,black,man,,,,,"{""Q0"":""jane is touching kate""}","<img src=""stim_listA/touch7.gif""style=""height:400px;""></stim_listA>",is touching,
null,"<div style=""font-size:60px;"">+</div>",,html-keyboard-response,216,787195,0.0-15.0-0.17,87160,List2A,black,man,,,,null,,,,
null,"<img src=""stim_listA/dance5.gif""style=""height:400px;""></stim_listA>",,html-keyboard-response,217,789197,0.0-15.0-1.17,87160,List2A,black,man,,,,null,,,,
null,is dancing with,,html-keyboard-response,218,791200,0.0-15.0-2.17,87160,List2A,black,man,,,,null,,,,
8870,,,survey-text,219,800071,0.0-15.0-3.17,87160,List2A,black,man,,,,,"{""Q0"":""mike is dancing with luke""}","<img src=""stim_listA/dance5.gif""style=""height:400px;""></stim_listA>",is dancing with,
null,"<div style=""font-size:60px;"">+</div>",,html-keyboard-response,220,800583,0.0-15.0-0.18,87160,List2A,black,man,,,,null,,,,
null,"<img src=""stim_listA/marry7.gif""style=""height:400px;""></stim_listA>",,html-keyboard-response,221,802586,0.0-15.0-1.18,87160,List2A,black,man,,,,null,,,,
null,is marrying,,html-keyboard-response,222,804587,0.0-15.0-2.18,87160,List2A,black,man,,,,null,,,,
16883,,,survey-text,223,821471,0.0-15.0-3.18,87160,List2A,black,man,,,,,"{""Q0"":""kate is marrying beth""}","<img src=""stim_listA/marry7.gif""style=""height:400px;""></stim_listA>",is marrying,
null,"<div style=""font-size:60px;"">+</div>",,html-keyboard-response,224,821973,0.0-15.0-0.19,87160,List2A,black,man,,,,null,,,,
null,"<img src=""stim_listA/marry6.gif""style=""height:400px;""></stim_listA>",,html-keyboard-response,225,823977,0.0-15.0-1.19,87160,List2A,black,man,,,,null,,,,
null,are marrying each other,,html-keyboard-response,226,825980,0.0-15.0-2.19,87160,List2A,black,man,,,,null,,,,
8543,,,survey-text,227,834525,0.0-15.0-3.19,87160,List2A,black,man,,,,,"{""Q0"":""luke and mike are marrying each other""}","<img src=""stim_listA/marry6.gif""style=""height:400px;""></stim_listA>",are marrying each other,
3043,"<img src='img/portrait_matrix_list2.jpg' style='width:900px;height:500px;''></img><p>If you have memorised all the portraits and names and are ready to start, press Continue.</p><p><strong>Please note: Your memory of these faces will be tested 4 times during this experiment.</strong></p>",0,html-button-response,228,837570,0.0-16.0-0.0,87160,List2A,black,man,,,,,,,,
2782,"<img src=""portrait/BW1.jpg""style=""height:400px;""></img>",0,html-button-response,229,841354,0.0-16.0-1.0,87160,List2A,black,man,,TRUE,0,,,,,
null,CORRECT,,html-keyboard-response,230,843660,0.0-16.0-2.0-0.0,87160,List2A,black,man,,,,null,,,,
16350,"<img src=""portrait/WW2.jpg""style=""height:400px;""></img>",3,html-button-response,231,860012,0.0-16.0-4.0,87160,List2A,black,man,,TRUE,3,,,,,
null,CORRECT,,html-keyboard-response,232,861521,0.0-16.0-5.0-0.0,87160,List2A,black,man,,,,null,,,,
1936,"<img src=""portrait/BM2.jpg""style=""height:400px;""></img>",5,html-button-response,233,863458,0.0-16.0-7.0,87160,List2A,black,man,,TRUE,5,,,,,
null,CORRECT,,html-keyboard-response,234,864967,0.0-16.0-8.0-0.0,87160,List2A,black,man,,,,null,,,,
3710,"<img src=""portrait/BW2.jpg""style=""height:400px;""></img>",2,html-button-response,235,868680,0.0-16.0-10.0,87160,List2A,black,man,,TRUE,2,,,,,
null,CORRECT,,html-keyboard-response,236,870183,0.0-16.0-11.0-0.0,87160,List2A,black,man,,,,null,,,,
1967,"<img src=""portrait/BM1.jpg""style=""height:400px;""></img>",6,html-button-response,237,872153,0.0-16.0-13.0,87160,List2A,black,man,,TRUE,4,,,,,
1997,"<img src=""portrait/BM1.jpg""style=""height:400px;""></img>",4,html-button-response,238,875153,0.0-16.0-15.0-0.0,87160,List2A,black,man,,FALSE,4,,,,,
null,CORRECT,,html-keyboard-response,239,876657,0.0-16.0-15.0-1.0-0.0,87160,List2A,black,man,,,,null,,,,
1545,"<img src=""portrait/WM2.jpg""style=""height:400px;""></img>",7,html-button-response,240,878203,0.0-16.0-16.0,87160,List2A,black,man,,TRUE,7,,,,,
null,CORRECT,,html-keyboard-response,241,879712,0.0-16.0-17.0-0.0,87160,List2A,black,man,,,,null,,,,
3131,"<img src=""portrait/WW1.jpg""style=""height:400px;""></img>",1,html-button-response,242,882844,0.0-16.0-19.0,87160,List2A,black,man,,TRUE,1,,,,,
null,CORRECT,,html-keyboard-response,243,884347,0.0-16.0-20.0-0.0,87160,List2A,black,man,,,,null,,,,
1756,"<img src=""portrait/WM1.jpg""style=""height:400px;""></img>",6,html-button-response,244,886104,0.0-16.0-22.0,87160,List2A,black,man,,TRUE,6,,,,,
null,CORRECT,,html-keyboard-response,245,887612,0.0-16.0-23.0-0.0,87160,List2A,black,man,,,,null,,,,
1186,<p>You got 7 out of 8 right first time. Press Continue.</p>,0,html-button-response,246,888801,0.0-16.0-25.0,87160,List2A,black,man,,,,,,,,
1273,"As you did not score 100%, the memory game will repeat. Press Continue.",0,html-button-response,247,891076,0.0-16.0-26.0-0.0,87160,List2A,black,man,,,,,,,,
1972,"<img src='img/portrait_matrix_list2.jpg' style='width:900px;height:500px;''></img><p>If you have memorised all the portraits and names and are ready to start, press Continue.</p><p><strong>Please note: Your memory of these faces will be tested 4 times during this experiment.</strong></p>",0,html-button-response,248,894052,0.0-16.1-0.1,87160,List2A,black,man,,,,,,,,
4986,"<img src=""portrait/BW1.jpg""style=""height:400px;""></img>",0,html-button-response,249,900042,0.0-16.1-1.1,87160,List2A,black,man,,TRUE,0,,,,,
null,CORRECT,,html-keyboard-response,250,901564,0.0-16.1-2.1-0.1,87160,List2A,black,man,,,,null,,,,
1172,"<img src=""portrait/WW2.jpg""style=""height:400px;""></img>",3,html-button-response,251,902740,0.0-16.1-4.1,87160,List2A,black,man,,TRUE,3,,,,,
null,CORRECT,,html-keyboard-response,252,904242,0.0-16.1-5.1-0.1,87160,List2A,black,man,,,,null,,,,
2032,"<img src=""portrait/BM2.jpg""style=""height:400px;""></img>",6,html-button-response,253,906276,0.0-16.1-7.1,87160,List2A,black,man,,TRUE,5,,,,,
32889,"<img src=""portrait/BM2.jpg""style=""height:400px;""></img>",5,html-button-response,254,940172,0.0-16.1-9.1-0.1,87160,List2A,black,man,,FALSE,5,,,,,
null,CORRECT,,html-keyboard-response,255,941695,0.0-16.1-9.1-1.1-0.1,87160,List2A,black,man,,,,null,,,,
1219,"<img src=""portrait/BW2.jpg""style=""height:400px;""></img>",2,html-button-response,256,942916,0.0-16.1-10.1,87160,List2A,black,man,,TRUE,2,,,,,
null,CORRECT,,html-keyboard-response,257,944436,0.0-16.1-11.1-0.1,87160,List2A,black,man,,,,null,,,,
4887,"<img src=""portrait/BM1.jpg""style=""height:400px;""></img>",4,html-button-response,258,949325,0.0-16.1-13.1,87160,List2A,black,man,,TRUE,4,,,,,
null,CORRECT,,html-keyboard-response,259,950839,0.0-16.1-14.1-0.1,87160,List2A,black,man,,,,null,,,,
2910,"<img src=""portrait/WM2.jpg""style=""height:400px;""></img>",7,html-button-response,260,953753,0.0-16.1-16.1,87160,List2A,black,man,,TRUE,7,,,,,
null,CORRECT,,html-keyboard-response,261,955272,0.0-16.1-17.1-0.1,87160,List2A,black,man,,,,null,,,,
2552,"<img src=""portrait/WW1.jpg""style=""height:400px;""></img>",0,html-button-response,262,957827,0.0-16.1-19.1,87160,List2A,black,man,,TRUE,1,,,,,
1103,"<img src=""portrait/WW1.jpg""style=""height:400px;""></img>",1,html-button-response,263,959938,0.0-16.1-21.1-0.1,87160,List2A,black,man,,FALSE,1,,,,,
null,CORRECT,,html-keyboard-response,264,961458,0.0-16.1-21.1-1.1-0.1,87160,List2A,black,man,,,,null,,,,
1719,"<img src=""portrait/WM1.jpg""style=""height:400px;""></img>",6,html-button-response,265,963179,0.0-16.1-22.1,87160,List2A,black,man,,TRUE,6,,,,,
null,CORRECT,,html-keyboard-response,266,964709,0.0-16.1-23.1-0.1,87160,List2A,black,man,,,,null,,,,
1078,<p>You got 6 out of 8 right first time. Press Continue.</p>,0,html-button-response,267,965789,0.0-16.1-25.1,87160,List2A,black,man,,,,,,,,
692,"As you did not score 100%, the memory game will repeat. Press Continue.",0,html-button-response,268,967484,0.0-16.1-26.1-0.1,87160,List2A,black,man,,,,,,,,
1217,"<img src='img/portrait_matrix_list2.jpg' style='width:900px;height:500px;''></img><p>If you have memorised all the portraits and names and are ready to start, press Continue.</p><p><strong>Please note: Your memory of these faces will be tested 4 times during this experiment.</strong></p>",0,html-button-response,269,969706,0.0-16.2-0.2,87160,List2A,black,man,,,,,,,,
1421,"<img src=""portrait/BW1.jpg""style=""height:400px;""></img>",0,html-button-response,270,972145,0.0-16.2-1.2,87160,List2A,black,man,,TRUE,0,,,,,
null,CORRECT,,html-keyboard-response,271,973657,0.0-16.2-2.2-0.2,87160,List2A,black,man,,,,null,,,,
3122,"<img src=""portrait/WW2.jpg""style=""height:400px;""></img>",3,html-button-response,272,976780,0.0-16.2-4.2,87160,List2A,black,man,,TRUE,3,,,,,
null,CORRECT,,html-keyboard-response,273,978296,0.0-16.2-5.2-0.2,87160,List2A,black,man,,,,null,,,,
822,"<img src=""portrait/BM2.jpg""style=""height:400px;""></img>",5,html-button-response,274,979120,0.0-16.2-7.2,87160,List2A,black,man,,TRUE,5,,,,,
null,CORRECT,,html-keyboard-response,275,980633,0.0-16.2-8.2-0.2,87160,List2A,black,man,,,,null,,,,
1353,"<img src=""portrait/BW2.jpg""style=""height:400px;""></img>",2,html-button-response,276,981987,0.0-16.2-10.2,87160,List2A,black,man,,TRUE,2,,,,,
null,CORRECT,,html-keyboard-response,277,983501,0.0-16.2-11.2-0.2,87160,List2A,black,man,,,,null,,,,
1207,"<img src=""portrait/BM1.jpg""style=""height:400px;""></img>",4,html-button-response,278,984710,0.0-16.2-13.2,87160,List2A,black,man,,TRUE,4,,,,,
null,CORRECT,,html-keyboard-response,279,986213,0.0-16.2-14.2-0.2,87160,List2A,black,man,,,,null,,,,
1208,"<img src=""portrait/WM2.jpg""style=""height:400px;""></img>",7,html-button-response,280,987423,0.0-16.2-16.2,87160,List2A,black,man,,TRUE,7,,,,,
null,CORRECT,,html-keyboard-response,281,988940,0.0-16.2-17.2-0.2,87160,List2A,black,man,,,,null,,,,
1987,"<img src=""portrait/WW1.jpg""style=""height:400px;""></img>",1,html-button-response,282,990929,0.0-16.2-19.2,87160,List2A,black,man,,TRUE,1,,,,,
null,CORRECT,,html-keyboard-response,283,992432,0.0-16.2-20.2-0.2,87160,List2A,black,man,,,,null,,,,
902,"<img src=""portrait/WM1.jpg""style=""height:400px;""></img>",6,html-button-response,284,993336,0.0-16.2-22.2,87160,List2A,black,man,,TRUE,6,,,,,
null,CORRECT,,html-keyboard-response,285,994854,0.0-16.2-23.2-0.2,87160,List2A,black,man,,,,null,,,,
1322,<p>You got 8 out of 8 right first time. Press Continue.</p>,0,html-button-response,286,996179,0.0-16.2-25.2,87160,List2A,black,man,,,,,,,,
null,"<div style=""font-size:60px;"">+</div>",,html-keyboard-response,287,997692,0.0-17.0-0.0,87160,List2A,black,man,,,,null,,,,
null,"<img src=""stim_listA/kiss8.gif""style=""height:400px;""></stim_listA>",,html-keyboard-response,288,999694,0.0-17.0-1.0,87160,List2A,black,man,,,,null,,,,
null,are kissing each other,,html-keyboard-response,289,1001695,0.0-17.0-2.0,87160,List2A,black,man,,,,null,,,,
11040,,,survey-text,290,1012737,0.0-17.0-3.0,87160,List2A,black,man,,,,,"{""Q0"":""kate and jane are kissing each other""}","<img src=""stim_listA/kiss8.gif""style=""height:400px;""></stim_listA>",are kissing each other,
null,"<div style=""font-size:60px;"">+</div>",,html-keyboard-response,291,1013239,0.0-17.0-0.1,87160,List2A,black,man,,,,null,,,,
null,"<img src=""stim_listA/flirt8.gif""style=""height:400px;""></stim_listA>",,html-keyboard-response,292,1015243,0.0-17.0-1.1,87160,List2A,black,man,,,,null,,,,
null,are flirting with each other,,html-keyboard-response,293,1017252,0.0-17.0-2.1,87160,List2A,black,man,,,,null,,,,
6084,,,survey-text,294,1023337,0.0-17.0-3.1,87160,List2A,black,man,,,,,"{""Q0"":""beth and jane are flirting with each other""}","<img src=""stim_listA/flirt8.gif""style=""height:400px;""></stim_listA>",are flirting with each other,
null,"<div style=""font-size:60px;"">+</div>",,html-keyboard-response,295,1023851,0.0-17.0-0.2,87160,List2A,black,man,,,,null,,,,
null,"<img src=""stim_listA/argue8.gif""style=""height:400px;""></stim_listA>",,html-keyboard-response,296,1025853,0.0-17.0-1.2,87160,List2A,black,man,,,,null,,,,
null,are arguing with each other,,html-keyboard-response,297,1027856,0.0-17.0-2.2,87160,List2A,black,man,,,,null,,,,
30166,,,survey-text,298,1058024,0.0-17.0-3.2,87160,List2A,black,man,,,,,"{""Q0"":""jane and kate are fighting with each other""}","<img src=""stim_listA/argue8.gif""style=""height:400px;""></stim_listA>",are arguing with each other,
null,"<div style=""font-size:60px;"">+</div>",,html-keyboard-response,299,1058533,0.0-17.0-0.3,87160,List2A,black,man,,,,null,,,,
null,"<img src=""stim_listA/argue1.gif""style=""height:400px;""></stim_listA>",,html-keyboard-response,300,1060535,0.0-17.0-1.3,87160,List2A,black,man,,,,null,,,,
null,is arguing with,,html-keyboard-response,301,1062546,0.0-17.0-2.3,87160,List2A,black,man,,,,null,,,,
7283,,,survey-text,302,1069830,0.0-17.0-3.3,87160,List2A,black,man,,,,,"{""Q0"":""dave is arguing with ruth""}","<img src=""stim_listA/argue1.gif""style=""height:400px;""></stim_listA>",is arguing with,
null,"<div style=""font-size:60px;"">+</div>",,html-keyboard-response,303,1070335,0.0-17.0-0.4,87160,List2A,black,man,,,,null,,,,
null,"<img src=""stim_listA/talk4.gif""style=""height:400px;""></stim_listA>",,html-keyboard-response,304,1072339,0.0-17.0-1.4,87160,List2A,black,man,,,,null,,,,
null,are talking to each other,,html-keyboard-response,305,1074353,0.0-17.0-2.4,87160,List2A,black,man,,,,null,,,,
8520,,,survey-text,306,1082874,0.0-17.0-3.4,87160,List2A,black,man,,,,,"{""Q0"":""mike and beth are talking to each other""}","<img src=""stim_listA/talk4.gif""style=""height:400px;""></stim_listA>",are talking to each other,
null,"<div style=""font-size:60px;"">+</div>",,html-keyboard-response,307,1083386,0.0-17.0-0.5,87160,List2A,black,man,,,,null,,,,
null,"<img src=""stim_listA/touch4.gif""style=""height:400px;""></stim_listA>",,html-keyboard-response,308,1085389,0.0-17.0-1.5,87160,List2A,black,man,,,,null,,,,
null,are touching each other,,html-keyboard-response,309,1087396,0.0-17.0-2.5,87160,List2A,black,man,,,,null,,,,
9894,,,survey-text,310,1097291,0.0-17.0-3.5,87160,List2A,black,man,,,,,"{""Q0"":""fred and beth are touching each other""}","<img src=""stim_listA/touch4.gif""style=""height:400px;""></stim_listA>",are touching each other,
null,"<div style=""font-size:60px;"">+</div>",,html-keyboard-response,311,1097797,0.0-17.0-0.6,87160,List2A,black,man,,,,null,,,,
null,"<img src=""stim_listA/talk8.gif""style=""height:400px;""></stim_listA>",,html-keyboard-response,312,1099801,0.0-17.0-1.6,87160,List2A,black,man,,,,null,,,,
null,are talking to each other,,html-keyboard-response,313,1101804,0.0-17.0-2.6,87160,List2A,black,man,,,,null,,,,
6547,,,survey-text,314,1108352,0.0-17.0-3.6,87160,List2A,black,man,,,,,"{""Q0"":""beth and jane are talking to each other""}","<img src=""stim_listA/talk8.gif""style=""height:400px;""></stim_listA>",are talking to each other,
null,"<div style=""font-size:60px;"">+</div>",,html-keyboard-response,315,1108853,0.0-17.0-0.7,87160,List2A,black,man,,,,null,,,,
null,"<img src=""stim_listA/talk2.gif""style=""height:400px;""></stim_listA>",,html-keyboard-response,316,1110857,0.0-17.0-1.7,87160,List2A,black,man,,,,null,,,,
null,are talking to each other,,html-keyboard-response,317,1112872,0.0-17.0-2.7,87160,List2A,black,man,,,,null,,,,
10181,,,survey-text,318,1123055,0.0-17.0-3.7,87160,List2A,black,man,,,,,"{""Q0"":""dave and ruth are talking to each other""}","<img src=""stim_listA/talk2.gif""style=""height:400px;""></stim_listA>",are talking to each other,
null,"<div style=""font-size:60px;"">+</div>",,html-keyboard-response,319,1123557,0.0-17.0-0.8,87160,List2A,black,man,,,,null,,,,
null,"<img src=""stim_listA/marry3.gif""style=""height:400px;""></stim_listA>",,html-keyboard-response,320,1125560,0.0-17.0-1.8,87160,List2A,black,man,,,,null,,,,
null,is marrying,,html-keyboard-response,321,1127562,0.0-17.0-2.8,87160,List2A,black,man,,,,null,,,,
4450,,,survey-text,322,1132013,0.0-17.0-3.8,87160,List2A,black,man,,,,,"{""Q0"":""beth is marrying mike""}","<img src=""stim_listA/marry3.gif""style=""height:400px;""></stim_listA>",is marrying,
null,"<div style=""font-size:60px;"">+</div>",,html-keyboard-response,323,1132526,0.0-17.0-0.9,87160,List2A,black,man,,,,null,,,,
null,"<img src=""stim_listA/talk7.gif""style=""height:400px;""></stim_listA>",,html-keyboard-response,324,1134528,0.0-17.0-1.9,87160,List2A,black,man,,,,null,,,,
null,is talking to,,html-keyboard-response,325,1136529,0.0-17.0-2.9,87160,List2A,black,man,,,,null,,,,
5443,,,survey-text,326,1141973,0.0-17.0-3.9,87160,List2A,black,man,,,,,"{""Q0"":""ruth is talking to kate""}","<img src=""stim_listA/talk7.gif""style=""height:400px;""></stim_listA>",is talking to,
null,"<div style=""font-size:60px;"">+</div>",,html-keyboard-response,327,1142481,0.0-17.0-0.10,87160,List2A,black,man,,,,null,,,,
null,"<img src=""stim_listA/kiss1.gif""style=""height:400px;""></stim_listA>",,html-keyboard-response,328,1144484,0.0-17.0-1.10,87160,List2A,black,man,,,,null,,,,
null,is kissing,,html-keyboard-response,329,1146495,0.0-17.0-2.10,87160,List2A,black,man,,,,null,,,,
6946,,,survey-text,330,1153442,0.0-17.0-3.10,87160,List2A,black,man,,,,,"{""Q0"":""ruth is kissing luke""}","<img src=""stim_listA/kiss1.gif""style=""height:400px;""></stim_listA>",is kissing,
null,"<div style=""font-size:60px;"">+</div>",,html-keyboard-response,331,1153951,0.0-17.0-0.11,87160,List2A,black,man,,,,null,,,,
null,"<img src=""stim_listA/touch1.gif""style=""height:400px;""></stim_listA>",,html-keyboard-response,332,1155954,0.0-17.0-1.11,87160,List2A,black,man,,,,null,,,,
null,is touching,,html-keyboard-response,333,1157963,0.0-17.0-2.11,87160,List2A,black,man,,,,null,,,,
6739,,,survey-text,334,1164703,0.0-17.0-3.11,87160,List2A,black,man,,,,,"{""Q0"":""jane is touching dave""}","<img src=""stim_listA/touch1.gif""style=""height:400px;""></stim_listA>",is touching,
null,"<div style=""font-size:60px;"">+</div>",,html-keyboard-response,335,1165206,0.0-17.0-0.12,87160,List2A,black,man,,,,null,,,,
null,"<img src=""stim_listA/kiss4.gif""style=""height:400px;""></stim_listA>",,html-keyboard-response,336,1167210,0.0-17.0-1.12,87160,List2A,black,man,,,,null,,,,
null,are kissing each other,,html-keyboard-response,337,1169221,0.0-17.0-2.12,87160,List2A,black,man,,,,null,,,,
7570,,,survey-text,338,1176793,0.0-17.0-3.12,87160,List2A,black,man,,,,,"{""Q0"":""mike and kate are kissing each other""}","<img src=""stim_listA/kiss4.gif""style=""height:400px;""></stim_listA>",are kissing each other,
null,"<div style=""font-size:60px;"">+</div>",,html-keyboard-response,339,1177310,0.0-17.0-0.13,87160,List2A,black,man,,,,null,,,,
null,"<img src=""stim_listA/play1.gif""style=""height:400px;""></stim_listA>",,html-keyboard-response,340,1179313,0.0-17.0-1.13,87160,List2A,black,man,,,,null,,,,
null,is playing with,,html-keyboard-response,341,1181314,0.0-17.0-2.13,87160,List2A,black,man,,,,null,,,,
5673,,,survey-text,342,1186989,0.0-17.0-3.13,87160,List2A,black,man,,,,,"{""Q0"":""dave is playing with jane""}","<img src=""stim_listA/play1.gif""style=""height:400px;""></stim_listA>",is playing with,
null,"<div style=""font-size:60px;"">+</div>",,html-keyboard-response,343,1187498,0.0-17.0-0.14,87160,List2A,black,man,,,,null,,,,
null,"<img src=""stim_listA/dance8.gif""style=""height:400px;""></stim_listA>",,html-keyboard-response,344,1189500,0.0-17.0-1.14,87160,List2A,black,man,,,,null,,,,
null,are dancing with each other,,html-keyboard-response,345,1191512,0.0-17.0-2.14,87160,List2A,black,man,,,,null,,,,
7236,,,survey-text,346,1198749,0.0-17.0-3.14,87160,List2A,black,man,,,,,"{""Q0"":""jane and beth are dancing with each other""}","<img src=""stim_listA/dance8.gif""style=""height:400px;""></stim_listA>",are dancing with each other,
null,"<div style=""font-size:60px;"">+</div>",,html-keyboard-response,347,1199263,0.0-17.0-0.15,87160,List2A,black,man,,,,null,,,,
null,"<img src=""stim_listA/shout4.gif""style=""height:400px;""></stim_listA>",,html-keyboard-response,348,1201265,0.0-17.0-1.15,87160,List2A,black,man,,,,null,,,,
null,are shouting at each other,,html-keyboard-response,349,1203267,0.0-17.0-2.15,87160,List2A,black,man,,,,null,,,,
6646,,,survey-text,350,1209915,0.0-17.0-3.15,87160,List2A,black,man,,,,,"{""Q0"":""mike and kate are shouting at each other""}","<img src=""stim_listA/shout4.gif""style=""height:400px;""></stim_listA>",are shouting at each other,
null,"<div style=""font-size:60px;"">+</div>",,html-keyboard-response,351,1210429,0.0-17.0-0.16,87160,List2A,black,man,,,,null,,,,
null,"<img src=""stim_listA/fight6.gif""style=""height:400px;""></stim_listA>",,html-keyboard-response,352,1212432,0.0-17.0-1.16,87160,List2A,black,man,,,,null,,,,
null,are fighting each other,,html-keyboard-response,353,1214435,0.0-17.0-2.16,87160,List2A,black,man,,,,null,,,,
9011,,,survey-text,354,1223447,0.0-17.0-3.16,87160,List2A,black,man,,,,,"{""Q0"":""luke and fred are fighting each other""}","<img src=""stim_listA/fight6.gif""style=""height:400px;""></stim_listA>",are fighting each other,
null,"<div style=""font-size:60px;"">+</div>",,html-keyboard-response,355,1223955,0.0-17.0-0.17,87160,List2A,black,man,,,,null,,,,
null,"<img src=""stim_listA/play3.gif""style=""height:400px;""></stim_listA>",,html-keyboard-response,356,1225960,0.0-17.0-1.17,87160,List2A,black,man,,,,null,,,,
null,is playing with,,html-keyboard-response,357,1227973,0.0-17.0-2.17,87160,List2A,black,man,,,,null,,,,
6462,,,survey-text,358,1234436,0.0-17.0-3.17,87160,List2A,black,man,,,,,"{""Q0"":""mike is playing with kate""}","<img src=""stim_listA/play3.gif""style=""height:400px;""></stim_listA>",is playing with,
null,"<div style=""font-size:60px;"">+</div>",,html-keyboard-response,359,1234943,0.0-17.0-0.18,87160,List2A,black,man,,,,null,,,,
null,"<img src=""stim_listA/argue5.gif""style=""height:400px;""></stim_listA>",,html-keyboard-response,360,1236944,0.0-17.0-1.18,87160,List2A,black,man,,,,null,,,,
null,is arguing with,,html-keyboard-response,361,1238955,0.0-17.0-2.18,87160,List2A,black,man,,,,null,,,,
8348,,,survey-text,362,1247305,0.0-17.0-3.18,87160,List2A,black,man,,,,,"{""Q0"":""dave is arguing with fred""}","<img src=""stim_listA/argue5.gif""style=""height:400px;""></stim_listA>",is arguing with,
null,"<div style=""font-size:60px;"">+</div>",,html-keyboard-response,363,1247813,0.0-17.0-0.19,87160,List2A,black,man,,,,null,,,,
null,"<img src=""stim_listA/talk1.gif""style=""height:400px;""></stim_listA>",,html-keyboard-response,364,1249817,0.0-17.0-1.19,87160,List2A,black,man,,,,null,,,,
null,is talking to,,html-keyboard-response,365,1251820,0.0-17.0-2.19,87160,List2A,black,man,,,,null,,,,
5796,,,survey-text,366,1257617,0.0-17.0-3.19,87160,List2A,black,man,,,,,"{""Q0"":""luke is talking to jane""}","<img src=""stim_listA/talk1.gif""style=""height:400px;""></stim_listA>",is talking to,
4651,"<img src='img/portrait_matrix_list2.jpg' style='width:900px;height:500px;''></img><p>If you have memorised all the portraits and names and are ready to start, press Continue.</p><p><strong>Please note: Your memory of these faces will be tested 4 times during this experiment.</strong></p>",0,html-button-response,367,1262270,0.0-18.0-0.0,87160,List2A,black,man,,,,,,,,
1883,"<img src=""portrait/BW2.jpg""style=""height:400px;""></img>",2,html-button-response,368,1265164,0.0-18.0-1.0,87160,List2A,black,man,,TRUE,2,,,,,
null,CORRECT,,html-keyboard-response,369,1266682,0.0-18.0-2.0-0.0,87160,List2A,black,man,,,,null,,,,
2186,"<img src=""portrait/BM1.jpg""style=""height:400px;""></img>",4,html-button-response,370,1268870,0.0-18.0-4.0,87160,List2A,black,man,,TRUE,4,,,,,
null,CORRECT,,html-keyboard-response,371,1270372,0.0-18.0-5.0-0.0,87160,List2A,black,man,,,,null,,,,
1534,"<img src=""portrait/WM2.jpg""style=""height:400px;""></img>",7,html-button-response,372,1271908,0.0-18.0-7.0,87160,List2A,black,man,,TRUE,7,,,,,
null,CORRECT,,html-keyboard-response,373,1273418,0.0-18.0-8.0-0.0,87160,List2A,black,man,,,,null,,,,
1550,"<img src=""portrait/BW1.jpg""style=""height:400px;""></img>",0,html-button-response,374,1274970,0.0-18.0-10.0,87160,List2A,black,man,,TRUE,0,,,,,
null,CORRECT,,html-keyboard-response,375,1276485,0.0-18.0-11.0-0.0,87160,List2A,black,man,,,,null,,,,
1187,"<img src=""portrait/WW1.jpg""style=""height:400px;""></img>",1,html-button-response,376,1277673,0.0-18.0-13.0,87160,List2A,black,man,,TRUE,1,,,,,
null,CORRECT,,html-keyboard-response,377,1279187,0.0-18.0-14.0-0.0,87160,List2A,black,man,,,,null,,,,
1471,"<img src=""portrait/WW2.jpg""style=""height:400px;""></img>",3,html-button-response,378,1280658,0.0-18.0-16.0,87160,List2A,black,man,,TRUE,3,,,,,
null,CORRECT,,html-keyboard-response,379,1282171,0.0-18.0-17.0-0.0,87160,List2A,black,man,,,,null,,,,
1065,"<img src=""portrait/BM2.jpg""style=""height:400px;""></img>",5,html-button-response,380,1283237,0.0-18.0-19.0,87160,List2A,black,man,,TRUE,5,,,,,
null,CORRECT,,html-keyboard-response,381,1284744,0.0-18.0-20.0-0.0,87160,List2A,black,man,,,,null,,,,
1434,"<img src=""portrait/WM1.jpg""style=""height:400px;""></img>",6,html-button-response,382,1286181,0.0-18.0-22.0,87160,List2A,black,man,,TRUE,6,,,,,
null,CORRECT,,html-keyboard-response,383,1287705,0.0-18.0-23.0-0.0,87160,List2A,black,man,,,,null,,,,
1443,<p>You got 8 out of 8 right first time. Press Continue.</p>,0,html-button-response,384,1289150,0.0-18.0-25.0,87160,List2A,black,man,,,,,,,,
null,"<div style=""font-size:60px;"">+</div>",,html-keyboard-response,385,1290673,0.0-19.0-0.0,87160,List2A,black,man,,,,null,,,,
null,"<img src=""stim_listA/talk3.gif""style=""height:400px;""></stim_listA>",,html-keyboard-response,386,1292676,0.0-19.0-1.0,87160,List2A,black,man,,,,null,,,,
null,is talking to,,html-keyboard-response,387,1294682,0.0-19.0-2.0,87160,List2A,black,man,,,,null,,,,
12104,,,survey-text,388,1306787,0.0-19.0-3.0,87160,List2A,black,man,,,,,"{""Q0"":""kate is talking to beth""}","<img src=""stim_listA/talk3.gif""style=""height:400px;""></stim_listA>",is talking to,
null,"<div style=""font-size:60px;"">+</div>",,html-keyboard-response,389,1307302,0.0-19.0-0.1,87160,List2A,black,man,,,,null,,,,
null,"<img src=""stim_listA/marry5.gif""style=""height:400px;""></stim_listA>",,html-keyboard-response,390,1309310,0.0-19.0-1.1,87160,List2A,black,man,,,,null,,,,
null,is marrying,,html-keyboard-response,391,1311317,0.0-19.0-2.1,87160,List2A,black,man,,,,null,,,,
11644,,,survey-text,392,1322963,0.0-19.0-3.1,87160,List2A,black,man,,,,,"{""Q0"":""fred is marrying dave""}","<img src=""stim_listA/marry5.gif""style=""height:400px;""></stim_listA>",is marrying,
null,"<div style=""font-size:60px;"">+</div>",,html-keyboard-response,393,1323477,0.0-19.0-0.2,87160,List2A,black,man,,,,null,,,,
null,"<img src=""stim_listA/argue3.gif""style=""height:400px;""></stim_listA>",,html-keyboard-response,394,1325481,0.0-19.0-1.2,87160,List2A,black,man,,,,null,,,,
null,is arguing with,,html-keyboard-response,395,1327491,0.0-19.0-2.2,87160,List2A,black,man,,,,null,,,,
5184,,,survey-text,396,1332676,0.0-19.0-3.2,87160,List2A,black,man,,,,,"{""Q0"":""beth is arguing with mike""}","<img src=""stim_listA/argue3.gif""style=""height:400px;""></stim_listA>",is arguing with,
null,"<div style=""font-size:60px;"">+</div>",,html-keyboard-response,397,1333182,0.0-19.0-0.3,87160,List2A,black,man,,,,null,,,,
null,"<img src=""stim_listA/dance4.gif""style=""height:400px;""></stim_listA>",,html-keyboard-response,398,1335184,0.0-19.0-1.3,87160,List2A,black,man,,,,null,,,,
null,are dancing with each other,,html-keyboard-response,399,1337188,0.0-19.0-2.3,87160,List2A,black,man,,,,null,,,,
6267,,,survey-text,400,1343456,0.0-19.0-3.3,87160,List2A,black,man,,,,,"{""Q0"":""beth and mike are dancing with each other""}","<img src=""stim_listA/dance4.gif""style=""height:400px;""></stim_listA>",are dancing with each other,
null,"<div style=""font-size:60px;"">+</div>",,html-keyboard-response,401,1343970,0.0-19.0-0.4,87160,List2A,black,man,,,,null,,,,
null,"<img src=""stim_listA/kiss2.gif""style=""height:400px;""></stim_listA>",,html-keyboard-response,402,1345973,0.0-19.0-1.4,87160,List2A,black,man,,,,null,,,,
null,are kissing each other,,html-keyboard-response,403,1347988,0.0-19.0-2.4,87160,List2A,black,man,,,,null,,,,
12468,,,survey-text,404,1360457,0.0-19.0-3.4,87160,List2A,black,man,,,,,"{""Q0"":""jane and dave are kissing each other""}","<img src=""stim_listA/kiss2.gif""style=""height:400px;""></stim_listA>",are kissing each other,
null,"<div style=""font-size:60px;"">+</div>",,html-keyboard-response,405,1360973,0.0-19.0-0.5,87160,List2A,black,man,,,,null,,,,
null,"<img src=""stim_listA/kiss6.gif""style=""height:400px;""></stim_listA>",,html-keyboard-response,406,1362974,0.0-19.0-1.5,87160,List2A,black,man,,,,null,,,,
null,are kissing each other,,html-keyboard-response,407,1364979,0.0-19.0-2.5,87160,List2A,black,man,,,,null,,,,
5825,,,survey-text,408,1370806,0.0-19.0-3.5,87160,List2A,black,man,,,,,"{""Q0"":""dave and mike are kissing each other""}","<img src=""stim_listA/kiss6.gif""style=""height:400px;""></stim_listA>",are kissing each other,
null,"<div style=""font-size:60px;"">+</div>",,html-keyboard-response,409,1371318,0.0-19.0-0.6,87160,List2A,black,man,,,,null,,,,
null,"<img src=""stim_listA/dance3.gif""style=""height:400px;""></stim_listA>",,html-keyboard-response,410,1373321,0.0-19.0-1.6,87160,List2A,black,man,,,,null,,,,
null,is dancing with,,html-keyboard-response,411,1375324,0.0-19.0-2.6,87160,List2A,black,man,,,,null,,,,
5387,,,survey-text,412,1380712,0.0-19.0-3.6,87160,List2A,black,man,,,,,"{""Q0"":""fred is dancing with kate""}","<img src=""stim_listA/dance3.gif""style=""height:400px;""></stim_listA>",is dancing with,
null,"<div style=""font-size:60px;"">+</div>",,html-keyboard-response,413,1381218,0.0-19.0-0.7,87160,List2A,black,man,,,,null,,,,
null,"<img src=""stim_listA/fight2.gif""style=""height:400px;""></stim_listA>",,html-keyboard-response,414,1383225,0.0-19.0-1.7,87160,List2A,black,man,,,,null,,,,
null,are fighting each other,,html-keyboard-response,415,1385241,0.0-19.0-2.7,87160,List2A,black,man,,,,null,,,,
8490,,,survey-text,416,1393733,0.0-19.0-3.7,87160,List2A,black,man,,,,,"{""Q0"":""luke and ruth are fighting each other""}","<img src=""stim_listA/fight2.gif""style=""height:400px;""></stim_listA>",are fighting each other,
null,"<div style=""font-size:60px;"">+</div>",,html-keyboard-response,417,1394243,0.0-19.0-0.8,87160,List2A,black,man,,,,null,,,,
null,"<img src=""stim_listA/dance7.gif""style=""height:400px;""></stim_listA>",,html-keyboard-response,418,1396244,0.0-19.0-1.8,87160,List2A,black,man,,,,null,,,,
null,is dancing with,,html-keyboard-response,419,1398257,0.0-19.0-2.8,87160,List2A,black,man,,,,null,,,,
11151,,,survey-text,420,1409409,0.0-19.0-3.8,87160,List2A,black,man,,,,,"{""Q0"":""ruth is dancing with kate""}","<img src=""stim_listA/dance7.gif""style=""height:400px;""></stim_listA>",is dancing with,
null,"<div style=""font-size:60px;"">+</div>",,html-keyboard-response,421,1409919,0.0-19.0-0.9,87160,List2A,black,man,,,,null,,,,
null,"<img src=""stim_listA/argue7.gif""style=""height:400px;""></stim_listA>",,html-keyboard-response,422,1411922,0.0-19.0-1.9,87160,List2A,black,man,,,,null,,,,
null,is arguing with,,html-keyboard-response,423,1413923,0.0-19.0-2.9,87160,List2A,black,man,,,,null,,,,
7210,,,survey-text,424,1421134,0.0-19.0-3.9,87160,List2A,black,man,,,,,"{""Q0"":""beth is arguing with jane""}","<img src=""stim_listA/argue7.gif""style=""height:400px;""></stim_listA>",is arguing with,
null,"<div style=""font-size:60px;"">+</div>",,html-keyboard-response,425,1421645,0.0-19.0-0.10,87160,List2A,black,man,,,,null,,,,
null,"<img src=""stim_listA/marry4.gif""style=""height:400px;""></stim_listA>",,html-keyboard-response,426,1423646,0.0-19.0-1.10,87160,List2A,black,man,,,,null,,,,
null,are marrying each other,,html-keyboard-response,427,1425649,0.0-19.0-2.10,87160,List2A,black,man,,,,null,,,,
7397,,,survey-text,428,1433048,0.0-19.0-3.10,87160,List2A,black,man,,,,,"{""Q0"":""kate and fred are marrying each other""}","<img src=""stim_listA/marry4.gif""style=""height:400px;""></stim_listA>",are marrying each other,
null,"<div style=""font-size:60px;"">+</div>",,html-keyboard-response,429,1433557,0.0-19.0-0.11,87160,List2A,black,man,,,,null,,,,
null,"<img src=""stim_listA/marry2.gif""style=""height:400px;""></stim_listA>",,html-keyboard-response,430,1435559,0.0-19.0-1.11,87160,List2A,black,man,,,,null,,,,
null,are marrying each other,,html-keyboard-response,431,1437565,0.0-19.0-2.11,87160,List2A,black,man,,,,null,,,,
5860,,,survey-text,432,1443426,0.0-19.0-3.11,87160,List2A,black,man,,,,,"{""Q0"":""luke and jane are marrying each other""}","<img src=""stim_listA/marry2.gif""style=""height:400px;""></stim_listA>",are marrying each other,
null,"<div style=""font-size:60px;"">+</div>",,html-keyboard-response,433,1443940,0.0-19.0-0.12,87160,List2A,black,man,,,,null,,,,
null,"<img src=""stim_listA/talk6.gif""style=""height:400px;""></stim_listA>",,html-keyboard-response,434,1445943,0.0-19.0-1.12,87160,List2A,black,man,,,,null,,,,
null,are talking to each other,,html-keyboard-response,435,1447944,0.0-19.0-2.12,87160,List2A,black,man,,,,null,,,,
5571,,,survey-text,436,1453516,0.0-19.0-3.12,87160,List2A,black,man,,,,,"{""Q0"":""fred and dave are talking to each other""}","<img src=""stim_listA/talk6.gif""style=""height:400px;""></stim_listA>",are talking to each other,
null,"<div style=""font-size:60px;"">+</div>",,html-keyboard-response,437,1454026,0.0-19.0-0.13,87160,List2A,black,man,,,,null,,,,
null,"<img src=""stim_listA/shout3.gif""style=""height:400px;""></stim_listA>",,html-keyboard-response,438,1456028,0.0-19.0-1.13,87160,List2A,black,man,,,,null,,,,
null,is shouting at,,html-keyboard-response,439,1458029,0.0-19.0-2.13,87160,List2A,black,man,,,,null,,,,
5338,,,survey-text,440,1463368,0.0-19.0-3.13,87160,List2A,black,man,,,,,"{""Q0"":""fred is shouting at beth""}","<img src=""stim_listA/shout3.gif""style=""height:400px;""></stim_listA>",is shouting at,
null,"<div style=""font-size:60px;"">+</div>",,html-keyboard-response,441,1463882,0.0-19.0-0.14,87160,List2A,black,man,,,,null,,,,
null,"<img src=""stim_listA/flirt3.gif""style=""height:400px;""></stim_listA>",,html-keyboard-response,442,1465885,0.0-19.0-1.14,87160,List2A,black,man,,,,null,,,,
null,is flirting with,,html-keyboard-response,443,1467894,0.0-19.0-2.14,87160,List2A,black,man,,,,null,,,,
6132,,,survey-text,444,1474027,0.0-19.0-3.14,87160,List2A,black,man,,,,,"{""Q0"":""fred is flirting with kate""}","<img src=""stim_listA/flirt3.gif""style=""height:400px;""></stim_listA>",is flirting with,
null,"<div style=""font-size:60px;"">+</div>",,html-keyboard-response,445,1474536,0.0-19.0-0.15,87160,List2A,black,man,,,,null,,,,
null,"<img src=""stim_listA/dance2.gif""style=""height:400px;""></stim_listA>",,html-keyboard-response,446,1476540,0.0-19.0-1.15,87160,List2A,black,man,,,,null,,,,
null,are dancing with each other,,html-keyboard-response,447,1478553,0.0-19.0-2.15,87160,List2A,black,man,,,,null,,,,
6950,,,survey-text,448,1485505,0.0-19.0-3.15,87160,List2A,black,man,,,,,"{""Q0"":""ruth and dave are dancing with each other""}","<img src=""stim_listA/dance2.gif""style=""height:400px;""></stim_listA>",are dancing with each other,
null,"<div style=""font-size:60px;"">+</div>",,html-keyboard-response,449,1486007,0.0-19.0-0.16,87160,List2A,black,man,,,,null,,,,
null,"<img src=""stim_listA/talk5.gif""style=""height:400px;""></stim_listA>",,html-keyboard-response,450,1488011,0.0-19.0-1.16,87160,List2A,black,man,,,,null,,,,
null,is talking to,,html-keyboard-response,451,1490013,0.0-19.0-2.16,87160,List2A,black,man,,,,null,,,,
6255,,,survey-text,452,1496269,0.0-19.0-3.16,87160,List2A,black,man,,,,,"{""Q0"":""mike is talking to luke""}","<img src=""stim_listA/talk5.gif""style=""height:400px;""></stim_listA>",is talking to,
null,"<div style=""font-size:60px;"">+</div>",,html-keyboard-response,453,1496779,0.0-19.0-0.17,87160,List2A,black,man,,,,null,,,,
null,"<img src=""stim_listA/shout1.gif""style=""height:400px;""></stim_listA>",,html-keyboard-response,454,1498781,0.0-19.0-1.17,87160,List2A,black,man,,,,null,,,,
null,is shouting at,,html-keyboard-response,455,1500784,0.0-19.0-2.17,87160,List2A,black,man,,,,null,,,,
6029,,,survey-text,456,1506815,0.0-19.0-3.17,87160,List2A,black,man,,,,,"{""Q0"":""luke is shouting at ruth""}","<img src=""stim_listA/shout1.gif""style=""height:400px;""></stim_listA>",is shouting at,
null,"<div style=""font-size:60px;"">+</div>",,html-keyboard-response,457,1507319,0.0-19.0-0.18,87160,List2A,black,man,,,,null,,,,
null,"<img src=""stim_listA/fight4.gif""style=""height:400px;""></stim_listA>",,html-keyboard-response,458,1509321,0.0-19.0-1.18,87160,List2A,black,man,,,,null,,,,
null,are fighting each other,,html-keyboard-response,459,1511336,0.0-19.0-2.18,87160,List2A,black,man,,,,null,,,,
11123,,,survey-text,460,1522461,0.0-19.0-3.18,87160,List2A,black,man,,,,,"{""Q0"":""beth and fred are fighting with each other""}","<img src=""stim_listA/fight4.gif""style=""height:400px;""></stim_listA>",are fighting each other,
null,"<div style=""font-size:60px;"">+</div>",,html-keyboard-response,461,1522964,0.0-19.0-0.19,87160,List2A,black,man,,,,null,,,,
null,"<img src=""stim_listA/flirt4.gif""style=""height:400px;""></stim_listA>",,html-keyboard-response,462,1524966,0.0-19.0-1.19,87160,List2A,black,man,,,,null,,,,
null,are flirting with each other,,html-keyboard-response,463,1526972,0.0-19.0-2.19,87160,List2A,black,man,,,,null,,,,
8511,,,survey-text,464,1535483,0.0-19.0-3.19,87160,List2A,black,man,,,,,"{""Q0"":""mike and beth are flirting with each other""}","<img src=""stim_listA/flirt4.gif""style=""height:400px;""></stim_listA>",are flirting with each other,
1859,<p>Thank you for completing that task.</p><p>The final part of this session is a short questionnaire.</p><p>Press Continue.</p>,0,html-button-response,465,1537342,0.0-20.0,87160,List2A,black,man,,,,,,,,
18442,,,survey-text,466,1556787,0.0-21.0,87160,List2A,black,man,,,,,"{""Q0"":""21"",""Q1"":""english"",""Q2"":""english"",""Q3"":""United States"",""Q4"":""black"",""Q5"":""male""}",,,demographics
4942,,,survey-likert,467,1561734,0.0-22.0,87160,List2A,black,man,,,,,"{""Q0"":4}",,,likert_ESS
8635,,,survey-likert,468,1570373,0.0-23.0,87160,List2A,black,man,,,,,"{""Q0"":4}",,,likert_NSSAL_Q1
3588,,,survey-likert,469,1573965,0.0-24.0,87160,List2A,black,man,,,,,"{""Q0"":4}",,,likert_NSSAL_Q2
3841,,,survey-likert,470,1577810,0.0-25.0,87160,List2A,black,man,,,,,"{""Q0"":4}",,,likert_CGRS_Q1
2929,,,survey-likert,471,1580744,0.0-26.0,87160,List2A,black,man,,,,,"{""Q0"":4}",,,likert_CGRS_Q2
2566,,,survey-likert,472,1583314,0.0-27.0,87160,List2A,black,man,,,,,"{""Q0"":4}",,,likert_CGRS_Q3
7571,,,survey-text,473,1590885,0.0-28.0,87160,List2A,black,man,,,,,"{""Q0"":""ccc""}",,,worker_id
31983,,,external-html,474,1623189,0.0-29.0,87160,List2A,black,man,debrief.html,,,,,,,
