rt,stimulus,button_pressed,trial_type,trial_index,time_elapsed,internal_node_id,subject,list,ppt_race,ppt_gender,url,first_guess,correct,key_press,responses,image_type,phrase_type,test_part
2672,Welcome to the experiment. Press Continue to begin.,0,html-button-response,0,2681,0.0-0.0,87306,List2B,black,woman,,,,,,,,
95146,,,external-html,1,98969,0.0-1.0,87306,List2B,black,woman,consent.html,,,,,,,
23746,"<p>On the next page, you will see portraits of 8 people and their names.</p><p>Your first task is to take a few minutes to memorise the names of these people.</p><p>You will have to recall their names during the rest of the experiment, so it is</p><p>essential that you try to memorise these people and their names as best as you can.</p><br><p><strong>You will then be tested on your memory of these names and portraits.</strong></p><br><p>The experiment will start after you have completed this memory test.</p><br><p>Ready?</p>",0,html-button-response,2,122720,0.0-2.0,87306,List2B,black,woman,,,,,,,,
192434,"<img src='img/portrait_matrix_list2.jpg' style='width:900px;height:500px;''></img><p>If you have memorised all the portraits and names and are ready to start, press Continue.</p><p><strong>Please note: Your memory of these faces will be tested 4 times during this experiment.</strong></p>",0,html-button-response,3,316165,0.0-3.0-0.0,87306,List2B,black,woman,,,,,,,,
8301,"<img src=""portrait/BW1.jpg""style=""height:400px;""></img>",0,html-button-response,4,325475,0.0-3.0-1.0,87306,List2B,black,woman,,TRUE,0,,,,,
null,CORRECT,,html-keyboard-response,5,326984,0.0-3.0-2.0-0.0,87306,List2B,black,woman,,,,null,,,,
7004,"<img src=""portrait/WM2.jpg""style=""height:400px;""></img>",7,html-button-response,6,333997,0.0-3.0-4.0,87306,List2B,black,woman,,TRUE,7,,,,,
null,CORRECT,,html-keyboard-response,7,335507,0.0-3.0-5.0-0.0,87306,List2B,black,woman,,,,null,,,,
3750,"<img src=""portrait/WM1.jpg""style=""height:400px;""></img>",6,html-button-response,8,339264,0.0-3.0-7.0,87306,List2B,black,woman,,TRUE,6,,,,,
null,CORRECT,,html-keyboard-response,9,340768,0.0-3.0-8.0-0.0,87306,List2B,black,woman,,,,null,,,,
2504,"<img src=""portrait/BW2.jpg""style=""height:400px;""></img>",2,html-button-response,10,343278,0.0-3.0-10.0,87306,List2B,black,woman,,TRUE,2,,,,,
null,CORRECT,,html-keyboard-response,11,344782,0.0-3.0-11.0-0.0,87306,List2B,black,woman,,,,null,,,,
1851,"<img src=""portrait/WW2.jpg""style=""height:400px;""></img>",3,html-button-response,12,346638,0.0-3.0-13.0,87306,List2B,black,woman,,TRUE,3,,,,,
null,CORRECT,,html-keyboard-response,13,348156,0.0-3.0-14.0-0.0,87306,List2B,black,woman,,,,null,,,,
4909,"<img src=""portrait/WW1.jpg""style=""height:400px;""></img>",1,html-button-response,14,353070,0.0-3.0-16.0,87306,List2B,black,woman,,TRUE,1,,,,,
null,CORRECT,,html-keyboard-response,15,354577,0.0-3.0-17.0-0.0,87306,List2B,black,woman,,,,null,,,,
2548,"<img src=""portrait/BM1.jpg""style=""height:400px;""></img>",4,html-button-response,16,357130,0.0-3.0-19.0,87306,List2B,black,woman,,TRUE,4,,,,,
null,CORRECT,,html-keyboard-response,17,358649,0.0-3.0-20.0-0.0,87306,List2B,black,woman,,,,null,,,,
2110,"<img src=""portrait/BM2.jpg""style=""height:400px;""></img>",5,html-button-response,18,360764,0.0-3.0-22.0,87306,List2B,black,woman,,TRUE,5,,,,,
null,CORRECT,,html-keyboard-response,19,362268,0.0-3.0-23.0-0.0,87306,List2B,black,woman,,,,null,,,,
1745,<p>You got 8 out of 8 right first time. Press Continue.</p>,0,html-button-response,20,364022,0.0-3.0-25.0,87306,List2B,black,woman,,,,,,,,
97769,"<p>In this experiment, you will view photographs of the people from the memory game interacting.</p><p>By using the <strong>exact</strong> phrase given <i>after</i> the photograph appears and recalling the correct names of the people in the photographs, form a sentence describing the interaction. You do not need to capitalise names.</p><p>Type your answer in the space provided. Please complete every sentence before moving onto the next trial.</p><p>You will only have a few seconds to memorise each given photograph and phrase before you can respond, so try your best to focus.</p><p>An example is given below. Press 'Continue' when you are ready.</p><img src='img/speaking_example.jpg' style='width:800px;height:460px;''></img>",0,html-button-response,21,462801,0.0-4.0,87306,List2B,black,woman,,,,,,,,
3555,"<p>Before the experiment starts, you will watch two example trials. Press 'Continue'.</p>",0,html-button-response,22,467359,0.0-5.0,87306,List2B,black,woman,,,,,,,,
null,<img src='img/meet_eg.gif' style='height:400px;''></img>,,html-keyboard-response,23,470365,0.0-6.0,87306,List2B,black,woman,,,,null,,,,
null,<p>is meeting</p>,,html-keyboard-response,24,472368,0.0-7.0,87306,List2B,black,woman,,,,null,,,,
2754,<p><b>Answer:</b> jane is meeting ruth</p>,0,html-button-response,25,475125,0.0-8.0,87306,List2B,black,woman,,,,,,,,
null,<img src='img/look_eg.gif' style='height:400px;''></img>,,html-keyboard-response,26,478132,0.0-9.0,87306,List2B,black,woman,,,,null,,,,
null,<p>are looking at each other</p>,,html-keyboard-response,27,480134,0.0-10.0,87306,List2B,black,woman,,,,null,,,,
5953,<p><b>Answer:</b> fred and mike are looking at each other</p>,0,html-button-response,28,486091,0.0-11.0,87306,List2B,black,woman,,,,,,,,
18611,"<p>Ready to start the experiment?</p><br><p><strong>Remember to describe the picture using a full sentence,</strong></p><p><strong>that combines the names of the people with the <i>exact</i> phrase given.</strong></p><p><strong>To receive full payment you must do this correctly.</strong></p><p><strong> You do not need to capitalise names or use punctuation.</strong></p><br><p>Press 'Continue' to begin.</p>",0,html-button-response,29,505715,0.0-12.0,87306,List2B,black,woman,,,,,,,,
null,"<div style=""font-size:60px;"">+</div>",,html-keyboard-response,30,507219,0.0-13.0-0.0,87306,List2B,black,woman,,,,null,,,,
null,"<img src=""stim_listB/shout8.gif""style=""height:400px;""></stim_listB>",,html-keyboard-response,31,509227,0.0-13.0-1.0,87306,List2B,black,woman,,,,null,,,,
null,are shouting at each other,,html-keyboard-response,32,511232,0.0-13.0-2.0,87306,List2B,black,woman,,,,null,,,,
13656,,,survey-text,33,524894,0.0-13.0-3.0,87306,List2B,black,woman,,,,,"{""Q0"":""Kate and Jane are shouting at each other""}","<img src=""stim_listB/shout8.gif""style=""height:400px;""></stim_listB>",are shouting at each other,
null,"<div style=""font-size:60px;"">+</div>",,html-keyboard-response,34,525400,0.0-13.0-0.1,87306,List2B,black,woman,,,,null,,,,
null,"<img src=""stim_listB/play8.gif""style=""height:400px;""></stim_listB>",,html-keyboard-response,35,527404,0.0-13.0-1.1,87306,List2B,black,woman,,,,null,,,,
null,are playing with each other,,html-keyboard-response,36,529407,0.0-13.0-2.1,87306,List2B,black,woman,,,,null,,,,
26626,,,survey-text,37,556036,0.0-13.0-3.1,87306,List2B,black,woman,,,,,"{""Q0"":""Ruth and Beth are playing with each other""}","<img src=""stim_listB/play8.gif""style=""height:400px;""></stim_listB>",are playing with each other,
null,"<div style=""font-size:60px;"">+</div>",,html-keyboard-response,38,556542,0.0-13.0-0.2,87306,List2B,black,woman,,,,null,,,,
null,"<img src=""stim_listB/flirt5.gif""style=""height:400px;""></stim_listB>",,html-keyboard-response,39,558546,0.0-13.0-1.2,87306,List2B,black,woman,,,,null,,,,
null,is flirting with,,html-keyboard-response,40,560551,0.0-13.0-2.2,87306,List2B,black,woman,,,,null,,,,
16175,,,survey-text,41,576733,0.0-13.0-3.2,87306,List2B,black,woman,,,,,"{""Q0"":""Mike is flirting with Luke""}","<img src=""stim_listB/flirt5.gif""style=""height:400px;""></stim_listB>",is flirting with,
null,"<div style=""font-size:60px;"">+</div>",,html-keyboard-response,42,577239,0.0-13.0-0.3,87306,List2B,black,woman,,,,null,,,,
null,"<img src=""stim_listB/kiss4.gif""style=""height:400px;""></stim_listB>",,html-keyboard-response,43,579246,0.0-13.0-1.3,87306,List2B,black,woman,,,,null,,,,
null,are kissing each other,,html-keyboard-response,44,581250,0.0-13.0-2.3,87306,List2B,black,woman,,,,null,,,,
8453,,,survey-text,45,589708,0.0-13.0-3.3,87306,List2B,black,woman,,,,,"{""Q0"":""Kate and Mike are kissing each other""}","<img src=""stim_listB/kiss4.gif""style=""height:400px;""></stim_listB>",are kissing each other,
null,"<div style=""font-size:60px;"">+</div>",,html-keyboard-response,46,590212,0.0-13.0-0.4,87306,List2B,black,woman,,,,null,,,,
null,"<img src=""stim_listB/fight2.gif""style=""height:400px;""></stim_listB>",,html-keyboard-response,47,592216,0.0-13.0-1.4,87306,List2B,black,woman,,,,null,,,,
null,are fighting each other,,html-keyboard-response,48,594225,0.0-13.0-2.4,87306,List2B,black,woman,,,,null,,,,
10253,,,survey-text,49,604483,0.0-13.0-3.4,87306,List2B,black,woman,,,,,"{""Q0"":""Luke and Ruth are fighting each other""}","<img src=""stim_listB/fight2.gif""style=""height:400px;""></stim_listB>",are fighting each other,
null,"<div style=""font-size:60px;"">+</div>",,html-keyboard-response,50,604996,0.0-13.0-0.5,87306,List2B,black,woman,,,,null,,,,
null,"<img src=""stim_listB/flirt8.gif""style=""height:400px;""></stim_listB>",,html-keyboard-response,51,607014,0.0-13.0-1.5,87306,List2B,black,woman,,,,null,,,,
null,are flirting with each other,,html-keyboard-response,52,609018,0.0-13.0-2.5,87306,List2B,black,woman,,,,null,,,,
10237,,,survey-text,53,619259,0.0-13.0-3.5,87306,List2B,black,woman,,,,,"{""Q0"":""Jane and Kate are flirting with each other""}","<img src=""stim_listB/flirt8.gif""style=""height:400px;""></stim_listB>",are flirting with each other,
null,"<div style=""font-size:60px;"">+</div>",,html-keyboard-response,54,619763,0.0-13.0-0.6,87306,List2B,black,woman,,,,null,,,,
null,"<img src=""stim_listB/argue4.gif""style=""height:400px;""></stim_listB>",,html-keyboard-response,55,621771,0.0-13.0-1.6,87306,List2B,black,woman,,,,null,,,,
null,are arguing with each other,,html-keyboard-response,56,623774,0.0-13.0-2.6,87306,List2B,black,woman,,,,null,,,,
16575,,,survey-text,57,640353,0.0-13.0-3.6,87306,List2B,black,woman,,,,,"{""Q0"":""Kate and Fred are arguing with each other""}","<img src=""stim_listB/argue4.gif""style=""height:400px;""></stim_listB>",are arguing with each other,
null,"<div style=""font-size:60px;"">+</div>",,html-keyboard-response,58,640856,0.0-13.0-0.7,87306,List2B,black,woman,,,,null,,,,
null,"<img src=""stim_listB/talk6.gif""style=""height:400px;""></stim_listB>",,html-keyboard-response,59,642861,0.0-13.0-1.7,87306,List2B,black,woman,,,,null,,,,
null,are talking to each other,,html-keyboard-response,60,644865,0.0-13.0-2.7,87306,List2B,black,woman,,,,null,,,,
18754,,,survey-text,61,663623,0.0-13.0-3.7,87306,List2B,black,woman,,,,,"{""Q0"":""Fred and Dave are talking to each other""}","<img src=""stim_listB/talk6.gif""style=""height:400px;""></stim_listB>",are talking to each other,
null,"<div style=""font-size:60px;"">+</div>",,html-keyboard-response,62,664127,0.0-13.0-0.8,87306,List2B,black,woman,,,,null,,,,
null,"<img src=""stim_listB/marry2.gif""style=""height:400px;""></stim_listB>",,html-keyboard-response,63,666135,0.0-13.0-1.8,87306,List2B,black,woman,,,,null,,,,
null,are marrying each other,,html-keyboard-response,64,668139,0.0-13.0-2.8,87306,List2B,black,woman,,,,null,,,,
12212,,,survey-text,65,680353,0.0-13.0-3.8,87306,List2B,black,woman,,,,,"{""Q0"":""Luke and Jane are marrying each other""}","<img src=""stim_listB/marry2.gif""style=""height:400px;""></stim_listB>",are marrying each other,
null,"<div style=""font-size:60px;"">+</div>",,html-keyboard-response,66,680869,0.0-13.0-0.9,87306,List2B,black,woman,,,,null,,,,
null,"<img src=""stim_listB/shout3.gif""style=""height:400px;""></stim_listB>",,html-keyboard-response,67,682873,0.0-13.0-1.9,87306,List2B,black,woman,,,,null,,,,
null,is shouting at,,html-keyboard-response,68,684876,0.0-13.0-2.9,87306,List2B,black,woman,,,,null,,,,
14397,,,survey-text,69,699278,0.0-13.0-3.9,87306,List2B,black,woman,,,,,"{""Q0"":""Beth is shouting at Fred""}","<img src=""stim_listB/shout3.gif""style=""height:400px;""></stim_listB>",is shouting at,
null,"<div style=""font-size:60px;"">+</div>",,html-keyboard-response,70,699783,0.0-13.0-0.10,87306,List2B,black,woman,,,,null,,,,
null,"<img src=""stim_listB/marry1.gif""style=""height:400px;""></stim_listB>",,html-keyboard-response,71,701788,0.0-13.0-1.10,87306,List2B,black,woman,,,,null,,,,
null,is marrying,,html-keyboard-response,72,703791,0.0-13.0-2.10,87306,List2B,black,woman,,,,null,,,,
12414,,,survey-text,73,716209,0.0-13.0-3.10,87306,List2B,black,woman,,,,,"{""Q0"":""Ruth is marrying Dave""}","<img src=""stim_listB/marry1.gif""style=""height:400px;""></stim_listB>",is marrying,
null,"<div style=""font-size:60px;"">+</div>",,html-keyboard-response,74,716713,0.0-13.0-0.11,87306,List2B,black,woman,,,,null,,,,
null,"<img src=""stim_listB/shout2.gif""style=""height:400px;""></stim_listB>",,html-keyboard-response,75,718716,0.0-13.0-1.11,87306,List2B,black,woman,,,,null,,,,
null,are shouting at each other,,html-keyboard-response,76,720720,0.0-13.0-2.11,87306,List2B,black,woman,,,,null,,,,
17229,,,survey-text,77,737958,0.0-13.0-3.11,87306,List2B,black,woman,,,,,"{""Q0"":""Jane and Dave are shouting at each other""}","<img src=""stim_listB/shout2.gif""style=""height:400px;""></stim_listB>",are shouting at each other,
null,"<div style=""font-size:60px;"">+</div>",,html-keyboard-response,78,738462,0.0-13.0-0.12,87306,List2B,black,woman,,,,null,,,,
null,"<img src=""stim_listB/argue3.gif""style=""height:400px;""></stim_listB>",,html-keyboard-response,79,740466,0.0-13.0-1.12,87306,List2B,black,woman,,,,null,,,,
null,is arguing with,,html-keyboard-response,80,742468,0.0-13.0-2.12,87306,List2B,black,woman,,,,null,,,,
14751,,,survey-text,81,757223,0.0-13.0-3.12,87306,List2B,black,woman,,,,,"{""Q0"":""Mike is arguing with Beth""}","<img src=""stim_listB/argue3.gif""style=""height:400px;""></stim_listB>",is arguing with,
null,"<div style=""font-size:60px;"">+</div>",,html-keyboard-response,82,757726,0.0-13.0-0.13,87306,List2B,black,woman,,,,null,,,,
null,"<img src=""stim_listB/fight6.gif""style=""height:400px;""></stim_listB>",,html-keyboard-response,83,759731,0.0-13.0-1.13,87306,List2B,black,woman,,,,null,,,,
null,are fighting each other,,html-keyboard-response,84,761733,0.0-13.0-2.13,87306,List2B,black,woman,,,,null,,,,
11905,,,survey-text,85,773642,0.0-13.0-3.13,87306,List2B,black,woman,,,,,"{""Q0"":""Fred and Luke are fighting each other""}","<img src=""stim_listB/fight6.gif""style=""height:400px;""></stim_listB>",are fighting each other,
null,"<div style=""font-size:60px;"">+</div>",,html-keyboard-response,86,774146,0.0-13.0-0.14,87306,List2B,black,woman,,,,null,,,,
null,"<img src=""stim_listB/shout6.gif""style=""height:400px;""></stim_listB>",,html-keyboard-response,87,776151,0.0-13.0-1.14,87306,List2B,black,woman,,,,null,,,,
null,are shouting at each other,,html-keyboard-response,88,778158,0.0-13.0-2.14,87306,List2B,black,woman,,,,null,,,,
16974,,,survey-text,89,795136,0.0-13.0-3.14,87306,List2B,black,woman,,,,,"{""Q0"":""Mike and Dave are shouting at each other""}","<img src=""stim_listB/shout6.gif""style=""height:400px;""></stim_listB>",are shouting at each other,
null,"<div style=""font-size:60px;"">+</div>",,html-keyboard-response,90,795643,0.0-13.0-0.15,87306,List2B,black,woman,,,,null,,,,
null,"<img src=""stim_listB/touch4.gif""style=""height:400px;""></stim_listB>",,html-keyboard-response,91,797650,0.0-13.0-1.15,87306,List2B,black,woman,,,,null,,,,
null,are touching each other,,html-keyboard-response,92,799657,0.0-13.0-2.15,87306,List2B,black,woman,,,,null,,,,
10944,,,survey-text,93,810606,0.0-13.0-3.15,87306,List2B,black,woman,,,,,"{""Q0"":""Beth and Fred are touching each other""}","<img src=""stim_listB/touch4.gif""style=""height:400px;""></stim_listB>",are touching each other,
null,"<div style=""font-size:60px;"">+</div>",,html-keyboard-response,94,811109,0.0-13.0-0.16,87306,List2B,black,woman,,,,null,,,,
null,"<img src=""stim_listB/argue8.gif""style=""height:400px;""></stim_listB>",,html-keyboard-response,95,813114,0.0-13.0-1.16,87306,List2B,black,woman,,,,null,,,,
null,are arguing with each other,,html-keyboard-response,96,815118,0.0-13.0-2.16,87306,List2B,black,woman,,,,null,,,,
15364,,,survey-text,97,830486,0.0-13.0-3.16,87306,List2B,black,woman,,,,,"{""Q0"":""Kate and Ruth are arguing with each other""}","<img src=""stim_listB/argue8.gif""style=""height:400px;""></stim_listB>",are arguing with each other,
null,"<div style=""font-size:60px;"">+</div>",,html-keyboard-response,98,830990,0.0-13.0-0.17,87306,List2B,black,woman,,,,null,,,,
null,"<img src=""stim_listB/marry3.gif""style=""height:400px;""></stim_listB>",,html-keyboard-response,99,832994,0.0-13.0-1.17,87306,List2B,black,woman,,,,null,,,,
null,is marrying,,html-keyboard-response,100,834997,0.0-13.0-2.17,87306,List2B,black,woman,,,,null,,,,
8933,,,survey-text,101,843935,0.0-13.0-3.17,87306,List2B,black,woman,,,,,"{""Q0"":""Beth is marrying Mike""}","<img src=""stim_listB/marry3.gif""style=""height:400px;""></stim_listB>",is marrying,
null,"<div style=""font-size:60px;"">+</div>",,html-keyboard-response,102,844439,0.0-13.0-0.18,87306,List2B,black,woman,,,,null,,,,
null,"<img src=""stim_listB/talk5.gif""style=""height:400px;""></stim_listB>",,html-keyboard-response,103,846448,0.0-13.0-1.18,87306,List2B,black,woman,,,,null,,,,
null,is talking to,,html-keyboard-response,104,848454,0.0-13.0-2.18,87306,List2B,black,woman,,,,null,,,,
8833,,,survey-text,105,857291,0.0-13.0-3.18,87306,List2B,black,woman,,,,,"{""Q0"":""Mike is talking to Luke""}","<img src=""stim_listB/talk5.gif""style=""height:400px;""></stim_listB>",is talking to,
null,"<div style=""font-size:60px;"">+</div>",,html-keyboard-response,106,857799,0.0-13.0-0.19,87306,List2B,black,woman,,,,null,,,,
null,"<img src=""stim_listB/kiss6.gif""style=""height:400px;""></stim_listB>",,html-keyboard-response,107,859804,0.0-13.0-1.19,87306,List2B,black,woman,,,,null,,,,
null,are kissing each other,,html-keyboard-response,108,861806,0.0-13.0-2.19,87306,List2B,black,woman,,,,null,,,,
10102,,,survey-text,109,871914,0.0-13.0-3.19,87306,List2B,black,woman,,,,,"{""Q0"":""Mike and Dave are kissing each other""}","<img src=""stim_listB/kiss6.gif""style=""height:400px;""></stim_listB>",are kissing each other,
27723,"<img src='img/portrait_matrix_list2.jpg' style='width:900px;height:500px;''></img><p>If you have memorised all the portraits and names and are ready to start, press Continue.</p><p><strong>Please note: Your memory of these faces will be tested 4 times during this experiment.</strong></p>",0,html-button-response,110,899643,0.0-14.0-0.0,87306,List2B,black,woman,,,,,,,,
3288,"<img src=""portrait/BM2.jpg""style=""height:400px;""></img>",5,html-button-response,111,903941,0.0-14.0-1.0,87306,List2B,black,woman,,TRUE,5,,,,,
null,CORRECT,,html-keyboard-response,112,905446,0.0-14.0-2.0-0.0,87306,List2B,black,woman,,,,null,,,,
5197,"<img src=""portrait/WW2.jpg""style=""height:400px;""></img>",3,html-button-response,113,910649,0.0-14.0-4.0,87306,List2B,black,woman,,TRUE,3,,,,,
null,CORRECT,,html-keyboard-response,114,912153,0.0-14.0-5.0-0.0,87306,List2B,black,woman,,,,null,,,,
3962,"<img src=""portrait/BW1.jpg""style=""height:400px;""></img>",0,html-button-response,115,916121,0.0-14.0-7.0,87306,List2B,black,woman,,TRUE,0,,,,,
null,CORRECT,,html-keyboard-response,116,917625,0.0-14.0-8.0-0.0,87306,List2B,black,woman,,,,null,,,,
3213,"<img src=""portrait/WM2.jpg""style=""height:400px;""></img>",7,html-button-response,117,920845,0.0-14.0-10.0,87306,List2B,black,woman,,TRUE,7,,,,,
null,CORRECT,,html-keyboard-response,118,922350,0.0-14.0-11.0-0.0,87306,List2B,black,woman,,,,null,,,,
3614,"<img src=""portrait/BM1.jpg""style=""height:400px;""></img>",4,html-button-response,119,925969,0.0-14.0-13.0,87306,List2B,black,woman,,TRUE,4,,,,,
null,CORRECT,,html-keyboard-response,120,927478,0.0-14.0-14.0-0.0,87306,List2B,black,woman,,,,null,,,,
2372,"<img src=""portrait/BW2.jpg""style=""height:400px;""></img>",2,html-button-response,121,929856,0.0-14.0-16.0,87306,List2B,black,woman,,TRUE,2,,,,,
null,CORRECT,,html-keyboard-response,122,931361,0.0-14.0-17.0-0.0,87306,List2B,black,woman,,,,null,,,,
11616,"<img src=""portrait/WM1.jpg""style=""height:400px;""></img>",6,html-button-response,123,942982,0.0-14.0-19.0,87306,List2B,black,woman,,TRUE,6,,,,,
null,CORRECT,,html-keyboard-response,124,944487,0.0-14.0-20.0-0.0,87306,List2B,black,woman,,,,null,,,,
3522,"<img src=""portrait/WW1.jpg""style=""height:400px;""></img>",1,html-button-response,125,948016,0.0-14.0-22.0,87306,List2B,black,woman,,TRUE,1,,,,,
null,CORRECT,,html-keyboard-response,126,949528,0.0-14.0-23.0-0.0,87306,List2B,black,woman,,,,null,,,,
3987,<p>You got 8 out of 8 right first time. Press Continue.</p>,0,html-button-response,127,953521,0.0-14.0-25.0,87306,List2B,black,woman,,,,,,,,
null,"<div style=""font-size:60px;"">+</div>",,html-keyboard-response,128,955030,0.0-15.0-0.0,87306,List2B,black,woman,,,,null,,,,
null,"<img src=""stim_listB/talk1.gif""style=""height:400px;""></stim_listB>",,html-keyboard-response,129,957036,0.0-15.0-1.0,87306,List2B,black,woman,,,,null,,,,
null,is talking to,,html-keyboard-response,130,959038,0.0-15.0-2.0,87306,List2B,black,woman,,,,null,,,,
11322,,,survey-text,131,970365,0.0-15.0-3.0,87306,List2B,black,woman,,,,,"{""Q0"":""Luke is talking to Jane""}","<img src=""stim_listB/talk1.gif""style=""height:400px;""></stim_listB>",is talking to,
null,"<div style=""font-size:60px;"">+</div>",,html-keyboard-response,132,970869,0.0-15.0-0.1,87306,List2B,black,woman,,,,null,,,,
null,"<img src=""stim_listB/touch5.gif""style=""height:400px;""></stim_listB>",,html-keyboard-response,133,972877,0.0-15.0-1.1,87306,List2B,black,woman,,,,null,,,,
null,is touching,,html-keyboard-response,134,974879,0.0-15.0-2.1,87306,List2B,black,woman,,,,null,,,,
9704,,,survey-text,135,984587,0.0-15.0-3.1,87306,List2B,black,woman,,,,,"{""Q0"":""Mike is touching Dave""}","<img src=""stim_listB/touch5.gif""style=""height:400px;""></stim_listB>",is touching,
null,"<div style=""font-size:60px;"">+</div>",,html-keyboard-response,136,985104,0.0-15.0-0.2,87306,List2B,black,woman,,,,null,,,,
null,"<img src=""stim_listB/fight7.gif""style=""height:400px;""></stim_listB>",,html-keyboard-response,137,987108,0.0-15.0-1.2,87306,List2B,black,woman,,,,null,,,,
null,is fighting,,html-keyboard-response,138,989123,0.0-15.0-2.2,87306,List2B,black,woman,,,,null,,,,
8777,,,survey-text,139,997904,0.0-15.0-3.2,87306,List2B,black,woman,,,,,"{""Q0"":""Jane is fighting Kate""}","<img src=""stim_listB/fight7.gif""style=""height:400px;""></stim_listB>",is fighting,
null,"<div style=""font-size:60px;"">+</div>",,html-keyboard-response,140,998408,0.0-15.0-0.3,87306,List2B,black,woman,,,,null,,,,
null,"<img src=""stim_listB/marry4.gif""style=""height:400px;""></stim_listB>",,html-keyboard-response,141,1000413,0.0-15.0-1.3,87306,List2B,black,woman,,,,null,,,,
null,are marrying each other,,html-keyboard-response,142,1002415,0.0-15.0-2.3,87306,List2B,black,woman,,,,null,,,,
12725,,,survey-text,143,1015142,0.0-15.0-3.3,87306,List2B,black,woman,,,,,"{""Q0"":""Kate and Fred are marrying each other""}","<img src=""stim_listB/marry4.gif""style=""height:400px;""></stim_listB>",are marrying each other,
null,"<div style=""font-size:60px;"">+</div>",,html-keyboard-response,144,1015647,0.0-15.0-0.4,87306,List2B,black,woman,,,,null,,,,
null,"<img src=""stim_listB/shout7.gif""style=""height:400px;""></stim_listB>",,html-keyboard-response,145,1017661,0.0-15.0-1.4,87306,List2B,black,woman,,,,null,,,,
null,is shouting at,,html-keyboard-response,146,1019665,0.0-15.0-2.4,87306,List2B,black,woman,,,,null,,,,
13040,,,survey-text,147,1032711,0.0-15.0-3.4,87306,List2B,black,woman,,,,,"{""Q0"":""Beth is shouting at Ruth""}","<img src=""stim_listB/shout7.gif""style=""height:400px;""></stim_listB>",is shouting at,
null,"<div style=""font-size:60px;"">+</div>",,html-keyboard-response,148,1033216,0.0-15.0-0.5,87306,List2B,black,woman,,,,null,,,,
null,"<img src=""stim_listB/marry6.gif""style=""height:400px;""></stim_listB>",,html-keyboard-response,149,1035223,0.0-15.0-1.5,87306,List2B,black,woman,,,,null,,,,
null,are marrying each other,,html-keyboard-response,150,1037226,0.0-15.0-2.5,87306,List2B,black,woman,,,,null,,,,
8705,,,survey-text,151,1045935,0.0-15.0-3.5,87306,List2B,black,woman,,,,,"{""Q0"":""Luke and Mike are marrying each other""}","<img src=""stim_listB/marry6.gif""style=""height:400px;""></stim_listB>",are marrying each other,
null,"<div style=""font-size:60px;"">+</div>",,html-keyboard-response,152,1046439,0.0-15.0-0.6,87306,List2B,black,woman,,,,null,,,,
null,"<img src=""stim_listB/kiss5.gif""style=""height:400px;""></stim_listB>",,html-keyboard-response,153,1048443,0.0-15.0-1.6,87306,List2B,black,woman,,,,null,,,,
null,is kissing,,html-keyboard-response,154,1050449,0.0-15.0-2.6,87306,List2B,black,woman,,,,null,,,,
11234,,,survey-text,155,1061687,0.0-15.0-3.6,87306,List2B,black,woman,,,,,"{""Q0"":""Fred and Luke is kissing""}","<img src=""stim_listB/kiss5.gif""style=""height:400px;""></stim_listB>",is kissing,
null,"<div style=""font-size:60px;"">+</div>",,html-keyboard-response,156,1062193,0.0-15.0-0.7,87306,List2B,black,woman,,,,null,,,,
null,"<img src=""stim_listB/flirt1.gif""style=""height:400px;""></stim_listB>",,html-keyboard-response,157,1064198,0.0-15.0-1.7,87306,List2B,black,woman,,,,null,,,,
null,is flirting with,,html-keyboard-response,158,1066204,0.0-15.0-2.7,87306,List2B,black,woman,,,,null,,,,
32363,,,survey-text,159,1098570,0.0-15.0-3.7,87306,List2B,black,woman,,,,,"{""Q0"":""Jane is flirting with Luke""}","<img src=""stim_listB/flirt1.gif""style=""height:400px;""></stim_listB>",is flirting with,
null,"<div style=""font-size:60px;"">+</div>",,html-keyboard-response,160,1099074,0.0-15.0-0.8,87306,List2B,black,woman,,,,null,,,,
null,"<img src=""stim_listB/kiss3.gif""style=""height:400px;""></stim_listB>",,html-keyboard-response,161,1101081,0.0-15.0-1.8,87306,List2B,black,woman,,,,null,,,,
null,is kissing,,html-keyboard-response,162,1103084,0.0-15.0-2.8,87306,List2B,black,woman,,,,null,,,,
7925,,,survey-text,163,1111012,0.0-15.0-3.8,87306,List2B,black,woman,,,,,"{""Q0"":""Beth is kissing Fred""}","<img src=""stim_listB/kiss3.gif""style=""height:400px;""></stim_listB>",is kissing,
null,"<div style=""font-size:60px;"">+</div>",,html-keyboard-response,164,1111516,0.0-15.0-0.9,87306,List2B,black,woman,,,,null,,,,
null,"<img src=""stim_listB/kiss1.gif""style=""height:400px;""></stim_listB>",,html-keyboard-response,165,1113522,0.0-15.0-1.9,87306,List2B,black,woman,,,,null,,,,
null,is kissing,,html-keyboard-response,166,1115525,0.0-15.0-2.9,87306,List2B,black,woman,,,,null,,,,
6755,,,survey-text,167,1122283,0.0-15.0-3.9,87306,List2B,black,woman,,,,,"{""Q0"":""Luke is kissing Ruth""}","<img src=""stim_listB/kiss1.gif""style=""height:400px;""></stim_listB>",is kissing,
null,"<div style=""font-size:60px;"">+</div>",,html-keyboard-response,168,1122790,0.0-15.0-0.10,87306,List2B,black,woman,,,,null,,,,
null,"<img src=""stim_listB/talk3.gif""style=""height:400px;""></stim_listB>",,html-keyboard-response,169,1124808,0.0-15.0-1.10,87306,List2B,black,woman,,,,null,,,,
null,is talking to,,html-keyboard-response,170,1126812,0.0-15.0-2.10,87306,List2B,black,woman,,,,null,,,,
8907,,,survey-text,171,1135723,0.0-15.0-3.10,87306,List2B,black,woman,,,,,"{""Q0"":""Kate is talking to Fred""}","<img src=""stim_listB/talk3.gif""style=""height:400px;""></stim_listB>",is talking to,
null,"<div style=""font-size:60px;"">+</div>",,html-keyboard-response,172,1136231,0.0-15.0-0.11,87306,List2B,black,woman,,,,null,,,,
null,"<img src=""stim_listB/marry7.gif""style=""height:400px;""></stim_listB>",,html-keyboard-response,173,1138238,0.0-15.0-1.11,87306,List2B,black,woman,,,,null,,,,
null,is marrying,,html-keyboard-response,174,1140241,0.0-15.0-2.11,87306,List2B,black,woman,,,,null,,,,
8364,,,survey-text,175,1148609,0.0-15.0-3.11,87306,List2B,black,woman,,,,,"{""Q0"":""Beth is marrying Jane""}","<img src=""stim_listB/marry7.gif""style=""height:400px;""></stim_listB>",is marrying,
null,"<div style=""font-size:60px;"">+</div>",,html-keyboard-response,176,1149114,0.0-15.0-0.12,87306,List2B,black,woman,,,,null,,,,
null,"<img src=""stim_listB/marry8.gif""style=""height:400px;""></stim_listB>",,html-keyboard-response,177,1151121,0.0-15.0-1.12,87306,List2B,black,woman,,,,null,,,,
null,are marrying each other,,html-keyboard-response,178,1153129,0.0-15.0-2.12,87306,List2B,black,woman,,,,null,,,,
12831,,,survey-text,179,1165963,0.0-15.0-3.12,87306,List2B,black,woman,,,,,"{""Q0"":""Kate and Ruth are marrying each other""}","<img src=""stim_listB/marry8.gif""style=""height:400px;""></stim_listB>",are marrying each other,
null,"<div style=""font-size:60px;"">+</div>",,html-keyboard-response,180,1166467,0.0-15.0-0.13,87306,List2B,black,woman,,,,null,,,,
null,"<img src=""stim_listB/talk4.gif""style=""height:400px;""></stim_listB>",,html-keyboard-response,181,1168480,0.0-15.0-1.13,87306,List2B,black,woman,,,,null,,,,
null,are talking to each other,,html-keyboard-response,182,1170483,0.0-15.0-2.13,87306,List2B,black,woman,,,,null,,,,
10244,,,survey-text,183,1180732,0.0-15.0-3.13,87306,List2B,black,woman,,,,,"{""Q0"":""Beth and Mike are talking to each other""}","<img src=""stim_listB/talk4.gif""style=""height:400px;""></stim_listB>",are talking to each other,
null,"<div style=""font-size:60px;"">+</div>",,html-keyboard-response,184,1181239,0.0-15.0-0.14,87306,List2B,black,woman,,,,null,,,,
null,"<img src=""stim_listB/flirt6.gif""style=""height:400px;""></stim_listB>",,html-keyboard-response,185,1183244,0.0-15.0-1.14,87306,List2B,black,woman,,,,null,,,,
null,are flirting with each other,,html-keyboard-response,186,1185247,0.0-15.0-2.14,87306,List2B,black,woman,,,,null,,,,
14146,,,survey-text,187,1199396,0.0-15.0-3.14,87306,List2B,black,woman,,,,,"{""Q0"":""Dave and Fred are flirting with each other""}","<img src=""stim_listB/flirt6.gif""style=""height:400px;""></stim_listB>",are flirting with each other,
null,"<div style=""font-size:60px;"">+</div>",,html-keyboard-response,188,1199900,0.0-15.0-0.15,87306,List2B,black,woman,,,,null,,,,
null,"<img src=""stim_listB/argue6.gif""style=""height:400px;""></stim_listB>",,html-keyboard-response,189,1201908,0.0-15.0-1.15,87306,List2B,black,woman,,,,null,,,,
null,are arguing with each other,,html-keyboard-response,190,1203965,0.0-15.0-2.15,87306,List2B,black,woman,,,,null,,,,
16925,,,survey-text,191,1220894,0.0-15.0-3.15,87306,List2B,black,woman,,,,,"{""Q0"":""Luke and Mike are arguing with each other""}","<img src=""stim_listB/argue6.gif""style=""height:400px;""></stim_listB>",are arguing with each other,
null,"<div style=""font-size:60px;"">+</div>",,html-keyboard-response,192,1221397,0.0-15.0-0.16,87306,List2B,black,woman,,,,null,,,,
null,"<img src=""stim_listB/shout5.gif""style=""height:400px;""></stim_listB>",,html-keyboard-response,193,1223410,0.0-15.0-1.16,87306,List2B,black,woman,,,,null,,,,
null,is shouting at,,html-keyboard-response,194,1225414,0.0-15.0-2.16,87306,List2B,black,woman,,,,null,,,,
10111,,,survey-text,195,1235528,0.0-15.0-3.16,87306,List2B,black,woman,,,,,"{""Q0"":""Luke is shouting at Fred""}","<img src=""stim_listB/shout5.gif""style=""height:400px;""></stim_listB>",is shouting at,
null,"<div style=""font-size:60px;"">+</div>",,html-keyboard-response,196,1236036,0.0-15.0-0.17,87306,List2B,black,woman,,,,null,,,,
null,"<img src=""stim_listB/play4.gif""style=""height:400px;""></stim_listB>",,html-keyboard-response,197,1238043,0.0-15.0-1.17,87306,List2B,black,woman,,,,null,,,,
null,are playing with each other,,html-keyboard-response,198,1240045,0.0-15.0-2.17,87306,List2B,black,woman,,,,null,,,,
11033,,,survey-text,199,1251082,0.0-15.0-3.17,87306,List2B,black,woman,,,,,"{""Q0"":""Beth and Fred are playing with each other""}","<img src=""stim_listB/play4.gif""style=""height:400px;""></stim_listB>",are playing with each other,
null,"<div style=""font-size:60px;"">+</div>",,html-keyboard-response,200,1251589,0.0-15.0-0.18,87306,List2B,black,woman,,,,null,,,,
null,"<img src=""stim_listB/fight3.gif""style=""height:400px;""></stim_listB>",,html-keyboard-response,201,1253600,0.0-15.0-1.18,87306,List2B,black,woman,,,,null,,,,
null,is fighting,,html-keyboard-response,202,1255602,0.0-15.0-2.18,87306,List2B,black,woman,,,,null,,,,
10424,,,survey-text,203,1266029,0.0-15.0-3.18,87306,List2B,black,woman,,,,,"{""Q0"":""Kate and Mike is fighting""}","<img src=""stim_listB/fight3.gif""style=""height:400px;""></stim_listB>",is fighting,
null,"<div style=""font-size:60px;"">+</div>",,html-keyboard-response,204,1266537,0.0-15.0-0.19,87306,List2B,black,woman,,,,null,,,,
null,"<img src=""stim_listB/marry5.gif""style=""height:400px;""></stim_listB>",,html-keyboard-response,205,1268542,0.0-15.0-1.19,87306,List2B,black,woman,,,,null,,,,
null,is marrying,,html-keyboard-response,206,1270544,0.0-15.0-2.19,87306,List2B,black,woman,,,,null,,,,
8427,,,survey-text,207,1278975,0.0-15.0-3.19,87306,List2B,black,woman,,,,,"{""Q0"":""Dave is marrying Fred""}","<img src=""stim_listB/marry5.gif""style=""height:400px;""></stim_listB>",is marrying,
11148,"<img src='img/portrait_matrix_list2.jpg' style='width:900px;height:500px;''></img><p>If you have memorised all the portraits and names and are ready to start, press Continue.</p><p><strong>Please note: Your memory of these faces will be tested 4 times during this experiment.</strong></p>",0,html-button-response,208,1290132,0.0-16.0-0.0,87306,List2B,black,woman,,,,,,,,
2736,"<img src=""portrait/BW2.jpg""style=""height:400px;""></img>",2,html-button-response,209,1293882,0.0-16.0-1.0,87306,List2B,black,woman,,TRUE,2,,,,,
null,CORRECT,,html-keyboard-response,210,1295385,0.0-16.0-2.0-0.0,87306,List2B,black,woman,,,,null,,,,
1584,"<img src=""portrait/WW2.jpg""style=""height:400px;""></img>",3,html-button-response,211,1296974,0.0-16.0-4.0,87306,List2B,black,woman,,TRUE,3,,,,,
null,CORRECT,,html-keyboard-response,212,1298480,0.0-16.0-5.0-0.0,87306,List2B,black,woman,,,,null,,,,
1882,"<img src=""portrait/WM2.jpg""style=""height:400px;""></img>",7,html-button-response,213,1300367,0.0-16.0-7.0,87306,List2B,black,woman,,TRUE,7,,,,,
null,CORRECT,,html-keyboard-response,214,1301871,0.0-16.0-8.0-0.0,87306,List2B,black,woman,,,,null,,,,
2975,"<img src=""portrait/BW1.jpg""style=""height:400px;""></img>",0,html-button-response,215,1304850,0.0-16.0-10.0,87306,List2B,black,woman,,TRUE,0,,,,,
null,CORRECT,,html-keyboard-response,216,1306355,0.0-16.0-11.0-0.0,87306,List2B,black,woman,,,,null,,,,
2371,"<img src=""portrait/BM1.jpg""style=""height:400px;""></img>",4,html-button-response,217,1308731,0.0-16.0-13.0,87306,List2B,black,woman,,TRUE,4,,,,,
null,CORRECT,,html-keyboard-response,218,1310237,0.0-16.0-14.0-0.0,87306,List2B,black,woman,,,,null,,,,
3080,"<img src=""portrait/WW1.jpg""style=""height:400px;""></img>",1,html-button-response,219,1313321,0.0-16.0-16.0,87306,List2B,black,woman,,TRUE,1,,,,,
null,CORRECT,,html-keyboard-response,220,1314826,0.0-16.0-17.0-0.0,87306,List2B,black,woman,,,,null,,,,
1705,"<img src=""portrait/BM2.jpg""style=""height:400px;""></img>",5,html-button-response,221,1316536,0.0-16.0-19.0,87306,List2B,black,woman,,TRUE,5,,,,,
null,CORRECT,,html-keyboard-response,222,1318041,0.0-16.0-20.0-0.0,87306,List2B,black,woman,,,,null,,,,
2450,"<img src=""portrait/WM1.jpg""style=""height:400px;""></img>",6,html-button-response,223,1320499,0.0-16.0-22.0,87306,List2B,black,woman,,TRUE,6,,,,,
null,CORRECT,,html-keyboard-response,224,1322003,0.0-16.0-23.0-0.0,87306,List2B,black,woman,,,,null,,,,
2690,<p>You got 8 out of 8 right first time. Press Continue.</p>,0,html-button-response,225,1324698,0.0-16.0-25.0,87306,List2B,black,woman,,,,,,,,
null,"<div style=""font-size:60px;"">+</div>",,html-keyboard-response,226,1326204,0.0-17.0-0.0,87306,List2B,black,woman,,,,null,,,,
null,"<img src=""stim_listB/flirt2.gif""style=""height:400px;""></stim_listB>",,html-keyboard-response,227,1328210,0.0-17.0-1.0,87306,List2B,black,woman,,,,null,,,,
null,are flirting with each other,,html-keyboard-response,228,1330213,0.0-17.0-2.0,87306,List2B,black,woman,,,,null,,,,
12179,,,survey-text,229,1342395,0.0-17.0-3.0,87306,List2B,black,woman,,,,,"{""Q0"":""Dave and Ruth are flirting with each other""}","<img src=""stim_listB/flirt2.gif""style=""height:400px;""></stim_listB>",are flirting with each other,
null,"<div style=""font-size:60px;"">+</div>",,html-keyboard-response,230,1342908,0.0-17.0-0.1,87306,List2B,black,woman,,,,null,,,,
null,"<img src=""stim_listB/dance6.gif""style=""height:400px;""></stim_listB>",,html-keyboard-response,231,1344934,0.0-17.0-1.1,87306,List2B,black,woman,,,,null,,,,
null,are dancing with each other,,html-keyboard-response,232,1346937,0.0-17.0-2.1,87306,List2B,black,woman,,,,null,,,,
8968,,,survey-text,233,1355909,0.0-17.0-3.1,87306,List2B,black,woman,,,,,"{""Q0"":""Dave and Fred are dancing with each other""}","<img src=""stim_listB/dance6.gif""style=""height:400px;""></stim_listB>",are dancing with each other,
null,"<div style=""font-size:60px;"">+</div>",,html-keyboard-response,234,1356416,0.0-17.0-0.2,87306,List2B,black,woman,,,,null,,,,
null,"<img src=""stim_listB/fight1.gif""style=""height:400px;""></stim_listB>",,html-keyboard-response,235,1358422,0.0-17.0-1.2,87306,List2B,black,woman,,,,null,,,,
null,is fighting,,html-keyboard-response,236,1360430,0.0-17.0-2.2,87306,List2B,black,woman,,,,null,,,,
18272,,,survey-text,237,1378705,0.0-17.0-3.2,87306,List2B,black,woman,,,,,"{""Q0"":""Dave and Ruth are fighting each other""}","<img src=""stim_listB/fight1.gif""style=""height:400px;""></stim_listB>",is fighting,
null,"<div style=""font-size:60px;"">+</div>",,html-keyboard-response,238,1379209,0.0-17.0-0.3,87306,List2B,black,woman,,,,null,,,,
null,"<img src=""stim_listB/argue5.gif""style=""height:400px;""></stim_listB>",,html-keyboard-response,239,1381215,0.0-17.0-1.3,87306,List2B,black,woman,,,,null,,,,
null,is arguing with,,html-keyboard-response,240,1383218,0.0-17.0-2.3,87306,List2B,black,woman,,,,null,,,,
7766,,,survey-text,241,1390986,0.0-17.0-3.3,87306,List2B,black,woman,,,,,"{""Q0"":""Dave is arguing with Fred""}","<img src=""stim_listB/argue5.gif""style=""height:400px;""></stim_listB>",is arguing with,
null,"<div style=""font-size:60px;"">+</div>",,html-keyboard-response,242,1391491,0.0-17.0-0.4,87306,List2B,black,woman,,,,null,,,,
null,"<img src=""stim_listB/touch1.gif""style=""height:400px;""></stim_listB>",,html-keyboard-response,243,1393495,0.0-17.0-1.4,87306,List2B,black,woman,,,,null,,,,
null,is touching,,html-keyboard-response,244,1395499,0.0-17.0-2.4,87306,List2B,black,woman,,,,null,,,,
51657,,,survey-text,245,1447159,0.0-17.0-3.4,87306,List2B,black,woman,,,,,"{""Q0"":""Dave and Jane are flirting with each other""}","<img src=""stim_listB/touch1.gif""style=""height:400px;""></stim_listB>",is touching,
null,"<div style=""font-size:60px;"">+</div>",,html-keyboard-response,246,1447663,0.0-17.0-0.5,87306,List2B,black,woman,,,,null,,,,
null,"<img src=""stim_listB/play1.gif""style=""height:400px;""></stim_listB>",,html-keyboard-response,247,1449676,0.0-17.0-1.5,87306,List2B,black,woman,,,,null,,,,
null,is playing with,,html-keyboard-response,248,1451679,0.0-17.0-2.5,87306,List2B,black,woman,,,,null,,,,
94075,,,survey-text,249,1545760,0.0-17.0-3.5,87306,List2B,black,woman,,,,,"{""Q0"":""Dave is playing with Jane""}","<img src=""stim_listB/play1.gif""style=""height:400px;""></stim_listB>",is playing with,
null,"<div style=""font-size:60px;"">+</div>",,html-keyboard-response,250,1546263,0.0-17.0-0.6,87306,List2B,black,woman,,,,null,,,,
null,"<img src=""stim_listB/argue7.gif""style=""height:400px;""></stim_listB>",,html-keyboard-response,251,1548267,0.0-17.0-1.6,87306,List2B,black,woman,,,,null,,,,
null,is arguing with,,html-keyboard-response,252,1550270,0.0-17.0-2.6,87306,List2B,black,woman,,,,null,,,,
9171,,,survey-text,253,1559444,0.0-17.0-3.6,87306,List2B,black,woman,,,,,"{""Q0"":""Jane is arguing with Beth""}","<img src=""stim_listB/argue7.gif""style=""height:400px;""></stim_listB>",is arguing with,
null,"<div style=""font-size:60px;"">+</div>",,html-keyboard-response,254,1559950,0.0-17.0-0.7,87306,List2B,black,woman,,,,null,,,,
null,"<img src=""stim_listB/touch8.gif""style=""height:400px;""></stim_listB>",,html-keyboard-response,255,1561955,0.0-17.0-1.7,87306,List2B,black,woman,,,,null,,,,
null,are touching each other,,html-keyboard-response,256,1563959,0.0-17.0-2.7,87306,List2B,black,woman,,,,null,,,,
39821,,,survey-text,257,1603784,0.0-17.0-3.7,87306,List2B,black,woman,,,,,"{""Q0"":""Dave and Beth are arguing with each other""}","<img src=""stim_listB/touch8.gif""style=""height:400px;""></stim_listB>",are touching each other,
null,"<div style=""font-size:60px;"">+</div>",,html-keyboard-response,258,1604290,0.0-17.0-0.8,87306,List2B,black,woman,,,,null,,,,
null,"<img src=""stim_listB/fight5.gif""style=""height:400px;""></stim_listB>",,html-keyboard-response,259,1606294,0.0-17.0-1.8,87306,List2B,black,woman,,,,null,,,,
null,is fighting,,html-keyboard-response,260,1608296,0.0-17.0-2.8,87306,List2B,black,woman,,,,null,,,,
31674,,,survey-text,261,1639973,0.0-17.0-3.8,87306,List2B,black,woman,,,,,"{""Q0"":""Mike and Dave are fighting each other""}","<img src=""stim_listB/fight5.gif""style=""height:400px;""></stim_listB>",is fighting,
null,"<div style=""font-size:60px;"">+</div>",,html-keyboard-response,262,1640478,0.0-17.0-0.9,87306,List2B,black,woman,,,,null,,,,
null,"<img src=""stim_listB/play2.gif""style=""height:400px;""></stim_listB>",,html-keyboard-response,263,1642483,0.0-17.0-1.9,87306,List2B,black,woman,,,,null,,,,
null,are playing with each other,,html-keyboard-response,264,1644487,0.0-17.0-2.9,87306,List2B,black,woman,,,,null,,,,
12664,,,survey-text,265,1657155,0.0-17.0-3.9,87306,List2B,black,woman,,,,,"{""Q0"":""Luke and Ruth are playing with each other""}","<img src=""stim_listB/play2.gif""style=""height:400px;""></stim_listB>",are playing with each other,
null,"<div style=""font-size:60px;"">+</div>",,html-keyboard-response,266,1657658,0.0-17.0-0.10,87306,List2B,black,woman,,,,null,,,,
null,"<img src=""stim_listB/talk2.gif""style=""height:400px;""></stim_listB>",,html-keyboard-response,267,1659662,0.0-17.0-1.10,87306,List2B,black,woman,,,,null,,,,
null,are talking to each other,,html-keyboard-response,268,1661667,0.0-17.0-2.10,87306,List2B,black,woman,,,,null,,,,
12030,,,survey-text,269,1673702,0.0-17.0-3.10,87306,List2B,black,woman,,,,,"{""Q0"":""Dave and Ruth are talking to each other""}","<img src=""stim_listB/talk2.gif""style=""height:400px;""></stim_listB>",are talking to each other,
null,"<div style=""font-size:60px;"">+</div>",,html-keyboard-response,270,1674207,0.0-17.0-0.11,87306,List2B,black,woman,,,,null,,,,
null,"<img src=""stim_listB/talk8.gif""style=""height:400px;""></stim_listB>",,html-keyboard-response,271,1676213,0.0-17.0-1.11,87306,List2B,black,woman,,,,null,,,,
null,are talking to each other,,html-keyboard-response,272,1678217,0.0-17.0-2.11,87306,List2B,black,woman,,,,null,,,,
10569,,,survey-text,273,1688790,0.0-17.0-3.11,87306,List2B,black,woman,,,,,"{""Q0"":""Jane and Beth are talking to each other""}","<img src=""stim_listB/talk8.gif""style=""height:400px;""></stim_listB>",are talking to each other,
null,"<div style=""font-size:60px;"">+</div>",,html-keyboard-response,274,1689293,0.0-17.0-0.12,87306,List2B,black,woman,,,,null,,,,
null,"<img src=""stim_listB/touch2.gif""style=""height:400px;""></stim_listB>",,html-keyboard-response,275,1691310,0.0-17.0-1.12,87306,List2B,black,woman,,,,null,,,,
null,are touching each other,,html-keyboard-response,276,1693319,0.0-17.0-2.12,87306,List2B,black,woman,,,,null,,,,
9276,,,survey-text,277,1702598,0.0-17.0-3.12,87306,List2B,black,woman,,,,,"{""Q0"":""Luke and Ruth are touching each other""}","<img src=""stim_listB/touch2.gif""style=""height:400px;""></stim_listB>",are touching each other,
null,"<div style=""font-size:60px;"">+</div>",,html-keyboard-response,278,1703101,0.0-17.0-0.13,87306,List2B,black,woman,,,,null,,,,
null,"<img src=""stim_listB/flirt7.gif""style=""height:400px;""></stim_listB>",,html-keyboard-response,279,1705105,0.0-17.0-1.13,87306,List2B,black,woman,,,,null,,,,
null,is flirting with,,html-keyboard-response,280,1707107,0.0-17.0-2.13,87306,List2B,black,woman,,,,null,,,,
12309,,,survey-text,281,1719419,0.0-17.0-3.13,87306,List2B,black,woman,,,,,"{""Q0"":""Ruth is flirting with Kate""}","<img src=""stim_listB/flirt7.gif""style=""height:400px;""></stim_listB>",is flirting with,
null,"<div style=""font-size:60px;"">+</div>",,html-keyboard-response,282,1719924,0.0-17.0-0.14,87306,List2B,black,woman,,,,null,,,,
null,"<img src=""stim_listB/play7.gif""style=""height:400px;""></stim_listB>",,html-keyboard-response,283,1721932,0.0-17.0-1.14,87306,List2B,black,woman,,,,null,,,,
null,is playing with,,html-keyboard-response,284,1723934,0.0-17.0-2.14,87306,List2B,black,woman,,,,null,,,,
6819,,,survey-text,285,1730757,0.0-17.0-3.14,87306,List2B,black,woman,,,,,"{""Q0"":""Jane is playing with Kate""}","<img src=""stim_listB/play7.gif""style=""height:400px;""></stim_listB>",is playing with,
null,"<div style=""font-size:60px;"">+</div>",,html-keyboard-response,286,1731264,0.0-17.0-0.15,87306,List2B,black,woman,,,,null,,,,
null,"<img src=""stim_listB/play3.gif""style=""height:400px;""></stim_listB>",,html-keyboard-response,287,1733269,0.0-17.0-1.15,87306,List2B,black,woman,,,,null,,,,
null,is playing with,,html-keyboard-response,288,1735272,0.0-17.0-2.15,87306,List2B,black,woman,,,,null,,,,
6842,,,survey-text,289,1742117,0.0-17.0-3.15,87306,List2B,black,woman,,,,,"{""Q0"":""Mike is playing with Kate""}","<img src=""stim_listB/play3.gif""style=""height:400px;""></stim_listB>",is playing with,
null,"<div style=""font-size:60px;"">+</div>",,html-keyboard-response,290,1742621,0.0-17.0-0.16,87306,List2B,black,woman,,,,null,,,,
null,"<img src=""stim_listB/play6.gif""style=""height:400px;""></stim_listB>",,html-keyboard-response,291,1744626,0.0-17.0-1.16,87306,List2B,black,woman,,,,null,,,,
null,are playing with each other,,html-keyboard-response,292,1746632,0.0-17.0-2.16,87306,List2B,black,woman,,,,null,,,,
9389,,,survey-text,293,1756023,0.0-17.0-3.16,87306,List2B,black,woman,,,,,"{""Q0"":""Luke and Fred are playing with each other""}","<img src=""stim_listB/play6.gif""style=""height:400px;""></stim_listB>",are playing with each other,
null,"<div style=""font-size:60px;"">+</div>",,html-keyboard-response,294,1756528,0.0-17.0-0.17,87306,List2B,black,woman,,,,null,,,,
null,"<img src=""stim_listB/dance4.gif""style=""height:400px;""></stim_listB>",,html-keyboard-response,295,1758533,0.0-17.0-1.17,87306,List2B,black,woman,,,,null,,,,
null,are dancing with each other,,html-keyboard-response,296,1760546,0.0-17.0-2.17,87306,List2B,black,woman,,,,null,,,,
14061,,,survey-text,297,1774610,0.0-17.0-3.17,87306,List2B,black,woman,,,,,"{""Q0"":""Mike and Beth are dancing with each other""}","<img src=""stim_listB/dance4.gif""style=""height:400px;""></stim_listB>",are dancing with each other,
null,"<div style=""font-size:60px;"">+</div>",,html-keyboard-response,298,1775114,0.0-17.0-0.18,87306,List2B,black,woman,,,,null,,,,
null,"<img src=""stim_listB/fight8.gif""style=""height:400px;""></stim_listB>",,html-keyboard-response,299,1777119,0.0-17.0-1.18,87306,List2B,black,woman,,,,null,,,,
null,are fighting each other,,html-keyboard-response,300,1779123,0.0-17.0-2.18,87306,List2B,black,woman,,,,null,,,,
8711,,,survey-text,301,1787838,0.0-17.0-3.18,87306,List2B,black,woman,,,,,"{""Q0"":""Ruth and Beth are fighting each other""}","<img src=""stim_listB/fight8.gif""style=""height:400px;""></stim_listB>",are fighting each other,
null,"<div style=""font-size:60px;"">+</div>",,html-keyboard-response,302,1788343,0.0-17.0-0.19,87306,List2B,black,woman,,,,null,,,,
null,"<img src=""stim_listB/touch7.gif""style=""height:400px;""></stim_listB>",,html-keyboard-response,303,1790349,0.0-17.0-1.19,87306,List2B,black,woman,,,,null,,,,
null,is touching,,html-keyboard-response,304,1792353,0.0-17.0-2.19,87306,List2B,black,woman,,,,null,,,,
8900,,,survey-text,305,1801256,0.0-17.0-3.19,87306,List2B,black,woman,,,,,"{""Q0"":""Jane is touching Kate""}","<img src=""stim_listB/touch7.gif""style=""height:400px;""></stim_listB>",is touching,
10642,"<img src='img/portrait_matrix_list2.jpg' style='width:900px;height:500px;''></img><p>If you have memorised all the portraits and names and are ready to start, press Continue.</p><p><strong>Please note: Your memory of these faces will be tested 4 times during this experiment.</strong></p>",0,html-button-response,306,1811903,0.0-18.0-0.0,87306,List2B,black,woman,,,,,,,,
2267,"<img src=""portrait/BM1.jpg""style=""height:400px;""></img>",4,html-button-response,307,1815179,0.0-18.0-1.0,87306,List2B,black,woman,,TRUE,4,,,,,
null,CORRECT,,html-keyboard-response,308,1816717,0.0-18.0-2.0-0.0,87306,List2B,black,woman,,,,null,,,,
2578,"<img src=""portrait/BW1.jpg""style=""height:400px;""></img>",0,html-button-response,309,1819310,0.0-18.0-4.0,87306,List2B,black,woman,,TRUE,0,,,,,
null,CORRECT,,html-keyboard-response,310,1820814,0.0-18.0-5.0-0.0,87306,List2B,black,woman,,,,null,,,,
2484,"<img src=""portrait/BW2.jpg""style=""height:400px;""></img>",2,html-button-response,311,1823304,0.0-18.0-7.0,87306,List2B,black,woman,,TRUE,2,,,,,
null,CORRECT,,html-keyboard-response,312,1824811,0.0-18.0-8.0-0.0,87306,List2B,black,woman,,,,null,,,,
2968,"<img src=""portrait/BM2.jpg""style=""height:400px;""></img>",5,html-button-response,313,1827786,0.0-18.0-10.0,87306,List2B,black,woman,,TRUE,5,,,,,
null,CORRECT,,html-keyboard-response,314,1829295,0.0-18.0-11.0-0.0,87306,List2B,black,woman,,,,null,,,,
2709,"<img src=""portrait/WW2.jpg""style=""height:400px;""></img>",3,html-button-response,315,1832009,0.0-18.0-13.0,87306,List2B,black,woman,,TRUE,3,,,,,
null,CORRECT,,html-keyboard-response,316,1833514,0.0-18.0-14.0-0.0,87306,List2B,black,woman,,,,null,,,,
9560,"<img src=""portrait/WW1.jpg""style=""height:400px;""></img>",1,html-button-response,317,1843078,0.0-18.0-16.0,87306,List2B,black,woman,,TRUE,1,,,,,
null,CORRECT,,html-keyboard-response,318,1844585,0.0-18.0-17.0-0.0,87306,List2B,black,woman,,,,null,,,,
2169,"<img src=""portrait/WM1.jpg""style=""height:400px;""></img>",6,html-button-response,319,1846760,0.0-18.0-19.0,87306,List2B,black,woman,,TRUE,6,,,,,
null,CORRECT,,html-keyboard-response,320,1848264,0.0-18.0-20.0-0.0,87306,List2B,black,woman,,,,null,,,,
2207,"<img src=""portrait/WM2.jpg""style=""height:400px;""></img>",7,html-button-response,321,1850477,0.0-18.0-22.0,87306,List2B,black,woman,,TRUE,7,,,,,
null,CORRECT,,html-keyboard-response,322,1851981,0.0-18.0-23.0-0.0,87306,List2B,black,woman,,,,null,,,,
1343,<p>You got 8 out of 8 right first time. Press Continue.</p>,0,html-button-response,323,1853330,0.0-18.0-25.0,87306,List2B,black,woman,,,,,,,,
null,"<div style=""font-size:60px;"">+</div>",,html-keyboard-response,324,1854845,0.0-19.0-0.0,87306,List2B,black,woman,,,,null,,,,
null,"<img src=""stim_listB/flirt4.gif""style=""height:400px;""></stim_listB>",,html-keyboard-response,325,1856850,0.0-19.0-1.0,87306,List2B,black,woman,,,,null,,,,
null,are flirting with each other,,html-keyboard-response,326,1858855,0.0-19.0-2.0,87306,List2B,black,woman,,,,null,,,,
12447,,,survey-text,327,1871306,0.0-19.0-3.0,87306,List2B,black,woman,,,,,"{""Q0"":""Mike and Beth are flirting with each other""}","<img src=""stim_listB/flirt4.gif""style=""height:400px;""></stim_listB>",are flirting with each other,
null,"<div style=""font-size:60px;"">+</div>",,html-keyboard-response,328,1871810,0.0-19.0-0.1,87306,List2B,black,woman,,,,null,,,,
null,"<img src=""stim_listB/argue1.gif""style=""height:400px;""></stim_listB>",,html-keyboard-response,329,1873821,0.0-19.0-1.1,87306,List2B,black,woman,,,,null,,,,
null,is arguing with,,html-keyboard-response,330,1875825,0.0-19.0-2.1,87306,List2B,black,woman,,,,null,,,,
7556,,,survey-text,331,1883384,0.0-19.0-3.1,87306,List2B,black,woman,,,,,"{""Q0"":""Ruth is arguing with Dave""}","<img src=""stim_listB/argue1.gif""style=""height:400px;""></stim_listB>",is arguing with,
null,"<div style=""font-size:60px;"">+</div>",,html-keyboard-response,332,1883889,0.0-19.0-0.2,87306,List2B,black,woman,,,,null,,,,
null,"<img src=""stim_listB/kiss8.gif""style=""height:400px;""></stim_listB>",,html-keyboard-response,333,1885894,0.0-19.0-1.2,87306,List2B,black,woman,,,,null,,,,
null,are kissing each other,,html-keyboard-response,334,1887901,0.0-19.0-2.2,87306,List2B,black,woman,,,,null,,,,
12987,,,survey-text,335,1900892,0.0-19.0-3.2,87306,List2B,black,woman,,,,,"{""Q0"":""Jane and Kate are kissing each other""}","<img src=""stim_listB/kiss8.gif""style=""height:400px;""></stim_listB>",are kissing each other,
null,"<div style=""font-size:60px;"">+</div>",,html-keyboard-response,336,1901394,0.0-19.0-0.3,87306,List2B,black,woman,,,,null,,,,
null,"<img src=""stim_listB/touch6.gif""style=""height:400px;""></stim_listB>",,html-keyboard-response,337,1903404,0.0-19.0-1.3,87306,List2B,black,woman,,,,null,,,,
null,are touching each other,,html-keyboard-response,338,1905407,0.0-19.0-2.3,87306,List2B,black,woman,,,,null,,,,
10115,,,survey-text,339,1915525,0.0-19.0-3.3,87306,List2B,black,woman,,,,,"{""Q0"":""Luke and Fred are touching each other""}","<img src=""stim_listB/touch6.gif""style=""height:400px;""></stim_listB>",are touching each other,
null,"<div style=""font-size:60px;"">+</div>",,html-keyboard-response,340,1916030,0.0-19.0-0.4,87306,List2B,black,woman,,,,null,,,,
null,"<img src=""stim_listB/fight4.gif""style=""height:400px;""></stim_listB>",,html-keyboard-response,341,1918035,0.0-19.0-1.4,87306,List2B,black,woman,,,,null,,,,
null,are fighting each other,,html-keyboard-response,342,1920038,0.0-19.0-2.4,87306,List2B,black,woman,,,,null,,,,
9432,,,survey-text,343,1929473,0.0-19.0-3.4,87306,List2B,black,woman,,,,,"{""Q0"":""Fred and Beth are fighting each other""}","<img src=""stim_listB/fight4.gif""style=""height:400px;""></stim_listB>",are fighting each other,
null,"<div style=""font-size:60px;"">+</div>",,html-keyboard-response,344,1929980,0.0-19.0-0.5,87306,List2B,black,woman,,,,null,,,,
null,"<img src=""stim_listB/dance1.gif""style=""height:400px;""></stim_listB>",,html-keyboard-response,345,1932050,0.0-19.0-1.5,87306,List2B,black,woman,,,,null,,,,
null,is dancing with,,html-keyboard-response,346,1934053,0.0-19.0-2.5,87306,List2B,black,woman,,,,null,,,,
11916,,,survey-text,347,1945972,0.0-19.0-3.5,87306,List2B,black,woman,,,,,"{""Q0"":""Jane is dancing with Luke""}","<img src=""stim_listB/dance1.gif""style=""height:400px;""></stim_listB>",is dancing with,
null,"<div style=""font-size:60px;"">+</div>",,html-keyboard-response,348,1946475,0.0-19.0-0.6,87306,List2B,black,woman,,,,null,,,,
null,"<img src=""stim_listB/dance7.gif""style=""height:400px;""></stim_listB>",,html-keyboard-response,349,1948481,0.0-19.0-1.6,87306,List2B,black,woman,,,,null,,,,
null,is dancing with,,html-keyboard-response,350,1950483,0.0-19.0-2.6,87306,List2B,black,woman,,,,null,,,,
9590,,,survey-text,351,1960077,0.0-19.0-3.6,87306,List2B,black,woman,,,,,"{""Q0"":""Kate is dancing with Ruth""}","<img src=""stim_listB/dance7.gif""style=""height:400px;""></stim_listB>",is dancing with,
null,"<div style=""font-size:60px;"">+</div>",,html-keyboard-response,352,1960588,0.0-19.0-0.7,87306,List2B,black,woman,,,,null,,,,
null,"<img src=""stim_listB/talk7.gif""style=""height:400px;""></stim_listB>",,html-keyboard-response,353,1962593,0.0-19.0-1.7,87306,List2B,black,woman,,,,null,,,,
null,is talking to,,html-keyboard-response,354,1964596,0.0-19.0-2.7,87306,List2B,black,woman,,,,null,,,,
15306,,,survey-text,355,1979907,0.0-19.0-3.7,87306,List2B,black,woman,,,,,"{""Q0"":""Kate is talking to Ruth""}","<img src=""stim_listB/talk7.gif""style=""height:400px;""></stim_listB>",is talking to,
null,"<div style=""font-size:60px;"">+</div>",,html-keyboard-response,356,1980412,0.0-19.0-0.8,87306,List2B,black,woman,,,,null,,,,
null,"<img src=""stim_listB/dance3.gif""style=""height:400px;""></stim_listB>",,html-keyboard-response,357,1982416,0.0-19.0-1.8,87306,List2B,black,woman,,,,null,,,,
null,is dancing with,,html-keyboard-response,358,1984419,0.0-19.0-2.8,87306,List2B,black,woman,,,,null,,,,
6537,,,survey-text,359,1990959,0.0-19.0-3.8,87306,List2B,black,woman,,,,,"{""Q0"":""Kate is dancing with Fred""}","<img src=""stim_listB/dance3.gif""style=""height:400px;""></stim_listB>",is dancing with,
null,"<div style=""font-size:60px;"">+</div>",,html-keyboard-response,360,1991463,0.0-19.0-0.9,87306,List2B,black,woman,,,,null,,,,
null,"<img src=""stim_listB/shout1.gif""style=""height:400px;""></stim_listB>",,html-keyboard-response,361,1993468,0.0-19.0-1.9,87306,List2B,black,woman,,,,null,,,,
null,is shouting at,,html-keyboard-response,362,1995473,0.0-19.0-2.9,87306,List2B,black,woman,,,,null,,,,
15348,,,survey-text,363,2010825,0.0-19.0-3.9,87306,List2B,black,woman,,,,,"{""Q0"":""Ruth is shouting at Luke""}","<img src=""stim_listB/shout1.gif""style=""height:400px;""></stim_listB>",is shouting at,
null,"<div style=""font-size:60px;"">+</div>",,html-keyboard-response,364,2011329,0.0-19.0-0.10,87306,List2B,black,woman,,,,null,,,,
null,"<img src=""stim_listB/kiss2.gif""style=""height:400px;""></stim_listB>",,html-keyboard-response,365,2013334,0.0-19.0-1.10,87306,List2B,black,woman,,,,null,,,,
null,are kissing each other,,html-keyboard-response,366,2015340,0.0-19.0-2.10,87306,List2B,black,woman,,,,null,,,,
12538,,,survey-text,367,2027882,0.0-19.0-3.10,87306,List2B,black,woman,,,,,"{""Q0"":""Jane and Dave are kissing each other""}","<img src=""stim_listB/kiss2.gif""style=""height:400px;""></stim_listB>",are kissing each other,
null,"<div style=""font-size:60px;"">+</div>",,html-keyboard-response,368,2028385,0.0-19.0-0.11,87306,List2B,black,woman,,,,null,,,,
null,"<img src=""stim_listB/dance8.gif""style=""height:400px;""></stim_listB>",,html-keyboard-response,369,2030390,0.0-19.0-1.11,87306,List2B,black,woman,,,,null,,,,
null,are dancing with each other,,html-keyboard-response,370,2032393,0.0-19.0-2.11,87306,List2B,black,woman,,,,null,,,,
10081,,,survey-text,371,2042478,0.0-19.0-3.11,87306,List2B,black,woman,,,,,"{""Q0"":""Jane and Beth are dancing with each other""}","<img src=""stim_listB/dance8.gif""style=""height:400px;""></stim_listB>",are dancing with each other,
null,"<div style=""font-size:60px;"">+</div>",,html-keyboard-response,372,2042981,0.0-19.0-0.12,87306,List2B,black,woman,,,,null,,,,
null,"<img src=""stim_listB/kiss7.gif""style=""height:400px;""></stim_listB>",,html-keyboard-response,373,2044989,0.0-19.0-1.12,87306,List2B,black,woman,,,,null,,,,
null,is kissing,,html-keyboard-response,374,2046993,0.0-19.0-2.12,87306,List2B,black,woman,,,,null,,,,
24953,,,survey-text,375,2071949,0.0-19.0-3.12,87306,List2B,black,woman,,,,,"{""Q0"":""Jane and Ruth are kissing each other""}","<img src=""stim_listB/kiss7.gif""style=""height:400px;""></stim_listB>",is kissing,
null,"<div style=""font-size:60px;"">+</div>",,html-keyboard-response,376,2072456,0.0-19.0-0.13,87306,List2B,black,woman,,,,null,,,,
null,"<img src=""stim_listB/shout4.gif""style=""height:400px;""></stim_listB>",,html-keyboard-response,377,2074460,0.0-19.0-1.13,87306,List2B,black,woman,,,,null,,,,
null,are shouting at each other,,html-keyboard-response,378,2076463,0.0-19.0-2.13,87306,List2B,black,woman,,,,null,,,,
19376,,,survey-text,379,2095842,0.0-19.0-3.13,87306,List2B,black,woman,,,,,"{""Q0"":""Mike and Kate are shouting at each other""}","<img src=""stim_listB/shout4.gif""style=""height:400px;""></stim_listB>",are shouting at each other,
null,"<div style=""font-size:60px;"">+</div>",,html-keyboard-response,380,2096351,0.0-19.0-0.14,87306,List2B,black,woman,,,,null,,,,
null,"<img src=""stim_listB/play5.gif""style=""height:400px;""></stim_listB>",,html-keyboard-response,381,2098356,0.0-19.0-1.14,87306,List2B,black,woman,,,,null,,,,
null,is playing with,,html-keyboard-response,382,2100359,0.0-19.0-2.14,87306,List2B,black,woman,,,,null,,,,
6408,,,survey-text,383,2106771,0.0-19.0-3.14,87306,List2B,black,woman,,,,,"{""Q0"":""Mike is playing with Dave""}","<img src=""stim_listB/play5.gif""style=""height:400px;""></stim_listB>",is playing with,
null,"<div style=""font-size:60px;"">+</div>",,html-keyboard-response,384,2107277,0.0-19.0-0.15,87306,List2B,black,woman,,,,null,,,,
null,"<img src=""stim_listB/touch3.gif""style=""height:400px;""></stim_listB>",,html-keyboard-response,385,2109287,0.0-19.0-1.15,87306,List2B,black,woman,,,,null,,,,
null,is touching,,html-keyboard-response,386,2111291,0.0-19.0-2.15,87306,List2B,black,woman,,,,null,,,,
9487,,,survey-text,387,2120781,0.0-19.0-3.15,87306,List2B,black,woman,,,,,"{""Q0"":""Kate is touching Mike""}","<img src=""stim_listB/touch3.gif""style=""height:400px;""></stim_listB>",is touching,
null,"<div style=""font-size:60px;"">+</div>",,html-keyboard-response,388,2121286,0.0-19.0-0.16,87306,List2B,black,woman,,,,null,,,,
null,"<img src=""stim_listB/argue2.gif""style=""height:400px;""></stim_listB>",,html-keyboard-response,389,2123290,0.0-19.0-1.16,87306,List2B,black,woman,,,,null,,,,
null,are arguing with each other,,html-keyboard-response,390,2125296,0.0-19.0-2.16,87306,List2B,black,woman,,,,null,,,,
10840,,,survey-text,391,2136140,0.0-19.0-3.16,87306,List2B,black,woman,,,,,"{""Q0"":""Jane and Luke are arguing with each other""}","<img src=""stim_listB/argue2.gif""style=""height:400px;""></stim_listB>",are arguing with each other,
null,"<div style=""font-size:60px;"">+</div>",,html-keyboard-response,392,2136645,0.0-19.0-0.17,87306,List2B,black,woman,,,,null,,,,
null,"<img src=""stim_listB/flirt3.gif""style=""height:400px;""></stim_listB>",,html-keyboard-response,393,2138651,0.0-19.0-1.17,87306,List2B,black,woman,,,,null,,,,
null,is flirting with,,html-keyboard-response,394,2140655,0.0-19.0-2.17,87306,List2B,black,woman,,,,null,,,,
8276,,,survey-text,395,2148933,0.0-19.0-3.17,87306,List2B,black,woman,,,,,"{""Q0"":""Kate is flirting with Fred""}","<img src=""stim_listB/flirt3.gif""style=""height:400px;""></stim_listB>",is flirting with,
null,"<div style=""font-size:60px;"">+</div>",,html-keyboard-response,396,2149470,0.0-19.0-0.18,87306,List2B,black,woman,,,,null,,,,
null,"<img src=""stim_listB/dance5.gif""style=""height:400px;""></stim_listB>",,html-keyboard-response,397,2151476,0.0-19.0-1.18,87306,List2B,black,woman,,,,null,,,,
null,is dancing with,,html-keyboard-response,398,2153479,0.0-19.0-2.18,87306,List2B,black,woman,,,,null,,,,
9510,,,survey-text,399,2162994,0.0-19.0-3.18,87306,List2B,black,woman,,,,,"{""Q0"":""Fred is dancing with Luke""}","<img src=""stim_listB/dance5.gif""style=""height:400px;""></stim_listB>",is dancing with,
null,"<div style=""font-size:60px;"">+</div>",,html-keyboard-response,400,2163499,0.0-19.0-0.19,87306,List2B,black,woman,,,,null,,,,
null,"<img src=""stim_listB/dance2.gif""style=""height:400px;""></stim_listB>",,html-keyboard-response,401,2165503,0.0-19.0-1.19,87306,List2B,black,woman,,,,null,,,,
null,are dancing with each other,,html-keyboard-response,402,2167506,0.0-19.0-2.19,87306,List2B,black,woman,,,,null,,,,
11651,,,survey-text,403,2179161,0.0-19.0-3.19,87306,List2B,black,woman,,,,,"{""Q0"":""Ruth and Dave is dancing with each other""}","<img src=""stim_listB/dance2.gif""style=""height:400px;""></stim_listB>",are dancing with each other,
3346,<p>Thank you for completing that task.</p><p>The final part of this session is a short questionnaire.</p><p>Press Continue.</p>,0,html-button-response,404,2182511,0.0-20.0,87306,List2B,black,woman,,,,,,,,
50335,,,survey-text,405,2233871,0.0-21.0,87306,List2B,black,woman,,,,,"{""Q0"":""37"",""Q1"":""English"",""Q2"":""English"",""Q3"":""United States"",""Q4"":""African American"",""Q5"":""Female""}",,,demographics
9877,,,survey-likert,406,2243758,0.0-22.0,87306,List2B,black,woman,,,,,"{""Q0"":4}",,,likert_ESS
15167,,,survey-likert,407,2258932,0.0-23.0,87306,List2B,black,woman,,,,,"{""Q0"":4}",,,likert_NSSAL_Q1
3828,,,survey-likert,408,2262769,0.0-24.0,87306,List2B,black,woman,,,,,"{""Q0"":4}",,,likert_NSSAL_Q2
7333,,,survey-likert,409,2270108,0.0-25.0,87306,List2B,black,woman,,,,,"{""Q0"":4}",,,likert_CGRS_Q1
5695,,,survey-likert,410,2275810,0.0-26.0,87306,List2B,black,woman,,,,,"{""Q0"":4}",,,likert_CGRS_Q2
3719,,,survey-likert,411,2279537,0.0-27.0,87306,List2B,black,woman,,,,,"{""Q0"":4}",,,likert_CGRS_Q3
8810,,,survey-text,412,2288352,0.0-28.0,87306,List2B,black,woman,,,,,"{""Q0"":""ccc""}",,,worker_id
55284,,,external-html,413,2343866,0.0-29.0,87306,List2B,black,woman,debrief.html,,,,,,,
