rt,stimulus,button_pressed,trial_type,trial_index,time_elapsed,internal_node_id,subject,list,ppt_race,ppt_gender,url,first_guess,correct,key_press,responses,image_type,phrase_type,test_part
1695,Welcome to the experiment. Press Continue to begin.,0,html-button-response,0,1706,0.0-0.0,87731,List1A,white,man,,,,,,,,
42091,,,external-html,1,47969,0.0-1.0,87731,List1A,white,man,consent.html,,,,,,,
13816,"<p>On the next page, you will see portraits of 8 people and their names.</p><p>Your first task is to take a few minutes to memorise the names of these people.</p><p>You will have to recall their names during the rest of the experiment, so it is</p><p>essential that you try to memorise these people and their names as best as you can.</p><br><p><strong>You will then be tested on your memory of these names and portraits.</strong></p><br><p>The experiment will start after you have completed this memory test.</p><br><p>Ready?</p>",0,html-button-response,2,61787,0.0-2.0,87731,List1A,white,man,,,,,,,,
68832,"<img src='img/portrait_matrix_list1.jpg' style='width:900px;height:500px;''></img><p>If you have memorised all the portraits and names and are ready to start, press Continue.</p><p><strong>Please note: Your memory of these faces will be tested 4 times during this experiment.</strong></p>",0,html-button-response,3,131625,0.0-3.0-0.0,87731,List1A,white,man,,,,,,,,
12852,"<img src=""portrait/WW2.jpg""style=""height:400px;""></img>",3,html-button-response,4,145486,0.0-3.0-1.0,87731,List1A,white,man,,TRUE,3,,,,,
null,CORRECT,,html-keyboard-response,5,147002,0.0-3.0-2.0-0.0,87731,List1A,white,man,,,,null,,,,
4678,"<img src=""portrait/BW2.jpg""style=""height:400px;""></img>",2,html-button-response,6,151685,0.0-3.0-4.0,87731,List1A,white,man,,TRUE,2,,,,,
null,CORRECT,,html-keyboard-response,7,153188,0.0-3.0-5.0-0.0,87731,List1A,white,man,,,,null,,,,
21935,"<img src=""portrait/WM2.jpg""style=""height:400px;""></img>",7,html-button-response,8,175132,0.0-3.0-7.0,87731,List1A,white,man,,TRUE,7,,,,,
null,CORRECT,,html-keyboard-response,9,176648,0.0-3.0-8.0-0.0,87731,List1A,white,man,,,,null,,,,
7374,"<img src=""portrait/WW1.jpg""style=""height:400px;""></img>",1,html-button-response,10,184033,0.0-3.0-10.0,87731,List1A,white,man,,TRUE,1,,,,,
null,CORRECT,,html-keyboard-response,11,185538,0.0-3.0-11.0-0.0,87731,List1A,white,man,,,,null,,,,
5747,"<img src=""portrait/BM1.jpg""style=""height:400px;""></img>",4,html-button-response,12,191290,0.0-3.0-13.0,87731,List1A,white,man,,TRUE,4,,,,,
null,CORRECT,,html-keyboard-response,13,192796,0.0-3.0-14.0-0.0,87731,List1A,white,man,,,,null,,,,
3362,"<img src=""portrait/WM1.jpg""style=""height:400px;""></img>",6,html-button-response,14,196163,0.0-3.0-16.0,87731,List1A,white,man,,TRUE,6,,,,,
null,CORRECT,,html-keyboard-response,15,197668,0.0-3.0-17.0-0.0,87731,List1A,white,man,,,,null,,,,
3316,"<img src=""portrait/BW1.jpg""style=""height:400px;""></img>",0,html-button-response,16,200990,0.0-3.0-19.0,87731,List1A,white,man,,TRUE,0,,,,,
null,CORRECT,,html-keyboard-response,17,202496,0.0-3.0-20.0-0.0,87731,List1A,white,man,,,,null,,,,
3377,"<img src=""portrait/BM2.jpg""style=""height:400px;""></img>",5,html-button-response,18,205883,0.0-3.0-22.0,87731,List1A,white,man,,TRUE,5,,,,,
null,CORRECT,,html-keyboard-response,19,207388,0.0-3.0-23.0-0.0,87731,List1A,white,man,,,,null,,,,
2063,<p>You got 8 out of 8 right first time. Press Continue.</p>,0,html-button-response,20,209459,0.0-3.0-25.0,87731,List1A,white,man,,,,,,,,
26629,"<p>In this experiment, you will view photographs of the people from the memory game interacting.</p><p>By using the <strong>exact</strong> phrase given <i>after</i> the photograph appears and recalling the correct names of the people in the photographs, form a sentence describing the interaction. You do not need to capitalise names.</p><p>Type your answer in the space provided. Please complete every sentence before moving onto the next trial.</p><p>You will only have a few seconds to memorise each given photograph and phrase before you can respond, so try your best to focus.</p><p>An example is given below. Press 'Continue' when you are ready.</p><img src='img/speaking_example.jpg' style='width:800px;height:460px;''></img>",0,html-button-response,21,237096,0.0-4.0,87731,List1A,white,man,,,,,,,,
3628,"<p>Before the experiment starts, you will watch two example trials. Press 'Continue'.</p>",0,html-button-response,22,241729,0.0-5.0,87731,List1A,white,man,,,,,,,,
null,<img src='img/meet_eg.gif' style='height:400px;''></img>,,html-keyboard-response,23,244733,0.0-6.0,87731,List1A,white,man,,,,null,,,,
null,<p>is meeting</p>,,html-keyboard-response,24,246737,0.0-7.0,87731,List1A,white,man,,,,null,,,,
5803,<p><b>Answer:</b> kate is meeting beth</p>,0,html-button-response,25,252544,0.0-8.0,87731,List1A,white,man,,,,,,,,
null,<img src='img/look_eg.gif' style='height:400px;''></img>,,html-keyboard-response,26,255549,0.0-9.0,87731,List1A,white,man,,,,null,,,,
null,<p>are looking at each other</p>,,html-keyboard-response,27,257552,0.0-10.0,87731,List1A,white,man,,,,null,,,,
4366,<p><b>Answer:</b> luke and dave are looking at each other</p>,0,html-button-response,28,261921,0.0-11.0,87731,List1A,white,man,,,,,,,,
7559,"<p>Ready to start the experiment?</p><br><p><strong>Remember to describe the picture using a full sentence,</strong></p><p><strong>that combines the names of the people with the <i>exact</i> phrase given.</strong></p><p><strong>To receive full payment you must do this correctly.</strong></p><p><strong> You do not need to capitalise names or use punctuation.</strong></p><br><p>Press 'Continue' to begin.</p>",0,html-button-response,29,270483,0.0-12.0,87731,List1A,white,man,,,,,,,,
null,"<div style=""font-size:60px;"">+</div>",,html-keyboard-response,30,271989,0.0-13.0-0.0,87731,List1A,white,man,,,,null,,,,
null,"<img src=""stim_listA/play4.gif""style=""height:400px;""></stim_listA>",,html-keyboard-response,31,273997,0.0-13.0-1.0,87731,List1A,white,man,,,,null,,,,
null,are playing with each other,,html-keyboard-response,32,276002,0.0-13.0-2.0,87731,List1A,white,man,,,,null,,,,
14940,,,survey-text,33,290961,0.0-13.0-3.0,87731,List1A,white,man,,,,,"{""Q0"":""Luke and Ruth are playing with each other.""}","<img src=""stim_listA/play4.gif""style=""height:400px;""></stim_listA>",are playing with each other,
null,"<div style=""font-size:60px;"">+</div>",,html-keyboard-response,34,291465,0.0-13.0-0.1,87731,List1A,white,man,,,,null,,,,
null,"<img src=""stim_listA/shout2.gif""style=""height:400px;""></stim_listA>",,html-keyboard-response,35,293469,0.0-13.0-1.1,87731,List1A,white,man,,,,null,,,,
null,are shouting at each other,,html-keyboard-response,36,295472,0.0-13.0-2.1,87731,List1A,white,man,,,,null,,,,
13802,,,survey-text,37,309278,0.0-13.0-3.1,87731,List1A,white,man,,,,,"{""Q0"":""Kate and mike are shouting at each other.""}","<img src=""stim_listA/shout2.gif""style=""height:400px;""></stim_listA>",are shouting at each other,
null,"<div style=""font-size:60px;"">+</div>",,html-keyboard-response,38,309781,0.0-13.0-0.2,87731,List1A,white,man,,,,null,,,,
null,"<img src=""stim_listA/flirt6.gif""style=""height:400px;""></stim_listA>",,html-keyboard-response,39,311783,0.0-13.0-1.2,87731,List1A,white,man,,,,null,,,,
null,are flirting with each other,,html-keyboard-response,40,313787,0.0-13.0-2.2,87731,List1A,white,man,,,,null,,,,
10621,,,survey-text,41,324413,0.0-13.0-3.2,87731,List1A,white,man,,,,,"{""Q0"":""Luke and mike are flirting with each other.""}","<img src=""stim_listA/flirt6.gif""style=""height:400px;""></stim_listA>",are flirting with each other,
null,"<div style=""font-size:60px;"">+</div>",,html-keyboard-response,42,324916,0.0-13.0-0.3,87731,List1A,white,man,,,,null,,,,
null,"<img src=""stim_listA/play7.gif""style=""height:400px;""></stim_listA>",,html-keyboard-response,43,326920,0.0-13.0-1.3,87731,List1A,white,man,,,,null,,,,
null,is playing with,,html-keyboard-response,44,328924,0.0-13.0-2.3,87731,List1A,white,man,,,,null,,,,
8826,,,survey-text,45,337755,0.0-13.0-3.3,87731,List1A,white,man,,,,,"{""Q0"":""Jane is playing with Kate.""}","<img src=""stim_listA/play7.gif""style=""height:400px;""></stim_listA>",is playing with,
null,"<div style=""font-size:60px;"">+</div>",,html-keyboard-response,46,338258,0.0-13.0-0.4,87731,List1A,white,man,,,,null,,,,
null,"<img src=""stim_listA/fight7.gif""style=""height:400px;""></stim_listA>",,html-keyboard-response,47,340261,0.0-13.0-1.4,87731,List1A,white,man,,,,null,,,,
null,is fighting,,html-keyboard-response,48,342265,0.0-13.0-2.4,87731,List1A,white,man,,,,null,,,,
17481,,,survey-text,49,359755,0.0-13.0-3.4,87731,List1A,white,man,,,,,"{""Q0"":""Jane is fighting Kate.""}","<img src=""stim_listA/fight7.gif""style=""height:400px;""></stim_listA>",is fighting,
null,"<div style=""font-size:60px;"">+</div>",,html-keyboard-response,50,360258,0.0-13.0-0.5,87731,List1A,white,man,,,,null,,,,
null,"<img src=""stim_listA/touch8.gif""style=""height:400px;""></stim_listA>",,html-keyboard-response,51,362262,0.0-13.0-1.5,87731,List1A,white,man,,,,null,,,,
null,are touching each other,,html-keyboard-response,52,364266,0.0-13.0-2.5,87731,List1A,white,man,,,,null,,,,
13352,,,survey-text,53,377622,0.0-13.0-3.5,87731,List1A,white,man,,,,,"{""Q0"":""Ruth and Beth are touching each other.""}","<img src=""stim_listA/touch8.gif""style=""height:400px;""></stim_listA>",are touching each other,
null,"<div style=""font-size:60px;"">+</div>",,html-keyboard-response,54,378125,0.0-13.0-0.6,87731,List1A,white,man,,,,null,,,,
null,"<img src=""stim_listA/shout5.gif""style=""height:400px;""></stim_listA>",,html-keyboard-response,55,380128,0.0-13.0-1.6,87731,List1A,white,man,,,,null,,,,
null,is shouting at,,html-keyboard-response,56,382132,0.0-13.0-2.6,87731,List1A,white,man,,,,null,,,,
14088,,,survey-text,57,396225,0.0-13.0-3.6,87731,List1A,white,man,,,,,"{""Q0"":""Fred is shouting at Luke.""}","<img src=""stim_listA/shout5.gif""style=""height:400px;""></stim_listA>",is shouting at,
null,"<div style=""font-size:60px;"">+</div>",,html-keyboard-response,58,396728,0.0-13.0-0.7,87731,List1A,white,man,,,,null,,,,
null,"<img src=""stim_listA/kiss8.gif""style=""height:400px;""></stim_listA>",,html-keyboard-response,59,398732,0.0-13.0-1.7,87731,List1A,white,man,,,,null,,,,
null,are kissing each other,,html-keyboard-response,60,400737,0.0-13.0-2.7,87731,List1A,white,man,,,,null,,,,
11562,,,survey-text,61,412306,0.0-13.0-3.7,87731,List1A,white,man,,,,,"{""Q0"":""Kate and Jane are kissing each other.""}","<img src=""stim_listA/kiss8.gif""style=""height:400px;""></stim_listA>",are kissing each other,
null,"<div style=""font-size:60px;"">+</div>",,html-keyboard-response,62,412812,0.0-13.0-0.8,87731,List1A,white,man,,,,null,,,,
null,"<img src=""stim_listA/argue1.gif""style=""height:400px;""></stim_listA>",,html-keyboard-response,63,414816,0.0-13.0-1.8,87731,List1A,white,man,,,,null,,,,
null,is arguing with,,html-keyboard-response,64,416819,0.0-13.0-2.8,87731,List1A,white,man,,,,null,,,,
14832,,,survey-text,65,431657,0.0-13.0-3.8,87731,List1A,white,man,,,,,"{""Q0"":""Beth is arguing with mike.""}","<img src=""stim_listA/argue1.gif""style=""height:400px;""></stim_listA>",is arguing with,
null,"<div style=""font-size:60px;"">+</div>",,html-keyboard-response,66,432160,0.0-13.0-0.9,87731,List1A,white,man,,,,null,,,,
null,"<img src=""stim_listA/dance5.gif""style=""height:400px;""></stim_listA>",,html-keyboard-response,67,434164,0.0-13.0-1.9,87731,List1A,white,man,,,,null,,,,
null,is dancing with,,html-keyboard-response,68,436168,0.0-13.0-2.9,87731,List1A,white,man,,,,null,,,,
11786,,,survey-text,69,447958,0.0-13.0-3.9,87731,List1A,white,man,,,,,"{""Q0"":""Fred is dancing with Dave. ""}","<img src=""stim_listA/dance5.gif""style=""height:400px;""></stim_listA>",is dancing with,
null,"<div style=""font-size:60px;"">+</div>",,html-keyboard-response,70,448461,0.0-13.0-0.10,87731,List1A,white,man,,,,null,,,,
null,"<img src=""stim_listA/talk1.gif""style=""height:400px;""></stim_listA>",,html-keyboard-response,71,450465,0.0-13.0-1.10,87731,List1A,white,man,,,,null,,,,
null,is talking to,,html-keyboard-response,72,452468,0.0-13.0-2.10,87731,List1A,white,man,,,,null,,,,
15149,,,survey-text,73,467621,0.0-13.0-3.10,87731,List1A,white,man,,,,,"{""Q0"":""Fred is talking to Kate. ""}","<img src=""stim_listA/talk1.gif""style=""height:400px;""></stim_listA>",is talking to,
null,"<div style=""font-size:60px;"">+</div>",,html-keyboard-response,74,468124,0.0-13.0-0.11,87731,List1A,white,man,,,,null,,,,
null,"<img src=""stim_listA/argue3.gif""style=""height:400px;""></stim_listA>",,html-keyboard-response,75,470128,0.0-13.0-1.11,87731,List1A,white,man,,,,null,,,,
null,is arguing with,,html-keyboard-response,76,472132,0.0-13.0-2.11,87731,List1A,white,man,,,,null,,,,
6950,,,survey-text,77,479087,0.0-13.0-3.11,87731,List1A,white,man,,,,,"{""Q0"":""Dave is arguing with Ruth.""}","<img src=""stim_listA/argue3.gif""style=""height:400px;""></stim_listA>",is arguing with,
null,"<div style=""font-size:60px;"">+</div>",,html-keyboard-response,78,479589,0.0-13.0-0.12,87731,List1A,white,man,,,,null,,,,
null,"<img src=""stim_listA/shout3.gif""style=""height:400px;""></stim_listA>",,html-keyboard-response,79,481593,0.0-13.0-1.12,87731,List1A,white,man,,,,null,,,,
null,is shouting at,,html-keyboard-response,80,483597,0.0-13.0-2.12,87731,List1A,white,man,,,,null,,,,
5688,,,survey-text,81,489290,0.0-13.0-3.12,87731,List1A,white,man,,,,,"{""Q0"":""Ruth is shouting at Luke.""}","<img src=""stim_listA/shout3.gif""style=""height:400px;""></stim_listA>",is shouting at,
null,"<div style=""font-size:60px;"">+</div>",,html-keyboard-response,82,489792,0.0-13.0-0.13,87731,List1A,white,man,,,,null,,,,
null,"<img src=""stim_listA/dance3.gif""style=""height:400px;""></stim_listA>",,html-keyboard-response,83,491795,0.0-13.0-1.13,87731,List1A,white,man,,,,null,,,,
null,is dancing with,,html-keyboard-response,84,493802,0.0-13.0-2.13,87731,List1A,white,man,,,,null,,,,
6914,,,survey-text,85,500720,0.0-13.0-3.13,87731,List1A,white,man,,,,,"{""Q0"":""Luke is dancing with Jane.""}","<img src=""stim_listA/dance3.gif""style=""height:400px;""></stim_listA>",is dancing with,
null,"<div style=""font-size:60px;"">+</div>",,html-keyboard-response,86,501222,0.0-13.0-0.14,87731,List1A,white,man,,,,null,,,,
null,"<img src=""stim_listA/marry6.gif""style=""height:400px;""></stim_listA>",,html-keyboard-response,87,503226,0.0-13.0-1.14,87731,List1A,white,man,,,,null,,,,
null,are marrying each other,,html-keyboard-response,88,505229,0.0-13.0-2.14,87731,List1A,white,man,,,,null,,,,
8451,,,survey-text,89,513690,0.0-13.0-3.14,87731,List1A,white,man,,,,,"{""Q0"":""Fred and Dave are marrying each other.""}","<img src=""stim_listA/marry6.gif""style=""height:400px;""></stim_listA>",are marrying each other,
null,"<div style=""font-size:60px;"">+</div>",,html-keyboard-response,90,514193,0.0-13.0-0.15,87731,List1A,white,man,,,,null,,,,
null,"<img src=""stim_listA/touch5.gif""style=""height:400px;""></stim_listA>",,html-keyboard-response,91,516196,0.0-13.0-1.15,87731,List1A,white,man,,,,null,,,,
null,is touching,,html-keyboard-response,92,518200,0.0-13.0-2.15,87731,List1A,white,man,,,,null,,,,
14642,,,survey-text,93,532847,0.0-13.0-3.15,87731,List1A,white,man,,,,,"{""Q0"":""Mike is touching Dave.""}","<img src=""stim_listA/touch5.gif""style=""height:400px;""></stim_listA>",is touching,
null,"<div style=""font-size:60px;"">+</div>",,html-keyboard-response,94,533350,0.0-13.0-0.16,87731,List1A,white,man,,,,null,,,,
null,"<img src=""stim_listA/play8.gif""style=""height:400px;""></stim_listA>",,html-keyboard-response,95,535354,0.0-13.0-1.16,87731,List1A,white,man,,,,null,,,,
null,are playing with each other,,html-keyboard-response,96,537358,0.0-13.0-2.16,87731,List1A,white,man,,,,null,,,,
10486,,,survey-text,97,547848,0.0-13.0-3.16,87731,List1A,white,man,,,,,"{""Q0"":""Ruth and Beth are playing with each other.""}","<img src=""stim_listA/play8.gif""style=""height:400px;""></stim_listA>",are playing with each other,
null,"<div style=""font-size:60px;"">+</div>",,html-keyboard-response,98,548355,0.0-13.0-0.17,87731,List1A,white,man,,,,null,,,,
null,"<img src=""stim_listA/marry3.gif""style=""height:400px;""></stim_listA>",,html-keyboard-response,99,550359,0.0-13.0-1.17,87731,List1A,white,man,,,,null,,,,
null,is marrying,,html-keyboard-response,100,552362,0.0-13.0-2.17,87731,List1A,white,man,,,,null,,,,
9030,,,survey-text,101,561396,0.0-13.0-3.17,87731,List1A,white,man,,,,,"{""Q0"":""Ruth is marrying Dave. ""}","<img src=""stim_listA/marry3.gif""style=""height:400px;""></stim_listA>",is marrying,
null,"<div style=""font-size:60px;"">+</div>",,html-keyboard-response,102,561898,0.0-13.0-0.18,87731,List1A,white,man,,,,null,,,,
null,"<img src=""stim_listA/argue8.gif""style=""height:400px;""></stim_listA>",,html-keyboard-response,103,563902,0.0-13.0-1.18,87731,List1A,white,man,,,,null,,,,
null,are arguing with each other,,html-keyboard-response,104,565906,0.0-13.0-2.18,87731,List1A,white,man,,,,null,,,,
7851,,,survey-text,105,573760,0.0-13.0-3.18,87731,List1A,white,man,,,,,"{""Q0"":""Jane and Beth are arguing with each other.""}","<img src=""stim_listA/argue8.gif""style=""height:400px;""></stim_listA>",are arguing with each other,
null,"<div style=""font-size:60px;"">+</div>",,html-keyboard-response,106,574263,0.0-13.0-0.19,87731,List1A,white,man,,,,null,,,,
null,"<img src=""stim_listA/kiss1.gif""style=""height:400px;""></stim_listA>",,html-keyboard-response,107,576268,0.0-13.0-1.19,87731,List1A,white,man,,,,null,,,,
null,is kissing,,html-keyboard-response,108,578272,0.0-13.0-2.19,87731,List1A,white,man,,,,null,,,,
6023,,,survey-text,109,584299,0.0-13.0-3.19,87731,List1A,white,man,,,,,"{""Q0"":""Fred is kissing Beth.""}","<img src=""stim_listA/kiss1.gif""style=""height:400px;""></stim_listA>",is kissing,
11544,"<img src='img/portrait_matrix_list1.jpg' style='width:900px;height:500px;''></img><p>If you have memorised all the portraits and names and are ready to start, press Continue.</p><p><strong>Please note: Your memory of these faces will be tested 4 times during this experiment.</strong></p>",0,html-button-response,110,595846,0.0-14.0-0.0,87731,List1A,white,man,,,,,,,,
6005,"<img src=""portrait/BM2.jpg""style=""height:400px;""></img>",5,html-button-response,111,602857,0.0-14.0-1.0,87731,List1A,white,man,,TRUE,5,,,,,
null,CORRECT,,html-keyboard-response,112,604362,0.0-14.0-2.0-0.0,87731,List1A,white,man,,,,null,,,,
11887,"<img src=""portrait/WW2.jpg""style=""height:400px;""></img>",3,html-button-response,113,616255,0.0-14.0-4.0,87731,List1A,white,man,,TRUE,3,,,,,
null,CORRECT,,html-keyboard-response,114,617759,0.0-14.0-5.0-0.0,87731,List1A,white,man,,,,null,,,,
3410,"<img src=""portrait/BW1.jpg""style=""height:400px;""></img>",0,html-button-response,115,621174,0.0-14.0-7.0,87731,List1A,white,man,,TRUE,0,,,,,
null,CORRECT,,html-keyboard-response,116,622678,0.0-14.0-8.0-0.0,87731,List1A,white,man,,,,null,,,,
2771,"<img src=""portrait/WM1.jpg""style=""height:400px;""></img>",6,html-button-response,117,625454,0.0-14.0-10.0,87731,List1A,white,man,,TRUE,6,,,,,
null,CORRECT,,html-keyboard-response,118,626957,0.0-14.0-11.0-0.0,87731,List1A,white,man,,,,null,,,,
8326,"<img src=""portrait/BW2.jpg""style=""height:400px;""></img>",2,html-button-response,119,635286,0.0-14.0-13.0,87731,List1A,white,man,,TRUE,2,,,,,
null,CORRECT,,html-keyboard-response,120,636790,0.0-14.0-14.0-0.0,87731,List1A,white,man,,,,null,,,,
2085,"<img src=""portrait/BM1.jpg""style=""height:400px;""></img>",4,html-button-response,121,638879,0.0-14.0-16.0,87731,List1A,white,man,,TRUE,4,,,,,
null,CORRECT,,html-keyboard-response,122,640384,0.0-14.0-17.0-0.0,87731,List1A,white,man,,,,null,,,,
2197,"<img src=""portrait/WM2.jpg""style=""height:400px;""></img>",7,html-button-response,123,642586,0.0-14.0-19.0,87731,List1A,white,man,,TRUE,7,,,,,
null,CORRECT,,html-keyboard-response,124,644090,0.0-14.0-20.0-0.0,87731,List1A,white,man,,,,null,,,,
2715,"<img src=""portrait/WW1.jpg""style=""height:400px;""></img>",1,html-button-response,125,646809,0.0-14.0-22.0,87731,List1A,white,man,,TRUE,1,,,,,
null,CORRECT,,html-keyboard-response,126,648313,0.0-14.0-23.0-0.0,87731,List1A,white,man,,,,null,,,,
1987,<p>You got 8 out of 8 right first time. Press Continue.</p>,0,html-button-response,127,650305,0.0-14.0-25.0,87731,List1A,white,man,,,,,,,,
null,"<div style=""font-size:60px;"">+</div>",,html-keyboard-response,128,651810,0.0-15.0-0.0,87731,List1A,white,man,,,,null,,,,
null,"<img src=""stim_listA/fight1.gif""style=""height:400px;""></stim_listA>",,html-keyboard-response,129,653816,0.0-15.0-1.0,87731,List1A,white,man,,,,null,,,,
null,is fighting,,html-keyboard-response,130,655821,0.0-15.0-2.0,87731,List1A,white,man,,,,null,,,,
12537,,,survey-text,131,668363,0.0-15.0-3.0,87731,List1A,white,man,,,,,"{""Q0"":""Mike is fighting Kate.""}","<img src=""stim_listA/fight1.gif""style=""height:400px;""></stim_listA>",is fighting,
null,"<div style=""font-size:60px;"">+</div>",,html-keyboard-response,132,668865,0.0-15.0-0.1,87731,List1A,white,man,,,,null,,,,
null,"<img src=""stim_listA/flirt8.gif""style=""height:400px;""></stim_listA>",,html-keyboard-response,133,670869,0.0-15.0-1.1,87731,List1A,white,man,,,,null,,,,
null,are flirting with each other,,html-keyboard-response,134,672872,0.0-15.0-2.1,87731,List1A,white,man,,,,null,,,,
16144,,,survey-text,135,689021,0.0-15.0-3.1,87731,List1A,white,man,,,,,"{""Q0"":""Ruth and Kate are flirting with each other.""}","<img src=""stim_listA/flirt8.gif""style=""height:400px;""></stim_listA>",are flirting with each other,
null,"<div style=""font-size:60px;"">+</div>",,html-keyboard-response,136,689523,0.0-15.0-0.2,87731,List1A,white,man,,,,null,,,,
null,"<img src=""stim_listA/talk6.gif""style=""height:400px;""></stim_listA>",,html-keyboard-response,137,691527,0.0-15.0-1.2,87731,List1A,white,man,,,,null,,,,
null,are talking to each other,,html-keyboard-response,138,693530,0.0-15.0-2.2,87731,List1A,white,man,,,,null,,,,
7930,,,survey-text,139,701464,0.0-15.0-3.2,87731,List1A,white,man,,,,,"{""Q0"":""Luke and mike are talking to each other.""}","<img src=""stim_listA/talk6.gif""style=""height:400px;""></stim_listA>",are talking to each other,
null,"<div style=""font-size:60px;"">+</div>",,html-keyboard-response,140,701967,0.0-15.0-0.3,87731,List1A,white,man,,,,null,,,,
null,"<img src=""stim_listA/flirt5.gif""style=""height:400px;""></stim_listA>",,html-keyboard-response,141,703971,0.0-15.0-1.3,87731,List1A,white,man,,,,null,,,,
null,is flirting with,,html-keyboard-response,142,705974,0.0-15.0-2.3,87731,List1A,white,man,,,,null,,,,
8558,,,survey-text,143,714536,0.0-15.0-3.3,87731,List1A,white,man,,,,,"{""Q0"":""Fred is flirting with Dave.""}","<img src=""stim_listA/flirt5.gif""style=""height:400px;""></stim_listA>",is flirting with,
null,"<div style=""font-size:60px;"">+</div>",,html-keyboard-response,144,715039,0.0-15.0-0.4,87731,List1A,white,man,,,,null,,,,
null,"<img src=""stim_listA/fight6.gif""style=""height:400px;""></stim_listA>",,html-keyboard-response,145,717043,0.0-15.0-1.4,87731,List1A,white,man,,,,null,,,,
null,are fighting each other,,html-keyboard-response,146,719047,0.0-15.0-2.4,87731,List1A,white,man,,,,null,,,,
8573,,,survey-text,147,727625,0.0-15.0-3.4,87731,List1A,white,man,,,,,"{""Q0"":""Luke and Fred are fighting each other.""}","<img src=""stim_listA/fight6.gif""style=""height:400px;""></stim_listA>",are fighting each other,
null,"<div style=""font-size:60px;"">+</div>",,html-keyboard-response,148,728128,0.0-15.0-0.5,87731,List1A,white,man,,,,null,,,,
null,"<img src=""stim_listA/marry7.gif""style=""height:400px;""></stim_listA>",,html-keyboard-response,149,730132,0.0-15.0-1.5,87731,List1A,white,man,,,,null,,,,
null,is marrying,,html-keyboard-response,150,732135,0.0-15.0-2.5,87731,List1A,white,man,,,,null,,,,
6633,,,survey-text,151,738772,0.0-15.0-3.5,87731,List1A,white,man,,,,,"{""Q0"":""Ruth is marrying Kate.""}","<img src=""stim_listA/marry7.gif""style=""height:400px;""></stim_listA>",is marrying,
null,"<div style=""font-size:60px;"">+</div>",,html-keyboard-response,152,739275,0.0-15.0-0.6,87731,List1A,white,man,,,,null,,,,
null,"<img src=""stim_listA/play5.gif""style=""height:400px;""></stim_listA>",,html-keyboard-response,153,741279,0.0-15.0-1.6,87731,List1A,white,man,,,,null,,,,
null,is playing with,,html-keyboard-response,154,743283,0.0-15.0-2.6,87731,List1A,white,man,,,,null,,,,
6510,,,survey-text,155,749798,0.0-15.0-3.6,87731,List1A,white,man,,,,,"{""Q0"":""Dave is playing with mike. ""}","<img src=""stim_listA/play5.gif""style=""height:400px;""></stim_listA>",is playing with,
null,"<div style=""font-size:60px;"">+</div>",,html-keyboard-response,156,750300,0.0-15.0-0.7,87731,List1A,white,man,,,,null,,,,
null,"<img src=""stim_listA/fight8.gif""style=""height:400px;""></stim_listA>",,html-keyboard-response,157,752304,0.0-15.0-1.7,87731,List1A,white,man,,,,null,,,,
null,are fighting each other,,html-keyboard-response,158,754308,0.0-15.0-2.7,87731,List1A,white,man,,,,null,,,,
7358,,,survey-text,159,761669,0.0-15.0-3.7,87731,List1A,white,man,,,,,"{""Q0"":""Ruth and Beth are fighting each other.""}","<img src=""stim_listA/fight8.gif""style=""height:400px;""></stim_listA>",are fighting each other,
null,"<div style=""font-size:60px;"">+</div>",,html-keyboard-response,160,762172,0.0-15.0-0.8,87731,List1A,white,man,,,,null,,,,
null,"<img src=""stim_listA/talk7.gif""style=""height:400px;""></stim_listA>",,html-keyboard-response,161,764175,0.0-15.0-1.8,87731,List1A,white,man,,,,null,,,,
null,is talking to,,html-keyboard-response,162,766179,0.0-15.0-2.8,87731,List1A,white,man,,,,null,,,,
5844,,,survey-text,163,772027,0.0-15.0-3.8,87731,List1A,white,man,,,,,"{""Q0"":""Jane is talking to Beth.""}","<img src=""stim_listA/talk7.gif""style=""height:400px;""></stim_listA>",is talking to,
null,"<div style=""font-size:60px;"">+</div>",,html-keyboard-response,164,772530,0.0-15.0-0.9,87731,List1A,white,man,,,,null,,,,
null,"<img src=""stim_listA/dance8.gif""style=""height:400px;""></stim_listA>",,html-keyboard-response,165,774534,0.0-15.0-1.9,87731,List1A,white,man,,,,null,,,,
null,are dancing with each other,,html-keyboard-response,166,776538,0.0-15.0-2.9,87731,List1A,white,man,,,,null,,,,
10421,,,survey-text,167,786962,0.0-15.0-3.9,87731,List1A,white,man,,,,,"{""Q0"":""Kate and Ruth are dancing with each other.""}","<img src=""stim_listA/dance8.gif""style=""height:400px;""></stim_listA>",are dancing with each other,
null,"<div style=""font-size:60px;"">+</div>",,html-keyboard-response,168,787465,0.0-15.0-0.10,87731,List1A,white,man,,,,null,,,,
null,"<img src=""stim_listA/dance7.gif""style=""height:400px;""></stim_listA>",,html-keyboard-response,169,789470,0.0-15.0-1.10,87731,List1A,white,man,,,,null,,,,
null,is dancing with,,html-keyboard-response,170,791473,0.0-15.0-2.10,87731,List1A,white,man,,,,null,,,,
10942,,,survey-text,171,802420,0.0-15.0-3.10,87731,List1A,white,man,,,,,"{""Q0"":""Jane is dancing with Beth. ""}","<img src=""stim_listA/dance7.gif""style=""height:400px;""></stim_listA>",is dancing with,
null,"<div style=""font-size:60px;"">+</div>",,html-keyboard-response,172,802923,0.0-15.0-0.11,87731,List1A,white,man,,,,null,,,,
null,"<img src=""stim_listA/dance1.gif""style=""height:400px;""></stim_listA>",,html-keyboard-response,173,804926,0.0-15.0-1.11,87731,List1A,white,man,,,,null,,,,
null,is dancing with,,html-keyboard-response,174,806930,0.0-15.0-2.11,87731,List1A,white,man,,,,null,,,,
5455,,,survey-text,175,812390,0.0-15.0-3.11,87731,List1A,white,man,,,,,"{""Q0"":""Kate is dancing with Fred.""}","<img src=""stim_listA/dance1.gif""style=""height:400px;""></stim_listA>",is dancing with,
null,"<div style=""font-size:60px;"">+</div>",,html-keyboard-response,176,812895,0.0-15.0-0.12,87731,List1A,white,man,,,,null,,,,
null,"<img src=""stim_listA/fight4.gif""style=""height:400px;""></stim_listA>",,html-keyboard-response,177,814898,0.0-15.0-1.12,87731,List1A,white,man,,,,null,,,,
null,are fighting each other,,html-keyboard-response,178,816902,0.0-15.0-2.12,87731,List1A,white,man,,,,null,,,,
11778,,,survey-text,179,828683,0.0-15.0-3.12,87731,List1A,white,man,,,,,"{""Q0"":""Luke and Ruth are fighting each other.""}","<img src=""stim_listA/fight4.gif""style=""height:400px;""></stim_listA>",are fighting each other,
null,"<div style=""font-size:60px;"">+</div>",,html-keyboard-response,180,829186,0.0-15.0-0.13,87731,List1A,white,man,,,,null,,,,
null,"<img src=""stim_listA/talk5.gif""style=""height:400px;""></stim_listA>",,html-keyboard-response,181,831189,0.0-15.0-1.13,87731,List1A,white,man,,,,null,,,,
null,is talking to,,html-keyboard-response,182,833192,0.0-15.0-2.13,87731,List1A,white,man,,,,null,,,,
6043,,,survey-text,183,839240,0.0-15.0-3.13,87731,List1A,white,man,,,,,"{""Q0"":""Dave is talking to Fred.""}","<img src=""stim_listA/talk5.gif""style=""height:400px;""></stim_listA>",is talking to,
null,"<div style=""font-size:60px;"">+</div>",,html-keyboard-response,184,839742,0.0-15.0-0.14,87731,List1A,white,man,,,,null,,,,
null,"<img src=""stim_listA/argue4.gif""style=""height:400px;""></stim_listA>",,html-keyboard-response,185,841745,0.0-15.0-1.14,87731,List1A,white,man,,,,null,,,,
null,are arguing with each other,,html-keyboard-response,186,843748,0.0-15.0-2.14,87731,List1A,white,man,,,,null,,,,
13508,,,survey-text,187,857260,0.0-15.0-3.14,87731,List1A,white,man,,,,,"{""Q0"":""Luke and Jane are talking to each other.""}","<img src=""stim_listA/argue4.gif""style=""height:400px;""></stim_listA>",are arguing with each other,
null,"<div style=""font-size:60px;"">+</div>",,html-keyboard-response,188,857763,0.0-15.0-0.15,87731,List1A,white,man,,,,null,,,,
null,"<img src=""stim_listA/fight2.gif""style=""height:400px;""></stim_listA>",,html-keyboard-response,189,859767,0.0-15.0-1.15,87731,List1A,white,man,,,,null,,,,
null,are fighting each other,,html-keyboard-response,190,861770,0.0-15.0-2.15,87731,List1A,white,man,,,,null,,,,
7624,,,survey-text,191,869399,0.0-15.0-3.15,87731,List1A,white,man,,,,,"{""Q0"":""Fred and Beth are fighting each other.""}","<img src=""stim_listA/fight2.gif""style=""height:400px;""></stim_listA>",are fighting each other,
null,"<div style=""font-size:60px;"">+</div>",,html-keyboard-response,192,869902,0.0-15.0-0.16,87731,List1A,white,man,,,,null,,,,
null,"<img src=""stim_listA/argue6.gif""style=""height:400px;""></stim_listA>",,html-keyboard-response,193,871905,0.0-15.0-1.16,87731,List1A,white,man,,,,null,,,,
null,are arguing with each other,,html-keyboard-response,194,873909,0.0-15.0-2.16,87731,List1A,white,man,,,,null,,,,
15387,,,survey-text,195,889300,0.0-15.0-3.16,87731,List1A,white,man,,,,,"{""Q0"":""Fred and Dave are arguing with each other.""}","<img src=""stim_listA/argue6.gif""style=""height:400px;""></stim_listA>",are arguing with each other,
null,"<div style=""font-size:60px;"">+</div>",,html-keyboard-response,196,889802,0.0-15.0-0.17,87731,List1A,white,man,,,,null,,,,
null,"<img src=""stim_listA/kiss7.gif""style=""height:400px;""></stim_listA>",,html-keyboard-response,197,891806,0.0-15.0-1.17,87731,List1A,white,man,,,,null,,,,
null,is kissing,,html-keyboard-response,198,893810,0.0-15.0-2.17,87731,List1A,white,man,,,,null,,,,
10246,,,survey-text,199,904060,0.0-15.0-3.17,87731,List1A,white,man,,,,,"{""Q0"":""Ruth is kissing Beth.""}","<img src=""stim_listA/kiss7.gif""style=""height:400px;""></stim_listA>",is kissing,
null,"<div style=""font-size:60px;"">+</div>",,html-keyboard-response,200,904563,0.0-15.0-0.18,87731,List1A,white,man,,,,null,,,,
null,"<img src=""stim_listA/marry8.gif""style=""height:400px;""></stim_listA>",,html-keyboard-response,201,906566,0.0-15.0-1.18,87731,List1A,white,man,,,,null,,,,
null,are marrying each other,,html-keyboard-response,202,908570,0.0-15.0-2.18,87731,List1A,white,man,,,,null,,,,
8295,,,survey-text,203,916868,0.0-15.0-3.18,87731,List1A,white,man,,,,,"{""Q0"":""Jane and Beth are marrying each other.""}","<img src=""stim_listA/marry8.gif""style=""height:400px;""></stim_listA>",are marrying each other,
null,"<div style=""font-size:60px;"">+</div>",,html-keyboard-response,204,917372,0.0-15.0-0.19,87731,List1A,white,man,,,,null,,,,
null,"<img src=""stim_listA/dance2.gif""style=""height:400px;""></stim_listA>",,html-keyboard-response,205,919376,0.0-15.0-1.19,87731,List1A,white,man,,,,null,,,,
null,are dancing with each other,,html-keyboard-response,206,921379,0.0-15.0-2.19,87731,List1A,white,man,,,,null,,,,
7834,,,survey-text,207,929218,0.0-15.0-3.19,87731,List1A,white,man,,,,,"{""Q0"":""Mike and Beth are dancing with each other.""}","<img src=""stim_listA/dance2.gif""style=""height:400px;""></stim_listA>",are dancing with each other,
8351,"<img src='img/portrait_matrix_list1.jpg' style='width:900px;height:500px;''></img><p>If you have memorised all the portraits and names and are ready to start, press Continue.</p><p><strong>Please note: Your memory of these faces will be tested 4 times during this experiment.</strong></p>",0,html-button-response,208,937572,0.0-16.0-0.0,87731,List1A,white,man,,,,,,,,
2240,"<img src=""portrait/BM1.jpg""style=""height:400px;""></img>",4,html-button-response,209,940817,0.0-16.0-1.0,87731,List1A,white,man,,TRUE,4,,,,,
null,CORRECT,,html-keyboard-response,210,942323,0.0-16.0-2.0-0.0,87731,List1A,white,man,,,,null,,,,
3349,"<img src=""portrait/BM2.jpg""style=""height:400px;""></img>",5,html-button-response,211,945677,0.0-16.0-4.0,87731,List1A,white,man,,TRUE,5,,,,,
null,CORRECT,,html-keyboard-response,212,947182,0.0-16.0-5.0-0.0,87731,List1A,white,man,,,,null,,,,
5652,"<img src=""portrait/WW2.jpg""style=""height:400px;""></img>",3,html-button-response,213,952839,0.0-16.0-7.0,87731,List1A,white,man,,TRUE,3,,,,,
null,CORRECT,,html-keyboard-response,214,954344,0.0-16.0-8.0-0.0,87731,List1A,white,man,,,,null,,,,
2423,"<img src=""portrait/WW1.jpg""style=""height:400px;""></img>",1,html-button-response,215,956772,0.0-16.0-10.0,87731,List1A,white,man,,TRUE,1,,,,,
null,CORRECT,,html-keyboard-response,216,958279,0.0-16.0-11.0-0.0,87731,List1A,white,man,,,,null,,,,
3171,"<img src=""portrait/BW2.jpg""style=""height:400px;""></img>",2,html-button-response,217,961455,0.0-16.0-13.0,87731,List1A,white,man,,TRUE,2,,,,,
null,CORRECT,,html-keyboard-response,218,962958,0.0-16.0-14.0-0.0,87731,List1A,white,man,,,,null,,,,
2520,"<img src=""portrait/WM2.jpg""style=""height:400px;""></img>",7,html-button-response,219,965483,0.0-16.0-16.0,87731,List1A,white,man,,TRUE,7,,,,,
null,CORRECT,,html-keyboard-response,220,966987,0.0-16.0-17.0-0.0,87731,List1A,white,man,,,,null,,,,
3262,"<img src=""portrait/WM1.jpg""style=""height:400px;""></img>",6,html-button-response,221,970254,0.0-16.0-19.0,87731,List1A,white,man,,TRUE,6,,,,,
null,CORRECT,,html-keyboard-response,222,971759,0.0-16.0-20.0-0.0,87731,List1A,white,man,,,,null,,,,
2674,"<img src=""portrait/BW1.jpg""style=""height:400px;""></img>",0,html-button-response,223,974438,0.0-16.0-22.0,87731,List1A,white,man,,TRUE,0,,,,,
null,CORRECT,,html-keyboard-response,224,975943,0.0-16.0-23.0-0.0,87731,List1A,white,man,,,,null,,,,
3252,<p>You got 8 out of 8 right first time. Press Continue.</p>,0,html-button-response,225,979200,0.0-16.0-25.0,87731,List1A,white,man,,,,,,,,
null,"<div style=""font-size:60px;"">+</div>",,html-keyboard-response,226,980708,0.0-17.0-0.0,87731,List1A,white,man,,,,null,,,,
null,"<img src=""stim_listA/talk4.gif""style=""height:400px;""></stim_listA>",,html-keyboard-response,227,982714,0.0-17.0-1.0,87731,List1A,white,man,,,,null,,,,
null,are talking to each other,,html-keyboard-response,228,984719,0.0-17.0-2.0,87731,List1A,white,man,,,,null,,,,
7817,,,survey-text,229,992541,0.0-17.0-3.0,87731,List1A,white,man,,,,,"{""Q0"":""Ruth and Dave are talking to each other.""}","<img src=""stim_listA/talk4.gif""style=""height:400px;""></stim_listA>",are talking to each other,
null,"<div style=""font-size:60px;"">+</div>",,html-keyboard-response,230,993044,0.0-17.0-0.1,87731,List1A,white,man,,,,null,,,,
null,"<img src=""stim_listA/kiss5.gif""style=""height:400px;""></stim_listA>",,html-keyboard-response,231,995048,0.0-17.0-1.1,87731,List1A,white,man,,,,null,,,,
null,is kissing,,html-keyboard-response,232,997052,0.0-17.0-2.1,87731,List1A,white,man,,,,null,,,,
7361,,,survey-text,233,1004417,0.0-17.0-3.1,87731,List1A,white,man,,,,,"{""Q0"":""Luke is kissing Fred.""}","<img src=""stim_listA/kiss5.gif""style=""height:400px;""></stim_listA>",is kissing,
null,"<div style=""font-size:60px;"">+</div>",,html-keyboard-response,234,1004920,0.0-17.0-0.2,87731,List1A,white,man,,,,null,,,,
null,"<img src=""stim_listA/touch1.gif""style=""height:400px;""></stim_listA>",,html-keyboard-response,235,1006923,0.0-17.0-1.2,87731,List1A,white,man,,,,null,,,,
null,is touching,,html-keyboard-response,236,1008927,0.0-17.0-2.2,87731,List1A,white,man,,,,null,,,,
8093,,,survey-text,237,1017025,0.0-17.0-3.2,87731,List1A,white,man,,,,,"{""Q0"":""Kate is touching mike. ""}","<img src=""stim_listA/touch1.gif""style=""height:400px;""></stim_listA>",is touching,
null,"<div style=""font-size:60px;"">+</div>",,html-keyboard-response,238,1017528,0.0-17.0-0.3,87731,List1A,white,man,,,,null,,,,
null,"<img src=""stim_listA/kiss2.gif""style=""height:400px;""></stim_listA>",,html-keyboard-response,239,1019532,0.0-17.0-1.3,87731,List1A,white,man,,,,null,,,,
null,are kissing each other,,html-keyboard-response,240,1021536,0.0-17.0-2.3,87731,List1A,white,man,,,,null,,,,
10649,,,survey-text,241,1032190,0.0-17.0-3.3,87731,List1A,white,man,,,,,"{""Q0"":""Kate and mike are kissing each other. ""}","<img src=""stim_listA/kiss2.gif""style=""height:400px;""></stim_listA>",are kissing each other,
null,"<div style=""font-size:60px;"">+</div>",,html-keyboard-response,242,1032693,0.0-17.0-0.4,87731,List1A,white,man,,,,null,,,,
null,"<img src=""stim_listA/argue7.gif""style=""height:400px;""></stim_listA>",,html-keyboard-response,243,1034697,0.0-17.0-1.4,87731,List1A,white,man,,,,null,,,,
null,is arguing with,,html-keyboard-response,244,1036701,0.0-17.0-2.4,87731,List1A,white,man,,,,null,,,,
6753,,,survey-text,245,1043459,0.0-17.0-3.4,87731,List1A,white,man,,,,,"{""Q0"":""Ruth is arguing with Kate.""}","<img src=""stim_listA/argue7.gif""style=""height:400px;""></stim_listA>",is arguing with,
null,"<div style=""font-size:60px;"">+</div>",,html-keyboard-response,246,1043961,0.0-17.0-0.5,87731,List1A,white,man,,,,null,,,,
null,"<img src=""stim_listA/marry1.gif""style=""height:400px;""></stim_listA>",,html-keyboard-response,247,1045965,0.0-17.0-1.5,87731,List1A,white,man,,,,null,,,,
null,is marrying,,html-keyboard-response,248,1047969,0.0-17.0-2.5,87731,List1A,white,man,,,,null,,,,
10654,,,survey-text,249,1058627,0.0-17.0-3.5,87731,List1A,white,man,,,,,"{""Q0"":""Mike is marrying Beth.""}","<img src=""stim_listA/marry1.gif""style=""height:400px;""></stim_listA>",is marrying,
null,"<div style=""font-size:60px;"">+</div>",,html-keyboard-response,250,1059130,0.0-17.0-0.6,87731,List1A,white,man,,,,null,,,,
null,"<img src=""stim_listA/marry2.gif""style=""height:400px;""></stim_listA>",,html-keyboard-response,251,1061135,0.0-17.0-1.6,87731,List1A,white,man,,,,null,,,,
null,are marrying each other,,html-keyboard-response,252,1063139,0.0-17.0-2.6,87731,List1A,white,man,,,,null,,,,
10317,,,survey-text,253,1073461,0.0-17.0-3.6,87731,List1A,white,man,,,,,"{""Q0"":""Fred and Kate are marrying each other.""}","<img src=""stim_listA/marry2.gif""style=""height:400px;""></stim_listA>",are marrying each other,
null,"<div style=""font-size:60px;"">+</div>",,html-keyboard-response,254,1073963,0.0-17.0-0.7,87731,List1A,white,man,,,,null,,,,
null,"<img src=""stim_listA/talk8.gif""style=""height:400px;""></stim_listA>",,html-keyboard-response,255,1075967,0.0-17.0-1.7,87731,List1A,white,man,,,,null,,,,
null,are talking to each other,,html-keyboard-response,256,1077971,0.0-17.0-2.7,87731,List1A,white,man,,,,null,,,,
11070,,,survey-text,257,1089045,0.0-17.0-3.7,87731,List1A,white,man,,,,,"{""Q0"":""Kate and Ruth are talking to each other.""}","<img src=""stim_listA/talk8.gif""style=""height:400px;""></stim_listA>",are talking to each other,
null,"<div style=""font-size:60px;"">+</div>",,html-keyboard-response,258,1089548,0.0-17.0-0.8,87731,List1A,white,man,,,,null,,,,
null,"<img src=""stim_listA/marry5.gif""style=""height:400px;""></stim_listA>",,html-keyboard-response,259,1091552,0.0-17.0-1.8,87731,List1A,white,man,,,,null,,,,
null,is marrying,,html-keyboard-response,260,1093556,0.0-17.0-2.8,87731,List1A,white,man,,,,null,,,,
5991,,,survey-text,261,1099551,0.0-17.0-3.8,87731,List1A,white,man,,,,,"{""Q0"":""Luke is marrying mike.""}","<img src=""stim_listA/marry5.gif""style=""height:400px;""></stim_listA>",is marrying,
null,"<div style=""font-size:60px;"">+</div>",,html-keyboard-response,262,1100054,0.0-17.0-0.9,87731,List1A,white,man,,,,null,,,,
null,"<img src=""stim_listA/touch7.gif""style=""height:400px;""></stim_listA>",,html-keyboard-response,263,1102058,0.0-17.0-1.9,87731,List1A,white,man,,,,null,,,,
null,is touching,,html-keyboard-response,264,1104061,0.0-17.0-2.9,87731,List1A,white,man,,,,null,,,,
6371,,,survey-text,265,1110437,0.0-17.0-3.9,87731,List1A,white,man,,,,,"{""Q0"":""Jane is touching Kate.""}","<img src=""stim_listA/touch7.gif""style=""height:400px;""></stim_listA>",is touching,
null,"<div style=""font-size:60px;"">+</div>",,html-keyboard-response,266,1110939,0.0-17.0-0.10,87731,List1A,white,man,,,,null,,,,
null,"<img src=""stim_listA/shout7.gif""style=""height:400px;""></stim_listA>",,html-keyboard-response,267,1112943,0.0-17.0-1.10,87731,List1A,white,man,,,,null,,,,
null,is shouting at,,html-keyboard-response,268,1114947,0.0-17.0-2.10,87731,List1A,white,man,,,,null,,,,
8124,,,survey-text,269,1123075,0.0-17.0-3.10,87731,List1A,white,man,,,,,"{""Q0"":""Ruth is shouting at Beth.""}","<img src=""stim_listA/shout7.gif""style=""height:400px;""></stim_listA>",is shouting at,
null,"<div style=""font-size:60px;"">+</div>",,html-keyboard-response,270,1123578,0.0-17.0-0.11,87731,List1A,white,man,,,,null,,,,
null,"<img src=""stim_listA/fight5.gif""style=""height:400px;""></stim_listA>",,html-keyboard-response,271,1125581,0.0-17.0-1.11,87731,List1A,white,man,,,,null,,,,
null,is fighting,,html-keyboard-response,272,1127585,0.0-17.0-2.11,87731,List1A,white,man,,,,null,,,,
7503,,,survey-text,273,1135092,0.0-17.0-3.11,87731,List1A,white,man,,,,,"{""Q0"":""Dave is fighting mike.""}","<img src=""stim_listA/fight5.gif""style=""height:400px;""></stim_listA>",is fighting,
null,"<div style=""font-size:60px;"">+</div>",,html-keyboard-response,274,1135595,0.0-17.0-0.12,87731,List1A,white,man,,,,null,,,,
null,"<img src=""stim_listA/kiss4.gif""style=""height:400px;""></stim_listA>",,html-keyboard-response,275,1137599,0.0-17.0-1.12,87731,List1A,white,man,,,,null,,,,
null,are kissing each other,,html-keyboard-response,276,1139603,0.0-17.0-2.12,87731,List1A,white,man,,,,null,,,,
7035,,,survey-text,277,1146642,0.0-17.0-3.12,87731,List1A,white,man,,,,,"{""Q0"":""Jane and Dave are kissing each other.""}","<img src=""stim_listA/kiss4.gif""style=""height:400px;""></stim_listA>",are kissing each other,
null,"<div style=""font-size:60px;"">+</div>",,html-keyboard-response,278,1147144,0.0-17.0-0.13,87731,List1A,white,man,,,,null,,,,
null,"<img src=""stim_listA/marry4.gif""style=""height:400px;""></stim_listA>",,html-keyboard-response,279,1149148,0.0-17.0-1.13,87731,List1A,white,man,,,,null,,,,
null,are marrying each other,,html-keyboard-response,280,1151152,0.0-17.0-2.13,87731,List1A,white,man,,,,null,,,,
7505,,,survey-text,281,1158660,0.0-17.0-3.13,87731,List1A,white,man,,,,,"{""Q0"":""Luke and Jane are marrying each other.""}","<img src=""stim_listA/marry4.gif""style=""height:400px;""></stim_listA>",are marrying each other,
null,"<div style=""font-size:60px;"">+</div>",,html-keyboard-response,282,1159162,0.0-17.0-0.14,87731,List1A,white,man,,,,null,,,,
null,"<img src=""stim_listA/play3.gif""style=""height:400px;""></stim_listA>",,html-keyboard-response,283,1161165,0.0-17.0-1.14,87731,List1A,white,man,,,,null,,,,
null,is playing with,,html-keyboard-response,284,1163169,0.0-17.0-2.14,87731,List1A,white,man,,,,null,,,,
10768,,,survey-text,285,1173942,0.0-17.0-3.14,87731,List1A,white,man,,,,,"{""Q0"":""Jane is playing with Dave.""}","<img src=""stim_listA/play3.gif""style=""height:400px;""></stim_listA>",is playing with,
null,"<div style=""font-size:60px;"">+</div>",,html-keyboard-response,286,1174445,0.0-17.0-0.15,87731,List1A,white,man,,,,null,,,,
null,"<img src=""stim_listA/argue2.gif""style=""height:400px;""></stim_listA>",,html-keyboard-response,287,1176448,0.0-17.0-1.15,87731,List1A,white,man,,,,null,,,,
null,are arguing with each other,,html-keyboard-response,288,1178452,0.0-17.0-2.15,87731,List1A,white,man,,,,null,,,,
9570,,,survey-text,289,1188027,0.0-17.0-3.15,87731,List1A,white,man,,,,,"{""Q0"":""Fred and Kate are arguing with each other.""}","<img src=""stim_listA/argue2.gif""style=""height:400px;""></stim_listA>",are arguing with each other,
null,"<div style=""font-size:60px;"">+</div>",,html-keyboard-response,290,1188530,0.0-17.0-0.16,87731,List1A,white,man,,,,null,,,,
null,"<img src=""stim_listA/shout8.gif""style=""height:400px;""></stim_listA>",,html-keyboard-response,291,1190534,0.0-17.0-1.16,87731,List1A,white,man,,,,null,,,,
null,are shouting at each other,,html-keyboard-response,292,1192538,0.0-17.0-2.16,87731,List1A,white,man,,,,null,,,,
8395,,,survey-text,293,1200937,0.0-17.0-3.16,87731,List1A,white,man,,,,,"{""Q0"":""Jane and Kate are shouting at each other.""}","<img src=""stim_listA/shout8.gif""style=""height:400px;""></stim_listA>",are shouting at each other,
null,"<div style=""font-size:60px;"">+</div>",,html-keyboard-response,294,1201440,0.0-17.0-0.17,87731,List1A,white,man,,,,null,,,,
null,"<img src=""stim_listA/flirt1.gif""style=""height:400px;""></stim_listA>",,html-keyboard-response,295,1203444,0.0-17.0-1.17,87731,List1A,white,man,,,,null,,,,
null,is flirting with,,html-keyboard-response,296,1205448,0.0-17.0-2.17,87731,List1A,white,man,,,,null,,,,
15443,,,survey-text,297,1220896,0.0-17.0-3.17,87731,List1A,white,man,,,,,"{""Q0"":""Fred is flirting with Kate.""}","<img src=""stim_listA/flirt1.gif""style=""height:400px;""></stim_listA>",is flirting with,
null,"<div style=""font-size:60px;"">+</div>",,html-keyboard-response,298,1221399,0.0-17.0-0.18,87731,List1A,white,man,,,,null,,,,
null,"<img src=""stim_listA/flirt3.gif""style=""height:400px;""></stim_listA>",,html-keyboard-response,299,1223402,0.0-17.0-1.18,87731,List1A,white,man,,,,null,,,,
null,is flirting with,,html-keyboard-response,300,1225406,0.0-17.0-2.18,87731,List1A,white,man,,,,null,,,,
7275,,,survey-text,301,1232686,0.0-17.0-3.18,87731,List1A,white,man,,,,,"{""Q0"":""Luke is flirting with Jane.""}","<img src=""stim_listA/flirt3.gif""style=""height:400px;""></stim_listA>",is flirting with,
null,"<div style=""font-size:60px;"">+</div>",,html-keyboard-response,302,1233189,0.0-17.0-0.19,87731,List1A,white,man,,,,null,,,,
null,"<img src=""stim_listA/shout4.gif""style=""height:400px;""></stim_listA>",,html-keyboard-response,303,1235193,0.0-17.0-1.19,87731,List1A,white,man,,,,null,,,,
null,are shouting at each other,,html-keyboard-response,304,1237197,0.0-17.0-2.19,87731,List1A,white,man,,,,null,,,,
7300,,,survey-text,305,1244504,0.0-17.0-3.19,87731,List1A,white,man,,,,,"{""Q0"":""Jane and Dave are shouting at each other.""}","<img src=""stim_listA/shout4.gif""style=""height:400px;""></stim_listA>",are shouting at each other,
3623,"<img src='img/portrait_matrix_list1.jpg' style='width:900px;height:500px;''></img><p>If you have memorised all the portraits and names and are ready to start, press Continue.</p><p><strong>Please note: Your memory of these faces will be tested 4 times during this experiment.</strong></p>",0,html-button-response,306,1248130,0.0-18.0-0.0,87731,List1A,white,man,,,,,,,,
3426,"<img src=""portrait/WW1.jpg""style=""height:400px;""></img>",1,html-button-response,307,1252560,0.0-18.0-1.0,87731,List1A,white,man,,TRUE,1,,,,,
null,CORRECT,,html-keyboard-response,308,1254066,0.0-18.0-2.0-0.0,87731,List1A,white,man,,,,null,,,,
3143,"<img src=""portrait/WW2.jpg""style=""height:400px;""></img>",3,html-button-response,309,1257216,0.0-18.0-4.0,87731,List1A,white,man,,TRUE,3,,,,,
null,CORRECT,,html-keyboard-response,310,1258721,0.0-18.0-5.0-0.0,87731,List1A,white,man,,,,null,,,,
3015,"<img src=""portrait/BM2.jpg""style=""height:400px;""></img>",5,html-button-response,311,1261742,0.0-18.0-7.0,87731,List1A,white,man,,TRUE,5,,,,,
null,CORRECT,,html-keyboard-response,312,1263247,0.0-18.0-8.0-0.0,87731,List1A,white,man,,,,null,,,,
2510,"<img src=""portrait/WM1.jpg""style=""height:400px;""></img>",6,html-button-response,313,1265762,0.0-18.0-10.0,87731,List1A,white,man,,TRUE,6,,,,,
null,CORRECT,,html-keyboard-response,314,1267267,0.0-18.0-11.0-0.0,87731,List1A,white,man,,,,null,,,,
3014,"<img src=""portrait/BM1.jpg""style=""height:400px;""></img>",4,html-button-response,315,1270287,0.0-18.0-13.0,87731,List1A,white,man,,TRUE,4,,,,,
null,CORRECT,,html-keyboard-response,316,1271792,0.0-18.0-14.0-0.0,87731,List1A,white,man,,,,null,,,,
3678,"<img src=""portrait/BW2.jpg""style=""height:400px;""></img>",2,html-button-response,317,1275475,0.0-18.0-16.0,87731,List1A,white,man,,TRUE,2,,,,,
null,CORRECT,,html-keyboard-response,318,1276980,0.0-18.0-17.0-0.0,87731,List1A,white,man,,,,null,,,,
4880,"<img src=""portrait/WM2.jpg""style=""height:400px;""></img>",7,html-button-response,319,1281864,0.0-18.0-19.0,87731,List1A,white,man,,TRUE,7,,,,,
null,CORRECT,,html-keyboard-response,320,1283369,0.0-18.0-20.0-0.0,87731,List1A,white,man,,,,null,,,,
3246,"<img src=""portrait/BW1.jpg""style=""height:400px;""></img>",0,html-button-response,321,1286619,0.0-18.0-22.0,87731,List1A,white,man,,TRUE,0,,,,,
null,CORRECT,,html-keyboard-response,322,1288124,0.0-18.0-23.0-0.0,87731,List1A,white,man,,,,null,,,,
1636,<p>You got 8 out of 8 right first time. Press Continue.</p>,0,html-button-response,323,1289767,0.0-18.0-25.0,87731,List1A,white,man,,,,,,,,
null,"<div style=""font-size:60px;"">+</div>",,html-keyboard-response,324,1291277,0.0-19.0-0.0,87731,List1A,white,man,,,,null,,,,
null,"<img src=""stim_listA/fight3.gif""style=""height:400px;""></stim_listA>",,html-keyboard-response,325,1293283,0.0-19.0-1.0,87731,List1A,white,man,,,,null,,,,
null,is fighting,,html-keyboard-response,326,1295288,0.0-19.0-2.0,87731,List1A,white,man,,,,null,,,,
5604,,,survey-text,327,1300897,0.0-19.0-3.0,87731,List1A,white,man,,,,,"{""Q0"":""Jane is fighting Dave.""}","<img src=""stim_listA/fight3.gif""style=""height:400px;""></stim_listA>",is fighting,
null,"<div style=""font-size:60px;"">+</div>",,html-keyboard-response,328,1301400,0.0-19.0-0.1,87731,List1A,white,man,,,,null,,,,
null,"<img src=""stim_listA/touch3.gif""style=""height:400px;""></stim_listA>",,html-keyboard-response,329,1303404,0.0-19.0-1.1,87731,List1A,white,man,,,,null,,,,
null,is touching,,html-keyboard-response,330,1305407,0.0-19.0-2.1,87731,List1A,white,man,,,,null,,,,
5370,,,survey-text,331,1310782,0.0-19.0-3.1,87731,List1A,white,man,,,,,"{""Q0"":""Jane is touching Dave.""}","<img src=""stim_listA/touch3.gif""style=""height:400px;""></stim_listA>",is touching,
null,"<div style=""font-size:60px;"">+</div>",,html-keyboard-response,332,1311285,0.0-19.0-0.2,87731,List1A,white,man,,,,null,,,,
null,"<img src=""stim_listA/flirt4.gif""style=""height:400px;""></stim_listA>",,html-keyboard-response,333,1313289,0.0-19.0-1.2,87731,List1A,white,man,,,,null,,,,
null,are flirting with each other,,html-keyboard-response,334,1315293,0.0-19.0-2.2,87731,List1A,white,man,,,,null,,,,
8728,,,survey-text,335,1324025,0.0-19.0-3.2,87731,List1A,white,man,,,,,"{""Q0"":""Dave and Ruth are flirting with each other.""}","<img src=""stim_listA/flirt4.gif""style=""height:400px;""></stim_listA>",are flirting with each other,
null,"<div style=""font-size:60px;"">+</div>",,html-keyboard-response,336,1324528,0.0-19.0-0.3,87731,List1A,white,man,,,,null,,,,
null,"<img src=""stim_listA/touch6.gif""style=""height:400px;""></stim_listA>",,html-keyboard-response,337,1326533,0.0-19.0-1.3,87731,List1A,white,man,,,,null,,,,
null,are touching each other,,html-keyboard-response,338,1328537,0.0-19.0-2.3,87731,List1A,white,man,,,,null,,,,
10334,,,survey-text,339,1338876,0.0-19.0-3.3,87731,List1A,white,man,,,,,"{""Q0"":""Luke and Fred are touching each other.""}","<img src=""stim_listA/touch6.gif""style=""height:400px;""></stim_listA>",are touching each other,
null,"<div style=""font-size:60px;"">+</div>",,html-keyboard-response,340,1339379,0.0-19.0-0.4,87731,List1A,white,man,,,,null,,,,
null,"<img src=""stim_listA/touch2.gif""style=""height:400px;""></stim_listA>",,html-keyboard-response,341,1341382,0.0-19.0-1.4,87731,List1A,white,man,,,,null,,,,
null,are touching each other,,html-keyboard-response,342,1343386,0.0-19.0-2.4,87731,List1A,white,man,,,,null,,,,
9403,,,survey-text,343,1352793,0.0-19.0-3.4,87731,List1A,white,man,,,,,"{""Q0"":""Fred and Beth are touching each other.""}","<img src=""stim_listA/touch2.gif""style=""height:400px;""></stim_listA>",are touching each other,
null,"<div style=""font-size:60px;"">+</div>",,html-keyboard-response,344,1353296,0.0-19.0-0.5,87731,List1A,white,man,,,,null,,,,
null,"<img src=""stim_listA/flirt7.gif""style=""height:400px;""></stim_listA>",,html-keyboard-response,345,1355300,0.0-19.0-1.5,87731,List1A,white,man,,,,null,,,,
null,is flirting with,,html-keyboard-response,346,1357307,0.0-19.0-2.5,87731,List1A,white,man,,,,null,,,,
6786,,,survey-text,347,1364098,0.0-19.0-3.5,87731,List1A,white,man,,,,,"{""Q0"":""Jane is flirting with Beth.""}","<img src=""stim_listA/flirt7.gif""style=""height:400px;""></stim_listA>",is flirting with,
null,"<div style=""font-size:60px;"">+</div>",,html-keyboard-response,348,1364601,0.0-19.0-0.6,87731,List1A,white,man,,,,null,,,,
null,"<img src=""stim_listA/kiss6.gif""style=""height:400px;""></stim_listA>",,html-keyboard-response,349,1366605,0.0-19.0-1.6,87731,List1A,white,man,,,,null,,,,
null,are kissing each other,,html-keyboard-response,350,1368609,0.0-19.0-2.6,87731,List1A,white,man,,,,null,,,,
7035,,,survey-text,351,1375648,0.0-19.0-3.6,87731,List1A,white,man,,,,,"{""Q0"":""Mike and Dave are kissing each other.""}","<img src=""stim_listA/kiss6.gif""style=""height:400px;""></stim_listA>",are kissing each other,
null,"<div style=""font-size:60px;"">+</div>",,html-keyboard-response,352,1376151,0.0-19.0-0.7,87731,List1A,white,man,,,,null,,,,
null,"<img src=""stim_listA/dance6.gif""style=""height:400px;""></stim_listA>",,html-keyboard-response,353,1378160,0.0-19.0-1.7,87731,List1A,white,man,,,,null,,,,
null,are dancing with each other,,html-keyboard-response,354,1380164,0.0-19.0-2.7,87731,List1A,white,man,,,,null,,,,
8512,,,survey-text,355,1388681,0.0-19.0-3.7,87731,List1A,white,man,,,,,"{""Q0"":""Mike and Luke are dancing with each other.""}","<img src=""stim_listA/dance6.gif""style=""height:400px;""></stim_listA>",are dancing with each other,
null,"<div style=""font-size:60px;"">+</div>",,html-keyboard-response,356,1389184,0.0-19.0-0.8,87731,List1A,white,man,,,,null,,,,
null,"<img src=""stim_listA/touch4.gif""style=""height:400px;""></stim_listA>",,html-keyboard-response,357,1391188,0.0-19.0-1.8,87731,List1A,white,man,,,,null,,,,
null,are touching each other,,html-keyboard-response,358,1393192,0.0-19.0-2.8,87731,List1A,white,man,,,,null,,,,
7924,,,survey-text,359,1401120,0.0-19.0-3.8,87731,List1A,white,man,,,,,"{""Q0"":""Luke and Ruth are touching each other.""}","<img src=""stim_listA/touch4.gif""style=""height:400px;""></stim_listA>",are touching each other,
null,"<div style=""font-size:60px;"">+</div>",,html-keyboard-response,360,1401623,0.0-19.0-0.9,87731,List1A,white,man,,,,null,,,,
null,"<img src=""stim_listA/play2.gif""style=""height:400px;""></stim_listA>",,html-keyboard-response,361,1403627,0.0-19.0-1.9,87731,List1A,white,man,,,,null,,,,
null,are playing with each other,,html-keyboard-response,362,1405631,0.0-19.0-2.9,87731,List1A,white,man,,,,null,,,,
8940,,,survey-text,363,1414575,0.0-19.0-3.9,87731,List1A,white,man,,,,,"{""Q0"":""Fred and Beth are playing with each other.""}","<img src=""stim_listA/play2.gif""style=""height:400px;""></stim_listA>",are playing with each other,
null,"<div style=""font-size:60px;"">+</div>",,html-keyboard-response,364,1415077,0.0-19.0-0.10,87731,List1A,white,man,,,,null,,,,
null,"<img src=""stim_listA/flirt2.gif""style=""height:400px;""></stim_listA>",,html-keyboard-response,365,1417081,0.0-19.0-1.10,87731,List1A,white,man,,,,null,,,,
null,are flirting with each other,,html-keyboard-response,366,1419086,0.0-19.0-2.10,87731,List1A,white,man,,,,null,,,,
13345,,,survey-text,367,1432438,0.0-19.0-3.10,87731,List1A,white,man,,,,,"{""Q0"":""Beth and mike are flirting with each other.""}","<img src=""stim_listA/flirt2.gif""style=""height:400px;""></stim_listA>",are flirting with each other,
null,"<div style=""font-size:60px;"">+</div>",,html-keyboard-response,368,1432941,0.0-19.0-0.11,87731,List1A,white,man,,,,null,,,,
null,"<img src=""stim_listA/play6.gif""style=""height:400px;""></stim_listA>",,html-keyboard-response,369,1434945,0.0-19.0-1.11,87731,List1A,white,man,,,,null,,,,
null,are playing with each other,,html-keyboard-response,370,1436950,0.0-19.0-2.11,87731,List1A,white,man,,,,null,,,,
8006,,,survey-text,371,1444961,0.0-19.0-3.11,87731,List1A,white,man,,,,,"{""Q0"":""Luke and Fred are playing with each other.""}","<img src=""stim_listA/play6.gif""style=""height:400px;""></stim_listA>",are playing with each other,
null,"<div style=""font-size:60px;"">+</div>",,html-keyboard-response,372,1445464,0.0-19.0-0.12,87731,List1A,white,man,,,,null,,,,
null,"<img src=""stim_listA/talk3.gif""style=""height:400px;""></stim_listA>",,html-keyboard-response,373,1447467,0.0-19.0-1.12,87731,List1A,white,man,,,,null,,,,
null,is talking to,,html-keyboard-response,374,1449472,0.0-19.0-2.12,87731,List1A,white,man,,,,null,,,,
5980,,,survey-text,375,1455457,0.0-19.0-3.12,87731,List1A,white,man,,,,,"{""Q0"":""Luke is talking to Jane.""}","<img src=""stim_listA/talk3.gif""style=""height:400px;""></stim_listA>",is talking to,
null,"<div style=""font-size:60px;"">+</div>",,html-keyboard-response,376,1455960,0.0-19.0-0.13,87731,List1A,white,man,,,,null,,,,
null,"<img src=""stim_listA/shout6.gif""style=""height:400px;""></stim_listA>",,html-keyboard-response,377,1457967,0.0-19.0-1.13,87731,List1A,white,man,,,,null,,,,
null,are shouting at each other,,html-keyboard-response,378,1459971,0.0-19.0-2.13,87731,List1A,white,man,,,,null,,,,
12607,,,survey-text,379,1472582,0.0-19.0-3.13,87731,List1A,white,man,,,,,"{""Q0"":""Dave and Mike are shouting at each other.""}","<img src=""stim_listA/shout6.gif""style=""height:400px;""></stim_listA>",are shouting at each other,
null,"<div style=""font-size:60px;"">+</div>",,html-keyboard-response,380,1473084,0.0-19.0-0.14,87731,List1A,white,man,,,,null,,,,
null,"<img src=""stim_listA/kiss3.gif""style=""height:400px;""></stim_listA>",,html-keyboard-response,381,1475088,0.0-19.0-1.14,87731,List1A,white,man,,,,null,,,,
null,is kissing,,html-keyboard-response,382,1477092,0.0-19.0-2.14,87731,List1A,white,man,,,,null,,,,
5487,,,survey-text,383,1482584,0.0-19.0-3.14,87731,List1A,white,man,,,,,"{""Q0"":""Ruth is kissing Luke.""}","<img src=""stim_listA/kiss3.gif""style=""height:400px;""></stim_listA>",is kissing,
null,"<div style=""font-size:60px;"">+</div>",,html-keyboard-response,384,1483089,0.0-19.0-0.15,87731,List1A,white,man,,,,null,,,,
null,"<img src=""stim_listA/shout1.gif""style=""height:400px;""></stim_listA>",,html-keyboard-response,385,1485093,0.0-19.0-1.15,87731,List1A,white,man,,,,null,,,,
null,is shouting at,,html-keyboard-response,386,1487097,0.0-19.0-2.15,87731,List1A,white,man,,,,null,,,,
5918,,,survey-text,387,1493020,0.0-19.0-3.15,87731,List1A,white,man,,,,,"{""Q0"":""Beth is shouting at Fred.""}","<img src=""stim_listA/shout1.gif""style=""height:400px;""></stim_listA>",is shouting at,
null,"<div style=""font-size:60px;"">+</div>",,html-keyboard-response,388,1493523,0.0-19.0-0.16,87731,List1A,white,man,,,,null,,,,
null,"<img src=""stim_listA/dance4.gif""style=""height:400px;""></stim_listA>",,html-keyboard-response,389,1495527,0.0-19.0-1.16,87731,List1A,white,man,,,,null,,,,
null,are dancing with each other,,html-keyboard-response,390,1497531,0.0-19.0-2.16,87731,List1A,white,man,,,,null,,,,
8011,,,survey-text,391,1505547,0.0-19.0-3.16,87731,List1A,white,man,,,,,"{""Q0"":""Dave and Ruth are dancing with each other.""}","<img src=""stim_listA/dance4.gif""style=""height:400px;""></stim_listA>",are dancing with each other,
null,"<div style=""font-size:60px;"">+</div>",,html-keyboard-response,392,1506050,0.0-19.0-0.17,87731,List1A,white,man,,,,null,,,,
null,"<img src=""stim_listA/argue5.gif""style=""height:400px;""></stim_listA>",,html-keyboard-response,393,1508054,0.0-19.0-1.17,87731,List1A,white,man,,,,null,,,,
null,is arguing with,,html-keyboard-response,394,1510058,0.0-19.0-2.17,87731,List1A,white,man,,,,null,,,,
9329,,,survey-text,395,1519392,0.0-19.0-3.17,87731,List1A,white,man,,,,,"{""Q0"":""Luke is arguing with Mike.""}","<img src=""stim_listA/argue5.gif""style=""height:400px;""></stim_listA>",is arguing with,
null,"<div style=""font-size:60px;"">+</div>",,html-keyboard-response,396,1519895,0.0-19.0-0.18,87731,List1A,white,man,,,,null,,,,
null,"<img src=""stim_listA/play1.gif""style=""height:400px;""></stim_listA>",,html-keyboard-response,397,1521900,0.0-19.0-1.18,87731,List1A,white,man,,,,null,,,,
null,is playing with,,html-keyboard-response,398,1523904,0.0-19.0-2.18,87731,List1A,white,man,,,,null,,,,
7936,,,survey-text,399,1531845,0.0-19.0-3.18,87731,List1A,white,man,,,,,"{""Q0"":""Kate is playing with Mike.""}","<img src=""stim_listA/play1.gif""style=""height:400px;""></stim_listA>",is playing with,
null,"<div style=""font-size:60px;"">+</div>",,html-keyboard-response,400,1532348,0.0-19.0-0.19,87731,List1A,white,man,,,,null,,,,
null,"<img src=""stim_listA/talk2.gif""style=""height:400px;""></stim_listA>",,html-keyboard-response,401,1534352,0.0-19.0-1.19,87731,List1A,white,man,,,,null,,,,
null,are talking to each other,,html-keyboard-response,402,1536356,0.0-19.0-2.19,87731,List1A,white,man,,,,null,,,,
7955,,,survey-text,403,1544315,0.0-19.0-3.19,87731,List1A,white,man,,,,,"{""Q0"":""Mike and Beth are talking to each other.""}","<img src=""stim_listA/talk2.gif""style=""height:400px;""></stim_listA>",are talking to each other,
3402,<p>Thank you for completing that task.</p><p>The final part of this session is a short questionnaire.</p><p>Press Continue.</p>,0,html-button-response,404,1547719,0.0-20.0,87731,List1A,white,man,,,,,,,,
38106,,,survey-text,405,1586831,0.0-21.0,87731,List1A,white,man,,,,,"{""Q0"":""19"",""Q1"":""English "",""Q2"":""English"",""Q3"":""UK"",""Q4"":""White British "",""Q5"":""Male""}",,,demographics
8283,,,survey-likert,406,1595134,0.0-22.0,87731,List1A,white,man,,,,,"{""Q0"":4}",,,likert_ESS
9451,,,survey-likert,407,1604591,0.0-23.0,87731,List1A,white,man,,,,,"{""Q0"":3}",,,likert_NSSAL_Q1
2945,,,survey-likert,408,1607540,0.0-24.0,87731,List1A,white,man,,,,,"{""Q0"":4}",,,likert_NSSAL_Q2
8431,,,survey-likert,409,1615976,0.0-25.0,87731,List1A,white,man,,,,,"{""Q0"":4}",,,likert_CGRS_Q1
4918,,,survey-likert,410,1620899,0.0-26.0,87731,List1A,white,man,,,,,"{""Q0"":3}",,,likert_CGRS_Q2
2812,,,survey-likert,411,1623718,0.0-27.0,87731,List1A,white,man,,,,,"{""Q0"":3}",,,likert_CGRS_Q3
6279,,,survey-text,412,1630003,0.0-28.0,87731,List1A,white,man,,,,,"{""Q0"":""ccc""}",,,worker_id
55906,,,external-html,413,1687056,0.0-29.0,87731,List1A,white,man,debrief.html,,,,,,,
