rt,stimulus,button_pressed,trial_type,trial_index,time_elapsed,internal_node_id,subject,list,ppt_race,ppt_gender,url,first_guess,correct,key_press,responses,image_type,phrase_type,test_part
3635,Welcome to the experiment. Press Continue to begin.,0,html-button-response,0,3638,0.0-0.0,877,List2A,white,woman,,,,,,,,
53880,,,external-html,1,58590,0.0-1.0,877,List2A,white,woman,consent.html,,,,,,,
27120,"<p>On the next page, you will see portraits of 8 people and their names.</p><p>Your first task is to take a few minutes to memorise the names of these people.</p><p>You will have to recall their names during the rest of the experiment, so it is</p><p>essential that you try to memorise these people and their names as best as you can.</p><br><p><strong>You will then be tested on your memory of these names and portraits.</strong></p><br><p>The experiment will start after you have completed this memory test.</p><br><p>Ready?</p>",0,html-button-response,2,85712,0.0-2.0,877,List2A,white,woman,,,,,,,,
41647,"<img src='img/portrait_matrix_list2.jpg' style='width:900px;height:500px;''></img><p>If you have memorised all the portraits and names and are ready to start, press Continue.</p><p><strong>Please note: Your memory of these faces will be tested 4 times during this experiment.</strong></p>",0,html-button-response,3,128372,0.0-3.0-0.0,877,List2A,white,woman,,,,,,,,
6516,"<img src=""portrait/WM1.jpg""style=""height:400px;""></img>",6,html-button-response,4,135890,0.0-3.0-1.0,877,List2A,white,woman,,TRUE,6,,,,,
null,CORRECT,,html-keyboard-response,5,137406,0.0-3.0-2.0-0.0,877,List2A,white,woman,,,,null,,,,
5812,"<img src=""portrait/BW2.jpg""style=""height:400px;""></img>",2,html-button-response,6,143221,0.0-3.0-4.0,877,List2A,white,woman,,TRUE,2,,,,,
null,CORRECT,,html-keyboard-response,7,144741,0.0-3.0-5.0-0.0,877,List2A,white,woman,,,,null,,,,
6678,"<img src=""portrait/BM1.jpg""style=""height:400px;""></img>",4,html-button-response,8,151421,0.0-3.0-7.0,877,List2A,white,woman,,TRUE,4,,,,,
null,CORRECT,,html-keyboard-response,9,152927,0.0-3.0-8.0-0.0,877,List2A,white,woman,,,,null,,,,
4673,"<img src=""portrait/BM2.jpg""style=""height:400px;""></img>",5,html-button-response,10,157603,0.0-3.0-10.0,877,List2A,white,woman,,TRUE,5,,,,,
null,CORRECT,,html-keyboard-response,11,159126,0.0-3.0-11.0-0.0,877,List2A,white,woman,,,,null,,,,
4916,"<img src=""portrait/BW1.jpg""style=""height:400px;""></img>",0,html-button-response,12,164044,0.0-3.0-13.0,877,List2A,white,woman,,TRUE,0,,,,,
null,CORRECT,,html-keyboard-response,13,165572,0.0-3.0-14.0-0.0,877,List2A,white,woman,,,,null,,,,
4936,"<img src=""portrait/WW1.jpg""style=""height:400px;""></img>",1,html-button-response,14,170510,0.0-3.0-16.0,877,List2A,white,woman,,TRUE,1,,,,,
null,CORRECT,,html-keyboard-response,15,172030,0.0-3.0-17.0-0.0,877,List2A,white,woman,,,,null,,,,
6099,"<img src=""portrait/WM2.jpg""style=""height:400px;""></img>",7,html-button-response,16,178132,0.0-3.0-19.0,877,List2A,white,woman,,TRUE,7,,,,,
null,CORRECT,,html-keyboard-response,17,179645,0.0-3.0-20.0-0.0,877,List2A,white,woman,,,,null,,,,
3778,"<img src=""portrait/WW2.jpg""style=""height:400px;""></img>",3,html-button-response,18,183426,0.0-3.0-22.0,877,List2A,white,woman,,TRUE,3,,,,,
null,CORRECT,,html-keyboard-response,19,184955,0.0-3.0-23.0-0.0,877,List2A,white,woman,,,,null,,,,
2692,<p>You got 8 out of 8 right first time. Press Continue.</p>,0,html-button-response,20,187649,0.0-3.0-25.0,877,List2A,white,woman,,,,,,,,
41390,"<p>In this experiment, you will view photographs of the people from the memory game interacting.</p><p>By using the <strong>exact</strong> phrase given <i>after</i> the photograph appears and recalling the correct names of the people in the photographs, form a sentence describing the interaction. You do not need to capitalise names.</p><p>Type your answer in the space provided. Please complete every sentence before moving onto the next trial.</p><p>You will only have a few seconds to memorise each given photograph and phrase before you can respond, so try your best to focus.</p><p>An example is given below. Press 'Continue' when you are ready.</p><img src='img/speaking_example.jpg' style='width:800px;height:460px;''></img>",0,html-button-response,21,230062,0.0-4.0,877,List2A,white,woman,,,,,,,,
3615,"<p>Before the experiment starts, you will watch two example trials. Press 'Continue'.</p>",0,html-button-response,22,234686,0.0-5.0,877,List2A,white,woman,,,,,,,,
null,<img src='img/meet_eg.gif' style='height:400px;''></img>,,html-keyboard-response,23,237694,0.0-6.0,877,List2A,white,woman,,,,null,,,,
null,<p>is meeting</p>,,html-keyboard-response,24,239706,0.0-7.0,877,List2A,white,woman,,,,null,,,,
6377,<p><b>Answer:</b> jane is meeting ruth</p>,0,html-button-response,25,246083,0.0-8.0,877,List2A,white,woman,,,,,,,,
null,<img src='img/look_eg.gif' style='height:400px;''></img>,,html-keyboard-response,26,249094,0.0-9.0,877,List2A,white,woman,,,,null,,,,
null,<p>are looking at each other</p>,,html-keyboard-response,27,251106,0.0-10.0,877,List2A,white,woman,,,,null,,,,
2713,<p><b>Answer:</b> fred and mike are looking at each other</p>,0,html-button-response,28,253819,0.0-11.0,877,List2A,white,woman,,,,,,,,
5209,"<p>Ready to start the experiment?</p><br><p><strong>Remember to describe the picture using a full sentence,</strong></p><p><strong>that combines the names of the people with the <i>exact</i> phrase given.</strong></p><p><strong>To receive full payment you must do this correctly.</strong></p><p><strong> You do not need to capitalise names or use punctuation.</strong></p><br><p>Press 'Continue' to begin.</p>",0,html-button-response,29,260032,0.0-12.0,877,List2A,white,woman,,,,,,,,
null,"<div style=""font-size:60px;"">+</div>",,html-keyboard-response,30,261554,0.0-13.0-0.0,877,List2A,white,woman,,,,null,,,,
null,"<img src=""stim_listA/talk7.gif""style=""height:400px;""></stim_listA>",,html-keyboard-response,31,263560,0.0-13.0-1.0,877,List2A,white,woman,,,,null,,,,
null,is talking to,,html-keyboard-response,32,265569,0.0-13.0-2.0,877,List2A,white,woman,,,,null,,,,
17920,,,survey-text,33,283491,0.0-13.0-3.0,877,List2A,white,woman,,,,,"{""Q0"":""ruth is talking to kate""}","<img src=""stim_listA/talk7.gif""style=""height:400px;""></stim_listA>",is talking to,
null,"<div style=""font-size:60px;"">+</div>",,html-keyboard-response,34,283997,0.0-13.0-0.1,877,List2A,white,woman,,,,null,,,,
null,"<img src=""stim_listA/touch3.gif""style=""height:400px;""></stim_listA>",,html-keyboard-response,35,286002,0.0-13.0-1.1,877,List2A,white,woman,,,,null,,,,
null,is touching,,html-keyboard-response,36,288004,0.0-13.0-2.1,877,List2A,white,woman,,,,null,,,,
15113,,,survey-text,37,303118,0.0-13.0-3.1,877,List2A,white,woman,,,,,"{""Q0"":""mike is touching kate""}","<img src=""stim_listA/touch3.gif""style=""height:400px;""></stim_listA>",is touching,
null,"<div style=""font-size:60px;"">+</div>",,html-keyboard-response,38,303626,0.0-13.0-0.2,877,List2A,white,woman,,,,null,,,,
null,"<img src=""stim_listA/marry3.gif""style=""height:400px;""></stim_listA>",,html-keyboard-response,39,305630,0.0-13.0-1.2,877,List2A,white,woman,,,,null,,,,
null,is marrying,,html-keyboard-response,40,307636,0.0-13.0-2.2,877,List2A,white,woman,,,,null,,,,
13888,,,survey-text,41,321525,0.0-13.0-3.2,877,List2A,white,woman,,,,,"{""Q0"":""mike is marrying beth""}","<img src=""stim_listA/marry3.gif""style=""height:400px;""></stim_listA>",is marrying,
null,"<div style=""font-size:60px;"">+</div>",,html-keyboard-response,42,322032,0.0-13.0-0.3,877,List2A,white,woman,,,,null,,,,
null,"<img src=""stim_listA/talk3.gif""style=""height:400px;""></stim_listA>",,html-keyboard-response,43,324035,0.0-13.0-1.3,877,List2A,white,woman,,,,null,,,,
null,is talking to,,html-keyboard-response,44,326049,0.0-13.0-2.3,877,List2A,white,woman,,,,null,,,,
29968,,,survey-text,45,356019,0.0-13.0-3.3,877,List2A,white,woman,,,,,"{""Q0"":""fred is talking to kate""}","<img src=""stim_listA/talk3.gif""style=""height:400px;""></stim_listA>",is talking to,
null,"<div style=""font-size:60px;"">+</div>",,html-keyboard-response,46,356529,0.0-13.0-0.4,877,List2A,white,woman,,,,null,,,,
null,"<img src=""stim_listA/shout2.gif""style=""height:400px;""></stim_listA>",,html-keyboard-response,47,358531,0.0-13.0-1.4,877,List2A,white,woman,,,,null,,,,
null,are shouting at each other,,html-keyboard-response,48,360548,0.0-13.0-2.4,877,List2A,white,woman,,,,null,,,,
23691,,,survey-text,49,384241,0.0-13.0-3.4,877,List2A,white,woman,,,,,"{""Q0"":""jane and dave are shouting at each other""}","<img src=""stim_listA/shout2.gif""style=""height:400px;""></stim_listA>",are shouting at each other,
null,"<div style=""font-size:60px;"">+</div>",,html-keyboard-response,50,384752,0.0-13.0-0.5,877,List2A,white,woman,,,,null,,,,
null,"<img src=""stim_listA/marry7.gif""style=""height:400px;""></stim_listA>",,html-keyboard-response,51,386756,0.0-13.0-1.5,877,List2A,white,woman,,,,null,,,,
null,is marrying,,html-keyboard-response,52,388760,0.0-13.0-2.5,877,List2A,white,woman,,,,null,,,,
20380,,,survey-text,53,409143,0.0-13.0-3.5,877,List2A,white,woman,,,,,"{""Q0"":""jane is marrying beth""}","<img src=""stim_listA/marry7.gif""style=""height:400px;""></stim_listA>",is marrying,
null,"<div style=""font-size:60px;"">+</div>",,html-keyboard-response,54,409648,0.0-13.0-0.6,877,List2A,white,woman,,,,null,,,,
null,"<img src=""stim_listA/shout7.gif""style=""height:400px;""></stim_listA>",,html-keyboard-response,55,411659,0.0-13.0-1.6,877,List2A,white,woman,,,,null,,,,
null,is shouting at,,html-keyboard-response,56,413660,0.0-13.0-2.6,877,List2A,white,woman,,,,null,,,,
24248,,,survey-text,57,437909,0.0-13.0-3.6,877,List2A,white,woman,,,,,"{""Q0"":""luke is shouting at ruth""}","<img src=""stim_listA/shout7.gif""style=""height:400px;""></stim_listA>",is shouting at,
null,"<div style=""font-size:60px;"">+</div>",,html-keyboard-response,58,438410,0.0-13.0-0.7,877,List2A,white,woman,,,,null,,,,
null,"<img src=""stim_listA/kiss2.gif""style=""height:400px;""></stim_listA>",,html-keyboard-response,59,440416,0.0-13.0-1.7,877,List2A,white,woman,,,,null,,,,
null,are kissing each other,,html-keyboard-response,60,442428,0.0-13.0-2.7,877,List2A,white,woman,,,,null,,,,
16058,,,survey-text,61,458488,0.0-13.0-3.7,877,List2A,white,woman,,,,,"{""Q0"":""dave and jane are kissing each other""}","<img src=""stim_listA/kiss2.gif""style=""height:400px;""></stim_listA>",are kissing each other,
null,"<div style=""font-size:60px;"">+</div>",,html-keyboard-response,62,458994,0.0-13.0-0.8,877,List2A,white,woman,,,,null,,,,
null,"<img src=""stim_listA/dance6.gif""style=""height:400px;""></stim_listA>",,html-keyboard-response,63,461002,0.0-13.0-1.8,877,List2A,white,woman,,,,null,,,,
null,are dancing with each other,,html-keyboard-response,64,463010,0.0-13.0-2.8,877,List2A,white,woman,,,,null,,,,
28184,,,survey-text,65,491196,0.0-13.0-3.8,877,List2A,white,woman,,,,,"{""Q0"":""dave and fred are dancing with each other""}","<img src=""stim_listA/dance6.gif""style=""height:400px;""></stim_listA>",are dancing with each other,
null,"<div style=""font-size:60px;"">+</div>",,html-keyboard-response,66,491703,0.0-13.0-0.9,877,List2A,white,woman,,,,null,,,,
null,"<img src=""stim_listA/dance7.gif""style=""height:400px;""></stim_listA>",,html-keyboard-response,67,493715,0.0-13.0-1.9,877,List2A,white,woman,,,,null,,,,
null,is dancing with,,html-keyboard-response,68,495721,0.0-13.0-2.9,877,List2A,white,woman,,,,null,,,,
16402,,,survey-text,69,512124,0.0-13.0-3.9,877,List2A,white,woman,,,,,"{""Q0"":""ruth is dancing with kate""}","<img src=""stim_listA/dance7.gif""style=""height:400px;""></stim_listA>",is dancing with,
null,"<div style=""font-size:60px;"">+</div>",,html-keyboard-response,70,512628,0.0-13.0-0.10,877,List2A,white,woman,,,,null,,,,
null,"<img src=""stim_listA/shout1.gif""style=""height:400px;""></stim_listA>",,html-keyboard-response,71,514634,0.0-13.0-1.10,877,List2A,white,woman,,,,null,,,,
null,is shouting at,,html-keyboard-response,72,516636,0.0-13.0-2.10,877,List2A,white,woman,,,,null,,,,
20609,,,survey-text,73,537247,0.0-13.0-3.10,877,List2A,white,woman,,,,,"{""Q0"":""ruth is shouting at luke""}","<img src=""stim_listA/shout1.gif""style=""height:400px;""></stim_listA>",is shouting at,
null,"<div style=""font-size:60px;"">+</div>",,html-keyboard-response,74,537754,0.0-13.0-0.11,877,List2A,white,woman,,,,null,,,,
null,"<img src=""stim_listA/play6.gif""style=""height:400px;""></stim_listA>",,html-keyboard-response,75,539759,0.0-13.0-1.11,877,List2A,white,woman,,,,null,,,,
null,are playing with each other,,html-keyboard-response,76,541769,0.0-13.0-2.11,877,List2A,white,woman,,,,null,,,,
21948,,,survey-text,77,563719,0.0-13.0-3.11,877,List2A,white,woman,,,,,"{""Q0"":""fred and luke are playing with each other""}","<img src=""stim_listA/play6.gif""style=""height:400px;""></stim_listA>",are playing with each other,
null,"<div style=""font-size:60px;"">+</div>",,html-keyboard-response,78,564224,0.0-13.0-0.12,877,List2A,white,woman,,,,null,,,,
null,"<img src=""stim_listA/fight2.gif""style=""height:400px;""></stim_listA>",,html-keyboard-response,79,566229,0.0-13.0-1.12,877,List2A,white,woman,,,,null,,,,
null,are fighting each other,,html-keyboard-response,80,568238,0.0-13.0-2.12,877,List2A,white,woman,,,,null,,,,
18789,,,survey-text,81,587029,0.0-13.0-3.12,877,List2A,white,woman,,,,,"{""Q0"":""luke and ruth are fighting each other""}","<img src=""stim_listA/fight2.gif""style=""height:400px;""></stim_listA>",are fighting each other,
null,"<div style=""font-size:60px;"">+</div>",,html-keyboard-response,82,587538,0.0-13.0-0.13,877,List2A,white,woman,,,,null,,,,
null,"<img src=""stim_listA/argue4.gif""style=""height:400px;""></stim_listA>",,html-keyboard-response,83,589542,0.0-13.0-1.13,877,List2A,white,woman,,,,null,,,,
null,are arguing with each other,,html-keyboard-response,84,591555,0.0-13.0-2.13,877,List2A,white,woman,,,,null,,,,
23932,,,survey-text,85,615490,0.0-13.0-3.13,877,List2A,white,woman,,,,,"{""Q0"":""kate and fred are shouting at each other""}","<img src=""stim_listA/argue4.gif""style=""height:400px;""></stim_listA>",are arguing with each other,
null,"<div style=""font-size:60px;"">+</div>",,html-keyboard-response,86,615993,0.0-13.0-0.14,877,List2A,white,woman,,,,null,,,,
null,"<img src=""stim_listA/shout4.gif""style=""height:400px;""></stim_listA>",,html-keyboard-response,87,618000,0.0-13.0-1.14,877,List2A,white,woman,,,,null,,,,
null,are shouting at each other,,html-keyboard-response,88,620019,0.0-13.0-2.14,877,List2A,white,woman,,,,null,,,,
18611,,,survey-text,89,638631,0.0-13.0-3.14,877,List2A,white,woman,,,,,"{""Q0"":""Mike and kate are shouting at each other""}","<img src=""stim_listA/shout4.gif""style=""height:400px;""></stim_listA>",are shouting at each other,
null,"<div style=""font-size:60px;"">+</div>",,html-keyboard-response,90,639148,0.0-13.0-0.15,877,List2A,white,woman,,,,null,,,,
null,"<img src=""stim_listA/flirt7.gif""style=""height:400px;""></stim_listA>",,html-keyboard-response,91,641151,0.0-13.0-1.15,877,List2A,white,woman,,,,null,,,,
null,is flirting with,,html-keyboard-response,92,643160,0.0-13.0-2.15,877,List2A,white,woman,,,,null,,,,
12386,,,survey-text,93,655548,0.0-13.0-3.15,877,List2A,white,woman,,,,,"{""Q0"":""Ruth is flirting with kate""}","<img src=""stim_listA/flirt7.gif""style=""height:400px;""></stim_listA>",is flirting with,
null,"<div style=""font-size:60px;"">+</div>",,html-keyboard-response,94,656064,0.0-13.0-0.16,877,List2A,white,woman,,,,null,,,,
null,"<img src=""stim_listA/argue2.gif""style=""height:400px;""></stim_listA>",,html-keyboard-response,95,658068,0.0-13.0-1.16,877,List2A,white,woman,,,,null,,,,
null,are arguing with each other,,html-keyboard-response,96,660079,0.0-13.0-2.16,877,List2A,white,woman,,,,null,,,,
27814,,,survey-text,97,687895,0.0-13.0-3.16,877,List2A,white,woman,,,,,"{""Q0"":""luke and jane are arguing with each other""}","<img src=""stim_listA/argue2.gif""style=""height:400px;""></stim_listA>",are arguing with each other,
null,"<div style=""font-size:60px;"">+</div>",,html-keyboard-response,98,688397,0.0-13.0-0.17,877,List2A,white,woman,,,,null,,,,
null,"<img src=""stim_listA/flirt8.gif""style=""height:400px;""></stim_listA>",,html-keyboard-response,99,690404,0.0-13.0-1.17,877,List2A,white,woman,,,,null,,,,
null,are flirting with each other,,html-keyboard-response,100,692417,0.0-13.0-2.17,877,List2A,white,woman,,,,null,,,,
14464,,,survey-text,101,706883,0.0-13.0-3.17,877,List2A,white,woman,,,,,"{""Q0"":""beth and jane are flirting with each other""}","<img src=""stim_listA/flirt8.gif""style=""height:400px;""></stim_listA>",are flirting with each other,
null,"<div style=""font-size:60px;"">+</div>",,html-keyboard-response,102,707388,0.0-13.0-0.18,877,List2A,white,woman,,,,null,,,,
null,"<img src=""stim_listA/touch7.gif""style=""height:400px;""></stim_listA>",,html-keyboard-response,103,709390,0.0-13.0-1.18,877,List2A,white,woman,,,,null,,,,
null,is touching,,html-keyboard-response,104,711398,0.0-13.0-2.18,877,List2A,white,woman,,,,null,,,,
12101,,,survey-text,105,723500,0.0-13.0-3.18,877,List2A,white,woman,,,,,"{""Q0"":""Jane is touching kate""}","<img src=""stim_listA/touch7.gif""style=""height:400px;""></stim_listA>",is touching,
null,"<div style=""font-size:60px;"">+</div>",,html-keyboard-response,106,724002,0.0-13.0-0.19,877,List2A,white,woman,,,,null,,,,
null,"<img src=""stim_listA/marry8.gif""style=""height:400px;""></stim_listA>",,html-keyboard-response,107,726004,0.0-13.0-1.19,877,List2A,white,woman,,,,null,,,,
null,are marrying each other,,html-keyboard-response,108,728016,0.0-13.0-2.19,877,List2A,white,woman,,,,null,,,,
17414,,,survey-text,109,745430,0.0-13.0-3.19,877,List2A,white,woman,,,,,"{""Q0"":""ruth and kate are marrying each other""}","<img src=""stim_listA/marry8.gif""style=""height:400px;""></stim_listA>",are marrying each other,
16036,"<img src='img/portrait_matrix_list2.jpg' style='width:900px;height:500px;''></img><p>If you have memorised all the portraits and names and are ready to start, press Continue.</p><p><strong>Please note: Your memory of these faces will be tested 4 times during this experiment.</strong></p>",0,html-button-response,110,761468,0.0-14.0-0.0,877,List2A,white,woman,,,,,,,,
5536,"<img src=""portrait/WM2.jpg""style=""height:400px;""></img>",7,html-button-response,111,768009,0.0-14.0-1.0,877,List2A,white,woman,,TRUE,7,,,,,
null,CORRECT,,html-keyboard-response,112,769524,0.0-14.0-2.0-0.0,877,List2A,white,woman,,,,null,,,,
4353,"<img src=""portrait/BM1.jpg""style=""height:400px;""></img>",4,html-button-response,113,773879,0.0-14.0-4.0,877,List2A,white,woman,,TRUE,4,,,,,
null,CORRECT,,html-keyboard-response,114,775404,0.0-14.0-5.0-0.0,877,List2A,white,woman,,,,null,,,,
7193,"<img src=""portrait/BW2.jpg""style=""height:400px;""></img>",2,html-button-response,115,782599,0.0-14.0-7.0,877,List2A,white,woman,,TRUE,2,,,,,
null,CORRECT,,html-keyboard-response,116,784119,0.0-14.0-8.0-0.0,877,List2A,white,woman,,,,null,,,,
3786,"<img src=""portrait/WW1.jpg""style=""height:400px;""></img>",1,html-button-response,117,787907,0.0-14.0-10.0,877,List2A,white,woman,,TRUE,1,,,,,
null,CORRECT,,html-keyboard-response,118,789420,0.0-14.0-11.0-0.0,877,List2A,white,woman,,,,null,,,,
4424,"<img src=""portrait/WM1.jpg""style=""height:400px;""></img>",6,html-button-response,119,793847,0.0-14.0-13.0,877,List2A,white,woman,,TRUE,6,,,,,
null,CORRECT,,html-keyboard-response,120,795369,0.0-14.0-14.0-0.0,877,List2A,white,woman,,,,null,,,,
3769,"<img src=""portrait/BW1.jpg""style=""height:400px;""></img>",0,html-button-response,121,799140,0.0-14.0-16.0,877,List2A,white,woman,,TRUE,0,,,,,
null,CORRECT,,html-keyboard-response,122,800665,0.0-14.0-17.0-0.0,877,List2A,white,woman,,,,null,,,,
7749,"<img src=""portrait/BM2.jpg""style=""height:400px;""></img>",5,html-button-response,123,808416,0.0-14.0-19.0,877,List2A,white,woman,,TRUE,5,,,,,
null,CORRECT,,html-keyboard-response,124,809943,0.0-14.0-20.0-0.0,877,List2A,white,woman,,,,null,,,,
3192,"<img src=""portrait/WW2.jpg""style=""height:400px;""></img>",3,html-button-response,125,813139,0.0-14.0-22.0,877,List2A,white,woman,,TRUE,3,,,,,
null,CORRECT,,html-keyboard-response,126,814649,0.0-14.0-23.0-0.0,877,List2A,white,woman,,,,null,,,,
2147,<p>You got 8 out of 8 right first time. Press Continue.</p>,0,html-button-response,127,816797,0.0-14.0-25.0,877,List2A,white,woman,,,,,,,,
null,"<div style=""font-size:60px;"">+</div>",,html-keyboard-response,128,818314,0.0-15.0-0.0,877,List2A,white,woman,,,,null,,,,
null,"<img src=""stim_listA/dance8.gif""style=""height:400px;""></stim_listA>",,html-keyboard-response,129,820319,0.0-15.0-1.0,877,List2A,white,woman,,,,null,,,,
null,are dancing with each other,,html-keyboard-response,130,822330,0.0-15.0-2.0,877,List2A,white,woman,,,,null,,,,
15235,,,survey-text,131,837566,0.0-15.0-3.0,877,List2A,white,woman,,,,,"{""Q0"":""beth and jane are dancing with each other""}","<img src=""stim_listA/dance8.gif""style=""height:400px;""></stim_listA>",are dancing with each other,
null,"<div style=""font-size:60px;"">+</div>",,html-keyboard-response,132,838069,0.0-15.0-0.1,877,List2A,white,woman,,,,null,,,,
null,"<img src=""stim_listA/shout8.gif""style=""height:400px;""></stim_listA>",,html-keyboard-response,133,840074,0.0-15.0-1.1,877,List2A,white,woman,,,,null,,,,
null,are shouting at each other,,html-keyboard-response,134,842082,0.0-15.0-2.1,877,List2A,white,woman,,,,null,,,,
15713,,,survey-text,135,857797,0.0-15.0-3.1,877,List2A,white,woman,,,,,"{""Q0"":""jane and kate are shouting at each other""}","<img src=""stim_listA/shout8.gif""style=""height:400px;""></stim_listA>",are shouting at each other,
null,"<div style=""font-size:60px;"">+</div>",,html-keyboard-response,136,858299,0.0-15.0-0.2,877,List2A,white,woman,,,,null,,,,
null,"<img src=""stim_listA/flirt2.gif""style=""height:400px;""></stim_listA>",,html-keyboard-response,137,860306,0.0-15.0-1.2,877,List2A,white,woman,,,,null,,,,
null,are flirting with each other,,html-keyboard-response,138,862319,0.0-15.0-2.2,877,List2A,white,woman,,,,null,,,,
16578,,,survey-text,139,878900,0.0-15.0-3.2,877,List2A,white,woman,,,,,"{""Q0"":""ruth and dave are flirting with each other""}","<img src=""stim_listA/flirt2.gif""style=""height:400px;""></stim_listA>",are flirting with each other,
null,"<div style=""font-size:60px;"">+</div>",,html-keyboard-response,140,879405,0.0-15.0-0.3,877,List2A,white,woman,,,,null,,,,
null,"<img src=""stim_listA/play5.gif""style=""height:400px;""></stim_listA>",,html-keyboard-response,141,881407,0.0-15.0-1.3,877,List2A,white,woman,,,,null,,,,
null,is playing with,,html-keyboard-response,142,883416,0.0-15.0-2.3,877,List2A,white,woman,,,,null,,,,
11244,,,survey-text,143,894662,0.0-15.0-3.3,877,List2A,white,woman,,,,,"{""Q0"":""mike is playing with dave""}","<img src=""stim_listA/play5.gif""style=""height:400px;""></stim_listA>",is playing with,
null,"<div style=""font-size:60px;"">+</div>",,html-keyboard-response,144,895171,0.0-15.0-0.4,877,List2A,white,woman,,,,null,,,,
null,"<img src=""stim_listA/argue6.gif""style=""height:400px;""></stim_listA>",,html-keyboard-response,145,897174,0.0-15.0-1.4,877,List2A,white,woman,,,,null,,,,
null,are arguing with each other,,html-keyboard-response,146,899183,0.0-15.0-2.4,877,List2A,white,woman,,,,null,,,,
18178,,,survey-text,147,917363,0.0-15.0-3.4,877,List2A,white,woman,,,,,"{""Q0"":""luke and mike are arguing with each other""}","<img src=""stim_listA/argue6.gif""style=""height:400px;""></stim_listA>",are arguing with each other,
null,"<div style=""font-size:60px;"">+</div>",,html-keyboard-response,148,917872,0.0-15.0-0.5,877,List2A,white,woman,,,,null,,,,
null,"<img src=""stim_listA/kiss6.gif""style=""height:400px;""></stim_listA>",,html-keyboard-response,149,919873,0.0-15.0-1.5,877,List2A,white,woman,,,,null,,,,
null,are kissing each other,,html-keyboard-response,150,921887,0.0-15.0-2.5,877,List2A,white,woman,,,,null,,,,
14958,,,survey-text,151,936845,0.0-15.0-3.5,877,List2A,white,woman,,,,,"{""Q0"":""mike and dave are kissing each other""}","<img src=""stim_listA/kiss6.gif""style=""height:400px;""></stim_listA>",are kissing each other,
null,"<div style=""font-size:60px;"">+</div>",,html-keyboard-response,152,937347,0.0-15.0-0.6,877,List2A,white,woman,,,,null,,,,
null,"<img src=""stim_listA/talk6.gif""style=""height:400px;""></stim_listA>",,html-keyboard-response,153,939352,0.0-15.0-1.6,877,List2A,white,woman,,,,null,,,,
null,are talking to each other,,html-keyboard-response,154,941360,0.0-15.0-2.6,877,List2A,white,woman,,,,null,,,,
12986,,,survey-text,155,954346,0.0-15.0-3.6,877,List2A,white,woman,,,,,"{""Q0"":""fred and dave are talking to each other""}","<img src=""stim_listA/talk6.gif""style=""height:400px;""></stim_listA>",are talking to each other,
null,"<div style=""font-size:60px;"">+</div>",,html-keyboard-response,156,954856,0.0-15.0-0.7,877,List2A,white,woman,,,,null,,,,
null,"<img src=""stim_listA/dance4.gif""style=""height:400px;""></stim_listA>",,html-keyboard-response,157,956859,0.0-15.0-1.7,877,List2A,white,woman,,,,null,,,,
null,are dancing with each other,,html-keyboard-response,158,958866,0.0-15.0-2.7,877,List2A,white,woman,,,,null,,,,
13758,,,survey-text,159,972625,0.0-15.0-3.7,877,List2A,white,woman,,,,,"{""Q0"":""beth and mike are dancing with each other""}","<img src=""stim_listA/dance4.gif""style=""height:400px;""></stim_listA>",are dancing with each other,
null,"<div style=""font-size:60px;"">+</div>",,html-keyboard-response,160,973141,0.0-15.0-0.8,877,List2A,white,woman,,,,null,,,,
null,"<img src=""stim_listA/fight3.gif""style=""height:400px;""></stim_listA>",,html-keyboard-response,161,975145,0.0-15.0-1.8,877,List2A,white,woman,,,,null,,,,
null,is fighting,,html-keyboard-response,162,977157,0.0-15.0-2.8,877,List2A,white,woman,,,,null,,,,
11156,,,survey-text,163,988315,0.0-15.0-3.8,877,List2A,white,woman,,,,,"{""Q0"":""kate is fighting mike""}","<img src=""stim_listA/fight3.gif""style=""height:400px;""></stim_listA>",is fighting,
null,"<div style=""font-size:60px;"">+</div>",,html-keyboard-response,164,988819,0.0-15.0-0.9,877,List2A,white,woman,,,,null,,,,
null,"<img src=""stim_listA/flirt6.gif""style=""height:400px;""></stim_listA>",,html-keyboard-response,165,990836,0.0-15.0-1.9,877,List2A,white,woman,,,,null,,,,
null,are flirting with each other,,html-keyboard-response,166,992839,0.0-15.0-2.9,877,List2A,white,woman,,,,null,,,,
52389,,,survey-text,167,1045229,0.0-15.0-3.9,877,List2A,white,woman,,,,,"{""Q0"":""fred and dave are flirting with each other""}","<img src=""stim_listA/flirt6.gif""style=""height:400px;""></stim_listA>",are flirting with each other,
null,"<div style=""font-size:60px;"">+</div>",,html-keyboard-response,168,1045736,0.0-15.0-0.10,877,List2A,white,woman,,,,null,,,,
null,"<img src=""stim_listA/argue8.gif""style=""height:400px;""></stim_listA>",,html-keyboard-response,169,1047749,0.0-15.0-1.10,877,List2A,white,woman,,,,null,,,,
null,are arguing with each other,,html-keyboard-response,170,1049766,0.0-15.0-2.10,877,List2A,white,woman,,,,null,,,,
15912,,,survey-text,171,1065678,0.0-15.0-3.10,877,List2A,white,woman,,,,,"{""Q0"":""ruth and kate are arguing with each other""}","<img src=""stim_listA/argue8.gif""style=""height:400px;""></stim_listA>",are arguing with each other,
null,"<div style=""font-size:60px;"">+</div>",,html-keyboard-response,172,1066184,0.0-15.0-0.11,877,List2A,white,woman,,,,null,,,,
null,"<img src=""stim_listA/marry2.gif""style=""height:400px;""></stim_listA>",,html-keyboard-response,173,1068186,0.0-15.0-1.11,877,List2A,white,woman,,,,null,,,,
null,are marrying each other,,html-keyboard-response,174,1070200,0.0-15.0-2.11,877,List2A,white,woman,,,,null,,,,
14216,,,survey-text,175,1084417,0.0-15.0-3.11,877,List2A,white,woman,,,,,"{""Q0"":""luke and jane are marrying each other""}","<img src=""stim_listA/marry2.gif""style=""height:400px;""></stim_listA>",are marrying each other,
null,"<div style=""font-size:60px;"">+</div>",,html-keyboard-response,176,1084919,0.0-15.0-0.12,877,List2A,white,woman,,,,null,,,,
null,"<img src=""stim_listA/kiss4.gif""style=""height:400px;""></stim_listA>",,html-keyboard-response,177,1086924,0.0-15.0-1.12,877,List2A,white,woman,,,,null,,,,
null,are kissing each other,,html-keyboard-response,178,1088936,0.0-15.0-2.12,877,List2A,white,woman,,,,null,,,,
14048,,,survey-text,179,1102985,0.0-15.0-3.12,877,List2A,white,woman,,,,,"{""Q0"":""mike and kate are kissing each other""}","<img src=""stim_listA/kiss4.gif""style=""height:400px;""></stim_listA>",are kissing each other,
null,"<div style=""font-size:60px;"">+</div>",,html-keyboard-response,180,1103499,0.0-15.0-0.13,877,List2A,white,woman,,,,null,,,,
null,"<img src=""stim_listA/touch1.gif""style=""height:400px;""></stim_listA>",,html-keyboard-response,181,1105501,0.0-15.0-1.13,877,List2A,white,woman,,,,null,,,,
null,is touching,,html-keyboard-response,182,1107514,0.0-15.0-2.13,877,List2A,white,woman,,,,null,,,,
12368,,,survey-text,183,1119884,0.0-15.0-3.13,877,List2A,white,woman,,,,,"{""Q0"":""dave is touching jane""}","<img src=""stim_listA/touch1.gif""style=""height:400px;""></stim_listA>",is touching,
null,"<div style=""font-size:60px;"">+</div>",,html-keyboard-response,184,1120386,0.0-15.0-0.14,877,List2A,white,woman,,,,null,,,,
null,"<img src=""stim_listA/dance3.gif""style=""height:400px;""></stim_listA>",,html-keyboard-response,185,1122389,0.0-15.0-1.14,877,List2A,white,woman,,,,null,,,,
null,is dancing with,,html-keyboard-response,186,1124391,0.0-15.0-2.14,877,List2A,white,woman,,,,null,,,,
13639,,,survey-text,187,1138031,0.0-15.0-3.14,877,List2A,white,woman,,,,,"{""Q0"":""kate is dancing with fred""}","<img src=""stim_listA/dance3.gif""style=""height:400px;""></stim_listA>",is dancing with,
null,"<div style=""font-size:60px;"">+</div>",,html-keyboard-response,188,1138536,0.0-15.0-0.15,877,List2A,white,woman,,,,null,,,,
null,"<img src=""stim_listA/touch5.gif""style=""height:400px;""></stim_listA>",,html-keyboard-response,189,1140542,0.0-15.0-1.15,877,List2A,white,woman,,,,null,,,,
null,is touching,,html-keyboard-response,190,1142548,0.0-15.0-2.15,877,List2A,white,woman,,,,null,,,,
12633,,,survey-text,191,1155182,0.0-15.0-3.15,877,List2A,white,woman,,,,,"{""Q0"":""mike is touching dave""}","<img src=""stim_listA/touch5.gif""style=""height:400px;""></stim_listA>",is touching,
null,"<div style=""font-size:60px;"">+</div>",,html-keyboard-response,192,1155686,0.0-15.0-0.16,877,List2A,white,woman,,,,null,,,,
null,"<img src=""stim_listA/touch6.gif""style=""height:400px;""></stim_listA>",,html-keyboard-response,193,1157693,0.0-15.0-1.16,877,List2A,white,woman,,,,null,,,,
null,are touching each other,,html-keyboard-response,194,1159699,0.0-15.0-2.16,877,List2A,white,woman,,,,null,,,,
15109,,,survey-text,195,1174811,0.0-15.0-3.16,877,List2A,white,woman,,,,,"{""Q0"":""dave and luke are touching each other""}","<img src=""stim_listA/touch6.gif""style=""height:400px;""></stim_listA>",are touching each other,
null,"<div style=""font-size:60px;"">+</div>",,html-keyboard-response,196,1175320,0.0-15.0-0.17,877,List2A,white,woman,,,,null,,,,
null,"<img src=""stim_listA/kiss3.gif""style=""height:400px;""></stim_listA>",,html-keyboard-response,197,1177326,0.0-15.0-1.17,877,List2A,white,woman,,,,null,,,,
null,is kissing,,html-keyboard-response,198,1179335,0.0-15.0-2.17,877,List2A,white,woman,,,,null,,,,
9598,,,survey-text,199,1188934,0.0-15.0-3.17,877,List2A,white,woman,,,,,"{""Q0"":""beth is kissing fred""}","<img src=""stim_listA/kiss3.gif""style=""height:400px;""></stim_listA>",is kissing,
null,"<div style=""font-size:60px;"">+</div>",,html-keyboard-response,200,1189440,0.0-15.0-0.18,877,List2A,white,woman,,,,null,,,,
null,"<img src=""stim_listA/touch2.gif""style=""height:400px;""></stim_listA>",,html-keyboard-response,201,1191444,0.0-15.0-1.18,877,List2A,white,woman,,,,null,,,,
null,are touching each other,,html-keyboard-response,202,1193451,0.0-15.0-2.18,877,List2A,white,woman,,,,null,,,,
13450,,,survey-text,203,1206903,0.0-15.0-3.18,877,List2A,white,woman,,,,,"{""Q0"":""ruth and luke are touching each other""}","<img src=""stim_listA/touch2.gif""style=""height:400px;""></stim_listA>",are touching each other,
null,"<div style=""font-size:60px;"">+</div>",,html-keyboard-response,204,1207419,0.0-15.0-0.19,877,List2A,white,woman,,,,null,,,,
null,"<img src=""stim_listA/argue5.gif""style=""height:400px;""></stim_listA>",,html-keyboard-response,205,1209422,0.0-15.0-1.19,877,List2A,white,woman,,,,null,,,,
null,is arguing with,,html-keyboard-response,206,1211436,0.0-15.0-2.19,877,List2A,white,woman,,,,null,,,,
10953,,,survey-text,207,1222391,0.0-15.0-3.19,877,List2A,white,woman,,,,,"{""Q0"":""dave is arguing with fred""}","<img src=""stim_listA/argue5.gif""style=""height:400px;""></stim_listA>",is arguing with,
6790,"<img src='img/portrait_matrix_list2.jpg' style='width:900px;height:500px;''></img><p>If you have memorised all the portraits and names and are ready to start, press Continue.</p><p><strong>Please note: Your memory of these faces will be tested 4 times during this experiment.</strong></p>",0,html-button-response,208,1229182,0.0-16.0-0.0,877,List2A,white,woman,,,,,,,,
4351,"<img src=""portrait/WM2.jpg""style=""height:400px;""></img>",7,html-button-response,209,1234542,0.0-16.0-1.0,877,List2A,white,woman,,TRUE,7,,,,,
null,CORRECT,,html-keyboard-response,210,1236065,0.0-16.0-2.0-0.0,877,List2A,white,woman,,,,null,,,,
5244,"<img src=""portrait/WM1.jpg""style=""height:400px;""></img>",6,html-button-response,211,1241311,0.0-16.0-4.0,877,List2A,white,woman,,TRUE,6,,,,,
null,CORRECT,,html-keyboard-response,212,1242820,0.0-16.0-5.0-0.0,877,List2A,white,woman,,,,null,,,,
4586,"<img src=""portrait/BW2.jpg""style=""height:400px;""></img>",2,html-button-response,213,1247408,0.0-16.0-7.0,877,List2A,white,woman,,TRUE,2,,,,,
null,CORRECT,,html-keyboard-response,214,1248932,0.0-16.0-8.0-0.0,877,List2A,white,woman,,,,null,,,,
11246,"<img src=""portrait/BM2.jpg""style=""height:400px;""></img>",5,html-button-response,215,1260180,0.0-16.0-10.0,877,List2A,white,woman,,TRUE,5,,,,,
null,CORRECT,,html-keyboard-response,216,1261693,0.0-16.0-11.0-0.0,877,List2A,white,woman,,,,null,,,,
3446,"<img src=""portrait/BM1.jpg""style=""height:400px;""></img>",4,html-button-response,217,1265141,0.0-16.0-13.0,877,List2A,white,woman,,TRUE,4,,,,,
null,CORRECT,,html-keyboard-response,218,1266658,0.0-16.0-14.0-0.0,877,List2A,white,woman,,,,null,,,,
2016,"<img src=""portrait/WW2.jpg""style=""height:400px;""></img>",3,html-button-response,219,1268676,0.0-16.0-16.0,877,List2A,white,woman,,TRUE,3,,,,,
null,CORRECT,,html-keyboard-response,220,1270209,0.0-16.0-17.0-0.0,877,List2A,white,woman,,,,null,,,,
4002,"<img src=""portrait/WW1.jpg""style=""height:400px;""></img>",1,html-button-response,221,1274213,0.0-16.0-19.0,877,List2A,white,woman,,TRUE,1,,,,,
null,CORRECT,,html-keyboard-response,222,1275731,0.0-16.0-20.0-0.0,877,List2A,white,woman,,,,null,,,,
3548,"<img src=""portrait/BW1.jpg""style=""height:400px;""></img>",0,html-button-response,223,1279282,0.0-16.0-22.0,877,List2A,white,woman,,TRUE,0,,,,,
null,CORRECT,,html-keyboard-response,224,1280793,0.0-16.0-23.0-0.0,877,List2A,white,woman,,,,null,,,,
108400,<p>You got 8 out of 8 right first time. Press Continue.</p>,0,html-button-response,225,1389195,0.0-16.0-25.0,877,List2A,white,woman,,,,,,,,
null,"<div style=""font-size:60px;"">+</div>",,html-keyboard-response,226,1390720,0.0-17.0-0.0,877,List2A,white,woman,,,,null,,,,
null,"<img src=""stim_listA/marry6.gif""style=""height:400px;""></stim_listA>",,html-keyboard-response,227,1392735,0.0-17.0-1.0,877,List2A,white,woman,,,,null,,,,
null,are marrying each other,,html-keyboard-response,228,1394755,0.0-17.0-2.0,877,List2A,white,woman,,,,null,,,,
22844,,,survey-text,229,1417602,0.0-17.0-3.0,877,List2A,white,woman,,,,,"{""Q0"":""mike and luke are marrying each other""}","<img src=""stim_listA/marry6.gif""style=""height:400px;""></stim_listA>",are marrying each other,
null,"<div style=""font-size:60px;"">+</div>",,html-keyboard-response,230,1418114,0.0-17.0-0.1,877,List2A,white,woman,,,,null,,,,
null,"<img src=""stim_listA/argue3.gif""style=""height:400px;""></stim_listA>",,html-keyboard-response,231,1420118,0.0-17.0-1.1,877,List2A,white,woman,,,,null,,,,
null,is arguing with,,html-keyboard-response,232,1422127,0.0-17.0-2.1,877,List2A,white,woman,,,,null,,,,
11854,,,survey-text,233,1433983,0.0-17.0-3.1,877,List2A,white,woman,,,,,"{""Q0"":""mike is arguing with beth""}","<img src=""stim_listA/argue3.gif""style=""height:400px;""></stim_listA>",is arguing with,
null,"<div style=""font-size:60px;"">+</div>",,html-keyboard-response,234,1434494,0.0-17.0-0.2,877,List2A,white,woman,,,,null,,,,
null,"<img src=""stim_listA/argue1.gif""style=""height:400px;""></stim_listA>",,html-keyboard-response,235,1436496,0.0-17.0-1.2,877,List2A,white,woman,,,,null,,,,
null,is arguing with,,html-keyboard-response,236,1438503,0.0-17.0-2.2,877,List2A,white,woman,,,,null,,,,
16585,,,survey-text,237,1455089,0.0-17.0-3.2,877,List2A,white,woman,,,,,"{""Q0"":""dave is arguing with ruth""}","<img src=""stim_listA/argue1.gif""style=""height:400px;""></stim_listA>",is arguing with,
null,"<div style=""font-size:60px;"">+</div>",,html-keyboard-response,238,1455598,0.0-17.0-0.3,877,List2A,white,woman,,,,null,,,,
null,"<img src=""stim_listA/fight5.gif""style=""height:400px;""></stim_listA>",,html-keyboard-response,239,1457599,0.0-17.0-1.3,877,List2A,white,woman,,,,null,,,,
null,is fighting,,html-keyboard-response,240,1459606,0.0-17.0-2.3,877,List2A,white,woman,,,,null,,,,
11229,,,survey-text,241,1470837,0.0-17.0-3.3,877,List2A,white,woman,,,,,"{""Q0"":""dave is fighting mike""}","<img src=""stim_listA/fight5.gif""style=""height:400px;""></stim_listA>",is fighting,
null,"<div style=""font-size:60px;"">+</div>",,html-keyboard-response,242,1471346,0.0-17.0-0.4,877,List2A,white,woman,,,,null,,,,
null,"<img src=""stim_listA/shout6.gif""style=""height:400px;""></stim_listA>",,html-keyboard-response,243,1473351,0.0-17.0-1.4,877,List2A,white,woman,,,,null,,,,
null,are shouting at each other,,html-keyboard-response,244,1475368,0.0-17.0-2.4,877,List2A,white,woman,,,,null,,,,
12197,,,survey-text,245,1487565,0.0-17.0-3.4,877,List2A,white,woman,,,,,"{""Q0"":""mike and dave are shouting at each other""}","<img src=""stim_listA/shout6.gif""style=""height:400px;""></stim_listA>",are shouting at each other,
null,"<div style=""font-size:60px;"">+</div>",,html-keyboard-response,246,1488079,0.0-17.0-0.5,877,List2A,white,woman,,,,null,,,,
null,"<img src=""stim_listA/marry1.gif""style=""height:400px;""></stim_listA>",,html-keyboard-response,247,1490086,0.0-17.0-1.5,877,List2A,white,woman,,,,null,,,,
null,is marrying,,html-keyboard-response,248,1492100,0.0-17.0-2.5,877,List2A,white,woman,,,,null,,,,
10285,,,survey-text,249,1502386,0.0-17.0-3.5,877,List2A,white,woman,,,,,"{""Q0"":""dave is marrying ruth""}","<img src=""stim_listA/marry1.gif""style=""height:400px;""></stim_listA>",is marrying,
null,"<div style=""font-size:60px;"">+</div>",,html-keyboard-response,250,1502902,0.0-17.0-0.6,877,List2A,white,woman,,,,null,,,,
null,"<img src=""stim_listA/play8.gif""style=""height:400px;""></stim_listA>",,html-keyboard-response,251,1504920,0.0-17.0-1.6,877,List2A,white,woman,,,,null,,,,
null,are playing with each other,,html-keyboard-response,252,1506932,0.0-17.0-2.6,877,List2A,white,woman,,,,null,,,,
19255,,,survey-text,253,1526188,0.0-17.0-3.6,877,List2A,white,woman,,,,,"{""Q0"":""ruth and beth are playing with each other""}","<img src=""stim_listA/play8.gif""style=""height:400px;""></stim_listA>",are playing with each other,
null,"<div style=""font-size:60px;"">+</div>",,html-keyboard-response,254,1526705,0.0-17.0-0.7,877,List2A,white,woman,,,,null,,,,
null,"<img src=""stim_listA/talk5.gif""style=""height:400px;""></stim_listA>",,html-keyboard-response,255,1528715,0.0-17.0-1.7,877,List2A,white,woman,,,,null,,,,
null,is talking to,,html-keyboard-response,256,1530717,0.0-17.0-2.7,877,List2A,white,woman,,,,null,,,,
9839,,,survey-text,257,1540558,0.0-17.0-3.7,877,List2A,white,woman,,,,,"{""Q0"":""mike is talking to luke""}","<img src=""stim_listA/talk5.gif""style=""height:400px;""></stim_listA>",is talking to,
null,"<div style=""font-size:60px;"">+</div>",,html-keyboard-response,258,1541060,0.0-17.0-0.8,877,List2A,white,woman,,,,null,,,,
null,"<img src=""stim_listA/touch4.gif""style=""height:400px;""></stim_listA>",,html-keyboard-response,259,1543065,0.0-17.0-1.8,877,List2A,white,woman,,,,null,,,,
null,are touching each other,,html-keyboard-response,260,1545076,0.0-17.0-2.8,877,List2A,white,woman,,,,null,,,,
13058,,,survey-text,261,1558135,0.0-17.0-3.8,877,List2A,white,woman,,,,,"{""Q0"":""fred and beth are touching""}","<img src=""stim_listA/touch4.gif""style=""height:400px;""></stim_listA>",are touching each other,
null,"<div style=""font-size:60px;"">+</div>",,html-keyboard-response,262,1558637,0.0-17.0-0.9,877,List2A,white,woman,,,,null,,,,
null,"<img src=""stim_listA/dance5.gif""style=""height:400px;""></stim_listA>",,html-keyboard-response,263,1560642,0.0-17.0-1.9,877,List2A,white,woman,,,,null,,,,
null,is dancing with,,html-keyboard-response,264,1562655,0.0-17.0-2.9,877,List2A,white,woman,,,,null,,,,
11787,,,survey-text,265,1574443,0.0-17.0-3.9,877,List2A,white,woman,,,,,"{""Q0"":""mike is dancing with luke""}","<img src=""stim_listA/dance5.gif""style=""height:400px;""></stim_listA>",is dancing with,
null,"<div style=""font-size:60px;"">+</div>",,html-keyboard-response,266,1574959,0.0-17.0-0.10,877,List2A,white,woman,,,,null,,,,
null,"<img src=""stim_listA/flirt1.gif""style=""height:400px;""></stim_listA>",,html-keyboard-response,267,1576963,0.0-17.0-1.10,877,List2A,white,woman,,,,null,,,,
null,is flirting with,,html-keyboard-response,268,1578973,0.0-17.0-2.10,877,List2A,white,woman,,,,null,,,,
11651,,,survey-text,269,1590625,0.0-17.0-3.10,877,List2A,white,woman,,,,,"{""Q0"":""jane is flirting with luke""}","<img src=""stim_listA/flirt1.gif""style=""height:400px;""></stim_listA>",is flirting with,
null,"<div style=""font-size:60px;"">+</div>",,html-keyboard-response,270,1591138,0.0-17.0-0.11,877,List2A,white,woman,,,,null,,,,
null,"<img src=""stim_listA/fight4.gif""style=""height:400px;""></stim_listA>",,html-keyboard-response,271,1593142,0.0-17.0-1.11,877,List2A,white,woman,,,,null,,,,
null,are fighting each other,,html-keyboard-response,272,1595154,0.0-17.0-2.11,877,List2A,white,woman,,,,null,,,,
12860,,,survey-text,273,1608015,0.0-17.0-3.11,877,List2A,white,woman,,,,,"{""Q0"":""beth and fred are fighting each other""}","<img src=""stim_listA/fight4.gif""style=""height:400px;""></stim_listA>",are fighting each other,
null,"<div style=""font-size:60px;"">+</div>",,html-keyboard-response,274,1608526,0.0-17.0-0.12,877,List2A,white,woman,,,,null,,,,
null,"<img src=""stim_listA/talk8.gif""style=""height:400px;""></stim_listA>",,html-keyboard-response,275,1610529,0.0-17.0-1.12,877,List2A,white,woman,,,,null,,,,
null,are talking to each other,,html-keyboard-response,276,1612540,0.0-17.0-2.12,877,List2A,white,woman,,,,null,,,,
13015,,,survey-text,277,1625558,0.0-17.0-3.12,877,List2A,white,woman,,,,,"{""Q0"":""jane and beth are talking to each other""}","<img src=""stim_listA/talk8.gif""style=""height:400px;""></stim_listA>",are talking to each other,
null,"<div style=""font-size:60px;"">+</div>",,html-keyboard-response,278,1626062,0.0-17.0-0.13,877,List2A,white,woman,,,,null,,,,
null,"<img src=""stim_listA/play1.gif""style=""height:400px;""></stim_listA>",,html-keyboard-response,279,1628065,0.0-17.0-1.13,877,List2A,white,woman,,,,null,,,,
null,is playing with,,html-keyboard-response,280,1630080,0.0-17.0-2.13,877,List2A,white,woman,,,,null,,,,
10619,,,survey-text,281,1640701,0.0-17.0-3.13,877,List2A,white,woman,,,,,"{""Q0"":""jane is playing with dave""}","<img src=""stim_listA/play1.gif""style=""height:400px;""></stim_listA>",is playing with,
null,"<div style=""font-size:60px;"">+</div>",,html-keyboard-response,282,1641205,0.0-17.0-0.14,877,List2A,white,woman,,,,null,,,,
null,"<img src=""stim_listA/play7.gif""style=""height:400px;""></stim_listA>",,html-keyboard-response,283,1643207,0.0-17.0-1.14,877,List2A,white,woman,,,,null,,,,
null,is playing with,,html-keyboard-response,284,1645214,0.0-17.0-2.14,877,List2A,white,woman,,,,null,,,,
13059,,,survey-text,285,1658274,0.0-17.0-3.14,877,List2A,white,woman,,,,,"{""Q0"":""jane is playing with kate""}","<img src=""stim_listA/play7.gif""style=""height:400px;""></stim_listA>",is playing with,
null,"<div style=""font-size:60px;"">+</div>",,html-keyboard-response,286,1658782,0.0-17.0-0.15,877,List2A,white,woman,,,,null,,,,
null,"<img src=""stim_listA/play4.gif""style=""height:400px;""></stim_listA>",,html-keyboard-response,287,1660789,0.0-17.0-1.15,877,List2A,white,woman,,,,null,,,,
null,are playing with each other,,html-keyboard-response,288,1662798,0.0-17.0-2.15,877,List2A,white,woman,,,,null,,,,
14048,,,survey-text,289,1676847,0.0-17.0-3.15,877,List2A,white,woman,,,,,"{""Q0"":""fred and beth are playing with each other""}","<img src=""stim_listA/play4.gif""style=""height:400px;""></stim_listA>",are playing with each other,
null,"<div style=""font-size:60px;"">+</div>",,html-keyboard-response,290,1677362,0.0-17.0-0.16,877,List2A,white,woman,,,,null,,,,
null,"<img src=""stim_listA/shout5.gif""style=""height:400px;""></stim_listA>",,html-keyboard-response,291,1679365,0.0-17.0-1.16,877,List2A,white,woman,,,,null,,,,
null,is shouting at,,html-keyboard-response,292,1681382,0.0-17.0-2.16,877,List2A,white,woman,,,,null,,,,
11948,,,survey-text,293,1693331,0.0-17.0-3.16,877,List2A,white,woman,,,,,"{""Q0"":""luke is shouting at fred""}","<img src=""stim_listA/shout5.gif""style=""height:400px;""></stim_listA>",is shouting at,
null,"<div style=""font-size:60px;"">+</div>",,html-keyboard-response,294,1693838,0.0-17.0-0.17,877,List2A,white,woman,,,,null,,,,
null,"<img src=""stim_listA/talk4.gif""style=""height:400px;""></stim_listA>",,html-keyboard-response,295,1695849,0.0-17.0-1.17,877,List2A,white,woman,,,,null,,,,
null,are talking to each other,,html-keyboard-response,296,1697857,0.0-17.0-2.17,877,List2A,white,woman,,,,null,,,,
12153,,,survey-text,297,1710011,0.0-17.0-3.17,877,List2A,white,woman,,,,,"{""Q0"":""mike and beth are talking to each other""}","<img src=""stim_listA/talk4.gif""style=""height:400px;""></stim_listA>",are talking to each other,
null,"<div style=""font-size:60px;"">+</div>",,html-keyboard-response,298,1710514,0.0-17.0-0.18,877,List2A,white,woman,,,,null,,,,
null,"<img src=""stim_listA/marry4.gif""style=""height:400px;""></stim_listA>",,html-keyboard-response,299,1712517,0.0-17.0-1.18,877,List2A,white,woman,,,,null,,,,
null,are marrying each other,,html-keyboard-response,300,1714524,0.0-17.0-2.18,877,List2A,white,woman,,,,null,,,,
13373,,,survey-text,301,1727897,0.0-17.0-3.18,877,List2A,white,woman,,,,,"{""Q0"":""kate and fred are marrying each other""}","<img src=""stim_listA/marry4.gif""style=""height:400px;""></stim_listA>",are marrying each other,
null,"<div style=""font-size:60px;"">+</div>",,html-keyboard-response,302,1728414,0.0-17.0-0.19,877,List2A,white,woman,,,,null,,,,
null,"<img src=""stim_listA/dance1.gif""style=""height:400px;""></stim_listA>",,html-keyboard-response,303,1730417,0.0-17.0-1.19,877,List2A,white,woman,,,,null,,,,
null,is dancing with,,html-keyboard-response,304,1732430,0.0-17.0-2.19,877,List2A,white,woman,,,,null,,,,
9848,,,survey-text,305,1742280,0.0-17.0-3.19,877,List2A,white,woman,,,,,"{""Q0"":""luke is dancing with jane""}","<img src=""stim_listA/dance1.gif""style=""height:400px;""></stim_listA>",is dancing with,
16433,"<img src='img/portrait_matrix_list2.jpg' style='width:900px;height:500px;''></img><p>If you have memorised all the portraits and names and are ready to start, press Continue.</p><p><strong>Please note: Your memory of these faces will be tested 4 times during this experiment.</strong></p>",0,html-button-response,306,1758715,0.0-18.0-0.0,877,List2A,white,woman,,,,,,,,
3480,"<img src=""portrait/WM2.jpg""style=""height:400px;""></img>",7,html-button-response,307,1763212,0.0-18.0-1.0,877,List2A,white,woman,,TRUE,7,,,,,
null,CORRECT,,html-keyboard-response,308,1764725,0.0-18.0-2.0-0.0,877,List2A,white,woman,,,,null,,,,
6207,"<img src=""portrait/WW1.jpg""style=""height:400px;""></img>",1,html-button-response,309,1770934,0.0-18.0-4.0,877,List2A,white,woman,,TRUE,1,,,,,
null,CORRECT,,html-keyboard-response,310,1772447,0.0-18.0-5.0-0.0,877,List2A,white,woman,,,,null,,,,
1934,"<img src=""portrait/WW2.jpg""style=""height:400px;""></img>",3,html-button-response,311,1774384,0.0-18.0-7.0,877,List2A,white,woman,,TRUE,3,,,,,
null,CORRECT,,html-keyboard-response,312,1775912,0.0-18.0-8.0-0.0,877,List2A,white,woman,,,,null,,,,
2482,"<img src=""portrait/BM2.jpg""style=""height:400px;""></img>",5,html-button-response,313,1778396,0.0-18.0-10.0,877,List2A,white,woman,,TRUE,5,,,,,
null,CORRECT,,html-keyboard-response,314,1779909,0.0-18.0-11.0-0.0,877,List2A,white,woman,,,,null,,,,
4938,"<img src=""portrait/BW2.jpg""style=""height:400px;""></img>",2,html-button-response,315,1784848,0.0-18.0-13.0,877,List2A,white,woman,,TRUE,2,,,,,
null,CORRECT,,html-keyboard-response,316,1786371,0.0-18.0-14.0-0.0,877,List2A,white,woman,,,,null,,,,
3141,"<img src=""portrait/BM1.jpg""style=""height:400px;""></img>",4,html-button-response,317,1789514,0.0-18.0-16.0,877,List2A,white,woman,,TRUE,4,,,,,
null,CORRECT,,html-keyboard-response,318,1791029,0.0-18.0-17.0-0.0,877,List2A,white,woman,,,,null,,,,
4059,"<img src=""portrait/WM1.jpg""style=""height:400px;""></img>",6,html-button-response,319,1795089,0.0-18.0-19.0,877,List2A,white,woman,,TRUE,6,,,,,
null,CORRECT,,html-keyboard-response,320,1796603,0.0-18.0-20.0-0.0,877,List2A,white,woman,,,,null,,,,
4279,"<img src=""portrait/BW1.jpg""style=""height:400px;""></img>",0,html-button-response,321,1800885,0.0-18.0-22.0,877,List2A,white,woman,,TRUE,0,,,,,
null,CORRECT,,html-keyboard-response,322,1802403,0.0-18.0-23.0-0.0,877,List2A,white,woman,,,,null,,,,
1800,<p>You got 8 out of 8 right first time. Press Continue.</p>,0,html-button-response,323,1804204,0.0-18.0-25.0,877,List2A,white,woman,,,,,,,,
null,"<div style=""font-size:60px;"">+</div>",,html-keyboard-response,324,1805721,0.0-19.0-0.0,877,List2A,white,woman,,,,null,,,,
null,"<img src=""stim_listA/play2.gif""style=""height:400px;""></stim_listA>",,html-keyboard-response,325,1807738,0.0-19.0-1.0,877,List2A,white,woman,,,,null,,,,
null,are playing with each other,,html-keyboard-response,326,1809751,0.0-19.0-2.0,877,List2A,white,woman,,,,null,,,,
15316,,,survey-text,327,1825068,0.0-19.0-3.0,877,List2A,white,woman,,,,,"{""Q0"":""ruth and luke are playing with each other""}","<img src=""stim_listA/play2.gif""style=""height:400px;""></stim_listA>",are playing with each other,
null,"<div style=""font-size:60px;"">+</div>",,html-keyboard-response,328,1825577,0.0-19.0-0.1,877,List2A,white,woman,,,,null,,,,
null,"<img src=""stim_listA/fight1.gif""style=""height:400px;""></stim_listA>",,html-keyboard-response,329,1827582,0.0-19.0-1.1,877,List2A,white,woman,,,,null,,,,
null,is fighting,,html-keyboard-response,330,1829598,0.0-19.0-2.1,877,List2A,white,woman,,,,null,,,,
8066,,,survey-text,331,1837667,0.0-19.0-3.1,877,List2A,white,woman,,,,,"{""Q0"":""jane is fighting dave""}","<img src=""stim_listA/fight1.gif""style=""height:400px;""></stim_listA>",is fighting,
null,"<div style=""font-size:60px;"">+</div>",,html-keyboard-response,332,1838177,0.0-19.0-0.2,877,List2A,white,woman,,,,null,,,,
null,"<img src=""stim_listA/kiss7.gif""style=""height:400px;""></stim_listA>",,html-keyboard-response,333,1840181,0.0-19.0-1.2,877,List2A,white,woman,,,,null,,,,
null,is kissing,,html-keyboard-response,334,1842195,0.0-19.0-2.2,877,List2A,white,woman,,,,null,,,,
10870,,,survey-text,335,1853067,0.0-19.0-3.2,877,List2A,white,woman,,,,,"{""Q0"":""beth is kissing ruth""}","<img src=""stim_listA/kiss7.gif""style=""height:400px;""></stim_listA>",is kissing,
null,"<div style=""font-size:60px;"">+</div>",,html-keyboard-response,336,1853575,0.0-19.0-0.3,877,List2A,white,woman,,,,null,,,,
null,"<img src=""stim_listA/kiss5.gif""style=""height:400px;""></stim_listA>",,html-keyboard-response,337,1855580,0.0-19.0-1.3,877,List2A,white,woman,,,,null,,,,
null,is kissing,,html-keyboard-response,338,1857599,0.0-19.0-2.3,877,List2A,white,woman,,,,null,,,,
9980,,,survey-text,339,1867581,0.0-19.0-3.3,877,List2A,white,woman,,,,,"{""Q0"":""luke is kissing fred""}","<img src=""stim_listA/kiss5.gif""style=""height:400px;""></stim_listA>",is kissing,
null,"<div style=""font-size:60px;"">+</div>",,html-keyboard-response,340,1868093,0.0-19.0-0.4,877,List2A,white,woman,,,,null,,,,
null,"<img src=""stim_listA/fight7.gif""style=""height:400px;""></stim_listA>",,html-keyboard-response,341,1870099,0.0-19.0-1.4,877,List2A,white,woman,,,,null,,,,
null,is fighting,,html-keyboard-response,342,1872103,0.0-19.0-2.4,877,List2A,white,woman,,,,null,,,,
8458,,,survey-text,343,1880562,0.0-19.0-3.4,877,List2A,white,woman,,,,,"{""Q0"":""jane is fighting kate""}","<img src=""stim_listA/fight7.gif""style=""height:400px;""></stim_listA>",is fighting,
null,"<div style=""font-size:60px;"">+</div>",,html-keyboard-response,344,1881069,0.0-19.0-0.5,877,List2A,white,woman,,,,null,,,,
null,"<img src=""stim_listA/flirt5.gif""style=""height:400px;""></stim_listA>",,html-keyboard-response,345,1883072,0.0-19.0-1.5,877,List2A,white,woman,,,,null,,,,
null,is flirting with,,html-keyboard-response,346,1885076,0.0-19.0-2.5,877,List2A,white,woman,,,,null,,,,
11138,,,survey-text,347,1896216,0.0-19.0-3.5,877,List2A,white,woman,,,,,"{""Q0"":""luke is flirting with mike""}","<img src=""stim_listA/flirt5.gif""style=""height:400px;""></stim_listA>",is flirting with,
null,"<div style=""font-size:60px;"">+</div>",,html-keyboard-response,348,1896732,0.0-19.0-0.6,877,List2A,white,woman,,,,null,,,,
null,"<img src=""stim_listA/dance2.gif""style=""height:400px;""></stim_listA>",,html-keyboard-response,349,1898739,0.0-19.0-1.6,877,List2A,white,woman,,,,null,,,,
null,are dancing with each other,,html-keyboard-response,350,1900747,0.0-19.0-2.6,877,List2A,white,woman,,,,null,,,,
16527,,,survey-text,351,1917277,0.0-19.0-3.6,877,List2A,white,woman,,,,,"{""Q0"":""ruth and dave are dancing with each other""}","<img src=""stim_listA/dance2.gif""style=""height:400px;""></stim_listA>",are dancing with each other,
null,"<div style=""font-size:60px;"">+</div>",,html-keyboard-response,352,1917789,0.0-19.0-0.7,877,List2A,white,woman,,,,null,,,,
null,"<img src=""stim_listA/shout3.gif""style=""height:400px;""></stim_listA>",,html-keyboard-response,353,1919793,0.0-19.0-1.7,877,List2A,white,woman,,,,null,,,,
null,is shouting at,,html-keyboard-response,354,1921795,0.0-19.0-2.7,877,List2A,white,woman,,,,null,,,,
10295,,,survey-text,355,1932091,0.0-19.0-3.7,877,List2A,white,woman,,,,,"{""Q0"":""fred is shouting at beth""}","<img src=""stim_listA/shout3.gif""style=""height:400px;""></stim_listA>",is shouting at,
null,"<div style=""font-size:60px;"">+</div>",,html-keyboard-response,356,1932599,0.0-19.0-0.8,877,List2A,white,woman,,,,null,,,,
null,"<img src=""stim_listA/flirt3.gif""style=""height:400px;""></stim_listA>",,html-keyboard-response,357,1934603,0.0-19.0-1.8,877,List2A,white,woman,,,,null,,,,
null,is flirting with,,html-keyboard-response,358,1936605,0.0-19.0-2.8,877,List2A,white,woman,,,,null,,,,
14819,,,survey-text,359,1951426,0.0-19.0-3.8,877,List2A,white,woman,,,,,"{""Q0"":""kate is flirting with fred""}","<img src=""stim_listA/flirt3.gif""style=""height:400px;""></stim_listA>",is flirting with,
null,"<div style=""font-size:60px;"">+</div>",,html-keyboard-response,360,1951930,0.0-19.0-0.9,877,List2A,white,woman,,,,null,,,,
null,"<img src=""stim_listA/argue7.gif""style=""height:400px;""></stim_listA>",,html-keyboard-response,361,1953933,0.0-19.0-1.9,877,List2A,white,woman,,,,null,,,,
null,is arguing with,,html-keyboard-response,362,1955936,0.0-19.0-2.9,877,List2A,white,woman,,,,null,,,,
11573,,,survey-text,363,1967511,0.0-19.0-3.9,877,List2A,white,woman,,,,,"{""Q0"":""jane is arguing with beth""}","<img src=""stim_listA/argue7.gif""style=""height:400px;""></stim_listA>",is arguing with,
null,"<div style=""font-size:60px;"">+</div>",,html-keyboard-response,364,1968019,0.0-19.0-0.10,877,List2A,white,woman,,,,null,,,,
null,"<img src=""stim_listA/kiss8.gif""style=""height:400px;""></stim_listA>",,html-keyboard-response,365,1970024,0.0-19.0-1.10,877,List2A,white,woman,,,,null,,,,
null,are kissing each other,,html-keyboard-response,366,1972042,0.0-19.0-2.10,877,List2A,white,woman,,,,null,,,,
11181,,,survey-text,367,1983225,0.0-19.0-3.10,877,List2A,white,woman,,,,,"{""Q0"":""kate and jane are kissing each other""}","<img src=""stim_listA/kiss8.gif""style=""height:400px;""></stim_listA>",are kissing each other,
null,"<div style=""font-size:60px;"">+</div>",,html-keyboard-response,368,1983734,0.0-19.0-0.11,877,List2A,white,woman,,,,null,,,,
null,"<img src=""stim_listA/kiss1.gif""style=""height:400px;""></stim_listA>",,html-keyboard-response,369,1985739,0.0-19.0-1.11,877,List2A,white,woman,,,,null,,,,
null,is kissing,,html-keyboard-response,370,1987756,0.0-19.0-2.11,877,List2A,white,woman,,,,null,,,,
8981,,,survey-text,371,1996739,0.0-19.0-3.11,877,List2A,white,woman,,,,,"{""Q0"":""luke is kissing ruth""}","<img src=""stim_listA/kiss1.gif""style=""height:400px;""></stim_listA>",is kissing,
null,"<div style=""font-size:60px;"">+</div>",,html-keyboard-response,372,1997257,0.0-19.0-0.12,877,List2A,white,woman,,,,null,,,,
null,"<img src=""stim_listA/touch8.gif""style=""height:400px;""></stim_listA>",,html-keyboard-response,373,1999277,0.0-19.0-1.12,877,List2A,white,woman,,,,null,,,,
null,are touching each other,,html-keyboard-response,374,2001283,0.0-19.0-2.12,877,List2A,white,woman,,,,null,,,,
12131,,,survey-text,375,2013414,0.0-19.0-3.12,877,List2A,white,woman,,,,,"{""Q0"":""ruth and kate are touching each other""}","<img src=""stim_listA/touch8.gif""style=""height:400px;""></stim_listA>",are touching each other,
null,"<div style=""font-size:60px;"">+</div>",,html-keyboard-response,376,2013929,0.0-19.0-0.13,877,List2A,white,woman,,,,null,,,,
null,"<img src=""stim_listA/talk1.gif""style=""height:400px;""></stim_listA>",,html-keyboard-response,377,2015935,0.0-19.0-1.13,877,List2A,white,woman,,,,null,,,,
null,is talking to,,html-keyboard-response,378,2017939,0.0-19.0-2.13,877,List2A,white,woman,,,,null,,,,
9935,,,survey-text,379,2027874,0.0-19.0-3.13,877,List2A,white,woman,,,,,"{""Q0"":""luke is talking to jane ""}","<img src=""stim_listA/talk1.gif""style=""height:400px;""></stim_listA>",is talking to,
null,"<div style=""font-size:60px;"">+</div>",,html-keyboard-response,380,2028387,0.0-19.0-0.14,877,List2A,white,woman,,,,null,,,,
null,"<img src=""stim_listA/flirt4.gif""style=""height:400px;""></stim_listA>",,html-keyboard-response,381,2030389,0.0-19.0-1.14,877,List2A,white,woman,,,,null,,,,
null,are flirting with each other,,html-keyboard-response,382,2032401,0.0-19.0-2.14,877,List2A,white,woman,,,,null,,,,
9608,,,survey-text,383,2042011,0.0-19.0-3.14,877,List2A,white,woman,,,,,"{""Q0"":""mike and beth are flirting""}","<img src=""stim_listA/flirt4.gif""style=""height:400px;""></stim_listA>",are flirting with each other,
null,"<div style=""font-size:60px;"">+</div>",,html-keyboard-response,384,2042516,0.0-19.0-0.15,877,List2A,white,woman,,,,null,,,,
null,"<img src=""stim_listA/fight8.gif""style=""height:400px;""></stim_listA>",,html-keyboard-response,385,2044518,0.0-19.0-1.15,877,List2A,white,woman,,,,null,,,,
null,are fighting each other,,html-keyboard-response,386,2046537,0.0-19.0-2.15,877,List2A,white,woman,,,,null,,,,
15394,,,survey-text,387,2061933,0.0-19.0-3.15,877,List2A,white,woman,,,,,"{""Q0"":""ruth and beth are fighting each other""}","<img src=""stim_listA/fight8.gif""style=""height:400px;""></stim_listA>",are fighting each other,
null,"<div style=""font-size:60px;"">+</div>",,html-keyboard-response,388,2062447,0.0-19.0-0.16,877,List2A,white,woman,,,,null,,,,
null,"<img src=""stim_listA/fight6.gif""style=""height:400px;""></stim_listA>",,html-keyboard-response,389,2064451,0.0-19.0-1.16,877,List2A,white,woman,,,,null,,,,
null,are fighting each other,,html-keyboard-response,390,2066453,0.0-19.0-2.16,877,List2A,white,woman,,,,null,,,,
12764,,,survey-text,391,2079219,0.0-19.0-3.16,877,List2A,white,woman,,,,,"{""Q0"":""fred and luke are fighting each other""}","<img src=""stim_listA/fight6.gif""style=""height:400px;""></stim_listA>",are fighting each other,
null,"<div style=""font-size:60px;"">+</div>",,html-keyboard-response,392,2079726,0.0-19.0-0.17,877,List2A,white,woman,,,,null,,,,
null,"<img src=""stim_listA/play3.gif""style=""height:400px;""></stim_listA>",,html-keyboard-response,393,2081733,0.0-19.0-1.17,877,List2A,white,woman,,,,null,,,,
null,is playing with,,html-keyboard-response,394,2083738,0.0-19.0-2.17,877,List2A,white,woman,,,,null,,,,
10725,,,survey-text,395,2094465,0.0-19.0-3.17,877,List2A,white,woman,,,,,"{""Q0"":""mike is playing with kate""}","<img src=""stim_listA/play3.gif""style=""height:400px;""></stim_listA>",is playing with,
null,"<div style=""font-size:60px;"">+</div>",,html-keyboard-response,396,2094978,0.0-19.0-0.18,877,List2A,white,woman,,,,null,,,,
null,"<img src=""stim_listA/talk2.gif""style=""height:400px;""></stim_listA>",,html-keyboard-response,397,2096982,0.0-19.0-1.18,877,List2A,white,woman,,,,null,,,,
null,are talking to each other,,html-keyboard-response,398,2098997,0.0-19.0-2.18,877,List2A,white,woman,,,,null,,,,
13852,,,survey-text,399,2112851,0.0-19.0-3.18,877,List2A,white,woman,,,,,"{""Q0"":""dave and ruth are talking to each other""}","<img src=""stim_listA/talk2.gif""style=""height:400px;""></stim_listA>",are talking to each other,
null,"<div style=""font-size:60px;"">+</div>",,html-keyboard-response,400,2113352,0.0-19.0-0.19,877,List2A,white,woman,,,,null,,,,
null,"<img src=""stim_listA/marry5.gif""style=""height:400px;""></stim_listA>",,html-keyboard-response,401,2115356,0.0-19.0-1.19,877,List2A,white,woman,,,,null,,,,
null,is marrying,,html-keyboard-response,402,2117364,0.0-19.0-2.19,877,List2A,white,woman,,,,null,,,,
14946,,,survey-text,403,2132312,0.0-19.0-3.19,877,List2A,white,woman,,,,,"{""Q0"":""dave is marrying fred""}","<img src=""stim_listA/marry5.gif""style=""height:400px;""></stim_listA>",is marrying,
3031,<p>Thank you for completing that task.</p><p>The final part of this session is a short questionnaire.</p><p>Press Continue.</p>,0,html-button-response,404,2135345,0.0-20.0,877,List2A,white,woman,,,,,,,,
39076,,,survey-text,405,2175436,0.0-21.0,877,List2A,white,woman,,,,,"{""Q0"":""38"",""Q1"":""English"",""Q2"":""English"",""Q3"":""Britain"",""Q4"":""White british"",""Q5"":""female""}",,,demographics
10514,,,survey-likert,406,2185954,0.0-22.0,877,List2A,white,woman,,,,,"{""Q0"":4}",,,likert_ESS
7336,,,survey-likert,407,2193291,0.0-23.0,877,List2A,white,woman,,,,,"{""Q0"":4}",,,likert_NSSAL_Q1
4325,,,survey-likert,408,2197618,0.0-24.0,877,List2A,white,woman,,,,,"{""Q0"":4}",,,likert_NSSAL_Q2
5688,,,survey-likert,409,2203308,0.0-25.0,877,List2A,white,woman,,,,,"{""Q0"":4}",,,likert_CGRS_Q1
4718,,,survey-likert,410,2208029,0.0-26.0,877,List2A,white,woman,,,,,"{""Q0"":4}",,,likert_CGRS_Q2
4071,,,survey-likert,411,2212102,0.0-27.0,877,List2A,white,woman,,,,,"{""Q0"":4}",,,likert_CGRS_Q3
7391,,,survey-text,412,2219495,0.0-28.0,877,List2A,white,woman,,,,,"{""Q0"":""ccc""}",,,worker_id
24954,,,external-html,413,2244508,0.0-29.0,877,List2A,white,woman,debrief.html,,,,,,,
