rt,stimulus,button_pressed,trial_type,trial_index,time_elapsed,internal_node_id,subject,list,ppt_race,ppt_gender,url,first_guess,correct,key_press,responses,image_type,phrase_type,test_part
14198,Welcome to the experiment. Press Continue to begin.,0,html-button-response,0,14203,0.0-0.0,88038,List1B,white,woman,,,,,,,,
36999,,,external-html,1,52257,0.0-1.0,88038,List1B,white,woman,consent.html,,,,,,,
14792,"<p>On the next page, you will see portraits of 8 people and their names.</p><p>Your first task is to take a few minutes to memorise the names of these people.</p><p>You will have to recall their names during the rest of the experiment, so it is</p><p>essential that you try to memorise these people and their names as best as you can.</p><br><p><strong>You will then be tested on your memory of these names and portraits.</strong></p><br><p>The experiment will start after you have completed this memory test.</p><br><p>Ready?</p>",0,html-button-response,2,67051,0.0-2.0,88038,List1B,white,woman,,,,,,,,
47690,"<img src='img/portrait_matrix_list1.jpg' style='width:900px;height:500px;''></img><p>If you have memorised all the portraits and names and are ready to start, press Continue.</p><p><strong>Please note: Your memory of these faces will be tested 4 times during this experiment.</strong></p>",0,html-button-response,3,115745,0.0-3.0-0.0,88038,List1B,white,woman,,,,,,,,
6794,"<img src=""portrait/BM1.jpg""style=""height:400px;""></img>",4,html-button-response,4,123544,0.0-3.0-1.0,88038,List1B,white,woman,,TRUE,4,,,,,
null,CORRECT,,html-keyboard-response,5,125052,0.0-3.0-2.0-0.0,88038,List1B,white,woman,,,,null,,,,
3708,"<img src=""portrait/WM1.jpg""style=""height:400px;""></img>",6,html-button-response,6,128763,0.0-3.0-4.0,88038,List1B,white,woman,,TRUE,6,,,,,
null,CORRECT,,html-keyboard-response,7,130290,0.0-3.0-5.0-0.0,88038,List1B,white,woman,,,,null,,,,
2736,"<img src=""portrait/BW1.jpg""style=""height:400px;""></img>",2,html-button-response,8,133030,0.0-3.0-7.0,88038,List1B,white,woman,,TRUE,0,,,,,
4505,"<img src=""portrait/BW1.jpg""style=""height:400px;""></img>",0,html-button-response,9,138539,0.0-3.0-9.0-0.0,88038,List1B,white,woman,,FALSE,0,,,,,
null,CORRECT,,html-keyboard-response,10,140044,0.0-3.0-9.0-1.0-0.0,88038,List1B,white,woman,,,,null,,,,
4506,"<img src=""portrait/BW2.jpg""style=""height:400px;""></img>",2,html-button-response,11,144553,0.0-3.0-10.0,88038,List1B,white,woman,,TRUE,2,,,,,
null,CORRECT,,html-keyboard-response,12,146056,0.0-3.0-11.0-0.0,88038,List1B,white,woman,,,,null,,,,
2587,"<img src=""portrait/WM2.jpg""style=""height:400px;""></img>",7,html-button-response,13,148646,0.0-3.0-13.0,88038,List1B,white,woman,,TRUE,7,,,,,
null,CORRECT,,html-keyboard-response,14,150150,0.0-3.0-14.0-0.0,88038,List1B,white,woman,,,,null,,,,
5650,"<img src=""portrait/BM2.jpg""style=""height:400px;""></img>",4,html-button-response,15,155803,0.0-3.0-16.0,88038,List1B,white,woman,,TRUE,5,,,,,
2041,"<img src=""portrait/BM2.jpg""style=""height:400px;""></img>",5,html-button-response,16,158849,0.0-3.0-18.0-0.0,88038,List1B,white,woman,,FALSE,5,,,,,
null,CORRECT,,html-keyboard-response,17,160353,0.0-3.0-18.0-1.0-0.0,88038,List1B,white,woman,,,,null,,,,
2023,"<img src=""portrait/WW2.jpg""style=""height:400px;""></img>",3,html-button-response,18,162379,0.0-3.0-19.0,88038,List1B,white,woman,,TRUE,3,,,,,
null,CORRECT,,html-keyboard-response,19,163883,0.0-3.0-20.0-0.0,88038,List1B,white,woman,,,,null,,,,
2869,"<img src=""portrait/WW1.jpg""style=""height:400px;""></img>",1,html-button-response,20,166753,0.0-3.0-22.0,88038,List1B,white,woman,,TRUE,1,,,,,
null,CORRECT,,html-keyboard-response,21,168258,0.0-3.0-23.0-0.0,88038,List1B,white,woman,,,,null,,,,
1401,<p>You got 6 out of 8 right first time. Press Continue.</p>,0,html-button-response,22,169663,0.0-3.0-25.0,88038,List1B,white,woman,,,,,,,,
2585,"As you did not score 100%, the memory game will repeat. Press Continue.",0,html-button-response,23,173252,0.0-3.0-26.0-0.0,88038,List1B,white,woman,,,,,,,,
10024,"<img src='img/portrait_matrix_list1.jpg' style='width:900px;height:500px;''></img><p>If you have memorised all the portraits and names and are ready to start, press Continue.</p><p><strong>Please note: Your memory of these faces will be tested 4 times during this experiment.</strong></p>",0,html-button-response,24,184280,0.0-3.1-0.1,88038,List1B,white,woman,,,,,,,,
1441,"<img src=""portrait/BM1.jpg""style=""height:400px;""></img>",4,html-button-response,25,186724,0.0-3.1-1.1,88038,List1B,white,woman,,TRUE,4,,,,,
null,CORRECT,,html-keyboard-response,26,188227,0.0-3.1-2.1-0.1,88038,List1B,white,woman,,,,null,,,,
2143,"<img src=""portrait/WM1.jpg""style=""height:400px;""></img>",6,html-button-response,27,190372,0.0-3.1-4.1,88038,List1B,white,woman,,TRUE,6,,,,,
null,CORRECT,,html-keyboard-response,28,191876,0.0-3.1-5.1-0.1,88038,List1B,white,woman,,,,null,,,,
6699,"<img src=""portrait/BW1.jpg""style=""height:400px;""></img>",0,html-button-response,29,198577,0.0-3.1-7.1,88038,List1B,white,woman,,TRUE,0,,,,,
null,CORRECT,,html-keyboard-response,30,200081,0.0-3.1-8.1-0.1,88038,List1B,white,woman,,,,null,,,,
3392,"<img src=""portrait/BW2.jpg""style=""height:400px;""></img>",2,html-button-response,31,203475,0.0-3.1-10.1,88038,List1B,white,woman,,TRUE,2,,,,,
null,CORRECT,,html-keyboard-response,32,204979,0.0-3.1-11.1-0.1,88038,List1B,white,woman,,,,null,,,,
1665,"<img src=""portrait/WM2.jpg""style=""height:400px;""></img>",7,html-button-response,33,206647,0.0-3.1-13.1,88038,List1B,white,woman,,TRUE,7,,,,,
null,CORRECT,,html-keyboard-response,34,208151,0.0-3.1-14.1-0.1,88038,List1B,white,woman,,,,null,,,,
850,"<img src=""portrait/BM2.jpg""style=""height:400px;""></img>",5,html-button-response,35,209004,0.0-3.1-16.1,88038,List1B,white,woman,,TRUE,5,,,,,
null,CORRECT,,html-keyboard-response,36,210507,0.0-3.1-17.1-0.1,88038,List1B,white,woman,,,,null,,,,
1452,"<img src=""portrait/WW2.jpg""style=""height:400px;""></img>",3,html-button-response,37,211962,0.0-3.1-19.1,88038,List1B,white,woman,,TRUE,3,,,,,
null,CORRECT,,html-keyboard-response,38,213467,0.0-3.1-20.1-0.1,88038,List1B,white,woman,,,,null,,,,
6659,"<img src=""portrait/WW1.jpg""style=""height:400px;""></img>",0,html-button-response,39,220129,0.0-3.1-22.1,88038,List1B,white,woman,,TRUE,1,,,,,
3883,"<img src=""portrait/WW1.jpg""style=""height:400px;""></img>",1,html-button-response,40,225017,0.0-3.1-24.1-0.1,88038,List1B,white,woman,,FALSE,1,,,,,
null,CORRECT,,html-keyboard-response,41,226521,0.0-3.1-24.1-1.1-0.1,88038,List1B,white,woman,,,,null,,,,
1015,<p>You got 7 out of 8 right first time. Press Continue.</p>,0,html-button-response,42,227539,0.0-3.1-25.1,88038,List1B,white,woman,,,,,,,,
840,"As you did not score 100%, the memory game will repeat. Press Continue.",0,html-button-response,43,229381,0.0-3.1-26.1-0.1,88038,List1B,white,woman,,,,,,,,
3390,"<img src='img/portrait_matrix_list1.jpg' style='width:900px;height:500px;''></img><p>If you have memorised all the portraits and names and are ready to start, press Continue.</p><p><strong>Please note: Your memory of these faces will be tested 4 times during this experiment.</strong></p>",0,html-button-response,44,233775,0.0-3.2-0.2,88038,List1B,white,woman,,,,,,,,
1886,"<img src=""portrait/BM1.jpg""style=""height:400px;""></img>",4,html-button-response,45,236666,0.0-3.2-1.2,88038,List1B,white,woman,,TRUE,4,,,,,
null,CORRECT,,html-keyboard-response,46,238170,0.0-3.2-2.2-0.2,88038,List1B,white,woman,,,,null,,,,
2731,"<img src=""portrait/WM1.jpg""style=""height:400px;""></img>",6,html-button-response,47,240904,0.0-3.2-4.2,88038,List1B,white,woman,,TRUE,6,,,,,
null,CORRECT,,html-keyboard-response,48,242408,0.0-3.2-5.2-0.2,88038,List1B,white,woman,,,,null,,,,
1733,"<img src=""portrait/BW1.jpg""style=""height:400px;""></img>",2,html-button-response,49,244143,0.0-3.2-7.2,88038,List1B,white,woman,,TRUE,0,,,,,
3663,"<img src=""portrait/BW1.jpg""style=""height:400px;""></img>",0,html-button-response,50,248808,0.0-3.2-9.2-0.2,88038,List1B,white,woman,,FALSE,0,,,,,
null,CORRECT,,html-keyboard-response,51,250311,0.0-3.2-9.2-1.2-0.2,88038,List1B,white,woman,,,,null,,,,
1773,"<img src=""portrait/BW2.jpg""style=""height:400px;""></img>",2,html-button-response,52,252087,0.0-3.2-10.2,88038,List1B,white,woman,,TRUE,2,,,,,
null,CORRECT,,html-keyboard-response,53,253591,0.0-3.2-11.2-0.2,88038,List1B,white,woman,,,,null,,,,
1606,"<img src=""portrait/WM2.jpg""style=""height:400px;""></img>",7,html-button-response,54,255200,0.0-3.2-13.2,88038,List1B,white,woman,,TRUE,7,,,,,
null,CORRECT,,html-keyboard-response,55,256703,0.0-3.2-14.2-0.2,88038,List1B,white,woman,,,,null,,,,
1345,"<img src=""portrait/BM2.jpg""style=""height:400px;""></img>",5,html-button-response,56,258051,0.0-3.2-16.2,88038,List1B,white,woman,,TRUE,5,,,,,
null,CORRECT,,html-keyboard-response,57,259554,0.0-3.2-17.2-0.2,88038,List1B,white,woman,,,,null,,,,
2160,"<img src=""portrait/WW2.jpg""style=""height:400px;""></img>",3,html-button-response,58,261717,0.0-3.2-19.2,88038,List1B,white,woman,,TRUE,3,,,,,
null,CORRECT,,html-keyboard-response,59,263221,0.0-3.2-20.2-0.2,88038,List1B,white,woman,,,,null,,,,
1713,"<img src=""portrait/WW1.jpg""style=""height:400px;""></img>",1,html-button-response,60,264936,0.0-3.2-22.2,88038,List1B,white,woman,,TRUE,1,,,,,
null,CORRECT,,html-keyboard-response,61,266439,0.0-3.2-23.2-0.2,88038,List1B,white,woman,,,,null,,,,
1618,<p>You got 7 out of 8 right first time. Press Continue.</p>,0,html-button-response,62,268058,0.0-3.2-25.2,88038,List1B,white,woman,,,,,,,,
1771,"As you did not score 100%, the memory game will repeat. Press Continue.",0,html-button-response,63,270832,0.0-3.2-26.2-0.2,88038,List1B,white,woman,,,,,,,,
3399,"<img src='img/portrait_matrix_list1.jpg' style='width:900px;height:500px;''></img><p>If you have memorised all the portraits and names and are ready to start, press Continue.</p><p><strong>Please note: Your memory of these faces will be tested 4 times during this experiment.</strong></p>",0,html-button-response,64,275234,0.0-3.3-0.3,88038,List1B,white,woman,,,,,,,,
2245,"<img src=""portrait/BM1.jpg""style=""height:400px;""></img>",4,html-button-response,65,278483,0.0-3.3-1.3,88038,List1B,white,woman,,TRUE,4,,,,,
null,CORRECT,,html-keyboard-response,66,279986,0.0-3.3-2.3-0.3,88038,List1B,white,woman,,,,null,,,,
1054,"<img src=""portrait/WM1.jpg""style=""height:400px;""></img>",5,html-button-response,67,281042,0.0-3.3-4.3,88038,List1B,white,woman,,TRUE,6,,,,,
1062,"<img src=""portrait/WM1.jpg""style=""height:400px;""></img>",6,html-button-response,68,283108,0.0-3.3-6.3-0.3,88038,List1B,white,woman,,FALSE,6,,,,,
null,CORRECT,,html-keyboard-response,69,284611,0.0-3.3-6.3-1.3-0.3,88038,List1B,white,woman,,,,null,,,,
4070,"<img src=""portrait/BW1.jpg""style=""height:400px;""></img>",0,html-button-response,70,288684,0.0-3.3-7.3,88038,List1B,white,woman,,TRUE,0,,,,,
null,CORRECT,,html-keyboard-response,71,290187,0.0-3.3-8.3-0.3,88038,List1B,white,woman,,,,null,,,,
1122,"<img src=""portrait/BW2.jpg""style=""height:400px;""></img>",2,html-button-response,72,291311,0.0-3.3-10.3,88038,List1B,white,woman,,TRUE,2,,,,,
null,CORRECT,,html-keyboard-response,73,292815,0.0-3.3-11.3-0.3,88038,List1B,white,woman,,,,null,,,,
1645,"<img src=""portrait/WM2.jpg""style=""height:400px;""></img>",7,html-button-response,74,294463,0.0-3.3-13.3,88038,List1B,white,woman,,TRUE,7,,,,,
null,CORRECT,,html-keyboard-response,75,295967,0.0-3.3-14.3-0.3,88038,List1B,white,woman,,,,null,,,,
1373,"<img src=""portrait/BM2.jpg""style=""height:400px;""></img>",5,html-button-response,76,297342,0.0-3.3-16.3,88038,List1B,white,woman,,TRUE,5,,,,,
null,CORRECT,,html-keyboard-response,77,298844,0.0-3.3-17.3-0.3,88038,List1B,white,woman,,,,null,,,,
1055,"<img src=""portrait/WW2.jpg""style=""height:400px;""></img>",3,html-button-response,78,299902,0.0-3.3-19.3,88038,List1B,white,woman,,TRUE,3,,,,,
null,CORRECT,,html-keyboard-response,79,301406,0.0-3.3-20.3-0.3,88038,List1B,white,woman,,,,null,,,,
1335,"<img src=""portrait/WW1.jpg""style=""height:400px;""></img>",1,html-button-response,80,302743,0.0-3.3-22.3,88038,List1B,white,woman,,TRUE,1,,,,,
null,CORRECT,,html-keyboard-response,81,304247,0.0-3.3-23.3-0.3,88038,List1B,white,woman,,,,null,,,,
1247,<p>You got 7 out of 8 right first time. Press Continue.</p>,0,html-button-response,82,305496,0.0-3.3-25.3,88038,List1B,white,woman,,,,,,,,
1081,"As you did not score 100%, the memory game will repeat. Press Continue.",0,html-button-response,83,307581,0.0-3.3-26.3-0.3,88038,List1B,white,woman,,,,,,,,
3436,"<img src='img/portrait_matrix_list1.jpg' style='width:900px;height:500px;''></img><p>If you have memorised all the portraits and names and are ready to start, press Continue.</p><p><strong>Please note: Your memory of these faces will be tested 4 times during this experiment.</strong></p>",0,html-button-response,84,312022,0.0-3.4-0.4,88038,List1B,white,woman,,,,,,,,
1372,"<img src=""portrait/BM1.jpg""style=""height:400px;""></img>",4,html-button-response,85,314397,0.0-3.4-1.4,88038,List1B,white,woman,,TRUE,4,,,,,
null,CORRECT,,html-keyboard-response,86,315901,0.0-3.4-2.4-0.4,88038,List1B,white,woman,,,,null,,,,
1296,"<img src=""portrait/WM1.jpg""style=""height:400px;""></img>",6,html-button-response,87,317199,0.0-3.4-4.4,88038,List1B,white,woman,,TRUE,6,,,,,
null,CORRECT,,html-keyboard-response,88,318703,0.0-3.4-5.4-0.4,88038,List1B,white,woman,,,,null,,,,
3816,"<img src=""portrait/BW1.jpg""style=""height:400px;""></img>",0,html-button-response,89,322522,0.0-3.4-7.4,88038,List1B,white,woman,,TRUE,0,,,,,
null,CORRECT,,html-keyboard-response,90,324026,0.0-3.4-8.4-0.4,88038,List1B,white,woman,,,,null,,,,
1103,"<img src=""portrait/BW2.jpg""style=""height:400px;""></img>",2,html-button-response,91,325130,0.0-3.4-10.4,88038,List1B,white,woman,,TRUE,2,,,,,
null,CORRECT,,html-keyboard-response,92,326634,0.0-3.4-11.4-0.4,88038,List1B,white,woman,,,,null,,,,
2353,"<img src=""portrait/WM2.jpg""style=""height:400px;""></img>",7,html-button-response,93,328989,0.0-3.4-13.4,88038,List1B,white,woman,,TRUE,7,,,,,
null,CORRECT,,html-keyboard-response,94,330493,0.0-3.4-14.4-0.4,88038,List1B,white,woman,,,,null,,,,
1266,"<img src=""portrait/BM2.jpg""style=""height:400px;""></img>",5,html-button-response,95,331762,0.0-3.4-16.4,88038,List1B,white,woman,,TRUE,5,,,,,
null,CORRECT,,html-keyboard-response,96,333266,0.0-3.4-17.4-0.4,88038,List1B,white,woman,,,,null,,,,
1188,"<img src=""portrait/WW2.jpg""style=""height:400px;""></img>",3,html-button-response,97,334457,0.0-3.4-19.4,88038,List1B,white,woman,,TRUE,3,,,,,
null,CORRECT,,html-keyboard-response,98,335962,0.0-3.4-20.4-0.4,88038,List1B,white,woman,,,,null,,,,
3378,"<img src=""portrait/WW1.jpg""style=""height:400px;""></img>",1,html-button-response,99,339343,0.0-3.4-22.4,88038,List1B,white,woman,,TRUE,1,,,,,
null,CORRECT,,html-keyboard-response,100,340847,0.0-3.4-23.4-0.4,88038,List1B,white,woman,,,,null,,,,
2139,<p>You got 8 out of 8 right first time. Press Continue.</p>,0,html-button-response,101,342989,0.0-3.4-25.4,88038,List1B,white,woman,,,,,,,,
3872,"<p>In this experiment, you will view photographs of the people from the memory game interacting.</p><p>By using the <strong>exact</strong> phrase given <i>after</i> the photograph appears and recalling the correct names of the people in the photographs, form a sentence describing the interaction. You do not need to capitalise names.</p><p>Type your answer in the space provided. Please complete every sentence before moving onto the next trial.</p><p>You will only have a few seconds to memorise each given photograph and phrase before you can respond, so try your best to focus.</p><p>An example is given below. Press 'Continue' when you are ready.</p><img src='img/speaking_example.jpg' style='width:800px;height:460px;''></img>",0,html-button-response,102,347865,0.0-4.0,88038,List1B,white,woman,,,,,,,,
1150,"<p>Before the experiment starts, you will watch two example trials. Press 'Continue'.</p>",0,html-button-response,103,350017,0.0-5.0,88038,List1B,white,woman,,,,,,,,
null,<img src='img/meet_eg.gif' style='height:400px;''></img>,,html-keyboard-response,104,353022,0.0-6.0,88038,List1B,white,woman,,,,null,,,,
null,<p>is meeting</p>,,html-keyboard-response,105,355025,0.0-7.0,88038,List1B,white,woman,,,,null,,,,
1797,<p><b>Answer:</b> kate is meeting beth</p>,0,html-button-response,106,356822,0.0-8.0,88038,List1B,white,woman,,,,,,,,
null,<img src='img/look_eg.gif' style='height:400px;''></img>,,html-keyboard-response,107,359826,0.0-9.0,88038,List1B,white,woman,,,,null,,,,
null,<p>are looking at each other</p>,,html-keyboard-response,108,361828,0.0-10.0,88038,List1B,white,woman,,,,null,,,,
1779,<p><b>Answer:</b> luke and dave are looking at each other</p>,0,html-button-response,109,363608,0.0-11.0,88038,List1B,white,woman,,,,,,,,
1613,"<p>Ready to start the experiment?</p><br><p><strong>Remember to describe the picture using a full sentence,</strong></p><p><strong>that combines the names of the people with the <i>exact</i> phrase given.</strong></p><p><strong>To receive full payment you must do this correctly.</strong></p><p><strong> You do not need to capitalise names or use punctuation.</strong></p><br><p>Press 'Continue' to begin.</p>",0,html-button-response,110,366226,0.0-12.0,88038,List1B,white,woman,,,,,,,,
null,"<div style=""font-size:60px;"">+</div>",,html-keyboard-response,111,367729,0.0-13.0-0.0,88038,List1B,white,woman,,,,null,,,,
null,"<img src=""stim_listB/kiss8.gif""style=""height:400px;""></stim_listB>",,html-keyboard-response,112,369733,0.0-13.0-1.0,88038,List1B,white,woman,,,,null,,,,
null,are kissing each other,,html-keyboard-response,113,371736,0.0-13.0-2.0,88038,List1B,white,woman,,,,null,,,,
12260,,,survey-text,114,383999,0.0-13.0-3.0,88038,List1B,white,woman,,,,,"{""Q0"":""kate and jane are kissing""}","<img src=""stim_listB/kiss8.gif""style=""height:400px;""></stim_listB>",are kissing each other,
null,"<div style=""font-size:60px;"">+</div>",,html-keyboard-response,115,384502,0.0-13.0-0.1,88038,List1B,white,woman,,,,null,,,,
null,"<img src=""stim_listB/flirt4.gif""style=""height:400px;""></stim_listB>",,html-keyboard-response,116,386504,0.0-13.0-1.1,88038,List1B,white,woman,,,,null,,,,
null,are flirting with each other,,html-keyboard-response,117,388506,0.0-13.0-2.1,88038,List1B,white,woman,,,,null,,,,
9422,,,survey-text,118,397931,0.0-13.0-3.1,88038,List1B,white,woman,,,,,"{""Q0"":""dave and ruth""}","<img src=""stim_listB/flirt4.gif""style=""height:400px;""></stim_listB>",are flirting with each other,
null,"<div style=""font-size:60px;"">+</div>",,html-keyboard-response,119,398432,0.0-13.0-0.2,88038,List1B,white,woman,,,,null,,,,
null,"<img src=""stim_listB/play4.gif""style=""height:400px;""></stim_listB>",,html-keyboard-response,120,400437,0.0-13.0-1.2,88038,List1B,white,woman,,,,null,,,,
null,are playing with each other,,html-keyboard-response,121,402439,0.0-13.0-2.2,88038,List1B,white,woman,,,,null,,,,
7327,,,survey-text,122,409769,0.0-13.0-3.2,88038,List1B,white,woman,,,,,"{""Q0"":""luke and ruth""}","<img src=""stim_listB/play4.gif""style=""height:400px;""></stim_listB>",are playing with each other,
null,"<div style=""font-size:60px;"">+</div>",,html-keyboard-response,123,410271,0.0-13.0-0.3,88038,List1B,white,woman,,,,null,,,,
null,"<img src=""stim_listB/talk4.gif""style=""height:400px;""></stim_listB>",,html-keyboard-response,124,412275,0.0-13.0-1.3,88038,List1B,white,woman,,,,null,,,,
null,are talking to each other,,html-keyboard-response,125,414277,0.0-13.0-2.3,88038,List1B,white,woman,,,,null,,,,
9841,,,survey-text,126,424121,0.0-13.0-3.3,88038,List1B,white,woman,,,,,"{""Q0"":""dave and ruth""}","<img src=""stim_listB/talk4.gif""style=""height:400px;""></stim_listB>",are talking to each other,
null,"<div style=""font-size:60px;"">+</div>",,html-keyboard-response,127,424624,0.0-13.0-0.4,88038,List1B,white,woman,,,,null,,,,
null,"<img src=""stim_listB/argue3.gif""style=""height:400px;""></stim_listB>",,html-keyboard-response,128,426627,0.0-13.0-1.4,88038,List1B,white,woman,,,,null,,,,
null,is arguing with,,html-keyboard-response,129,428631,0.0-13.0-2.4,88038,List1B,white,woman,,,,null,,,,
5163,,,survey-text,130,433796,0.0-13.0-3.4,88038,List1B,white,woman,,,,,"{""Q0"":""dave and ruth""}","<img src=""stim_listB/argue3.gif""style=""height:400px;""></stim_listB>",is arguing with,
null,"<div style=""font-size:60px;"">+</div>",,html-keyboard-response,131,434298,0.0-13.0-0.5,88038,List1B,white,woman,,,,null,,,,
null,"<img src=""stim_listB/marry4.gif""style=""height:400px;""></stim_listB>",,html-keyboard-response,132,436303,0.0-13.0-1.5,88038,List1B,white,woman,,,,null,,,,
null,are marrying each other,,html-keyboard-response,133,438305,0.0-13.0-2.5,88038,List1B,white,woman,,,,null,,,,
9656,,,survey-text,134,447963,0.0-13.0-3.5,88038,List1B,white,woman,,,,,"{""Q0"":""luke and jane""}","<img src=""stim_listB/marry4.gif""style=""height:400px;""></stim_listB>",are marrying each other,
null,"<div style=""font-size:60px;"">+</div>",,html-keyboard-response,135,448465,0.0-13.0-0.6,88038,List1B,white,woman,,,,null,,,,
null,"<img src=""stim_listB/flirt5.gif""style=""height:400px;""></stim_listB>",,html-keyboard-response,136,450469,0.0-13.0-1.6,88038,List1B,white,woman,,,,null,,,,
null,is flirting with,,html-keyboard-response,137,452471,0.0-13.0-2.6,88038,List1B,white,woman,,,,null,,,,
8025,,,survey-text,138,460497,0.0-13.0-3.6,88038,List1B,white,woman,,,,,"{""Q0"":""dave and fred""}","<img src=""stim_listB/flirt5.gif""style=""height:400px;""></stim_listB>",is flirting with,
null,"<div style=""font-size:60px;"">+</div>",,html-keyboard-response,139,460999,0.0-13.0-0.7,88038,List1B,white,woman,,,,null,,,,
null,"<img src=""stim_listB/talk1.gif""style=""height:400px;""></stim_listB>",,html-keyboard-response,140,463003,0.0-13.0-1.7,88038,List1B,white,woman,,,,null,,,,
null,is talking to,,html-keyboard-response,141,465006,0.0-13.0-2.7,88038,List1B,white,woman,,,,null,,,,
8115,,,survey-text,142,473123,0.0-13.0-3.7,88038,List1B,white,woman,,,,,"{""Q0"":""fred and kate""}","<img src=""stim_listB/talk1.gif""style=""height:400px;""></stim_listB>",is talking to,
null,"<div style=""font-size:60px;"">+</div>",,html-keyboard-response,143,473624,0.0-13.0-0.8,88038,List1B,white,woman,,,,null,,,,
null,"<img src=""stim_listB/argue5.gif""style=""height:400px;""></stim_listB>",,html-keyboard-response,144,475628,0.0-13.0-1.8,88038,List1B,white,woman,,,,null,,,,
null,is arguing with,,html-keyboard-response,145,477630,0.0-13.0-2.8,88038,List1B,white,woman,,,,null,,,,
5108,,,survey-text,146,482740,0.0-13.0-3.8,88038,List1B,white,woman,,,,,"{""Q0"":""luke and mike""}","<img src=""stim_listB/argue5.gif""style=""height:400px;""></stim_listB>",is arguing with,
null,"<div style=""font-size:60px;"">+</div>",,html-keyboard-response,147,483242,0.0-13.0-0.9,88038,List1B,white,woman,,,,null,,,,
null,"<img src=""stim_listB/kiss1.gif""style=""height:400px;""></stim_listB>",,html-keyboard-response,148,485246,0.0-13.0-1.9,88038,List1B,white,woman,,,,null,,,,
null,is kissing,,html-keyboard-response,149,487248,0.0-13.0-2.9,88038,List1B,white,woman,,,,null,,,,
10035,,,survey-text,150,497285,0.0-13.0-3.9,88038,List1B,white,woman,,,,,"{""Q0"":""fred and beth""}","<img src=""stim_listB/kiss1.gif""style=""height:400px;""></stim_listB>",is kissing,
null,"<div style=""font-size:60px;"">+</div>",,html-keyboard-response,151,497786,0.0-13.0-0.10,88038,List1B,white,woman,,,,null,,,,
null,"<img src=""stim_listB/talk5.gif""style=""height:400px;""></stim_listB>",,html-keyboard-response,152,499792,0.0-13.0-1.10,88038,List1B,white,woman,,,,null,,,,
null,is talking to,,html-keyboard-response,153,501795,0.0-13.0-2.10,88038,List1B,white,woman,,,,null,,,,
6841,,,survey-text,154,508636,0.0-13.0-3.10,88038,List1B,white,woman,,,,,"{""Q0"":""fred and dave""}","<img src=""stim_listB/talk5.gif""style=""height:400px;""></stim_listB>",is talking to,
null,"<div style=""font-size:60px;"">+</div>",,html-keyboard-response,155,509138,0.0-13.0-0.11,88038,List1B,white,woman,,,,null,,,,
null,"<img src=""stim_listB/talk2.gif""style=""height:400px;""></stim_listB>",,html-keyboard-response,156,511142,0.0-13.0-1.11,88038,List1B,white,woman,,,,null,,,,
null,are talking to each other,,html-keyboard-response,157,513144,0.0-13.0-2.11,88038,List1B,white,woman,,,,null,,,,
9802,,,survey-text,158,522948,0.0-13.0-3.11,88038,List1B,white,woman,,,,,"{""Q0"":""mike and beth""}","<img src=""stim_listB/talk2.gif""style=""height:400px;""></stim_listB>",are talking to each other,
null,"<div style=""font-size:60px;"">+</div>",,html-keyboard-response,159,523450,0.0-13.0-0.12,88038,List1B,white,woman,,,,null,,,,
null,"<img src=""stim_listB/dance4.gif""style=""height:400px;""></stim_listB>",,html-keyboard-response,160,525454,0.0-13.0-1.12,88038,List1B,white,woman,,,,null,,,,
null,are dancing with each other,,html-keyboard-response,161,527457,0.0-13.0-2.12,88038,List1B,white,woman,,,,null,,,,
6775,,,survey-text,162,534233,0.0-13.0-3.12,88038,List1B,white,woman,,,,,"{""Q0"":""dave and mike""}","<img src=""stim_listB/dance4.gif""style=""height:400px;""></stim_listB>",are dancing with each other,
null,"<div style=""font-size:60px;"">+</div>",,html-keyboard-response,163,534735,0.0-13.0-0.13,88038,List1B,white,woman,,,,null,,,,
null,"<img src=""stim_listB/play6.gif""style=""height:400px;""></stim_listB>",,html-keyboard-response,164,536739,0.0-13.0-1.13,88038,List1B,white,woman,,,,null,,,,
null,are playing with each other,,html-keyboard-response,165,538741,0.0-13.0-2.13,88038,List1B,white,woman,,,,null,,,,
6715,,,survey-text,166,545458,0.0-13.0-3.13,88038,List1B,white,woman,,,,,"{""Q0"":""luke and fred""}","<img src=""stim_listB/play6.gif""style=""height:400px;""></stim_listB>",are playing with each other,
null,"<div style=""font-size:60px;"">+</div>",,html-keyboard-response,167,545961,0.0-13.0-0.14,88038,List1B,white,woman,,,,null,,,,
null,"<img src=""stim_listB/dance5.gif""style=""height:400px;""></stim_listB>",,html-keyboard-response,168,547964,0.0-13.0-1.14,88038,List1B,white,woman,,,,null,,,,
null,is dancing with,,html-keyboard-response,169,549967,0.0-13.0-2.14,88038,List1B,white,woman,,,,null,,,,
7773,,,survey-text,170,557741,0.0-13.0-3.14,88038,List1B,white,woman,,,,,"{""Q0"":""dave and fred""}","<img src=""stim_listB/dance5.gif""style=""height:400px;""></stim_listB>",is dancing with,
null,"<div style=""font-size:60px;"">+</div>",,html-keyboard-response,171,558244,0.0-13.0-0.15,88038,List1B,white,woman,,,,null,,,,
null,"<img src=""stim_listB/talk8.gif""style=""height:400px;""></stim_listB>",,html-keyboard-response,172,560247,0.0-13.0-1.15,88038,List1B,white,woman,,,,null,,,,
null,are talking to each other,,html-keyboard-response,173,562250,0.0-13.0-2.15,88038,List1B,white,woman,,,,null,,,,
6095,,,survey-text,174,568346,0.0-13.0-3.15,88038,List1B,white,woman,,,,,"{""Q0"":""kate and jane""}","<img src=""stim_listB/talk8.gif""style=""height:400px;""></stim_listB>",are talking to each other,
null,"<div style=""font-size:60px;"">+</div>",,html-keyboard-response,175,568849,0.0-13.0-0.16,88038,List1B,white,woman,,,,null,,,,
null,"<img src=""stim_listB/flirt6.gif""style=""height:400px;""></stim_listB>",,html-keyboard-response,176,570854,0.0-13.0-1.16,88038,List1B,white,woman,,,,null,,,,
null,are flirting with each other,,html-keyboard-response,177,572856,0.0-13.0-2.16,88038,List1B,white,woman,,,,null,,,,
8905,,,survey-text,178,581763,0.0-13.0-3.16,88038,List1B,white,woman,,,,,"{""Q0"":""mike and luke""}","<img src=""stim_listB/flirt6.gif""style=""height:400px;""></stim_listB>",are flirting with each other,
null,"<div style=""font-size:60px;"">+</div>",,html-keyboard-response,179,582265,0.0-13.0-0.17,88038,List1B,white,woman,,,,null,,,,
null,"<img src=""stim_listB/marry3.gif""style=""height:400px;""></stim_listB>",,html-keyboard-response,180,584269,0.0-13.0-1.17,88038,List1B,white,woman,,,,null,,,,
null,is marrying,,html-keyboard-response,181,586271,0.0-13.0-2.17,88038,List1B,white,woman,,,,null,,,,
9589,,,survey-text,182,595861,0.0-13.0-3.17,88038,List1B,white,woman,,,,,"{""Q0"":""dave and ruth""}","<img src=""stim_listB/marry3.gif""style=""height:400px;""></stim_listB>",is marrying,
null,"<div style=""font-size:60px;"">+</div>",,html-keyboard-response,183,596364,0.0-13.0-0.18,88038,List1B,white,woman,,,,null,,,,
null,"<img src=""stim_listB/marry7.gif""style=""height:400px;""></stim_listB>",,html-keyboard-response,184,598368,0.0-13.0-1.18,88038,List1B,white,woman,,,,null,,,,
null,is marrying,,html-keyboard-response,185,600369,0.0-13.0-2.18,88038,List1B,white,woman,,,,null,,,,
9110,,,survey-text,186,609481,0.0-13.0-3.18,88038,List1B,white,woman,,,,,"{""Q0"":""kate and jane""}","<img src=""stim_listB/marry7.gif""style=""height:400px;""></stim_listB>",is marrying,
null,"<div style=""font-size:60px;"">+</div>",,html-keyboard-response,187,609983,0.0-13.0-0.19,88038,List1B,white,woman,,,,null,,,,
null,"<img src=""stim_listB/touch5.gif""style=""height:400px;""></stim_listB>",,html-keyboard-response,188,611988,0.0-13.0-1.19,88038,List1B,white,woman,,,,null,,,,
null,is touching,,html-keyboard-response,189,613991,0.0-13.0-2.19,88038,List1B,white,woman,,,,null,,,,
10040,,,survey-text,190,624033,0.0-13.0-3.19,88038,List1B,white,woman,,,,,"{""Q0"":""mike and dave""}","<img src=""stim_listB/touch5.gif""style=""height:400px;""></stim_listB>",is touching,
8538,"<img src='img/portrait_matrix_list1.jpg' style='width:900px;height:500px;''></img><p>If you have memorised all the portraits and names and are ready to start, press Continue.</p><p><strong>Please note: Your memory of these faces will be tested 4 times during this experiment.</strong></p>",0,html-button-response,191,632573,0.0-14.0-0.0,88038,List1B,white,woman,,,,,,,,
5878,"<img src=""portrait/WW2.jpg""style=""height:400px;""></img>",3,html-button-response,192,639455,0.0-14.0-1.0,88038,List1B,white,woman,,TRUE,3,,,,,
null,CORRECT,,html-keyboard-response,193,640960,0.0-14.0-2.0-0.0,88038,List1B,white,woman,,,,null,,,,
2293,"<img src=""portrait/WM1.jpg""style=""height:400px;""></img>",6,html-button-response,194,643255,0.0-14.0-4.0,88038,List1B,white,woman,,TRUE,6,,,,,
null,CORRECT,,html-keyboard-response,195,644758,0.0-14.0-5.0-0.0,88038,List1B,white,woman,,,,null,,,,
5667,"<img src=""portrait/BW1.jpg""style=""height:400px;""></img>",0,html-button-response,196,650427,0.0-14.0-7.0,88038,List1B,white,woman,,TRUE,0,,,,,
null,CORRECT,,html-keyboard-response,197,651931,0.0-14.0-8.0-0.0,88038,List1B,white,woman,,,,null,,,,
1422,"<img src=""portrait/BW2.jpg""style=""height:400px;""></img>",2,html-button-response,198,653355,0.0-14.0-10.0,88038,List1B,white,woman,,TRUE,2,,,,,
null,CORRECT,,html-keyboard-response,199,654858,0.0-14.0-11.0-0.0,88038,List1B,white,woman,,,,null,,,,
1103,"<img src=""portrait/WW1.jpg""style=""height:400px;""></img>",1,html-button-response,200,655962,0.0-14.0-13.0,88038,List1B,white,woman,,TRUE,1,,,,,
null,CORRECT,,html-keyboard-response,201,657467,0.0-14.0-14.0-0.0,88038,List1B,white,woman,,,,null,,,,
4872,"<img src=""portrait/BM2.jpg""style=""height:400px;""></img>",5,html-button-response,202,662341,0.0-14.0-16.0,88038,List1B,white,woman,,TRUE,5,,,,,
null,CORRECT,,html-keyboard-response,203,663844,0.0-14.0-17.0-0.0,88038,List1B,white,woman,,,,null,,,,
5105,"<img src=""portrait/WM2.jpg""style=""height:400px;""></img>",7,html-button-response,204,668951,0.0-14.0-19.0,88038,List1B,white,woman,,TRUE,7,,,,,
null,CORRECT,,html-keyboard-response,205,670455,0.0-14.0-20.0-0.0,88038,List1B,white,woman,,,,null,,,,
5191,"<img src=""portrait/BM1.jpg""style=""height:400px;""></img>",4,html-button-response,206,675649,0.0-14.0-22.0,88038,List1B,white,woman,,TRUE,4,,,,,
null,CORRECT,,html-keyboard-response,207,677153,0.0-14.0-23.0-0.0,88038,List1B,white,woman,,,,null,,,,
1199,<p>You got 8 out of 8 right first time. Press Continue.</p>,0,html-button-response,208,678354,0.0-14.0-25.0,88038,List1B,white,woman,,,,,,,,
null,"<div style=""font-size:60px;"">+</div>",,html-keyboard-response,209,679858,0.0-15.0-0.0,88038,List1B,white,woman,,,,null,,,,
null,"<img src=""stim_listB/shout1.gif""style=""height:400px;""></stim_listB>",,html-keyboard-response,210,681861,0.0-15.0-1.0,88038,List1B,white,woman,,,,null,,,,
null,is shouting at,,html-keyboard-response,211,683863,0.0-15.0-2.0,88038,List1B,white,woman,,,,null,,,,
11319,,,survey-text,212,695184,0.0-15.0-3.0,88038,List1B,white,woman,,,,,"{""Q0"":""fred and beth""}","<img src=""stim_listB/shout1.gif""style=""height:400px;""></stim_listB>",is shouting at,
null,"<div style=""font-size:60px;"">+</div>",,html-keyboard-response,213,695687,0.0-15.0-0.1,88038,List1B,white,woman,,,,null,,,,
null,"<img src=""stim_listB/talk6.gif""style=""height:400px;""></stim_listB>",,html-keyboard-response,214,697690,0.0-15.0-1.1,88038,List1B,white,woman,,,,null,,,,
null,are talking to each other,,html-keyboard-response,215,699695,0.0-15.0-2.1,88038,List1B,white,woman,,,,null,,,,
8012,,,survey-text,216,707708,0.0-15.0-3.1,88038,List1B,white,woman,,,,,"{""Q0"":""mike and luke""}","<img src=""stim_listB/talk6.gif""style=""height:400px;""></stim_listB>",are talking to each other,
null,"<div style=""font-size:60px;"">+</div>",,html-keyboard-response,217,708210,0.0-15.0-0.2,88038,List1B,white,woman,,,,null,,,,
null,"<img src=""stim_listB/fight1.gif""style=""height:400px;""></stim_listB>",,html-keyboard-response,218,710214,0.0-15.0-1.2,88038,List1B,white,woman,,,,null,,,,
null,is fighting,,html-keyboard-response,219,712217,0.0-15.0-2.2,88038,List1B,white,woman,,,,null,,,,
10703,,,survey-text,220,722921,0.0-15.0-3.2,88038,List1B,white,woman,,,,,"{""Q0"":""dave and kate""}","<img src=""stim_listB/fight1.gif""style=""height:400px;""></stim_listB>",is fighting,
null,"<div style=""font-size:60px;"">+</div>",,html-keyboard-response,221,723423,0.0-15.0-0.3,88038,List1B,white,woman,,,,null,,,,
null,"<img src=""stim_listB/argue8.gif""style=""height:400px;""></stim_listB>",,html-keyboard-response,222,725427,0.0-15.0-1.3,88038,List1B,white,woman,,,,null,,,,
null,are arguing with each other,,html-keyboard-response,223,727429,0.0-15.0-2.3,88038,List1B,white,woman,,,,null,,,,
5077,,,survey-text,224,732508,0.0-15.0-3.3,88038,List1B,white,woman,,,,,"{""Q0"":""jane and dave""}","<img src=""stim_listB/argue8.gif""style=""height:400px;""></stim_listB>",are arguing with each other,
null,"<div style=""font-size:60px;"">+</div>",,html-keyboard-response,225,733009,0.0-15.0-0.4,88038,List1B,white,woman,,,,null,,,,
null,"<img src=""stim_listB/marry8.gif""style=""height:400px;""></stim_listB>",,html-keyboard-response,226,735013,0.0-15.0-1.4,88038,List1B,white,woman,,,,null,,,,
null,are marrying each other,,html-keyboard-response,227,737015,0.0-15.0-2.4,88038,List1B,white,woman,,,,null,,,,
5678,,,survey-text,228,742695,0.0-15.0-3.4,88038,List1B,white,woman,,,,,"{""Q0"":""jane and beth""}","<img src=""stim_listB/marry8.gif""style=""height:400px;""></stim_listB>",are marrying each other,
null,"<div style=""font-size:60px;"">+</div>",,html-keyboard-response,229,743198,0.0-15.0-0.5,88038,List1B,white,woman,,,,null,,,,
null,"<img src=""stim_listB/dance3.gif""style=""height:400px;""></stim_listB>",,html-keyboard-response,230,745202,0.0-15.0-1.5,88038,List1B,white,woman,,,,null,,,,
null,is dancing with,,html-keyboard-response,231,747204,0.0-15.0-2.5,88038,List1B,white,woman,,,,null,,,,
6686,,,survey-text,232,753891,0.0-15.0-3.5,88038,List1B,white,woman,,,,,"{""Q0"":""beth and jane""}","<img src=""stim_listB/dance3.gif""style=""height:400px;""></stim_listB>",is dancing with,
null,"<div style=""font-size:60px;"">+</div>",,html-keyboard-response,233,754394,0.0-15.0-0.6,88038,List1B,white,woman,,,,null,,,,
null,"<img src=""stim_listB/talk3.gif""style=""height:400px;""></stim_listB>",,html-keyboard-response,234,756398,0.0-15.0-1.6,88038,List1B,white,woman,,,,null,,,,
null,is talking to,,html-keyboard-response,235,758401,0.0-15.0-2.6,88038,List1B,white,woman,,,,null,,,,
8201,,,survey-text,236,766604,0.0-15.0-3.6,88038,List1B,white,woman,,,,,"{""Q0"":""luke and jane""}","<img src=""stim_listB/talk3.gif""style=""height:400px;""></stim_listB>",is talking to,
null,"<div style=""font-size:60px;"">+</div>",,html-keyboard-response,237,767105,0.0-15.0-0.7,88038,List1B,white,woman,,,,null,,,,
null,"<img src=""stim_listB/play2.gif""style=""height:400px;""></stim_listB>",,html-keyboard-response,238,769109,0.0-15.0-1.7,88038,List1B,white,woman,,,,null,,,,
null,are playing with each other,,html-keyboard-response,239,771111,0.0-15.0-2.7,88038,List1B,white,woman,,,,null,,,,
14046,,,survey-text,240,785158,0.0-15.0-3.7,88038,List1B,white,woman,,,,,"{""Q0"":""fred and beth""}","<img src=""stim_listB/play2.gif""style=""height:400px;""></stim_listB>",are playing with each other,
null,"<div style=""font-size:60px;"">+</div>",,html-keyboard-response,241,785661,0.0-15.0-0.8,88038,List1B,white,woman,,,,null,,,,
null,"<img src=""stim_listB/touch8.gif""style=""height:400px;""></stim_listB>",,html-keyboard-response,242,787666,0.0-15.0-1.8,88038,List1B,white,woman,,,,null,,,,
null,are touching each other,,html-keyboard-response,243,789668,0.0-15.0-2.8,88038,List1B,white,woman,,,,null,,,,
17841,,,survey-text,244,807510,0.0-15.0-3.8,88038,List1B,white,woman,,,,,"{""Q0"":""beth and jane""}","<img src=""stim_listB/touch8.gif""style=""height:400px;""></stim_listB>",are touching each other,
null,"<div style=""font-size:60px;"">+</div>",,html-keyboard-response,245,808013,0.0-15.0-0.9,88038,List1B,white,woman,,,,null,,,,
null,"<img src=""stim_listB/fight4.gif""style=""height:400px;""></stim_listB>",,html-keyboard-response,246,810016,0.0-15.0-1.9,88038,List1B,white,woman,,,,null,,,,
null,are fighting each other,,html-keyboard-response,247,812019,0.0-15.0-2.9,88038,List1B,white,woman,,,,null,,,,
8727,,,survey-text,248,820748,0.0-15.0-3.9,88038,List1B,white,woman,,,,,"{""Q0"":""jane and luke""}","<img src=""stim_listB/fight4.gif""style=""height:400px;""></stim_listB>",are fighting each other,
null,"<div style=""font-size:60px;"">+</div>",,html-keyboard-response,249,821249,0.0-15.0-0.10,88038,List1B,white,woman,,,,null,,,,
null,"<img src=""stim_listB/shout4.gif""style=""height:400px;""></stim_listB>",,html-keyboard-response,250,823253,0.0-15.0-1.10,88038,List1B,white,woman,,,,null,,,,
null,are shouting at each other,,html-keyboard-response,251,825255,0.0-15.0-2.10,88038,List1B,white,woman,,,,null,,,,
9387,,,survey-text,252,834643,0.0-15.0-3.10,88038,List1B,white,woman,,,,,"{""Q0"":""luke and jane""}","<img src=""stim_listB/shout4.gif""style=""height:400px;""></stim_listB>",are shouting at each other,
null,"<div style=""font-size:60px;"">+</div>",,html-keyboard-response,253,835145,0.0-15.0-0.11,88038,List1B,white,woman,,,,null,,,,
null,"<img src=""stim_listB/play7.gif""style=""height:400px;""></stim_listB>",,html-keyboard-response,254,837150,0.0-15.0-1.11,88038,List1B,white,woman,,,,null,,,,
null,is playing with,,html-keyboard-response,255,839153,0.0-15.0-2.11,88038,List1B,white,woman,,,,null,,,,
5958,,,survey-text,256,845113,0.0-15.0-3.11,88038,List1B,white,woman,,,,,"{""Q0"":""jane and kate""}","<img src=""stim_listB/play7.gif""style=""height:400px;""></stim_listB>",is playing with,
null,"<div style=""font-size:60px;"">+</div>",,html-keyboard-response,257,845616,0.0-15.0-0.12,88038,List1B,white,woman,,,,null,,,,
null,"<img src=""stim_listB/argue4.gif""style=""height:400px;""></stim_listB>",,html-keyboard-response,258,847619,0.0-15.0-1.12,88038,List1B,white,woman,,,,null,,,,
null,are arguing with each other,,html-keyboard-response,259,849620,0.0-15.0-2.12,88038,List1B,white,woman,,,,null,,,,
5553,,,survey-text,260,855176,0.0-15.0-3.12,88038,List1B,white,woman,,,,,"{""Q0"":""luke and jane ""}","<img src=""stim_listB/argue4.gif""style=""height:400px;""></stim_listB>",are arguing with each other,
null,"<div style=""font-size:60px;"">+</div>",,html-keyboard-response,261,855677,0.0-15.0-0.13,88038,List1B,white,woman,,,,null,,,,
null,"<img src=""stim_listB/fight3.gif""style=""height:400px;""></stim_listB>",,html-keyboard-response,262,857681,0.0-15.0-1.13,88038,List1B,white,woman,,,,null,,,,
null,is fighting,,html-keyboard-response,263,859682,0.0-15.0-2.13,88038,List1B,white,woman,,,,null,,,,
6291,,,survey-text,264,865975,0.0-15.0-3.13,88038,List1B,white,woman,,,,,"{""Q0"":""dave and jane ""}","<img src=""stim_listB/fight3.gif""style=""height:400px;""></stim_listB>",is fighting,
null,"<div style=""font-size:60px;"">+</div>",,html-keyboard-response,265,866478,0.0-15.0-0.14,88038,List1B,white,woman,,,,null,,,,
null,"<img src=""stim_listB/touch6.gif""style=""height:400px;""></stim_listB>",,html-keyboard-response,266,868481,0.0-15.0-1.14,88038,List1B,white,woman,,,,null,,,,
null,are touching each other,,html-keyboard-response,267,870483,0.0-15.0-2.14,88038,List1B,white,woman,,,,null,,,,
6046,,,survey-text,268,876532,0.0-15.0-3.14,88038,List1B,white,woman,,,,,"{""Q0"":""fred and luke""}","<img src=""stim_listB/touch6.gif""style=""height:400px;""></stim_listB>",are touching each other,
null,"<div style=""font-size:60px;"">+</div>",,html-keyboard-response,269,877033,0.0-15.0-0.15,88038,List1B,white,woman,,,,null,,,,
null,"<img src=""stim_listB/flirt8.gif""style=""height:400px;""></stim_listB>",,html-keyboard-response,270,879037,0.0-15.0-1.15,88038,List1B,white,woman,,,,null,,,,
null,are flirting with each other,,html-keyboard-response,271,881041,0.0-15.0-2.15,88038,List1B,white,woman,,,,null,,,,
6852,,,survey-text,272,887895,0.0-15.0-3.15,88038,List1B,white,woman,,,,,"{""Q0"":""kate and jane ""}","<img src=""stim_listB/flirt8.gif""style=""height:400px;""></stim_listB>",are flirting with each other,
null,"<div style=""font-size:60px;"">+</div>",,html-keyboard-response,273,888397,0.0-15.0-0.16,88038,List1B,white,woman,,,,null,,,,
null,"<img src=""stim_listB/flirt7.gif""style=""height:400px;""></stim_listB>",,html-keyboard-response,274,890401,0.0-15.0-1.16,88038,List1B,white,woman,,,,null,,,,
null,is flirting with,,html-keyboard-response,275,892403,0.0-15.0-2.16,88038,List1B,white,woman,,,,null,,,,
4323,,,survey-text,276,896727,0.0-15.0-3.16,88038,List1B,white,woman,,,,,"{""Q0"":""jane and beth""}","<img src=""stim_listB/flirt7.gif""style=""height:400px;""></stim_listB>",is flirting with,
null,"<div style=""font-size:60px;"">+</div>",,html-keyboard-response,277,897229,0.0-15.0-0.17,88038,List1B,white,woman,,,,null,,,,
null,"<img src=""stim_listB/play1.gif""style=""height:400px;""></stim_listB>",,html-keyboard-response,278,899233,0.0-15.0-1.17,88038,List1B,white,woman,,,,null,,,,
null,is playing with,,html-keyboard-response,279,901237,0.0-15.0-2.17,88038,List1B,white,woman,,,,null,,,,
20546,,,survey-text,280,921785,0.0-15.0-3.17,88038,List1B,white,woman,,,,,"{""Q0"":""mike and kate""}","<img src=""stim_listB/play1.gif""style=""height:400px;""></stim_listB>",is playing with,
null,"<div style=""font-size:60px;"">+</div>",,html-keyboard-response,281,922287,0.0-15.0-0.18,88038,List1B,white,woman,,,,null,,,,
null,"<img src=""stim_listB/kiss4.gif""style=""height:400px;""></stim_listB>",,html-keyboard-response,282,924291,0.0-15.0-1.18,88038,List1B,white,woman,,,,null,,,,
null,are kissing each other,,html-keyboard-response,283,926293,0.0-15.0-2.18,88038,List1B,white,woman,,,,null,,,,
17954,,,survey-text,284,944249,0.0-15.0-3.18,88038,List1B,white,woman,,,,,"{""Q0"":""jane and dave""}","<img src=""stim_listB/kiss4.gif""style=""height:400px;""></stim_listB>",are kissing each other,
null,"<div style=""font-size:60px;"">+</div>",,html-keyboard-response,285,944751,0.0-15.0-0.19,88038,List1B,white,woman,,,,null,,,,
null,"<img src=""stim_listB/marry6.gif""style=""height:400px;""></stim_listB>",,html-keyboard-response,286,946755,0.0-15.0-1.19,88038,List1B,white,woman,,,,null,,,,
null,are marrying each other,,html-keyboard-response,287,948756,0.0-15.0-2.19,88038,List1B,white,woman,,,,null,,,,
5061,,,survey-text,288,953820,0.0-15.0-3.19,88038,List1B,white,woman,,,,,"{""Q0"":""dave and fred""}","<img src=""stim_listB/marry6.gif""style=""height:400px;""></stim_listB>",are marrying each other,
7580,"<img src='img/portrait_matrix_list1.jpg' style='width:900px;height:500px;''></img><p>If you have memorised all the portraits and names and are ready to start, press Continue.</p><p><strong>Please note: Your memory of these faces will be tested 4 times during this experiment.</strong></p>",0,html-button-response,289,961401,0.0-16.0-0.0,88038,List1B,white,woman,,,,,,,,
2876,"<img src=""portrait/BW1.jpg""style=""height:400px;""></img>",0,html-button-response,290,965280,0.0-16.0-1.0,88038,List1B,white,woman,,TRUE,0,,,,,
null,CORRECT,,html-keyboard-response,291,966784,0.0-16.0-2.0-0.0,88038,List1B,white,woman,,,,null,,,,
1935,"<img src=""portrait/BM1.jpg""style=""height:400px;""></img>",4,html-button-response,292,968721,0.0-16.0-4.0,88038,List1B,white,woman,,TRUE,4,,,,,
null,CORRECT,,html-keyboard-response,293,970225,0.0-16.0-5.0-0.0,88038,List1B,white,woman,,,,null,,,,
1258,"<img src=""portrait/WW2.jpg""style=""height:400px;""></img>",3,html-button-response,294,971484,0.0-16.0-7.0,88038,List1B,white,woman,,TRUE,3,,,,,
null,CORRECT,,html-keyboard-response,295,972988,0.0-16.0-8.0-0.0,88038,List1B,white,woman,,,,null,,,,
1558,"<img src=""portrait/WM2.jpg""style=""height:400px;""></img>",7,html-button-response,296,974548,0.0-16.0-10.0,88038,List1B,white,woman,,TRUE,7,,,,,
null,CORRECT,,html-keyboard-response,297,976051,0.0-16.0-11.0-0.0,88038,List1B,white,woman,,,,null,,,,
1626,"<img src=""portrait/BM2.jpg""style=""height:400px;""></img>",5,html-button-response,298,977679,0.0-16.0-13.0,88038,List1B,white,woman,,TRUE,5,,,,,
null,CORRECT,,html-keyboard-response,299,979183,0.0-16.0-14.0-0.0,88038,List1B,white,woman,,,,null,,,,
6986,"<img src=""portrait/BW2.jpg""style=""height:400px;""></img>",2,html-button-response,300,986172,0.0-16.0-16.0,88038,List1B,white,woman,,TRUE,2,,,,,
null,CORRECT,,html-keyboard-response,301,987676,0.0-16.0-17.0-0.0,88038,List1B,white,woman,,,,null,,,,
1936,"<img src=""portrait/WM1.jpg""style=""height:400px;""></img>",6,html-button-response,302,989614,0.0-16.0-19.0,88038,List1B,white,woman,,TRUE,6,,,,,
null,CORRECT,,html-keyboard-response,303,991117,0.0-16.0-20.0-0.0,88038,List1B,white,woman,,,,null,,,,
2150,"<img src=""portrait/WW1.jpg""style=""height:400px;""></img>",1,html-button-response,304,993269,0.0-16.0-22.0,88038,List1B,white,woman,,TRUE,1,,,,,
null,CORRECT,,html-keyboard-response,305,994772,0.0-16.0-23.0-0.0,88038,List1B,white,woman,,,,null,,,,
1840,<p>You got 8 out of 8 right first time. Press Continue.</p>,0,html-button-response,306,996614,0.0-16.0-25.0,88038,List1B,white,woman,,,,,,,,
null,"<div style=""font-size:60px;"">+</div>",,html-keyboard-response,307,998118,0.0-17.0-0.0,88038,List1B,white,woman,,,,null,,,,
null,"<img src=""stim_listB/marry5.gif""style=""height:400px;""></stim_listB>",,html-keyboard-response,308,1000121,0.0-17.0-1.0,88038,List1B,white,woman,,,,null,,,,
null,is marrying,,html-keyboard-response,309,1002124,0.0-17.0-2.0,88038,List1B,white,woman,,,,null,,,,
7548,,,survey-text,310,1009673,0.0-17.0-3.0,88038,List1B,white,woman,,,,,"{""Q0"":""mike and luke""}","<img src=""stim_listB/marry5.gif""style=""height:400px;""></stim_listB>",is marrying,
null,"<div style=""font-size:60px;"">+</div>",,html-keyboard-response,311,1010175,0.0-17.0-0.1,88038,List1B,white,woman,,,,null,,,,
null,"<img src=""stim_listB/shout3.gif""style=""height:400px;""></stim_listB>",,html-keyboard-response,312,1012178,0.0-17.0-1.1,88038,List1B,white,woman,,,,null,,,,
null,is shouting at,,html-keyboard-response,313,1014181,0.0-17.0-2.1,88038,List1B,white,woman,,,,null,,,,
6417,,,survey-text,314,1020599,0.0-17.0-3.1,88038,List1B,white,woman,,,,,"{""Q0"":""luke and ruth""}","<img src=""stim_listB/shout3.gif""style=""height:400px;""></stim_listB>",is shouting at,
null,"<div style=""font-size:60px;"">+</div>",,html-keyboard-response,315,1021101,0.0-17.0-0.2,88038,List1B,white,woman,,,,null,,,,
null,"<img src=""stim_listB/shout7.gif""style=""height:400px;""></stim_listB>",,html-keyboard-response,316,1023105,0.0-17.0-1.2,88038,List1B,white,woman,,,,null,,,,
null,is shouting at,,html-keyboard-response,317,1025108,0.0-17.0-2.2,88038,List1B,white,woman,,,,null,,,,
11674,,,survey-text,318,1036784,0.0-17.0-3.2,88038,List1B,white,woman,,,,,"{""Q0"":""ruth and beth""}","<img src=""stim_listB/shout7.gif""style=""height:400px;""></stim_listB>",is shouting at,
null,"<div style=""font-size:60px;"">+</div>",,html-keyboard-response,319,1037286,0.0-17.0-0.3,88038,List1B,white,woman,,,,null,,,,
null,"<img src=""stim_listB/flirt3.gif""style=""height:400px;""></stim_listB>",,html-keyboard-response,320,1039291,0.0-17.0-1.3,88038,List1B,white,woman,,,,null,,,,
null,is flirting with,,html-keyboard-response,321,1041293,0.0-17.0-2.3,88038,List1B,white,woman,,,,null,,,,
9647,,,survey-text,322,1050942,0.0-17.0-3.3,88038,List1B,white,woman,,,,,"{""Q0"":""luke and ruth ""}","<img src=""stim_listB/flirt3.gif""style=""height:400px;""></stim_listB>",is flirting with,
null,"<div style=""font-size:60px;"">+</div>",,html-keyboard-response,323,1051444,0.0-17.0-0.4,88038,List1B,white,woman,,,,null,,,,
null,"<img src=""stim_listB/kiss3.gif""style=""height:400px;""></stim_listB>",,html-keyboard-response,324,1053449,0.0-17.0-1.4,88038,List1B,white,woman,,,,null,,,,
null,is kissing,,html-keyboard-response,325,1055452,0.0-17.0-2.4,88038,List1B,white,woman,,,,null,,,,
13101,,,survey-text,326,1068555,0.0-17.0-3.4,88038,List1B,white,woman,,,,,"{""Q0"":""luke and ruth""}","<img src=""stim_listB/kiss3.gif""style=""height:400px;""></stim_listB>",is kissing,
null,"<div style=""font-size:60px;"">+</div>",,html-keyboard-response,327,1069057,0.0-17.0-0.5,88038,List1B,white,woman,,,,null,,,,
null,"<img src=""stim_listB/play5.gif""style=""height:400px;""></stim_listB>",,html-keyboard-response,328,1071062,0.0-17.0-1.5,88038,List1B,white,woman,,,,null,,,,
null,is playing with,,html-keyboard-response,329,1073064,0.0-17.0-2.5,88038,List1B,white,woman,,,,null,,,,
5786,,,survey-text,330,1078852,0.0-17.0-3.5,88038,List1B,white,woman,,,,,"{""Q0"":""dave and mike""}","<img src=""stim_listB/play5.gif""style=""height:400px;""></stim_listB>",is playing with,
null,"<div style=""font-size:60px;"">+</div>",,html-keyboard-response,331,1079354,0.0-17.0-0.6,88038,List1B,white,woman,,,,null,,,,
null,"<img src=""stim_listB/dance7.gif""style=""height:400px;""></stim_listB>",,html-keyboard-response,332,1081357,0.0-17.0-1.6,88038,List1B,white,woman,,,,null,,,,
null,is dancing with,,html-keyboard-response,333,1083359,0.0-17.0-2.6,88038,List1B,white,woman,,,,null,,,,
5737,,,survey-text,334,1089099,0.0-17.0-3.6,88038,List1B,white,woman,,,,,"{""Q0"":""ruth and beth""}","<img src=""stim_listB/dance7.gif""style=""height:400px;""></stim_listB>",is dancing with,
null,"<div style=""font-size:60px;"">+</div>",,html-keyboard-response,335,1089600,0.0-17.0-0.7,88038,List1B,white,woman,,,,null,,,,
null,"<img src=""stim_listB/marry1.gif""style=""height:400px;""></stim_listB>",,html-keyboard-response,336,1091605,0.0-17.0-1.7,88038,List1B,white,woman,,,,null,,,,
null,is marrying,,html-keyboard-response,337,1093608,0.0-17.0-2.7,88038,List1B,white,woman,,,,null,,,,
6300,,,survey-text,338,1099909,0.0-17.0-3.7,88038,List1B,white,woman,,,,,"{""Q0"":""mike and ruth""}","<img src=""stim_listB/marry1.gif""style=""height:400px;""></stim_listB>",is marrying,
null,"<div style=""font-size:60px;"">+</div>",,html-keyboard-response,339,1100412,0.0-17.0-0.8,88038,List1B,white,woman,,,,null,,,,
null,"<img src=""stim_listB/dance2.gif""style=""height:400px;""></stim_listB>",,html-keyboard-response,340,1102415,0.0-17.0-1.8,88038,List1B,white,woman,,,,null,,,,
null,are dancing with each other,,html-keyboard-response,341,1104417,0.0-17.0-2.8,88038,List1B,white,woman,,,,null,,,,
7096,,,survey-text,342,1111515,0.0-17.0-3.8,88038,List1B,white,woman,,,,,"{""Q0"":""beth and mike""}","<img src=""stim_listB/dance2.gif""style=""height:400px;""></stim_listB>",are dancing with each other,
null,"<div style=""font-size:60px;"">+</div>",,html-keyboard-response,343,1112017,0.0-17.0-0.9,88038,List1B,white,woman,,,,null,,,,
null,"<img src=""stim_listB/touch2.gif""style=""height:400px;""></stim_listB>",,html-keyboard-response,344,1114021,0.0-17.0-1.9,88038,List1B,white,woman,,,,null,,,,
null,are touching each other,,html-keyboard-response,345,1116023,0.0-17.0-2.9,88038,List1B,white,woman,,,,null,,,,
6620,,,survey-text,346,1122645,0.0-17.0-3.9,88038,List1B,white,woman,,,,,"{""Q0"":""beth and fred""}","<img src=""stim_listB/touch2.gif""style=""height:400px;""></stim_listB>",are touching each other,
null,"<div style=""font-size:60px;"">+</div>",,html-keyboard-response,347,1123148,0.0-17.0-0.10,88038,List1B,white,woman,,,,null,,,,
null,"<img src=""stim_listB/fight6.gif""style=""height:400px;""></stim_listB>",,html-keyboard-response,348,1125151,0.0-17.0-1.10,88038,List1B,white,woman,,,,null,,,,
null,are fighting each other,,html-keyboard-response,349,1127153,0.0-17.0-2.10,88038,List1B,white,woman,,,,null,,,,
6495,,,survey-text,350,1133651,0.0-17.0-3.10,88038,List1B,white,woman,,,,,"{""Q0"":""luke and fred""}","<img src=""stim_listB/fight6.gif""style=""height:400px;""></stim_listB>",are fighting each other,
null,"<div style=""font-size:60px;"">+</div>",,html-keyboard-response,351,1134152,0.0-17.0-0.11,88038,List1B,white,woman,,,,null,,,,
null,"<img src=""stim_listB/argue2.gif""style=""height:400px;""></stim_listB>",,html-keyboard-response,352,1136158,0.0-17.0-1.11,88038,List1B,white,woman,,,,null,,,,
null,are arguing with each other,,html-keyboard-response,353,1138159,0.0-17.0-2.11,88038,List1B,white,woman,,,,null,,,,
13122,,,survey-text,354,1151282,0.0-17.0-3.11,88038,List1B,white,woman,,,,,"{""Q0"":""fred and kate""}","<img src=""stim_listB/argue2.gif""style=""height:400px;""></stim_listB>",are arguing with each other,
null,"<div style=""font-size:60px;"">+</div>",,html-keyboard-response,355,1151785,0.0-17.0-0.12,88038,List1B,white,woman,,,,null,,,,
null,"<img src=""stim_listB/talk7.gif""style=""height:400px;""></stim_listB>",,html-keyboard-response,356,1153789,0.0-17.0-1.12,88038,List1B,white,woman,,,,null,,,,
null,is talking to,,html-keyboard-response,357,1155791,0.0-17.0-2.12,88038,List1B,white,woman,,,,null,,,,
10696,,,survey-text,358,1166489,0.0-17.0-3.12,88038,List1B,white,woman,,,,,"{""Q0"":""kate and jane""}","<img src=""stim_listB/talk7.gif""style=""height:400px;""></stim_listB>",is talking to,
null,"<div style=""font-size:60px;"">+</div>",,html-keyboard-response,359,1166994,0.0-17.0-0.13,88038,List1B,white,woman,,,,null,,,,
null,"<img src=""stim_listB/shout5.gif""style=""height:400px;""></stim_listB>",,html-keyboard-response,360,1169007,0.0-17.0-1.13,88038,List1B,white,woman,,,,null,,,,
null,is shouting at,,html-keyboard-response,361,1171009,0.0-17.0-2.13,88038,List1B,white,woman,,,,null,,,,
6502,,,survey-text,362,1177513,0.0-17.0-3.13,88038,List1B,white,woman,,,,,"{""Q0"":""fred and luke""}","<img src=""stim_listB/shout5.gif""style=""height:400px;""></stim_listB>",is shouting at,
null,"<div style=""font-size:60px;"">+</div>",,html-keyboard-response,363,1178015,0.0-17.0-0.14,88038,List1B,white,woman,,,,null,,,,
null,"<img src=""stim_listB/dance6.gif""style=""height:400px;""></stim_listB>",,html-keyboard-response,364,1180019,0.0-17.0-1.14,88038,List1B,white,woman,,,,null,,,,
null,are dancing with each other,,html-keyboard-response,365,1182022,0.0-17.0-2.14,88038,List1B,white,woman,,,,null,,,,
8453,,,survey-text,366,1190477,0.0-17.0-3.14,88038,List1B,white,woman,,,,,"{""Q0"":""luke and mike""}","<img src=""stim_listB/dance6.gif""style=""height:400px;""></stim_listB>",are dancing with each other,
null,"<div style=""font-size:60px;"">+</div>",,html-keyboard-response,367,1190979,0.0-17.0-0.15,88038,List1B,white,woman,,,,null,,,,
null,"<img src=""stim_listB/touch4.gif""style=""height:400px;""></stim_listB>",,html-keyboard-response,368,1192983,0.0-17.0-1.15,88038,List1B,white,woman,,,,null,,,,
null,are touching each other,,html-keyboard-response,369,1194985,0.0-17.0-2.15,88038,List1B,white,woman,,,,null,,,,
7452,,,survey-text,370,1202440,0.0-17.0-3.15,88038,List1B,white,woman,,,,,"{""Q0"":""luke and ruth""}","<img src=""stim_listB/touch4.gif""style=""height:400px;""></stim_listB>",are touching each other,
null,"<div style=""font-size:60px;"">+</div>",,html-keyboard-response,371,1202942,0.0-17.0-0.16,88038,List1B,white,woman,,,,null,,,,
null,"<img src=""stim_listB/kiss5.gif""style=""height:400px;""></stim_listB>",,html-keyboard-response,372,1204946,0.0-17.0-1.16,88038,List1B,white,woman,,,,null,,,,
null,is kissing,,html-keyboard-response,373,1206950,0.0-17.0-2.16,88038,List1B,white,woman,,,,null,,,,
11692,,,survey-text,374,1218643,0.0-17.0-3.16,88038,List1B,white,woman,,,,,"{""Q0"":""mike and luke""}","<img src=""stim_listB/kiss5.gif""style=""height:400px;""></stim_listB>",is kissing,
null,"<div style=""font-size:60px;"">+</div>",,html-keyboard-response,375,1219146,0.0-17.0-0.17,88038,List1B,white,woman,,,,null,,,,
null,"<img src=""stim_listB/kiss2.gif""style=""height:400px;""></stim_listB>",,html-keyboard-response,376,1221150,0.0-17.0-1.17,88038,List1B,white,woman,,,,null,,,,
null,are kissing each other,,html-keyboard-response,377,1223152,0.0-17.0-2.17,88038,List1B,white,woman,,,,null,,,,
7298,,,survey-text,378,1230452,0.0-17.0-3.17,88038,List1B,white,woman,,,,,"{""Q0"":""mike and luke""}","<img src=""stim_listB/kiss2.gif""style=""height:400px;""></stim_listB>",are kissing each other,
null,"<div style=""font-size:60px;"">+</div>",,html-keyboard-response,379,1230954,0.0-17.0-0.18,88038,List1B,white,woman,,,,null,,,,
null,"<img src=""stim_listB/touch1.gif""style=""height:400px;""></stim_listB>",,html-keyboard-response,380,1232959,0.0-17.0-1.18,88038,List1B,white,woman,,,,null,,,,
null,is touching,,html-keyboard-response,381,1234962,0.0-17.0-2.18,88038,List1B,white,woman,,,,null,,,,
4922,,,survey-text,382,1239885,0.0-17.0-3.18,88038,List1B,white,woman,,,,,"{""Q0"":""mike and kate ""}","<img src=""stim_listB/touch1.gif""style=""height:400px;""></stim_listB>",is touching,
null,"<div style=""font-size:60px;"">+</div>",,html-keyboard-response,383,1240387,0.0-17.0-0.19,88038,List1B,white,woman,,,,null,,,,
null,"<img src=""stim_listB/play8.gif""style=""height:400px;""></stim_listB>",,html-keyboard-response,384,1242391,0.0-17.0-1.19,88038,List1B,white,woman,,,,null,,,,
null,are playing with each other,,html-keyboard-response,385,1244393,0.0-17.0-2.19,88038,List1B,white,woman,,,,null,,,,
5554,,,survey-text,386,1249948,0.0-17.0-3.19,88038,List1B,white,woman,,,,,"{""Q0"":""beth and ruth""}","<img src=""stim_listB/play8.gif""style=""height:400px;""></stim_listB>",are playing with each other,
4274,"<img src='img/portrait_matrix_list1.jpg' style='width:900px;height:500px;''></img><p>If you have memorised all the portraits and names and are ready to start, press Continue.</p><p><strong>Please note: Your memory of these faces will be tested 4 times during this experiment.</strong></p>",0,html-button-response,387,1254224,0.0-18.0-0.0,88038,List1B,white,woman,,,,,,,,
1945,"<img src=""portrait/BM2.jpg""style=""height:400px;""></img>",5,html-button-response,388,1257171,0.0-18.0-1.0,88038,List1B,white,woman,,TRUE,5,,,,,
null,CORRECT,,html-keyboard-response,389,1258675,0.0-18.0-2.0-0.0,88038,List1B,white,woman,,,,null,,,,
3312,"<img src=""portrait/BW1.jpg""style=""height:400px;""></img>",0,html-button-response,390,1261989,0.0-18.0-4.0,88038,List1B,white,woman,,TRUE,0,,,,,
null,CORRECT,,html-keyboard-response,391,1263493,0.0-18.0-5.0-0.0,88038,List1B,white,woman,,,,null,,,,
1266,"<img src=""portrait/BM1.jpg""style=""height:400px;""></img>",4,html-button-response,392,1264762,0.0-18.0-7.0,88038,List1B,white,woman,,TRUE,4,,,,,
null,CORRECT,,html-keyboard-response,393,1266266,0.0-18.0-8.0-0.0,88038,List1B,white,woman,,,,null,,,,
5365,"<img src=""portrait/BW2.jpg""style=""height:400px;""></img>",2,html-button-response,394,1271634,0.0-18.0-10.0,88038,List1B,white,woman,,TRUE,2,,,,,
null,CORRECT,,html-keyboard-response,395,1273138,0.0-18.0-11.0-0.0,88038,List1B,white,woman,,,,null,,,,
1770,"<img src=""portrait/WM1.jpg""style=""height:400px;""></img>",6,html-button-response,396,1274911,0.0-18.0-13.0,88038,List1B,white,woman,,TRUE,6,,,,,
null,CORRECT,,html-keyboard-response,397,1276415,0.0-18.0-14.0-0.0,88038,List1B,white,woman,,,,null,,,,
1721,"<img src=""portrait/WM2.jpg""style=""height:400px;""></img>",7,html-button-response,398,1278139,0.0-18.0-16.0,88038,List1B,white,woman,,TRUE,7,,,,,
null,CORRECT,,html-keyboard-response,399,1279641,0.0-18.0-17.0-0.0,88038,List1B,white,woman,,,,null,,,,
2586,"<img src=""portrait/WW1.jpg""style=""height:400px;""></img>",1,html-button-response,400,1282229,0.0-18.0-19.0,88038,List1B,white,woman,,TRUE,1,,,,,
null,CORRECT,,html-keyboard-response,401,1283734,0.0-18.0-20.0-0.0,88038,List1B,white,woman,,,,null,,,,
1770,"<img src=""portrait/WW2.jpg""style=""height:400px;""></img>",3,html-button-response,402,1285506,0.0-18.0-22.0,88038,List1B,white,woman,,TRUE,3,,,,,
null,CORRECT,,html-keyboard-response,403,1287010,0.0-18.0-23.0-0.0,88038,List1B,white,woman,,,,null,,,,
1401,<p>You got 8 out of 8 right first time. Press Continue.</p>,0,html-button-response,404,1288413,0.0-18.0-25.0,88038,List1B,white,woman,,,,,,,,
null,"<div style=""font-size:60px;"">+</div>",,html-keyboard-response,405,1289918,0.0-19.0-0.0,88038,List1B,white,woman,,,,null,,,,
null,"<img src=""stim_listB/shout2.gif""style=""height:400px;""></stim_listB>",,html-keyboard-response,406,1291922,0.0-19.0-1.0,88038,List1B,white,woman,,,,null,,,,
null,are shouting at each other,,html-keyboard-response,407,1293924,0.0-19.0-2.0,88038,List1B,white,woman,,,,null,,,,
7042,,,survey-text,408,1300967,0.0-19.0-3.0,88038,List1B,white,woman,,,,,"{""Q0"":""mike and kate""}","<img src=""stim_listB/shout2.gif""style=""height:400px;""></stim_listB>",are shouting at each other,
null,"<div style=""font-size:60px;"">+</div>",,html-keyboard-response,409,1301469,0.0-19.0-0.1,88038,List1B,white,woman,,,,null,,,,
null,"<img src=""stim_listB/touch3.gif""style=""height:400px;""></stim_listB>",,html-keyboard-response,410,1303473,0.0-19.0-1.1,88038,List1B,white,woman,,,,null,,,,
null,is touching,,html-keyboard-response,411,1305475,0.0-19.0-2.1,88038,List1B,white,woman,,,,null,,,,
7298,,,survey-text,412,1312775,0.0-19.0-3.1,88038,List1B,white,woman,,,,,"{""Q0"":""dave and jane""}","<img src=""stim_listB/touch3.gif""style=""height:400px;""></stim_listB>",is touching,
null,"<div style=""font-size:60px;"">+</div>",,html-keyboard-response,413,1313277,0.0-19.0-0.2,88038,List1B,white,woman,,,,null,,,,
null,"<img src=""stim_listB/dance1.gif""style=""height:400px;""></stim_listB>",,html-keyboard-response,414,1315281,0.0-19.0-1.2,88038,List1B,white,woman,,,,null,,,,
null,is dancing with,,html-keyboard-response,415,1317284,0.0-19.0-2.2,88038,List1B,white,woman,,,,null,,,,
7288,,,survey-text,416,1324574,0.0-19.0-3.2,88038,List1B,white,woman,,,,,"{""Q0"":""kate and dave""}","<img src=""stim_listB/dance1.gif""style=""height:400px;""></stim_listB>",is dancing with,
null,"<div style=""font-size:60px;"">+</div>",,html-keyboard-response,417,1325076,0.0-19.0-0.3,88038,List1B,white,woman,,,,null,,,,
null,"<img src=""stim_listB/fight8.gif""style=""height:400px;""></stim_listB>",,html-keyboard-response,418,1327080,0.0-19.0-1.3,88038,List1B,white,woman,,,,null,,,,
null,are fighting each other,,html-keyboard-response,419,1329082,0.0-19.0-2.3,88038,List1B,white,woman,,,,null,,,,
11645,,,survey-text,420,1340730,0.0-19.0-3.3,88038,List1B,white,woman,,,,,"{""Q0"":""jane and beth""}","<img src=""stim_listB/fight8.gif""style=""height:400px;""></stim_listB>",are fighting each other,
null,"<div style=""font-size:60px;"">+</div>",,html-keyboard-response,421,1341231,0.0-19.0-0.4,88038,List1B,white,woman,,,,null,,,,
null,"<img src=""stim_listB/fight5.gif""style=""height:400px;""></stim_listB>",,html-keyboard-response,422,1343236,0.0-19.0-1.4,88038,List1B,white,woman,,,,null,,,,
null,is fighting,,html-keyboard-response,423,1345238,0.0-19.0-2.4,88038,List1B,white,woman,,,,null,,,,
5832,,,survey-text,424,1351073,0.0-19.0-3.4,88038,List1B,white,woman,,,,,"{""Q0"":""mike and dave ""}","<img src=""stim_listB/fight5.gif""style=""height:400px;""></stim_listB>",is fighting,
null,"<div style=""font-size:60px;"">+</div>",,html-keyboard-response,425,1351576,0.0-19.0-0.5,88038,List1B,white,woman,,,,null,,,,
null,"<img src=""stim_listB/shout6.gif""style=""height:400px;""></stim_listB>",,html-keyboard-response,426,1353580,0.0-19.0-1.5,88038,List1B,white,woman,,,,null,,,,
null,are shouting at each other,,html-keyboard-response,427,1355582,0.0-19.0-2.5,88038,List1B,white,woman,,,,null,,,,
5212,,,survey-text,428,1360796,0.0-19.0-3.5,88038,List1B,white,woman,,,,,"{""Q0"":""mike and dave""}","<img src=""stim_listB/shout6.gif""style=""height:400px;""></stim_listB>",are shouting at each other,
null,"<div style=""font-size:60px;"">+</div>",,html-keyboard-response,429,1361297,0.0-19.0-0.6,88038,List1B,white,woman,,,,null,,,,
null,"<img src=""stim_listB/flirt2.gif""style=""height:400px;""></stim_listB>",,html-keyboard-response,430,1363301,0.0-19.0-1.6,88038,List1B,white,woman,,,,null,,,,
null,are flirting with each other,,html-keyboard-response,431,1365304,0.0-19.0-2.6,88038,List1B,white,woman,,,,null,,,,
13048,,,survey-text,432,1378357,0.0-19.0-3.6,88038,List1B,white,woman,,,,,"{""Q0"":""mike and beth""}","<img src=""stim_listB/flirt2.gif""style=""height:400px;""></stim_listB>",are flirting with each other,
null,"<div style=""font-size:60px;"">+</div>",,html-keyboard-response,433,1378858,0.0-19.0-0.7,88038,List1B,white,woman,,,,null,,,,
null,"<img src=""stim_listB/marry2.gif""style=""height:400px;""></stim_listB>",,html-keyboard-response,434,1380863,0.0-19.0-1.7,88038,List1B,white,woman,,,,null,,,,
null,are marrying each other,,html-keyboard-response,435,1382866,0.0-19.0-2.7,88038,List1B,white,woman,,,,null,,,,
6240,,,survey-text,436,1389108,0.0-19.0-3.7,88038,List1B,white,woman,,,,,"{""Q0"":""mike and kate""}","<img src=""stim_listB/marry2.gif""style=""height:400px;""></stim_listB>",are marrying each other,
null,"<div style=""font-size:60px;"">+</div>",,html-keyboard-response,437,1389610,0.0-19.0-0.8,88038,List1B,white,woman,,,,null,,,,
null,"<img src=""stim_listB/shout8.gif""style=""height:400px;""></stim_listB>",,html-keyboard-response,438,1391614,0.0-19.0-1.8,88038,List1B,white,woman,,,,null,,,,
null,are shouting at each other,,html-keyboard-response,439,1393616,0.0-19.0-2.8,88038,List1B,white,woman,,,,null,,,,
6309,,,survey-text,440,1399926,0.0-19.0-3.8,88038,List1B,white,woman,,,,,"{""Q0"":""kate and jane ""}","<img src=""stim_listB/shout8.gif""style=""height:400px;""></stim_listB>",are shouting at each other,
null,"<div style=""font-size:60px;"">+</div>",,html-keyboard-response,441,1400429,0.0-19.0-0.9,88038,List1B,white,woman,,,,null,,,,
null,"<img src=""stim_listB/argue7.gif""style=""height:400px;""></stim_listB>",,html-keyboard-response,442,1402433,0.0-19.0-1.9,88038,List1B,white,woman,,,,null,,,,
null,is arguing with,,html-keyboard-response,443,1404436,0.0-19.0-2.9,88038,List1B,white,woman,,,,null,,,,
23258,,,survey-text,444,1427696,0.0-19.0-3.9,88038,List1B,white,woman,,,,,"{""Q0"":""kate and jane""}","<img src=""stim_listB/argue7.gif""style=""height:400px;""></stim_listB>",is arguing with,
null,"<div style=""font-size:60px;"">+</div>",,html-keyboard-response,445,1428198,0.0-19.0-0.10,88038,List1B,white,woman,,,,null,,,,
null,"<img src=""stim_listB/dance8.gif""style=""height:400px;""></stim_listB>",,html-keyboard-response,446,1430203,0.0-19.0-1.10,88038,List1B,white,woman,,,,null,,,,
null,are dancing with each other,,html-keyboard-response,447,1432205,0.0-19.0-2.10,88038,List1B,white,woman,,,,null,,,,
4914,,,survey-text,448,1437121,0.0-19.0-3.10,88038,List1B,white,woman,,,,,"{""Q0"":""kate and ruth""}","<img src=""stim_listB/dance8.gif""style=""height:400px;""></stim_listB>",are dancing with each other,
null,"<div style=""font-size:60px;"">+</div>",,html-keyboard-response,449,1437622,0.0-19.0-0.11,88038,List1B,white,woman,,,,null,,,,
null,"<img src=""stim_listB/argue6.gif""style=""height:400px;""></stim_listB>",,html-keyboard-response,450,1439628,0.0-19.0-1.11,88038,List1B,white,woman,,,,null,,,,
null,are arguing with each other,,html-keyboard-response,451,1441629,0.0-19.0-2.11,88038,List1B,white,woman,,,,null,,,,
8268,,,survey-text,452,1449898,0.0-19.0-3.11,88038,List1B,white,woman,,,,,"{""Q0"":""dave and mike""}","<img src=""stim_listB/argue6.gif""style=""height:400px;""></stim_listB>",are arguing with each other,
null,"<div style=""font-size:60px;"">+</div>",,html-keyboard-response,453,1450401,0.0-19.0-0.12,88038,List1B,white,woman,,,,null,,,,
null,"<img src=""stim_listB/flirt1.gif""style=""height:400px;""></stim_listB>",,html-keyboard-response,454,1452405,0.0-19.0-1.12,88038,List1B,white,woman,,,,null,,,,
null,is flirting with,,html-keyboard-response,455,1454408,0.0-19.0-2.12,88038,List1B,white,woman,,,,null,,,,
13135,,,survey-text,456,1467544,0.0-19.0-3.12,88038,List1B,white,woman,,,,,"{""Q0"":""mike and kate""}","<img src=""stim_listB/flirt1.gif""style=""height:400px;""></stim_listB>",is flirting with,
null,"<div style=""font-size:60px;"">+</div>",,html-keyboard-response,457,1468047,0.0-19.0-0.13,88038,List1B,white,woman,,,,null,,,,
null,"<img src=""stim_listB/touch7.gif""style=""height:400px;""></stim_listB>",,html-keyboard-response,458,1470050,0.0-19.0-1.13,88038,List1B,white,woman,,,,null,,,,
null,is touching,,html-keyboard-response,459,1472052,0.0-19.0-2.13,88038,List1B,white,woman,,,,null,,,,
11681,,,survey-text,460,1483735,0.0-19.0-3.13,88038,List1B,white,woman,,,,,"{""Q0"":""kate and jane""}","<img src=""stim_listB/touch7.gif""style=""height:400px;""></stim_listB>",is touching,
null,"<div style=""font-size:60px;"">+</div>",,html-keyboard-response,461,1484237,0.0-19.0-0.14,88038,List1B,white,woman,,,,null,,,,
null,"<img src=""stim_listB/kiss6.gif""style=""height:400px;""></stim_listB>",,html-keyboard-response,462,1486242,0.0-19.0-1.14,88038,List1B,white,woman,,,,null,,,,
null,are kissing each other,,html-keyboard-response,463,1488244,0.0-19.0-2.14,88038,List1B,white,woman,,,,null,,,,
15370,,,survey-text,464,1503616,0.0-19.0-3.14,88038,List1B,white,woman,,,,,"{""Q0"":""mike and dave""}","<img src=""stim_listB/kiss6.gif""style=""height:400px;""></stim_listB>",are kissing each other,
null,"<div style=""font-size:60px;"">+</div>",,html-keyboard-response,465,1504118,0.0-19.0-0.15,88038,List1B,white,woman,,,,null,,,,
null,"<img src=""stim_listB/fight7.gif""style=""height:400px;""></stim_listB>",,html-keyboard-response,466,1506122,0.0-19.0-1.15,88038,List1B,white,woman,,,,null,,,,
null,is fighting,,html-keyboard-response,467,1508125,0.0-19.0-2.15,88038,List1B,white,woman,,,,null,,,,
13756,,,survey-text,468,1521884,0.0-19.0-3.15,88038,List1B,white,woman,,,,,"{""Q0"":""kate and mike""}","<img src=""stim_listB/fight7.gif""style=""height:400px;""></stim_listB>",is fighting,
null,"<div style=""font-size:60px;"">+</div>",,html-keyboard-response,469,1522386,0.0-19.0-0.16,88038,List1B,white,woman,,,,null,,,,
null,"<img src=""stim_listB/play3.gif""style=""height:400px;""></stim_listB>",,html-keyboard-response,470,1524389,0.0-19.0-1.16,88038,List1B,white,woman,,,,null,,,,
null,is playing with,,html-keyboard-response,471,1526391,0.0-19.0-2.16,88038,List1B,white,woman,,,,null,,,,
10073,,,survey-text,472,1536465,0.0-19.0-3.16,88038,List1B,white,woman,,,,,"{""Q0"":""dave and mike""}","<img src=""stim_listB/play3.gif""style=""height:400px;""></stim_listB>",is playing with,
null,"<div style=""font-size:60px;"">+</div>",,html-keyboard-response,473,1536967,0.0-19.0-0.17,88038,List1B,white,woman,,,,null,,,,
null,"<img src=""stim_listB/fight2.gif""style=""height:400px;""></stim_listB>",,html-keyboard-response,474,1538971,0.0-19.0-1.17,88038,List1B,white,woman,,,,null,,,,
null,are fighting each other,,html-keyboard-response,475,1540973,0.0-19.0-2.17,88038,List1B,white,woman,,,,null,,,,
5697,,,survey-text,476,1546672,0.0-19.0-3.17,88038,List1B,white,woman,,,,,"{""Q0"":""dave and mike""}","<img src=""stim_listB/fight2.gif""style=""height:400px;""></stim_listB>",are fighting each other,
null,"<div style=""font-size:60px;"">+</div>",,html-keyboard-response,477,1547174,0.0-19.0-0.18,88038,List1B,white,woman,,,,null,,,,
null,"<img src=""stim_listB/argue1.gif""style=""height:400px;""></stim_listB>",,html-keyboard-response,478,1549179,0.0-19.0-1.18,88038,List1B,white,woman,,,,null,,,,
null,is arguing with,,html-keyboard-response,479,1551182,0.0-19.0-2.18,88038,List1B,white,woman,,,,null,,,,
4541,,,survey-text,480,1555725,0.0-19.0-3.18,88038,List1B,white,woman,,,,,"{""Q0"":""mike and beth""}","<img src=""stim_listB/argue1.gif""style=""height:400px;""></stim_listB>",is arguing with,
null,"<div style=""font-size:60px;"">+</div>",,html-keyboard-response,481,1556228,0.0-19.0-0.19,88038,List1B,white,woman,,,,null,,,,
null,"<img src=""stim_listB/kiss7.gif""style=""height:400px;""></stim_listB>",,html-keyboard-response,482,1558233,0.0-19.0-1.19,88038,List1B,white,woman,,,,null,,,,
null,is kissing,,html-keyboard-response,483,1560235,0.0-19.0-2.19,88038,List1B,white,woman,,,,null,,,,
10256,,,survey-text,484,1570493,0.0-19.0-3.19,88038,List1B,white,woman,,,,,"{""Q0"":""jane and beth""}","<img src=""stim_listB/kiss7.gif""style=""height:400px;""></stim_listB>",is kissing,
7,<p>Thank you for completing that task.</p><p>The final part of this session is a short questionnaire.</p><p>Press Continue.</p>,0,html-button-response,485,1570501,0.0-20.0,88038,List1B,white,woman,,,,,,,,
36982,,,survey-text,486,1608488,0.0-21.0,88038,List1B,white,woman,,,,,"{""Q0"":""20"",""Q1"":""English"",""Q2"":""english"",""Q3"":""england"",""Q4"":""white"",""Q5"":""female""}",,,demographics
6793,,,survey-likert,487,1615284,0.0-22.0,88038,List1B,white,woman,,,,,"{""Q0"":4}",,,likert_ESS
3235,,,survey-likert,488,1618521,0.0-23.0,88038,List1B,white,woman,,,,,"{""Q0"":4}",,,likert_NSSAL_Q1
3856,,,survey-likert,489,1622379,0.0-24.0,88038,List1B,white,woman,,,,,"{""Q0"":4}",,,likert_NSSAL_Q2
3672,,,survey-likert,490,1626053,0.0-25.0,88038,List1B,white,woman,,,,,"{""Q0"":4}",,,likert_CGRS_Q1
3362,,,survey-likert,491,1629416,0.0-26.0,88038,List1B,white,woman,,,,,"{""Q0"":4}",,,likert_CGRS_Q2
2091,,,survey-likert,492,1631510,0.0-27.0,88038,List1B,white,woman,,,,,"{""Q0"":4}",,,likert_CGRS_Q3
5804,,,survey-text,493,1637316,0.0-28.0,88038,List1B,white,woman,,,,,"{""Q0"":""ccc""}",,,worker_id
3217,,,external-html,494,1640592,0.0-29.0,88038,List1B,white,woman,debrief.html,,,,,,,
