rt,stimulus,button_pressed,trial_type,trial_index,time_elapsed,internal_node_id,subject,list,ppt_race,ppt_gender,url,first_guess,correct,key_press,responses,image_type,phrase_type,test_part
2321,Welcome to the experiment. Press Continue to begin.,0,html-button-response,0,2329,0.0-0.0,89020,List2B,black,woman,,,,,,,,
61534,,,external-html,1,65240,0.0-1.0,89020,List2B,black,woman,consent.html,,,,,,,
60504,"<p>On the next page, you will see portraits of 8 people and their names.</p><p>Your first task is to take a few minutes to memorise the names of these people.</p><p>You will have to recall their names during the rest of the experiment, so it is</p><p>essential that you try to memorise these people and their names as best as you can.</p><br><p><strong>You will then be tested on your memory of these names and portraits.</strong></p><br><p>The experiment will start after you have completed this memory test.</p><br><p>Ready?</p>",0,html-button-response,2,125747,0.0-2.0,89020,List2B,black,woman,,,,,,,,
147574,"<img src='img/portrait_matrix_list2.jpg' style='width:900px;height:500px;''></img><p>If you have memorised all the portraits and names and are ready to start, press Continue.</p><p><strong>Please note: Your memory of these faces will be tested 4 times during this experiment.</strong></p>",0,html-button-response,3,274326,0.0-3.0-0.0,89020,List2B,black,woman,,,,,,,,
3589,"<img src=""portrait/BM2.jpg""style=""height:400px;""></img>",5,html-button-response,4,278921,0.0-3.0-1.0,89020,List2B,black,woman,,TRUE,5,,,,,
null,CORRECT,,html-keyboard-response,5,280428,0.0-3.0-2.0-0.0,89020,List2B,black,woman,,,,null,,,,
3467,"<img src=""portrait/WM2.jpg""style=""height:400px;""></img>",7,html-button-response,6,283898,0.0-3.0-4.0,89020,List2B,black,woman,,TRUE,7,,,,,
null,CORRECT,,html-keyboard-response,7,285402,0.0-3.0-5.0-0.0,89020,List2B,black,woman,,,,null,,,,
2547,"<img src=""portrait/WW2.jpg""style=""height:400px;""></img>",3,html-button-response,8,287953,0.0-3.0-7.0,89020,List2B,black,woman,,TRUE,3,,,,,
null,CORRECT,,html-keyboard-response,9,289459,0.0-3.0-8.0-0.0,89020,List2B,black,woman,,,,null,,,,
22096,"<img src=""portrait/WW1.jpg""style=""height:400px;""></img>",1,html-button-response,10,311559,0.0-3.0-10.0,89020,List2B,black,woman,,TRUE,1,,,,,
null,CORRECT,,html-keyboard-response,11,313061,0.0-3.0-11.0-0.0,89020,List2B,black,woman,,,,null,,,,
12176,"<img src=""portrait/BW2.jpg""style=""height:400px;""></img>",2,html-button-response,12,325239,0.0-3.0-13.0,89020,List2B,black,woman,,TRUE,2,,,,,
null,CORRECT,,html-keyboard-response,13,326745,0.0-3.0-14.0-0.0,89020,List2B,black,woman,,,,null,,,,
11111,"<img src=""portrait/BM1.jpg""style=""height:400px;""></img>",4,html-button-response,14,337860,0.0-3.0-16.0,89020,List2B,black,woman,,TRUE,4,,,,,
null,CORRECT,,html-keyboard-response,15,339363,0.0-3.0-17.0-0.0,89020,List2B,black,woman,,,,null,,,,
4051,"<img src=""portrait/WM1.jpg""style=""height:400px;""></img>",6,html-button-response,16,343419,0.0-3.0-19.0,89020,List2B,black,woman,,TRUE,6,,,,,
null,CORRECT,,html-keyboard-response,17,344923,0.0-3.0-20.0-0.0,89020,List2B,black,woman,,,,null,,,,
4302,"<img src=""portrait/BW1.jpg""style=""height:400px;""></img>",0,html-button-response,18,349228,0.0-3.0-22.0,89020,List2B,black,woman,,TRUE,0,,,,,
null,CORRECT,,html-keyboard-response,19,350732,0.0-3.0-23.0-0.0,89020,List2B,black,woman,,,,null,,,,
2131,<p>You got 8 out of 8 right first time. Press Continue.</p>,0,html-button-response,20,352864,0.0-3.0-25.0,89020,List2B,black,woman,,,,,,,,
53884,"<p>In this experiment, you will view photographs of the people from the memory game interacting.</p><p>By using the <strong>exact</strong> phrase given <i>after</i> the photograph appears and recalling the correct names of the people in the photographs, form a sentence describing the interaction. You do not need to capitalise names.</p><p>Type your answer in the space provided. Please complete every sentence before moving onto the next trial.</p><p>You will only have a few seconds to memorise each given photograph and phrase before you can respond, so try your best to focus.</p><p>An example is given below. Press 'Continue' when you are ready.</p><img src='img/speaking_example.jpg' style='width:800px;height:460px;''></img>",0,html-button-response,21,407755,0.0-4.0,89020,List2B,black,woman,,,,,,,,
4255,"<p>Before the experiment starts, you will watch two example trials. Press 'Continue'.</p>",0,html-button-response,22,413012,0.0-5.0,89020,List2B,black,woman,,,,,,,,
null,<img src='img/meet_eg.gif' style='height:400px;''></img>,,html-keyboard-response,23,416018,0.0-6.0,89020,List2B,black,woman,,,,null,,,,
null,<p>is meeting</p>,,html-keyboard-response,24,418019,0.0-7.0,89020,List2B,black,woman,,,,null,,,,
9282,<p><b>Answer:</b> jane is meeting ruth</p>,0,html-button-response,25,427302,0.0-8.0,89020,List2B,black,woman,,,,,,,,
null,<img src='img/look_eg.gif' style='height:400px;''></img>,,html-keyboard-response,26,430308,0.0-9.0,89020,List2B,black,woman,,,,null,,,,
null,<p>are looking at each other</p>,,html-keyboard-response,27,432311,0.0-10.0,89020,List2B,black,woman,,,,null,,,,
5074,<p><b>Answer:</b> fred and mike are looking at each other</p>,0,html-button-response,28,437386,0.0-11.0,89020,List2B,black,woman,,,,,,,,
10146,"<p>Ready to start the experiment?</p><br><p><strong>Remember to describe the picture using a full sentence,</strong></p><p><strong>that combines the names of the people with the <i>exact</i> phrase given.</strong></p><p><strong>To receive full payment you must do this correctly.</strong></p><p><strong> You do not need to capitalise names or use punctuation.</strong></p><br><p>Press 'Continue' to begin.</p>",0,html-button-response,29,448536,0.0-12.0,89020,List2B,black,woman,,,,,,,,
null,"<div style=""font-size:60px;"">+</div>",,html-keyboard-response,30,450041,0.0-13.0-0.0,89020,List2B,black,woman,,,,null,,,,
null,"<img src=""stim_listB/argue3.gif""style=""height:400px;""></stim_listB>",,html-keyboard-response,31,452046,0.0-13.0-1.0,89020,List2B,black,woman,,,,null,,,,
null,is arguing with,,html-keyboard-response,32,454048,0.0-13.0-2.0,89020,List2B,black,woman,,,,null,,,,
41323,,,survey-text,33,495374,0.0-13.0-3.0,89020,List2B,black,woman,,,,,"{""Q0"":""mike is talking to beth""}","<img src=""stim_listB/argue3.gif""style=""height:400px;""></stim_listB>",is arguing with,
null,"<div style=""font-size:60px;"">+</div>",,html-keyboard-response,34,495878,0.0-13.0-0.1,89020,List2B,black,woman,,,,null,,,,
null,"<img src=""stim_listB/dance2.gif""style=""height:400px;""></stim_listB>",,html-keyboard-response,35,497879,0.0-13.0-1.1,89020,List2B,black,woman,,,,null,,,,
null,are dancing with each other,,html-keyboard-response,36,499881,0.0-13.0-2.1,89020,List2B,black,woman,,,,null,,,,
33119,,,survey-text,37,533001,0.0-13.0-3.1,89020,List2B,black,woman,,,,,"{""Q0"":"" luke and ruth are dancing with each other""}","<img src=""stim_listB/dance2.gif""style=""height:400px;""></stim_listB>",are dancing with each other,
null,"<div style=""font-size:60px;"">+</div>",,html-keyboard-response,38,533505,0.0-13.0-0.2,89020,List2B,black,woman,,,,null,,,,
null,"<img src=""stim_listB/flirt1.gif""style=""height:400px;""></stim_listB>",,html-keyboard-response,39,535506,0.0-13.0-1.2,89020,List2B,black,woman,,,,null,,,,
null,is flirting with,,html-keyboard-response,40,537508,0.0-13.0-2.2,89020,List2B,black,woman,,,,null,,,,
33876,,,survey-text,41,571387,0.0-13.0-3.2,89020,List2B,black,woman,,,,,"{""Q0"":""luke is flirting with jane""}","<img src=""stim_listB/flirt1.gif""style=""height:400px;""></stim_listB>",is flirting with,
null,"<div style=""font-size:60px;"">+</div>",,html-keyboard-response,42,571891,0.0-13.0-0.3,89020,List2B,black,woman,,,,null,,,,
null,"<img src=""stim_listB/play3.gif""style=""height:400px;""></stim_listB>",,html-keyboard-response,43,573893,0.0-13.0-1.3,89020,List2B,black,woman,,,,null,,,,
null,is playing with,,html-keyboard-response,44,575894,0.0-13.0-2.3,89020,List2B,black,woman,,,,null,,,,
33204,,,survey-text,45,609100,0.0-13.0-3.3,89020,List2B,black,woman,,,,,"{""Q0"":""kate is playing with luke""}","<img src=""stim_listB/play3.gif""style=""height:400px;""></stim_listB>",is playing with,
null,"<div style=""font-size:60px;"">+</div>",,html-keyboard-response,46,609604,0.0-13.0-0.4,89020,List2B,black,woman,,,,null,,,,
null,"<img src=""stim_listB/marry8.gif""style=""height:400px;""></stim_listB>",,html-keyboard-response,47,611607,0.0-13.0-1.4,89020,List2B,black,woman,,,,null,,,,
null,are marrying each other,,html-keyboard-response,48,613610,0.0-13.0-2.4,89020,List2B,black,woman,,,,null,,,,
34050,,,survey-text,49,647660,0.0-13.0-3.4,89020,List2B,black,woman,,,,,"{""Q0"":""ruth and kate are marrying each other ""}","<img src=""stim_listB/marry8.gif""style=""height:400px;""></stim_listB>",are marrying each other,
null,"<div style=""font-size:60px;"">+</div>",,html-keyboard-response,50,648164,0.0-13.0-0.5,89020,List2B,black,woman,,,,null,,,,
null,"<img src=""stim_listB/dance7.gif""style=""height:400px;""></stim_listB>",,html-keyboard-response,51,650167,0.0-13.0-1.5,89020,List2B,black,woman,,,,null,,,,
null,is dancing with,,html-keyboard-response,52,652168,0.0-13.0-2.5,89020,List2B,black,woman,,,,null,,,,
31673,,,survey-text,53,683843,0.0-13.0-3.5,89020,List2B,black,woman,,,,,"{""Q0"":""ruth is dancing with kate""}","<img src=""stim_listB/dance7.gif""style=""height:400px;""></stim_listB>",is dancing with,
null,"<div style=""font-size:60px;"">+</div>",,html-keyboard-response,54,684346,0.0-13.0-0.6,89020,List2B,black,woman,,,,null,,,,
null,"<img src=""stim_listB/dance6.gif""style=""height:400px;""></stim_listB>",,html-keyboard-response,55,686348,0.0-13.0-1.6,89020,List2B,black,woman,,,,null,,,,
null,are dancing with each other,,html-keyboard-response,56,688350,0.0-13.0-2.6,89020,List2B,black,woman,,,,null,,,,
30913,,,survey-text,57,719265,0.0-13.0-3.6,89020,List2B,black,woman,,,,,"{""Q0"":""fred and dave are dancing with each other""}","<img src=""stim_listB/dance6.gif""style=""height:400px;""></stim_listB>",are dancing with each other,
null,"<div style=""font-size:60px;"">+</div>",,html-keyboard-response,58,719766,0.0-13.0-0.7,89020,List2B,black,woman,,,,null,,,,
null,"<img src=""stim_listB/talk2.gif""style=""height:400px;""></stim_listB>",,html-keyboard-response,59,721768,0.0-13.0-1.7,89020,List2B,black,woman,,,,null,,,,
null,are talking to each other,,html-keyboard-response,60,723769,0.0-13.0-2.7,89020,List2B,black,woman,,,,null,,,,
30597,,,survey-text,61,754368,0.0-13.0-3.7,89020,List2B,black,woman,,,,,"{""Q0"":""ruth and dave are talking to each other ""}","<img src=""stim_listB/talk2.gif""style=""height:400px;""></stim_listB>",are talking to each other,
null,"<div style=""font-size:60px;"">+</div>",,html-keyboard-response,62,754871,0.0-13.0-0.8,89020,List2B,black,woman,,,,null,,,,
null,"<img src=""stim_listB/marry1.gif""style=""height:400px;""></stim_listB>",,html-keyboard-response,63,756872,0.0-13.0-1.8,89020,List2B,black,woman,,,,null,,,,
null,is marrying,,html-keyboard-response,64,758875,0.0-13.0-2.8,89020,List2B,black,woman,,,,null,,,,
23349,,,survey-text,65,782225,0.0-13.0-3.8,89020,List2B,black,woman,,,,,"{""Q0"":""dave is marrying ruth""}","<img src=""stim_listB/marry1.gif""style=""height:400px;""></stim_listB>",is marrying,
null,"<div style=""font-size:60px;"">+</div>",,html-keyboard-response,66,782728,0.0-13.0-0.9,89020,List2B,black,woman,,,,null,,,,
null,"<img src=""stim_listB/touch4.gif""style=""height:400px;""></stim_listB>",,html-keyboard-response,67,784730,0.0-13.0-1.9,89020,List2B,black,woman,,,,null,,,,
null,are touching each other,,html-keyboard-response,68,786731,0.0-13.0-2.9,89020,List2B,black,woman,,,,null,,,,
29440,,,survey-text,69,816171,0.0-13.0-3.9,89020,List2B,black,woman,,,,,"{""Q0"":""beth and fred are touching each other""}","<img src=""stim_listB/touch4.gif""style=""height:400px;""></stim_listB>",are touching each other,
null,"<div style=""font-size:60px;"">+</div>",,html-keyboard-response,70,816673,0.0-13.0-0.10,89020,List2B,black,woman,,,,null,,,,
null,"<img src=""stim_listB/marry5.gif""style=""height:400px;""></stim_listB>",,html-keyboard-response,71,818676,0.0-13.0-1.10,89020,List2B,black,woman,,,,null,,,,
null,is marrying,,html-keyboard-response,72,820678,0.0-13.0-2.10,89020,List2B,black,woman,,,,null,,,,
18210,,,survey-text,73,838890,0.0-13.0-3.10,89020,List2B,black,woman,,,,,"{""Q0"":""dave is marrying fred""}","<img src=""stim_listB/marry5.gif""style=""height:400px;""></stim_listB>",is marrying,
null,"<div style=""font-size:60px;"">+</div>",,html-keyboard-response,74,839393,0.0-13.0-0.11,89020,List2B,black,woman,,,,null,,,,
null,"<img src=""stim_listB/touch1.gif""style=""height:400px;""></stim_listB>",,html-keyboard-response,75,841395,0.0-13.0-1.11,89020,List2B,black,woman,,,,null,,,,
null,is touching,,html-keyboard-response,76,843396,0.0-13.0-2.11,89020,List2B,black,woman,,,,null,,,,
35621,,,survey-text,77,879020,0.0-13.0-3.11,89020,List2B,black,woman,,,,,"{""Q0"":""dave and jane are touching""}","<img src=""stim_listB/touch1.gif""style=""height:400px;""></stim_listB>",is touching,
null,"<div style=""font-size:60px;"">+</div>",,html-keyboard-response,78,879524,0.0-13.0-0.12,89020,List2B,black,woman,,,,null,,,,
null,"<img src=""stim_listB/kiss5.gif""style=""height:400px;""></stim_listB>",,html-keyboard-response,79,881526,0.0-13.0-1.12,89020,List2B,black,woman,,,,null,,,,
null,is kissing,,html-keyboard-response,80,883528,0.0-13.0-2.12,89020,List2B,black,woman,,,,null,,,,
16437,,,survey-text,81,899966,0.0-13.0-3.12,89020,List2B,black,woman,,,,,"{""Q0"":""luke is kissing fred""}","<img src=""stim_listB/kiss5.gif""style=""height:400px;""></stim_listB>",is kissing,
null,"<div style=""font-size:60px;"">+</div>",,html-keyboard-response,82,900468,0.0-13.0-0.13,89020,List2B,black,woman,,,,null,,,,
null,"<img src=""stim_listB/talk1.gif""style=""height:400px;""></stim_listB>",,html-keyboard-response,83,902471,0.0-13.0-1.13,89020,List2B,black,woman,,,,null,,,,
null,is talking to,,html-keyboard-response,84,904473,0.0-13.0-2.13,89020,List2B,black,woman,,,,null,,,,
27593,,,survey-text,85,932066,0.0-13.0-3.13,89020,List2B,black,woman,,,,,"{""Q0"":""jane is talking to luke""}","<img src=""stim_listB/talk1.gif""style=""height:400px;""></stim_listB>",is talking to,
null,"<div style=""font-size:60px;"">+</div>",,html-keyboard-response,86,932568,0.0-13.0-0.14,89020,List2B,black,woman,,,,null,,,,
null,"<img src=""stim_listB/flirt3.gif""style=""height:400px;""></stim_listB>",,html-keyboard-response,87,934584,0.0-13.0-1.14,89020,List2B,black,woman,,,,null,,,,
null,is flirting with,,html-keyboard-response,88,936587,0.0-13.0-2.14,89020,List2B,black,woman,,,,null,,,,
30560,,,survey-text,89,967148,0.0-13.0-3.14,89020,List2B,black,woman,,,,,"{""Q0"":""kate is flirting with fred""}","<img src=""stim_listB/flirt3.gif""style=""height:400px;""></stim_listB>",is flirting with,
null,"<div style=""font-size:60px;"">+</div>",,html-keyboard-response,90,967653,0.0-13.0-0.15,89020,List2B,black,woman,,,,null,,,,
null,"<img src=""stim_listB/marry7.gif""style=""height:400px;""></stim_listB>",,html-keyboard-response,91,969655,0.0-13.0-1.15,89020,List2B,black,woman,,,,null,,,,
null,is marrying,,html-keyboard-response,92,971657,0.0-13.0-2.15,89020,List2B,black,woman,,,,null,,,,
24187,,,survey-text,93,995846,0.0-13.0-3.15,89020,List2B,black,woman,,,,,"{""Q0"":""kate is marrying ruth""}","<img src=""stim_listB/marry7.gif""style=""height:400px;""></stim_listB>",is marrying,
null,"<div style=""font-size:60px;"">+</div>",,html-keyboard-response,94,996347,0.0-13.0-0.16,89020,List2B,black,woman,,,,null,,,,
null,"<img src=""stim_listB/marry4.gif""style=""height:400px;""></stim_listB>",,html-keyboard-response,95,998351,0.0-13.0-1.16,89020,List2B,black,woman,,,,null,,,,
null,are marrying each other,,html-keyboard-response,96,1000351,0.0-13.0-2.16,89020,List2B,black,woman,,,,null,,,,
27434,,,survey-text,97,1027786,0.0-13.0-3.16,89020,List2B,black,woman,,,,,"{""Q0"":""kate and fred are marrying each other""}","<img src=""stim_listB/marry4.gif""style=""height:400px;""></stim_listB>",are marrying each other,
null,"<div style=""font-size:60px;"">+</div>",,html-keyboard-response,98,1028291,0.0-13.0-0.17,89020,List2B,black,woman,,,,null,,,,
null,"<img src=""stim_listB/flirt5.gif""style=""height:400px;""></stim_listB>",,html-keyboard-response,99,1030293,0.0-13.0-1.17,89020,List2B,black,woman,,,,null,,,,
null,is flirting with,,html-keyboard-response,100,1032294,0.0-13.0-2.17,89020,List2B,black,woman,,,,null,,,,
17516,,,survey-text,101,1049811,0.0-13.0-3.17,89020,List2B,black,woman,,,,,"{""Q0"":""luke is flirting with mike""}","<img src=""stim_listB/flirt5.gif""style=""height:400px;""></stim_listB>",is flirting with,
null,"<div style=""font-size:60px;"">+</div>",,html-keyboard-response,102,1050313,0.0-13.0-0.18,89020,List2B,black,woman,,,,null,,,,
null,"<img src=""stim_listB/play7.gif""style=""height:400px;""></stim_listB>",,html-keyboard-response,103,1052316,0.0-13.0-1.18,89020,List2B,black,woman,,,,null,,,,
null,is playing with,,html-keyboard-response,104,1054317,0.0-13.0-2.18,89020,List2B,black,woman,,,,null,,,,
21668,,,survey-text,105,1075986,0.0-13.0-3.18,89020,List2B,black,woman,,,,,"{""Q0"":""jane is playing with kate""}","<img src=""stim_listB/play7.gif""style=""height:400px;""></stim_listB>",is playing with,
null,"<div style=""font-size:60px;"">+</div>",,html-keyboard-response,106,1076490,0.0-13.0-0.19,89020,List2B,black,woman,,,,null,,,,
null,"<img src=""stim_listB/dance3.gif""style=""height:400px;""></stim_listB>",,html-keyboard-response,107,1078492,0.0-13.0-1.19,89020,List2B,black,woman,,,,null,,,,
null,is dancing with,,html-keyboard-response,108,1080493,0.0-13.0-2.19,89020,List2B,black,woman,,,,null,,,,
34068,,,survey-text,109,1114562,0.0-13.0-3.19,89020,List2B,black,woman,,,,,"{""Q0"":""kate is dancing with fred""}","<img src=""stim_listB/dance3.gif""style=""height:400px;""></stim_listB>",is dancing with,
29508,"<img src='img/portrait_matrix_list2.jpg' style='width:900px;height:500px;''></img><p>If you have memorised all the portraits and names and are ready to start, press Continue.</p><p><strong>Please note: Your memory of these faces will be tested 4 times during this experiment.</strong></p>",0,html-button-response,110,1144073,0.0-14.0-0.0,89020,List2B,black,woman,,,,,,,,
3863,"<img src=""portrait/WM2.jpg""style=""height:400px;""></img>",7,html-button-response,111,1148940,0.0-14.0-1.0,89020,List2B,black,woman,,TRUE,7,,,,,
null,CORRECT,,html-keyboard-response,112,1150448,0.0-14.0-2.0-0.0,89020,List2B,black,woman,,,,null,,,,
3328,"<img src=""portrait/WM1.jpg""style=""height:400px;""></img>",6,html-button-response,113,1153778,0.0-14.0-4.0,89020,List2B,black,woman,,TRUE,6,,,,,
null,CORRECT,,html-keyboard-response,114,1155281,0.0-14.0-5.0-0.0,89020,List2B,black,woman,,,,null,,,,
10437,"<img src=""portrait/BW2.jpg""style=""height:400px;""></img>",2,html-button-response,115,1165720,0.0-14.0-7.0,89020,List2B,black,woman,,TRUE,2,,,,,
null,CORRECT,,html-keyboard-response,116,1167224,0.0-14.0-8.0-0.0,89020,List2B,black,woman,,,,null,,,,
2602,"<img src=""portrait/BM2.jpg""style=""height:400px;""></img>",5,html-button-response,117,1169828,0.0-14.0-10.0,89020,List2B,black,woman,,TRUE,5,,,,,
null,CORRECT,,html-keyboard-response,118,1171331,0.0-14.0-11.0-0.0,89020,List2B,black,woman,,,,null,,,,
10466,"<img src=""portrait/BW1.jpg""style=""height:400px;""></img>",2,html-button-response,119,1181799,0.0-14.0-13.0,89020,List2B,black,woman,,TRUE,0,,,,,
8550,"<img src=""portrait/BW1.jpg""style=""height:400px;""></img>",0,html-button-response,120,1191353,0.0-14.0-15.0-0.0,89020,List2B,black,woman,,FALSE,0,,,,,
null,CORRECT,,html-keyboard-response,121,1192859,0.0-14.0-15.0-1.0-0.0,89020,List2B,black,woman,,,,null,,,,
3350,"<img src=""portrait/WW2.jpg""style=""height:400px;""></img>",3,html-button-response,122,1196211,0.0-14.0-16.0,89020,List2B,black,woman,,TRUE,3,,,,,
null,CORRECT,,html-keyboard-response,123,1197717,0.0-14.0-17.0-0.0,89020,List2B,black,woman,,,,null,,,,
4450,"<img src=""portrait/WW1.jpg""style=""height:400px;""></img>",1,html-button-response,124,1202171,0.0-14.0-19.0,89020,List2B,black,woman,,TRUE,1,,,,,
null,CORRECT,,html-keyboard-response,125,1203676,0.0-14.0-20.0-0.0,89020,List2B,black,woman,,,,null,,,,
8307,"<img src=""portrait/BM1.jpg""style=""height:400px;""></img>",4,html-button-response,126,1211986,0.0-14.0-22.0,89020,List2B,black,woman,,TRUE,4,,,,,
null,CORRECT,,html-keyboard-response,127,1213492,0.0-14.0-23.0-0.0,89020,List2B,black,woman,,,,null,,,,
2409,<p>You got 7 out of 8 right first time. Press Continue.</p>,0,html-button-response,128,1215903,0.0-14.0-25.0,89020,List2B,black,woman,,,,,,,,
6207,"As you did not score 100%, the memory game will repeat. Press Continue.",0,html-button-response,129,1223114,0.0-14.0-26.0-0.0,89020,List2B,black,woman,,,,,,,,
12139,"<img src='img/portrait_matrix_list2.jpg' style='width:900px;height:500px;''></img><p>If you have memorised all the portraits and names and are ready to start, press Continue.</p><p><strong>Please note: Your memory of these faces will be tested 4 times during this experiment.</strong></p>",0,html-button-response,130,1236257,0.0-14.1-0.1,89020,List2B,black,woman,,,,,,,,
2691,"<img src=""portrait/WM2.jpg""style=""height:400px;""></img>",7,html-button-response,131,1239955,0.0-14.1-1.1,89020,List2B,black,woman,,TRUE,7,,,,,
null,CORRECT,,html-keyboard-response,132,1241459,0.0-14.1-2.1-0.1,89020,List2B,black,woman,,,,null,,,,
2922,"<img src=""portrait/WM1.jpg""style=""height:400px;""></img>",6,html-button-response,133,1244382,0.0-14.1-4.1,89020,List2B,black,woman,,TRUE,6,,,,,
null,CORRECT,,html-keyboard-response,134,1245884,0.0-14.1-5.1-0.1,89020,List2B,black,woman,,,,null,,,,
6992,"<img src=""portrait/BW2.jpg""style=""height:400px;""></img>",2,html-button-response,135,1252879,0.0-14.1-7.1,89020,List2B,black,woman,,TRUE,2,,,,,
null,CORRECT,,html-keyboard-response,136,1254382,0.0-14.1-8.1-0.1,89020,List2B,black,woman,,,,null,,,,
2501,"<img src=""portrait/BM2.jpg""style=""height:400px;""></img>",5,html-button-response,137,1256886,0.0-14.1-10.1,89020,List2B,black,woman,,TRUE,5,,,,,
null,CORRECT,,html-keyboard-response,138,1258391,0.0-14.1-11.1-0.1,89020,List2B,black,woman,,,,null,,,,
5095,"<img src=""portrait/BW1.jpg""style=""height:400px;""></img>",0,html-button-response,139,1263488,0.0-14.1-13.1,89020,List2B,black,woman,,TRUE,0,,,,,
null,CORRECT,,html-keyboard-response,140,1264993,0.0-14.1-14.1-0.1,89020,List2B,black,woman,,,,null,,,,
2460,"<img src=""portrait/WW2.jpg""style=""height:400px;""></img>",3,html-button-response,141,1267455,0.0-14.1-16.1,89020,List2B,black,woman,,TRUE,3,,,,,
null,CORRECT,,html-keyboard-response,142,1268958,0.0-14.1-17.1-0.1,89020,List2B,black,woman,,,,null,,,,
2523,"<img src=""portrait/WW1.jpg""style=""height:400px;""></img>",1,html-button-response,143,1271482,0.0-14.1-19.1,89020,List2B,black,woman,,TRUE,1,,,,,
null,CORRECT,,html-keyboard-response,144,1272986,0.0-14.1-20.1-0.1,89020,List2B,black,woman,,,,null,,,,
3664,"<img src=""portrait/BM1.jpg""style=""height:400px;""></img>",4,html-button-response,145,1276652,0.0-14.1-22.1,89020,List2B,black,woman,,TRUE,4,,,,,
null,CORRECT,,html-keyboard-response,146,1278154,0.0-14.1-23.1-0.1,89020,List2B,black,woman,,,,null,,,,
1571,<p>You got 8 out of 8 right first time. Press Continue.</p>,0,html-button-response,147,1279726,0.0-14.1-25.1,89020,List2B,black,woman,,,,,,,,
null,"<div style=""font-size:60px;"">+</div>",,html-keyboard-response,148,1281230,0.0-15.0-0.0,89020,List2B,black,woman,,,,null,,,,
null,"<img src=""stim_listB/shout4.gif""style=""height:400px;""></stim_listB>",,html-keyboard-response,149,1283233,0.0-15.0-1.0,89020,List2B,black,woman,,,,null,,,,
null,are shouting at each other,,html-keyboard-response,150,1285236,0.0-15.0-2.0,89020,List2B,black,woman,,,,null,,,,
28660,,,survey-text,151,1313898,0.0-15.0-3.0,89020,List2B,black,woman,,,,,"{""Q0"":""mike and kate are shouting at each other""}","<img src=""stim_listB/shout4.gif""style=""height:400px;""></stim_listB>",are shouting at each other,
null,"<div style=""font-size:60px;"">+</div>",,html-keyboard-response,152,1314400,0.0-15.0-0.1,89020,List2B,black,woman,,,,null,,,,
null,"<img src=""stim_listB/shout7.gif""style=""height:400px;""></stim_listB>",,html-keyboard-response,153,1316402,0.0-15.0-1.1,89020,List2B,black,woman,,,,null,,,,
null,is shouting at,,html-keyboard-response,154,1318406,0.0-15.0-2.1,89020,List2B,black,woman,,,,null,,,,
23740,,,survey-text,155,1342146,0.0-15.0-3.1,89020,List2B,black,woman,,,,,"{""Q0"":""ruth is shouting at beth""}","<img src=""stim_listB/shout7.gif""style=""height:400px;""></stim_listB>",is shouting at,
null,"<div style=""font-size:60px;"">+</div>",,html-keyboard-response,156,1342648,0.0-15.0-0.2,89020,List2B,black,woman,,,,null,,,,
null,"<img src=""stim_listB/kiss1.gif""style=""height:400px;""></stim_listB>",,html-keyboard-response,157,1344650,0.0-15.0-1.2,89020,List2B,black,woman,,,,null,,,,
null,is kissing,,html-keyboard-response,158,1346651,0.0-15.0-2.2,89020,List2B,black,woman,,,,null,,,,
11630,,,survey-text,159,1358283,0.0-15.0-3.2,89020,List2B,black,woman,,,,,"{""Q0"":""luke is kissing ruth""}","<img src=""stim_listB/kiss1.gif""style=""height:400px;""></stim_listB>",is kissing,
null,"<div style=""font-size:60px;"">+</div>",,html-keyboard-response,160,1358784,0.0-15.0-0.3,89020,List2B,black,woman,,,,null,,,,
null,"<img src=""stim_listB/shout5.gif""style=""height:400px;""></stim_listB>",,html-keyboard-response,161,1360787,0.0-15.0-1.3,89020,List2B,black,woman,,,,null,,,,
null,is shouting at,,html-keyboard-response,162,1362789,0.0-15.0-2.3,89020,List2B,black,woman,,,,null,,,,
15343,,,survey-text,163,1378135,0.0-15.0-3.3,89020,List2B,black,woman,,,,,"{""Q0"":""fred is shouting at luke""}","<img src=""stim_listB/shout5.gif""style=""height:400px;""></stim_listB>",is shouting at,
null,"<div style=""font-size:60px;"">+</div>",,html-keyboard-response,164,1378639,0.0-15.0-0.4,89020,List2B,black,woman,,,,null,,,,
null,"<img src=""stim_listB/play1.gif""style=""height:400px;""></stim_listB>",,html-keyboard-response,165,1380642,0.0-15.0-1.4,89020,List2B,black,woman,,,,null,,,,
null,is playing with,,html-keyboard-response,166,1382644,0.0-15.0-2.4,89020,List2B,black,woman,,,,null,,,,
10294,,,survey-text,167,1392940,0.0-15.0-3.4,89020,List2B,black,woman,,,,,"{""Q0"":""dave is playing with jane""}","<img src=""stim_listB/play1.gif""style=""height:400px;""></stim_listB>",is playing with,
null,"<div style=""font-size:60px;"">+</div>",,html-keyboard-response,168,1393442,0.0-15.0-0.5,89020,List2B,black,woman,,,,null,,,,
null,"<img src=""stim_listB/kiss4.gif""style=""height:400px;""></stim_listB>",,html-keyboard-response,169,1395444,0.0-15.0-1.5,89020,List2B,black,woman,,,,null,,,,
null,are kissing each other,,html-keyboard-response,170,1397444,0.0-15.0-2.5,89020,List2B,black,woman,,,,null,,,,
20445,,,survey-text,171,1417891,0.0-15.0-3.5,89020,List2B,black,woman,,,,,"{""Q0"":""mike and kate are kissing each other""}","<img src=""stim_listB/kiss4.gif""style=""height:400px;""></stim_listB>",are kissing each other,
null,"<div style=""font-size:60px;"">+</div>",,html-keyboard-response,172,1418396,0.0-15.0-0.6,89020,List2B,black,woman,,,,null,,,,
null,"<img src=""stim_listB/flirt6.gif""style=""height:400px;""></stim_listB>",,html-keyboard-response,173,1420396,0.0-15.0-1.6,89020,List2B,black,woman,,,,null,,,,
null,are flirting with each other,,html-keyboard-response,174,1422399,0.0-15.0-2.6,89020,List2B,black,woman,,,,null,,,,
17036,,,survey-text,175,1439436,0.0-15.0-3.6,89020,List2B,black,woman,,,,,"{""Q0"":""fred and dave are flirting with each other""}","<img src=""stim_listB/flirt6.gif""style=""height:400px;""></stim_listB>",are flirting with each other,
null,"<div style=""font-size:60px;"">+</div>",,html-keyboard-response,176,1439939,0.0-15.0-0.7,89020,List2B,black,woman,,,,null,,,,
null,"<img src=""stim_listB/dance4.gif""style=""height:400px;""></stim_listB>",,html-keyboard-response,177,1441941,0.0-15.0-1.7,89020,List2B,black,woman,,,,null,,,,
null,are dancing with each other,,html-keyboard-response,178,1443943,0.0-15.0-2.7,89020,List2B,black,woman,,,,null,,,,
21708,,,survey-text,179,1465652,0.0-15.0-3.7,89020,List2B,black,woman,,,,,"{""Q0"":""mike and beth are dancing with each other""}","<img src=""stim_listB/dance4.gif""style=""height:400px;""></stim_listB>",are dancing with each other,
null,"<div style=""font-size:60px;"">+</div>",,html-keyboard-response,180,1466154,0.0-15.0-0.8,89020,List2B,black,woman,,,,null,,,,
null,"<img src=""stim_listB/argue2.gif""style=""height:400px;""></stim_listB>",,html-keyboard-response,181,1468155,0.0-15.0-1.8,89020,List2B,black,woman,,,,null,,,,
null,are arguing with each other,,html-keyboard-response,182,1470157,0.0-15.0-2.8,89020,List2B,black,woman,,,,null,,,,
25439,,,survey-text,183,1495597,0.0-15.0-3.8,89020,List2B,black,woman,,,,,"{""Q0"":""luke and jane are arguing with each other""}","<img src=""stim_listB/argue2.gif""style=""height:400px;""></stim_listB>",are arguing with each other,
null,"<div style=""font-size:60px;"">+</div>",,html-keyboard-response,184,1496099,0.0-15.0-0.9,89020,List2B,black,woman,,,,null,,,,
null,"<img src=""stim_listB/play6.gif""style=""height:400px;""></stim_listB>",,html-keyboard-response,185,1498103,0.0-15.0-1.9,89020,List2B,black,woman,,,,null,,,,
null,are playing with each other,,html-keyboard-response,186,1500105,0.0-15.0-2.9,89020,List2B,black,woman,,,,null,,,,
15224,,,survey-text,187,1515330,0.0-15.0-3.9,89020,List2B,black,woman,,,,,"{""Q0"":""luke and fred are playing with each other""}","<img src=""stim_listB/play6.gif""style=""height:400px;""></stim_listB>",are playing with each other,
null,"<div style=""font-size:60px;"">+</div>",,html-keyboard-response,188,1515832,0.0-15.0-0.10,89020,List2B,black,woman,,,,null,,,,
null,"<img src=""stim_listB/dance1.gif""style=""height:400px;""></stim_listB>",,html-keyboard-response,189,1517833,0.0-15.0-1.10,89020,List2B,black,woman,,,,null,,,,
null,is dancing with,,html-keyboard-response,190,1519835,0.0-15.0-2.10,89020,List2B,black,woman,,,,null,,,,
12369,,,survey-text,191,1532206,0.0-15.0-3.10,89020,List2B,black,woman,,,,,"{""Q0"":""luke is dancing with jane""}","<img src=""stim_listB/dance1.gif""style=""height:400px;""></stim_listB>",is dancing with,
null,"<div style=""font-size:60px;"">+</div>",,html-keyboard-response,192,1532709,0.0-15.0-0.11,89020,List2B,black,woman,,,,null,,,,
null,"<img src=""stim_listB/touch2.gif""style=""height:400px;""></stim_listB>",,html-keyboard-response,193,1534710,0.0-15.0-1.11,89020,List2B,black,woman,,,,null,,,,
null,are touching each other,,html-keyboard-response,194,1536713,0.0-15.0-2.11,89020,List2B,black,woman,,,,null,,,,
16236,,,survey-text,195,1552949,0.0-15.0-3.11,89020,List2B,black,woman,,,,,"{""Q0"":""luke and ruth are touching each other""}","<img src=""stim_listB/touch2.gif""style=""height:400px;""></stim_listB>",are touching each other,
null,"<div style=""font-size:60px;"">+</div>",,html-keyboard-response,196,1553451,0.0-15.0-0.12,89020,List2B,black,woman,,,,null,,,,
null,"<img src=""stim_listB/touch3.gif""style=""height:400px;""></stim_listB>",,html-keyboard-response,197,1555452,0.0-15.0-1.12,89020,List2B,black,woman,,,,null,,,,
null,is touching,,html-keyboard-response,198,1557455,0.0-15.0-2.12,89020,List2B,black,woman,,,,null,,,,
17581,,,survey-text,199,1575037,0.0-15.0-3.12,89020,List2B,black,woman,,,,,"{""Q0"":""mike is touching kate""}","<img src=""stim_listB/touch3.gif""style=""height:400px;""></stim_listB>",is touching,
null,"<div style=""font-size:60px;"">+</div>",,html-keyboard-response,200,1575540,0.0-15.0-0.13,89020,List2B,black,woman,,,,null,,,,
null,"<img src=""stim_listB/marry2.gif""style=""height:400px;""></stim_listB>",,html-keyboard-response,201,1577544,0.0-15.0-1.13,89020,List2B,black,woman,,,,null,,,,
null,are marrying each other,,html-keyboard-response,202,1579546,0.0-15.0-2.13,89020,List2B,black,woman,,,,null,,,,
13649,,,survey-text,203,1593196,0.0-15.0-3.13,89020,List2B,black,woman,,,,,"{""Q0"":""luke and jane are marrying each other""}","<img src=""stim_listB/marry2.gif""style=""height:400px;""></stim_listB>",are marrying each other,
null,"<div style=""font-size:60px;"">+</div>",,html-keyboard-response,204,1593699,0.0-15.0-0.14,89020,List2B,black,woman,,,,null,,,,
null,"<img src=""stim_listB/play5.gif""style=""height:400px;""></stim_listB>",,html-keyboard-response,205,1595700,0.0-15.0-1.14,89020,List2B,black,woman,,,,null,,,,
null,is playing with,,html-keyboard-response,206,1597701,0.0-15.0-2.14,89020,List2B,black,woman,,,,null,,,,
21123,,,survey-text,207,1618826,0.0-15.0-3.14,89020,List2B,black,woman,,,,,"{""Q0"":""mike and dave are talking""}","<img src=""stim_listB/play5.gif""style=""height:400px;""></stim_listB>",is playing with,
null,"<div style=""font-size:60px;"">+</div>",,html-keyboard-response,208,1619329,0.0-15.0-0.15,89020,List2B,black,woman,,,,null,,,,
null,"<img src=""stim_listB/talk5.gif""style=""height:400px;""></stim_listB>",,html-keyboard-response,209,1621331,0.0-15.0-1.15,89020,List2B,black,woman,,,,null,,,,
null,is talking to,,html-keyboard-response,210,1623333,0.0-15.0-2.15,89020,List2B,black,woman,,,,null,,,,
25718,,,survey-text,211,1649051,0.0-15.0-3.15,89020,List2B,black,woman,,,,,"{""Q0"":""luke is talking to fred""}","<img src=""stim_listB/talk5.gif""style=""height:400px;""></stim_listB>",is talking to,
null,"<div style=""font-size:60px;"">+</div>",,html-keyboard-response,212,1649553,0.0-15.0-0.16,89020,List2B,black,woman,,,,null,,,,
null,"<img src=""stim_listB/marry6.gif""style=""height:400px;""></stim_listB>",,html-keyboard-response,213,1651566,0.0-15.0-1.16,89020,List2B,black,woman,,,,null,,,,
null,are marrying each other,,html-keyboard-response,214,1653570,0.0-15.0-2.16,89020,List2B,black,woman,,,,null,,,,
13140,,,survey-text,215,1666711,0.0-15.0-3.16,89020,List2B,black,woman,,,,,"{""Q0"":""mike and luke are marrying each other""}","<img src=""stim_listB/marry6.gif""style=""height:400px;""></stim_listB>",are marrying each other,
null,"<div style=""font-size:60px;"">+</div>",,html-keyboard-response,216,1667214,0.0-15.0-0.17,89020,List2B,black,woman,,,,null,,,,
null,"<img src=""stim_listB/play2.gif""style=""height:400px;""></stim_listB>",,html-keyboard-response,217,1669215,0.0-15.0-1.17,89020,List2B,black,woman,,,,null,,,,
null,are playing with each other,,html-keyboard-response,218,1671216,0.0-15.0-2.17,89020,List2B,black,woman,,,,null,,,,
19502,,,survey-text,219,1690720,0.0-15.0-3.17,89020,List2B,black,woman,,,,,"{""Q0"":""ruth and luke are playing with each other""}","<img src=""stim_listB/play2.gif""style=""height:400px;""></stim_listB>",are playing with each other,
null,"<div style=""font-size:60px;"">+</div>",,html-keyboard-response,220,1691223,0.0-15.0-0.18,89020,List2B,black,woman,,,,null,,,,
null,"<img src=""stim_listB/fight7.gif""style=""height:400px;""></stim_listB>",,html-keyboard-response,221,1693225,0.0-15.0-1.18,89020,List2B,black,woman,,,,null,,,,
null,is fighting,,html-keyboard-response,222,1695228,0.0-15.0-2.18,89020,List2B,black,woman,,,,null,,,,
21914,,,survey-text,223,1717143,0.0-15.0-3.18,89020,List2B,black,woman,,,,,"{""Q0"":""jane is fighting kate""}","<img src=""stim_listB/fight7.gif""style=""height:400px;""></stim_listB>",is fighting,
null,"<div style=""font-size:60px;"">+</div>",,html-keyboard-response,224,1717650,0.0-15.0-0.19,89020,List2B,black,woman,,,,null,,,,
null,"<img src=""stim_listB/marry3.gif""style=""height:400px;""></stim_listB>",,html-keyboard-response,225,1719654,0.0-15.0-1.19,89020,List2B,black,woman,,,,null,,,,
null,is marrying,,html-keyboard-response,226,1721655,0.0-15.0-2.19,89020,List2B,black,woman,,,,null,,,,
18494,,,survey-text,227,1740151,0.0-15.0-3.19,89020,List2B,black,woman,,,,,"{""Q0"":""mike is marrying beth""}","<img src=""stim_listB/marry3.gif""style=""height:400px;""></stim_listB>",is marrying,
13726,"<img src='img/portrait_matrix_list2.jpg' style='width:900px;height:500px;''></img><p>If you have memorised all the portraits and names and are ready to start, press Continue.</p><p><strong>Please note: Your memory of these faces will be tested 4 times during this experiment.</strong></p>",0,html-button-response,228,1753881,0.0-16.0-0.0,89020,List2B,black,woman,,,,,,,,
2570,"<img src=""portrait/WM2.jpg""style=""height:400px;""></img>",7,html-button-response,229,1757456,0.0-16.0-1.0,89020,List2B,black,woman,,TRUE,7,,,,,
null,CORRECT,,html-keyboard-response,230,1758960,0.0-16.0-2.0-0.0,89020,List2B,black,woman,,,,null,,,,
2243,"<img src=""portrait/WW2.jpg""style=""height:400px;""></img>",3,html-button-response,231,1761205,0.0-16.0-4.0,89020,List2B,black,woman,,TRUE,3,,,,,
null,CORRECT,,html-keyboard-response,232,1762711,0.0-16.0-5.0-0.0,89020,List2B,black,woman,,,,null,,,,
9941,"<img src=""portrait/BW2.jpg""style=""height:400px;""></img>",2,html-button-response,233,1772653,0.0-16.0-7.0,89020,List2B,black,woman,,TRUE,2,,,,,
null,CORRECT,,html-keyboard-response,234,1774157,0.0-16.0-8.0-0.0,89020,List2B,black,woman,,,,null,,,,
2733,"<img src=""portrait/WW1.jpg""style=""height:400px;""></img>",1,html-button-response,235,1776891,0.0-16.0-10.0,89020,List2B,black,woman,,TRUE,1,,,,,
null,CORRECT,,html-keyboard-response,236,1778395,0.0-16.0-11.0-0.0,89020,List2B,black,woman,,,,null,,,,
2972,"<img src=""portrait/WM1.jpg""style=""height:400px;""></img>",6,html-button-response,237,1781369,0.0-16.0-13.0,89020,List2B,black,woman,,TRUE,6,,,,,
null,CORRECT,,html-keyboard-response,238,1782873,0.0-16.0-14.0-0.0,89020,List2B,black,woman,,,,null,,,,
4233,"<img src=""portrait/BM1.jpg""style=""height:400px;""></img>",4,html-button-response,239,1787108,0.0-16.0-16.0,89020,List2B,black,woman,,TRUE,4,,,,,
null,CORRECT,,html-keyboard-response,240,1788614,0.0-16.0-17.0-0.0,89020,List2B,black,woman,,,,null,,,,
2540,"<img src=""portrait/BM2.jpg""style=""height:400px;""></img>",5,html-button-response,241,1791156,0.0-16.0-19.0,89020,List2B,black,woman,,TRUE,5,,,,,
null,CORRECT,,html-keyboard-response,242,1792661,0.0-16.0-20.0-0.0,89020,List2B,black,woman,,,,null,,,,
11423,"<img src=""portrait/BW1.jpg""style=""height:400px;""></img>",0,html-button-response,243,1804088,0.0-16.0-22.0,89020,List2B,black,woman,,TRUE,0,,,,,
null,CORRECT,,html-keyboard-response,244,1805592,0.0-16.0-23.0-0.0,89020,List2B,black,woman,,,,null,,,,
1699,<p>You got 8 out of 8 right first time. Press Continue.</p>,0,html-button-response,245,1807295,0.0-16.0-25.0,89020,List2B,black,woman,,,,,,,,
null,"<div style=""font-size:60px;"">+</div>",,html-keyboard-response,246,1808799,0.0-17.0-0.0,89020,List2B,black,woman,,,,null,,,,
null,"<img src=""stim_listB/kiss7.gif""style=""height:400px;""></stim_listB>",,html-keyboard-response,247,1810802,0.0-17.0-1.0,89020,List2B,black,woman,,,,null,,,,
null,is kissing,,html-keyboard-response,248,1812804,0.0-17.0-2.0,89020,List2B,black,woman,,,,null,,,,
22077,,,survey-text,249,1834881,0.0-17.0-3.0,89020,List2B,black,woman,,,,,"{""Q0"":""ruth is kissing beth""}","<img src=""stim_listB/kiss7.gif""style=""height:400px;""></stim_listB>",is kissing,
null,"<div style=""font-size:60px;"">+</div>",,html-keyboard-response,250,1835383,0.0-17.0-0.1,89020,List2B,black,woman,,,,null,,,,
null,"<img src=""stim_listB/shout6.gif""style=""height:400px;""></stim_listB>",,html-keyboard-response,251,1837384,0.0-17.0-1.1,89020,List2B,black,woman,,,,null,,,,
null,are shouting at each other,,html-keyboard-response,252,1839387,0.0-17.0-2.1,89020,List2B,black,woman,,,,null,,,,
14383,,,survey-text,253,1853772,0.0-17.0-3.1,89020,List2B,black,woman,,,,,"{""Q0"":""mike and dave are shouting at each other""}","<img src=""stim_listB/shout6.gif""style=""height:400px;""></stim_listB>",are shouting at each other,
null,"<div style=""font-size:60px;"">+</div>",,html-keyboard-response,254,1854274,0.0-17.0-0.2,89020,List2B,black,woman,,,,null,,,,
null,"<img src=""stim_listB/fight1.gif""style=""height:400px;""></stim_listB>",,html-keyboard-response,255,1856276,0.0-17.0-1.2,89020,List2B,black,woman,,,,null,,,,
null,is fighting,,html-keyboard-response,256,1858278,0.0-17.0-2.2,89020,List2B,black,woman,,,,null,,,,
10768,,,survey-text,257,1869047,0.0-17.0-3.2,89020,List2B,black,woman,,,,,"{""Q0"":""jane is fighting dave""}","<img src=""stim_listB/fight1.gif""style=""height:400px;""></stim_listB>",is fighting,
null,"<div style=""font-size:60px;"">+</div>",,html-keyboard-response,258,1869548,0.0-17.0-0.3,89020,List2B,black,woman,,,,null,,,,
null,"<img src=""stim_listB/argue5.gif""style=""height:400px;""></stim_listB>",,html-keyboard-response,259,1871553,0.0-17.0-1.3,89020,List2B,black,woman,,,,null,,,,
null,is arguing with,,html-keyboard-response,260,1873554,0.0-17.0-2.3,89020,List2B,black,woman,,,,null,,,,
12712,,,survey-text,261,1886267,0.0-17.0-3.3,89020,List2B,black,woman,,,,,"{""Q0"":""fred is arguing with dave""}","<img src=""stim_listB/argue5.gif""style=""height:400px;""></stim_listB>",is arguing with,
null,"<div style=""font-size:60px;"">+</div>",,html-keyboard-response,262,1886769,0.0-17.0-0.4,89020,List2B,black,woman,,,,null,,,,
null,"<img src=""stim_listB/kiss2.gif""style=""height:400px;""></stim_listB>",,html-keyboard-response,263,1888771,0.0-17.0-1.4,89020,List2B,black,woman,,,,null,,,,
null,are kissing each other,,html-keyboard-response,264,1890774,0.0-17.0-2.4,89020,List2B,black,woman,,,,null,,,,
12278,,,survey-text,265,1903053,0.0-17.0-3.4,89020,List2B,black,woman,,,,,"{""Q0"":""fred and jane are kissing each other""}","<img src=""stim_listB/kiss2.gif""style=""height:400px;""></stim_listB>",are kissing each other,
null,"<div style=""font-size:60px;"">+</div>",,html-keyboard-response,266,1903556,0.0-17.0-0.5,89020,List2B,black,woman,,,,null,,,,
null,"<img src=""stim_listB/fight2.gif""style=""height:400px;""></stim_listB>",,html-keyboard-response,267,1905566,0.0-17.0-1.5,89020,List2B,black,woman,,,,null,,,,
null,are fighting each other,,html-keyboard-response,268,1907568,0.0-17.0-2.5,89020,List2B,black,woman,,,,null,,,,
28307,,,survey-text,269,1935876,0.0-17.0-3.5,89020,List2B,black,woman,,,,,"{""Q0"":""ruth and luke are fighting each other ""}","<img src=""stim_listB/fight2.gif""style=""height:400px;""></stim_listB>",are fighting each other,
null,"<div style=""font-size:60px;"">+</div>",,html-keyboard-response,270,1936379,0.0-17.0-0.6,89020,List2B,black,woman,,,,null,,,,
null,"<img src=""stim_listB/dance8.gif""style=""height:400px;""></stim_listB>",,html-keyboard-response,271,1938381,0.0-17.0-1.6,89020,List2B,black,woman,,,,null,,,,
null,are dancing with each other,,html-keyboard-response,272,1940383,0.0-17.0-2.6,89020,List2B,black,woman,,,,null,,,,
26152,,,survey-text,273,1966536,0.0-17.0-3.6,89020,List2B,black,woman,,,,,"{""Q0"":""jane and beth are dancing with each other""}","<img src=""stim_listB/dance8.gif""style=""height:400px;""></stim_listB>",are dancing with each other,
null,"<div style=""font-size:60px;"">+</div>",,html-keyboard-response,274,1967039,0.0-17.0-0.7,89020,List2B,black,woman,,,,null,,,,
null,"<img src=""stim_listB/play8.gif""style=""height:400px;""></stim_listB>",,html-keyboard-response,275,1969044,0.0-17.0-1.7,89020,List2B,black,woman,,,,null,,,,
null,are playing with each other,,html-keyboard-response,276,1971046,0.0-17.0-2.7,89020,List2B,black,woman,,,,null,,,,
21461,,,survey-text,277,1992511,0.0-17.0-3.7,89020,List2B,black,woman,,,,,"{""Q0"":""jane and beth are playing with each other""}","<img src=""stim_listB/play8.gif""style=""height:400px;""></stim_listB>",are playing with each other,
null,"<div style=""font-size:60px;"">+</div>",,html-keyboard-response,278,1993020,0.0-17.0-0.8,89020,List2B,black,woman,,,,null,,,,
null,"<img src=""stim_listB/kiss6.gif""style=""height:400px;""></stim_listB>",,html-keyboard-response,279,1995022,0.0-17.0-1.8,89020,List2B,black,woman,,,,null,,,,
null,are kissing each other,,html-keyboard-response,280,1997025,0.0-17.0-2.8,89020,List2B,black,woman,,,,null,,,,
14344,,,survey-text,281,2011369,0.0-17.0-3.8,89020,List2B,black,woman,,,,,"{""Q0"":""mike and dave are kissing each other""}","<img src=""stim_listB/kiss6.gif""style=""height:400px;""></stim_listB>",are kissing each other,
null,"<div style=""font-size:60px;"">+</div>",,html-keyboard-response,282,2011872,0.0-17.0-0.9,89020,List2B,black,woman,,,,null,,,,
null,"<img src=""stim_listB/shout3.gif""style=""height:400px;""></stim_listB>",,html-keyboard-response,283,2013874,0.0-17.0-1.9,89020,List2B,black,woman,,,,null,,,,
null,is shouting at,,html-keyboard-response,284,2015876,0.0-17.0-2.9,89020,List2B,black,woman,,,,null,,,,
21643,,,survey-text,285,2037519,0.0-17.0-3.9,89020,List2B,black,woman,,,,,"{""Q0"":""fred is shouting at beth""}","<img src=""stim_listB/shout3.gif""style=""height:400px;""></stim_listB>",is shouting at,
null,"<div style=""font-size:60px;"">+</div>",,html-keyboard-response,286,2038022,0.0-17.0-0.10,89020,List2B,black,woman,,,,null,,,,
null,"<img src=""stim_listB/kiss8.gif""style=""height:400px;""></stim_listB>",,html-keyboard-response,287,2040024,0.0-17.0-1.10,89020,List2B,black,woman,,,,null,,,,
null,are kissing each other,,html-keyboard-response,288,2042027,0.0-17.0-2.10,89020,List2B,black,woman,,,,null,,,,
22255,,,survey-text,289,2064284,0.0-17.0-3.10,89020,List2B,black,woman,,,,,"{""Q0"":""jane and kate are kissing each other""}","<img src=""stim_listB/kiss8.gif""style=""height:400px;""></stim_listB>",are kissing each other,
null,"<div style=""font-size:60px;"">+</div>",,html-keyboard-response,290,2064789,0.0-17.0-0.11,89020,List2B,black,woman,,,,null,,,,
null,"<img src=""stim_listB/argue6.gif""style=""height:400px;""></stim_listB>",,html-keyboard-response,291,2066790,0.0-17.0-1.11,89020,List2B,black,woman,,,,null,,,,
null,are arguing with each other,,html-keyboard-response,292,2068793,0.0-17.0-2.11,89020,List2B,black,woman,,,,null,,,,
16341,,,survey-text,293,2085134,0.0-17.0-3.11,89020,List2B,black,woman,,,,,"{""Q0"":""luke and mike are arguing with each other""}","<img src=""stim_listB/argue6.gif""style=""height:400px;""></stim_listB>",are arguing with each other,
null,"<div style=""font-size:60px;"">+</div>",,html-keyboard-response,294,2085638,0.0-17.0-0.12,89020,List2B,black,woman,,,,null,,,,
null,"<img src=""stim_listB/touch5.gif""style=""height:400px;""></stim_listB>",,html-keyboard-response,295,2087640,0.0-17.0-1.12,89020,List2B,black,woman,,,,null,,,,
null,is touching,,html-keyboard-response,296,2089642,0.0-17.0-2.12,89020,List2B,black,woman,,,,null,,,,
11214,,,survey-text,297,2100857,0.0-17.0-3.12,89020,List2B,black,woman,,,,,"{""Q0"":""dave is touching mike""}","<img src=""stim_listB/touch5.gif""style=""height:400px;""></stim_listB>",is touching,
null,"<div style=""font-size:60px;"">+</div>",,html-keyboard-response,298,2101361,0.0-17.0-0.13,89020,List2B,black,woman,,,,null,,,,
null,"<img src=""stim_listB/argue4.gif""style=""height:400px;""></stim_listB>",,html-keyboard-response,299,2103362,0.0-17.0-1.13,89020,List2B,black,woman,,,,null,,,,
null,are arguing with each other,,html-keyboard-response,300,2105363,0.0-17.0-2.13,89020,List2B,black,woman,,,,null,,,,
22474,,,survey-text,301,2127838,0.0-17.0-3.13,89020,List2B,black,woman,,,,,"{""Q0"":""fred and kate are arguing with each other""}","<img src=""stim_listB/argue4.gif""style=""height:400px;""></stim_listB>",are arguing with each other,
null,"<div style=""font-size:60px;"">+</div>",,html-keyboard-response,302,2128340,0.0-17.0-0.14,89020,List2B,black,woman,,,,null,,,,
null,"<img src=""stim_listB/fight4.gif""style=""height:400px;""></stim_listB>",,html-keyboard-response,303,2130342,0.0-17.0-1.14,89020,List2B,black,woman,,,,null,,,,
null,are fighting each other,,html-keyboard-response,304,2132345,0.0-17.0-2.14,89020,List2B,black,woman,,,,null,,,,
19888,,,survey-text,305,2152234,0.0-17.0-3.14,89020,List2B,black,woman,,,,,"{""Q0"":""fred and beth are fighting with each other""}","<img src=""stim_listB/fight4.gif""style=""height:400px;""></stim_listB>",are fighting each other,
null,"<div style=""font-size:60px;"">+</div>",,html-keyboard-response,306,2152739,0.0-17.0-0.15,89020,List2B,black,woman,,,,null,,,,
null,"<img src=""stim_listB/shout2.gif""style=""height:400px;""></stim_listB>",,html-keyboard-response,307,2154740,0.0-17.0-1.15,89020,List2B,black,woman,,,,null,,,,
null,are shouting at each other,,html-keyboard-response,308,2156743,0.0-17.0-2.15,89020,List2B,black,woman,,,,null,,,,
13840,,,survey-text,309,2170584,0.0-17.0-3.15,89020,List2B,black,woman,,,,,"{""Q0"":""dave and jane are shouting at each other""}","<img src=""stim_listB/shout2.gif""style=""height:400px;""></stim_listB>",are shouting at each other,
null,"<div style=""font-size:60px;"">+</div>",,html-keyboard-response,310,2171085,0.0-17.0-0.16,89020,List2B,black,woman,,,,null,,,,
null,"<img src=""stim_listB/fight3.gif""style=""height:400px;""></stim_listB>",,html-keyboard-response,311,2173088,0.0-17.0-1.16,89020,List2B,black,woman,,,,null,,,,
null,is fighting,,html-keyboard-response,312,2175090,0.0-17.0-2.16,89020,List2B,black,woman,,,,null,,,,
14671,,,survey-text,313,2189762,0.0-17.0-3.16,89020,List2B,black,woman,,,,,"{""Q0"":""mike is fighting kate""}","<img src=""stim_listB/fight3.gif""style=""height:400px;""></stim_listB>",is fighting,
null,"<div style=""font-size:60px;"">+</div>",,html-keyboard-response,314,2190266,0.0-17.0-0.17,89020,List2B,black,woman,,,,null,,,,
null,"<img src=""stim_listB/fight5.gif""style=""height:400px;""></stim_listB>",,html-keyboard-response,315,2192267,0.0-17.0-1.17,89020,List2B,black,woman,,,,null,,,,
null,is fighting,,html-keyboard-response,316,2194269,0.0-17.0-2.17,89020,List2B,black,woman,,,,null,,,,
11280,,,survey-text,317,2205549,0.0-17.0-3.17,89020,List2B,black,woman,,,,,"{""Q0"":""mike is fighting dave""}","<img src=""stim_listB/fight5.gif""style=""height:400px;""></stim_listB>",is fighting,
null,"<div style=""font-size:60px;"">+</div>",,html-keyboard-response,318,2206054,0.0-17.0-0.18,89020,List2B,black,woman,,,,null,,,,
null,"<img src=""stim_listB/talk6.gif""style=""height:400px;""></stim_listB>",,html-keyboard-response,319,2208062,0.0-17.0-1.18,89020,List2B,black,woman,,,,null,,,,
null,are talking to each other,,html-keyboard-response,320,2210064,0.0-17.0-2.18,89020,List2B,black,woman,,,,null,,,,
14082,,,survey-text,321,2224147,0.0-17.0-3.18,89020,List2B,black,woman,,,,,"{""Q0"":""fred and dave are talking to each other""}","<img src=""stim_listB/talk6.gif""style=""height:400px;""></stim_listB>",are talking to each other,
null,"<div style=""font-size:60px;"">+</div>",,html-keyboard-response,322,2224651,0.0-17.0-0.19,89020,List2B,black,woman,,,,null,,,,
null,"<img src=""stim_listB/argue1.gif""style=""height:400px;""></stim_listB>",,html-keyboard-response,323,2226651,0.0-17.0-1.19,89020,List2B,black,woman,,,,null,,,,
null,is arguing with,,html-keyboard-response,324,2228654,0.0-17.0-2.19,89020,List2B,black,woman,,,,null,,,,
10124,,,survey-text,325,2238779,0.0-17.0-3.19,89020,List2B,black,woman,,,,,"{""Q0"":""ruth is arguing with dave""}","<img src=""stim_listB/argue1.gif""style=""height:400px;""></stim_listB>",is arguing with,
10194,"<img src='img/portrait_matrix_list2.jpg' style='width:900px;height:500px;''></img><p>If you have memorised all the portraits and names and are ready to start, press Continue.</p><p><strong>Please note: Your memory of these faces will be tested 4 times during this experiment.</strong></p>",0,html-button-response,326,2248976,0.0-18.0-0.0,89020,List2B,black,woman,,,,,,,,
2343,"<img src=""portrait/WM2.jpg""style=""height:400px;""></img>",7,html-button-response,327,2252323,0.0-18.0-1.0,89020,List2B,black,woman,,TRUE,7,,,,,
null,CORRECT,,html-keyboard-response,328,2253826,0.0-18.0-2.0-0.0,89020,List2B,black,woman,,,,null,,,,
3954,"<img src=""portrait/BM1.jpg""style=""height:400px;""></img>",4,html-button-response,329,2257781,0.0-18.0-4.0,89020,List2B,black,woman,,TRUE,4,,,,,
null,CORRECT,,html-keyboard-response,330,2259283,0.0-18.0-5.0-0.0,89020,List2B,black,woman,,,,null,,,,
2893,"<img src=""portrait/WM1.jpg""style=""height:400px;""></img>",6,html-button-response,331,2262179,0.0-18.0-7.0,89020,List2B,black,woman,,TRUE,6,,,,,
null,CORRECT,,html-keyboard-response,332,2263683,0.0-18.0-8.0-0.0,89020,List2B,black,woman,,,,null,,,,
4955,"<img src=""portrait/WW1.jpg""style=""height:400px;""></img>",1,html-button-response,333,2268640,0.0-18.0-10.0,89020,List2B,black,woman,,TRUE,1,,,,,
null,CORRECT,,html-keyboard-response,334,2270143,0.0-18.0-11.0-0.0,89020,List2B,black,woman,,,,null,,,,
7700,"<img src=""portrait/BW2.jpg""style=""height:400px;""></img>",2,html-button-response,335,2277844,0.0-18.0-13.0,89020,List2B,black,woman,,TRUE,2,,,,,
null,CORRECT,,html-keyboard-response,336,2279349,0.0-18.0-14.0-0.0,89020,List2B,black,woman,,,,null,,,,
2601,"<img src=""portrait/BM2.jpg""style=""height:400px;""></img>",5,html-button-response,337,2281952,0.0-18.0-16.0,89020,List2B,black,woman,,TRUE,5,,,,,
null,CORRECT,,html-keyboard-response,338,2283456,0.0-18.0-17.0-0.0,89020,List2B,black,woman,,,,null,,,,
10293,"<img src=""portrait/BW1.jpg""style=""height:400px;""></img>",0,html-button-response,339,2293750,0.0-18.0-19.0,89020,List2B,black,woman,,TRUE,0,,,,,
null,CORRECT,,html-keyboard-response,340,2295254,0.0-18.0-20.0-0.0,89020,List2B,black,woman,,,,null,,,,
2691,"<img src=""portrait/WW2.jpg""style=""height:400px;""></img>",3,html-button-response,341,2297949,0.0-18.0-22.0,89020,List2B,black,woman,,TRUE,3,,,,,
null,CORRECT,,html-keyboard-response,342,2299452,0.0-18.0-23.0-0.0,89020,List2B,black,woman,,,,null,,,,
1637,<p>You got 8 out of 8 right first time. Press Continue.</p>,0,html-button-response,343,2301093,0.0-18.0-25.0,89020,List2B,black,woman,,,,,,,,
null,"<div style=""font-size:60px;"">+</div>",,html-keyboard-response,344,2302599,0.0-19.0-0.0,89020,List2B,black,woman,,,,null,,,,
null,"<img src=""stim_listB/touch7.gif""style=""height:400px;""></stim_listB>",,html-keyboard-response,345,2304602,0.0-19.0-1.0,89020,List2B,black,woman,,,,null,,,,
null,is touching,,html-keyboard-response,346,2306603,0.0-19.0-2.0,89020,List2B,black,woman,,,,null,,,,
15132,,,survey-text,347,2321737,0.0-19.0-3.0,89020,List2B,black,woman,,,,,"{""Q0"":""jane is touching kate""}","<img src=""stim_listB/touch7.gif""style=""height:400px;""></stim_listB>",is touching,
null,"<div style=""font-size:60px;"">+</div>",,html-keyboard-response,348,2322240,0.0-19.0-0.1,89020,List2B,black,woman,,,,null,,,,
null,"<img src=""stim_listB/fight8.gif""style=""height:400px;""></stim_listB>",,html-keyboard-response,349,2324241,0.0-19.0-1.1,89020,List2B,black,woman,,,,null,,,,
null,are fighting each other,,html-keyboard-response,350,2326244,0.0-19.0-2.1,89020,List2B,black,woman,,,,null,,,,
27913,,,survey-text,351,2354158,0.0-19.0-3.1,89020,List2B,black,woman,,,,,"{""Q0"":""ruth and beth are fighting with each other""}","<img src=""stim_listB/fight8.gif""style=""height:400px;""></stim_listB>",are fighting each other,
null,"<div style=""font-size:60px;"">+</div>",,html-keyboard-response,352,2354660,0.0-19.0-0.2,89020,List2B,black,woman,,,,null,,,,
null,"<img src=""stim_listB/talk7.gif""style=""height:400px;""></stim_listB>",,html-keyboard-response,353,2356663,0.0-19.0-1.2,89020,List2B,black,woman,,,,null,,,,
null,is talking to,,html-keyboard-response,354,2358664,0.0-19.0-2.2,89020,List2B,black,woman,,,,null,,,,
14393,,,survey-text,355,2373059,0.0-19.0-3.2,89020,List2B,black,woman,,,,,"{""Q0"":""ruth is talking to kate""}","<img src=""stim_listB/talk7.gif""style=""height:400px;""></stim_listB>",is talking to,
null,"<div style=""font-size:60px;"">+</div>",,html-keyboard-response,356,2373561,0.0-19.0-0.3,89020,List2B,black,woman,,,,null,,,,
null,"<img src=""stim_listB/dance5.gif""style=""height:400px;""></stim_listB>",,html-keyboard-response,357,2375564,0.0-19.0-1.3,89020,List2B,black,woman,,,,null,,,,
null,is dancing with,,html-keyboard-response,358,2377565,0.0-19.0-2.3,89020,List2B,black,woman,,,,null,,,,
10057,,,survey-text,359,2387623,0.0-19.0-3.3,89020,List2B,black,woman,,,,,"{""Q0"":""luke is dancing with mike""}","<img src=""stim_listB/dance5.gif""style=""height:400px;""></stim_listB>",is dancing with,
null,"<div style=""font-size:60px;"">+</div>",,html-keyboard-response,360,2388126,0.0-19.0-0.4,89020,List2B,black,woman,,,,null,,,,
null,"<img src=""stim_listB/fight6.gif""style=""height:400px;""></stim_listB>",,html-keyboard-response,361,2390128,0.0-19.0-1.4,89020,List2B,black,woman,,,,null,,,,
null,are fighting each other,,html-keyboard-response,362,2392131,0.0-19.0-2.4,89020,List2B,black,woman,,,,null,,,,
13519,,,survey-text,363,2405651,0.0-19.0-3.4,89020,List2B,black,woman,,,,,"{""Q0"":""fred and luke are fighting each other""}","<img src=""stim_listB/fight6.gif""style=""height:400px;""></stim_listB>",are fighting each other,
null,"<div style=""font-size:60px;"">+</div>",,html-keyboard-response,364,2406154,0.0-19.0-0.5,89020,List2B,black,woman,,,,null,,,,
null,"<img src=""stim_listB/kiss3.gif""style=""height:400px;""></stim_listB>",,html-keyboard-response,365,2408156,0.0-19.0-1.5,89020,List2B,black,woman,,,,null,,,,
null,is kissing,,html-keyboard-response,366,2410157,0.0-19.0-2.5,89020,List2B,black,woman,,,,null,,,,
13661,,,survey-text,367,2423819,0.0-19.0-3.5,89020,List2B,black,woman,,,,,"{""Q0"":""fred is kissing beth""}","<img src=""stim_listB/kiss3.gif""style=""height:400px;""></stim_listB>",is kissing,
null,"<div style=""font-size:60px;"">+</div>",,html-keyboard-response,368,2424321,0.0-19.0-0.6,89020,List2B,black,woman,,,,null,,,,
null,"<img src=""stim_listB/flirt7.gif""style=""height:400px;""></stim_listB>",,html-keyboard-response,369,2426324,0.0-19.0-1.6,89020,List2B,black,woman,,,,null,,,,
null,is flirting with,,html-keyboard-response,370,2428324,0.0-19.0-2.6,89020,List2B,black,woman,,,,null,,,,
17808,,,survey-text,371,2446135,0.0-19.0-3.6,89020,List2B,black,woman,,,,,"{""Q0"":""kate is flirting with ruth""}","<img src=""stim_listB/flirt7.gif""style=""height:400px;""></stim_listB>",is flirting with,
null,"<div style=""font-size:60px;"">+</div>",,html-keyboard-response,372,2446638,0.0-19.0-0.7,89020,List2B,black,woman,,,,null,,,,
null,"<img src=""stim_listB/shout8.gif""style=""height:400px;""></stim_listB>",,html-keyboard-response,373,2448641,0.0-19.0-1.7,89020,List2B,black,woman,,,,null,,,,
null,are shouting at each other,,html-keyboard-response,374,2450644,0.0-19.0-2.7,89020,List2B,black,woman,,,,null,,,,
16362,,,survey-text,375,2467007,0.0-19.0-3.7,89020,List2B,black,woman,,,,,"{""Q0"":""kate and ruth are shouting at each other""}","<img src=""stim_listB/shout8.gif""style=""height:400px;""></stim_listB>",are shouting at each other,
null,"<div style=""font-size:60px;"">+</div>",,html-keyboard-response,376,2467510,0.0-19.0-0.8,89020,List2B,black,woman,,,,null,,,,
null,"<img src=""stim_listB/argue8.gif""style=""height:400px;""></stim_listB>",,html-keyboard-response,377,2469513,0.0-19.0-1.8,89020,List2B,black,woman,,,,null,,,,
null,are arguing with each other,,html-keyboard-response,378,2471514,0.0-19.0-2.8,89020,List2B,black,woman,,,,null,,,,
18655,,,survey-text,379,2490169,0.0-19.0-3.8,89020,List2B,black,woman,,,,,"{""Q0"":""ruth and kate are arguing with each other""}","<img src=""stim_listB/argue8.gif""style=""height:400px;""></stim_listB>",are arguing with each other,
null,"<div style=""font-size:60px;"">+</div>",,html-keyboard-response,380,2490671,0.0-19.0-0.9,89020,List2B,black,woman,,,,null,,,,
null,"<img src=""stim_listB/touch6.gif""style=""height:400px;""></stim_listB>",,html-keyboard-response,381,2492672,0.0-19.0-1.9,89020,List2B,black,woman,,,,null,,,,
null,are touching each other,,html-keyboard-response,382,2494674,0.0-19.0-2.9,89020,List2B,black,woman,,,,null,,,,
13472,,,survey-text,383,2508147,0.0-19.0-3.9,89020,List2B,black,woman,,,,,"{""Q0"":""luke and fred are touching each other""}","<img src=""stim_listB/touch6.gif""style=""height:400px;""></stim_listB>",are touching each other,
null,"<div style=""font-size:60px;"">+</div>",,html-keyboard-response,384,2508649,0.0-19.0-0.10,89020,List2B,black,woman,,,,null,,,,
null,"<img src=""stim_listB/flirt4.gif""style=""height:400px;""></stim_listB>",,html-keyboard-response,385,2510650,0.0-19.0-1.10,89020,List2B,black,woman,,,,null,,,,
null,are flirting with each other,,html-keyboard-response,386,2512653,0.0-19.0-2.10,89020,List2B,black,woman,,,,null,,,,
38478,,,survey-text,387,2551133,0.0-19.0-3.10,89020,List2B,black,woman,,,,,"{""Q0"":""mike and beth are flirting with each other""}","<img src=""stim_listB/flirt4.gif""style=""height:400px;""></stim_listB>",are flirting with each other,
null,"<div style=""font-size:60px;"">+</div>",,html-keyboard-response,388,2551635,0.0-19.0-0.11,89020,List2B,black,woman,,,,null,,,,
null,"<img src=""stim_listB/touch8.gif""style=""height:400px;""></stim_listB>",,html-keyboard-response,389,2553639,0.0-19.0-1.11,89020,List2B,black,woman,,,,null,,,,
null,are touching each other,,html-keyboard-response,390,2555639,0.0-19.0-2.11,89020,List2B,black,woman,,,,null,,,,
14167,,,survey-text,391,2569808,0.0-19.0-3.11,89020,List2B,black,woman,,,,,"{""Q0"":""ruth and beth are touching each other""}","<img src=""stim_listB/touch8.gif""style=""height:400px;""></stim_listB>",are touching each other,
null,"<div style=""font-size:60px;"">+</div>",,html-keyboard-response,392,2570312,0.0-19.0-0.12,89020,List2B,black,woman,,,,null,,,,
null,"<img src=""stim_listB/flirt2.gif""style=""height:400px;""></stim_listB>",,html-keyboard-response,393,2572313,0.0-19.0-1.12,89020,List2B,black,woman,,,,null,,,,
null,are flirting with each other,,html-keyboard-response,394,2574314,0.0-19.0-2.12,89020,List2B,black,woman,,,,null,,,,
13788,,,survey-text,395,2588104,0.0-19.0-3.12,89020,List2B,black,woman,,,,,"{""Q0"":""dave and ruth are flirting with each other""}","<img src=""stim_listB/flirt2.gif""style=""height:400px;""></stim_listB>",are flirting with each other,
null,"<div style=""font-size:60px;"">+</div>",,html-keyboard-response,396,2588606,0.0-19.0-0.13,89020,List2B,black,woman,,,,null,,,,
null,"<img src=""stim_listB/shout1.gif""style=""height:400px;""></stim_listB>",,html-keyboard-response,397,2590608,0.0-19.0-1.13,89020,List2B,black,woman,,,,null,,,,
null,is shouting at,,html-keyboard-response,398,2592611,0.0-19.0-2.13,89020,List2B,black,woman,,,,null,,,,
10964,,,survey-text,399,2603575,0.0-19.0-3.13,89020,List2B,black,woman,,,,,"{""Q0"":""ruth is shouting at luke""}","<img src=""stim_listB/shout1.gif""style=""height:400px;""></stim_listB>",is shouting at,
null,"<div style=""font-size:60px;"">+</div>",,html-keyboard-response,400,2604078,0.0-19.0-0.14,89020,List2B,black,woman,,,,null,,,,
null,"<img src=""stim_listB/argue7.gif""style=""height:400px;""></stim_listB>",,html-keyboard-response,401,2606081,0.0-19.0-1.14,89020,List2B,black,woman,,,,null,,,,
null,is arguing with,,html-keyboard-response,402,2608083,0.0-19.0-2.14,89020,List2B,black,woman,,,,null,,,,
11243,,,survey-text,403,2619327,0.0-19.0-3.14,89020,List2B,black,woman,,,,,"{""Q0"":""jane is arguing with beth""}","<img src=""stim_listB/argue7.gif""style=""height:400px;""></stim_listB>",is arguing with,
null,"<div style=""font-size:60px;"">+</div>",,html-keyboard-response,404,2619830,0.0-19.0-0.15,89020,List2B,black,woman,,,,null,,,,
null,"<img src=""stim_listB/talk8.gif""style=""height:400px;""></stim_listB>",,html-keyboard-response,405,2621831,0.0-19.0-1.15,89020,List2B,black,woman,,,,null,,,,
null,are talking to each other,,html-keyboard-response,406,2623833,0.0-19.0-2.15,89020,List2B,black,woman,,,,null,,,,
23042,,,survey-text,407,2646876,0.0-19.0-3.15,89020,List2B,black,woman,,,,,"{""Q0"":""jane and beth are talking to each other""}","<img src=""stim_listB/talk8.gif""style=""height:400px;""></stim_listB>",are talking to each other,
null,"<div style=""font-size:60px;"">+</div>",,html-keyboard-response,408,2647380,0.0-19.0-0.16,89020,List2B,black,woman,,,,null,,,,
null,"<img src=""stim_listB/flirt8.gif""style=""height:400px;""></stim_listB>",,html-keyboard-response,409,2649382,0.0-19.0-1.16,89020,List2B,black,woman,,,,null,,,,
null,are flirting with each other,,html-keyboard-response,410,2651383,0.0-19.0-2.16,89020,List2B,black,woman,,,,null,,,,
14411,,,survey-text,411,2665795,0.0-19.0-3.16,89020,List2B,black,woman,,,,,"{""Q0"":""beth and jane are flirting with each other""}","<img src=""stim_listB/flirt8.gif""style=""height:400px;""></stim_listB>",are flirting with each other,
null,"<div style=""font-size:60px;"">+</div>",,html-keyboard-response,412,2666298,0.0-19.0-0.17,89020,List2B,black,woman,,,,null,,,,
null,"<img src=""stim_listB/talk4.gif""style=""height:400px;""></stim_listB>",,html-keyboard-response,413,2668299,0.0-19.0-1.17,89020,List2B,black,woman,,,,null,,,,
null,are talking to each other,,html-keyboard-response,414,2670301,0.0-19.0-2.17,89020,List2B,black,woman,,,,null,,,,
13870,,,survey-text,415,2684171,0.0-19.0-3.17,89020,List2B,black,woman,,,,,"{""Q0"":""mike and beth are talking to each other""}","<img src=""stim_listB/talk4.gif""style=""height:400px;""></stim_listB>",are talking to each other,
null,"<div style=""font-size:60px;"">+</div>",,html-keyboard-response,416,2684675,0.0-19.0-0.18,89020,List2B,black,woman,,,,null,,,,
null,"<img src=""stim_listB/play4.gif""style=""height:400px;""></stim_listB>",,html-keyboard-response,417,2686679,0.0-19.0-1.18,89020,List2B,black,woman,,,,null,,,,
null,are playing with each other,,html-keyboard-response,418,2688680,0.0-19.0-2.18,89020,List2B,black,woman,,,,null,,,,
13534,,,survey-text,419,2702216,0.0-19.0-3.18,89020,List2B,black,woman,,,,,"{""Q0"":""fred and beth are playing with each other""}","<img src=""stim_listB/play4.gif""style=""height:400px;""></stim_listB>",are playing with each other,
null,"<div style=""font-size:60px;"">+</div>",,html-keyboard-response,420,2702720,0.0-19.0-0.19,89020,List2B,black,woman,,,,null,,,,
null,"<img src=""stim_listB/talk3.gif""style=""height:400px;""></stim_listB>",,html-keyboard-response,421,2704722,0.0-19.0-1.19,89020,List2B,black,woman,,,,null,,,,
null,is talking to,,html-keyboard-response,422,2706724,0.0-19.0-2.19,89020,List2B,black,woman,,,,null,,,,
23053,,,survey-text,423,2729779,0.0-19.0-3.19,89020,List2B,black,woman,,,,,"{""Q0"":""kate is talking to fred""}","<img src=""stim_listB/talk3.gif""style=""height:400px;""></stim_listB>",is talking to,
2002,<p>Thank you for completing that task.</p><p>The final part of this session is a short questionnaire.</p><p>Press Continue.</p>,0,html-button-response,424,2731782,0.0-20.0,89020,List2B,black,woman,,,,,,,,
33704,,,survey-text,425,2766491,0.0-21.0,89020,List2B,black,woman,,,,,"{""Q0"":""64"",""Q1"":""English"",""Q2"":""English"",""Q3"":""USA"",""Q4"":""Black"",""Q5"":""female""}",,,demographics
10616,,,survey-likert,426,2777111,0.0-22.0,89020,List2B,black,woman,,,,,"{""Q0"":4}",,,likert_ESS
10555,,,survey-likert,427,2787677,0.0-23.0,89020,List2B,black,woman,,,,,"{""Q0"":4}",,,likert_NSSAL_Q1
5678,,,survey-likert,428,2793365,0.0-24.0,89020,List2B,black,woman,,,,,"{""Q0"":4}",,,likert_NSSAL_Q2
5078,,,survey-likert,429,2798454,0.0-25.0,89020,List2B,black,woman,,,,,"{""Q0"":3}",,,likert_CGRS_Q1
5949,,,survey-likert,430,2804414,0.0-26.0,89020,List2B,black,woman,,,,,"{""Q0"":3}",,,likert_CGRS_Q2
4478,,,survey-likert,431,2808902,0.0-27.0,89020,List2B,black,woman,,,,,"{""Q0"":3}",,,likert_CGRS_Q3
22181,,,survey-text,432,2831094,0.0-28.0,89020,List2B,black,woman,,,,,"{""Q0"":""ccc""}",,,worker_id
9484,,,external-html,433,2840956,0.0-29.0,89020,List2B,black,woman,debrief.html,,,,,,,
