rt,stimulus,button_pressed,trial_type,trial_index,time_elapsed,internal_node_id,subject,list,ppt_race,ppt_gender,url,first_guess,correct,key_press,responses,image_type,phrase_type,test_part
2975,Welcome to the experiment. Press Continue to begin.,0,html-button-response,0,2978,0.0-0.0,89021,List1A,black,man,,,,,,,,
176913,,,external-html,1,181011,0.0-1.0,89021,List1A,black,man,consent.html,,,,,,,
33540,"<p>On the next page, you will see portraits of 8 people and their names.</p><p>Your first task is to take a few minutes to memorise the names of these people.</p><p>You will have to recall their names during the rest of the experiment, so it is</p><p>essential that you try to memorise these people and their names as best as you can.</p><br><p><strong>You will then be tested on your memory of these names and portraits.</strong></p><br><p>The experiment will start after you have completed this memory test.</p><br><p>Ready?</p>",0,html-button-response,2,214552,0.0-2.0,89021,List1A,black,man,,,,,,,,
168181,"<img src='img/portrait_matrix_list1.jpg' style='width:900px;height:500px;''></img><p>If you have memorised all the portraits and names and are ready to start, press Continue.</p><p><strong>Please note: Your memory of these faces will be tested 4 times during this experiment.</strong></p>",0,html-button-response,3,383736,0.0-3.0-0.0,89021,List1A,black,man,,,,,,,,
5611,"<img src=""portrait/WM1.jpg""style=""height:400px;""></img>",6,html-button-response,4,390351,0.0-3.0-1.0,89021,List1A,black,man,,TRUE,6,,,,,
null,CORRECT,,html-keyboard-response,5,391857,0.0-3.0-2.0-0.0,89021,List1A,black,man,,,,null,,,,
7400,"<img src=""portrait/BW1.jpg""style=""height:400px;""></img>",0,html-button-response,6,399261,0.0-3.0-4.0,89021,List1A,black,man,,TRUE,0,,,,,
null,CORRECT,,html-keyboard-response,7,400765,0.0-3.0-5.0-0.0,89021,List1A,black,man,,,,null,,,,
4258,"<img src=""portrait/WW2.jpg""style=""height:400px;""></img>",3,html-button-response,8,405024,0.0-3.0-7.0,89021,List1A,black,man,,TRUE,3,,,,,
null,CORRECT,,html-keyboard-response,9,406526,0.0-3.0-8.0-0.0,89021,List1A,black,man,,,,null,,,,
4708,"<img src=""portrait/BM1.jpg""style=""height:400px;""></img>",4,html-button-response,10,411236,0.0-3.0-10.0,89021,List1A,black,man,,TRUE,4,,,,,
null,CORRECT,,html-keyboard-response,11,412738,0.0-3.0-11.0-0.0,89021,List1A,black,man,,,,null,,,,
3825,"<img src=""portrait/WM2.jpg""style=""height:400px;""></img>",7,html-button-response,12,416566,0.0-3.0-13.0,89021,List1A,black,man,,TRUE,7,,,,,
null,CORRECT,,html-keyboard-response,13,418067,0.0-3.0-14.0-0.0,89021,List1A,black,man,,,,null,,,,
6049,"<img src=""portrait/BW2.jpg""style=""height:400px;""></img>",2,html-button-response,14,424118,0.0-3.0-16.0,89021,List1A,black,man,,TRUE,2,,,,,
null,CORRECT,,html-keyboard-response,15,425620,0.0-3.0-17.0-0.0,89021,List1A,black,man,,,,null,,,,
6878,"<img src=""portrait/BM2.jpg""style=""height:400px;""></img>",5,html-button-response,16,432500,0.0-3.0-19.0,89021,List1A,black,man,,TRUE,5,,,,,
null,CORRECT,,html-keyboard-response,17,434002,0.0-3.0-20.0-0.0,89021,List1A,black,man,,,,null,,,,
6296,"<img src=""portrait/WW1.jpg""style=""height:400px;""></img>",1,html-button-response,18,440299,0.0-3.0-22.0,89021,List1A,black,man,,TRUE,1,,,,,
null,CORRECT,,html-keyboard-response,19,441802,0.0-3.0-23.0-0.0,89021,List1A,black,man,,,,null,,,,
3236,<p>You got 8 out of 8 right first time. Press Continue.</p>,0,html-button-response,20,445040,0.0-3.0-25.0,89021,List1A,black,man,,,,,,,,
139981,"<p>In this experiment, you will view photographs of the people from the memory game interacting.</p><p>By using the <strong>exact</strong> phrase given <i>after</i> the photograph appears and recalling the correct names of the people in the photographs, form a sentence describing the interaction. You do not need to capitalise names.</p><p>Type your answer in the space provided. Please complete every sentence before moving onto the next trial.</p><p>You will only have a few seconds to memorise each given photograph and phrase before you can respond, so try your best to focus.</p><p>An example is given below. Press 'Continue' when you are ready.</p><img src='img/speaking_example.jpg' style='width:800px;height:460px;''></img>",0,html-button-response,21,586025,0.0-4.0,89021,List1A,black,man,,,,,,,,
7963,"<p>Before the experiment starts, you will watch two example trials. Press 'Continue'.</p>",0,html-button-response,22,594989,0.0-5.0,89021,List1A,black,man,,,,,,,,
null,<img src='img/meet_eg.gif' style='height:400px;''></img>,,html-keyboard-response,23,597992,0.0-6.0,89021,List1A,black,man,,,,null,,,,
null,<p>is meeting</p>,,html-keyboard-response,24,599994,0.0-7.0,89021,List1A,black,man,,,,null,,,,
8985,<p><b>Answer:</b> kate is meeting beth</p>,0,html-button-response,25,608980,0.0-8.0,89021,List1A,black,man,,,,,,,,
null,<img src='img/look_eg.gif' style='height:400px;''></img>,,html-keyboard-response,26,611982,0.0-9.0,89021,List1A,black,man,,,,null,,,,
null,<p>are looking at each other</p>,,html-keyboard-response,27,613983,0.0-10.0,89021,List1A,black,man,,,,null,,,,
5290,<p><b>Answer:</b> luke and dave are looking at each other</p>,0,html-button-response,28,619273,0.0-11.0,89021,List1A,black,man,,,,,,,,
18351,"<p>Ready to start the experiment?</p><br><p><strong>Remember to describe the picture using a full sentence,</strong></p><p><strong>that combines the names of the people with the <i>exact</i> phrase given.</strong></p><p><strong>To receive full payment you must do this correctly.</strong></p><p><strong> You do not need to capitalise names or use punctuation.</strong></p><br><p>Press 'Continue' to begin.</p>",0,html-button-response,29,638626,0.0-12.0,89021,List1A,black,man,,,,,,,,
null,"<div style=""font-size:60px;"">+</div>",,html-keyboard-response,30,640128,0.0-13.0-0.0,89021,List1A,black,man,,,,null,,,,
null,"<img src=""stim_listA/shout6.gif""style=""height:400px;""></stim_listA>",,html-keyboard-response,31,642130,0.0-13.0-1.0,89021,List1A,black,man,,,,null,,,,
null,are shouting at each other,,html-keyboard-response,32,644132,0.0-13.0-2.0,89021,List1A,black,man,,,,null,,,,
45570,,,survey-text,33,689704,0.0-13.0-3.0,89021,List1A,black,man,,,,,"{""Q0"":""dave and mike are shouting at each other""}","<img src=""stim_listA/shout6.gif""style=""height:400px;""></stim_listA>",are shouting at each other,
null,"<div style=""font-size:60px;"">+</div>",,html-keyboard-response,34,690206,0.0-13.0-0.1,89021,List1A,black,man,,,,null,,,,
null,"<img src=""stim_listA/kiss5.gif""style=""height:400px;""></stim_listA>",,html-keyboard-response,35,692208,0.0-13.0-1.1,89021,List1A,black,man,,,,null,,,,
null,is kissing,,html-keyboard-response,36,694209,0.0-13.0-2.1,89021,List1A,black,man,,,,null,,,,
39468,,,survey-text,37,733678,0.0-13.0-3.1,89021,List1A,black,man,,,,,"{""Q0"":""luke and fred is kissing each other""}","<img src=""stim_listA/kiss5.gif""style=""height:400px;""></stim_listA>",is kissing,
null,"<div style=""font-size:60px;"">+</div>",,html-keyboard-response,38,734180,0.0-13.0-0.2,89021,List1A,black,man,,,,null,,,,
null,"<img src=""stim_listA/talk1.gif""style=""height:400px;""></stim_listA>",,html-keyboard-response,39,736181,0.0-13.0-1.2,89021,List1A,black,man,,,,null,,,,
null,is talking to,,html-keyboard-response,40,738182,0.0-13.0-2.2,89021,List1A,black,man,,,,null,,,,
32827,,,survey-text,41,771011,0.0-13.0-3.2,89021,List1A,black,man,,,,,"{""Q0"":""fred and kate are discussing together""}","<img src=""stim_listA/talk1.gif""style=""height:400px;""></stim_listA>",is talking to,
null,"<div style=""font-size:60px;"">+</div>",,html-keyboard-response,42,771512,0.0-13.0-0.3,89021,List1A,black,man,,,,null,,,,
null,"<img src=""stim_listA/fight7.gif""style=""height:400px;""></stim_listA>",,html-keyboard-response,43,773514,0.0-13.0-1.3,89021,List1A,black,man,,,,null,,,,
null,is fighting,,html-keyboard-response,44,775515,0.0-13.0-2.3,89021,List1A,black,man,,,,null,,,,
37005,,,survey-text,45,812522,0.0-13.0-3.3,89021,List1A,black,man,,,,,"{""Q0"":""kate and jane is fighting each other""}","<img src=""stim_listA/fight7.gif""style=""height:400px;""></stim_listA>",is fighting,
null,"<div style=""font-size:60px;"">+</div>",,html-keyboard-response,46,813023,0.0-13.0-0.4,89021,List1A,black,man,,,,null,,,,
null,"<img src=""stim_listA/touch4.gif""style=""height:400px;""></stim_listA>",,html-keyboard-response,47,815026,0.0-13.0-1.4,89021,List1A,black,man,,,,null,,,,
null,are touching each other,,html-keyboard-response,48,817027,0.0-13.0-2.4,89021,List1A,black,man,,,,null,,,,
39787,,,survey-text,49,856816,0.0-13.0-3.4,89021,List1A,black,man,,,,,"{""Q0"":""ruth and luke are touching each other""}","<img src=""stim_listA/touch4.gif""style=""height:400px;""></stim_listA>",are touching each other,
null,"<div style=""font-size:60px;"">+</div>",,html-keyboard-response,50,857318,0.0-13.0-0.5,89021,List1A,black,man,,,,null,,,,
null,"<img src=""stim_listA/play3.gif""style=""height:400px;""></stim_listA>",,html-keyboard-response,51,859320,0.0-13.0-1.5,89021,List1A,black,man,,,,null,,,,
null,is playing with,,html-keyboard-response,52,861321,0.0-13.0-2.5,89021,List1A,black,man,,,,null,,,,
36692,,,survey-text,53,898014,0.0-13.0-3.5,89021,List1A,black,man,,,,,"{""Q0"":""dave and jane is playing with each other""}","<img src=""stim_listA/play3.gif""style=""height:400px;""></stim_listA>",is playing with,
null,"<div style=""font-size:60px;"">+</div>",,html-keyboard-response,54,898515,0.0-13.0-0.6,89021,List1A,black,man,,,,null,,,,
null,"<img src=""stim_listA/dance1.gif""style=""height:400px;""></stim_listA>",,html-keyboard-response,55,900518,0.0-13.0-1.6,89021,List1A,black,man,,,,null,,,,
null,is dancing with,,html-keyboard-response,56,902519,0.0-13.0-2.6,89021,List1A,black,man,,,,null,,,,
26336,,,survey-text,57,928856,0.0-13.0-3.6,89021,List1A,black,man,,,,,"{""Q0"":""kate and fred is dancing with each other""}","<img src=""stim_listA/dance1.gif""style=""height:400px;""></stim_listA>",is dancing with,
null,"<div style=""font-size:60px;"">+</div>",,html-keyboard-response,58,929358,0.0-13.0-0.7,89021,List1A,black,man,,,,null,,,,
null,"<img src=""stim_listA/argue6.gif""style=""height:400px;""></stim_listA>",,html-keyboard-response,59,931360,0.0-13.0-1.7,89021,List1A,black,man,,,,null,,,,
null,are arguing with each other,,html-keyboard-response,60,933361,0.0-13.0-2.7,89021,List1A,black,man,,,,null,,,,
25656,,,survey-text,61,959019,0.0-13.0-3.7,89021,List1A,black,man,,,,,"{""Q0"":""fred and dave are arguing with each other""}","<img src=""stim_listA/argue6.gif""style=""height:400px;""></stim_listA>",are arguing with each other,
null,"<div style=""font-size:60px;"">+</div>",,html-keyboard-response,62,959520,0.0-13.0-0.8,89021,List1A,black,man,,,,null,,,,
null,"<img src=""stim_listA/talk3.gif""style=""height:400px;""></stim_listA>",,html-keyboard-response,63,961521,0.0-13.0-1.8,89021,List1A,black,man,,,,null,,,,
null,is talking to,,html-keyboard-response,64,963522,0.0-13.0-2.8,89021,List1A,black,man,,,,null,,,,
33654,,,survey-text,65,997178,0.0-13.0-3.8,89021,List1A,black,man,,,,,"{""Q0"":""luke and ruth is talking to each other""}","<img src=""stim_listA/talk3.gif""style=""height:400px;""></stim_listA>",is talking to,
null,"<div style=""font-size:60px;"">+</div>",,html-keyboard-response,66,997682,0.0-13.0-0.9,89021,List1A,black,man,,,,null,,,,
null,"<img src=""stim_listA/flirt1.gif""style=""height:400px;""></stim_listA>",,html-keyboard-response,67,999684,0.0-13.0-1.9,89021,List1A,black,man,,,,null,,,,
null,is flirting with,,html-keyboard-response,68,1001686,0.0-13.0-2.9,89021,List1A,black,man,,,,null,,,,
26842,,,survey-text,69,1028529,0.0-13.0-3.9,89021,List1A,black,man,,,,,"{""Q0"":""fred and kate is fliritng with each other""}","<img src=""stim_listA/flirt1.gif""style=""height:400px;""></stim_listA>",is flirting with,
null,"<div style=""font-size:60px;"">+</div>",,html-keyboard-response,70,1029030,0.0-13.0-0.10,89021,List1A,black,man,,,,null,,,,
null,"<img src=""stim_listA/marry4.gif""style=""height:400px;""></stim_listA>",,html-keyboard-response,71,1031031,0.0-13.0-1.10,89021,List1A,black,man,,,,null,,,,
null,are marrying each other,,html-keyboard-response,72,1033033,0.0-13.0-2.10,89021,List1A,black,man,,,,null,,,,
26069,,,survey-text,73,1059103,0.0-13.0-3.10,89021,List1A,black,man,,,,,"{""Q0"":""jane and luke are marrying each other""}","<img src=""stim_listA/marry4.gif""style=""height:400px;""></stim_listA>",are marrying each other,
null,"<div style=""font-size:60px;"">+</div>",,html-keyboard-response,74,1059604,0.0-13.0-0.11,89021,List1A,black,man,,,,null,,,,
null,"<img src=""stim_listA/dance4.gif""style=""height:400px;""></stim_listA>",,html-keyboard-response,75,1061606,0.0-13.0-1.11,89021,List1A,black,man,,,,null,,,,
null,are dancing with each other,,html-keyboard-response,76,1063607,0.0-13.0-2.11,89021,List1A,black,man,,,,null,,,,
23782,,,survey-text,77,1087390,0.0-13.0-3.11,89021,List1A,black,man,,,,,"{""Q0"":""dave and ruth are dancing with each other""}","<img src=""stim_listA/dance4.gif""style=""height:400px;""></stim_listA>",are dancing with each other,
null,"<div style=""font-size:60px;"">+</div>",,html-keyboard-response,78,1087891,0.0-13.0-0.12,89021,List1A,black,man,,,,null,,,,
null,"<img src=""stim_listA/dance2.gif""style=""height:400px;""></stim_listA>",,html-keyboard-response,79,1089892,0.0-13.0-1.12,89021,List1A,black,man,,,,null,,,,
null,are dancing with each other,,html-keyboard-response,80,1091894,0.0-13.0-2.12,89021,List1A,black,man,,,,null,,,,
31400,,,survey-text,81,1123295,0.0-13.0-3.12,89021,List1A,black,man,,,,,"{""Q0"":""beth and mike are dancing with each other""}","<img src=""stim_listA/dance2.gif""style=""height:400px;""></stim_listA>",are dancing with each other,
null,"<div style=""font-size:60px;"">+</div>",,html-keyboard-response,82,1123796,0.0-13.0-0.13,89021,List1A,black,man,,,,null,,,,
null,"<img src=""stim_listA/kiss4.gif""style=""height:400px;""></stim_listA>",,html-keyboard-response,83,1125798,0.0-13.0-1.13,89021,List1A,black,man,,,,null,,,,
null,are kissing each other,,html-keyboard-response,84,1127799,0.0-13.0-2.13,89021,List1A,black,man,,,,null,,,,
25861,,,survey-text,85,1153662,0.0-13.0-3.13,89021,List1A,black,man,,,,,"{""Q0"":""dave and jane are kissing each other""}","<img src=""stim_listA/kiss4.gif""style=""height:400px;""></stim_listA>",are kissing each other,
null,"<div style=""font-size:60px;"">+</div>",,html-keyboard-response,86,1154164,0.0-13.0-0.14,89021,List1A,black,man,,,,null,,,,
null,"<img src=""stim_listA/dance6.gif""style=""height:400px;""></stim_listA>",,html-keyboard-response,87,1156165,0.0-13.0-1.14,89021,List1A,black,man,,,,null,,,,
null,are dancing with each other,,html-keyboard-response,88,1158166,0.0-13.0-2.14,89021,List1A,black,man,,,,null,,,,
21767,,,survey-text,89,1179935,0.0-13.0-3.14,89021,List1A,black,man,,,,,"{""Q0"":""luke and mike are dancing with each other""}","<img src=""stim_listA/dance6.gif""style=""height:400px;""></stim_listA>",are dancing with each other,
null,"<div style=""font-size:60px;"">+</div>",,html-keyboard-response,90,1180436,0.0-13.0-0.15,89021,List1A,black,man,,,,null,,,,
null,"<img src=""stim_listA/kiss7.gif""style=""height:400px;""></stim_listA>",,html-keyboard-response,91,1182438,0.0-13.0-1.15,89021,List1A,black,man,,,,null,,,,
null,is kissing,,html-keyboard-response,92,1184440,0.0-13.0-2.15,89021,List1A,black,man,,,,null,,,,
15918,,,survey-text,93,1200359,0.0-13.0-3.15,89021,List1A,black,man,,,,,"{""Q0"":""beth and ruth is kissing each other""}","<img src=""stim_listA/kiss7.gif""style=""height:400px;""></stim_listA>",is kissing,
null,"<div style=""font-size:60px;"">+</div>",,html-keyboard-response,94,1200860,0.0-13.0-0.16,89021,List1A,black,man,,,,null,,,,
null,"<img src=""stim_listA/play5.gif""style=""height:400px;""></stim_listA>",,html-keyboard-response,95,1202861,0.0-13.0-1.16,89021,List1A,black,man,,,,null,,,,
null,is playing with,,html-keyboard-response,96,1204862,0.0-13.0-2.16,89021,List1A,black,man,,,,null,,,,
18054,,,survey-text,97,1222917,0.0-13.0-3.16,89021,List1A,black,man,,,,,"{""Q0"":""mike and dave is playing with each other""}","<img src=""stim_listA/play5.gif""style=""height:400px;""></stim_listA>",is playing with,
null,"<div style=""font-size:60px;"">+</div>",,html-keyboard-response,98,1223419,0.0-13.0-0.17,89021,List1A,black,man,,,,null,,,,
null,"<img src=""stim_listA/marry7.gif""style=""height:400px;""></stim_listA>",,html-keyboard-response,99,1225420,0.0-13.0-1.17,89021,List1A,black,man,,,,null,,,,
null,is marrying,,html-keyboard-response,100,1227422,0.0-13.0-2.17,89021,List1A,black,man,,,,null,,,,
20968,,,survey-text,101,1248391,0.0-13.0-3.17,89021,List1A,black,man,,,,,"{""Q0"":""kate and ruth is marrying each other""}","<img src=""stim_listA/marry7.gif""style=""height:400px;""></stim_listA>",is marrying,
null,"<div style=""font-size:60px;"">+</div>",,html-keyboard-response,102,1248892,0.0-13.0-0.18,89021,List1A,black,man,,,,null,,,,
null,"<img src=""stim_listA/flirt7.gif""style=""height:400px;""></stim_listA>",,html-keyboard-response,103,1250894,0.0-13.0-1.18,89021,List1A,black,man,,,,null,,,,
null,is flirting with,,html-keyboard-response,104,1252895,0.0-13.0-2.18,89021,List1A,black,man,,,,null,,,,
13286,,,survey-text,105,1266181,0.0-13.0-3.18,89021,List1A,black,man,,,,,"{""Q0"":""beth and jane is fliriting with each other""}","<img src=""stim_listA/flirt7.gif""style=""height:400px;""></stim_listA>",is flirting with,
null,"<div style=""font-size:60px;"">+</div>",,html-keyboard-response,106,1266683,0.0-13.0-0.19,89021,List1A,black,man,,,,null,,,,
null,"<img src=""stim_listA/dance3.gif""style=""height:400px;""></stim_listA>",,html-keyboard-response,107,1268685,0.0-13.0-1.19,89021,List1A,black,man,,,,null,,,,
null,is dancing with,,html-keyboard-response,108,1270687,0.0-13.0-2.19,89021,List1A,black,man,,,,null,,,,
13501,,,survey-text,109,1284189,0.0-13.0-3.19,89021,List1A,black,man,,,,,"{""Q0"":""jane and luke is dancing with each other""}","<img src=""stim_listA/dance3.gif""style=""height:400px;""></stim_listA>",is dancing with,
14389,"<img src='img/portrait_matrix_list1.jpg' style='width:900px;height:500px;''></img><p>If you have memorised all the portraits and names and are ready to start, press Continue.</p><p><strong>Please note: Your memory of these faces will be tested 4 times during this experiment.</strong></p>",0,html-button-response,110,1298579,0.0-14.0-0.0,89021,List1A,black,man,,,,,,,,
4332,"<img src=""portrait/BM2.jpg""style=""height:400px;""></img>",5,html-button-response,111,1303914,0.0-14.0-1.0,89021,List1A,black,man,,TRUE,5,,,,,
null,CORRECT,,html-keyboard-response,112,1305417,0.0-14.0-2.0-0.0,89021,List1A,black,man,,,,null,,,,
2645,"<img src=""portrait/BM1.jpg""style=""height:400px;""></img>",4,html-button-response,113,1308064,0.0-14.0-4.0,89021,List1A,black,man,,TRUE,4,,,,,
null,CORRECT,,html-keyboard-response,114,1309567,0.0-14.0-5.0-0.0,89021,List1A,black,man,,,,null,,,,
2304,"<img src=""portrait/WW2.jpg""style=""height:400px;""></img>",3,html-button-response,115,1311873,0.0-14.0-7.0,89021,List1A,black,man,,TRUE,3,,,,,
null,CORRECT,,html-keyboard-response,116,1313375,0.0-14.0-8.0-0.0,89021,List1A,black,man,,,,null,,,,
2855,"<img src=""portrait/BW2.jpg""style=""height:400px;""></img>",2,html-button-response,117,1316232,0.0-14.0-10.0,89021,List1A,black,man,,TRUE,2,,,,,
null,CORRECT,,html-keyboard-response,118,1317734,0.0-14.0-11.0-0.0,89021,List1A,black,man,,,,null,,,,
3521,"<img src=""portrait/BW1.jpg""style=""height:400px;""></img>",0,html-button-response,119,1321256,0.0-14.0-13.0,89021,List1A,black,man,,TRUE,0,,,,,
null,CORRECT,,html-keyboard-response,120,1322759,0.0-14.0-14.0-0.0,89021,List1A,black,man,,,,null,,,,
2123,"<img src=""portrait/WM2.jpg""style=""height:400px;""></img>",7,html-button-response,121,1324884,0.0-14.0-16.0,89021,List1A,black,man,,TRUE,7,,,,,
null,CORRECT,,html-keyboard-response,122,1326386,0.0-14.0-17.0-0.0,89021,List1A,black,man,,,,null,,,,
2078,"<img src=""portrait/WW1.jpg""style=""height:400px;""></img>",1,html-button-response,123,1328464,0.0-14.0-19.0,89021,List1A,black,man,,TRUE,1,,,,,
null,CORRECT,,html-keyboard-response,124,1329966,0.0-14.0-20.0-0.0,89021,List1A,black,man,,,,null,,,,
2756,"<img src=""portrait/WM1.jpg""style=""height:400px;""></img>",6,html-button-response,125,1332725,0.0-14.0-22.0,89021,List1A,black,man,,TRUE,6,,,,,
null,CORRECT,,html-keyboard-response,126,1334227,0.0-14.0-23.0-0.0,89021,List1A,black,man,,,,null,,,,
2041,<p>You got 8 out of 8 right first time. Press Continue.</p>,0,html-button-response,127,1336269,0.0-14.0-25.0,89021,List1A,black,man,,,,,,,,
null,"<div style=""font-size:60px;"">+</div>",,html-keyboard-response,128,1337771,0.0-15.0-0.0,89021,List1A,black,man,,,,null,,,,
null,"<img src=""stim_listA/talk8.gif""style=""height:400px;""></stim_listA>",,html-keyboard-response,129,1339774,0.0-15.0-1.0,89021,List1A,black,man,,,,null,,,,
null,are talking to each other,,html-keyboard-response,130,1341775,0.0-15.0-2.0,89021,List1A,black,man,,,,null,,,,
31544,,,survey-text,131,1373320,0.0-15.0-3.0,89021,List1A,black,man,,,,,"{""Q0"":""jane and kate are talking to each other""}","<img src=""stim_listA/talk8.gif""style=""height:400px;""></stim_listA>",are talking to each other,
null,"<div style=""font-size:60px;"">+</div>",,html-keyboard-response,132,1373821,0.0-15.0-0.1,89021,List1A,black,man,,,,null,,,,
null,"<img src=""stim_listA/talk5.gif""style=""height:400px;""></stim_listA>",,html-keyboard-response,133,1375823,0.0-15.0-1.1,89021,List1A,black,man,,,,null,,,,
null,is talking to,,html-keyboard-response,134,1377824,0.0-15.0-2.1,89021,List1A,black,man,,,,null,,,,
11109,,,survey-text,135,1388934,0.0-15.0-3.1,89021,List1A,black,man,,,,,"{""Q0"":""fred and dave is talking to each other""}","<img src=""stim_listA/talk5.gif""style=""height:400px;""></stim_listA>",is talking to,
null,"<div style=""font-size:60px;"">+</div>",,html-keyboard-response,136,1389436,0.0-15.0-0.2,89021,List1A,black,man,,,,null,,,,
null,"<img src=""stim_listA/shout3.gif""style=""height:400px;""></stim_listA>",,html-keyboard-response,137,1391437,0.0-15.0-1.2,89021,List1A,black,man,,,,null,,,,
null,is shouting at,,html-keyboard-response,138,1393438,0.0-15.0-2.2,89021,List1A,black,man,,,,null,,,,
22795,,,survey-text,139,1416235,0.0-15.0-3.2,89021,List1A,black,man,,,,,"{""Q0"":""ruth and luke are shouting at each other""}","<img src=""stim_listA/shout3.gif""style=""height:400px;""></stim_listA>",is shouting at,
null,"<div style=""font-size:60px;"">+</div>",,html-keyboard-response,140,1416736,0.0-15.0-0.3,89021,List1A,black,man,,,,null,,,,
null,"<img src=""stim_listA/dance7.gif""style=""height:400px;""></stim_listA>",,html-keyboard-response,141,1418738,0.0-15.0-1.3,89021,List1A,black,man,,,,null,,,,
null,is dancing with,,html-keyboard-response,142,1420740,0.0-15.0-2.3,89021,List1A,black,man,,,,null,,,,
13365,,,survey-text,143,1434105,0.0-15.0-3.3,89021,List1A,black,man,,,,,"{""Q0"":""jane and beth is dancing with each other""}","<img src=""stim_listA/dance7.gif""style=""height:400px;""></stim_listA>",is dancing with,
null,"<div style=""font-size:60px;"">+</div>",,html-keyboard-response,144,1434606,0.0-15.0-0.4,89021,List1A,black,man,,,,null,,,,
null,"<img src=""stim_listA/play7.gif""style=""height:400px;""></stim_listA>",,html-keyboard-response,145,1436608,0.0-15.0-1.4,89021,List1A,black,man,,,,null,,,,
null,is playing with,,html-keyboard-response,146,1438609,0.0-15.0-2.4,89021,List1A,black,man,,,,null,,,,
14066,,,survey-text,147,1452676,0.0-15.0-3.4,89021,List1A,black,man,,,,,"{""Q0"":""jane and kate is playing with each other""}","<img src=""stim_listA/play7.gif""style=""height:400px;""></stim_listA>",is playing with,
null,"<div style=""font-size:60px;"">+</div>",,html-keyboard-response,148,1453177,0.0-15.0-0.5,89021,List1A,black,man,,,,null,,,,
null,"<img src=""stim_listA/fight1.gif""style=""height:400px;""></stim_listA>",,html-keyboard-response,149,1455178,0.0-15.0-1.5,89021,List1A,black,man,,,,null,,,,
null,is fighting,,html-keyboard-response,150,1457180,0.0-15.0-2.5,89021,List1A,black,man,,,,null,,,,
15862,,,survey-text,151,1473042,0.0-15.0-3.5,89021,List1A,black,man,,,,,"{""Q0"":""kate and mike is fighting each other""}","<img src=""stim_listA/fight1.gif""style=""height:400px;""></stim_listA>",is fighting,
null,"<div style=""font-size:60px;"">+</div>",,html-keyboard-response,152,1473543,0.0-15.0-0.6,89021,List1A,black,man,,,,null,,,,
null,"<img src=""stim_listA/kiss1.gif""style=""height:400px;""></stim_listA>",,html-keyboard-response,153,1475545,0.0-15.0-1.6,89021,List1A,black,man,,,,null,,,,
null,is kissing,,html-keyboard-response,154,1477546,0.0-15.0-2.6,89021,List1A,black,man,,,,null,,,,
9734,,,survey-text,155,1487281,0.0-15.0-3.6,89021,List1A,black,man,,,,,"{""Q0"":""beth and fred are kissing each other""}","<img src=""stim_listA/kiss1.gif""style=""height:400px;""></stim_listA>",is kissing,
null,"<div style=""font-size:60px;"">+</div>",,html-keyboard-response,156,1487783,0.0-15.0-0.7,89021,List1A,black,man,,,,null,,,,
null,"<img src=""stim_listA/dance5.gif""style=""height:400px;""></stim_listA>",,html-keyboard-response,157,1489784,0.0-15.0-1.7,89021,List1A,black,man,,,,null,,,,
null,is dancing with,,html-keyboard-response,158,1491786,0.0-15.0-2.7,89021,List1A,black,man,,,,null,,,,
10756,,,survey-text,159,1502542,0.0-15.0-3.7,89021,List1A,black,man,,,,,"{""Q0"":""dave and fred is dancing with each other""}","<img src=""stim_listA/dance5.gif""style=""height:400px;""></stim_listA>",is dancing with,
null,"<div style=""font-size:60px;"">+</div>",,html-keyboard-response,160,1503044,0.0-15.0-0.8,89021,List1A,black,man,,,,null,,,,
null,"<img src=""stim_listA/flirt8.gif""style=""height:400px;""></stim_listA>",,html-keyboard-response,161,1505045,0.0-15.0-1.8,89021,List1A,black,man,,,,null,,,,
null,are flirting with each other,,html-keyboard-response,162,1507047,0.0-15.0-2.8,89021,List1A,black,man,,,,null,,,,
11043,,,survey-text,163,1518091,0.0-15.0-3.8,89021,List1A,black,man,,,,,"{""Q0"":""ruth and kate are fliriting with each other""}","<img src=""stim_listA/flirt8.gif""style=""height:400px;""></stim_listA>",are flirting with each other,
null,"<div style=""font-size:60px;"">+</div>",,html-keyboard-response,164,1518591,0.0-15.0-0.9,89021,List1A,black,man,,,,null,,,,
null,"<img src=""stim_listA/touch2.gif""style=""height:400px;""></stim_listA>",,html-keyboard-response,165,1520593,0.0-15.0-1.9,89021,List1A,black,man,,,,null,,,,
null,are touching each other,,html-keyboard-response,166,1522594,0.0-15.0-2.9,89021,List1A,black,man,,,,null,,,,
10939,,,survey-text,167,1533535,0.0-15.0-3.9,89021,List1A,black,man,,,,,"{""Q0"":""beth and fred are touching each other""}","<img src=""stim_listA/touch2.gif""style=""height:400px;""></stim_listA>",are touching each other,
null,"<div style=""font-size:60px;"">+</div>",,html-keyboard-response,168,1534037,0.0-15.0-0.10,89021,List1A,black,man,,,,null,,,,
null,"<img src=""stim_listA/touch3.gif""style=""height:400px;""></stim_listA>",,html-keyboard-response,169,1536038,0.0-15.0-1.10,89021,List1A,black,man,,,,null,,,,
null,is touching,,html-keyboard-response,170,1538039,0.0-15.0-2.10,89021,List1A,black,man,,,,null,,,,
14668,,,survey-text,171,1552709,0.0-15.0-3.10,89021,List1A,black,man,,,,,"{""Q0"":""dave and jane are touching each other""}","<img src=""stim_listA/touch3.gif""style=""height:400px;""></stim_listA>",is touching,
null,"<div style=""font-size:60px;"">+</div>",,html-keyboard-response,172,1553210,0.0-15.0-0.11,89021,List1A,black,man,,,,null,,,,
null,"<img src=""stim_listA/argue3.gif""style=""height:400px;""></stim_listA>",,html-keyboard-response,173,1555213,0.0-15.0-1.11,89021,List1A,black,man,,,,null,,,,
null,is arguing with,,html-keyboard-response,174,1557214,0.0-15.0-2.11,89021,List1A,black,man,,,,null,,,,
13944,,,survey-text,175,1571160,0.0-15.0-3.11,89021,List1A,black,man,,,,,"{""Q0"":""ruth and dave are arguing with each other""}","<img src=""stim_listA/argue3.gif""style=""height:400px;""></stim_listA>",is arguing with,
null,"<div style=""font-size:60px;"">+</div>",,html-keyboard-response,176,1571662,0.0-15.0-0.12,89021,List1A,black,man,,,,null,,,,
null,"<img src=""stim_listA/argue2.gif""style=""height:400px;""></stim_listA>",,html-keyboard-response,177,1573664,0.0-15.0-1.12,89021,List1A,black,man,,,,null,,,,
null,are arguing with each other,,html-keyboard-response,178,1575665,0.0-15.0-2.12,89021,List1A,black,man,,,,null,,,,
16227,,,survey-text,179,1591893,0.0-15.0-3.12,89021,List1A,black,man,,,,,"{""Q0"":""kate and fred are arguing with each other""}","<img src=""stim_listA/argue2.gif""style=""height:400px;""></stim_listA>",are arguing with each other,
null,"<div style=""font-size:60px;"">+</div>",,html-keyboard-response,180,1592395,0.0-15.0-0.13,89021,List1A,black,man,,,,null,,,,
null,"<img src=""stim_listA/flirt5.gif""style=""height:400px;""></stim_listA>",,html-keyboard-response,181,1594397,0.0-15.0-1.13,89021,List1A,black,man,,,,null,,,,
null,is flirting with,,html-keyboard-response,182,1596398,0.0-15.0-2.13,89021,List1A,black,man,,,,null,,,,
17367,,,survey-text,183,1613767,0.0-15.0-3.13,89021,List1A,black,man,,,,,"{""Q0"":""dave and fred is flirting with each other""}","<img src=""stim_listA/flirt5.gif""style=""height:400px;""></stim_listA>",is flirting with,
null,"<div style=""font-size:60px;"">+</div>",,html-keyboard-response,184,1614268,0.0-15.0-0.14,89021,List1A,black,man,,,,null,,,,
null,"<img src=""stim_listA/play8.gif""style=""height:400px;""></stim_listA>",,html-keyboard-response,185,1616271,0.0-15.0-1.14,89021,List1A,black,man,,,,null,,,,
null,are playing with each other,,html-keyboard-response,186,1618273,0.0-15.0-2.14,89021,List1A,black,man,,,,null,,,,
13599,,,survey-text,187,1631873,0.0-15.0-3.14,89021,List1A,black,man,,,,,"{""Q0"":""ruth and beth are playing with each other""}","<img src=""stim_listA/play8.gif""style=""height:400px;""></stim_listA>",are playing with each other,
null,"<div style=""font-size:60px;"">+</div>",,html-keyboard-response,188,1632374,0.0-15.0-0.15,89021,List1A,black,man,,,,null,,,,
null,"<img src=""stim_listA/argue8.gif""style=""height:400px;""></stim_listA>",,html-keyboard-response,189,1634376,0.0-15.0-1.15,89021,List1A,black,man,,,,null,,,,
null,are arguing with each other,,html-keyboard-response,190,1636378,0.0-15.0-2.15,89021,List1A,black,man,,,,null,,,,
21693,,,survey-text,191,1658071,0.0-15.0-3.15,89021,List1A,black,man,,,,,"{""Q0"":""jane and beth are arguing with each other""}","<img src=""stim_listA/argue8.gif""style=""height:400px;""></stim_listA>",are arguing with each other,
null,"<div style=""font-size:60px;"">+</div>",,html-keyboard-response,192,1658573,0.0-15.0-0.16,89021,List1A,black,man,,,,null,,,,
null,"<img src=""stim_listA/shout8.gif""style=""height:400px;""></stim_listA>",,html-keyboard-response,193,1660574,0.0-15.0-1.16,89021,List1A,black,man,,,,null,,,,
null,are shouting at each other,,html-keyboard-response,194,1662575,0.0-15.0-2.16,89021,List1A,black,man,,,,null,,,,
12760,,,survey-text,195,1675337,0.0-15.0-3.16,89021,List1A,black,man,,,,,"{""Q0"":""jane and kate are shouting at each other""}","<img src=""stim_listA/shout8.gif""style=""height:400px;""></stim_listA>",are shouting at each other,
null,"<div style=""font-size:60px;"">+</div>",,html-keyboard-response,196,1675838,0.0-15.0-0.17,89021,List1A,black,man,,,,null,,,,
null,"<img src=""stim_listA/kiss6.gif""style=""height:400px;""></stim_listA>",,html-keyboard-response,197,1677840,0.0-15.0-1.17,89021,List1A,black,man,,,,null,,,,
null,are kissing each other,,html-keyboard-response,198,1679842,0.0-15.0-2.17,89021,List1A,black,man,,,,null,,,,
7467,,,survey-text,199,1687309,0.0-15.0-3.17,89021,List1A,black,man,,,,,"{""Q0"":""mike and dave are kissing each other""}","<img src=""stim_listA/kiss6.gif""style=""height:400px;""></stim_listA>",are kissing each other,
null,"<div style=""font-size:60px;"">+</div>",,html-keyboard-response,200,1687811,0.0-15.0-0.18,89021,List1A,black,man,,,,null,,,,
null,"<img src=""stim_listA/fight2.gif""style=""height:400px;""></stim_listA>",,html-keyboard-response,201,1689814,0.0-15.0-1.18,89021,List1A,black,man,,,,null,,,,
null,are fighting each other,,html-keyboard-response,202,1691815,0.0-15.0-2.18,89021,List1A,black,man,,,,null,,,,
7780,,,survey-text,203,1699597,0.0-15.0-3.18,89021,List1A,black,man,,,,,"{""Q0"":""fred and beth are fighting each other""}","<img src=""stim_listA/fight2.gif""style=""height:400px;""></stim_listA>",are fighting each other,
null,"<div style=""font-size:60px;"">+</div>",,html-keyboard-response,204,1700098,0.0-15.0-0.19,89021,List1A,black,man,,,,null,,,,
null,"<img src=""stim_listA/shout7.gif""style=""height:400px;""></stim_listA>",,html-keyboard-response,205,1702102,0.0-15.0-1.19,89021,List1A,black,man,,,,null,,,,
null,is shouting at,,html-keyboard-response,206,1704103,0.0-15.0-2.19,89021,List1A,black,man,,,,null,,,,
11100,,,survey-text,207,1715204,0.0-15.0-3.19,89021,List1A,black,man,,,,,"{""Q0"":""beth and ruth is shouting at each other""}","<img src=""stim_listA/shout7.gif""style=""height:400px;""></stim_listA>",is shouting at,
5257,"<img src='img/portrait_matrix_list1.jpg' style='width:900px;height:500px;''></img><p>If you have memorised all the portraits and names and are ready to start, press Continue.</p><p><strong>Please note: Your memory of these faces will be tested 4 times during this experiment.</strong></p>",0,html-button-response,208,1720463,0.0-16.0-0.0,89021,List1A,black,man,,,,,,,,
3050,"<img src=""portrait/BW1.jpg""style=""height:400px;""></img>",0,html-button-response,209,1724515,0.0-16.0-1.0,89021,List1A,black,man,,TRUE,0,,,,,
null,CORRECT,,html-keyboard-response,210,1726017,0.0-16.0-2.0-0.0,89021,List1A,black,man,,,,null,,,,
2824,"<img src=""portrait/WM1.jpg""style=""height:400px;""></img>",6,html-button-response,211,1728842,0.0-16.0-4.0,89021,List1A,black,man,,TRUE,6,,,,,
null,CORRECT,,html-keyboard-response,212,1730344,0.0-16.0-5.0-0.0,89021,List1A,black,man,,,,null,,,,
2424,"<img src=""portrait/BM2.jpg""style=""height:400px;""></img>",5,html-button-response,213,1732770,0.0-16.0-7.0,89021,List1A,black,man,,TRUE,5,,,,,
null,CORRECT,,html-keyboard-response,214,1734272,0.0-16.0-8.0-0.0,89021,List1A,black,man,,,,null,,,,
1882,"<img src=""portrait/WW2.jpg""style=""height:400px;""></img>",3,html-button-response,215,1736156,0.0-16.0-10.0,89021,List1A,black,man,,TRUE,3,,,,,
null,CORRECT,,html-keyboard-response,216,1737658,0.0-16.0-11.0-0.0,89021,List1A,black,man,,,,null,,,,
2052,"<img src=""portrait/WM2.jpg""style=""height:400px;""></img>",7,html-button-response,217,1739712,0.0-16.0-13.0,89021,List1A,black,man,,TRUE,7,,,,,
null,CORRECT,,html-keyboard-response,218,1741215,0.0-16.0-14.0-0.0,89021,List1A,black,man,,,,null,,,,
2432,"<img src=""portrait/WW1.jpg""style=""height:400px;""></img>",1,html-button-response,219,1743648,0.0-16.0-16.0,89021,List1A,black,man,,TRUE,1,,,,,
null,CORRECT,,html-keyboard-response,220,1745150,0.0-16.0-17.0-0.0,89021,List1A,black,man,,,,null,,,,
2613,"<img src=""portrait/BM1.jpg""style=""height:400px;""></img>",4,html-button-response,221,1747765,0.0-16.0-19.0,89021,List1A,black,man,,TRUE,4,,,,,
null,CORRECT,,html-keyboard-response,222,1749267,0.0-16.0-20.0-0.0,89021,List1A,black,man,,,,null,,,,
2212,"<img src=""portrait/BW2.jpg""style=""height:400px;""></img>",2,html-button-response,223,1751480,0.0-16.0-22.0,89021,List1A,black,man,,TRUE,2,,,,,
null,CORRECT,,html-keyboard-response,224,1752983,0.0-16.0-23.0-0.0,89021,List1A,black,man,,,,null,,,,
1723,<p>You got 8 out of 8 right first time. Press Continue.</p>,0,html-button-response,225,1754707,0.0-16.0-25.0,89021,List1A,black,man,,,,,,,,
null,"<div style=""font-size:60px;"">+</div>",,html-keyboard-response,226,1756209,0.0-17.0-0.0,89021,List1A,black,man,,,,null,,,,
null,"<img src=""stim_listA/talk6.gif""style=""height:400px;""></stim_listA>",,html-keyboard-response,227,1758211,0.0-17.0-1.0,89021,List1A,black,man,,,,null,,,,
null,are talking to each other,,html-keyboard-response,228,1760212,0.0-17.0-2.0,89021,List1A,black,man,,,,null,,,,
12524,,,survey-text,229,1772737,0.0-17.0-3.0,89021,List1A,black,man,,,,,"{""Q0"":""luke and mike are talking to each other""}","<img src=""stim_listA/talk6.gif""style=""height:400px;""></stim_listA>",are talking to each other,
null,"<div style=""font-size:60px;"">+</div>",,html-keyboard-response,230,1773239,0.0-17.0-0.1,89021,List1A,black,man,,,,null,,,,
null,"<img src=""stim_listA/flirt3.gif""style=""height:400px;""></stim_listA>",,html-keyboard-response,231,1775241,0.0-17.0-1.1,89021,List1A,black,man,,,,null,,,,
null,is flirting with,,html-keyboard-response,232,1777243,0.0-17.0-2.1,89021,List1A,black,man,,,,null,,,,
19120,,,survey-text,233,1796364,0.0-17.0-3.1,89021,List1A,black,man,,,,,"{""Q0"":""luke and jane is flirting with each other""}","<img src=""stim_listA/flirt3.gif""style=""height:400px;""></stim_listA>",is flirting with,
null,"<div style=""font-size:60px;"">+</div>",,html-keyboard-response,234,1796866,0.0-17.0-0.2,89021,List1A,black,man,,,,null,,,,
null,"<img src=""stim_listA/touch8.gif""style=""height:400px;""></stim_listA>",,html-keyboard-response,235,1798868,0.0-17.0-1.2,89021,List1A,black,man,,,,null,,,,
null,are touching each other,,html-keyboard-response,236,1800869,0.0-17.0-2.2,89021,List1A,black,man,,,,null,,,,
17413,,,survey-text,237,1818283,0.0-17.0-3.2,89021,List1A,black,man,,,,,"{""Q0"":""ruth and beth are touching each other""}","<img src=""stim_listA/touch8.gif""style=""height:400px;""></stim_listA>",are touching each other,
null,"<div style=""font-size:60px;"">+</div>",,html-keyboard-response,238,1818784,0.0-17.0-0.3,89021,List1A,black,man,,,,null,,,,
null,"<img src=""stim_listA/fight8.gif""style=""height:400px;""></stim_listA>",,html-keyboard-response,239,1820786,0.0-17.0-1.3,89021,List1A,black,man,,,,null,,,,
null,are fighting each other,,html-keyboard-response,240,1822787,0.0-17.0-2.3,89021,List1A,black,man,,,,null,,,,
10705,,,survey-text,241,1833494,0.0-17.0-3.3,89021,List1A,black,man,,,,,"{""Q0"":""ruth and beth are fighting each other""}","<img src=""stim_listA/fight8.gif""style=""height:400px;""></stim_listA>",are fighting each other,
null,"<div style=""font-size:60px;"">+</div>",,html-keyboard-response,242,1833995,0.0-17.0-0.4,89021,List1A,black,man,,,,null,,,,
null,"<img src=""stim_listA/shout1.gif""style=""height:400px;""></stim_listA>",,html-keyboard-response,243,1835997,0.0-17.0-1.4,89021,List1A,black,man,,,,null,,,,
null,is shouting at,,html-keyboard-response,244,1837998,0.0-17.0-2.4,89021,List1A,black,man,,,,null,,,,
9322,,,survey-text,245,1847321,0.0-17.0-3.4,89021,List1A,black,man,,,,,"{""Q0"":""beth and fred is shouting at each other""}","<img src=""stim_listA/shout1.gif""style=""height:400px;""></stim_listA>",is shouting at,
null,"<div style=""font-size:60px;"">+</div>",,html-keyboard-response,246,1847823,0.0-17.0-0.5,89021,List1A,black,man,,,,null,,,,
null,"<img src=""stim_listA/dance8.gif""style=""height:400px;""></stim_listA>",,html-keyboard-response,247,1849824,0.0-17.0-1.5,89021,List1A,black,man,,,,null,,,,
null,are dancing with each other,,html-keyboard-response,248,1851826,0.0-17.0-2.5,89021,List1A,black,man,,,,null,,,,
18230,,,survey-text,249,1870057,0.0-17.0-3.5,89021,List1A,black,man,,,,,"{""Q0"":""kate and ruth are dancing with each other""}","<img src=""stim_listA/dance8.gif""style=""height:400px;""></stim_listA>",are dancing with each other,
null,"<div style=""font-size:60px;"">+</div>",,html-keyboard-response,250,1870558,0.0-17.0-0.6,89021,List1A,black,man,,,,null,,,,
null,"<img src=""stim_listA/touch5.gif""style=""height:400px;""></stim_listA>",,html-keyboard-response,251,1872560,0.0-17.0-1.6,89021,List1A,black,man,,,,null,,,,
null,is touching,,html-keyboard-response,252,1874561,0.0-17.0-2.6,89021,List1A,black,man,,,,null,,,,
9755,,,survey-text,253,1884318,0.0-17.0-3.6,89021,List1A,black,man,,,,,"{""Q0"":""mike and dave is touching each other""}","<img src=""stim_listA/touch5.gif""style=""height:400px;""></stim_listA>",is touching,
null,"<div style=""font-size:60px;"">+</div>",,html-keyboard-response,254,1884820,0.0-17.0-0.7,89021,List1A,black,man,,,,null,,,,
null,"<img src=""stim_listA/talk4.gif""style=""height:400px;""></stim_listA>",,html-keyboard-response,255,1886822,0.0-17.0-1.7,89021,List1A,black,man,,,,null,,,,
null,are talking to each other,,html-keyboard-response,256,1888823,0.0-17.0-2.7,89021,List1A,black,man,,,,null,,,,
11078,,,survey-text,257,1899903,0.0-17.0-3.7,89021,List1A,black,man,,,,,"{""Q0"":""dave and ruth are talking to each other""}","<img src=""stim_listA/talk4.gif""style=""height:400px;""></stim_listA>",are talking to each other,
null,"<div style=""font-size:60px;"">+</div>",,html-keyboard-response,258,1900404,0.0-17.0-0.8,89021,List1A,black,man,,,,null,,,,
null,"<img src=""stim_listA/play4.gif""style=""height:400px;""></stim_listA>",,html-keyboard-response,259,1902406,0.0-17.0-1.8,89021,List1A,black,man,,,,null,,,,
null,are playing with each other,,html-keyboard-response,260,1904407,0.0-17.0-2.8,89021,List1A,black,man,,,,null,,,,
15893,,,survey-text,261,1920302,0.0-17.0-3.8,89021,List1A,black,man,,,,,"{""Q0"":""ruth and luke are playing with each other""}","<img src=""stim_listA/play4.gif""style=""height:400px;""></stim_listA>",are playing with each other,
null,"<div style=""font-size:60px;"">+</div>",,html-keyboard-response,262,1920803,0.0-17.0-0.9,89021,List1A,black,man,,,,null,,,,
null,"<img src=""stim_listA/argue4.gif""style=""height:400px;""></stim_listA>",,html-keyboard-response,263,1922805,0.0-17.0-1.9,89021,List1A,black,man,,,,null,,,,
null,are arguing with each other,,html-keyboard-response,264,1924806,0.0-17.0-2.9,89021,List1A,black,man,,,,null,,,,
12696,,,survey-text,265,1937504,0.0-17.0-3.9,89021,List1A,black,man,,,,,"{""Q0"":""jane and luke are arguing with each other""}","<img src=""stim_listA/argue4.gif""style=""height:400px;""></stim_listA>",are arguing with each other,
null,"<div style=""font-size:60px;"">+</div>",,html-keyboard-response,266,1938006,0.0-17.0-0.10,89021,List1A,black,man,,,,null,,,,
null,"<img src=""stim_listA/marry8.gif""style=""height:400px;""></stim_listA>",,html-keyboard-response,267,1940007,0.0-17.0-1.10,89021,List1A,black,man,,,,null,,,,
null,are marrying each other,,html-keyboard-response,268,1942008,0.0-17.0-2.10,89021,List1A,black,man,,,,null,,,,
7769,,,survey-text,269,1949779,0.0-17.0-3.10,89021,List1A,black,man,,,,,"{""Q0"":""jane and beth are marrying each other""}","<img src=""stim_listA/marry8.gif""style=""height:400px;""></stim_listA>",are marrying each other,
null,"<div style=""font-size:60px;"">+</div>",,html-keyboard-response,270,1950280,0.0-17.0-0.11,89021,List1A,black,man,,,,null,,,,
null,"<img src=""stim_listA/play1.gif""style=""height:400px;""></stim_listA>",,html-keyboard-response,271,1952282,0.0-17.0-1.11,89021,List1A,black,man,,,,null,,,,
null,is playing with,,html-keyboard-response,272,1954284,0.0-17.0-2.11,89021,List1A,black,man,,,,null,,,,
8916,,,survey-text,273,1963201,0.0-17.0-3.11,89021,List1A,black,man,,,,,"{""Q0"":""mike and kate is playing with each other""}","<img src=""stim_listA/play1.gif""style=""height:400px;""></stim_listA>",is playing with,
null,"<div style=""font-size:60px;"">+</div>",,html-keyboard-response,274,1963702,0.0-17.0-0.12,89021,List1A,black,man,,,,null,,,,
null,"<img src=""stim_listA/marry3.gif""style=""height:400px;""></stim_listA>",,html-keyboard-response,275,1965703,0.0-17.0-1.12,89021,List1A,black,man,,,,null,,,,
null,is marrying,,html-keyboard-response,276,1967704,0.0-17.0-2.12,89021,List1A,black,man,,,,null,,,,
8988,,,survey-text,277,1976693,0.0-17.0-3.12,89021,List1A,black,man,,,,,"{""Q0"":""ruth and dave is marrying each other""}","<img src=""stim_listA/marry3.gif""style=""height:400px;""></stim_listA>",is marrying,
null,"<div style=""font-size:60px;"">+</div>",,html-keyboard-response,278,1977195,0.0-17.0-0.13,89021,List1A,black,man,,,,null,,,,
null,"<img src=""stim_listA/play2.gif""style=""height:400px;""></stim_listA>",,html-keyboard-response,279,1979196,0.0-17.0-1.13,89021,List1A,black,man,,,,null,,,,
null,are playing with each other,,html-keyboard-response,280,1981197,0.0-17.0-2.13,89021,List1A,black,man,,,,null,,,,
12458,,,survey-text,281,1993657,0.0-17.0-3.13,89021,List1A,black,man,,,,,"{""Q0"":""beth and fred is playing with each other""}","<img src=""stim_listA/play2.gif""style=""height:400px;""></stim_listA>",are playing with each other,
null,"<div style=""font-size:60px;"">+</div>",,html-keyboard-response,282,1994158,0.0-17.0-0.14,89021,List1A,black,man,,,,null,,,,
null,"<img src=""stim_listA/fight5.gif""style=""height:400px;""></stim_listA>",,html-keyboard-response,283,1996160,0.0-17.0-1.14,89021,List1A,black,man,,,,null,,,,
null,is fighting,,html-keyboard-response,284,1998162,0.0-17.0-2.14,89021,List1A,black,man,,,,null,,,,
7392,,,survey-text,285,2005554,0.0-17.0-3.14,89021,List1A,black,man,,,,,"{""Q0"":""dave and mike is fighting each other""}","<img src=""stim_listA/fight5.gif""style=""height:400px;""></stim_listA>",is fighting,
null,"<div style=""font-size:60px;"">+</div>",,html-keyboard-response,286,2006056,0.0-17.0-0.15,89021,List1A,black,man,,,,null,,,,
null,"<img src=""stim_listA/flirt4.gif""style=""height:400px;""></stim_listA>",,html-keyboard-response,287,2008057,0.0-17.0-1.15,89021,List1A,black,man,,,,null,,,,
null,are flirting with each other,,html-keyboard-response,288,2010059,0.0-17.0-2.15,89021,List1A,black,man,,,,null,,,,
14298,,,survey-text,289,2024357,0.0-17.0-3.15,89021,List1A,black,man,,,,,"{""Q0"":""ruth and dave is flirting with each other""}","<img src=""stim_listA/flirt4.gif""style=""height:400px;""></stim_listA>",are flirting with each other,
null,"<div style=""font-size:60px;"">+</div>",,html-keyboard-response,290,2024859,0.0-17.0-0.16,89021,List1A,black,man,,,,null,,,,
null,"<img src=""stim_listA/kiss2.gif""style=""height:400px;""></stim_listA>",,html-keyboard-response,291,2026860,0.0-17.0-1.16,89021,List1A,black,man,,,,null,,,,
null,are kissing each other,,html-keyboard-response,292,2028862,0.0-17.0-2.16,89021,List1A,black,man,,,,null,,,,
8622,,,survey-text,293,2037486,0.0-17.0-3.16,89021,List1A,black,man,,,,,"{""Q0"":""kate and mike are kissing each other""}","<img src=""stim_listA/kiss2.gif""style=""height:400px;""></stim_listA>",are kissing each other,
null,"<div style=""font-size:60px;"">+</div>",,html-keyboard-response,294,2037988,0.0-17.0-0.17,89021,List1A,black,man,,,,null,,,,
null,"<img src=""stim_listA/fight6.gif""style=""height:400px;""></stim_listA>",,html-keyboard-response,295,2039989,0.0-17.0-1.17,89021,List1A,black,man,,,,null,,,,
null,are fighting each other,,html-keyboard-response,296,2041990,0.0-17.0-2.17,89021,List1A,black,man,,,,null,,,,
10021,,,survey-text,297,2052013,0.0-17.0-3.17,89021,List1A,black,man,,,,,"{""Q0"":""fred and luke are fighting each other""}","<img src=""stim_listA/fight6.gif""style=""height:400px;""></stim_listA>",are fighting each other,
null,"<div style=""font-size:60px;"">+</div>",,html-keyboard-response,298,2052514,0.0-17.0-0.18,89021,List1A,black,man,,,,null,,,,
null,"<img src=""stim_listA/kiss8.gif""style=""height:400px;""></stim_listA>",,html-keyboard-response,299,2054516,0.0-17.0-1.18,89021,List1A,black,man,,,,null,,,,
null,are kissing each other,,html-keyboard-response,300,2056517,0.0-17.0-2.18,89021,List1A,black,man,,,,null,,,,
9459,,,survey-text,301,2065976,0.0-17.0-3.18,89021,List1A,black,man,,,,,"{""Q0"":""jane and kate are kissing each other""}","<img src=""stim_listA/kiss8.gif""style=""height:400px;""></stim_listA>",are kissing each other,
null,"<div style=""font-size:60px;"">+</div>",,html-keyboard-response,302,2066478,0.0-17.0-0.19,89021,List1A,black,man,,,,null,,,,
null,"<img src=""stim_listA/marry5.gif""style=""height:400px;""></stim_listA>",,html-keyboard-response,303,2068480,0.0-17.0-1.19,89021,List1A,black,man,,,,null,,,,
null,is marrying,,html-keyboard-response,304,2070481,0.0-17.0-2.19,89021,List1A,black,man,,,,null,,,,
17904,,,survey-text,305,2088386,0.0-17.0-3.19,89021,List1A,black,man,,,,,"{""Q0"":""mike and luke are marrying each other""}","<img src=""stim_listA/marry5.gif""style=""height:400px;""></stim_listA>",is marrying,
6418,"<img src='img/portrait_matrix_list1.jpg' style='width:900px;height:500px;''></img><p>If you have memorised all the portraits and names and are ready to start, press Continue.</p><p><strong>Please note: Your memory of these faces will be tested 4 times during this experiment.</strong></p>",0,html-button-response,306,2094807,0.0-18.0-0.0,89021,List1A,black,man,,,,,,,,
4693,"<img src=""portrait/BM1.jpg""style=""height:400px;""></img>",4,html-button-response,307,2100502,0.0-18.0-1.0,89021,List1A,black,man,,TRUE,4,,,,,
null,CORRECT,,html-keyboard-response,308,2102004,0.0-18.0-2.0-0.0,89021,List1A,black,man,,,,null,,,,
2310,"<img src=""portrait/BM2.jpg""style=""height:400px;""></img>",5,html-button-response,309,2104316,0.0-18.0-4.0,89021,List1A,black,man,,TRUE,5,,,,,
null,CORRECT,,html-keyboard-response,310,2105819,0.0-18.0-5.0-0.0,89021,List1A,black,man,,,,null,,,,
2434,"<img src=""portrait/WM1.jpg""style=""height:400px;""></img>",6,html-button-response,311,2108254,0.0-18.0-7.0,89021,List1A,black,man,,TRUE,6,,,,,
null,CORRECT,,html-keyboard-response,312,2109756,0.0-18.0-8.0-0.0,89021,List1A,black,man,,,,null,,,,
2515,"<img src=""portrait/BW2.jpg""style=""height:400px;""></img>",2,html-button-response,313,2112273,0.0-18.0-10.0,89021,List1A,black,man,,TRUE,2,,,,,
null,CORRECT,,html-keyboard-response,314,2113775,0.0-18.0-11.0-0.0,89021,List1A,black,man,,,,null,,,,
3128,"<img src=""portrait/WW2.jpg""style=""height:400px;""></img>",3,html-button-response,315,2116905,0.0-18.0-13.0,89021,List1A,black,man,,TRUE,3,,,,,
null,CORRECT,,html-keyboard-response,316,2118407,0.0-18.0-14.0-0.0,89021,List1A,black,man,,,,null,,,,
2058,"<img src=""portrait/WM2.jpg""style=""height:400px;""></img>",7,html-button-response,317,2120466,0.0-18.0-16.0,89021,List1A,black,man,,TRUE,7,,,,,
null,CORRECT,,html-keyboard-response,318,2121968,0.0-18.0-17.0-0.0,89021,List1A,black,man,,,,null,,,,
1984,"<img src=""portrait/WW1.jpg""style=""height:400px;""></img>",1,html-button-response,319,2123954,0.0-18.0-19.0,89021,List1A,black,man,,TRUE,1,,,,,
null,CORRECT,,html-keyboard-response,320,2125457,0.0-18.0-20.0-0.0,89021,List1A,black,man,,,,null,,,,
2335,"<img src=""portrait/BW1.jpg""style=""height:400px;""></img>",0,html-button-response,321,2127793,0.0-18.0-22.0,89021,List1A,black,man,,TRUE,0,,,,,
null,CORRECT,,html-keyboard-response,322,2129295,0.0-18.0-23.0-0.0,89021,List1A,black,man,,,,null,,,,
1831,<p>You got 8 out of 8 right first time. Press Continue.</p>,0,html-button-response,323,2131127,0.0-18.0-25.0,89021,List1A,black,man,,,,,,,,
null,"<div style=""font-size:60px;"">+</div>",,html-keyboard-response,324,2132629,0.0-19.0-0.0,89021,List1A,black,man,,,,null,,,,
null,"<img src=""stim_listA/flirt2.gif""style=""height:400px;""></stim_listA>",,html-keyboard-response,325,2134632,0.0-19.0-1.0,89021,List1A,black,man,,,,null,,,,
null,are flirting with each other,,html-keyboard-response,326,2136633,0.0-19.0-2.0,89021,List1A,black,man,,,,null,,,,
11077,,,survey-text,327,2147711,0.0-19.0-3.0,89021,List1A,black,man,,,,,"{""Q0"":""beth and mike are flirting with each other""}","<img src=""stim_listA/flirt2.gif""style=""height:400px;""></stim_listA>",are flirting with each other,
null,"<div style=""font-size:60px;"">+</div>",,html-keyboard-response,328,2148214,0.0-19.0-0.1,89021,List1A,black,man,,,,null,,,,
null,"<img src=""stim_listA/marry2.gif""style=""height:400px;""></stim_listA>",,html-keyboard-response,329,2150216,0.0-19.0-1.1,89021,List1A,black,man,,,,null,,,,
null,are marrying each other,,html-keyboard-response,330,2152217,0.0-19.0-2.1,89021,List1A,black,man,,,,null,,,,
8486,,,survey-text,331,2160704,0.0-19.0-3.1,89021,List1A,black,man,,,,,"{""Q0"":""kate and fred are marrying each other""}","<img src=""stim_listA/marry2.gif""style=""height:400px;""></stim_listA>",are marrying each other,
null,"<div style=""font-size:60px;"">+</div>",,html-keyboard-response,332,2161206,0.0-19.0-0.2,89021,List1A,black,man,,,,null,,,,
null,"<img src=""stim_listA/shout2.gif""style=""height:400px;""></stim_listA>",,html-keyboard-response,333,2163208,0.0-19.0-1.2,89021,List1A,black,man,,,,null,,,,
null,are shouting at each other,,html-keyboard-response,334,2165209,0.0-19.0-2.2,89021,List1A,black,man,,,,null,,,,
12920,,,survey-text,335,2178130,0.0-19.0-3.2,89021,List1A,black,man,,,,,"{""Q0"":""kate and mike are shouting at each other""}","<img src=""stim_listA/shout2.gif""style=""height:400px;""></stim_listA>",are shouting at each other,
null,"<div style=""font-size:60px;"">+</div>",,html-keyboard-response,336,2178632,0.0-19.0-0.3,89021,List1A,black,man,,,,null,,,,
null,"<img src=""stim_listA/argue1.gif""style=""height:400px;""></stim_listA>",,html-keyboard-response,337,2180633,0.0-19.0-1.3,89021,List1A,black,man,,,,null,,,,
null,is arguing with,,html-keyboard-response,338,2182634,0.0-19.0-2.3,89021,List1A,black,man,,,,null,,,,
10112,,,survey-text,339,2192747,0.0-19.0-3.3,89021,List1A,black,man,,,,,"{""Q0"":""mike and beth is arguing with each other""}","<img src=""stim_listA/argue1.gif""style=""height:400px;""></stim_listA>",is arguing with,
null,"<div style=""font-size:60px;"">+</div>",,html-keyboard-response,340,2193250,0.0-19.0-0.4,89021,List1A,black,man,,,,null,,,,
null,"<img src=""stim_listA/kiss3.gif""style=""height:400px;""></stim_listA>",,html-keyboard-response,341,2195253,0.0-19.0-1.4,89021,List1A,black,man,,,,null,,,,
null,is kissing,,html-keyboard-response,342,2197254,0.0-19.0-2.4,89021,List1A,black,man,,,,null,,,,
8401,,,survey-text,343,2205657,0.0-19.0-3.4,89021,List1A,black,man,,,,,"{""Q0"":""luke and ruth is kissing each other""}","<img src=""stim_listA/kiss3.gif""style=""height:400px;""></stim_listA>",is kissing,
null,"<div style=""font-size:60px;"">+</div>",,html-keyboard-response,344,2206158,0.0-19.0-0.5,89021,List1A,black,man,,,,null,,,,
null,"<img src=""stim_listA/shout5.gif""style=""height:400px;""></stim_listA>",,html-keyboard-response,345,2208159,0.0-19.0-1.5,89021,List1A,black,man,,,,null,,,,
null,is shouting at,,html-keyboard-response,346,2210160,0.0-19.0-2.5,89021,List1A,black,man,,,,null,,,,
43229,,,survey-text,347,2253391,0.0-19.0-3.5,89021,List1A,black,man,,,,,"{""Q0"":""luke and fred are shouting at each other""}","<img src=""stim_listA/shout5.gif""style=""height:400px;""></stim_listA>",is shouting at,
null,"<div style=""font-size:60px;"">+</div>",,html-keyboard-response,348,2253893,0.0-19.0-0.6,89021,List1A,black,man,,,,null,,,,
null,"<img src=""stim_listA/touch7.gif""style=""height:400px;""></stim_listA>",,html-keyboard-response,349,2255895,0.0-19.0-1.6,89021,List1A,black,man,,,,null,,,,
null,is touching,,html-keyboard-response,350,2257896,0.0-19.0-2.6,89021,List1A,black,man,,,,null,,,,
11371,,,survey-text,351,2269268,0.0-19.0-3.6,89021,List1A,black,man,,,,,"{""Q0"":""kate and jane is touching each other""}","<img src=""stim_listA/touch7.gif""style=""height:400px;""></stim_listA>",is touching,
null,"<div style=""font-size:60px;"">+</div>",,html-keyboard-response,352,2269769,0.0-19.0-0.7,89021,List1A,black,man,,,,null,,,,
null,"<img src=""stim_listA/argue5.gif""style=""height:400px;""></stim_listA>",,html-keyboard-response,353,2271771,0.0-19.0-1.7,89021,List1A,black,man,,,,null,,,,
null,is arguing with,,html-keyboard-response,354,2273772,0.0-19.0-2.7,89021,List1A,black,man,,,,null,,,,
8344,,,survey-text,355,2282117,0.0-19.0-3.7,89021,List1A,black,man,,,,,"{""Q0"":""mike and luke is arguing with each other""}","<img src=""stim_listA/argue5.gif""style=""height:400px;""></stim_listA>",is arguing with,
null,"<div style=""font-size:60px;"">+</div>",,html-keyboard-response,356,2282619,0.0-19.0-0.8,89021,List1A,black,man,,,,null,,,,
null,"<img src=""stim_listA/talk7.gif""style=""height:400px;""></stim_listA>",,html-keyboard-response,357,2284621,0.0-19.0-1.8,89021,List1A,black,man,,,,null,,,,
null,is talking to,,html-keyboard-response,358,2286622,0.0-19.0-2.8,89021,List1A,black,man,,,,null,,,,
9901,,,survey-text,359,2296524,0.0-19.0-3.8,89021,List1A,black,man,,,,,"{""Q0"":""beth and jane is talking to each other""}","<img src=""stim_listA/talk7.gif""style=""height:400px;""></stim_listA>",is talking to,
null,"<div style=""font-size:60px;"">+</div>",,html-keyboard-response,360,2297026,0.0-19.0-0.9,89021,List1A,black,man,,,,null,,,,
null,"<img src=""stim_listA/fight3.gif""style=""height:400px;""></stim_listA>",,html-keyboard-response,361,2299028,0.0-19.0-1.9,89021,List1A,black,man,,,,null,,,,
null,is fighting,,html-keyboard-response,362,2301030,0.0-19.0-2.9,89021,List1A,black,man,,,,null,,,,
9704,,,survey-text,363,2310735,0.0-19.0-3.9,89021,List1A,black,man,,,,,"{""Q0"":""dave and jane is fighting each other""}","<img src=""stim_listA/fight3.gif""style=""height:400px;""></stim_listA>",is fighting,
null,"<div style=""font-size:60px;"">+</div>",,html-keyboard-response,364,2311237,0.0-19.0-0.10,89021,List1A,black,man,,,,null,,,,
null,"<img src=""stim_listA/touch1.gif""style=""height:400px;""></stim_listA>",,html-keyboard-response,365,2313239,0.0-19.0-1.10,89021,List1A,black,man,,,,null,,,,
null,is touching,,html-keyboard-response,366,2315240,0.0-19.0-2.10,89021,List1A,black,man,,,,null,,,,
9049,,,survey-text,367,2324291,0.0-19.0-3.10,89021,List1A,black,man,,,,,"{""Q0"":""mike and kate is touching each other""}","<img src=""stim_listA/touch1.gif""style=""height:400px;""></stim_listA>",is touching,
null,"<div style=""font-size:60px;"">+</div>",,html-keyboard-response,368,2324792,0.0-19.0-0.11,89021,List1A,black,man,,,,null,,,,
null,"<img src=""stim_listA/argue7.gif""style=""height:400px;""></stim_listA>",,html-keyboard-response,369,2326795,0.0-19.0-1.11,89021,List1A,black,man,,,,null,,,,
null,is arguing with,,html-keyboard-response,370,2328796,0.0-19.0-2.11,89021,List1A,black,man,,,,null,,,,
11337,,,survey-text,371,2340135,0.0-19.0-3.11,89021,List1A,black,man,,,,,"{""Q0"":""kate and ruth is arguing with each other""}","<img src=""stim_listA/argue7.gif""style=""height:400px;""></stim_listA>",is arguing with,
null,"<div style=""font-size:60px;"">+</div>",,html-keyboard-response,372,2340637,0.0-19.0-0.12,89021,List1A,black,man,,,,null,,,,
null,"<img src=""stim_listA/fight4.gif""style=""height:400px;""></stim_listA>",,html-keyboard-response,373,2342638,0.0-19.0-1.12,89021,List1A,black,man,,,,null,,,,
null,are fighting each other,,html-keyboard-response,374,2344640,0.0-19.0-2.12,89021,List1A,black,man,,,,null,,,,
9909,,,survey-text,375,2354549,0.0-19.0-3.12,89021,List1A,black,man,,,,,"{""Q0"":""ruth and luke are fighting each other""}","<img src=""stim_listA/fight4.gif""style=""height:400px;""></stim_listA>",are fighting each other,
null,"<div style=""font-size:60px;"">+</div>",,html-keyboard-response,376,2355050,0.0-19.0-0.13,89021,List1A,black,man,,,,null,,,,
null,"<img src=""stim_listA/marry1.gif""style=""height:400px;""></stim_listA>",,html-keyboard-response,377,2357052,0.0-19.0-1.13,89021,List1A,black,man,,,,null,,,,
null,is marrying,,html-keyboard-response,378,2359053,0.0-19.0-2.13,89021,List1A,black,man,,,,null,,,,
7893,,,survey-text,379,2366947,0.0-19.0-3.13,89021,List1A,black,man,,,,,"{""Q0"":""mike and beth is marrying each other""}","<img src=""stim_listA/marry1.gif""style=""height:400px;""></stim_listA>",is marrying,
null,"<div style=""font-size:60px;"">+</div>",,html-keyboard-response,380,2367449,0.0-19.0-0.14,89021,List1A,black,man,,,,null,,,,
null,"<img src=""stim_listA/play6.gif""style=""height:400px;""></stim_listA>",,html-keyboard-response,381,2369451,0.0-19.0-1.14,89021,List1A,black,man,,,,null,,,,
null,are playing with each other,,html-keyboard-response,382,2371452,0.0-19.0-2.14,89021,List1A,black,man,,,,null,,,,
11742,,,survey-text,383,2383196,0.0-19.0-3.14,89021,List1A,black,man,,,,,"{""Q0"":""luke and fred are playing with each other""}","<img src=""stim_listA/play6.gif""style=""height:400px;""></stim_listA>",are playing with each other,
null,"<div style=""font-size:60px;"">+</div>",,html-keyboard-response,384,2383697,0.0-19.0-0.15,89021,List1A,black,man,,,,null,,,,
null,"<img src=""stim_listA/talk2.gif""style=""height:400px;""></stim_listA>",,html-keyboard-response,385,2385699,0.0-19.0-1.15,89021,List1A,black,man,,,,null,,,,
null,are talking to each other,,html-keyboard-response,386,2387701,0.0-19.0-2.15,89021,List1A,black,man,,,,null,,,,
16027,,,survey-text,387,2403729,0.0-19.0-3.15,89021,List1A,black,man,,,,,"{""Q0"":""beth and mike are talking to each other""}","<img src=""stim_listA/talk2.gif""style=""height:400px;""></stim_listA>",are talking to each other,
null,"<div style=""font-size:60px;"">+</div>",,html-keyboard-response,388,2404230,0.0-19.0-0.16,89021,List1A,black,man,,,,null,,,,
null,"<img src=""stim_listA/touch6.gif""style=""height:400px;""></stim_listA>",,html-keyboard-response,389,2406233,0.0-19.0-1.16,89021,List1A,black,man,,,,null,,,,
null,are touching each other,,html-keyboard-response,390,2408234,0.0-19.0-2.16,89021,List1A,black,man,,,,null,,,,
9711,,,survey-text,391,2417947,0.0-19.0-3.16,89021,List1A,black,man,,,,,"{""Q0"":""luke and fred are touching each other""}","<img src=""stim_listA/touch6.gif""style=""height:400px;""></stim_listA>",are touching each other,
null,"<div style=""font-size:60px;"">+</div>",,html-keyboard-response,392,2418448,0.0-19.0-0.17,89021,List1A,black,man,,,,null,,,,
null,"<img src=""stim_listA/shout4.gif""style=""height:400px;""></stim_listA>",,html-keyboard-response,393,2420450,0.0-19.0-1.17,89021,List1A,black,man,,,,null,,,,
null,are shouting at each other,,html-keyboard-response,394,2422452,0.0-19.0-2.17,89021,List1A,black,man,,,,null,,,,
29539,,,survey-text,395,2451992,0.0-19.0-3.17,89021,List1A,black,man,,,,,"{""Q0"":""dave and jane are shouting at each other""}","<img src=""stim_listA/shout4.gif""style=""height:400px;""></stim_listA>",are shouting at each other,
null,"<div style=""font-size:60px;"">+</div>",,html-keyboard-response,396,2452494,0.0-19.0-0.18,89021,List1A,black,man,,,,null,,,,
null,"<img src=""stim_listA/marry6.gif""style=""height:400px;""></stim_listA>",,html-keyboard-response,397,2454496,0.0-19.0-1.18,89021,List1A,black,man,,,,null,,,,
null,are marrying each other,,html-keyboard-response,398,2456497,0.0-19.0-2.18,89021,List1A,black,man,,,,null,,,,
12168,,,survey-text,399,2468666,0.0-19.0-3.18,89021,List1A,black,man,,,,,"{""Q0"":""dave and fred are marrying each other""}","<img src=""stim_listA/marry6.gif""style=""height:400px;""></stim_listA>",are marrying each other,
null,"<div style=""font-size:60px;"">+</div>",,html-keyboard-response,400,2469168,0.0-19.0-0.19,89021,List1A,black,man,,,,null,,,,
null,"<img src=""stim_listA/flirt6.gif""style=""height:400px;""></stim_listA>",,html-keyboard-response,401,2471170,0.0-19.0-1.19,89021,List1A,black,man,,,,null,,,,
null,are flirting with each other,,html-keyboard-response,402,2473171,0.0-19.0-2.19,89021,List1A,black,man,,,,null,,,,
14828,,,survey-text,403,2488000,0.0-19.0-3.19,89021,List1A,black,man,,,,,"{""Q0"":""luke and mike are flirting with each other""}","<img src=""stim_listA/flirt6.gif""style=""height:400px;""></stim_listA>",are flirting with each other,
19,<p>Thank you for completing that task.</p><p>The final part of this session is a short questionnaire.</p><p>Press Continue.</p>,0,html-button-response,404,2488020,0.0-20.0,89021,List1A,black,man,,,,,,,,
45787,,,survey-text,405,2534810,0.0-21.0,89021,List1A,black,man,,,,,"{""Q0"":""28"",""Q1"":""English"",""Q2"":""English"",""Q3"":""United Kingdom"",""Q4"":""Black British"",""Q5"":""Male""}",,,demographics
11518,,,survey-likert,406,2546333,0.0-22.0,89021,List1A,black,man,,,,,"{""Q0"":4}",,,likert_ESS
16174,,,survey-likert,407,2562508,0.0-23.0,89021,List1A,black,man,,,,,"{""Q0"":3}",,,likert_NSSAL_Q1
6224,,,survey-likert,408,2568736,0.0-24.0,89021,List1A,black,man,,,,,"{""Q0"":3}",,,likert_NSSAL_Q2
8640,,,survey-likert,409,2577379,0.0-25.0,89021,List1A,black,man,,,,,"{""Q0"":4}",,,likert_CGRS_Q1
5981,,,survey-likert,410,2583363,0.0-26.0,89021,List1A,black,man,,,,,"{""Q0"":4}",,,likert_CGRS_Q2
2974,,,survey-likert,411,2586340,0.0-27.0,89021,List1A,black,man,,,,,"{""Q0"":4}",,,likert_CGRS_Q3
13182,,,survey-text,412,2599525,0.0-28.0,89021,List1A,black,man,,,,,"{""Q0"":""ccc""}",,,worker_id
8318,,,external-html,413,2607989,0.0-29.0,89021,List1A,black,man,debrief.html,,,,,,,
