rt,stimulus,button_pressed,trial_type,trial_index,time_elapsed,internal_node_id,subject,list,ppt_race,ppt_gender,url,first_guess,correct,key_press,responses,image_type,phrase_type,test_part
1265,Welcome to the experiment. Press Continue to begin.,0,html-button-response,0,1269,0.0-0.0,89400,List2B,white,woman,,,,,,,,
38034,,,external-html,1,40334,0.0-1.0,89400,List2B,white,woman,consent.html,,,,,,,
28389,"<p>On the next page, you will see portraits of 8 people and their names.</p><p>Your first task is to take a few minutes to memorise the names of these people.</p><p>You will have to recall their names during the rest of the experiment, so it is</p><p>essential that you try to memorise these people and their names as best as you can.</p><br><p><strong>You will then be tested on your memory of these names and portraits.</strong></p><br><p>The experiment will start after you have completed this memory test.</p><br><p>Ready?</p>",0,html-button-response,2,68725,0.0-2.0,89400,List2B,white,woman,,,,,,,,
50588,"<img src='img/portrait_matrix_list2.jpg' style='width:900px;height:500px;''></img><p>If you have memorised all the portraits and names and are ready to start, press Continue.</p><p><strong>Please note: Your memory of these faces will be tested 4 times during this experiment.</strong></p>",0,html-button-response,3,120318,0.0-3.0-0.0,89400,List2B,white,woman,,,,,,,,
1961,"<img src=""portrait/WM2.jpg""style=""height:400px;""></img>",7,html-button-response,4,123283,0.0-3.0-1.0,89400,List2B,white,woman,,TRUE,7,,,,,
null,CORRECT,,html-keyboard-response,5,124792,0.0-3.0-2.0-0.0,89400,List2B,white,woman,,,,null,,,,
2557,"<img src=""portrait/WW1.jpg""style=""height:400px;""></img>",3,html-button-response,6,127351,0.0-3.0-4.0,89400,List2B,white,woman,,TRUE,1,,,,,
3432,"<img src=""portrait/WW1.jpg""style=""height:400px;""></img>",1,html-button-response,7,131788,0.0-3.0-6.0-0.0,89400,List2B,white,woman,,FALSE,1,,,,,
null,CORRECT,,html-keyboard-response,8,133294,0.0-3.0-6.0-1.0-0.0,89400,List2B,white,woman,,,,null,,,,
2655,"<img src=""portrait/WM1.jpg""style=""height:400px;""></img>",6,html-button-response,9,135951,0.0-3.0-7.0,89400,List2B,white,woman,,TRUE,6,,,,,
null,CORRECT,,html-keyboard-response,10,137451,0.0-3.0-8.0-0.0,89400,List2B,white,woman,,,,null,,,,
6090,"<img src=""portrait/BW2.jpg""style=""height:400px;""></img>",3,html-button-response,11,143544,0.0-3.0-10.0,89400,List2B,white,woman,,TRUE,2,,,,,
1323,"<img src=""portrait/BW2.jpg""style=""height:400px;""></img>",2,html-button-response,12,145870,0.0-3.0-12.0-0.0,89400,List2B,white,woman,,FALSE,2,,,,,
null,CORRECT,,html-keyboard-response,13,147377,0.0-3.0-12.0-1.0-0.0,89400,List2B,white,woman,,,,null,,,,
1786,"<img src=""portrait/BW1.jpg""style=""height:400px;""></img>",0,html-button-response,14,149164,0.0-3.0-13.0,89400,List2B,white,woman,,TRUE,0,,,,,
null,CORRECT,,html-keyboard-response,15,150666,0.0-3.0-14.0-0.0,89400,List2B,white,woman,,,,null,,,,
2298,"<img src=""portrait/WW2.jpg""style=""height:400px;""></img>",3,html-button-response,16,152968,0.0-3.0-16.0,89400,List2B,white,woman,,TRUE,3,,,,,
null,CORRECT,,html-keyboard-response,17,154474,0.0-3.0-17.0-0.0,89400,List2B,white,woman,,,,null,,,,
1492,"<img src=""portrait/BM2.jpg""style=""height:400px;""></img>",5,html-button-response,18,155967,0.0-3.0-19.0,89400,List2B,white,woman,,TRUE,5,,,,,
null,CORRECT,,html-keyboard-response,19,157474,0.0-3.0-20.0-0.0,89400,List2B,white,woman,,,,null,,,,
2556,"<img src=""portrait/BM1.jpg""style=""height:400px;""></img>",4,html-button-response,20,160032,0.0-3.0-22.0,89400,List2B,white,woman,,TRUE,4,,,,,
null,CORRECT,,html-keyboard-response,21,161536,0.0-3.0-23.0-0.0,89400,List2B,white,woman,,,,null,,,,
1797,<p>You got 6 out of 8 right first time. Press Continue.</p>,0,html-button-response,22,163335,0.0-3.0-25.0,89400,List2B,white,woman,,,,,,,,
2465,"As you did not score 100%, the memory game will repeat. Press Continue.",0,html-button-response,23,166804,0.0-3.0-26.0-0.0,89400,List2B,white,woman,,,,,,,,
14336,"<img src='img/portrait_matrix_list2.jpg' style='width:900px;height:500px;''></img><p>If you have memorised all the portraits and names and are ready to start, press Continue.</p><p><strong>Please note: Your memory of these faces will be tested 4 times during this experiment.</strong></p>",0,html-button-response,24,182142,0.0-3.1-0.1,89400,List2B,white,woman,,,,,,,,
1350,"<img src=""portrait/WM2.jpg""style=""height:400px;""></img>",7,html-button-response,25,184497,0.0-3.1-1.1,89400,List2B,white,woman,,TRUE,7,,,,,
null,CORRECT,,html-keyboard-response,26,185998,0.0-3.1-2.1-0.1,89400,List2B,white,woman,,,,null,,,,
2052,"<img src=""portrait/WW1.jpg""style=""height:400px;""></img>",1,html-button-response,27,188053,0.0-3.1-4.1,89400,List2B,white,woman,,TRUE,1,,,,,
null,CORRECT,,html-keyboard-response,28,189554,0.0-3.1-5.1-0.1,89400,List2B,white,woman,,,,null,,,,
1555,"<img src=""portrait/WM1.jpg""style=""height:400px;""></img>",6,html-button-response,29,191110,0.0-3.1-7.1,89400,List2B,white,woman,,TRUE,6,,,,,
null,CORRECT,,html-keyboard-response,30,192616,0.0-3.1-8.1-0.1,89400,List2B,white,woman,,,,null,,,,
1518,"<img src=""portrait/BW2.jpg""style=""height:400px;""></img>",2,html-button-response,31,194134,0.0-3.1-10.1,89400,List2B,white,woman,,TRUE,2,,,,,
null,CORRECT,,html-keyboard-response,32,195640,0.0-3.1-11.1-0.1,89400,List2B,white,woman,,,,null,,,,
1354,"<img src=""portrait/BW1.jpg""style=""height:400px;""></img>",0,html-button-response,33,196996,0.0-3.1-13.1,89400,List2B,white,woman,,TRUE,0,,,,,
null,CORRECT,,html-keyboard-response,34,198499,0.0-3.1-14.1-0.1,89400,List2B,white,woman,,,,null,,,,
1154,"<img src=""portrait/WW2.jpg""style=""height:400px;""></img>",3,html-button-response,35,199655,0.0-3.1-16.1,89400,List2B,white,woman,,TRUE,3,,,,,
null,CORRECT,,html-keyboard-response,36,201163,0.0-3.1-17.1-0.1,89400,List2B,white,woman,,,,null,,,,
1272,"<img src=""portrait/BM2.jpg""style=""height:400px;""></img>",5,html-button-response,37,202436,0.0-3.1-19.1,89400,List2B,white,woman,,TRUE,5,,,,,
null,CORRECT,,html-keyboard-response,38,203944,0.0-3.1-20.1-0.1,89400,List2B,white,woman,,,,null,,,,
1582,"<img src=""portrait/BM1.jpg""style=""height:400px;""></img>",4,html-button-response,39,205526,0.0-3.1-22.1,89400,List2B,white,woman,,TRUE,4,,,,,
null,CORRECT,,html-keyboard-response,40,207032,0.0-3.1-23.1-0.1,89400,List2B,white,woman,,,,null,,,,
1943,<p>You got 8 out of 8 right first time. Press Continue.</p>,0,html-button-response,41,208976,0.0-3.1-25.1,89400,List2B,white,woman,,,,,,,,
37526,"<p>In this experiment, you will view photographs of the people from the memory game interacting.</p><p>By using the <strong>exact</strong> phrase given <i>after</i> the photograph appears and recalling the correct names of the people in the photographs, form a sentence describing the interaction. You do not need to capitalise names.</p><p>Type your answer in the space provided. Please complete every sentence before moving onto the next trial.</p><p>You will only have a few seconds to memorise each given photograph and phrase before you can respond, so try your best to focus.</p><p>An example is given below. Press 'Continue' when you are ready.</p><img src='img/speaking_example.jpg' style='width:800px;height:460px;''></img>",0,html-button-response,42,247507,0.0-4.0,89400,List2B,white,woman,,,,,,,,
1844,"<p>Before the experiment starts, you will watch two example trials. Press 'Continue'.</p>",0,html-button-response,43,250352,0.0-5.0,89400,List2B,white,woman,,,,,,,,
null,<img src='img/meet_eg.gif' style='height:400px;''></img>,,html-keyboard-response,44,253360,0.0-6.0,89400,List2B,white,woman,,,,null,,,,
null,<p>is meeting</p>,,html-keyboard-response,45,255363,0.0-7.0,89400,List2B,white,woman,,,,null,,,,
2027,<p><b>Answer:</b> jane is meeting ruth</p>,0,html-button-response,46,257390,0.0-8.0,89400,List2B,white,woman,,,,,,,,
null,<img src='img/look_eg.gif' style='height:400px;''></img>,,html-keyboard-response,47,260393,0.0-9.0,89400,List2B,white,woman,,,,null,,,,
null,<p>are looking at each other</p>,,html-keyboard-response,48,262396,0.0-10.0,89400,List2B,white,woman,,,,null,,,,
2208,<p><b>Answer:</b> fred and mike are looking at each other</p>,0,html-button-response,49,264604,0.0-11.0,89400,List2B,white,woman,,,,,,,,
6869,"<p>Ready to start the experiment?</p><br><p><strong>Remember to describe the picture using a full sentence,</strong></p><p><strong>that combines the names of the people with the <i>exact</i> phrase given.</strong></p><p><strong>To receive full payment you must do this correctly.</strong></p><p><strong> You do not need to capitalise names or use punctuation.</strong></p><br><p>Press 'Continue' to begin.</p>",0,html-button-response,50,272474,0.0-12.0,89400,List2B,white,woman,,,,,,,,
null,"<div style=""font-size:60px;"">+</div>",,html-keyboard-response,51,273976,0.0-13.0-0.0,89400,List2B,white,woman,,,,null,,,,
null,"<img src=""stim_listB/touch5.gif""style=""height:400px;""></stim_listB>",,html-keyboard-response,52,275981,0.0-13.0-1.0,89400,List2B,white,woman,,,,null,,,,
null,is touching,,html-keyboard-response,53,277984,0.0-13.0-2.0,89400,List2B,white,woman,,,,null,,,,
9562,,,survey-text,54,287548,0.0-13.0-3.0,89400,List2B,white,woman,,,,,"{""Q0"":""mike is touching dave""}","<img src=""stim_listB/touch5.gif""style=""height:400px;""></stim_listB>",is touching,
null,"<div style=""font-size:60px;"">+</div>",,html-keyboard-response,55,288051,0.0-13.0-0.1,89400,List2B,white,woman,,,,null,,,,
null,"<img src=""stim_listB/fight1.gif""style=""height:400px;""></stim_listB>",,html-keyboard-response,56,290053,0.0-13.0-1.1,89400,List2B,white,woman,,,,null,,,,
null,is fighting,,html-keyboard-response,57,292055,0.0-13.0-2.1,89400,List2B,white,woman,,,,null,,,,
6866,,,survey-text,58,298921,0.0-13.0-3.1,89400,List2B,white,woman,,,,,"{""Q0"":""jane is fighting dave ""}","<img src=""stim_listB/fight1.gif""style=""height:400px;""></stim_listB>",is fighting,
null,"<div style=""font-size:60px;"">+</div>",,html-keyboard-response,59,299422,0.0-13.0-0.2,89400,List2B,white,woman,,,,null,,,,
null,"<img src=""stim_listB/touch8.gif""style=""height:400px;""></stim_listB>",,html-keyboard-response,60,301427,0.0-13.0-1.2,89400,List2B,white,woman,,,,null,,,,
null,are touching each other,,html-keyboard-response,61,303430,0.0-13.0-2.2,89400,List2B,white,woman,,,,null,,,,
5788,,,survey-text,62,309218,0.0-13.0-3.2,89400,List2B,white,woman,,,,,"{""Q0"":""ruth and beth are touching each other ""}","<img src=""stim_listB/touch8.gif""style=""height:400px;""></stim_listB>",are touching each other,
null,"<div style=""font-size:60px;"">+</div>",,html-keyboard-response,63,309719,0.0-13.0-0.3,89400,List2B,white,woman,,,,null,,,,
null,"<img src=""stim_listB/marry2.gif""style=""height:400px;""></stim_listB>",,html-keyboard-response,64,311723,0.0-13.0-1.3,89400,List2B,white,woman,,,,null,,,,
null,are marrying each other,,html-keyboard-response,65,313724,0.0-13.0-2.3,89400,List2B,white,woman,,,,null,,,,
6181,,,survey-text,66,319906,0.0-13.0-3.3,89400,List2B,white,woman,,,,,"{""Q0"":""jane and luke are marrying each other ""}","<img src=""stim_listB/marry2.gif""style=""height:400px;""></stim_listB>",are marrying each other,
null,"<div style=""font-size:60px;"">+</div>",,html-keyboard-response,67,320407,0.0-13.0-0.4,89400,List2B,white,woman,,,,null,,,,
null,"<img src=""stim_listB/shout4.gif""style=""height:400px;""></stim_listB>",,html-keyboard-response,68,322407,0.0-13.0-1.4,89400,List2B,white,woman,,,,null,,,,
null,are shouting at each other,,html-keyboard-response,69,324409,0.0-13.0-2.4,89400,List2B,white,woman,,,,null,,,,
7903,,,survey-text,70,332312,0.0-13.0-3.4,89400,List2B,white,woman,,,,,"{""Q0"":""mike and kate are shouting at each other ""}","<img src=""stim_listB/shout4.gif""style=""height:400px;""></stim_listB>",are shouting at each other,
null,"<div style=""font-size:60px;"">+</div>",,html-keyboard-response,71,332816,0.0-13.0-0.5,89400,List2B,white,woman,,,,null,,,,
null,"<img src=""stim_listB/argue5.gif""style=""height:400px;""></stim_listB>",,html-keyboard-response,72,334820,0.0-13.0-1.5,89400,List2B,white,woman,,,,null,,,,
null,is arguing with,,html-keyboard-response,73,336822,0.0-13.0-2.5,89400,List2B,white,woman,,,,null,,,,
5952,,,survey-text,74,342775,0.0-13.0-3.5,89400,List2B,white,woman,,,,,"{""Q0"":""fred is arguing with dave ""}","<img src=""stim_listB/argue5.gif""style=""height:400px;""></stim_listB>",is arguing with,
null,"<div style=""font-size:60px;"">+</div>",,html-keyboard-response,75,343276,0.0-13.0-0.6,89400,List2B,white,woman,,,,null,,,,
null,"<img src=""stim_listB/argue6.gif""style=""height:400px;""></stim_listB>",,html-keyboard-response,76,345282,0.0-13.0-1.6,89400,List2B,white,woman,,,,null,,,,
null,are arguing with each other,,html-keyboard-response,77,347282,0.0-13.0-2.6,89400,List2B,white,woman,,,,null,,,,
8011,,,survey-text,78,355295,0.0-13.0-3.6,89400,List2B,white,woman,,,,,"{""Q0"":""Luke and mike are arguing with each other ""}","<img src=""stim_listB/argue6.gif""style=""height:400px;""></stim_listB>",are arguing with each other,
null,"<div style=""font-size:60px;"">+</div>",,html-keyboard-response,79,355797,0.0-13.0-0.7,89400,List2B,white,woman,,,,null,,,,
null,"<img src=""stim_listB/flirt8.gif""style=""height:400px;""></stim_listB>",,html-keyboard-response,80,357803,0.0-13.0-1.7,89400,List2B,white,woman,,,,null,,,,
null,are flirting with each other,,html-keyboard-response,81,359806,0.0-13.0-2.7,89400,List2B,white,woman,,,,null,,,,
6808,,,survey-text,82,366614,0.0-13.0-3.7,89400,List2B,white,woman,,,,,"{""Q0"":""jane and beth are flirting with each other ""}","<img src=""stim_listB/flirt8.gif""style=""height:400px;""></stim_listB>",are flirting with each other,
null,"<div style=""font-size:60px;"">+</div>",,html-keyboard-response,83,367117,0.0-13.0-0.8,89400,List2B,white,woman,,,,null,,,,
null,"<img src=""stim_listB/dance1.gif""style=""height:400px;""></stim_listB>",,html-keyboard-response,84,369121,0.0-13.0-1.8,89400,List2B,white,woman,,,,null,,,,
null,is dancing with,,html-keyboard-response,85,371122,0.0-13.0-2.8,89400,List2B,white,woman,,,,null,,,,
6030,,,survey-text,86,377152,0.0-13.0-3.8,89400,List2B,white,woman,,,,,"{""Q0"":""jane is dancing with luke ""}","<img src=""stim_listB/dance1.gif""style=""height:400px;""></stim_listB>",is dancing with,
null,"<div style=""font-size:60px;"">+</div>",,html-keyboard-response,87,377653,0.0-13.0-0.9,89400,List2B,white,woman,,,,null,,,,
null,"<img src=""stim_listB/argue3.gif""style=""height:400px;""></stim_listB>",,html-keyboard-response,88,379655,0.0-13.0-1.9,89400,List2B,white,woman,,,,null,,,,
null,is arguing with,,html-keyboard-response,89,381658,0.0-13.0-2.9,89400,List2B,white,woman,,,,null,,,,
5352,,,survey-text,90,387010,0.0-13.0-3.9,89400,List2B,white,woman,,,,,"{""Q0"":""beth is arguing with mike ""}","<img src=""stim_listB/argue3.gif""style=""height:400px;""></stim_listB>",is arguing with,
null,"<div style=""font-size:60px;"">+</div>",,html-keyboard-response,91,387511,0.0-13.0-0.10,89400,List2B,white,woman,,,,null,,,,
null,"<img src=""stim_listB/touch3.gif""style=""height:400px;""></stim_listB>",,html-keyboard-response,92,389512,0.0-13.0-1.10,89400,List2B,white,woman,,,,null,,,,
null,is touching,,html-keyboard-response,93,391514,0.0-13.0-2.10,89400,List2B,white,woman,,,,null,,,,
4419,,,survey-text,94,395934,0.0-13.0-3.10,89400,List2B,white,woman,,,,,"{""Q0"":""kate is touching mike ""}","<img src=""stim_listB/touch3.gif""style=""height:400px;""></stim_listB>",is touching,
null,"<div style=""font-size:60px;"">+</div>",,html-keyboard-response,95,396434,0.0-13.0-0.11,89400,List2B,white,woman,,,,null,,,,
null,"<img src=""stim_listB/play7.gif""style=""height:400px;""></stim_listB>",,html-keyboard-response,96,398440,0.0-13.0-1.11,89400,List2B,white,woman,,,,null,,,,
null,is playing with,,html-keyboard-response,97,400441,0.0-13.0-2.11,89400,List2B,white,woman,,,,null,,,,
4610,,,survey-text,98,405051,0.0-13.0-3.11,89400,List2B,white,woman,,,,,"{""Q0"":""kate is playing with jane ""}","<img src=""stim_listB/play7.gif""style=""height:400px;""></stim_listB>",is playing with,
null,"<div style=""font-size:60px;"">+</div>",,html-keyboard-response,99,405552,0.0-13.0-0.12,89400,List2B,white,woman,,,,null,,,,
null,"<img src=""stim_listB/kiss1.gif""style=""height:400px;""></stim_listB>",,html-keyboard-response,100,407554,0.0-13.0-1.12,89400,List2B,white,woman,,,,null,,,,
null,is kissing,,html-keyboard-response,101,409557,0.0-13.0-2.12,89400,List2B,white,woman,,,,null,,,,
4684,,,survey-text,102,414243,0.0-13.0-3.12,89400,List2B,white,woman,,,,,"{""Q0"":""ruth is kissing luke""}","<img src=""stim_listB/kiss1.gif""style=""height:400px;""></stim_listB>",is kissing,
null,"<div style=""font-size:60px;"">+</div>",,html-keyboard-response,103,414745,0.0-13.0-0.13,89400,List2B,white,woman,,,,null,,,,
null,"<img src=""stim_listB/kiss2.gif""style=""height:400px;""></stim_listB>",,html-keyboard-response,104,416748,0.0-13.0-1.13,89400,List2B,white,woman,,,,null,,,,
null,are kissing each other,,html-keyboard-response,105,418753,0.0-13.0-2.13,89400,List2B,white,woman,,,,null,,,,
6664,,,survey-text,106,425418,0.0-13.0-3.13,89400,List2B,white,woman,,,,,"{""Q0"":""jane and dave are kissing each other ""}","<img src=""stim_listB/kiss2.gif""style=""height:400px;""></stim_listB>",are kissing each other,
null,"<div style=""font-size:60px;"">+</div>",,html-keyboard-response,107,425920,0.0-13.0-0.14,89400,List2B,white,woman,,,,null,,,,
null,"<img src=""stim_listB/play4.gif""style=""height:400px;""></stim_listB>",,html-keyboard-response,108,427922,0.0-13.0-1.14,89400,List2B,white,woman,,,,null,,,,
null,are playing with each other,,html-keyboard-response,109,429925,0.0-13.0-2.14,89400,List2B,white,woman,,,,null,,,,
7050,,,survey-text,110,436977,0.0-13.0-3.14,89400,List2B,white,woman,,,,,"{""Q0"":""beth and fred are playing each other ""}","<img src=""stim_listB/play4.gif""style=""height:400px;""></stim_listB>",are playing with each other,
null,"<div style=""font-size:60px;"">+</div>",,html-keyboard-response,111,437481,0.0-13.0-0.15,89400,List2B,white,woman,,,,null,,,,
null,"<img src=""stim_listB/marry4.gif""style=""height:400px;""></stim_listB>",,html-keyboard-response,112,439485,0.0-13.0-1.15,89400,List2B,white,woman,,,,null,,,,
null,are marrying each other,,html-keyboard-response,113,441486,0.0-13.0-2.15,89400,List2B,white,woman,,,,null,,,,
8173,,,survey-text,114,449659,0.0-13.0-3.15,89400,List2B,white,woman,,,,,"{""Q0"":""fred and kate are marrying each other ""}","<img src=""stim_listB/marry4.gif""style=""height:400px;""></stim_listB>",are marrying each other,
null,"<div style=""font-size:60px;"">+</div>",,html-keyboard-response,115,450163,0.0-13.0-0.16,89400,List2B,white,woman,,,,null,,,,
null,"<img src=""stim_listB/argue1.gif""style=""height:400px;""></stim_listB>",,html-keyboard-response,116,452169,0.0-13.0-1.16,89400,List2B,white,woman,,,,null,,,,
null,is arguing with,,html-keyboard-response,117,454174,0.0-13.0-2.16,89400,List2B,white,woman,,,,null,,,,
4786,,,survey-text,118,458960,0.0-13.0-3.16,89400,List2B,white,woman,,,,,"{""Q0"":""ruth is arguing with dave ""}","<img src=""stim_listB/argue1.gif""style=""height:400px;""></stim_listB>",is arguing with,
null,"<div style=""font-size:60px;"">+</div>",,html-keyboard-response,119,459463,0.0-13.0-0.17,89400,List2B,white,woman,,,,null,,,,
null,"<img src=""stim_listB/marry1.gif""style=""height:400px;""></stim_listB>",,html-keyboard-response,120,461465,0.0-13.0-1.17,89400,List2B,white,woman,,,,null,,,,
null,is marrying,,html-keyboard-response,121,463468,0.0-13.0-2.17,89400,List2B,white,woman,,,,null,,,,
3965,,,survey-text,122,467433,0.0-13.0-3.17,89400,List2B,white,woman,,,,,"{""Q0"":""ruth is marrying dave""}","<img src=""stim_listB/marry1.gif""style=""height:400px;""></stim_listB>",is marrying,
null,"<div style=""font-size:60px;"">+</div>",,html-keyboard-response,123,467937,0.0-13.0-0.18,89400,List2B,white,woman,,,,null,,,,
null,"<img src=""stim_listB/play1.gif""style=""height:400px;""></stim_listB>",,html-keyboard-response,124,469943,0.0-13.0-1.18,89400,List2B,white,woman,,,,null,,,,
null,is playing with,,html-keyboard-response,125,471946,0.0-13.0-2.18,89400,List2B,white,woman,,,,null,,,,
4565,,,survey-text,126,476513,0.0-13.0-3.18,89400,List2B,white,woman,,,,,"{""Q0"":""jane is playing with dave ""}","<img src=""stim_listB/play1.gif""style=""height:400px;""></stim_listB>",is playing with,
null,"<div style=""font-size:60px;"">+</div>",,html-keyboard-response,127,477016,0.0-13.0-0.19,89400,List2B,white,woman,,,,null,,,,
null,"<img src=""stim_listB/talk6.gif""style=""height:400px;""></stim_listB>",,html-keyboard-response,128,479020,0.0-13.0-1.19,89400,List2B,white,woman,,,,null,,,,
null,are talking to each other,,html-keyboard-response,129,481025,0.0-13.0-2.19,89400,List2B,white,woman,,,,null,,,,
7459,,,survey-text,130,488485,0.0-13.0-3.19,89400,List2B,white,woman,,,,,"{""Q0"":""dave and fred are talking to each other ""}","<img src=""stim_listB/talk6.gif""style=""height:400px;""></stim_listB>",are talking to each other,
18810,"<img src='img/portrait_matrix_list2.jpg' style='width:900px;height:500px;''></img><p>If you have memorised all the portraits and names and are ready to start, press Continue.</p><p><strong>Please note: Your memory of these faces will be tested 4 times during this experiment.</strong></p>",0,html-button-response,131,507296,0.0-14.0-0.0,89400,List2B,white,woman,,,,,,,,
2283,"<img src=""portrait/BM1.jpg""style=""height:400px;""></img>",4,html-button-response,132,510580,0.0-14.0-1.0,89400,List2B,white,woman,,TRUE,4,,,,,
null,CORRECT,,html-keyboard-response,133,512086,0.0-14.0-2.0-0.0,89400,List2B,white,woman,,,,null,,,,
1321,"<img src=""portrait/WW2.jpg""style=""height:400px;""></img>",3,html-button-response,134,513407,0.0-14.0-4.0,89400,List2B,white,woman,,TRUE,3,,,,,
null,CORRECT,,html-keyboard-response,135,514913,0.0-14.0-5.0-0.0,89400,List2B,white,woman,,,,null,,,,
1354,"<img src=""portrait/BW1.jpg""style=""height:400px;""></img>",0,html-button-response,136,516268,0.0-14.0-7.0,89400,List2B,white,woman,,TRUE,0,,,,,
null,CORRECT,,html-keyboard-response,137,517772,0.0-14.0-8.0-0.0,89400,List2B,white,woman,,,,null,,,,
2097,"<img src=""portrait/BM2.jpg""style=""height:400px;""></img>",5,html-button-response,138,519870,0.0-14.0-10.0,89400,List2B,white,woman,,TRUE,5,,,,,
null,CORRECT,,html-keyboard-response,139,521377,0.0-14.0-11.0-0.0,89400,List2B,white,woman,,,,null,,,,
1501,"<img src=""portrait/WW1.jpg""style=""height:400px;""></img>",1,html-button-response,140,522879,0.0-14.0-13.0,89400,List2B,white,woman,,TRUE,1,,,,,
null,CORRECT,,html-keyboard-response,141,524382,0.0-14.0-14.0-0.0,89400,List2B,white,woman,,,,null,,,,
1579,"<img src=""portrait/WM1.jpg""style=""height:400px;""></img>",6,html-button-response,142,525962,0.0-14.0-16.0,89400,List2B,white,woman,,TRUE,6,,,,,
null,CORRECT,,html-keyboard-response,143,527467,0.0-14.0-17.0-0.0,89400,List2B,white,woman,,,,null,,,,
1577,"<img src=""portrait/BW2.jpg""style=""height:400px;""></img>",2,html-button-response,144,529046,0.0-14.0-19.0,89400,List2B,white,woman,,TRUE,2,,,,,
null,CORRECT,,html-keyboard-response,145,530548,0.0-14.0-20.0-0.0,89400,List2B,white,woman,,,,null,,,,
1170,"<img src=""portrait/WM2.jpg""style=""height:400px;""></img>",7,html-button-response,146,531720,0.0-14.0-22.0,89400,List2B,white,woman,,TRUE,7,,,,,
null,CORRECT,,html-keyboard-response,147,533221,0.0-14.0-23.0-0.0,89400,List2B,white,woman,,,,null,,,,
1431,<p>You got 8 out of 8 right first time. Press Continue.</p>,0,html-button-response,148,534653,0.0-14.0-25.0,89400,List2B,white,woman,,,,,,,,
null,"<div style=""font-size:60px;"">+</div>",,html-keyboard-response,149,536155,0.0-15.0-0.0,89400,List2B,white,woman,,,,null,,,,
null,"<img src=""stim_listB/flirt3.gif""style=""height:400px;""></stim_listB>",,html-keyboard-response,150,538158,0.0-15.0-1.0,89400,List2B,white,woman,,,,null,,,,
null,is flirting with,,html-keyboard-response,151,540161,0.0-15.0-2.0,89400,List2B,white,woman,,,,null,,,,
4928,,,survey-text,152,545090,0.0-15.0-3.0,89400,List2B,white,woman,,,,,"{""Q0"":""kate is flirting with fred ""}","<img src=""stim_listB/flirt3.gif""style=""height:400px;""></stim_listB>",is flirting with,
null,"<div style=""font-size:60px;"">+</div>",,html-keyboard-response,153,545592,0.0-15.0-0.1,89400,List2B,white,woman,,,,null,,,,
null,"<img src=""stim_listB/play5.gif""style=""height:400px;""></stim_listB>",,html-keyboard-response,154,547594,0.0-15.0-1.1,89400,List2B,white,woman,,,,null,,,,
null,is playing with,,html-keyboard-response,155,549596,0.0-15.0-2.1,89400,List2B,white,woman,,,,null,,,,
6642,,,survey-text,156,556238,0.0-15.0-3.1,89400,List2B,white,woman,,,,,"{""Q0"":""mike is playing with dave ""}","<img src=""stim_listB/play5.gif""style=""height:400px;""></stim_listB>",is playing with,
null,"<div style=""font-size:60px;"">+</div>",,html-keyboard-response,157,556739,0.0-15.0-0.2,89400,List2B,white,woman,,,,null,,,,
null,"<img src=""stim_listB/flirt4.gif""style=""height:400px;""></stim_listB>",,html-keyboard-response,158,558742,0.0-15.0-1.2,89400,List2B,white,woman,,,,null,,,,
null,are flirting with each other,,html-keyboard-response,159,560745,0.0-15.0-2.2,89400,List2B,white,woman,,,,null,,,,
8169,,,survey-text,160,568914,0.0-15.0-3.2,89400,List2B,white,woman,,,,,"{""Q0"":""beth and mike are flirting with each other""}","<img src=""stim_listB/flirt4.gif""style=""height:400px;""></stim_listB>",are flirting with each other,
null,"<div style=""font-size:60px;"">+</div>",,html-keyboard-response,161,569417,0.0-15.0-0.3,89400,List2B,white,woman,,,,null,,,,
null,"<img src=""stim_listB/play2.gif""style=""height:400px;""></stim_listB>",,html-keyboard-response,162,571423,0.0-15.0-1.3,89400,List2B,white,woman,,,,null,,,,
null,are playing with each other,,html-keyboard-response,163,573425,0.0-15.0-2.3,89400,List2B,white,woman,,,,null,,,,
7614,,,survey-text,164,581039,0.0-15.0-3.3,89400,List2B,white,woman,,,,,"{""Q0"":""luke and ruth are playing with each other ""}","<img src=""stim_listB/play2.gif""style=""height:400px;""></stim_listB>",are playing with each other,
null,"<div style=""font-size:60px;"">+</div>",,html-keyboard-response,165,581541,0.0-15.0-0.4,89400,List2B,white,woman,,,,null,,,,
null,"<img src=""stim_listB/dance4.gif""style=""height:400px;""></stim_listB>",,html-keyboard-response,166,583543,0.0-15.0-1.4,89400,List2B,white,woman,,,,null,,,,
null,are dancing with each other,,html-keyboard-response,167,585546,0.0-15.0-2.4,89400,List2B,white,woman,,,,null,,,,
9037,,,survey-text,168,594583,0.0-15.0-3.4,89400,List2B,white,woman,,,,,"{""Q0"":""mike and beth are dancing with each other ""}","<img src=""stim_listB/dance4.gif""style=""height:400px;""></stim_listB>",are dancing with each other,
null,"<div style=""font-size:60px;"">+</div>",,html-keyboard-response,169,595087,0.0-15.0-0.5,89400,List2B,white,woman,,,,null,,,,
null,"<img src=""stim_listB/flirt1.gif""style=""height:400px;""></stim_listB>",,html-keyboard-response,170,597089,0.0-15.0-1.5,89400,List2B,white,woman,,,,null,,,,
null,is flirting with,,html-keyboard-response,171,599090,0.0-15.0-2.5,89400,List2B,white,woman,,,,null,,,,
6303,,,survey-text,172,605393,0.0-15.0-3.5,89400,List2B,white,woman,,,,,"{""Q0"":""jane is flirting with luke ""}","<img src=""stim_listB/flirt1.gif""style=""height:400px;""></stim_listB>",is flirting with,
null,"<div style=""font-size:60px;"">+</div>",,html-keyboard-response,173,605898,0.0-15.0-0.6,89400,List2B,white,woman,,,,null,,,,
null,"<img src=""stim_listB/fight5.gif""style=""height:400px;""></stim_listB>",,html-keyboard-response,174,607903,0.0-15.0-1.6,89400,List2B,white,woman,,,,null,,,,
null,is fighting,,html-keyboard-response,175,609903,0.0-15.0-2.6,89400,List2B,white,woman,,,,null,,,,
6312,,,survey-text,176,616216,0.0-15.0-3.6,89400,List2B,white,woman,,,,,"{""Q0"":""mike is fighting dave ""}","<img src=""stim_listB/fight5.gif""style=""height:400px;""></stim_listB>",is fighting,
null,"<div style=""font-size:60px;"">+</div>",,html-keyboard-response,177,616717,0.0-15.0-0.7,89400,List2B,white,woman,,,,null,,,,
null,"<img src=""stim_listB/marry5.gif""style=""height:400px;""></stim_listB>",,html-keyboard-response,178,618724,0.0-15.0-1.7,89400,List2B,white,woman,,,,null,,,,
null,is marrying,,html-keyboard-response,179,620725,0.0-15.0-2.7,89400,List2B,white,woman,,,,null,,,,
5723,,,survey-text,180,626450,0.0-15.0-3.7,89400,List2B,white,woman,,,,,"{""Q0"":""dave is marrying fred ""}","<img src=""stim_listB/marry5.gif""style=""height:400px;""></stim_listB>",is marrying,
null,"<div style=""font-size:60px;"">+</div>",,html-keyboard-response,181,626952,0.0-15.0-0.8,89400,List2B,white,woman,,,,null,,,,
null,"<img src=""stim_listB/dance3.gif""style=""height:400px;""></stim_listB>",,html-keyboard-response,182,628957,0.0-15.0-1.8,89400,List2B,white,woman,,,,null,,,,
null,is dancing with,,html-keyboard-response,183,630960,0.0-15.0-2.8,89400,List2B,white,woman,,,,null,,,,
5046,,,survey-text,184,636006,0.0-15.0-3.8,89400,List2B,white,woman,,,,,"{""Q0"":""kate is dancing with fred ""}","<img src=""stim_listB/dance3.gif""style=""height:400px;""></stim_listB>",is dancing with,
null,"<div style=""font-size:60px;"">+</div>",,html-keyboard-response,185,636507,0.0-15.0-0.9,89400,List2B,white,woman,,,,null,,,,
null,"<img src=""stim_listB/fight3.gif""style=""height:400px;""></stim_listB>",,html-keyboard-response,186,638508,0.0-15.0-1.9,89400,List2B,white,woman,,,,null,,,,
null,is fighting,,html-keyboard-response,187,640511,0.0-15.0-2.9,89400,List2B,white,woman,,,,null,,,,
4072,,,survey-text,188,644584,0.0-15.0-3.9,89400,List2B,white,woman,,,,,"{""Q0"":""kate is fighting mike ""}","<img src=""stim_listB/fight3.gif""style=""height:400px;""></stim_listB>",is fighting,
null,"<div style=""font-size:60px;"">+</div>",,html-keyboard-response,189,645089,0.0-15.0-0.10,89400,List2B,white,woman,,,,null,,,,
null,"<img src=""stim_listB/dance6.gif""style=""height:400px;""></stim_listB>",,html-keyboard-response,190,647091,0.0-15.0-1.10,89400,List2B,white,woman,,,,null,,,,
null,are dancing with each other,,html-keyboard-response,191,649092,0.0-15.0-2.10,89400,List2B,white,woman,,,,null,,,,
7972,,,survey-text,192,657065,0.0-15.0-3.10,89400,List2B,white,woman,,,,,"{""Q0"":""dave and fred are dancing with each other ""}","<img src=""stim_listB/dance6.gif""style=""height:400px;""></stim_listB>",are dancing with each other,
null,"<div style=""font-size:60px;"">+</div>",,html-keyboard-response,193,657569,0.0-15.0-0.11,89400,List2B,white,woman,,,,null,,,,
null,"<img src=""stim_listB/fight6.gif""style=""height:400px;""></stim_listB>",,html-keyboard-response,194,659572,0.0-15.0-1.11,89400,List2B,white,woman,,,,null,,,,
null,are fighting each other,,html-keyboard-response,195,661573,0.0-15.0-2.11,89400,List2B,white,woman,,,,null,,,,
5871,,,survey-text,196,667445,0.0-15.0-3.11,89400,List2B,white,woman,,,,,"{""Q0"":""luke and fred are fighting each other ""}","<img src=""stim_listB/fight6.gif""style=""height:400px;""></stim_listB>",are fighting each other,
null,"<div style=""font-size:60px;"">+</div>",,html-keyboard-response,197,667946,0.0-15.0-0.12,89400,List2B,white,woman,,,,null,,,,
null,"<img src=""stim_listB/talk3.gif""style=""height:400px;""></stim_listB>",,html-keyboard-response,198,669947,0.0-15.0-1.12,89400,List2B,white,woman,,,,null,,,,
null,is talking to,,html-keyboard-response,199,671949,0.0-15.0-2.12,89400,List2B,white,woman,,,,null,,,,
4807,,,survey-text,200,676756,0.0-15.0-3.12,89400,List2B,white,woman,,,,,"{""Q0"":""kate is talking to fred""}","<img src=""stim_listB/talk3.gif""style=""height:400px;""></stim_listB>",is talking to,
null,"<div style=""font-size:60px;"">+</div>",,html-keyboard-response,201,677257,0.0-15.0-0.13,89400,List2B,white,woman,,,,null,,,,
null,"<img src=""stim_listB/fight8.gif""style=""height:400px;""></stim_listB>",,html-keyboard-response,202,679259,0.0-15.0-1.13,89400,List2B,white,woman,,,,null,,,,
null,are fighting each other,,html-keyboard-response,203,681261,0.0-15.0-2.13,89400,List2B,white,woman,,,,null,,,,
6380,,,survey-text,204,687643,0.0-15.0-3.13,89400,List2B,white,woman,,,,,"{""Q0"":""beth and ruth are fighting each other ""}","<img src=""stim_listB/fight8.gif""style=""height:400px;""></stim_listB>",are fighting each other,
null,"<div style=""font-size:60px;"">+</div>",,html-keyboard-response,205,688146,0.0-15.0-0.14,89400,List2B,white,woman,,,,null,,,,
null,"<img src=""stim_listB/dance2.gif""style=""height:400px;""></stim_listB>",,html-keyboard-response,206,690148,0.0-15.0-1.14,89400,List2B,white,woman,,,,null,,,,
null,are dancing with each other,,html-keyboard-response,207,692150,0.0-15.0-2.14,89400,List2B,white,woman,,,,null,,,,
6246,,,survey-text,208,698398,0.0-15.0-3.14,89400,List2B,white,woman,,,,,"{""Q0"":""dave and ruth are dancing with each other ""}","<img src=""stim_listB/dance2.gif""style=""height:400px;""></stim_listB>",are dancing with each other,
null,"<div style=""font-size:60px;"">+</div>",,html-keyboard-response,209,698899,0.0-15.0-0.15,89400,List2B,white,woman,,,,null,,,,
null,"<img src=""stim_listB/talk8.gif""style=""height:400px;""></stim_listB>",,html-keyboard-response,210,700901,0.0-15.0-1.15,89400,List2B,white,woman,,,,null,,,,
null,are talking to each other,,html-keyboard-response,211,702904,0.0-15.0-2.15,89400,List2B,white,woman,,,,null,,,,
10799,,,survey-text,212,713703,0.0-15.0-3.15,89400,List2B,white,woman,,,,,"{""Q0"":""jane and beth are talking to each other ""}","<img src=""stim_listB/talk8.gif""style=""height:400px;""></stim_listB>",are talking to each other,
null,"<div style=""font-size:60px;"">+</div>",,html-keyboard-response,213,714206,0.0-15.0-0.16,89400,List2B,white,woman,,,,null,,,,
null,"<img src=""stim_listB/argue8.gif""style=""height:400px;""></stim_listB>",,html-keyboard-response,214,716212,0.0-15.0-1.16,89400,List2B,white,woman,,,,null,,,,
null,are arguing with each other,,html-keyboard-response,215,718213,0.0-15.0-2.16,89400,List2B,white,woman,,,,null,,,,
6527,,,survey-text,216,724741,0.0-15.0-3.16,89400,List2B,white,woman,,,,,"{""Q0"":""ruth and kate are arguing with each other ""}","<img src=""stim_listB/argue8.gif""style=""height:400px;""></stim_listB>",are arguing with each other,
null,"<div style=""font-size:60px;"">+</div>",,html-keyboard-response,217,725244,0.0-15.0-0.17,89400,List2B,white,woman,,,,null,,,,
null,"<img src=""stim_listB/kiss5.gif""style=""height:400px;""></stim_listB>",,html-keyboard-response,218,727247,0.0-15.0-1.17,89400,List2B,white,woman,,,,null,,,,
null,is kissing,,html-keyboard-response,219,729251,0.0-15.0-2.17,89400,List2B,white,woman,,,,null,,,,
5605,,,survey-text,220,734857,0.0-15.0-3.17,89400,List2B,white,woman,,,,,"{""Q0"":""luke is kissing fred ""}","<img src=""stim_listB/kiss5.gif""style=""height:400px;""></stim_listB>",is kissing,
null,"<div style=""font-size:60px;"">+</div>",,html-keyboard-response,221,735358,0.0-15.0-0.18,89400,List2B,white,woman,,,,null,,,,
null,"<img src=""stim_listB/talk2.gif""style=""height:400px;""></stim_listB>",,html-keyboard-response,222,737359,0.0-15.0-1.18,89400,List2B,white,woman,,,,null,,,,
null,are talking to each other,,html-keyboard-response,223,739360,0.0-15.0-2.18,89400,List2B,white,woman,,,,null,,,,
6360,,,survey-text,224,745721,0.0-15.0-3.18,89400,List2B,white,woman,,,,,"{""Q0"":""dave and ruth are talking to each other ""}","<img src=""stim_listB/talk2.gif""style=""height:400px;""></stim_listB>",are talking to each other,
null,"<div style=""font-size:60px;"">+</div>",,html-keyboard-response,225,746224,0.0-15.0-0.19,89400,List2B,white,woman,,,,null,,,,
null,"<img src=""stim_listB/shout5.gif""style=""height:400px;""></stim_listB>",,html-keyboard-response,226,748228,0.0-15.0-1.19,89400,List2B,white,woman,,,,null,,,,
null,is shouting at,,html-keyboard-response,227,750229,0.0-15.0-2.19,89400,List2B,white,woman,,,,null,,,,
5481,,,survey-text,228,755710,0.0-15.0-3.19,89400,List2B,white,woman,,,,,"{""Q0"":""fred is shouting at luke ""}","<img src=""stim_listB/shout5.gif""style=""height:400px;""></stim_listB>",is shouting at,
6489,"<img src='img/portrait_matrix_list2.jpg' style='width:900px;height:500px;''></img><p>If you have memorised all the portraits and names and are ready to start, press Continue.</p><p><strong>Please note: Your memory of these faces will be tested 4 times during this experiment.</strong></p>",0,html-button-response,229,762199,0.0-16.0-0.0,89400,List2B,white,woman,,,,,,,,
1796,"<img src=""portrait/WM1.jpg""style=""height:400px;""></img>",6,html-button-response,230,765000,0.0-16.0-1.0,89400,List2B,white,woman,,TRUE,6,,,,,
null,CORRECT,,html-keyboard-response,231,766508,0.0-16.0-2.0-0.0,89400,List2B,white,woman,,,,null,,,,
1322,"<img src=""portrait/BW1.jpg""style=""height:400px;""></img>",0,html-button-response,232,767831,0.0-16.0-4.0,89400,List2B,white,woman,,TRUE,0,,,,,
null,CORRECT,,html-keyboard-response,233,769335,0.0-16.0-5.0-0.0,89400,List2B,white,woman,,,,null,,,,
1182,"<img src=""portrait/WW2.jpg""style=""height:400px;""></img>",3,html-button-response,234,770517,0.0-16.0-7.0,89400,List2B,white,woman,,TRUE,3,,,,,
null,CORRECT,,html-keyboard-response,235,772028,0.0-16.0-8.0-0.0,89400,List2B,white,woman,,,,null,,,,
1425,"<img src=""portrait/BM1.jpg""style=""height:400px;""></img>",4,html-button-response,236,773454,0.0-16.0-10.0,89400,List2B,white,woman,,TRUE,4,,,,,
null,CORRECT,,html-keyboard-response,237,774957,0.0-16.0-11.0-0.0,89400,List2B,white,woman,,,,null,,,,
1218,"<img src=""portrait/BW2.jpg""style=""height:400px;""></img>",2,html-button-response,238,776175,0.0-16.0-13.0,89400,List2B,white,woman,,TRUE,2,,,,,
null,CORRECT,,html-keyboard-response,239,777678,0.0-16.0-14.0-0.0,89400,List2B,white,woman,,,,null,,,,
1002,"<img src=""portrait/WW1.jpg""style=""height:400px;""></img>",1,html-button-response,240,778682,0.0-16.0-16.0,89400,List2B,white,woman,,TRUE,1,,,,,
null,CORRECT,,html-keyboard-response,241,780186,0.0-16.0-17.0-0.0,89400,List2B,white,woman,,,,null,,,,
1256,"<img src=""portrait/BM2.jpg""style=""height:400px;""></img>",5,html-button-response,242,781445,0.0-16.0-19.0,89400,List2B,white,woman,,TRUE,5,,,,,
null,CORRECT,,html-keyboard-response,243,782949,0.0-16.0-20.0-0.0,89400,List2B,white,woman,,,,null,,,,
1249,"<img src=""portrait/WM2.jpg""style=""height:400px;""></img>",7,html-button-response,244,784199,0.0-16.0-22.0,89400,List2B,white,woman,,TRUE,7,,,,,
null,CORRECT,,html-keyboard-response,245,785704,0.0-16.0-23.0-0.0,89400,List2B,white,woman,,,,null,,,,
1453,<p>You got 8 out of 8 right first time. Press Continue.</p>,0,html-button-response,246,787157,0.0-16.0-25.0,89400,List2B,white,woman,,,,,,,,
null,"<div style=""font-size:60px;"">+</div>",,html-keyboard-response,247,788661,0.0-17.0-0.0,89400,List2B,white,woman,,,,null,,,,
null,"<img src=""stim_listB/kiss7.gif""style=""height:400px;""></stim_listB>",,html-keyboard-response,248,790667,0.0-17.0-1.0,89400,List2B,white,woman,,,,null,,,,
null,is kissing,,html-keyboard-response,249,792670,0.0-17.0-2.0,89400,List2B,white,woman,,,,null,,,,
6228,,,survey-text,250,798898,0.0-17.0-3.0,89400,List2B,white,woman,,,,,"{""Q0"":""beth is kissing ruth ""}","<img src=""stim_listB/kiss7.gif""style=""height:400px;""></stim_listB>",is kissing,
null,"<div style=""font-size:60px;"">+</div>",,html-keyboard-response,251,799399,0.0-17.0-0.1,89400,List2B,white,woman,,,,null,,,,
null,"<img src=""stim_listB/marry7.gif""style=""height:400px;""></stim_listB>",,html-keyboard-response,252,801406,0.0-17.0-1.1,89400,List2B,white,woman,,,,null,,,,
null,is marrying,,html-keyboard-response,253,803406,0.0-17.0-2.1,89400,List2B,white,woman,,,,null,,,,
3928,,,survey-text,254,807334,0.0-17.0-3.1,89400,List2B,white,woman,,,,,"{""Q0"":""beth is marrying jane ""}","<img src=""stim_listB/marry7.gif""style=""height:400px;""></stim_listB>",is marrying,
null,"<div style=""font-size:60px;"">+</div>",,html-keyboard-response,255,807835,0.0-17.0-0.2,89400,List2B,white,woman,,,,null,,,,
null,"<img src=""stim_listB/talk7.gif""style=""height:400px;""></stim_listB>",,html-keyboard-response,256,809837,0.0-17.0-1.2,89400,List2B,white,woman,,,,null,,,,
null,is talking to,,html-keyboard-response,257,811840,0.0-17.0-2.2,89400,List2B,white,woman,,,,null,,,,
5184,,,survey-text,258,817024,0.0-17.0-3.2,89400,List2B,white,woman,,,,,"{""Q0"":""ruth is talking to kate ""}","<img src=""stim_listB/talk7.gif""style=""height:400px;""></stim_listB>",is talking to,
null,"<div style=""font-size:60px;"">+</div>",,html-keyboard-response,259,817529,0.0-17.0-0.3,89400,List2B,white,woman,,,,null,,,,
null,"<img src=""stim_listB/marry3.gif""style=""height:400px;""></stim_listB>",,html-keyboard-response,260,819532,0.0-17.0-1.3,89400,List2B,white,woman,,,,null,,,,
null,is marrying,,html-keyboard-response,261,821533,0.0-17.0-2.3,89400,List2B,white,woman,,,,null,,,,
7495,,,survey-text,262,829028,0.0-17.0-3.3,89400,List2B,white,woman,,,,,"{""Q0"":""beth is marrying mike""}","<img src=""stim_listB/marry3.gif""style=""height:400px;""></stim_listB>",is marrying,
null,"<div style=""font-size:60px;"">+</div>",,html-keyboard-response,263,829530,0.0-17.0-0.4,89400,List2B,white,woman,,,,null,,,,
null,"<img src=""stim_listB/touch1.gif""style=""height:400px;""></stim_listB>",,html-keyboard-response,264,831533,0.0-17.0-1.4,89400,List2B,white,woman,,,,null,,,,
null,is touching,,html-keyboard-response,265,833535,0.0-17.0-2.4,89400,List2B,white,woman,,,,null,,,,
5092,,,survey-text,266,838627,0.0-17.0-3.4,89400,List2B,white,woman,,,,,"{""Q0"":""jane is touching dave ""}","<img src=""stim_listB/touch1.gif""style=""height:400px;""></stim_listB>",is touching,
null,"<div style=""font-size:60px;"">+</div>",,html-keyboard-response,267,839128,0.0-17.0-0.5,89400,List2B,white,woman,,,,null,,,,
null,"<img src=""stim_listB/kiss6.gif""style=""height:400px;""></stim_listB>",,html-keyboard-response,268,841133,0.0-17.0-1.5,89400,List2B,white,woman,,,,null,,,,
null,are kissing each other,,html-keyboard-response,269,843134,0.0-17.0-2.5,89400,List2B,white,woman,,,,null,,,,
8816,,,survey-text,270,851951,0.0-17.0-3.5,89400,List2B,white,woman,,,,,"{""Q0"":""dave and mike are kissing each other ""}","<img src=""stim_listB/kiss6.gif""style=""height:400px;""></stim_listB>",are kissing each other,
null,"<div style=""font-size:60px;"">+</div>",,html-keyboard-response,271,852456,0.0-17.0-0.6,89400,List2B,white,woman,,,,null,,,,
null,"<img src=""stim_listB/flirt2.gif""style=""height:400px;""></stim_listB>",,html-keyboard-response,272,854459,0.0-17.0-1.6,89400,List2B,white,woman,,,,null,,,,
null,are flirting with each other,,html-keyboard-response,273,856459,0.0-17.0-2.6,89400,List2B,white,woman,,,,null,,,,
9430,,,survey-text,274,865891,0.0-17.0-3.6,89400,List2B,white,woman,,,,,"{""Q0"":""dave and ruth are flirting with each other ""}","<img src=""stim_listB/flirt2.gif""style=""height:400px;""></stim_listB>",are flirting with each other,
null,"<div style=""font-size:60px;"">+</div>",,html-keyboard-response,275,866392,0.0-17.0-0.7,89400,List2B,white,woman,,,,null,,,,
null,"<img src=""stim_listB/talk5.gif""style=""height:400px;""></stim_listB>",,html-keyboard-response,276,868394,0.0-17.0-1.7,89400,List2B,white,woman,,,,null,,,,
null,is talking to,,html-keyboard-response,277,870396,0.0-17.0-2.7,89400,List2B,white,woman,,,,null,,,,
5869,,,survey-text,278,876266,0.0-17.0-3.7,89400,List2B,white,woman,,,,,"{""Q0"":""mike is talking to luke ""}","<img src=""stim_listB/talk5.gif""style=""height:400px;""></stim_listB>",is talking to,
null,"<div style=""font-size:60px;"">+</div>",,html-keyboard-response,279,876770,0.0-17.0-0.8,89400,List2B,white,woman,,,,null,,,,
null,"<img src=""stim_listB/flirt6.gif""style=""height:400px;""></stim_listB>",,html-keyboard-response,280,878776,0.0-17.0-1.8,89400,List2B,white,woman,,,,null,,,,
null,are flirting with each other,,html-keyboard-response,281,880780,0.0-17.0-2.8,89400,List2B,white,woman,,,,null,,,,
6645,,,survey-text,282,887426,0.0-17.0-3.8,89400,List2B,white,woman,,,,,"{""Q0"":""fred and dave are flirting with each other ""}","<img src=""stim_listB/flirt6.gif""style=""height:400px;""></stim_listB>",are flirting with each other,
null,"<div style=""font-size:60px;"">+</div>",,html-keyboard-response,283,887926,0.0-17.0-0.9,89400,List2B,white,woman,,,,null,,,,
null,"<img src=""stim_listB/shout2.gif""style=""height:400px;""></stim_listB>",,html-keyboard-response,284,889929,0.0-17.0-1.9,89400,List2B,white,woman,,,,null,,,,
null,are shouting at each other,,html-keyboard-response,285,891930,0.0-17.0-2.9,89400,List2B,white,woman,,,,null,,,,
6273,,,survey-text,286,898203,0.0-17.0-3.9,89400,List2B,white,woman,,,,,"{""Q0"":""dave and jane are shouting at each other ""}","<img src=""stim_listB/shout2.gif""style=""height:400px;""></stim_listB>",are shouting at each other,
null,"<div style=""font-size:60px;"">+</div>",,html-keyboard-response,287,898707,0.0-17.0-0.10,89400,List2B,white,woman,,,,null,,,,
null,"<img src=""stim_listB/play3.gif""style=""height:400px;""></stim_listB>",,html-keyboard-response,288,900709,0.0-17.0-1.10,89400,List2B,white,woman,,,,null,,,,
null,is playing with,,html-keyboard-response,289,902711,0.0-17.0-2.10,89400,List2B,white,woman,,,,null,,,,
4918,,,survey-text,290,907629,0.0-17.0-3.10,89400,List2B,white,woman,,,,,"{""Q0"":""kate is playing with mike ""}","<img src=""stim_listB/play3.gif""style=""height:400px;""></stim_listB>",is playing with,
null,"<div style=""font-size:60px;"">+</div>",,html-keyboard-response,291,908134,0.0-17.0-0.11,89400,List2B,white,woman,,,,null,,,,
null,"<img src=""stim_listB/fight7.gif""style=""height:400px;""></stim_listB>",,html-keyboard-response,292,910135,0.0-17.0-1.11,89400,List2B,white,woman,,,,null,,,,
null,is fighting,,html-keyboard-response,293,912137,0.0-17.0-2.11,89400,List2B,white,woman,,,,null,,,,
4781,,,survey-text,294,916919,0.0-17.0-3.11,89400,List2B,white,woman,,,,,"{""Q0"":""jane is fighting kate ""}","<img src=""stim_listB/fight7.gif""style=""height:400px;""></stim_listB>",is fighting,
null,"<div style=""font-size:60px;"">+</div>",,html-keyboard-response,295,917423,0.0-17.0-0.12,89400,List2B,white,woman,,,,null,,,,
null,"<img src=""stim_listB/argue4.gif""style=""height:400px;""></stim_listB>",,html-keyboard-response,296,919425,0.0-17.0-1.12,89400,List2B,white,woman,,,,null,,,,
null,are arguing with each other,,html-keyboard-response,297,921426,0.0-17.0-2.12,89400,List2B,white,woman,,,,null,,,,
6944,,,survey-text,298,928370,0.0-17.0-3.12,89400,List2B,white,woman,,,,,"{""Q0"":""fred and kate are arguing with each other ""}","<img src=""stim_listB/argue4.gif""style=""height:400px;""></stim_listB>",are arguing with each other,
null,"<div style=""font-size:60px;"">+</div>",,html-keyboard-response,299,928873,0.0-17.0-0.13,89400,List2B,white,woman,,,,null,,,,
null,"<img src=""stim_listB/touch6.gif""style=""height:400px;""></stim_listB>",,html-keyboard-response,300,930877,0.0-17.0-1.13,89400,List2B,white,woman,,,,null,,,,
null,are touching each other,,html-keyboard-response,301,932878,0.0-17.0-2.13,89400,List2B,white,woman,,,,null,,,,
5744,,,survey-text,302,938622,0.0-17.0-3.13,89400,List2B,white,woman,,,,,"{""Q0"":""luke and fred are touching each other ""}","<img src=""stim_listB/touch6.gif""style=""height:400px;""></stim_listB>",are touching each other,
null,"<div style=""font-size:60px;"">+</div>",,html-keyboard-response,303,939125,0.0-17.0-0.14,89400,List2B,white,woman,,,,null,,,,
null,"<img src=""stim_listB/kiss4.gif""style=""height:400px;""></stim_listB>",,html-keyboard-response,304,941131,0.0-17.0-1.14,89400,List2B,white,woman,,,,null,,,,
null,are kissing each other,,html-keyboard-response,305,943132,0.0-17.0-2.14,89400,List2B,white,woman,,,,null,,,,
7497,,,survey-text,306,950629,0.0-17.0-3.14,89400,List2B,white,woman,,,,,"{""Q0"":""mike and kate are kissing each other ""}","<img src=""stim_listB/kiss4.gif""style=""height:400px;""></stim_listB>",are kissing each other,
null,"<div style=""font-size:60px;"">+</div>",,html-keyboard-response,307,951132,0.0-17.0-0.15,89400,List2B,white,woman,,,,null,,,,
null,"<img src=""stim_listB/touch2.gif""style=""height:400px;""></stim_listB>",,html-keyboard-response,308,953133,0.0-17.0-1.15,89400,List2B,white,woman,,,,null,,,,
null,are touching each other,,html-keyboard-response,309,955133,0.0-17.0-2.15,89400,List2B,white,woman,,,,null,,,,
7894,,,survey-text,310,963027,0.0-17.0-3.15,89400,List2B,white,woman,,,,,"{""Q0"":""ruth and luke are touching each other ""}","<img src=""stim_listB/touch2.gif""style=""height:400px;""></stim_listB>",are touching each other,
null,"<div style=""font-size:60px;"">+</div>",,html-keyboard-response,311,963529,0.0-17.0-0.16,89400,List2B,white,woman,,,,null,,,,
null,"<img src=""stim_listB/shout6.gif""style=""height:400px;""></stim_listB>",,html-keyboard-response,312,965530,0.0-17.0-1.16,89400,List2B,white,woman,,,,null,,,,
null,are shouting at each other,,html-keyboard-response,313,967534,0.0-17.0-2.16,89400,List2B,white,woman,,,,null,,,,
11000,,,survey-text,314,978535,0.0-17.0-3.16,89400,List2B,white,woman,,,,,"{""Q0"":""dave and mike are shouting at each other ""}","<img src=""stim_listB/shout6.gif""style=""height:400px;""></stim_listB>",are shouting at each other,
null,"<div style=""font-size:60px;"">+</div>",,html-keyboard-response,315,979039,0.0-17.0-0.17,89400,List2B,white,woman,,,,null,,,,
null,"<img src=""stim_listB/talk4.gif""style=""height:400px;""></stim_listB>",,html-keyboard-response,316,981044,0.0-17.0-1.17,89400,List2B,white,woman,,,,null,,,,
null,are talking to each other,,html-keyboard-response,317,983046,0.0-17.0-2.17,89400,List2B,white,woman,,,,null,,,,
5827,,,survey-text,318,988874,0.0-17.0-3.17,89400,List2B,white,woman,,,,,"{""Q0"":""mike and beth are talking to each other ""}","<img src=""stim_listB/talk4.gif""style=""height:400px;""></stim_listB>",are talking to each other,
null,"<div style=""font-size:60px;"">+</div>",,html-keyboard-response,319,989377,0.0-17.0-0.18,89400,List2B,white,woman,,,,null,,,,
null,"<img src=""stim_listB/talk1.gif""style=""height:400px;""></stim_listB>",,html-keyboard-response,320,991382,0.0-17.0-1.18,89400,List2B,white,woman,,,,null,,,,
null,is talking to,,html-keyboard-response,321,993386,0.0-17.0-2.18,89400,List2B,white,woman,,,,null,,,,
5110,,,survey-text,322,998496,0.0-17.0-3.18,89400,List2B,white,woman,,,,,"{""Q0"":""jane is talking to luke""}","<img src=""stim_listB/talk1.gif""style=""height:400px;""></stim_listB>",is talking to,
null,"<div style=""font-size:60px;"">+</div>",,html-keyboard-response,323,998998,0.0-17.0-0.19,89400,List2B,white,woman,,,,null,,,,
null,"<img src=""stim_listB/play6.gif""style=""height:400px;""></stim_listB>",,html-keyboard-response,324,1001001,0.0-17.0-1.19,89400,List2B,white,woman,,,,null,,,,
null,are playing with each other,,html-keyboard-response,325,1003003,0.0-17.0-2.19,89400,List2B,white,woman,,,,null,,,,
7315,,,survey-text,326,1010318,0.0-17.0-3.19,89400,List2B,white,woman,,,,,"{""Q0"":""luke and fred are playing with each other ""}","<img src=""stim_listB/play6.gif""style=""height:400px;""></stim_listB>",are playing with each other,
2012,"<img src='img/portrait_matrix_list2.jpg' style='width:900px;height:500px;''></img><p>If you have memorised all the portraits and names and are ready to start, press Continue.</p><p><strong>Please note: Your memory of these faces will be tested 4 times during this experiment.</strong></p>",0,html-button-response,327,1012332,0.0-18.0-0.0,89400,List2B,white,woman,,,,,,,,
1653,"<img src=""portrait/WW1.jpg""style=""height:400px;""></img>",1,html-button-response,328,1014990,0.0-18.0-1.0,89400,List2B,white,woman,,TRUE,1,,,,,
null,CORRECT,,html-keyboard-response,329,1016494,0.0-18.0-2.0-0.0,89400,List2B,white,woman,,,,null,,,,
1168,"<img src=""portrait/WW2.jpg""style=""height:400px;""></img>",3,html-button-response,330,1017664,0.0-18.0-4.0,89400,List2B,white,woman,,TRUE,3,,,,,
null,CORRECT,,html-keyboard-response,331,1019167,0.0-18.0-5.0-0.0,89400,List2B,white,woman,,,,null,,,,
1267,"<img src=""portrait/WM2.jpg""style=""height:400px;""></img>",7,html-button-response,332,1020435,0.0-18.0-7.0,89400,List2B,white,woman,,TRUE,7,,,,,
null,CORRECT,,html-keyboard-response,333,1021942,0.0-18.0-8.0-0.0,89400,List2B,white,woman,,,,null,,,,
1495,"<img src=""portrait/WM1.jpg""style=""height:400px;""></img>",6,html-button-response,334,1023438,0.0-18.0-10.0,89400,List2B,white,woman,,TRUE,6,,,,,
null,CORRECT,,html-keyboard-response,335,1024940,0.0-18.0-11.0-0.0,89400,List2B,white,woman,,,,null,,,,
1037,"<img src=""portrait/BW2.jpg""style=""height:400px;""></img>",2,html-button-response,336,1025977,0.0-18.0-13.0,89400,List2B,white,woman,,TRUE,2,,,,,
null,CORRECT,,html-keyboard-response,337,1027483,0.0-18.0-14.0-0.0,89400,List2B,white,woman,,,,null,,,,
1206,"<img src=""portrait/BM2.jpg""style=""height:400px;""></img>",5,html-button-response,338,1028691,0.0-18.0-16.0,89400,List2B,white,woman,,TRUE,5,,,,,
null,CORRECT,,html-keyboard-response,339,1030197,0.0-18.0-17.0-0.0,89400,List2B,white,woman,,,,null,,,,
1194,"<img src=""portrait/BW1.jpg""style=""height:400px;""></img>",0,html-button-response,340,1031391,0.0-18.0-19.0,89400,List2B,white,woman,,TRUE,0,,,,,
null,CORRECT,,html-keyboard-response,341,1032898,0.0-18.0-20.0-0.0,89400,List2B,white,woman,,,,null,,,,
1415,"<img src=""portrait/BM1.jpg""style=""height:400px;""></img>",4,html-button-response,342,1034315,0.0-18.0-22.0,89400,List2B,white,woman,,TRUE,4,,,,,
null,CORRECT,,html-keyboard-response,343,1035822,0.0-18.0-23.0-0.0,89400,List2B,white,woman,,,,null,,,,
1291,<p>You got 8 out of 8 right first time. Press Continue.</p>,0,html-button-response,344,1037113,0.0-18.0-25.0,89400,List2B,white,woman,,,,,,,,
null,"<div style=""font-size:60px;"">+</div>",,html-keyboard-response,345,1038616,0.0-19.0-0.0,89400,List2B,white,woman,,,,null,,,,
null,"<img src=""stim_listB/touch7.gif""style=""height:400px;""></stim_listB>",,html-keyboard-response,346,1040619,0.0-19.0-1.0,89400,List2B,white,woman,,,,null,,,,
null,is touching,,html-keyboard-response,347,1042621,0.0-19.0-2.0,89400,List2B,white,woman,,,,null,,,,
4582,,,survey-text,348,1047205,0.0-19.0-3.0,89400,List2B,white,woman,,,,,"{""Q0"":""kate is touching jane ""}","<img src=""stim_listB/touch7.gif""style=""height:400px;""></stim_listB>",is touching,
null,"<div style=""font-size:60px;"">+</div>",,html-keyboard-response,349,1047706,0.0-19.0-0.1,89400,List2B,white,woman,,,,null,,,,
null,"<img src=""stim_listB/shout1.gif""style=""height:400px;""></stim_listB>",,html-keyboard-response,350,1049708,0.0-19.0-1.1,89400,List2B,white,woman,,,,null,,,,
null,is shouting at,,html-keyboard-response,351,1051709,0.0-19.0-2.1,89400,List2B,white,woman,,,,null,,,,
5784,,,survey-text,352,1057494,0.0-19.0-3.1,89400,List2B,white,woman,,,,,"{""Q0"":""ruth is shouting at luke""}","<img src=""stim_listB/shout1.gif""style=""height:400px;""></stim_listB>",is shouting at,
null,"<div style=""font-size:60px;"">+</div>",,html-keyboard-response,353,1057996,0.0-19.0-0.2,89400,List2B,white,woman,,,,null,,,,
null,"<img src=""stim_listB/dance5.gif""style=""height:400px;""></stim_listB>",,html-keyboard-response,354,1060001,0.0-19.0-1.2,89400,List2B,white,woman,,,,null,,,,
null,is dancing with,,html-keyboard-response,355,1062003,0.0-19.0-2.2,89400,List2B,white,woman,,,,null,,,,
5043,,,survey-text,356,1067046,0.0-19.0-3.2,89400,List2B,white,woman,,,,,"{""Q0"":""mike is dancing with luke""}","<img src=""stim_listB/dance5.gif""style=""height:400px;""></stim_listB>",is dancing with,
null,"<div style=""font-size:60px;"">+</div>",,html-keyboard-response,357,1067550,0.0-19.0-0.3,89400,List2B,white,woman,,,,null,,,,
null,"<img src=""stim_listB/marry6.gif""style=""height:400px;""></stim_listB>",,html-keyboard-response,358,1069555,0.0-19.0-1.3,89400,List2B,white,woman,,,,null,,,,
null,are marrying each other,,html-keyboard-response,359,1071557,0.0-19.0-2.3,89400,List2B,white,woman,,,,null,,,,
8977,,,survey-text,360,1080536,0.0-19.0-3.3,89400,List2B,white,woman,,,,,"{""Q0"":""luke and mike are marrying each other ""}","<img src=""stim_listB/marry6.gif""style=""height:400px;""></stim_listB>",are marrying each other,
null,"<div style=""font-size:60px;"">+</div>",,html-keyboard-response,361,1081037,0.0-19.0-0.4,89400,List2B,white,woman,,,,null,,,,
null,"<img src=""stim_listB/flirt7.gif""style=""height:400px;""></stim_listB>",,html-keyboard-response,362,1083042,0.0-19.0-1.4,89400,List2B,white,woman,,,,null,,,,
null,is flirting with,,html-keyboard-response,363,1085042,0.0-19.0-2.4,89400,List2B,white,woman,,,,null,,,,
5255,,,survey-text,364,1090299,0.0-19.0-3.4,89400,List2B,white,woman,,,,,"{""Q0"":""kate is flirting with ruth ""}","<img src=""stim_listB/flirt7.gif""style=""height:400px;""></stim_listB>",is flirting with,
null,"<div style=""font-size:60px;"">+</div>",,html-keyboard-response,365,1090801,0.0-19.0-0.5,89400,List2B,white,woman,,,,null,,,,
null,"<img src=""stim_listB/dance8.gif""style=""height:400px;""></stim_listB>",,html-keyboard-response,366,1092804,0.0-19.0-1.5,89400,List2B,white,woman,,,,null,,,,
null,are dancing with each other,,html-keyboard-response,367,1094807,0.0-19.0-2.5,89400,List2B,white,woman,,,,null,,,,
6163,,,survey-text,368,1100971,0.0-19.0-3.5,89400,List2B,white,woman,,,,,"{""Q0"":""jane and beth are dancing with each other""}","<img src=""stim_listB/dance8.gif""style=""height:400px;""></stim_listB>",are dancing with each other,
null,"<div style=""font-size:60px;"">+</div>",,html-keyboard-response,369,1101477,0.0-19.0-0.6,89400,List2B,white,woman,,,,null,,,,
null,"<img src=""stim_listB/dance7.gif""style=""height:400px;""></stim_listB>",,html-keyboard-response,370,1103479,0.0-19.0-1.6,89400,List2B,white,woman,,,,null,,,,
null,is dancing with,,html-keyboard-response,371,1105482,0.0-19.0-2.6,89400,List2B,white,woman,,,,null,,,,
4832,,,survey-text,372,1110314,0.0-19.0-3.6,89400,List2B,white,woman,,,,,"{""Q0"":""kate is dancing with ruth ""}","<img src=""stim_listB/dance7.gif""style=""height:400px;""></stim_listB>",is dancing with,
null,"<div style=""font-size:60px;"">+</div>",,html-keyboard-response,373,1110816,0.0-19.0-0.7,89400,List2B,white,woman,,,,null,,,,
null,"<img src=""stim_listB/shout3.gif""style=""height:400px;""></stim_listB>",,html-keyboard-response,374,1112817,0.0-19.0-1.7,89400,List2B,white,woman,,,,null,,,,
null,is shouting at,,html-keyboard-response,375,1114819,0.0-19.0-2.7,89400,List2B,white,woman,,,,null,,,,
4053,,,survey-text,376,1118872,0.0-19.0-3.7,89400,List2B,white,woman,,,,,"{""Q0"":""fred is shouting at beth ""}","<img src=""stim_listB/shout3.gif""style=""height:400px;""></stim_listB>",is shouting at,
null,"<div style=""font-size:60px;"">+</div>",,html-keyboard-response,377,1119373,0.0-19.0-0.8,89400,List2B,white,woman,,,,null,,,,
null,"<img src=""stim_listB/kiss3.gif""style=""height:400px;""></stim_listB>",,html-keyboard-response,378,1121377,0.0-19.0-1.8,89400,List2B,white,woman,,,,null,,,,
null,is kissing,,html-keyboard-response,379,1123378,0.0-19.0-2.8,89400,List2B,white,woman,,,,null,,,,
5709,,,survey-text,380,1129088,0.0-19.0-3.8,89400,List2B,white,woman,,,,,"{""Q0"":""fred is kissing beth ""}","<img src=""stim_listB/kiss3.gif""style=""height:400px;""></stim_listB>",is kissing,
null,"<div style=""font-size:60px;"">+</div>",,html-keyboard-response,381,1129589,0.0-19.0-0.9,89400,List2B,white,woman,,,,null,,,,
null,"<img src=""stim_listB/fight2.gif""style=""height:400px;""></stim_listB>",,html-keyboard-response,382,1131595,0.0-19.0-1.9,89400,List2B,white,woman,,,,null,,,,
null,are fighting each other,,html-keyboard-response,383,1133597,0.0-19.0-2.9,89400,List2B,white,woman,,,,null,,,,
6434,,,survey-text,384,1140031,0.0-19.0-3.9,89400,List2B,white,woman,,,,,"{""Q0"":""ruth and luke are fighting each other ""}","<img src=""stim_listB/fight2.gif""style=""height:400px;""></stim_listB>",are fighting each other,
null,"<div style=""font-size:60px;"">+</div>",,html-keyboard-response,385,1140537,0.0-19.0-0.10,89400,List2B,white,woman,,,,null,,,,
null,"<img src=""stim_listB/fight4.gif""style=""height:400px;""></stim_listB>",,html-keyboard-response,386,1142541,0.0-19.0-1.10,89400,List2B,white,woman,,,,null,,,,
null,are fighting each other,,html-keyboard-response,387,1144541,0.0-19.0-2.10,89400,List2B,white,woman,,,,null,,,,
6341,,,survey-text,388,1150883,0.0-19.0-3.10,89400,List2B,white,woman,,,,,"{""Q0"":""fred and beth are fighting each other ""}","<img src=""stim_listB/fight4.gif""style=""height:400px;""></stim_listB>",are fighting each other,
null,"<div style=""font-size:60px;"">+</div>",,html-keyboard-response,389,1151385,0.0-19.0-0.11,89400,List2B,white,woman,,,,null,,,,
null,"<img src=""stim_listB/marry8.gif""style=""height:400px;""></stim_listB>",,html-keyboard-response,390,1153386,0.0-19.0-1.11,89400,List2B,white,woman,,,,null,,,,
null,are marrying each other,,html-keyboard-response,391,1155389,0.0-19.0-2.11,89400,List2B,white,woman,,,,null,,,,
6906,,,survey-text,392,1162297,0.0-19.0-3.11,89400,List2B,white,woman,,,,,"{""Q0"":""ruth and kate are marrying each other ""}","<img src=""stim_listB/marry8.gif""style=""height:400px;""></stim_listB>",are marrying each other,
null,"<div style=""font-size:60px;"">+</div>",,html-keyboard-response,393,1162799,0.0-19.0-0.12,89400,List2B,white,woman,,,,null,,,,
null,"<img src=""stim_listB/touch4.gif""style=""height:400px;""></stim_listB>",,html-keyboard-response,394,1164800,0.0-19.0-1.12,89400,List2B,white,woman,,,,null,,,,
null,are touching each other,,html-keyboard-response,395,1166802,0.0-19.0-2.12,89400,List2B,white,woman,,,,null,,,,
6183,,,survey-text,396,1172986,0.0-19.0-3.12,89400,List2B,white,woman,,,,,"{""Q0"":""beth and fred are touching each other ""}","<img src=""stim_listB/touch4.gif""style=""height:400px;""></stim_listB>",are touching each other,
null,"<div style=""font-size:60px;"">+</div>",,html-keyboard-response,397,1173487,0.0-19.0-0.13,89400,List2B,white,woman,,,,null,,,,
null,"<img src=""stim_listB/argue7.gif""style=""height:400px;""></stim_listB>",,html-keyboard-response,398,1175489,0.0-19.0-1.13,89400,List2B,white,woman,,,,null,,,,
null,is arguing with,,html-keyboard-response,399,1177492,0.0-19.0-2.13,89400,List2B,white,woman,,,,null,,,,
5080,,,survey-text,400,1182574,0.0-19.0-3.13,89400,List2B,white,woman,,,,,"{""Q0"":"" beth is arguing with jane ""}","<img src=""stim_listB/argue7.gif""style=""height:400px;""></stim_listB>",is arguing with,
null,"<div style=""font-size:60px;"">+</div>",,html-keyboard-response,401,1183077,0.0-19.0-0.14,89400,List2B,white,woman,,,,null,,,,
null,"<img src=""stim_listB/shout8.gif""style=""height:400px;""></stim_listB>",,html-keyboard-response,402,1185079,0.0-19.0-1.14,89400,List2B,white,woman,,,,null,,,,
null,are shouting at each other,,html-keyboard-response,403,1187079,0.0-19.0-2.14,89400,List2B,white,woman,,,,null,,,,
9881,,,survey-text,404,1196962,0.0-19.0-3.14,89400,List2B,white,woman,,,,,"{""Q0"":""jane and kate are shouting at each other ""}","<img src=""stim_listB/shout8.gif""style=""height:400px;""></stim_listB>",are shouting at each other,
null,"<div style=""font-size:60px;"">+</div>",,html-keyboard-response,405,1197464,0.0-19.0-0.15,89400,List2B,white,woman,,,,null,,,,
null,"<img src=""stim_listB/shout7.gif""style=""height:400px;""></stim_listB>",,html-keyboard-response,406,1199467,0.0-19.0-1.15,89400,List2B,white,woman,,,,null,,,,
null,is shouting at,,html-keyboard-response,407,1201470,0.0-19.0-2.15,89400,List2B,white,woman,,,,null,,,,
4409,,,survey-text,408,1205879,0.0-19.0-3.15,89400,List2B,white,woman,,,,,"{""Q0"":""beth is shouting at ruth ""}","<img src=""stim_listB/shout7.gif""style=""height:400px;""></stim_listB>",is shouting at,
null,"<div style=""font-size:60px;"">+</div>",,html-keyboard-response,409,1206381,0.0-19.0-0.16,89400,List2B,white,woman,,,,null,,,,
null,"<img src=""stim_listB/flirt5.gif""style=""height:400px;""></stim_listB>",,html-keyboard-response,410,1208386,0.0-19.0-1.16,89400,List2B,white,woman,,,,null,,,,
null,is flirting with,,html-keyboard-response,411,1210388,0.0-19.0-2.16,89400,List2B,white,woman,,,,null,,,,
4570,,,survey-text,412,1214959,0.0-19.0-3.16,89400,List2B,white,woman,,,,,"{""Q0"":""mike is flirting with luke ""}","<img src=""stim_listB/flirt5.gif""style=""height:400px;""></stim_listB>",is flirting with,
null,"<div style=""font-size:60px;"">+</div>",,html-keyboard-response,413,1215460,0.0-19.0-0.17,89400,List2B,white,woman,,,,null,,,,
null,"<img src=""stim_listB/argue2.gif""style=""height:400px;""></stim_listB>",,html-keyboard-response,414,1217462,0.0-19.0-1.17,89400,List2B,white,woman,,,,null,,,,
null,are arguing with each other,,html-keyboard-response,415,1219468,0.0-19.0-2.17,89400,List2B,white,woman,,,,null,,,,
6113,,,survey-text,416,1225581,0.0-19.0-3.17,89400,List2B,white,woman,,,,,"{""Q0"":""luke and jane are arguing with each other ""}","<img src=""stim_listB/argue2.gif""style=""height:400px;""></stim_listB>",are arguing with each other,
null,"<div style=""font-size:60px;"">+</div>",,html-keyboard-response,417,1226084,0.0-19.0-0.18,89400,List2B,white,woman,,,,null,,,,
null,"<img src=""stim_listB/kiss8.gif""style=""height:400px;""></stim_listB>",,html-keyboard-response,418,1228085,0.0-19.0-1.18,89400,List2B,white,woman,,,,null,,,,
null,are kissing each other,,html-keyboard-response,419,1230087,0.0-19.0-2.18,89400,List2B,white,woman,,,,null,,,,
5501,,,survey-text,420,1235588,0.0-19.0-3.18,89400,List2B,white,woman,,,,,"{""Q0"":""jane and kate are kissing each other ""}","<img src=""stim_listB/kiss8.gif""style=""height:400px;""></stim_listB>",are kissing each other,
null,"<div style=""font-size:60px;"">+</div>",,html-keyboard-response,421,1236092,0.0-19.0-0.19,89400,List2B,white,woman,,,,null,,,,
null,"<img src=""stim_listB/play8.gif""style=""height:400px;""></stim_listB>",,html-keyboard-response,422,1238095,0.0-19.0-1.19,89400,List2B,white,woman,,,,null,,,,
null,are playing with each other,,html-keyboard-response,423,1240097,0.0-19.0-2.19,89400,List2B,white,woman,,,,null,,,,
6213,,,survey-text,424,1246312,0.0-19.0-3.19,89400,List2B,white,woman,,,,,"{""Q0"":""ruth and beth are playing with each other ""}","<img src=""stim_listB/play8.gif""style=""height:400px;""></stim_listB>",are playing with each other,
1704,<p>Thank you for completing that task.</p><p>The final part of this session is a short questionnaire.</p><p>Press Continue.</p>,0,html-button-response,425,1248016,0.0-20.0,89400,List2B,white,woman,,,,,,,,
20657,,,survey-text,426,1269676,0.0-21.0,89400,List2B,white,woman,,,,,"{""Q0"":""22"",""Q1"":""French"",""Q2"":""English"",""Q3"":""England"",""Q4"":""White"",""Q5"":""Female""}",,,demographics
7072,,,survey-likert,427,1276749,0.0-22.0,89400,List2B,white,woman,,,,,"{""Q0"":4}",,,likert_ESS
4261,,,survey-likert,428,1281012,0.0-23.0,89400,List2B,white,woman,,,,,"{""Q0"":4}",,,likert_NSSAL_Q1
4233,,,survey-likert,429,1285246,0.0-24.0,89400,List2B,white,woman,,,,,"{""Q0"":4}",,,likert_NSSAL_Q2
3305,,,survey-likert,430,1288552,0.0-25.0,89400,List2B,white,woman,,,,,"{""Q0"":4}",,,likert_CGRS_Q1
2518,,,survey-likert,431,1291071,0.0-26.0,89400,List2B,white,woman,,,,,"{""Q0"":4}",,,likert_CGRS_Q2
3054,,,survey-likert,432,1294127,0.0-27.0,89400,List2B,white,woman,,,,,"{""Q0"":4}",,,likert_CGRS_Q3
8272,,,survey-text,433,1302401,0.0-28.0,89400,List2B,white,woman,,,,,"{""Q0"":""ccc""}",,,worker_id
15226,,,external-html,434,1317727,0.0-29.0,89400,List2B,white,woman,debrief.html,,,,,,,
