rt,stimulus,button_pressed,trial_type,trial_index,time_elapsed,internal_node_id,subject,list,ppt_race,ppt_gender,url,first_guess,correct,key_press,responses,image_type,phrase_type,test_part
2097,Welcome to the experiment. Press Continue to begin.,0,html-button-response,0,2102,0.0-0.0,90296,List2A,white,woman,,,,,,,,
24129,,,external-html,1,27283,0.0-1.0,90296,List2A,white,woman,consent.html,,,,,,,
4002,"<p>On the next page, you will see portraits of 8 people and their names.</p><p>Your first task is to take a few minutes to memorise the names of these people.</p><p>You will have to recall their names during the rest of the experiment, so it is</p><p>essential that you try to memorise these people and their names as best as you can.</p><br><p><strong>You will then be tested on your memory of these names and portraits.</strong></p><br><p>The experiment will start after you have completed this memory test.</p><br><p>Ready?</p>",0,html-button-response,2,31287,0.0-2.0,90296,List2A,white,woman,,,,,,,,
107483,"<img src='img/portrait_matrix_list2.jpg' style='width:900px;height:500px;''></img><p>If you have memorised all the portraits and names and are ready to start, press Continue.</p><p><strong>Please note: Your memory of these faces will be tested 4 times during this experiment.</strong></p>",0,html-button-response,3,139774,0.0-3.0-0.0,90296,List2A,white,woman,,,,,,,,
2646,"<img src=""portrait/WW2.jpg""style=""height:400px;""></img>",3,html-button-response,4,143423,0.0-3.0-1.0,90296,List2A,white,woman,,TRUE,3,,,,,
null,CORRECT,,html-keyboard-response,5,144931,0.0-3.0-2.0-0.0,90296,List2A,white,woman,,,,null,,,,
3139,"<img src=""portrait/WM2.jpg""style=""height:400px;""></img>",7,html-button-response,6,148073,0.0-3.0-4.0,90296,List2A,white,woman,,TRUE,7,,,,,
null,CORRECT,,html-keyboard-response,7,149577,0.0-3.0-5.0-0.0,90296,List2A,white,woman,,,,null,,,,
2468,"<img src=""portrait/BW2.jpg""style=""height:400px;""></img>",2,html-button-response,8,152049,0.0-3.0-7.0,90296,List2A,white,woman,,TRUE,2,,,,,
null,CORRECT,,html-keyboard-response,9,153553,0.0-3.0-8.0-0.0,90296,List2A,white,woman,,,,null,,,,
2732,"<img src=""portrait/BM2.jpg""style=""height:400px;""></img>",5,html-button-response,10,156289,0.0-3.0-10.0,90296,List2A,white,woman,,TRUE,5,,,,,
null,CORRECT,,html-keyboard-response,11,157793,0.0-3.0-11.0-0.0,90296,List2A,white,woman,,,,null,,,,
2334,"<img src=""portrait/BW1.jpg""style=""height:400px;""></img>",0,html-button-response,12,160130,0.0-3.0-13.0,90296,List2A,white,woman,,TRUE,0,,,,,
null,CORRECT,,html-keyboard-response,13,161634,0.0-3.0-14.0-0.0,90296,List2A,white,woman,,,,null,,,,
2285,"<img src=""portrait/WM1.jpg""style=""height:400px;""></img>",6,html-button-response,14,163922,0.0-3.0-16.0,90296,List2A,white,woman,,TRUE,6,,,,,
null,CORRECT,,html-keyboard-response,15,165426,0.0-3.0-17.0-0.0,90296,List2A,white,woman,,,,null,,,,
3868,"<img src=""portrait/WW1.jpg""style=""height:400px;""></img>",1,html-button-response,16,169297,0.0-3.0-19.0,90296,List2A,white,woman,,TRUE,1,,,,,
null,CORRECT,,html-keyboard-response,17,170800,0.0-3.0-20.0-0.0,90296,List2A,white,woman,,,,null,,,,
2659,"<img src=""portrait/BM1.jpg""style=""height:400px;""></img>",4,html-button-response,18,173463,0.0-3.0-22.0,90296,List2A,white,woman,,TRUE,4,,,,,
null,CORRECT,,html-keyboard-response,19,174967,0.0-3.0-23.0-0.0,90296,List2A,white,woman,,,,null,,,,
1752,<p>You got 8 out of 8 right first time. Press Continue.</p>,0,html-button-response,20,176722,0.0-3.0-25.0,90296,List2A,white,woman,,,,,,,,
16727,"<p>In this experiment, you will view photographs of the people from the memory game interacting.</p><p>By using the <strong>exact</strong> phrase given <i>after</i> the photograph appears and recalling the correct names of the people in the photographs, form a sentence describing the interaction. You do not need to capitalise names.</p><p>Type your answer in the space provided. Please complete every sentence before moving onto the next trial.</p><p>You will only have a few seconds to memorise each given photograph and phrase before you can respond, so try your best to focus.</p><p>An example is given below. Press 'Continue' when you are ready.</p><img src='img/speaking_example.jpg' style='width:800px;height:460px;''></img>",0,html-button-response,21,194454,0.0-4.0,90296,List2A,white,woman,,,,,,,,
4579,"<p>Before the experiment starts, you will watch two example trials. Press 'Continue'.</p>",0,html-button-response,22,200037,0.0-5.0,90296,List2A,white,woman,,,,,,,,
null,<img src='img/meet_eg.gif' style='height:400px;''></img>,,html-keyboard-response,23,203041,0.0-6.0,90296,List2A,white,woman,,,,null,,,,
null,<p>is meeting</p>,,html-keyboard-response,24,205044,0.0-7.0,90296,List2A,white,woman,,,,null,,,,
4125,<p><b>Answer:</b> jane is meeting ruth</p>,0,html-button-response,25,209171,0.0-8.0,90296,List2A,white,woman,,,,,,,,
null,<img src='img/look_eg.gif' style='height:400px;''></img>,,html-keyboard-response,26,212179,0.0-9.0,90296,List2A,white,woman,,,,null,,,,
null,<p>are looking at each other</p>,,html-keyboard-response,27,214182,0.0-10.0,90296,List2A,white,woman,,,,null,,,,
2767,<p><b>Answer:</b> fred and mike are looking at each other</p>,0,html-button-response,28,216951,0.0-11.0,90296,List2A,white,woman,,,,,,,,
9823,"<p>Ready to start the experiment?</p><br><p><strong>Remember to describe the picture using a full sentence,</strong></p><p><strong>that combines the names of the people with the <i>exact</i> phrase given.</strong></p><p><strong>To receive full payment you must do this correctly.</strong></p><p><strong> You do not need to capitalise names or use punctuation.</strong></p><br><p>Press 'Continue' to begin.</p>",0,html-button-response,29,227777,0.0-12.0,90296,List2A,white,woman,,,,,,,,
null,"<div style=""font-size:60px;"">+</div>",,html-keyboard-response,30,229281,0.0-13.0-0.0,90296,List2A,white,woman,,,,null,,,,
null,"<img src=""stim_listA/kiss1.gif""style=""height:400px;""></stim_listA>",,html-keyboard-response,31,231286,0.0-13.0-1.0,90296,List2A,white,woman,,,,null,,,,
null,is kissing,,html-keyboard-response,32,233289,0.0-13.0-2.0,90296,List2A,white,woman,,,,null,,,,
6046,,,survey-text,33,239340,0.0-13.0-3.0,90296,List2A,white,woman,,,,,"{""Q0"":""luke is kissing ruth ""}","<img src=""stim_listA/kiss1.gif""style=""height:400px;""></stim_listA>",is kissing,
null,"<div style=""font-size:60px;"">+</div>",,html-keyboard-response,34,239844,0.0-13.0-0.1,90296,List2A,white,woman,,,,null,,,,
null,"<img src=""stim_listA/touch2.gif""style=""height:400px;""></stim_listA>",,html-keyboard-response,35,241847,0.0-13.0-1.1,90296,List2A,white,woman,,,,null,,,,
null,are touching each other,,html-keyboard-response,36,243851,0.0-13.0-2.1,90296,List2A,white,woman,,,,null,,,,
4086,,,survey-text,37,247939,0.0-13.0-3.1,90296,List2A,white,woman,,,,,"{""Q0"":""luke and ruth""}","<img src=""stim_listA/touch2.gif""style=""height:400px;""></stim_listA>",are touching each other,
null,"<div style=""font-size:60px;"">+</div>",,html-keyboard-response,38,248442,0.0-13.0-0.2,90296,List2A,white,woman,,,,null,,,,
null,"<img src=""stim_listA/argue8.gif""style=""height:400px;""></stim_listA>",,html-keyboard-response,39,250445,0.0-13.0-1.2,90296,List2A,white,woman,,,,null,,,,
null,are arguing with each other,,html-keyboard-response,40,252449,0.0-13.0-2.2,90296,List2A,white,woman,,,,null,,,,
9526,,,survey-text,41,261978,0.0-13.0-3.2,90296,List2A,white,woman,,,,,"{""Q0"":""ruth and kate are arguing with each other ""}","<img src=""stim_listA/argue8.gif""style=""height:400px;""></stim_listA>",are arguing with each other,
null,"<div style=""font-size:60px;"">+</div>",,html-keyboard-response,42,262480,0.0-13.0-0.3,90296,List2A,white,woman,,,,null,,,,
null,"<img src=""stim_listA/dance6.gif""style=""height:400px;""></stim_listA>",,html-keyboard-response,43,264484,0.0-13.0-1.3,90296,List2A,white,woman,,,,null,,,,
null,are dancing with each other,,html-keyboard-response,44,266487,0.0-13.0-2.3,90296,List2A,white,woman,,,,null,,,,
9001,,,survey-text,45,275495,0.0-13.0-3.3,90296,List2A,white,woman,,,,,"{""Q0"":""dave and fred are dancing with each other ""}","<img src=""stim_listA/dance6.gif""style=""height:400px;""></stim_listA>",are dancing with each other,
null,"<div style=""font-size:60px;"">+</div>",,html-keyboard-response,46,275998,0.0-13.0-0.4,90296,List2A,white,woman,,,,null,,,,
null,"<img src=""stim_listA/touch3.gif""style=""height:400px;""></stim_listA>",,html-keyboard-response,47,278002,0.0-13.0-1.4,90296,List2A,white,woman,,,,null,,,,
null,is touching,,html-keyboard-response,48,280006,0.0-13.0-2.4,90296,List2A,white,woman,,,,null,,,,
5585,,,survey-text,49,285594,0.0-13.0-3.4,90296,List2A,white,woman,,,,,"{""Q0"":""kate is touching mike ""}","<img src=""stim_listA/touch3.gif""style=""height:400px;""></stim_listA>",is touching,
null,"<div style=""font-size:60px;"">+</div>",,html-keyboard-response,50,286096,0.0-13.0-0.5,90296,List2A,white,woman,,,,null,,,,
null,"<img src=""stim_listA/touch7.gif""style=""height:400px;""></stim_listA>",,html-keyboard-response,51,288099,0.0-13.0-1.5,90296,List2A,white,woman,,,,null,,,,
null,is touching,,html-keyboard-response,52,290103,0.0-13.0-2.5,90296,List2A,white,woman,,,,null,,,,
7705,,,survey-text,53,297811,0.0-13.0-3.5,90296,List2A,white,woman,,,,,"{""Q0"":""kate is touching jane ""}","<img src=""stim_listA/touch7.gif""style=""height:400px;""></stim_listA>",is touching,
null,"<div style=""font-size:60px;"">+</div>",,html-keyboard-response,54,298313,0.0-13.0-0.6,90296,List2A,white,woman,,,,null,,,,
null,"<img src=""stim_listA/shout1.gif""style=""height:400px;""></stim_listA>",,html-keyboard-response,55,300317,0.0-13.0-1.6,90296,List2A,white,woman,,,,null,,,,
null,is shouting at,,html-keyboard-response,56,302321,0.0-13.0-2.6,90296,List2A,white,woman,,,,null,,,,
6120,,,survey-text,57,308444,0.0-13.0-3.6,90296,List2A,white,woman,,,,,"{""Q0"":""ruth is shouting at luke ""}","<img src=""stim_listA/shout1.gif""style=""height:400px;""></stim_listA>",is shouting at,
null,"<div style=""font-size:60px;"">+</div>",,html-keyboard-response,58,308947,0.0-13.0-0.7,90296,List2A,white,woman,,,,null,,,,
null,"<img src=""stim_listA/argue4.gif""style=""height:400px;""></stim_listA>",,html-keyboard-response,59,310951,0.0-13.0-1.7,90296,List2A,white,woman,,,,null,,,,
null,are arguing with each other,,html-keyboard-response,60,312955,0.0-13.0-2.7,90296,List2A,white,woman,,,,null,,,,
9228,,,survey-text,61,322186,0.0-13.0-3.7,90296,List2A,white,woman,,,,,"{""Q0"":""kate and fred are arguing with each other ""}","<img src=""stim_listA/argue4.gif""style=""height:400px;""></stim_listA>",are arguing with each other,
null,"<div style=""font-size:60px;"">+</div>",,html-keyboard-response,62,322689,0.0-13.0-0.8,90296,List2A,white,woman,,,,null,,,,
null,"<img src=""stim_listA/flirt3.gif""style=""height:400px;""></stim_listA>",,html-keyboard-response,63,324693,0.0-13.0-1.8,90296,List2A,white,woman,,,,null,,,,
null,is flirting with,,html-keyboard-response,64,326696,0.0-13.0-2.8,90296,List2A,white,woman,,,,null,,,,
7201,,,survey-text,65,333900,0.0-13.0-3.8,90296,List2A,white,woman,,,,,"{""Q0"":""kate is flirting with fred ""}","<img src=""stim_listA/flirt3.gif""style=""height:400px;""></stim_listA>",is flirting with,
null,"<div style=""font-size:60px;"">+</div>",,html-keyboard-response,66,334403,0.0-13.0-0.9,90296,List2A,white,woman,,,,null,,,,
null,"<img src=""stim_listA/play3.gif""style=""height:400px;""></stim_listA>",,html-keyboard-response,67,336407,0.0-13.0-1.9,90296,List2A,white,woman,,,,null,,,,
null,is playing with,,html-keyboard-response,68,338411,0.0-13.0-2.9,90296,List2A,white,woman,,,,null,,,,
5544,,,survey-text,69,343958,0.0-13.0-3.9,90296,List2A,white,woman,,,,,"{""Q0"":""kate is playing with mike ""}","<img src=""stim_listA/play3.gif""style=""height:400px;""></stim_listA>",is playing with,
null,"<div style=""font-size:60px;"">+</div>",,html-keyboard-response,70,344461,0.0-13.0-0.10,90296,List2A,white,woman,,,,null,,,,
null,"<img src=""stim_listA/play4.gif""style=""height:400px;""></stim_listA>",,html-keyboard-response,71,346464,0.0-13.0-1.10,90296,List2A,white,woman,,,,null,,,,
null,are playing with each other,,html-keyboard-response,72,348468,0.0-13.0-2.10,90296,List2A,white,woman,,,,null,,,,
9062,,,survey-text,73,357532,0.0-13.0-3.10,90296,List2A,white,woman,,,,,"{""Q0"":""beth is playing with fred ""}","<img src=""stim_listA/play4.gif""style=""height:400px;""></stim_listA>",are playing with each other,
null,"<div style=""font-size:60px;"">+</div>",,html-keyboard-response,74,358035,0.0-13.0-0.11,90296,List2A,white,woman,,,,null,,,,
null,"<img src=""stim_listA/touch1.gif""style=""height:400px;""></stim_listA>",,html-keyboard-response,75,360038,0.0-13.0-1.11,90296,List2A,white,woman,,,,null,,,,
null,is touching,,html-keyboard-response,76,362042,0.0-13.0-2.11,90296,List2A,white,woman,,,,null,,,,
9387,,,survey-text,77,371431,0.0-13.0-3.11,90296,List2A,white,woman,,,,,"{""Q0"":""jane is touching dave ""}","<img src=""stim_listA/touch1.gif""style=""height:400px;""></stim_listA>",is touching,
null,"<div style=""font-size:60px;"">+</div>",,html-keyboard-response,78,371933,0.0-13.0-0.12,90296,List2A,white,woman,,,,null,,,,
null,"<img src=""stim_listA/flirt5.gif""style=""height:400px;""></stim_listA>",,html-keyboard-response,79,373936,0.0-13.0-1.12,90296,List2A,white,woman,,,,null,,,,
null,is flirting with,,html-keyboard-response,80,375940,0.0-13.0-2.12,90296,List2A,white,woman,,,,null,,,,
6080,,,survey-text,81,382023,0.0-13.0-3.12,90296,List2A,white,woman,,,,,"{""Q0"":""luke is flirting with mike ""}","<img src=""stim_listA/flirt5.gif""style=""height:400px;""></stim_listA>",is flirting with,
null,"<div style=""font-size:60px;"">+</div>",,html-keyboard-response,82,382525,0.0-13.0-0.13,90296,List2A,white,woman,,,,null,,,,
null,"<img src=""stim_listA/argue2.gif""style=""height:400px;""></stim_listA>",,html-keyboard-response,83,384529,0.0-13.0-1.13,90296,List2A,white,woman,,,,null,,,,
null,are arguing with each other,,html-keyboard-response,84,386533,0.0-13.0-2.13,90296,List2A,white,woman,,,,null,,,,
7262,,,survey-text,85,393798,0.0-13.0-3.13,90296,List2A,white,woman,,,,,"{""Q0"":""jane and luke are arguing with each other ""}","<img src=""stim_listA/argue2.gif""style=""height:400px;""></stim_listA>",are arguing with each other,
null,"<div style=""font-size:60px;"">+</div>",,html-keyboard-response,86,394300,0.0-13.0-0.14,90296,List2A,white,woman,,,,null,,,,
null,"<img src=""stim_listA/fight6.gif""style=""height:400px;""></stim_listA>",,html-keyboard-response,87,396304,0.0-13.0-1.14,90296,List2A,white,woman,,,,null,,,,
null,are fighting each other,,html-keyboard-response,88,398307,0.0-13.0-2.14,90296,List2A,white,woman,,,,null,,,,
9760,,,survey-text,89,408070,0.0-13.0-3.14,90296,List2A,white,woman,,,,,"{""Q0"":""fred and luke are fighting each other ""}","<img src=""stim_listA/fight6.gif""style=""height:400px;""></stim_listA>",are fighting each other,
null,"<div style=""font-size:60px;"">+</div>",,html-keyboard-response,90,408574,0.0-13.0-0.15,90296,List2A,white,woman,,,,null,,,,
null,"<img src=""stim_listA/argue3.gif""style=""height:400px;""></stim_listA>",,html-keyboard-response,91,410578,0.0-13.0-1.15,90296,List2A,white,woman,,,,null,,,,
null,is arguing with,,html-keyboard-response,92,412582,0.0-13.0-2.15,90296,List2A,white,woman,,,,null,,,,
5426,,,survey-text,93,418011,0.0-13.0-3.15,90296,List2A,white,woman,,,,,"{""Q0"":""beth is arguing with mike""}","<img src=""stim_listA/argue3.gif""style=""height:400px;""></stim_listA>",is arguing with,
null,"<div style=""font-size:60px;"">+</div>",,html-keyboard-response,94,418513,0.0-13.0-0.16,90296,List2A,white,woman,,,,null,,,,
null,"<img src=""stim_listA/argue7.gif""style=""height:400px;""></stim_listA>",,html-keyboard-response,95,420517,0.0-13.0-1.16,90296,List2A,white,woman,,,,null,,,,
null,is arguing with,,html-keyboard-response,96,422521,0.0-13.0-2.16,90296,List2A,white,woman,,,,null,,,,
6297,,,survey-text,97,428820,0.0-13.0-3.16,90296,List2A,white,woman,,,,,"{""Q0"":""jane is arguing with beth ""}","<img src=""stim_listA/argue7.gif""style=""height:400px;""></stim_listA>",is arguing with,
null,"<div style=""font-size:60px;"">+</div>",,html-keyboard-response,98,429322,0.0-13.0-0.17,90296,List2A,white,woman,,,,null,,,,
null,"<img src=""stim_listA/play5.gif""style=""height:400px;""></stim_listA>",,html-keyboard-response,99,431325,0.0-13.0-1.17,90296,List2A,white,woman,,,,null,,,,
null,is playing with,,html-keyboard-response,100,433329,0.0-13.0-2.17,90296,List2A,white,woman,,,,null,,,,
5212,,,survey-text,101,438544,0.0-13.0-3.17,90296,List2A,white,woman,,,,,"{""Q0"":""dave is playing with mike ""}","<img src=""stim_listA/play5.gif""style=""height:400px;""></stim_listA>",is playing with,
null,"<div style=""font-size:60px;"">+</div>",,html-keyboard-response,102,439047,0.0-13.0-0.18,90296,List2A,white,woman,,,,null,,,,
null,"<img src=""stim_listA/flirt4.gif""style=""height:400px;""></stim_listA>",,html-keyboard-response,103,441051,0.0-13.0-1.18,90296,List2A,white,woman,,,,null,,,,
null,are flirting with each other,,html-keyboard-response,104,443054,0.0-13.0-2.18,90296,List2A,white,woman,,,,null,,,,
7663,,,survey-text,105,450719,0.0-13.0-3.18,90296,List2A,white,woman,,,,,"{""Q0"":""mike and beth are flirting with each other ""}","<img src=""stim_listA/flirt4.gif""style=""height:400px;""></stim_listA>",are flirting with each other,
null,"<div style=""font-size:60px;"">+</div>",,html-keyboard-response,106,451222,0.0-13.0-0.19,90296,List2A,white,woman,,,,null,,,,
null,"<img src=""stim_listA/marry1.gif""style=""height:400px;""></stim_listA>",,html-keyboard-response,107,453226,0.0-13.0-1.19,90296,List2A,white,woman,,,,null,,,,
null,is marrying,,html-keyboard-response,108,455229,0.0-13.0-2.19,90296,List2A,white,woman,,,,null,,,,
5071,,,survey-text,109,460302,0.0-13.0-3.19,90296,List2A,white,woman,,,,,"{""Q0"":""ruth is marrying dave ""}","<img src=""stim_listA/marry1.gif""style=""height:400px;""></stim_listA>",is marrying,
10411,"<img src='img/portrait_matrix_list2.jpg' style='width:900px;height:500px;''></img><p>If you have memorised all the portraits and names and are ready to start, press Continue.</p><p><strong>Please note: Your memory of these faces will be tested 4 times during this experiment.</strong></p>",0,html-button-response,110,470716,0.0-14.0-0.0,90296,List2A,white,woman,,,,,,,,
3047,"<img src=""portrait/WM2.jpg""style=""height:400px;""></img>",7,html-button-response,111,474767,0.0-14.0-1.0,90296,List2A,white,woman,,TRUE,7,,,,,
null,CORRECT,,html-keyboard-response,112,476270,0.0-14.0-2.0-0.0,90296,List2A,white,woman,,,,null,,,,
2848,"<img src=""portrait/BW2.jpg""style=""height:400px;""></img>",2,html-button-response,113,479123,0.0-14.0-4.0,90296,List2A,white,woman,,TRUE,2,,,,,
null,CORRECT,,html-keyboard-response,114,480628,0.0-14.0-5.0-0.0,90296,List2A,white,woman,,,,null,,,,
2231,"<img src=""portrait/BM2.jpg""style=""height:400px;""></img>",5,html-button-response,115,482863,0.0-14.0-7.0,90296,List2A,white,woman,,TRUE,5,,,,,
null,CORRECT,,html-keyboard-response,116,484367,0.0-14.0-8.0-0.0,90296,List2A,white,woman,,,,null,,,,
3952,"<img src=""portrait/BW1.jpg""style=""height:400px;""></img>",0,html-button-response,117,488323,0.0-14.0-10.0,90296,List2A,white,woman,,TRUE,0,,,,,
null,CORRECT,,html-keyboard-response,118,489827,0.0-14.0-11.0-0.0,90296,List2A,white,woman,,,,null,,,,
1709,"<img src=""portrait/BM1.jpg""style=""height:400px;""></img>",4,html-button-response,119,491540,0.0-14.0-13.0,90296,List2A,white,woman,,TRUE,4,,,,,
null,CORRECT,,html-keyboard-response,120,493044,0.0-14.0-14.0-0.0,90296,List2A,white,woman,,,,null,,,,
2377,"<img src=""portrait/WW1.jpg""style=""height:400px;""></img>",1,html-button-response,121,495424,0.0-14.0-16.0,90296,List2A,white,woman,,TRUE,1,,,,,
null,CORRECT,,html-keyboard-response,122,496928,0.0-14.0-17.0-0.0,90296,List2A,white,woman,,,,null,,,,
1717,"<img src=""portrait/WW2.jpg""style=""height:400px;""></img>",3,html-button-response,123,498649,0.0-14.0-19.0,90296,List2A,white,woman,,TRUE,3,,,,,
null,CORRECT,,html-keyboard-response,124,500153,0.0-14.0-20.0-0.0,90296,List2A,white,woman,,,,null,,,,
1883,"<img src=""portrait/WM1.jpg""style=""height:400px;""></img>",6,html-button-response,125,502039,0.0-14.0-22.0,90296,List2A,white,woman,,TRUE,6,,,,,
null,CORRECT,,html-keyboard-response,126,503544,0.0-14.0-23.0-0.0,90296,List2A,white,woman,,,,null,,,,
2409,<p>You got 8 out of 8 right first time. Press Continue.</p>,0,html-button-response,127,505957,0.0-14.0-25.0,90296,List2A,white,woman,,,,,,,,
null,"<div style=""font-size:60px;"">+</div>",,html-keyboard-response,128,507462,0.0-15.0-0.0,90296,List2A,white,woman,,,,null,,,,
null,"<img src=""stim_listA/talk4.gif""style=""height:400px;""></stim_listA>",,html-keyboard-response,129,509466,0.0-15.0-1.0,90296,List2A,white,woman,,,,null,,,,
null,are talking to each other,,html-keyboard-response,130,511470,0.0-15.0-2.0,90296,List2A,white,woman,,,,null,,,,
7559,,,survey-text,131,519032,0.0-15.0-3.0,90296,List2A,white,woman,,,,,"{""Q0"":""mike and beth are talking to each other ""}","<img src=""stim_listA/talk4.gif""style=""height:400px;""></stim_listA>",are talking to each other,
null,"<div style=""font-size:60px;"">+</div>",,html-keyboard-response,132,519534,0.0-15.0-0.1,90296,List2A,white,woman,,,,null,,,,
null,"<img src=""stim_listA/kiss3.gif""style=""height:400px;""></stim_listA>",,html-keyboard-response,133,521538,0.0-15.0-1.1,90296,List2A,white,woman,,,,null,,,,
null,is kissing,,html-keyboard-response,134,523541,0.0-15.0-2.1,90296,List2A,white,woman,,,,null,,,,
10478,,,survey-text,135,534022,0.0-15.0-3.1,90296,List2A,white,woman,,,,,"{""Q0"":""beth is kissing fred ""}","<img src=""stim_listA/kiss3.gif""style=""height:400px;""></stim_listA>",is kissing,
null,"<div style=""font-size:60px;"">+</div>",,html-keyboard-response,136,534525,0.0-15.0-0.2,90296,List2A,white,woman,,,,null,,,,
null,"<img src=""stim_listA/touch4.gif""style=""height:400px;""></stim_listA>",,html-keyboard-response,137,536529,0.0-15.0-1.2,90296,List2A,white,woman,,,,null,,,,
null,are touching each other,,html-keyboard-response,138,538532,0.0-15.0-2.2,90296,List2A,white,woman,,,,null,,,,
10871,,,survey-text,139,549406,0.0-15.0-3.2,90296,List2A,white,woman,,,,,"{""Q0"":""beth and fred are touching each other""}","<img src=""stim_listA/touch4.gif""style=""height:400px;""></stim_listA>",are touching each other,
null,"<div style=""font-size:60px;"">+</div>",,html-keyboard-response,140,549909,0.0-15.0-0.3,90296,List2A,white,woman,,,,null,,,,
null,"<img src=""stim_listA/fight2.gif""style=""height:400px;""></stim_listA>",,html-keyboard-response,141,551912,0.0-15.0-1.3,90296,List2A,white,woman,,,,null,,,,
null,are fighting each other,,html-keyboard-response,142,553916,0.0-15.0-2.3,90296,List2A,white,woman,,,,null,,,,
9628,,,survey-text,143,563547,0.0-15.0-3.3,90296,List2A,white,woman,,,,,"{""Q0"":""ruth and luke  are fighting each other""}","<img src=""stim_listA/fight2.gif""style=""height:400px;""></stim_listA>",are fighting each other,
null,"<div style=""font-size:60px;"">+</div>",,html-keyboard-response,144,564049,0.0-15.0-0.4,90296,List2A,white,woman,,,,null,,,,
null,"<img src=""stim_listA/flirt2.gif""style=""height:400px;""></stim_listA>",,html-keyboard-response,145,566052,0.0-15.0-1.4,90296,List2A,white,woman,,,,null,,,,
null,are flirting with each other,,html-keyboard-response,146,568056,0.0-15.0-2.4,90296,List2A,white,woman,,,,null,,,,
9184,,,survey-text,147,577243,0.0-15.0-3.4,90296,List2A,white,woman,,,,,"{""Q0"":""ruth and dave are flirting with each other""}","<img src=""stim_listA/flirt2.gif""style=""height:400px;""></stim_listA>",are flirting with each other,
null,"<div style=""font-size:60px;"">+</div>",,html-keyboard-response,148,577746,0.0-15.0-0.5,90296,List2A,white,woman,,,,null,,,,
null,"<img src=""stim_listA/dance7.gif""style=""height:400px;""></stim_listA>",,html-keyboard-response,149,579750,0.0-15.0-1.5,90296,List2A,white,woman,,,,null,,,,
null,is dancing with,,html-keyboard-response,150,581753,0.0-15.0-2.5,90296,List2A,white,woman,,,,null,,,,
10204,,,survey-text,151,591960,0.0-15.0-3.5,90296,List2A,white,woman,,,,,"{""Q0"":""kate is dancing with ruth""}","<img src=""stim_listA/dance7.gif""style=""height:400px;""></stim_listA>",is dancing with,
null,"<div style=""font-size:60px;"">+</div>",,html-keyboard-response,152,592463,0.0-15.0-0.6,90296,List2A,white,woman,,,,null,,,,
null,"<img src=""stim_listA/dance8.gif""style=""height:400px;""></stim_listA>",,html-keyboard-response,153,594467,0.0-15.0-1.6,90296,List2A,white,woman,,,,null,,,,
null,are dancing with each other,,html-keyboard-response,154,596470,0.0-15.0-2.6,90296,List2A,white,woman,,,,null,,,,
9129,,,survey-text,155,605602,0.0-15.0-3.6,90296,List2A,white,woman,,,,,"{""Q0"":""beth and jane are dancing with each other""}","<img src=""stim_listA/dance8.gif""style=""height:400px;""></stim_listA>",are dancing with each other,
null,"<div style=""font-size:60px;"">+</div>",,html-keyboard-response,156,606105,0.0-15.0-0.7,90296,List2A,white,woman,,,,null,,,,
null,"<img src=""stim_listA/kiss5.gif""style=""height:400px;""></stim_listA>",,html-keyboard-response,157,608108,0.0-15.0-1.7,90296,List2A,white,woman,,,,null,,,,
null,is kissing,,html-keyboard-response,158,610111,0.0-15.0-2.7,90296,List2A,white,woman,,,,null,,,,
5912,,,survey-text,159,616027,0.0-15.0-3.7,90296,List2A,white,woman,,,,,"{""Q0"":""luke is kissing  fred""}","<img src=""stim_listA/kiss5.gif""style=""height:400px;""></stim_listA>",is kissing,
null,"<div style=""font-size:60px;"">+</div>",,html-keyboard-response,160,616529,0.0-15.0-0.8,90296,List2A,white,woman,,,,null,,,,
null,"<img src=""stim_listA/marry4.gif""style=""height:400px;""></stim_listA>",,html-keyboard-response,161,618533,0.0-15.0-1.8,90296,List2A,white,woman,,,,null,,,,
null,are marrying each other,,html-keyboard-response,162,620536,0.0-15.0-2.8,90296,List2A,white,woman,,,,null,,,,
7545,,,survey-text,163,628084,0.0-15.0-3.8,90296,List2A,white,woman,,,,,"{""Q0"":""fred and kate are marrying each other""}","<img src=""stim_listA/marry4.gif""style=""height:400px;""></stim_listA>",are marrying each other,
null,"<div style=""font-size:60px;"">+</div>",,html-keyboard-response,164,628587,0.0-15.0-0.9,90296,List2A,white,woman,,,,null,,,,
null,"<img src=""stim_listA/marry7.gif""style=""height:400px;""></stim_listA>",,html-keyboard-response,165,630591,0.0-15.0-1.9,90296,List2A,white,woman,,,,null,,,,
null,is marrying,,html-keyboard-response,166,632594,0.0-15.0-2.9,90296,List2A,white,woman,,,,null,,,,
9503,,,survey-text,167,642100,0.0-15.0-3.9,90296,List2A,white,woman,,,,,"{""Q0"":""beth is marrying  jane""}","<img src=""stim_listA/marry7.gif""style=""height:400px;""></stim_listA>",is marrying,
null,"<div style=""font-size:60px;"">+</div>",,html-keyboard-response,168,642602,0.0-15.0-0.10,90296,List2A,white,woman,,,,null,,,,
null,"<img src=""stim_listA/fight7.gif""style=""height:400px;""></stim_listA>",,html-keyboard-response,169,644606,0.0-15.0-1.10,90296,List2A,white,woman,,,,null,,,,
null,is fighting,,html-keyboard-response,170,646610,0.0-15.0-2.10,90296,List2A,white,woman,,,,null,,,,
10353,,,survey-text,171,656965,0.0-15.0-3.10,90296,List2A,white,woman,,,,,"{""Q0"":""jane is fighting kate""}","<img src=""stim_listA/fight7.gif""style=""height:400px;""></stim_listA>",is fighting,
null,"<div style=""font-size:60px;"">+</div>",,html-keyboard-response,172,657468,0.0-15.0-0.11,90296,List2A,white,woman,,,,null,,,,
null,"<img src=""stim_listA/talk3.gif""style=""height:400px;""></stim_listA>",,html-keyboard-response,173,659471,0.0-15.0-1.11,90296,List2A,white,woman,,,,null,,,,
null,is talking to,,html-keyboard-response,174,661474,0.0-15.0-2.11,90296,List2A,white,woman,,,,null,,,,
6013,,,survey-text,175,667490,0.0-15.0-3.11,90296,List2A,white,woman,,,,,"{""Q0"":""kate is talking to fred""}","<img src=""stim_listA/talk3.gif""style=""height:400px;""></stim_listA>",is talking to,
null,"<div style=""font-size:60px;"">+</div>",,html-keyboard-response,176,667992,0.0-15.0-0.12,90296,List2A,white,woman,,,,null,,,,
null,"<img src=""stim_listA/talk8.gif""style=""height:400px;""></stim_listA>",,html-keyboard-response,177,669995,0.0-15.0-1.12,90296,List2A,white,woman,,,,null,,,,
null,are talking to each other,,html-keyboard-response,178,671999,0.0-15.0-2.12,90296,List2A,white,woman,,,,null,,,,
8420,,,survey-text,179,680422,0.0-15.0-3.12,90296,List2A,white,woman,,,,,"{""Q0"":""beth and jane are talking to each other""}","<img src=""stim_listA/talk8.gif""style=""height:400px;""></stim_listA>",are talking to each other,
null,"<div style=""font-size:60px;"">+</div>",,html-keyboard-response,180,680925,0.0-15.0-0.13,90296,List2A,white,woman,,,,null,,,,
null,"<img src=""stim_listA/fight8.gif""style=""height:400px;""></stim_listA>",,html-keyboard-response,181,682928,0.0-15.0-1.13,90296,List2A,white,woman,,,,null,,,,
null,are fighting each other,,html-keyboard-response,182,684932,0.0-15.0-2.13,90296,List2A,white,woman,,,,null,,,,
8245,,,survey-text,183,693180,0.0-15.0-3.13,90296,List2A,white,woman,,,,,"{""Q0"":""ruth and beth are fighting each other""}","<img src=""stim_listA/fight8.gif""style=""height:400px;""></stim_listA>",are fighting each other,
null,"<div style=""font-size:60px;"">+</div>",,html-keyboard-response,184,693683,0.0-15.0-0.14,90296,List2A,white,woman,,,,null,,,,
null,"<img src=""stim_listA/shout3.gif""style=""height:400px;""></stim_listA>",,html-keyboard-response,185,695687,0.0-15.0-1.14,90296,List2A,white,woman,,,,null,,,,
null,is shouting at,,html-keyboard-response,186,697691,0.0-15.0-2.14,90296,List2A,white,woman,,,,null,,,,
12645,,,survey-text,187,710337,0.0-15.0-3.14,90296,List2A,white,woman,,,,,"{""Q0"":""fred is shouting  at beth""}","<img src=""stim_listA/shout3.gif""style=""height:400px;""></stim_listA>",is shouting at,
null,"<div style=""font-size:60px;"">+</div>",,html-keyboard-response,188,710840,0.0-15.0-0.15,90296,List2A,white,woman,,,,null,,,,
null,"<img src=""stim_listA/play7.gif""style=""height:400px;""></stim_listA>",,html-keyboard-response,189,712844,0.0-15.0-1.15,90296,List2A,white,woman,,,,null,,,,
null,is playing with,,html-keyboard-response,190,714847,0.0-15.0-2.15,90296,List2A,white,woman,,,,null,,,,
8988,,,survey-text,191,723838,0.0-15.0-3.15,90296,List2A,white,woman,,,,,"{""Q0"":""jane is playing with kate""}","<img src=""stim_listA/play7.gif""style=""height:400px;""></stim_listA>",is playing with,
null,"<div style=""font-size:60px;"">+</div>",,html-keyboard-response,192,724340,0.0-15.0-0.16,90296,List2A,white,woman,,,,null,,,,
null,"<img src=""stim_listA/fight4.gif""style=""height:400px;""></stim_listA>",,html-keyboard-response,193,726344,0.0-15.0-1.16,90296,List2A,white,woman,,,,null,,,,
null,are fighting each other,,html-keyboard-response,194,728347,0.0-15.0-2.16,90296,List2A,white,woman,,,,null,,,,
12273,,,survey-text,195,740623,0.0-15.0-3.16,90296,List2A,white,woman,,,,,"{""Q0"":""fred and beth are fighting each other ""}","<img src=""stim_listA/fight4.gif""style=""height:400px;""></stim_listA>",are fighting each other,
null,"<div style=""font-size:60px;"">+</div>",,html-keyboard-response,196,741124,0.0-15.0-0.17,90296,List2A,white,woman,,,,null,,,,
null,"<img src=""stim_listA/talk7.gif""style=""height:400px;""></stim_listA>",,html-keyboard-response,197,743128,0.0-15.0-1.17,90296,List2A,white,woman,,,,null,,,,
null,is talking to,,html-keyboard-response,198,745131,0.0-15.0-2.17,90296,List2A,white,woman,,,,null,,,,
10386,,,survey-text,199,755520,0.0-15.0-3.17,90296,List2A,white,woman,,,,,"{""Q0"":""ruth is talking to kate""}","<img src=""stim_listA/talk7.gif""style=""height:400px;""></stim_listA>",is talking to,
null,"<div style=""font-size:60px;"">+</div>",,html-keyboard-response,200,756023,0.0-15.0-0.18,90296,List2A,white,woman,,,,null,,,,
null,"<img src=""stim_listA/shout4.gif""style=""height:400px;""></stim_listA>",,html-keyboard-response,201,758027,0.0-15.0-1.18,90296,List2A,white,woman,,,,null,,,,
null,are shouting at each other,,html-keyboard-response,202,760030,0.0-15.0-2.18,90296,List2A,white,woman,,,,null,,,,
7345,,,survey-text,203,767377,0.0-15.0-3.18,90296,List2A,white,woman,,,,,"{""Q0"":""kate and mike are shouting at each other ""}","<img src=""stim_listA/shout4.gif""style=""height:400px;""></stim_listA>",are shouting at each other,
null,"<div style=""font-size:60px;"">+</div>",,html-keyboard-response,204,767880,0.0-15.0-0.19,90296,List2A,white,woman,,,,null,,,,
null,"<img src=""stim_listA/marry3.gif""style=""height:400px;""></stim_listA>",,html-keyboard-response,205,769884,0.0-15.0-1.19,90296,List2A,white,woman,,,,null,,,,
null,is marrying,,html-keyboard-response,206,771888,0.0-15.0-2.19,90296,List2A,white,woman,,,,null,,,,
4638,,,survey-text,207,776528,0.0-15.0-3.19,90296,List2A,white,woman,,,,,"{""Q0"":""mike is marrying beth""}","<img src=""stim_listA/marry3.gif""style=""height:400px;""></stim_listA>",is marrying,
3561,"<img src='img/portrait_matrix_list2.jpg' style='width:900px;height:500px;''></img><p>If you have memorised all the portraits and names and are ready to start, press Continue.</p><p><strong>Please note: Your memory of these faces will be tested 4 times during this experiment.</strong></p>",0,html-button-response,208,780092,0.0-16.0-0.0,90296,List2A,white,woman,,,,,,,,
1952,"<img src=""portrait/BM2.jpg""style=""height:400px;""></img>",5,html-button-response,209,783048,0.0-16.0-1.0,90296,List2A,white,woman,,TRUE,5,,,,,
null,CORRECT,,html-keyboard-response,210,784554,0.0-16.0-2.0-0.0,90296,List2A,white,woman,,,,null,,,,
2398,"<img src=""portrait/BW1.jpg""style=""height:400px;""></img>",0,html-button-response,211,786957,0.0-16.0-4.0,90296,List2A,white,woman,,TRUE,0,,,,,
null,CORRECT,,html-keyboard-response,212,788460,0.0-16.0-5.0-0.0,90296,List2A,white,woman,,,,null,,,,
1399,"<img src=""portrait/WW1.jpg""style=""height:400px;""></img>",1,html-button-response,213,789864,0.0-16.0-7.0,90296,List2A,white,woman,,TRUE,1,,,,,
null,CORRECT,,html-keyboard-response,214,791368,0.0-16.0-8.0-0.0,90296,List2A,white,woman,,,,null,,,,
1552,"<img src=""portrait/BM1.jpg""style=""height:400px;""></img>",4,html-button-response,215,792923,0.0-16.0-10.0,90296,List2A,white,woman,,TRUE,4,,,,,
null,CORRECT,,html-keyboard-response,216,794427,0.0-16.0-11.0-0.0,90296,List2A,white,woman,,,,null,,,,
1360,"<img src=""portrait/WM2.jpg""style=""height:400px;""></img>",7,html-button-response,217,795790,0.0-16.0-13.0,90296,List2A,white,woman,,TRUE,7,,,,,
null,CORRECT,,html-keyboard-response,218,797294,0.0-16.0-14.0-0.0,90296,List2A,white,woman,,,,null,,,,
1135,"<img src=""portrait/WM1.jpg""style=""height:400px;""></img>",6,html-button-response,219,798431,0.0-16.0-16.0,90296,List2A,white,woman,,TRUE,6,,,,,
null,CORRECT,,html-keyboard-response,220,799935,0.0-16.0-17.0-0.0,90296,List2A,white,woman,,,,null,,,,
1276,"<img src=""portrait/WW2.jpg""style=""height:400px;""></img>",3,html-button-response,221,801215,0.0-16.0-19.0,90296,List2A,white,woman,,TRUE,3,,,,,
null,CORRECT,,html-keyboard-response,222,802720,0.0-16.0-20.0-0.0,90296,List2A,white,woman,,,,null,,,,
1114,"<img src=""portrait/BW2.jpg""style=""height:400px;""></img>",2,html-button-response,223,803838,0.0-16.0-22.0,90296,List2A,white,woman,,TRUE,2,,,,,
null,CORRECT,,html-keyboard-response,224,805342,0.0-16.0-23.0-0.0,90296,List2A,white,woman,,,,null,,,,
1635,<p>You got 8 out of 8 right first time. Press Continue.</p>,0,html-button-response,225,806980,0.0-16.0-25.0,90296,List2A,white,woman,,,,,,,,
null,"<div style=""font-size:60px;"">+</div>",,html-keyboard-response,226,808486,0.0-17.0-0.0,90296,List2A,white,woman,,,,null,,,,
null,"<img src=""stim_listA/dance3.gif""style=""height:400px;""></stim_listA>",,html-keyboard-response,227,810490,0.0-17.0-1.0,90296,List2A,white,woman,,,,null,,,,
null,is dancing with,,html-keyboard-response,228,812492,0.0-17.0-2.0,90296,List2A,white,woman,,,,null,,,,
5298,,,survey-text,229,817793,0.0-17.0-3.0,90296,List2A,white,woman,,,,,"{""Q0"":""kate is dancing with fred ""}","<img src=""stim_listA/dance3.gif""style=""height:400px;""></stim_listA>",is dancing with,
null,"<div style=""font-size:60px;"">+</div>",,html-keyboard-response,230,818296,0.0-17.0-0.1,90296,List2A,white,woman,,,,null,,,,
null,"<img src=""stim_listA/kiss8.gif""style=""height:400px;""></stim_listA>",,html-keyboard-response,231,820299,0.0-17.0-1.1,90296,List2A,white,woman,,,,null,,,,
null,are kissing each other,,html-keyboard-response,232,822303,0.0-17.0-2.1,90296,List2A,white,woman,,,,null,,,,
7743,,,survey-text,233,830048,0.0-17.0-3.1,90296,List2A,white,woman,,,,,"{""Q0"":""kate is kissing jane""}","<img src=""stim_listA/kiss8.gif""style=""height:400px;""></stim_listA>",are kissing each other,
null,"<div style=""font-size:60px;"">+</div>",,html-keyboard-response,234,830550,0.0-17.0-0.2,90296,List2A,white,woman,,,,null,,,,
null,"<img src=""stim_listA/touch8.gif""style=""height:400px;""></stim_listA>",,html-keyboard-response,235,832554,0.0-17.0-1.2,90296,List2A,white,woman,,,,null,,,,
null,are touching each other,,html-keyboard-response,236,834557,0.0-17.0-2.2,90296,List2A,white,woman,,,,null,,,,
15572,,,survey-text,237,850132,0.0-17.0-3.2,90296,List2A,white,woman,,,,,"{""Q0"":""ruth and beth are touching  each other ""}","<img src=""stim_listA/touch8.gif""style=""height:400px;""></stim_listA>",are touching each other,
null,"<div style=""font-size:60px;"">+</div>",,html-keyboard-response,238,850634,0.0-17.0-0.3,90296,List2A,white,woman,,,,null,,,,
null,"<img src=""stim_listA/kiss6.gif""style=""height:400px;""></stim_listA>",,html-keyboard-response,239,852638,0.0-17.0-1.3,90296,List2A,white,woman,,,,null,,,,
null,are kissing each other,,html-keyboard-response,240,854641,0.0-17.0-2.3,90296,List2A,white,woman,,,,null,,,,
19734,,,survey-text,241,874378,0.0-17.0-3.3,90296,List2A,white,woman,,,,,"{""Q0"":""mike and dave are kissing each other""}","<img src=""stim_listA/kiss6.gif""style=""height:400px;""></stim_listA>",are kissing each other,
null,"<div style=""font-size:60px;"">+</div>",,html-keyboard-response,242,874880,0.0-17.0-0.4,90296,List2A,white,woman,,,,null,,,,
null,"<img src=""stim_listA/talk1.gif""style=""height:400px;""></stim_listA>",,html-keyboard-response,243,876883,0.0-17.0-1.4,90296,List2A,white,woman,,,,null,,,,
null,is talking to,,html-keyboard-response,244,878886,0.0-17.0-2.4,90296,List2A,white,woman,,,,null,,,,
9629,,,survey-text,245,888517,0.0-17.0-3.4,90296,List2A,white,woman,,,,,"{""Q0"":""jane is talking  to luke ""}","<img src=""stim_listA/talk1.gif""style=""height:400px;""></stim_listA>",is talking to,
null,"<div style=""font-size:60px;"">+</div>",,html-keyboard-response,246,889021,0.0-17.0-0.5,90296,List2A,white,woman,,,,null,,,,
null,"<img src=""stim_listA/play1.gif""style=""height:400px;""></stim_listA>",,html-keyboard-response,247,891024,0.0-17.0-1.5,90296,List2A,white,woman,,,,null,,,,
null,is playing with,,html-keyboard-response,248,893028,0.0-17.0-2.5,90296,List2A,white,woman,,,,null,,,,
12857,,,survey-text,249,905886,0.0-17.0-3.5,90296,List2A,white,woman,,,,,"{""Q0"":""dave is playing with jane""}","<img src=""stim_listA/play1.gif""style=""height:400px;""></stim_listA>",is playing with,
null,"<div style=""font-size:60px;"">+</div>",,html-keyboard-response,250,906389,0.0-17.0-0.6,90296,List2A,white,woman,,,,null,,,,
null,"<img src=""stim_listA/kiss4.gif""style=""height:400px;""></stim_listA>",,html-keyboard-response,251,908392,0.0-17.0-1.6,90296,List2A,white,woman,,,,null,,,,
null,are kissing each other,,html-keyboard-response,252,910396,0.0-17.0-2.6,90296,List2A,white,woman,,,,null,,,,
9388,,,survey-text,253,919786,0.0-17.0-3.6,90296,List2A,white,woman,,,,,"{""Q0"":""kate and mike are kissing each other ""}","<img src=""stim_listA/kiss4.gif""style=""height:400px;""></stim_listA>",are kissing each other,
null,"<div style=""font-size:60px;"">+</div>",,html-keyboard-response,254,920289,0.0-17.0-0.7,90296,List2A,white,woman,,,,null,,,,
null,"<img src=""stim_listA/flirt6.gif""style=""height:400px;""></stim_listA>",,html-keyboard-response,255,922293,0.0-17.0-1.7,90296,List2A,white,woman,,,,null,,,,
null,are flirting with each other,,html-keyboard-response,256,924297,0.0-17.0-2.7,90296,List2A,white,woman,,,,null,,,,
13786,,,survey-text,257,938086,0.0-17.0-3.7,90296,List2A,white,woman,,,,,"{""Q0"":""fred and dave are flirting  with each other ""}","<img src=""stim_listA/flirt6.gif""style=""height:400px;""></stim_listA>",are flirting with each other,
null,"<div style=""font-size:60px;"">+</div>",,html-keyboard-response,258,938589,0.0-17.0-0.8,90296,List2A,white,woman,,,,null,,,,
null,"<img src=""stim_listA/shout2.gif""style=""height:400px;""></stim_listA>",,html-keyboard-response,259,940591,0.0-17.0-1.8,90296,List2A,white,woman,,,,null,,,,
null,are shouting at each other,,html-keyboard-response,260,942595,0.0-17.0-2.8,90296,List2A,white,woman,,,,null,,,,
8088,,,survey-text,261,950685,0.0-17.0-3.8,90296,List2A,white,woman,,,,,"{""Q0"":""dave and jane are shouting at each other""}","<img src=""stim_listA/shout2.gif""style=""height:400px;""></stim_listA>",are shouting at each other,
null,"<div style=""font-size:60px;"">+</div>",,html-keyboard-response,262,951187,0.0-17.0-0.9,90296,List2A,white,woman,,,,null,,,,
null,"<img src=""stim_listA/marry8.gif""style=""height:400px;""></stim_listA>",,html-keyboard-response,263,953191,0.0-17.0-1.9,90296,List2A,white,woman,,,,null,,,,
null,are marrying each other,,html-keyboard-response,264,955195,0.0-17.0-2.9,90296,List2A,white,woman,,,,null,,,,
7402,,,survey-text,265,962599,0.0-17.0-3.9,90296,List2A,white,woman,,,,,"{""Q0"":""ruth and kate are marrying each other""}","<img src=""stim_listA/marry8.gif""style=""height:400px;""></stim_listA>",are marrying each other,
null,"<div style=""font-size:60px;"">+</div>",,html-keyboard-response,266,963102,0.0-17.0-0.10,90296,List2A,white,woman,,,,null,,,,
null,"<img src=""stim_listA/fight5.gif""style=""height:400px;""></stim_listA>",,html-keyboard-response,267,965106,0.0-17.0-1.10,90296,List2A,white,woman,,,,null,,,,
null,is fighting,,html-keyboard-response,268,967109,0.0-17.0-2.10,90296,List2A,white,woman,,,,null,,,,
6997,,,survey-text,269,974109,0.0-17.0-3.10,90296,List2A,white,woman,,,,,"{""Q0"":""dave is fighting mike""}","<img src=""stim_listA/fight5.gif""style=""height:400px;""></stim_listA>",is fighting,
null,"<div style=""font-size:60px;"">+</div>",,html-keyboard-response,270,974611,0.0-17.0-0.11,90296,List2A,white,woman,,,,null,,,,
null,"<img src=""stim_listA/argue6.gif""style=""height:400px;""></stim_listA>",,html-keyboard-response,271,976615,0.0-17.0-1.11,90296,List2A,white,woman,,,,null,,,,
null,are arguing with each other,,html-keyboard-response,272,978618,0.0-17.0-2.11,90296,List2A,white,woman,,,,null,,,,
6464,,,survey-text,273,985085,0.0-17.0-3.11,90296,List2A,white,woman,,,,,"{""Q0"":""luke and mike are arguing with each other ""}","<img src=""stim_listA/argue6.gif""style=""height:400px;""></stim_listA>",are arguing with each other,
null,"<div style=""font-size:60px;"">+</div>",,html-keyboard-response,274,985588,0.0-17.0-0.12,90296,List2A,white,woman,,,,null,,,,
null,"<img src=""stim_listA/kiss2.gif""style=""height:400px;""></stim_listA>",,html-keyboard-response,275,987591,0.0-17.0-1.12,90296,List2A,white,woman,,,,null,,,,
null,are kissing each other,,html-keyboard-response,276,989594,0.0-17.0-2.12,90296,List2A,white,woman,,,,null,,,,
6245,,,survey-text,277,995842,0.0-17.0-3.12,90296,List2A,white,woman,,,,,"{""Q0"":""dave and jane are kissing each other ""}","<img src=""stim_listA/kiss2.gif""style=""height:400px;""></stim_listA>",are kissing each other,
null,"<div style=""font-size:60px;"">+</div>",,html-keyboard-response,278,996344,0.0-17.0-0.13,90296,List2A,white,woman,,,,null,,,,
null,"<img src=""stim_listA/dance4.gif""style=""height:400px;""></stim_listA>",,html-keyboard-response,279,998347,0.0-17.0-1.13,90296,List2A,white,woman,,,,null,,,,
null,are dancing with each other,,html-keyboard-response,280,1000350,0.0-17.0-2.13,90296,List2A,white,woman,,,,null,,,,
9004,,,survey-text,281,1009357,0.0-17.0-3.13,90296,List2A,white,woman,,,,,"{""Q0"":""beth and mike are dancing with each other ""}","<img src=""stim_listA/dance4.gif""style=""height:400px;""></stim_listA>",are dancing with each other,
null,"<div style=""font-size:60px;"">+</div>",,html-keyboard-response,282,1009859,0.0-17.0-0.14,90296,List2A,white,woman,,,,null,,,,
null,"<img src=""stim_listA/kiss7.gif""style=""height:400px;""></stim_listA>",,html-keyboard-response,283,1011870,0.0-17.0-1.14,90296,List2A,white,woman,,,,null,,,,
null,is kissing,,html-keyboard-response,284,1013872,0.0-17.0-2.14,90296,List2A,white,woman,,,,null,,,,
4489,,,survey-text,285,1018365,0.0-17.0-3.14,90296,List2A,white,woman,,,,,"{""Q0"":""beth is kissing ruth""}","<img src=""stim_listA/kiss7.gif""style=""height:400px;""></stim_listA>",is kissing,
null,"<div style=""font-size:60px;"">+</div>",,html-keyboard-response,286,1018867,0.0-17.0-0.15,90296,List2A,white,woman,,,,null,,,,
null,"<img src=""stim_listA/fight3.gif""style=""height:400px;""></stim_listA>",,html-keyboard-response,287,1020871,0.0-17.0-1.15,90296,List2A,white,woman,,,,null,,,,
null,is fighting,,html-keyboard-response,288,1022874,0.0-17.0-2.15,90296,List2A,white,woman,,,,null,,,,
8763,,,survey-text,289,1031640,0.0-17.0-3.15,90296,List2A,white,woman,,,,,"{""Q0"":""mike is fighting kate ""}","<img src=""stim_listA/fight3.gif""style=""height:400px;""></stim_listA>",is fighting,
null,"<div style=""font-size:60px;"">+</div>",,html-keyboard-response,290,1032143,0.0-17.0-0.16,90296,List2A,white,woman,,,,null,,,,
null,"<img src=""stim_listA/argue5.gif""style=""height:400px;""></stim_listA>",,html-keyboard-response,291,1034146,0.0-17.0-1.16,90296,List2A,white,woman,,,,null,,,,
null,is arguing with,,html-keyboard-response,292,1036150,0.0-17.0-2.16,90296,List2A,white,woman,,,,null,,,,
9120,,,survey-text,293,1045273,0.0-17.0-3.16,90296,List2A,white,woman,,,,,"{""Q0"":""fred is arguing with dave""}","<img src=""stim_listA/argue5.gif""style=""height:400px;""></stim_listA>",is arguing with,
null,"<div style=""font-size:60px;"">+</div>",,html-keyboard-response,294,1045776,0.0-17.0-0.17,90296,List2A,white,woman,,,,null,,,,
null,"<img src=""stim_listA/shout7.gif""style=""height:400px;""></stim_listA>",,html-keyboard-response,295,1047779,0.0-17.0-1.17,90296,List2A,white,woman,,,,null,,,,
null,is shouting at,,html-keyboard-response,296,1049787,0.0-17.0-2.17,90296,List2A,white,woman,,,,null,,,,
5441,,,survey-text,297,1055231,0.0-17.0-3.17,90296,List2A,white,woman,,,,,"{""Q0"":""ruth is shouting at beth ""}","<img src=""stim_listA/shout7.gif""style=""height:400px;""></stim_listA>",is shouting at,
null,"<div style=""font-size:60px;"">+</div>",,html-keyboard-response,298,1055734,0.0-17.0-0.18,90296,List2A,white,woman,,,,null,,,,
null,"<img src=""stim_listA/marry2.gif""style=""height:400px;""></stim_listA>",,html-keyboard-response,299,1057737,0.0-17.0-1.18,90296,List2A,white,woman,,,,null,,,,
null,are marrying each other,,html-keyboard-response,300,1059741,0.0-17.0-2.18,90296,List2A,white,woman,,,,null,,,,
10488,,,survey-text,301,1070232,0.0-17.0-3.18,90296,List2A,white,woman,,,,,"{""Q0"":""jane and luke are marrying  each other ""}","<img src=""stim_listA/marry2.gif""style=""height:400px;""></stim_listA>",are marrying each other,
null,"<div style=""font-size:60px;"">+</div>",,html-keyboard-response,302,1070735,0.0-17.0-0.19,90296,List2A,white,woman,,,,null,,,,
null,"<img src=""stim_listA/touch5.gif""style=""height:400px;""></stim_listA>",,html-keyboard-response,303,1072738,0.0-17.0-1.19,90296,List2A,white,woman,,,,null,,,,
null,is touching,,html-keyboard-response,304,1074742,0.0-17.0-2.19,90296,List2A,white,woman,,,,null,,,,
5418,,,survey-text,305,1080163,0.0-17.0-3.19,90296,List2A,white,woman,,,,,"{""Q0"":""mike is touching dave""}","<img src=""stim_listA/touch5.gif""style=""height:400px;""></stim_listA>",is touching,
1886,"<img src='img/portrait_matrix_list2.jpg' style='width:900px;height:500px;''></img><p>If you have memorised all the portraits and names and are ready to start, press Continue.</p><p><strong>Please note: Your memory of these faces will be tested 4 times during this experiment.</strong></p>",0,html-button-response,306,1082052,0.0-18.0-0.0,90296,List2A,white,woman,,,,,,,,
1959,"<img src=""portrait/BM2.jpg""style=""height:400px;""></img>",5,html-button-response,307,1085015,0.0-18.0-1.0,90296,List2A,white,woman,,TRUE,5,,,,,
null,CORRECT,,html-keyboard-response,308,1086519,0.0-18.0-2.0-0.0,90296,List2A,white,woman,,,,null,,,,
1286,"<img src=""portrait/WM2.jpg""style=""height:400px;""></img>",7,html-button-response,309,1087809,0.0-18.0-4.0,90296,List2A,white,woman,,TRUE,7,,,,,
null,CORRECT,,html-keyboard-response,310,1089313,0.0-18.0-5.0-0.0,90296,List2A,white,woman,,,,null,,,,
1809,"<img src=""portrait/BM1.jpg""style=""height:400px;""></img>",4,html-button-response,311,1091126,0.0-18.0-7.0,90296,List2A,white,woman,,TRUE,4,,,,,
null,CORRECT,,html-keyboard-response,312,1092630,0.0-18.0-8.0-0.0,90296,List2A,white,woman,,,,null,,,,
1433,"<img src=""portrait/WW1.jpg""style=""height:400px;""></img>",1,html-button-response,313,1094066,0.0-18.0-10.0,90296,List2A,white,woman,,TRUE,1,,,,,
null,CORRECT,,html-keyboard-response,314,1095570,0.0-18.0-11.0-0.0,90296,List2A,white,woman,,,,null,,,,
1459,"<img src=""portrait/WW2.jpg""style=""height:400px;""></img>",3,html-button-response,315,1097033,0.0-18.0-13.0,90296,List2A,white,woman,,TRUE,3,,,,,
null,CORRECT,,html-keyboard-response,316,1098542,0.0-18.0-14.0-0.0,90296,List2A,white,woman,,,,null,,,,
1612,"<img src=""portrait/BW1.jpg""style=""height:400px;""></img>",0,html-button-response,317,1100158,0.0-18.0-16.0,90296,List2A,white,woman,,TRUE,0,,,,,
null,CORRECT,,html-keyboard-response,318,1101662,0.0-18.0-17.0-0.0,90296,List2A,white,woman,,,,null,,,,
1543,"<img src=""portrait/WM1.jpg""style=""height:400px;""></img>",6,html-button-response,319,1103209,0.0-18.0-19.0,90296,List2A,white,woman,,TRUE,6,,,,,
null,CORRECT,,html-keyboard-response,320,1104712,0.0-18.0-20.0-0.0,90296,List2A,white,woman,,,,null,,,,
1541,"<img src=""portrait/BW2.jpg""style=""height:400px;""></img>",2,html-button-response,321,1106257,0.0-18.0-22.0,90296,List2A,white,woman,,TRUE,2,,,,,
null,CORRECT,,html-keyboard-response,322,1107762,0.0-18.0-23.0-0.0,90296,List2A,white,woman,,,,null,,,,
1275,<p>You got 8 out of 8 right first time. Press Continue.</p>,0,html-button-response,323,1109040,0.0-18.0-25.0,90296,List2A,white,woman,,,,,,,,
null,"<div style=""font-size:60px;"">+</div>",,html-keyboard-response,324,1110546,0.0-19.0-0.0,90296,List2A,white,woman,,,,null,,,,
null,"<img src=""stim_listA/dance2.gif""style=""height:400px;""></stim_listA>",,html-keyboard-response,325,1112550,0.0-19.0-1.0,90296,List2A,white,woman,,,,null,,,,
null,are dancing with each other,,html-keyboard-response,326,1114553,0.0-19.0-2.0,90296,List2A,white,woman,,,,null,,,,
7604,,,survey-text,327,1122160,0.0-19.0-3.0,90296,List2A,white,woman,,,,,"{""Q0"":""dave and ruth are dancing with each other ""}","<img src=""stim_listA/dance2.gif""style=""height:400px;""></stim_listA>",are dancing with each other,
null,"<div style=""font-size:60px;"">+</div>",,html-keyboard-response,328,1122663,0.0-19.0-0.1,90296,List2A,white,woman,,,,null,,,,
null,"<img src=""stim_listA/marry5.gif""style=""height:400px;""></stim_listA>",,html-keyboard-response,329,1124667,0.0-19.0-1.1,90296,List2A,white,woman,,,,null,,,,
null,is marrying,,html-keyboard-response,330,1126670,0.0-19.0-2.1,90296,List2A,white,woman,,,,null,,,,
7046,,,survey-text,331,1133719,0.0-19.0-3.1,90296,List2A,white,woman,,,,,"{""Q0"":""fred is marrying dave ""}","<img src=""stim_listA/marry5.gif""style=""height:400px;""></stim_listA>",is marrying,
null,"<div style=""font-size:60px;"">+</div>",,html-keyboard-response,332,1134222,0.0-19.0-0.2,90296,List2A,white,woman,,,,null,,,,
null,"<img src=""stim_listA/shout8.gif""style=""height:400px;""></stim_listA>",,html-keyboard-response,333,1136226,0.0-19.0-1.2,90296,List2A,white,woman,,,,null,,,,
null,are shouting at each other,,html-keyboard-response,334,1138229,0.0-19.0-2.2,90296,List2A,white,woman,,,,null,,,,
9427,,,survey-text,335,1147664,0.0-19.0-3.2,90296,List2A,white,woman,,,,,"{""Q0"":""jane and kate are shouting at each other""}","<img src=""stim_listA/shout8.gif""style=""height:400px;""></stim_listA>",are shouting at each other,
null,"<div style=""font-size:60px;"">+</div>",,html-keyboard-response,336,1148166,0.0-19.0-0.3,90296,List2A,white,woman,,,,null,,,,
null,"<img src=""stim_listA/flirt8.gif""style=""height:400px;""></stim_listA>",,html-keyboard-response,337,1150170,0.0-19.0-1.3,90296,List2A,white,woman,,,,null,,,,
null,are flirting with each other,,html-keyboard-response,338,1152174,0.0-19.0-2.3,90296,List2A,white,woman,,,,null,,,,
10523,,,survey-text,339,1162700,0.0-19.0-3.3,90296,List2A,white,woman,,,,,"{""Q0"":""beth and jane are flirting with each other ""}","<img src=""stim_listA/flirt8.gif""style=""height:400px;""></stim_listA>",are flirting with each other,
null,"<div style=""font-size:60px;"">+</div>",,html-keyboard-response,340,1163203,0.0-19.0-0.4,90296,List2A,white,woman,,,,null,,,,
null,"<img src=""stim_listA/talk6.gif""style=""height:400px;""></stim_listA>",,html-keyboard-response,341,1165206,0.0-19.0-1.4,90296,List2A,white,woman,,,,null,,,,
null,are talking to each other,,html-keyboard-response,342,1167209,0.0-19.0-2.4,90296,List2A,white,woman,,,,null,,,,
33204,,,survey-text,343,1200422,0.0-19.0-3.4,90296,List2A,white,woman,,,,,"{""Q0"":""dave and fred are talking to each other""}","<img src=""stim_listA/talk6.gif""style=""height:400px;""></stim_listA>",are talking to each other,
null,"<div style=""font-size:60px;"">+</div>",,html-keyboard-response,344,1200925,0.0-19.0-0.5,90296,List2A,white,woman,,,,null,,,,
null,"<img src=""stim_listA/marry6.gif""style=""height:400px;""></stim_listA>",,html-keyboard-response,345,1202929,0.0-19.0-1.5,90296,List2A,white,woman,,,,null,,,,
null,are marrying each other,,html-keyboard-response,346,1204933,0.0-19.0-2.5,90296,List2A,white,woman,,,,null,,,,
20485,,,survey-text,347,1225421,0.0-19.0-3.5,90296,List2A,white,woman,,,,,"{""Q0"":""mike and luke are marrying each other ""}","<img src=""stim_listA/marry6.gif""style=""height:400px;""></stim_listA>",are marrying each other,
null,"<div style=""font-size:60px;"">+</div>",,html-keyboard-response,348,1225925,0.0-19.0-0.6,90296,List2A,white,woman,,,,null,,,,
null,"<img src=""stim_listA/play2.gif""style=""height:400px;""></stim_listA>",,html-keyboard-response,349,1227929,0.0-19.0-1.6,90296,List2A,white,woman,,,,null,,,,
null,are playing with each other,,html-keyboard-response,350,1229932,0.0-19.0-2.6,90296,List2A,white,woman,,,,null,,,,
8266,,,survey-text,351,1238201,0.0-19.0-3.6,90296,List2A,white,woman,,,,,"{""Q0"":""luke and ruth are playing with each other""}","<img src=""stim_listA/play2.gif""style=""height:400px;""></stim_listA>",are playing with each other,
null,"<div style=""font-size:60px;"">+</div>",,html-keyboard-response,352,1238704,0.0-19.0-0.7,90296,List2A,white,woman,,,,null,,,,
null,"<img src=""stim_listA/play6.gif""style=""height:400px;""></stim_listA>",,html-keyboard-response,353,1240707,0.0-19.0-1.7,90296,List2A,white,woman,,,,null,,,,
null,are playing with each other,,html-keyboard-response,354,1242711,0.0-19.0-2.7,90296,List2A,white,woman,,,,null,,,,
9954,,,survey-text,355,1252668,0.0-19.0-3.7,90296,List2A,white,woman,,,,,"{""Q0"":""fred and luke are playing with each other""}","<img src=""stim_listA/play6.gif""style=""height:400px;""></stim_listA>",are playing with each other,
null,"<div style=""font-size:60px;"">+</div>",,html-keyboard-response,356,1253171,0.0-19.0-0.8,90296,List2A,white,woman,,,,null,,,,
null,"<img src=""stim_listA/talk2.gif""style=""height:400px;""></stim_listA>",,html-keyboard-response,357,1255174,0.0-19.0-1.8,90296,List2A,white,woman,,,,null,,,,
null,are talking to each other,,html-keyboard-response,358,1257178,0.0-19.0-2.8,90296,List2A,white,woman,,,,null,,,,
14080,,,survey-text,359,1271261,0.0-19.0-3.8,90296,List2A,white,woman,,,,,"{""Q0"":""ruth and dave are talking to each other""}","<img src=""stim_listA/talk2.gif""style=""height:400px;""></stim_listA>",are talking to each other,
null,"<div style=""font-size:60px;"">+</div>",,html-keyboard-response,360,1271763,0.0-19.0-0.9,90296,List2A,white,woman,,,,null,,,,
null,"<img src=""stim_listA/dance5.gif""style=""height:400px;""></stim_listA>",,html-keyboard-response,361,1273768,0.0-19.0-1.9,90296,List2A,white,woman,,,,null,,,,
null,is dancing with,,html-keyboard-response,362,1275771,0.0-19.0-2.9,90296,List2A,white,woman,,,,null,,,,
4302,,,survey-text,363,1280076,0.0-19.0-3.9,90296,List2A,white,woman,,,,,"{""Q0"":""mike is dancing with luke ""}","<img src=""stim_listA/dance5.gif""style=""height:400px;""></stim_listA>",is dancing with,
null,"<div style=""font-size:60px;"">+</div>",,html-keyboard-response,364,1280579,0.0-19.0-0.10,90296,List2A,white,woman,,,,null,,,,
null,"<img src=""stim_listA/argue1.gif""style=""height:400px;""></stim_listA>",,html-keyboard-response,365,1282582,0.0-19.0-1.10,90296,List2A,white,woman,,,,null,,,,
null,is arguing with,,html-keyboard-response,366,1284585,0.0-19.0-2.10,90296,List2A,white,woman,,,,null,,,,
6328,,,survey-text,367,1290921,0.0-19.0-3.10,90296,List2A,white,woman,,,,,"{""Q0"":""ruth is arguing with dave ""}","<img src=""stim_listA/argue1.gif""style=""height:400px;""></stim_listA>",is arguing with,
null,"<div style=""font-size:60px;"">+</div>",,html-keyboard-response,368,1291424,0.0-19.0-0.11,90296,List2A,white,woman,,,,null,,,,
null,"<img src=""stim_listA/flirt7.gif""style=""height:400px;""></stim_listA>",,html-keyboard-response,369,1293428,0.0-19.0-1.11,90296,List2A,white,woman,,,,null,,,,
null,is flirting with,,html-keyboard-response,370,1295432,0.0-19.0-2.11,90296,List2A,white,woman,,,,null,,,,
7207,,,survey-text,371,1302642,0.0-19.0-3.11,90296,List2A,white,woman,,,,,"{""Q0"":""ruth is flirting with kate""}","<img src=""stim_listA/flirt7.gif""style=""height:400px;""></stim_listA>",is flirting with,
null,"<div style=""font-size:60px;"">+</div>",,html-keyboard-response,372,1303145,0.0-19.0-0.12,90296,List2A,white,woman,,,,null,,,,
null,"<img src=""stim_listA/fight1.gif""style=""height:400px;""></stim_listA>",,html-keyboard-response,373,1305148,0.0-19.0-1.12,90296,List2A,white,woman,,,,null,,,,
null,is fighting,,html-keyboard-response,374,1307151,0.0-19.0-2.12,90296,List2A,white,woman,,,,null,,,,
16598,,,survey-text,375,1323751,0.0-19.0-3.12,90296,List2A,white,woman,,,,,"{""Q0"":""dave is flirting with jane ""}","<img src=""stim_listA/fight1.gif""style=""height:400px;""></stim_listA>",is fighting,
null,"<div style=""font-size:60px;"">+</div>",,html-keyboard-response,376,1324255,0.0-19.0-0.13,90296,List2A,white,woman,,,,null,,,,
null,"<img src=""stim_listA/flirt1.gif""style=""height:400px;""></stim_listA>",,html-keyboard-response,377,1326259,0.0-19.0-1.13,90296,List2A,white,woman,,,,null,,,,
null,is flirting with,,html-keyboard-response,378,1328262,0.0-19.0-2.13,90296,List2A,white,woman,,,,null,,,,
4846,,,survey-text,379,1333115,0.0-19.0-3.13,90296,List2A,white,woman,,,,,"{""Q0"":""luke is flirting with jane ""}","<img src=""stim_listA/flirt1.gif""style=""height:400px;""></stim_listA>",is flirting with,
null,"<div style=""font-size:60px;"">+</div>",,html-keyboard-response,380,1333617,0.0-19.0-0.14,90296,List2A,white,woman,,,,null,,,,
null,"<img src=""stim_listA/play8.gif""style=""height:400px;""></stim_listA>",,html-keyboard-response,381,1335620,0.0-19.0-1.14,90296,List2A,white,woman,,,,null,,,,
null,are playing with each other,,html-keyboard-response,382,1337623,0.0-19.0-2.14,90296,List2A,white,woman,,,,null,,,,
10346,,,survey-text,383,1347972,0.0-19.0-3.14,90296,List2A,white,woman,,,,,"{""Q0"":""ruth and beth are playing with each other ""}","<img src=""stim_listA/play8.gif""style=""height:400px;""></stim_listA>",are playing with each other,
null,"<div style=""font-size:60px;"">+</div>",,html-keyboard-response,384,1348476,0.0-19.0-0.15,90296,List2A,white,woman,,,,null,,,,
null,"<img src=""stim_listA/dance1.gif""style=""height:400px;""></stim_listA>",,html-keyboard-response,385,1350480,0.0-19.0-1.15,90296,List2A,white,woman,,,,null,,,,
null,is dancing with,,html-keyboard-response,386,1352483,0.0-19.0-2.15,90296,List2A,white,woman,,,,null,,,,
9610,,,survey-text,387,1362097,0.0-19.0-3.15,90296,List2A,white,woman,,,,,"{""Q0"":""luke is dancing with jane""}","<img src=""stim_listA/dance1.gif""style=""height:400px;""></stim_listA>",is dancing with,
null,"<div style=""font-size:60px;"">+</div>",,html-keyboard-response,388,1362600,0.0-19.0-0.16,90296,List2A,white,woman,,,,null,,,,
null,"<img src=""stim_listA/touch6.gif""style=""height:400px;""></stim_listA>",,html-keyboard-response,389,1364604,0.0-19.0-1.16,90296,List2A,white,woman,,,,null,,,,
null,are touching each other,,html-keyboard-response,390,1366607,0.0-19.0-2.16,90296,List2A,white,woman,,,,null,,,,
7144,,,survey-text,391,1373755,0.0-19.0-3.16,90296,List2A,white,woman,,,,,"{""Q0"":""luke and fred are touching each other ""}","<img src=""stim_listA/touch6.gif""style=""height:400px;""></stim_listA>",are touching each other,
null,"<div style=""font-size:60px;"">+</div>",,html-keyboard-response,392,1374258,0.0-19.0-0.17,90296,List2A,white,woman,,,,null,,,,
null,"<img src=""stim_listA/talk5.gif""style=""height:400px;""></stim_listA>",,html-keyboard-response,393,1376260,0.0-19.0-1.17,90296,List2A,white,woman,,,,null,,,,
null,is talking to,,html-keyboard-response,394,1378264,0.0-19.0-2.17,90296,List2A,white,woman,,,,null,,,,
11976,,,survey-text,395,1390243,0.0-19.0-3.17,90296,List2A,white,woman,,,,,"{""Q0"":""luke is talking with mike ""}","<img src=""stim_listA/talk5.gif""style=""height:400px;""></stim_listA>",is talking to,
null,"<div style=""font-size:60px;"">+</div>",,html-keyboard-response,396,1390746,0.0-19.0-0.18,90296,List2A,white,woman,,,,null,,,,
null,"<img src=""stim_listA/shout5.gif""style=""height:400px;""></stim_listA>",,html-keyboard-response,397,1392750,0.0-19.0-1.18,90296,List2A,white,woman,,,,null,,,,
null,is shouting at,,html-keyboard-response,398,1394753,0.0-19.0-2.18,90296,List2A,white,woman,,,,null,,,,
11155,,,survey-text,399,1405911,0.0-19.0-3.18,90296,List2A,white,woman,,,,,"{""Q0"":""luke is shouting at fred""}","<img src=""stim_listA/shout5.gif""style=""height:400px;""></stim_listA>",is shouting at,
null,"<div style=""font-size:60px;"">+</div>",,html-keyboard-response,400,1406413,0.0-19.0-0.19,90296,List2A,white,woman,,,,null,,,,
null,"<img src=""stim_listA/shout6.gif""style=""height:400px;""></stim_listA>",,html-keyboard-response,401,1408417,0.0-19.0-1.19,90296,List2A,white,woman,,,,null,,,,
null,are shouting at each other,,html-keyboard-response,402,1410424,0.0-19.0-2.19,90296,List2A,white,woman,,,,null,,,,
7250,,,survey-text,403,1417677,0.0-19.0-3.19,90296,List2A,white,woman,,,,,"{""Q0"":""dave and mike are shouting n at each other ""}","<img src=""stim_listA/shout6.gif""style=""height:400px;""></stim_listA>",are shouting at each other,
2294,<p>Thank you for completing that task.</p><p>The final part of this session is a short questionnaire.</p><p>Press Continue.</p>,0,html-button-response,404,1419973,0.0-20.0,90296,List2A,white,woman,,,,,,,,
13909,,,survey-text,405,1434887,0.0-21.0,90296,List2A,white,woman,,,,,"{""Q0"":""19"",""Q1"":""english "",""Q2"":""english "",""Q3"":""england "",""Q4"":""white "",""Q5"":""female ""}",,,demographics
17364,,,survey-likert,406,1452256,0.0-22.0,90296,List2A,white,woman,,,,,"{""Q0"":4}",,,likert_ESS
6140,,,survey-likert,407,1458399,0.0-23.0,90296,List2A,white,woman,,,,,"{""Q0"":4}",,,likert_NSSAL_Q1
2199,,,survey-likert,408,1460602,0.0-24.0,90296,List2A,white,woman,,,,,"{""Q0"":4}",,,likert_NSSAL_Q2
3739,,,survey-likert,409,1464344,0.0-25.0,90296,List2A,white,woman,,,,,"{""Q0"":4}",,,likert_CGRS_Q1
5136,,,survey-likert,410,1469484,0.0-26.0,90296,List2A,white,woman,,,,,"{""Q0"":4}",,,likert_CGRS_Q2
2950,,,survey-likert,411,1472442,0.0-27.0,90296,List2A,white,woman,,,,,"{""Q0"":4}",,,likert_CGRS_Q3
4856,,,survey-text,412,1477305,0.0-28.0,90296,List2A,white,woman,,,,,"{""Q0"":""ccc""}",,,worker_id
17892,,,external-html,413,1495341,0.0-29.0,90296,List2A,white,woman,debrief.html,,,,,,,
