rt,stimulus,button_pressed,trial_type,trial_index,time_elapsed,internal_node_id,subject,list,ppt_race,ppt_gender,url,first_guess,correct,key_press,responses,image_type,phrase_type,test_part
491182,Welcome to the experiment. Press Continue to begin.,0,html-button-response,0,491187,0.0-0.0,90485,List2B,white,man,,,,,,,,
46671,,,external-html,1,539296,0.0-1.0,90485,List2B,white,man,consent.html,,,,,,,
11285,"<p>On the next page, you will see portraits of 8 people and their names.</p><p>Your first task is to take a few minutes to memorise the names of these people.</p><p>You will have to recall their names during the rest of the experiment, so it is</p><p>essential that you try to memorise these people and their names as best as you can.</p><br><p><strong>You will then be tested on your memory of these names and portraits.</strong></p><br><p>The experiment will start after you have completed this memory test.</p><br><p>Ready?</p>",0,html-button-response,2,550584,0.0-2.0,90485,List2B,white,man,,,,,,,,
55140,"<img src='img/portrait_matrix_list2.jpg' style='width:900px;height:500px;''></img><p>If you have memorised all the portraits and names and are ready to start, press Continue.</p><p><strong>Please note: Your memory of these faces will be tested 4 times during this experiment.</strong></p>",0,html-button-response,3,606725,0.0-3.0-0.0,90485,List2B,white,man,,,,,,,,
15621,"<img src=""portrait/BW2.jpg""style=""height:400px;""></img>",0,html-button-response,4,623348,0.0-3.0-1.0,90485,List2B,white,man,,TRUE,2,,,,,
6466,"<img src=""portrait/BW2.jpg""style=""height:400px;""></img>",2,html-button-response,5,630816,0.0-3.0-3.0-0.0,90485,List2B,white,man,,FALSE,2,,,,,
null,CORRECT,,html-keyboard-response,6,632317,0.0-3.0-3.0-1.0-0.0,90485,List2B,white,man,,,,null,,,,
3769,"<img src=""portrait/BM1.jpg""style=""height:400px;""></img>",4,html-button-response,7,636088,0.0-3.0-4.0,90485,List2B,white,man,,TRUE,4,,,,,
null,CORRECT,,html-keyboard-response,8,637588,0.0-3.0-5.0-0.0,90485,List2B,white,man,,,,null,,,,
2872,"<img src=""portrait/BW1.jpg""style=""height:400px;""></img>",1,html-button-response,9,640462,0.0-3.0-7.0,90485,List2B,white,man,,TRUE,0,,,,,
2028,"<img src=""portrait/BW1.jpg""style=""height:400px;""></img>",0,html-button-response,10,643491,0.0-3.0-9.0-0.0,90485,List2B,white,man,,FALSE,0,,,,,
null,CORRECT,,html-keyboard-response,11,644992,0.0-3.0-9.0-1.0-0.0,90485,List2B,white,man,,,,null,,,,
1950,"<img src=""portrait/WW1.jpg""style=""height:400px;""></img>",1,html-button-response,12,646944,0.0-3.0-10.0,90485,List2B,white,man,,TRUE,1,,,,,
null,CORRECT,,html-keyboard-response,13,648444,0.0-3.0-11.0-0.0,90485,List2B,white,man,,,,null,,,,
2156,"<img src=""portrait/BM2.jpg""style=""height:400px;""></img>",4,html-button-response,14,650602,0.0-3.0-13.0,90485,List2B,white,man,,TRUE,5,,,,,
2056,"<img src=""portrait/BM2.jpg""style=""height:400px;""></img>",5,html-button-response,15,653659,0.0-3.0-15.0-0.0,90485,List2B,white,man,,FALSE,5,,,,,
null,CORRECT,,html-keyboard-response,16,655159,0.0-3.0-15.0-1.0-0.0,90485,List2B,white,man,,,,null,,,,
5571,"<img src=""portrait/WM2.jpg""style=""height:400px;""></img>",7,html-button-response,17,660732,0.0-3.0-16.0,90485,List2B,white,man,,TRUE,7,,,,,
null,CORRECT,,html-keyboard-response,18,662232,0.0-3.0-17.0-0.0,90485,List2B,white,man,,,,null,,,,
5249,"<img src=""portrait/WM1.jpg""style=""height:400px;""></img>",6,html-button-response,19,667483,0.0-3.0-19.0,90485,List2B,white,man,,TRUE,6,,,,,
null,CORRECT,,html-keyboard-response,20,668983,0.0-3.0-20.0-0.0,90485,List2B,white,man,,,,null,,,,
7818,"<img src=""portrait/WW2.jpg""style=""height:400px;""></img>",1,html-button-response,21,676802,0.0-3.0-22.0,90485,List2B,white,man,,TRUE,3,,,,,
1678,"<img src=""portrait/WW2.jpg""style=""height:400px;""></img>",3,html-button-response,22,679483,0.0-3.0-24.0-0.0,90485,List2B,white,man,,FALSE,3,,,,,
null,CORRECT,,html-keyboard-response,23,680984,0.0-3.0-24.0-1.0-0.0,90485,List2B,white,man,,,,null,,,,
2033,<p>You got 4 out of 8 right first time. Press Continue.</p>,0,html-button-response,24,683018,0.0-3.0-25.0,90485,List2B,white,man,,,,,,,,
3046,"As you did not score 100%, the memory game will repeat. Press Continue.",0,html-button-response,25,687064,0.0-3.0-26.0-0.0,90485,List2B,white,man,,,,,,,,
33203,"<img src='img/portrait_matrix_list2.jpg' style='width:900px;height:500px;''></img><p>If you have memorised all the portraits and names and are ready to start, press Continue.</p><p><strong>Please note: Your memory of these faces will be tested 4 times during this experiment.</strong></p>",0,html-button-response,26,721269,0.0-3.1-0.1,90485,List2B,white,man,,,,,,,,
4068,"<img src=""portrait/BW2.jpg""style=""height:400px;""></img>",2,html-button-response,27,726338,0.0-3.1-1.1,90485,List2B,white,man,,TRUE,2,,,,,
null,CORRECT,,html-keyboard-response,28,727839,0.0-3.1-2.1-0.1,90485,List2B,white,man,,,,null,,,,
13245,"<img src=""portrait/BM1.jpg""style=""height:400px;""></img>",4,html-button-response,29,741087,0.0-3.1-4.1,90485,List2B,white,man,,TRUE,4,,,,,
null,CORRECT,,html-keyboard-response,30,742587,0.0-3.1-5.1-0.1,90485,List2B,white,man,,,,null,,,,
2131,"<img src=""portrait/BW1.jpg""style=""height:400px;""></img>",1,html-button-response,31,744720,0.0-3.1-7.1,90485,List2B,white,man,,TRUE,0,,,,,
2556,"<img src=""portrait/BW1.jpg""style=""height:400px;""></img>",0,html-button-response,32,748277,0.0-3.1-9.1-0.1,90485,List2B,white,man,,FALSE,0,,,,,
null,CORRECT,,html-keyboard-response,33,749777,0.0-3.1-9.1-1.1-0.1,90485,List2B,white,man,,,,null,,,,
4742,"<img src=""portrait/WW1.jpg""style=""height:400px;""></img>",1,html-button-response,34,754521,0.0-3.1-10.1,90485,List2B,white,man,,TRUE,1,,,,,
null,CORRECT,,html-keyboard-response,35,756017,0.0-3.1-11.1-0.1,90485,List2B,white,man,,,,null,,,,
3112,"<img src=""portrait/BM2.jpg""style=""height:400px;""></img>",7,html-button-response,36,759131,0.0-3.1-13.1,90485,List2B,white,man,,TRUE,5,,,,,
1572,"<img src=""portrait/BM2.jpg""style=""height:400px;""></img>",5,html-button-response,37,761705,0.0-3.1-15.1-0.1,90485,List2B,white,man,,FALSE,5,,,,,
null,CORRECT,,html-keyboard-response,38,763207,0.0-3.1-15.1-1.1-0.1,90485,List2B,white,man,,,,null,,,,
2892,"<img src=""portrait/WM2.jpg""style=""height:400px;""></img>",4,html-button-response,39,766101,0.0-3.1-16.1,90485,List2B,white,man,,TRUE,7,,,,,
2238,"<img src=""portrait/WM2.jpg""style=""height:400px;""></img>",7,html-button-response,40,769341,0.0-3.1-18.1-0.1,90485,List2B,white,man,,FALSE,7,,,,,
null,CORRECT,,html-keyboard-response,41,770841,0.0-3.1-18.1-1.1-0.1,90485,List2B,white,man,,,,null,,,,
3416,"<img src=""portrait/WM1.jpg""style=""height:400px;""></img>",6,html-button-response,42,774259,0.0-3.1-19.1,90485,List2B,white,man,,TRUE,6,,,,,
null,CORRECT,,html-keyboard-response,43,775759,0.0-3.1-20.1-0.1,90485,List2B,white,man,,,,null,,,,
1631,"<img src=""portrait/WW2.jpg""style=""height:400px;""></img>",3,html-button-response,44,777392,0.0-3.1-22.1,90485,List2B,white,man,,TRUE,3,,,,,
null,CORRECT,,html-keyboard-response,45,778892,0.0-3.1-23.1-0.1,90485,List2B,white,man,,,,null,,,,
1533,<p>You got 5 out of 8 right first time. Press Continue.</p>,0,html-button-response,46,780427,0.0-3.1-25.1,90485,List2B,white,man,,,,,,,,
1237,"As you did not score 100%, the memory game will repeat. Press Continue.",0,html-button-response,47,782665,0.0-3.1-26.1-0.1,90485,List2B,white,man,,,,,,,,
14616,"<img src='img/portrait_matrix_list2.jpg' style='width:900px;height:500px;''></img><p>If you have memorised all the portraits and names and are ready to start, press Continue.</p><p><strong>Please note: Your memory of these faces will be tested 4 times during this experiment.</strong></p>",0,html-button-response,48,798283,0.0-3.2-0.2,90485,List2B,white,man,,,,,,,,
1601,"<img src=""portrait/BW2.jpg""style=""height:400px;""></img>",2,html-button-response,49,800885,0.0-3.2-1.2,90485,List2B,white,man,,TRUE,2,,,,,
null,CORRECT,,html-keyboard-response,50,802385,0.0-3.2-2.2-0.2,90485,List2B,white,man,,,,null,,,,
7185,"<img src=""portrait/BM1.jpg""style=""height:400px;""></img>",7,html-button-response,51,809572,0.0-3.2-4.2,90485,List2B,white,man,,TRUE,4,,,,,
1522,"<img src=""portrait/BM1.jpg""style=""height:400px;""></img>",4,html-button-response,52,812095,0.0-3.2-6.2-0.2,90485,List2B,white,man,,FALSE,4,,,,,
null,CORRECT,,html-keyboard-response,53,813596,0.0-3.2-6.2-1.2-0.2,90485,List2B,white,man,,,,null,,,,
1544,"<img src=""portrait/BW1.jpg""style=""height:400px;""></img>",1,html-button-response,54,815141,0.0-3.2-7.2,90485,List2B,white,man,,TRUE,0,,,,,
2503,"<img src=""portrait/BW1.jpg""style=""height:400px;""></img>",0,html-button-response,55,818642,0.0-3.2-9.2-0.2,90485,List2B,white,man,,FALSE,0,,,,,
null,CORRECT,,html-keyboard-response,56,820142,0.0-3.2-9.2-1.2-0.2,90485,List2B,white,man,,,,null,,,,
2963,"<img src=""portrait/WW1.jpg""style=""height:400px;""></img>",1,html-button-response,57,823107,0.0-3.2-10.2,90485,List2B,white,man,,TRUE,1,,,,,
null,CORRECT,,html-keyboard-response,58,824607,0.0-3.2-11.2-0.2,90485,List2B,white,man,,,,null,,,,
4389,"<img src=""portrait/BM2.jpg""style=""height:400px;""></img>",5,html-button-response,59,828997,0.0-3.2-13.2,90485,List2B,white,man,,TRUE,5,,,,,
null,CORRECT,,html-keyboard-response,60,830498,0.0-3.2-14.2-0.2,90485,List2B,white,man,,,,null,,,,
3321,"<img src=""portrait/WM2.jpg""style=""height:400px;""></img>",7,html-button-response,61,833820,0.0-3.2-16.2,90485,List2B,white,man,,TRUE,7,,,,,
null,CORRECT,,html-keyboard-response,62,835321,0.0-3.2-17.2-0.2,90485,List2B,white,man,,,,null,,,,
3129,"<img src=""portrait/WM1.jpg""style=""height:400px;""></img>",5,html-button-response,63,838452,0.0-3.2-19.2,90485,List2B,white,man,,TRUE,6,,,,,
2038,"<img src=""portrait/WM1.jpg""style=""height:400px;""></img>",6,html-button-response,64,841492,0.0-3.2-21.2-0.2,90485,List2B,white,man,,FALSE,6,,,,,
null,CORRECT,,html-keyboard-response,65,842992,0.0-3.2-21.2-1.2-0.2,90485,List2B,white,man,,,,null,,,,
4112,"<img src=""portrait/WW2.jpg""style=""height:400px;""></img>",3,html-button-response,66,847106,0.0-3.2-22.2,90485,List2B,white,man,,TRUE,3,,,,,
null,CORRECT,,html-keyboard-response,67,848606,0.0-3.2-23.2-0.2,90485,List2B,white,man,,,,null,,,,
1824,<p>You got 5 out of 8 right first time. Press Continue.</p>,0,html-button-response,68,850431,0.0-3.2-25.2,90485,List2B,white,man,,,,,,,,
1341,"As you did not score 100%, the memory game will repeat. Press Continue.",0,html-button-response,69,852772,0.0-3.2-26.2-0.2,90485,List2B,white,man,,,,,,,,
18972,"<img src='img/portrait_matrix_list2.jpg' style='width:900px;height:500px;''></img><p>If you have memorised all the portraits and names and are ready to start, press Continue.</p><p><strong>Please note: Your memory of these faces will be tested 4 times during this experiment.</strong></p>",0,html-button-response,70,872745,0.0-3.3-0.3,90485,List2B,white,man,,,,,,,,
1539,"<img src=""portrait/BW2.jpg""style=""height:400px;""></img>",2,html-button-response,71,875286,0.0-3.3-1.3,90485,List2B,white,man,,TRUE,2,,,,,
null,CORRECT,,html-keyboard-response,72,876782,0.0-3.3-2.3-0.3,90485,List2B,white,man,,,,null,,,,
8937,"<img src=""portrait/BM1.jpg""style=""height:400px;""></img>",4,html-button-response,73,885721,0.0-3.3-4.3,90485,List2B,white,man,,TRUE,4,,,,,
null,CORRECT,,html-keyboard-response,74,887221,0.0-3.3-5.3-0.3,90485,List2B,white,man,,,,null,,,,
3016,"<img src=""portrait/BW1.jpg""style=""height:400px;""></img>",0,html-button-response,75,890239,0.0-3.3-7.3,90485,List2B,white,man,,TRUE,0,,,,,
null,CORRECT,,html-keyboard-response,76,891740,0.0-3.3-8.3-0.3,90485,List2B,white,man,,,,null,,,,
2103,"<img src=""portrait/WW1.jpg""style=""height:400px;""></img>",1,html-button-response,77,893844,0.0-3.3-10.3,90485,List2B,white,man,,TRUE,1,,,,,
null,CORRECT,,html-keyboard-response,78,895345,0.0-3.3-11.3-0.3,90485,List2B,white,man,,,,null,,,,
8300,"<img src=""portrait/BM2.jpg""style=""height:400px;""></img>",5,html-button-response,79,903646,0.0-3.3-13.3,90485,List2B,white,man,,TRUE,5,,,,,
null,CORRECT,,html-keyboard-response,80,905146,0.0-3.3-14.3-0.3,90485,List2B,white,man,,,,null,,,,
6719,"<img src=""portrait/WM2.jpg""style=""height:400px;""></img>",7,html-button-response,81,911867,0.0-3.3-16.3,90485,List2B,white,man,,TRUE,7,,,,,
null,CORRECT,,html-keyboard-response,82,913367,0.0-3.3-17.3-0.3,90485,List2B,white,man,,,,null,,,,
7255,"<img src=""portrait/WM1.jpg""style=""height:400px;""></img>",6,html-button-response,83,920623,0.0-3.3-19.3,90485,List2B,white,man,,TRUE,6,,,,,
null,CORRECT,,html-keyboard-response,84,922123,0.0-3.3-20.3-0.3,90485,List2B,white,man,,,,null,,,,
9530,"<img src=""portrait/WW2.jpg""style=""height:400px;""></img>",3,html-button-response,85,931654,0.0-3.3-22.3,90485,List2B,white,man,,TRUE,3,,,,,
null,CORRECT,,html-keyboard-response,86,933155,0.0-3.3-23.3-0.3,90485,List2B,white,man,,,,null,,,,
2172,<p>You got 8 out of 8 right first time. Press Continue.</p>,0,html-button-response,87,935329,0.0-3.3-25.3,90485,List2B,white,man,,,,,,,,
37887,"<p>In this experiment, you will view photographs of the people from the memory game interacting.</p><p>By using the <strong>exact</strong> phrase given <i>after</i> the photograph appears and recalling the correct names of the people in the photographs, form a sentence describing the interaction. You do not need to capitalise names.</p><p>Type your answer in the space provided. Please complete every sentence before moving onto the next trial.</p><p>You will only have a few seconds to memorise each given photograph and phrase before you can respond, so try your best to focus.</p><p>An example is given below. Press 'Continue' when you are ready.</p><img src='img/speaking_example.jpg' style='width:800px;height:460px;''></img>",0,html-button-response,88,974215,0.0-4.0,90485,List2B,white,man,,,,,,,,
1931,"<p>Before the experiment starts, you will watch two example trials. Press 'Continue'.</p>",0,html-button-response,89,977146,0.0-5.0,90485,List2B,white,man,,,,,,,,
null,<img src='img/meet_eg.gif' style='height:400px;''></img>,,html-keyboard-response,90,980147,0.0-6.0,90485,List2B,white,man,,,,null,,,,
null,<p>is meeting</p>,,html-keyboard-response,91,982147,0.0-7.0,90485,List2B,white,man,,,,null,,,,
3164,<p><b>Answer:</b> jane is meeting ruth</p>,0,html-button-response,92,985311,0.0-8.0,90485,List2B,white,man,,,,,,,,
null,<img src='img/look_eg.gif' style='height:400px;''></img>,,html-keyboard-response,93,988311,0.0-9.0,90485,List2B,white,man,,,,null,,,,
null,<p>are looking at each other</p>,,html-keyboard-response,94,990311,0.0-10.0,90485,List2B,white,man,,,,null,,,,
3789,<p><b>Answer:</b> fred and mike are looking at each other</p>,0,html-button-response,95,994100,0.0-11.0,90485,List2B,white,man,,,,,,,,
9214,"<p>Ready to start the experiment?</p><br><p><strong>Remember to describe the picture using a full sentence,</strong></p><p><strong>that combines the names of the people with the <i>exact</i> phrase given.</strong></p><p><strong>To receive full payment you must do this correctly.</strong></p><p><strong> You do not need to capitalise names or use punctuation.</strong></p><br><p>Press 'Continue' to begin.</p>",0,html-button-response,96,1004320,0.0-12.0,90485,List2B,white,man,,,,,,,,
null,"<div style=""font-size:60px;"">+</div>",,html-keyboard-response,97,1005820,0.0-13.0-0.0,90485,List2B,white,man,,,,null,,,,
null,"<img src=""stim_listB/marry1.gif""style=""height:400px;""></stim_listB>",,html-keyboard-response,98,1007821,0.0-13.0-1.0,90485,List2B,white,man,,,,null,,,,
null,is marrying,,html-keyboard-response,99,1009821,0.0-13.0-2.0,90485,List2B,white,man,,,,null,,,,
17598,,,survey-text,100,1027420,0.0-13.0-3.0,90485,List2B,white,man,,,,,"{""Q0"":""Luke is marrying Ruth""}","<img src=""stim_listB/marry1.gif""style=""height:400px;""></stim_listB>",is marrying,
null,"<div style=""font-size:60px;"">+</div>",,html-keyboard-response,101,1027922,0.0-13.0-0.1,90485,List2B,white,man,,,,null,,,,
null,"<img src=""stim_listB/kiss8.gif""style=""height:400px;""></stim_listB>",,html-keyboard-response,102,1029923,0.0-13.0-1.1,90485,List2B,white,man,,,,null,,,,
null,are kissing each other,,html-keyboard-response,103,1031923,0.0-13.0-2.1,90485,List2B,white,man,,,,null,,,,
14368,,,survey-text,104,1046292,0.0-13.0-3.1,90485,List2B,white,man,,,,,"{""Q0"":""kate is kissing ruth""}","<img src=""stim_listB/kiss8.gif""style=""height:400px;""></stim_listB>",are kissing each other,
null,"<div style=""font-size:60px;"">+</div>",,html-keyboard-response,105,1046793,0.0-13.0-0.2,90485,List2B,white,man,,,,null,,,,
null,"<img src=""stim_listB/play6.gif""style=""height:400px;""></stim_listB>",,html-keyboard-response,106,1048793,0.0-13.0-1.2,90485,List2B,white,man,,,,null,,,,
null,are playing with each other,,html-keyboard-response,107,1050793,0.0-13.0-2.2,90485,List2B,white,man,,,,null,,,,
27191,,,survey-text,108,1077985,0.0-13.0-3.2,90485,List2B,white,man,,,,,"{""Q0"":""dave is playing with fred""}","<img src=""stim_listB/play6.gif""style=""height:400px;""></stim_listB>",are playing with each other,
null,"<div style=""font-size:60px;"">+</div>",,html-keyboard-response,109,1078486,0.0-13.0-0.3,90485,List2B,white,man,,,,null,,,,
null,"<img src=""stim_listB/play4.gif""style=""height:400px;""></stim_listB>",,html-keyboard-response,110,1080486,0.0-13.0-1.3,90485,List2B,white,man,,,,null,,,,
null,are playing with each other,,html-keyboard-response,111,1082486,0.0-13.0-2.3,90485,List2B,white,man,,,,null,,,,
19305,,,survey-text,112,1101791,0.0-13.0-3.3,90485,List2B,white,man,,,,,"{""Q0"":""Beth is playing with fred""}","<img src=""stim_listB/play4.gif""style=""height:400px;""></stim_listB>",are playing with each other,
null,"<div style=""font-size:60px;"">+</div>",,html-keyboard-response,113,1102292,0.0-13.0-0.4,90485,List2B,white,man,,,,null,,,,
null,"<img src=""stim_listB/play2.gif""style=""height:400px;""></stim_listB>",,html-keyboard-response,114,1104292,0.0-13.0-1.4,90485,List2B,white,man,,,,null,,,,
null,are playing with each other,,html-keyboard-response,115,1106292,0.0-13.0-2.4,90485,List2B,white,man,,,,null,,,,
18746,,,survey-text,116,1125038,0.0-13.0-3.4,90485,List2B,white,man,,,,,"{""Q0"":""Ruth is playing with dave""}","<img src=""stim_listB/play2.gif""style=""height:400px;""></stim_listB>",are playing with each other,
null,"<div style=""font-size:60px;"">+</div>",,html-keyboard-response,117,1125539,0.0-13.0-0.5,90485,List2B,white,man,,,,null,,,,
null,"<img src=""stim_listB/shout7.gif""style=""height:400px;""></stim_listB>",,html-keyboard-response,118,1127539,0.0-13.0-1.5,90485,List2B,white,man,,,,null,,,,
null,is shouting at,,html-keyboard-response,119,1129539,0.0-13.0-2.5,90485,List2B,white,man,,,,null,,,,
11470,,,survey-text,120,1141009,0.0-13.0-3.5,90485,List2B,white,man,,,,,"{""Q0"":""Ruth is shouting at beth""}","<img src=""stim_listB/shout7.gif""style=""height:400px;""></stim_listB>",is shouting at,
null,"<div style=""font-size:60px;"">+</div>",,html-keyboard-response,121,1141510,0.0-13.0-0.6,90485,List2B,white,man,,,,null,,,,
null,"<img src=""stim_listB/shout5.gif""style=""height:400px;""></stim_listB>",,html-keyboard-response,122,1143510,0.0-13.0-1.6,90485,List2B,white,man,,,,null,,,,
null,is shouting at,,html-keyboard-response,123,1145510,0.0-13.0-2.6,90485,List2B,white,man,,,,null,,,,
15939,,,survey-text,124,1161450,0.0-13.0-3.6,90485,List2B,white,man,,,,,"{""Q0"":""Mike is shouting at fred""}","<img src=""stim_listB/shout5.gif""style=""height:400px;""></stim_listB>",is shouting at,
null,"<div style=""font-size:60px;"">+</div>",,html-keyboard-response,125,1161951,0.0-13.0-0.7,90485,List2B,white,man,,,,null,,,,
null,"<img src=""stim_listB/shout8.gif""style=""height:400px;""></stim_listB>",,html-keyboard-response,126,1163951,0.0-13.0-1.7,90485,List2B,white,man,,,,null,,,,
null,are shouting at each other,,html-keyboard-response,127,1165951,0.0-13.0-2.7,90485,List2B,white,man,,,,null,,,,
11289,,,survey-text,128,1177240,0.0-13.0-3.7,90485,List2B,white,man,,,,,"{""Q0"":""Kate is shouting at beth""}","<img src=""stim_listB/shout8.gif""style=""height:400px;""></stim_listB>",are shouting at each other,
null,"<div style=""font-size:60px;"">+</div>",,html-keyboard-response,129,1177741,0.0-13.0-0.8,90485,List2B,white,man,,,,null,,,,
null,"<img src=""stim_listB/touch3.gif""style=""height:400px;""></stim_listB>",,html-keyboard-response,130,1179738,0.0-13.0-1.8,90485,List2B,white,man,,,,null,,,,
null,is touching,,html-keyboard-response,131,1181739,0.0-13.0-2.8,90485,List2B,white,man,,,,null,,,,
8789,,,survey-text,132,1190529,0.0-13.0-3.8,90485,List2B,white,man,,,,,"{""Q0"":""Mike is touching kate""}","<img src=""stim_listB/touch3.gif""style=""height:400px;""></stim_listB>",is touching,
null,"<div style=""font-size:60px;"">+</div>",,html-keyboard-response,133,1191030,0.0-13.0-0.9,90485,List2B,white,man,,,,null,,,,
null,"<img src=""stim_listB/kiss7.gif""style=""height:400px;""></stim_listB>",,html-keyboard-response,134,1193030,0.0-13.0-1.9,90485,List2B,white,man,,,,null,,,,
null,is kissing,,html-keyboard-response,135,1195030,0.0-13.0-2.9,90485,List2B,white,man,,,,null,,,,
16713,,,survey-text,136,1211744,0.0-13.0-3.9,90485,List2B,white,man,,,,,"{""Q0"":""Ruth is kissing beth""}","<img src=""stim_listB/kiss7.gif""style=""height:400px;""></stim_listB>",is kissing,
null,"<div style=""font-size:60px;"">+</div>",,html-keyboard-response,137,1212244,0.0-13.0-0.10,90485,List2B,white,man,,,,null,,,,
null,"<img src=""stim_listB/flirt2.gif""style=""height:400px;""></stim_listB>",,html-keyboard-response,138,1214244,0.0-13.0-1.10,90485,List2B,white,man,,,,null,,,,
null,are flirting with each other,,html-keyboard-response,139,1216244,0.0-13.0-2.10,90485,List2B,white,man,,,,null,,,,
10454,,,survey-text,140,1226698,0.0-13.0-3.10,90485,List2B,white,man,,,,,"{""Q0"":""Ruth is flirting with luke""}","<img src=""stim_listB/flirt2.gif""style=""height:400px;""></stim_listB>",are flirting with each other,
null,"<div style=""font-size:60px;"">+</div>",,html-keyboard-response,141,1227199,0.0-13.0-0.11,90485,List2B,white,man,,,,null,,,,
null,"<img src=""stim_listB/talk2.gif""style=""height:400px;""></stim_listB>",,html-keyboard-response,142,1229200,0.0-13.0-1.11,90485,List2B,white,man,,,,null,,,,
null,are talking to each other,,html-keyboard-response,143,1231200,0.0-13.0-2.11,90485,List2B,white,man,,,,null,,,,
10522,,,survey-text,144,1241722,0.0-13.0-3.11,90485,List2B,white,man,,,,,"{""Q0"":""Ruth is talking with luke""}","<img src=""stim_listB/talk2.gif""style=""height:400px;""></stim_listB>",are talking to each other,
null,"<div style=""font-size:60px;"">+</div>",,html-keyboard-response,145,1242223,0.0-13.0-0.12,90485,List2B,white,man,,,,null,,,,
null,"<img src=""stim_listB/shout3.gif""style=""height:400px;""></stim_listB>",,html-keyboard-response,146,1244223,0.0-13.0-1.12,90485,List2B,white,man,,,,null,,,,
null,is shouting at,,html-keyboard-response,147,1246223,0.0-13.0-2.12,90485,List2B,white,man,,,,null,,,,
11022,,,survey-text,148,1257245,0.0-13.0-3.12,90485,List2B,white,man,,,,,"{""Q0"":""Beth is shouting at fred""}","<img src=""stim_listB/shout3.gif""style=""height:400px;""></stim_listB>",is shouting at,
null,"<div style=""font-size:60px;"">+</div>",,html-keyboard-response,149,1257747,0.0-13.0-0.13,90485,List2B,white,man,,,,null,,,,
null,"<img src=""stim_listB/marry5.gif""style=""height:400px;""></stim_listB>",,html-keyboard-response,150,1259747,0.0-13.0-1.13,90485,List2B,white,man,,,,null,,,,
null,is marrying,,html-keyboard-response,151,1261747,0.0-13.0-2.13,90485,List2B,white,man,,,,null,,,,
13436,,,survey-text,152,1275184,0.0-13.0-3.13,90485,List2B,white,man,,,,,"{""Q0"":""Luke is marrying fred""}","<img src=""stim_listB/marry5.gif""style=""height:400px;""></stim_listB>",is marrying,
null,"<div style=""font-size:60px;"">+</div>",,html-keyboard-response,153,1275684,0.0-13.0-0.14,90485,List2B,white,man,,,,null,,,,
null,"<img src=""stim_listB/dance4.gif""style=""height:400px;""></stim_listB>",,html-keyboard-response,154,1277684,0.0-13.0-1.14,90485,List2B,white,man,,,,null,,,,
null,are dancing with each other,,html-keyboard-response,155,1279684,0.0-13.0-2.14,90485,List2B,white,man,,,,null,,,,
10835,,,survey-text,156,1290519,0.0-13.0-3.14,90485,List2B,white,man,,,,,"{""Q0"":""Beth is dancing with dave""}","<img src=""stim_listB/dance4.gif""style=""height:400px;""></stim_listB>",are dancing with each other,
null,"<div style=""font-size:60px;"">+</div>",,html-keyboard-response,157,1291020,0.0-13.0-0.15,90485,List2B,white,man,,,,null,,,,
null,"<img src=""stim_listB/touch4.gif""style=""height:400px;""></stim_listB>",,html-keyboard-response,158,1293021,0.0-13.0-1.15,90485,List2B,white,man,,,,null,,,,
null,are touching each other,,html-keyboard-response,159,1295021,0.0-13.0-2.15,90485,List2B,white,man,,,,null,,,,
14269,,,survey-text,160,1309290,0.0-13.0-3.15,90485,List2B,white,man,,,,,"{""Q0"":""Beth is touching fred""}","<img src=""stim_listB/touch4.gif""style=""height:400px;""></stim_listB>",are touching each other,
null,"<div style=""font-size:60px;"">+</div>",,html-keyboard-response,161,1309791,0.0-13.0-0.16,90485,List2B,white,man,,,,null,,,,
null,"<img src=""stim_listB/fight2.gif""style=""height:400px;""></stim_listB>",,html-keyboard-response,162,1311791,0.0-13.0-1.16,90485,List2B,white,man,,,,null,,,,
null,are fighting each other,,html-keyboard-response,163,1313791,0.0-13.0-2.16,90485,List2B,white,man,,,,null,,,,
15488,,,survey-text,164,1329281,0.0-13.0-3.16,90485,List2B,white,man,,,,,"{""Q0"":""Ruth is fighting dave""}","<img src=""stim_listB/fight2.gif""style=""height:400px;""></stim_listB>",are fighting each other,
null,"<div style=""font-size:60px;"">+</div>",,html-keyboard-response,165,1329781,0.0-13.0-0.17,90485,List2B,white,man,,,,null,,,,
null,"<img src=""stim_listB/dance3.gif""style=""height:400px;""></stim_listB>",,html-keyboard-response,166,1331781,0.0-13.0-1.17,90485,List2B,white,man,,,,null,,,,
null,is dancing with,,html-keyboard-response,167,1333782,0.0-13.0-2.17,90485,List2B,white,man,,,,null,,,,
16385,,,survey-text,168,1350167,0.0-13.0-3.17,90485,List2B,white,man,,,,,"{""Q0"":""Kate is dancing with fred""}","<img src=""stim_listB/dance3.gif""style=""height:400px;""></stim_listB>",is dancing with,
null,"<div style=""font-size:60px;"">+</div>",,html-keyboard-response,169,1350668,0.0-13.0-0.18,90485,List2B,white,man,,,,null,,,,
null,"<img src=""stim_listB/dance2.gif""style=""height:400px;""></stim_listB>",,html-keyboard-response,170,1352668,0.0-13.0-1.18,90485,List2B,white,man,,,,null,,,,
null,are dancing with each other,,html-keyboard-response,171,1354668,0.0-13.0-2.18,90485,List2B,white,man,,,,null,,,,
11011,,,survey-text,172,1365679,0.0-13.0-3.18,90485,List2B,white,man,,,,,"{""Q0"":""Ruth is dancing with luke""}","<img src=""stim_listB/dance2.gif""style=""height:400px;""></stim_listB>",are dancing with each other,
null,"<div style=""font-size:60px;"">+</div>",,html-keyboard-response,173,1366180,0.0-13.0-0.19,90485,List2B,white,man,,,,null,,,,
null,"<img src=""stim_listB/dance7.gif""style=""height:400px;""></stim_listB>",,html-keyboard-response,174,1368180,0.0-13.0-1.19,90485,List2B,white,man,,,,null,,,,
null,is dancing with,,html-keyboard-response,175,1370180,0.0-13.0-2.19,90485,List2B,white,man,,,,null,,,,
9293,,,survey-text,176,1379474,0.0-13.0-3.19,90485,List2B,white,man,,,,,"{""Q0"":""Ruth is dancing with kate""}","<img src=""stim_listB/dance7.gif""style=""height:400px;""></stim_listB>",is dancing with,
14876,"<img src='img/portrait_matrix_list2.jpg' style='width:900px;height:500px;''></img><p>If you have memorised all the portraits and names and are ready to start, press Continue.</p><p><strong>Please note: Your memory of these faces will be tested 4 times during this experiment.</strong></p>",0,html-button-response,177,1394352,0.0-14.0-0.0,90485,List2B,white,man,,,,,,,,
2352,"<img src=""portrait/BW2.jpg""style=""height:400px;""></img>",3,html-button-response,178,1397706,0.0-14.0-1.0,90485,List2B,white,man,,TRUE,2,,,,,
4124,"<img src=""portrait/BW2.jpg""style=""height:400px;""></img>",2,html-button-response,179,1402832,0.0-14.0-3.0-0.0,90485,List2B,white,man,,FALSE,2,,,,,
null,CORRECT,,html-keyboard-response,180,1404332,0.0-14.0-3.0-1.0-0.0,90485,List2B,white,man,,,,null,,,,
4928,"<img src=""portrait/WM2.jpg""style=""height:400px;""></img>",7,html-button-response,181,1409262,0.0-14.0-4.0,90485,List2B,white,man,,TRUE,7,,,,,
null,CORRECT,,html-keyboard-response,182,1410762,0.0-14.0-5.0-0.0,90485,List2B,white,man,,,,null,,,,
7454,"<img src=""portrait/WM1.jpg""style=""height:400px;""></img>",6,html-button-response,183,1418218,0.0-14.0-7.0,90485,List2B,white,man,,TRUE,6,,,,,
null,CORRECT,,html-keyboard-response,184,1419718,0.0-14.0-8.0-0.0,90485,List2B,white,man,,,,null,,,,
2466,"<img src=""portrait/WW1.jpg""style=""height:400px;""></img>",1,html-button-response,185,1422186,0.0-14.0-10.0,90485,List2B,white,man,,TRUE,1,,,,,
null,CORRECT,,html-keyboard-response,186,1423686,0.0-14.0-11.0-0.0,90485,List2B,white,man,,,,null,,,,
8587,"<img src=""portrait/WW2.jpg""style=""height:400px;""></img>",1,html-button-response,187,1432275,0.0-14.0-13.0,90485,List2B,white,man,,TRUE,3,,,,,
2147,"<img src=""portrait/WW2.jpg""style=""height:400px;""></img>",3,html-button-response,188,1435423,0.0-14.0-15.0-0.0,90485,List2B,white,man,,FALSE,3,,,,,
null,CORRECT,,html-keyboard-response,189,1436924,0.0-14.0-15.0-1.0-0.0,90485,List2B,white,man,,,,null,,,,
4173,"<img src=""portrait/BM2.jpg""style=""height:400px;""></img>",5,html-button-response,190,1441099,0.0-14.0-16.0,90485,List2B,white,man,,TRUE,5,,,,,
null,CORRECT,,html-keyboard-response,191,1442599,0.0-14.0-17.0-0.0,90485,List2B,white,man,,,,null,,,,
2556,"<img src=""portrait/BW1.jpg""style=""height:400px;""></img>",0,html-button-response,192,1445158,0.0-14.0-19.0,90485,List2B,white,man,,TRUE,0,,,,,
null,CORRECT,,html-keyboard-response,193,1446658,0.0-14.0-20.0-0.0,90485,List2B,white,man,,,,null,,,,
3867,"<img src=""portrait/BM1.jpg""style=""height:400px;""></img>",4,html-button-response,194,1450527,0.0-14.0-22.0,90485,List2B,white,man,,TRUE,4,,,,,
null,CORRECT,,html-keyboard-response,195,1452027,0.0-14.0-23.0-0.0,90485,List2B,white,man,,,,null,,,,
1557,<p>You got 6 out of 8 right first time. Press Continue.</p>,0,html-button-response,196,1453586,0.0-14.0-25.0,90485,List2B,white,man,,,,,,,,
2005,"As you did not score 100%, the memory game will repeat. Press Continue.",0,html-button-response,197,1456591,0.0-14.0-26.0-0.0,90485,List2B,white,man,,,,,,,,
8853,"<img src='img/portrait_matrix_list2.jpg' style='width:900px;height:500px;''></img><p>If you have memorised all the portraits and names and are ready to start, press Continue.</p><p><strong>Please note: Your memory of these faces will be tested 4 times during this experiment.</strong></p>",0,html-button-response,198,1466445,0.0-14.1-0.1,90485,List2B,white,man,,,,,,,,
2405,"<img src=""portrait/BW2.jpg""style=""height:400px;""></img>",2,html-button-response,199,1469852,0.0-14.1-1.1,90485,List2B,white,man,,TRUE,2,,,,,
null,CORRECT,,html-keyboard-response,200,1471352,0.0-14.1-2.1-0.1,90485,List2B,white,man,,,,null,,,,
2403,"<img src=""portrait/WM2.jpg""style=""height:400px;""></img>",7,html-button-response,201,1473756,0.0-14.1-4.1,90485,List2B,white,man,,TRUE,7,,,,,
null,CORRECT,,html-keyboard-response,202,1475257,0.0-14.1-5.1-0.1,90485,List2B,white,man,,,,null,,,,
3850,"<img src=""portrait/WM1.jpg""style=""height:400px;""></img>",6,html-button-response,203,1479109,0.0-14.1-7.1,90485,List2B,white,man,,TRUE,6,,,,,
null,CORRECT,,html-keyboard-response,204,1480609,0.0-14.1-8.1-0.1,90485,List2B,white,man,,,,null,,,,
2151,"<img src=""portrait/WW1.jpg""style=""height:400px;""></img>",1,html-button-response,205,1482762,0.0-14.1-10.1,90485,List2B,white,man,,TRUE,1,,,,,
null,CORRECT,,html-keyboard-response,206,1484263,0.0-14.1-11.1-0.1,90485,List2B,white,man,,,,null,,,,
3881,"<img src=""portrait/WW2.jpg""style=""height:400px;""></img>",3,html-button-response,207,1488146,0.0-14.1-13.1,90485,List2B,white,man,,TRUE,3,,,,,
null,CORRECT,,html-keyboard-response,208,1489646,0.0-14.1-14.1-0.1,90485,List2B,white,man,,,,null,,,,
2917,"<img src=""portrait/BM2.jpg""style=""height:400px;""></img>",5,html-button-response,209,1492565,0.0-14.1-16.1,90485,List2B,white,man,,TRUE,5,,,,,
null,CORRECT,,html-keyboard-response,210,1494065,0.0-14.1-17.1-0.1,90485,List2B,white,man,,,,null,,,,
2814,"<img src=""portrait/BW1.jpg""style=""height:400px;""></img>",0,html-button-response,211,1496880,0.0-14.1-19.1,90485,List2B,white,man,,TRUE,0,,,,,
null,CORRECT,,html-keyboard-response,212,1498381,0.0-14.1-20.1-0.1,90485,List2B,white,man,,,,null,,,,
5223,"<img src=""portrait/BM1.jpg""style=""height:400px;""></img>",4,html-button-response,213,1503605,0.0-14.1-22.1,90485,List2B,white,man,,TRUE,4,,,,,
null,CORRECT,,html-keyboard-response,214,1505106,0.0-14.1-23.1-0.1,90485,List2B,white,man,,,,null,,,,
1690,<p>You got 8 out of 8 right first time. Press Continue.</p>,0,html-button-response,215,1506797,0.0-14.1-25.1,90485,List2B,white,man,,,,,,,,
null,"<div style=""font-size:60px;"">+</div>",,html-keyboard-response,216,1508299,0.0-15.0-0.0,90485,List2B,white,man,,,,null,,,,
null,"<img src=""stim_listB/flirt8.gif""style=""height:400px;""></stim_listB>",,html-keyboard-response,217,1510300,0.0-15.0-1.0,90485,List2B,white,man,,,,null,,,,
null,are flirting with each other,,html-keyboard-response,218,1512300,0.0-15.0-2.0,90485,List2B,white,man,,,,null,,,,
22171,,,survey-text,219,1534472,0.0-15.0-3.0,90485,List2B,white,man,,,,,"{""Q0"":""Beth is flirting with Jane""}","<img src=""stim_listB/flirt8.gif""style=""height:400px;""></stim_listB>",are flirting with each other,
null,"<div style=""font-size:60px;"">+</div>",,html-keyboard-response,220,1534972,0.0-15.0-0.1,90485,List2B,white,man,,,,null,,,,
null,"<img src=""stim_listB/play1.gif""style=""height:400px;""></stim_listB>",,html-keyboard-response,221,1536972,0.0-15.0-1.1,90485,List2B,white,man,,,,null,,,,
null,is playing with,,html-keyboard-response,222,1538972,0.0-15.0-2.1,90485,List2B,white,man,,,,null,,,,
11821,,,survey-text,223,1550794,0.0-15.0-3.1,90485,List2B,white,man,,,,,"{""Q0"":""Jane is playing with dave""}","<img src=""stim_listB/play1.gif""style=""height:400px;""></stim_listB>",is playing with,
null,"<div style=""font-size:60px;"">+</div>",,html-keyboard-response,224,1551294,0.0-15.0-0.2,90485,List2B,white,man,,,,null,,,,
null,"<img src=""stim_listB/kiss3.gif""style=""height:400px;""></stim_listB>",,html-keyboard-response,225,1553294,0.0-15.0-1.2,90485,List2B,white,man,,,,null,,,,
null,is kissing,,html-keyboard-response,226,1555294,0.0-15.0-2.2,90485,List2B,white,man,,,,null,,,,
8484,,,survey-text,227,1563779,0.0-15.0-3.2,90485,List2B,white,man,,,,,"{""Q0"":""beth is kissing fred""}","<img src=""stim_listB/kiss3.gif""style=""height:400px;""></stim_listB>",is kissing,
null,"<div style=""font-size:60px;"">+</div>",,html-keyboard-response,228,1564279,0.0-15.0-0.3,90485,List2B,white,man,,,,null,,,,
null,"<img src=""stim_listB/talk7.gif""style=""height:400px;""></stim_listB>",,html-keyboard-response,229,1566279,0.0-15.0-1.3,90485,List2B,white,man,,,,null,,,,
null,is talking to,,html-keyboard-response,230,1568279,0.0-15.0-2.3,90485,List2B,white,man,,,,null,,,,
12939,,,survey-text,231,1581219,0.0-15.0-3.3,90485,List2B,white,man,,,,,"{""Q0"":""Kate is talking to ruth""}","<img src=""stim_listB/talk7.gif""style=""height:400px;""></stim_listB>",is talking to,
null,"<div style=""font-size:60px;"">+</div>",,html-keyboard-response,232,1581720,0.0-15.0-0.4,90485,List2B,white,man,,,,null,,,,
null,"<img src=""stim_listB/talk4.gif""style=""height:400px;""></stim_listB>",,html-keyboard-response,233,1583720,0.0-15.0-1.4,90485,List2B,white,man,,,,null,,,,
null,are talking to each other,,html-keyboard-response,234,1585720,0.0-15.0-2.4,90485,List2B,white,man,,,,null,,,,
10103,,,survey-text,235,1595824,0.0-15.0-3.4,90485,List2B,white,man,,,,,"{""Q0"":""Beth is talking to mike""}","<img src=""stim_listB/talk4.gif""style=""height:400px;""></stim_listB>",are talking to each other,
null,"<div style=""font-size:60px;"">+</div>",,html-keyboard-response,236,1596325,0.0-15.0-0.5,90485,List2B,white,man,,,,null,,,,
null,"<img src=""stim_listB/marry2.gif""style=""height:400px;""></stim_listB>",,html-keyboard-response,237,1598325,0.0-15.0-1.5,90485,List2B,white,man,,,,null,,,,
null,are marrying each other,,html-keyboard-response,238,1600325,0.0-15.0-2.5,90485,List2B,white,man,,,,null,,,,
11243,,,survey-text,239,1611569,0.0-15.0-3.5,90485,List2B,white,man,,,,,"{""Q0"":""Jane is marrying luke""}","<img src=""stim_listB/marry2.gif""style=""height:400px;""></stim_listB>",are marrying each other,
null,"<div style=""font-size:60px;"">+</div>",,html-keyboard-response,240,1612069,0.0-15.0-0.6,90485,List2B,white,man,,,,null,,,,
null,"<img src=""stim_listB/fight5.gif""style=""height:400px;""></stim_listB>",,html-keyboard-response,241,1614069,0.0-15.0-1.6,90485,List2B,white,man,,,,null,,,,
null,is fighting,,html-keyboard-response,242,1616069,0.0-15.0-2.6,90485,List2B,white,man,,,,null,,,,
8903,,,survey-text,243,1624973,0.0-15.0-3.6,90485,List2B,white,man,,,,,"{""Q0"":""Mike is fighting dave""}","<img src=""stim_listB/fight5.gif""style=""height:400px;""></stim_listB>",is fighting,
null,"<div style=""font-size:60px;"">+</div>",,html-keyboard-response,244,1625474,0.0-15.0-0.7,90485,List2B,white,man,,,,null,,,,
null,"<img src=""stim_listB/touch8.gif""style=""height:400px;""></stim_listB>",,html-keyboard-response,245,1627474,0.0-15.0-1.7,90485,List2B,white,man,,,,null,,,,
null,are touching each other,,html-keyboard-response,246,1629474,0.0-15.0-2.7,90485,List2B,white,man,,,,null,,,,
11043,,,survey-text,247,1640518,0.0-15.0-3.7,90485,List2B,white,man,,,,,"{""Q0"":""beth is touching ruth""}","<img src=""stim_listB/touch8.gif""style=""height:400px;""></stim_listB>",are touching each other,
null,"<div style=""font-size:60px;"">+</div>",,html-keyboard-response,248,1641019,0.0-15.0-0.8,90485,List2B,white,man,,,,null,,,,
null,"<img src=""stim_listB/talk3.gif""style=""height:400px;""></stim_listB>",,html-keyboard-response,249,1643019,0.0-15.0-1.8,90485,List2B,white,man,,,,null,,,,
null,is talking to,,html-keyboard-response,250,1645019,0.0-15.0-2.8,90485,List2B,white,man,,,,null,,,,
8188,,,survey-text,251,1653207,0.0-15.0-3.8,90485,List2B,white,man,,,,,"{""Q0"":""kate is talking to fred""}","<img src=""stim_listB/talk3.gif""style=""height:400px;""></stim_listB>",is talking to,
null,"<div style=""font-size:60px;"">+</div>",,html-keyboard-response,252,1653708,0.0-15.0-0.9,90485,List2B,white,man,,,,null,,,,
null,"<img src=""stim_listB/play5.gif""style=""height:400px;""></stim_listB>",,html-keyboard-response,253,1655708,0.0-15.0-1.9,90485,List2B,white,man,,,,null,,,,
null,is playing with,,html-keyboard-response,254,1657708,0.0-15.0-2.9,90485,List2B,white,man,,,,null,,,,
11210,,,survey-text,255,1668918,0.0-15.0-3.9,90485,List2B,white,man,,,,,"{""Q0"":""mike is talking to dave""}","<img src=""stim_listB/play5.gif""style=""height:400px;""></stim_listB>",is playing with,
null,"<div style=""font-size:60px;"">+</div>",,html-keyboard-response,256,1669419,0.0-15.0-0.10,90485,List2B,white,man,,,,null,,,,
null,"<img src=""stim_listB/marry7.gif""style=""height:400px;""></stim_listB>",,html-keyboard-response,257,1671419,0.0-15.0-1.10,90485,List2B,white,man,,,,null,,,,
null,is marrying,,html-keyboard-response,258,1673419,0.0-15.0-2.10,90485,List2B,white,man,,,,null,,,,
9295,,,survey-text,259,1682715,0.0-15.0-3.10,90485,List2B,white,man,,,,,"{""Q0"":""jane is marrying beth""}","<img src=""stim_listB/marry7.gif""style=""height:400px;""></stim_listB>",is marrying,
null,"<div style=""font-size:60px;"">+</div>",,html-keyboard-response,260,1683215,0.0-15.0-0.11,90485,List2B,white,man,,,,null,,,,
null,"<img src=""stim_listB/kiss4.gif""style=""height:400px;""></stim_listB>",,html-keyboard-response,261,1685215,0.0-15.0-1.11,90485,List2B,white,man,,,,null,,,,
null,are kissing each other,,html-keyboard-response,262,1687215,0.0-15.0-2.11,90485,List2B,white,man,,,,null,,,,
8743,,,survey-text,263,1695960,0.0-15.0-3.11,90485,List2B,white,man,,,,,"{""Q0"":""kate is kissing mike""}","<img src=""stim_listB/kiss4.gif""style=""height:400px;""></stim_listB>",are kissing each other,
null,"<div style=""font-size:60px;"">+</div>",,html-keyboard-response,264,1696461,0.0-15.0-0.12,90485,List2B,white,man,,,,null,,,,
null,"<img src=""stim_listB/marry4.gif""style=""height:400px;""></stim_listB>",,html-keyboard-response,265,1698461,0.0-15.0-1.12,90485,List2B,white,man,,,,null,,,,
null,are marrying each other,,html-keyboard-response,266,1700461,0.0-15.0-2.12,90485,List2B,white,man,,,,null,,,,
7989,,,survey-text,267,1708451,0.0-15.0-3.12,90485,List2B,white,man,,,,,"{""Q0"":""kate is marrying fred""}","<img src=""stim_listB/marry4.gif""style=""height:400px;""></stim_listB>",are marrying each other,
null,"<div style=""font-size:60px;"">+</div>",,html-keyboard-response,268,1708952,0.0-15.0-0.13,90485,List2B,white,man,,,,null,,,,
null,"<img src=""stim_listB/shout1.gif""style=""height:400px;""></stim_listB>",,html-keyboard-response,269,1710952,0.0-15.0-1.13,90485,List2B,white,man,,,,null,,,,
null,is shouting at,,html-keyboard-response,270,1712952,0.0-15.0-2.13,90485,List2B,white,man,,,,null,,,,
13507,,,survey-text,271,1726460,0.0-15.0-3.13,90485,List2B,white,man,,,,,"{""Q0"":""ruth is shouting at luke""}","<img src=""stim_listB/shout1.gif""style=""height:400px;""></stim_listB>",is shouting at,
null,"<div style=""font-size:60px;"">+</div>",,html-keyboard-response,272,1726961,0.0-15.0-0.14,90485,List2B,white,man,,,,null,,,,
null,"<img src=""stim_listB/touch1.gif""style=""height:400px;""></stim_listB>",,html-keyboard-response,273,1728961,0.0-15.0-1.14,90485,List2B,white,man,,,,null,,,,
null,is touching,,html-keyboard-response,274,1730961,0.0-15.0-2.14,90485,List2B,white,man,,,,null,,,,
11249,,,survey-text,275,1742210,0.0-15.0-3.14,90485,List2B,white,man,,,,,"{""Q0"":""jane is touching dave""}","<img src=""stim_listB/touch1.gif""style=""height:400px;""></stim_listB>",is touching,
null,"<div style=""font-size:60px;"">+</div>",,html-keyboard-response,276,1742711,0.0-15.0-0.15,90485,List2B,white,man,,,,null,,,,
null,"<img src=""stim_listB/fight3.gif""style=""height:400px;""></stim_listB>",,html-keyboard-response,277,1744711,0.0-15.0-1.15,90485,List2B,white,man,,,,null,,,,
null,is fighting,,html-keyboard-response,278,1746711,0.0-15.0-2.15,90485,List2B,white,man,,,,null,,,,
8102,,,survey-text,279,1754813,0.0-15.0-3.15,90485,List2B,white,man,,,,,"{""Q0"":""kate is fighting with mike""}","<img src=""stim_listB/fight3.gif""style=""height:400px;""></stim_listB>",is fighting,
null,"<div style=""font-size:60px;"">+</div>",,html-keyboard-response,280,1755314,0.0-15.0-0.16,90485,List2B,white,man,,,,null,,,,
null,"<img src=""stim_listB/fight7.gif""style=""height:400px;""></stim_listB>",,html-keyboard-response,281,1757314,0.0-15.0-1.16,90485,List2B,white,man,,,,null,,,,
null,is fighting,,html-keyboard-response,282,1759314,0.0-15.0-2.16,90485,List2B,white,man,,,,null,,,,
10369,,,survey-text,283,1769683,0.0-15.0-3.16,90485,List2B,white,man,,,,,"{""Q0"":""jane is fighting with kate""}","<img src=""stim_listB/fight7.gif""style=""height:400px;""></stim_listB>",is fighting,
null,"<div style=""font-size:60px;"">+</div>",,html-keyboard-response,284,1770184,0.0-15.0-0.17,90485,List2B,white,man,,,,null,,,,
null,"<img src=""stim_listB/argue4.gif""style=""height:400px;""></stim_listB>",,html-keyboard-response,285,1772184,0.0-15.0-1.17,90485,List2B,white,man,,,,null,,,,
null,are arguing with each other,,html-keyboard-response,286,1774184,0.0-15.0-2.17,90485,List2B,white,man,,,,null,,,,
11826,,,survey-text,287,1786010,0.0-15.0-3.17,90485,List2B,white,man,,,,,"{""Q0"":""kate is arguing with fred""}","<img src=""stim_listB/argue4.gif""style=""height:400px;""></stim_listB>",are arguing with each other,
null,"<div style=""font-size:60px;"">+</div>",,html-keyboard-response,288,1786511,0.0-15.0-0.18,90485,List2B,white,man,,,,null,,,,
null,"<img src=""stim_listB/touch2.gif""style=""height:400px;""></stim_listB>",,html-keyboard-response,289,1788511,0.0-15.0-1.18,90485,List2B,white,man,,,,null,,,,
null,are touching each other,,html-keyboard-response,290,1790512,0.0-15.0-2.18,90485,List2B,white,man,,,,null,,,,
8220,,,survey-text,291,1798734,0.0-15.0-3.18,90485,List2B,white,man,,,,,"{""Q0"":""ruth is touching luke""}","<img src=""stim_listB/touch2.gif""style=""height:400px;""></stim_listB>",are touching each other,
null,"<div style=""font-size:60px;"">+</div>",,html-keyboard-response,292,1799235,0.0-15.0-0.19,90485,List2B,white,man,,,,null,,,,
null,"<img src=""stim_listB/flirt6.gif""style=""height:400px;""></stim_listB>",,html-keyboard-response,293,1801235,0.0-15.0-1.19,90485,List2B,white,man,,,,null,,,,
null,are flirting with each other,,html-keyboard-response,294,1803235,0.0-15.0-2.19,90485,List2B,white,man,,,,null,,,,
9419,,,survey-text,295,1812655,0.0-15.0-3.19,90485,List2B,white,man,,,,,"{""Q0"":""fred is flirting with dave""}","<img src=""stim_listB/flirt6.gif""style=""height:400px;""></stim_listB>",are flirting with each other,
4905,"<img src='img/portrait_matrix_list2.jpg' style='width:900px;height:500px;''></img><p>If you have memorised all the portraits and names and are ready to start, press Continue.</p><p><strong>Please note: Your memory of these faces will be tested 4 times during this experiment.</strong></p>",0,html-button-response,296,1817562,0.0-16.0-0.0,90485,List2B,white,man,,,,,,,,
1820,"<img src=""portrait/BW2.jpg""style=""height:400px;""></img>",2,html-button-response,297,1820384,0.0-16.0-1.0,90485,List2B,white,man,,TRUE,2,,,,,
null,CORRECT,,html-keyboard-response,298,1821884,0.0-16.0-2.0-0.0,90485,List2B,white,man,,,,null,,,,
2337,"<img src=""portrait/WM1.jpg""style=""height:400px;""></img>",6,html-button-response,299,1824222,0.0-16.0-4.0,90485,List2B,white,man,,TRUE,6,,,,,
null,CORRECT,,html-keyboard-response,300,1825723,0.0-16.0-5.0-0.0,90485,List2B,white,man,,,,null,,,,
2654,"<img src=""portrait/WW1.jpg""style=""height:400px;""></img>",1,html-button-response,301,1828379,0.0-16.0-7.0,90485,List2B,white,man,,TRUE,1,,,,,
null,CORRECT,,html-keyboard-response,302,1829879,0.0-16.0-8.0-0.0,90485,List2B,white,man,,,,null,,,,
1697,"<img src=""portrait/BM2.jpg""style=""height:400px;""></img>",5,html-button-response,303,1831578,0.0-16.0-10.0,90485,List2B,white,man,,TRUE,5,,,,,
null,CORRECT,,html-keyboard-response,304,1833078,0.0-16.0-11.0-0.0,90485,List2B,white,man,,,,null,,,,
2456,"<img src=""portrait/BM1.jpg""style=""height:400px;""></img>",4,html-button-response,305,1835536,0.0-16.0-13.0,90485,List2B,white,man,,TRUE,4,,,,,
null,CORRECT,,html-keyboard-response,306,1837036,0.0-16.0-14.0-0.0,90485,List2B,white,man,,,,null,,,,
1353,"<img src=""portrait/BW1.jpg""style=""height:400px;""></img>",0,html-button-response,307,1838391,0.0-16.0-16.0,90485,List2B,white,man,,TRUE,0,,,,,
null,CORRECT,,html-keyboard-response,308,1839891,0.0-16.0-17.0-0.0,90485,List2B,white,man,,,,null,,,,
1700,"<img src=""portrait/WM2.jpg""style=""height:400px;""></img>",7,html-button-response,309,1841592,0.0-16.0-19.0,90485,List2B,white,man,,TRUE,7,,,,,
null,CORRECT,,html-keyboard-response,310,1843093,0.0-16.0-20.0-0.0,90485,List2B,white,man,,,,null,,,,
2973,"<img src=""portrait/WW2.jpg""style=""height:400px;""></img>",3,html-button-response,311,1846068,0.0-16.0-22.0,90485,List2B,white,man,,TRUE,3,,,,,
null,CORRECT,,html-keyboard-response,312,1847568,0.0-16.0-23.0-0.0,90485,List2B,white,man,,,,null,,,,
1478,<p>You got 8 out of 8 right first time. Press Continue.</p>,0,html-button-response,313,1849048,0.0-16.0-25.0,90485,List2B,white,man,,,,,,,,
null,"<div style=""font-size:60px;"">+</div>",,html-keyboard-response,314,1850549,0.0-17.0-0.0,90485,List2B,white,man,,,,null,,,,
null,"<img src=""stim_listB/dance8.gif""style=""height:400px;""></stim_listB>",,html-keyboard-response,315,1852550,0.0-17.0-1.0,90485,List2B,white,man,,,,null,,,,
null,are dancing with each other,,html-keyboard-response,316,1854550,0.0-17.0-2.0,90485,List2B,white,man,,,,null,,,,
11384,,,survey-text,317,1865935,0.0-17.0-3.0,90485,List2B,white,man,,,,,"{""Q0"":""beth is dancing with jane""}","<img src=""stim_listB/dance8.gif""style=""height:400px;""></stim_listB>",are dancing with each other,
null,"<div style=""font-size:60px;"">+</div>",,html-keyboard-response,318,1866437,0.0-17.0-0.1,90485,List2B,white,man,,,,null,,,,
null,"<img src=""stim_listB/dance1.gif""style=""height:400px;""></stim_listB>",,html-keyboard-response,319,1868437,0.0-17.0-1.1,90485,List2B,white,man,,,,null,,,,
null,is dancing with,,html-keyboard-response,320,1870437,0.0-17.0-2.1,90485,List2B,white,man,,,,null,,,,
8674,,,survey-text,321,1879111,0.0-17.0-3.1,90485,List2B,white,man,,,,,"{""Q0"":""jane is dancing with luke""}","<img src=""stim_listB/dance1.gif""style=""height:400px;""></stim_listB>",is dancing with,
null,"<div style=""font-size:60px;"">+</div>",,html-keyboard-response,322,1879612,0.0-17.0-0.2,90485,List2B,white,man,,,,null,,,,
null,"<img src=""stim_listB/talk6.gif""style=""height:400px;""></stim_listB>",,html-keyboard-response,323,1881613,0.0-17.0-1.2,90485,List2B,white,man,,,,null,,,,
null,are talking to each other,,html-keyboard-response,324,1883614,0.0-17.0-2.2,90485,List2B,white,man,,,,null,,,,
7853,,,survey-text,325,1891469,0.0-17.0-3.2,90485,List2B,white,man,,,,,"{""Q0"":""dave is talking to fred""}","<img src=""stim_listB/talk6.gif""style=""height:400px;""></stim_listB>",are talking to each other,
null,"<div style=""font-size:60px;"">+</div>",,html-keyboard-response,326,1891970,0.0-17.0-0.3,90485,List2B,white,man,,,,null,,,,
null,"<img src=""stim_listB/kiss2.gif""style=""height:400px;""></stim_listB>",,html-keyboard-response,327,1893970,0.0-17.0-1.3,90485,List2B,white,man,,,,null,,,,
null,are kissing each other,,html-keyboard-response,328,1895970,0.0-17.0-2.3,90485,List2B,white,man,,,,null,,,,
9750,,,survey-text,329,1905721,0.0-17.0-3.3,90485,List2B,white,man,,,,,"{""Q0"":""jane is kissing dave""}","<img src=""stim_listB/kiss2.gif""style=""height:400px;""></stim_listB>",are kissing each other,
null,"<div style=""font-size:60px;"">+</div>",,html-keyboard-response,330,1906218,0.0-17.0-0.4,90485,List2B,white,man,,,,null,,,,
null,"<img src=""stim_listB/kiss1.gif""style=""height:400px;""></stim_listB>",,html-keyboard-response,331,1908219,0.0-17.0-1.4,90485,List2B,white,man,,,,null,,,,
null,is kissing,,html-keyboard-response,332,1910220,0.0-17.0-2.4,90485,List2B,white,man,,,,null,,,,
10728,,,survey-text,333,1920950,0.0-17.0-3.4,90485,List2B,white,man,,,,,"{""Q0"":""ruth is kissing luke""}","<img src=""stim_listB/kiss1.gif""style=""height:400px;""></stim_listB>",is kissing,
null,"<div style=""font-size:60px;"">+</div>",,html-keyboard-response,334,1921451,0.0-17.0-0.5,90485,List2B,white,man,,,,null,,,,
null,"<img src=""stim_listB/play3.gif""style=""height:400px;""></stim_listB>",,html-keyboard-response,335,1923451,0.0-17.0-1.5,90485,List2B,white,man,,,,null,,,,
null,is playing with,,html-keyboard-response,336,1925451,0.0-17.0-2.5,90485,List2B,white,man,,,,null,,,,
21771,,,survey-text,337,1947223,0.0-17.0-3.5,90485,List2B,white,man,,,,,"{""Q0"":""kate is marrying mike""}","<img src=""stim_listB/play3.gif""style=""height:400px;""></stim_listB>",is playing with,
null,"<div style=""font-size:60px;"">+</div>",,html-keyboard-response,338,1947724,0.0-17.0-0.6,90485,List2B,white,man,,,,null,,,,
null,"<img src=""stim_listB/touch6.gif""style=""height:400px;""></stim_listB>",,html-keyboard-response,339,1949724,0.0-17.0-1.6,90485,List2B,white,man,,,,null,,,,
null,are touching each other,,html-keyboard-response,340,1951724,0.0-17.0-2.6,90485,List2B,white,man,,,,null,,,,
6885,,,survey-text,341,1958610,0.0-17.0-3.6,90485,List2B,white,man,,,,,"{""Q0"":""fred is touching luke""}","<img src=""stim_listB/touch6.gif""style=""height:400px;""></stim_listB>",are touching each other,
null,"<div style=""font-size:60px;"">+</div>",,html-keyboard-response,342,1959111,0.0-17.0-0.7,90485,List2B,white,man,,,,null,,,,
null,"<img src=""stim_listB/shout6.gif""style=""height:400px;""></stim_listB>",,html-keyboard-response,343,1961111,0.0-17.0-1.7,90485,List2B,white,man,,,,null,,,,
null,are shouting at each other,,html-keyboard-response,344,1963111,0.0-17.0-2.7,90485,List2B,white,man,,,,null,,,,
8208,,,survey-text,345,1971319,0.0-17.0-3.7,90485,List2B,white,man,,,,,"{""Q0"":""mike is shouting at dave""}","<img src=""stim_listB/shout6.gif""style=""height:400px;""></stim_listB>",are shouting at each other,
null,"<div style=""font-size:60px;"">+</div>",,html-keyboard-response,346,1971820,0.0-17.0-0.8,90485,List2B,white,man,,,,null,,,,
null,"<img src=""stim_listB/flirt1.gif""style=""height:400px;""></stim_listB>",,html-keyboard-response,347,1973820,0.0-17.0-1.8,90485,List2B,white,man,,,,null,,,,
null,is flirting with,,html-keyboard-response,348,1975820,0.0-17.0-2.8,90485,List2B,white,man,,,,null,,,,
10889,,,survey-text,349,1986711,0.0-17.0-3.8,90485,List2B,white,man,,,,,"{""Q0"":""jane is flirting with luke""}","<img src=""stim_listB/flirt1.gif""style=""height:400px;""></stim_listB>",is flirting with,
null,"<div style=""font-size:60px;"">+</div>",,html-keyboard-response,350,1987211,0.0-17.0-0.9,90485,List2B,white,man,,,,null,,,,
null,"<img src=""stim_listB/argue3.gif""style=""height:400px;""></stim_listB>",,html-keyboard-response,351,1989211,0.0-17.0-1.9,90485,List2B,white,man,,,,null,,,,
null,is arguing with,,html-keyboard-response,352,1991211,0.0-17.0-2.9,90485,List2B,white,man,,,,null,,,,
8063,,,survey-text,353,1999275,0.0-17.0-3.9,90485,List2B,white,man,,,,,"{""Q0"":""beth is arguing with mike""}","<img src=""stim_listB/argue3.gif""style=""height:400px;""></stim_listB>",is arguing with,
null,"<div style=""font-size:60px;"">+</div>",,html-keyboard-response,354,1999776,0.0-17.0-0.10,90485,List2B,white,man,,,,null,,,,
null,"<img src=""stim_listB/flirt3.gif""style=""height:400px;""></stim_listB>",,html-keyboard-response,355,2001776,0.0-17.0-1.10,90485,List2B,white,man,,,,null,,,,
null,is flirting with,,html-keyboard-response,356,2003776,0.0-17.0-2.10,90485,List2B,white,man,,,,null,,,,
8436,,,survey-text,357,2012213,0.0-17.0-3.10,90485,List2B,white,man,,,,,"{""Q0"":""kate is flirting with fred""}","<img src=""stim_listB/flirt3.gif""style=""height:400px;""></stim_listB>",is flirting with,
null,"<div style=""font-size:60px;"">+</div>",,html-keyboard-response,358,2012714,0.0-17.0-0.11,90485,List2B,white,man,,,,null,,,,
null,"<img src=""stim_listB/touch7.gif""style=""height:400px;""></stim_listB>",,html-keyboard-response,359,2014715,0.0-17.0-1.11,90485,List2B,white,man,,,,null,,,,
null,is touching,,html-keyboard-response,360,2016715,0.0-17.0-2.11,90485,List2B,white,man,,,,null,,,,
7549,,,survey-text,361,2024266,0.0-17.0-3.11,90485,List2B,white,man,,,,,"{""Q0"":""kate is touching jane""}","<img src=""stim_listB/touch7.gif""style=""height:400px;""></stim_listB>",is touching,
null,"<div style=""font-size:60px;"">+</div>",,html-keyboard-response,362,2024766,0.0-17.0-0.12,90485,List2B,white,man,,,,null,,,,
null,"<img src=""stim_listB/fight8.gif""style=""height:400px;""></stim_listB>",,html-keyboard-response,363,2026766,0.0-17.0-1.12,90485,List2B,white,man,,,,null,,,,
null,are fighting each other,,html-keyboard-response,364,2028762,0.0-17.0-2.12,90485,List2B,white,man,,,,null,,,,
8044,,,survey-text,365,2036807,0.0-17.0-3.12,90485,List2B,white,man,,,,,"{""Q0"":""beth is fighting with ruth""}","<img src=""stim_listB/fight8.gif""style=""height:400px;""></stim_listB>",are fighting each other,
null,"<div style=""font-size:60px;"">+</div>",,html-keyboard-response,366,2037308,0.0-17.0-0.13,90485,List2B,white,man,,,,null,,,,
null,"<img src=""stim_listB/play7.gif""style=""height:400px;""></stim_listB>",,html-keyboard-response,367,2039308,0.0-17.0-1.13,90485,List2B,white,man,,,,null,,,,
null,is playing with,,html-keyboard-response,368,2041308,0.0-17.0-2.13,90485,List2B,white,man,,,,null,,,,
10524,,,survey-text,369,2051833,0.0-17.0-3.13,90485,List2B,white,man,,,,,"{""Q0"":""kate is playing with jane""}","<img src=""stim_listB/play7.gif""style=""height:400px;""></stim_listB>",is playing with,
null,"<div style=""font-size:60px;"">+</div>",,html-keyboard-response,370,2052334,0.0-17.0-0.14,90485,List2B,white,man,,,,null,,,,
null,"<img src=""stim_listB/touch5.gif""style=""height:400px;""></stim_listB>",,html-keyboard-response,371,2054334,0.0-17.0-1.14,90485,List2B,white,man,,,,null,,,,
null,is touching,,html-keyboard-response,372,2056334,0.0-17.0-2.14,90485,List2B,white,man,,,,null,,,,
7100,,,survey-text,373,2063435,0.0-17.0-3.14,90485,List2B,white,man,,,,,"{""Q0"":""mike is touching dave""}","<img src=""stim_listB/touch5.gif""style=""height:400px;""></stim_listB>",is touching,
null,"<div style=""font-size:60px;"">+</div>",,html-keyboard-response,374,2063935,0.0-17.0-0.15,90485,List2B,white,man,,,,null,,,,
null,"<img src=""stim_listB/argue2.gif""style=""height:400px;""></stim_listB>",,html-keyboard-response,375,2065935,0.0-17.0-1.15,90485,List2B,white,man,,,,null,,,,
null,are arguing with each other,,html-keyboard-response,376,2067935,0.0-17.0-2.15,90485,List2B,white,man,,,,null,,,,
14308,,,survey-text,377,2082244,0.0-17.0-3.15,90485,List2B,white,man,,,,,"{""Q0"":""jane is arguing with luke""}","<img src=""stim_listB/argue2.gif""style=""height:400px;""></stim_listB>",are arguing with each other,
null,"<div style=""font-size:60px;"">+</div>",,html-keyboard-response,378,2082745,0.0-17.0-0.16,90485,List2B,white,man,,,,null,,,,
null,"<img src=""stim_listB/argue7.gif""style=""height:400px;""></stim_listB>",,html-keyboard-response,379,2084745,0.0-17.0-1.16,90485,List2B,white,man,,,,null,,,,
null,is arguing with,,html-keyboard-response,380,2086745,0.0-17.0-2.16,90485,List2B,white,man,,,,null,,,,
9733,,,survey-text,381,2096478,0.0-17.0-3.16,90485,List2B,white,man,,,,,"{""Q0"":""beth is arguing with jane""}","<img src=""stim_listB/argue7.gif""style=""height:400px;""></stim_listB>",is arguing with,
null,"<div style=""font-size:60px;"">+</div>",,html-keyboard-response,382,2096979,0.0-17.0-0.17,90485,List2B,white,man,,,,null,,,,
null,"<img src=""stim_listB/kiss6.gif""style=""height:400px;""></stim_listB>",,html-keyboard-response,383,2098979,0.0-17.0-1.17,90485,List2B,white,man,,,,null,,,,
null,are kissing each other,,html-keyboard-response,384,2100979,0.0-17.0-2.17,90485,List2B,white,man,,,,null,,,,
11604,,,survey-text,385,2112583,0.0-17.0-3.17,90485,List2B,white,man,,,,,"{""Q0"":""mike is kissing dave""}","<img src=""stim_listB/kiss6.gif""style=""height:400px;""></stim_listB>",are kissing each other,
null,"<div style=""font-size:60px;"">+</div>",,html-keyboard-response,386,2113084,0.0-17.0-0.18,90485,List2B,white,man,,,,null,,,,
null,"<img src=""stim_listB/talk1.gif""style=""height:400px;""></stim_listB>",,html-keyboard-response,387,2115084,0.0-17.0-1.18,90485,List2B,white,man,,,,null,,,,
null,is talking to,,html-keyboard-response,388,2117084,0.0-17.0-2.18,90485,List2B,white,man,,,,null,,,,
8357,,,survey-text,389,2125442,0.0-17.0-3.18,90485,List2B,white,man,,,,,"{""Q0"":""jane is talking to luke""}","<img src=""stim_listB/talk1.gif""style=""height:400px;""></stim_listB>",is talking to,
null,"<div style=""font-size:60px;"">+</div>",,html-keyboard-response,390,2125942,0.0-17.0-0.19,90485,List2B,white,man,,,,null,,,,
null,"<img src=""stim_listB/fight1.gif""style=""height:400px;""></stim_listB>",,html-keyboard-response,391,2127942,0.0-17.0-1.19,90485,List2B,white,man,,,,null,,,,
null,is fighting,,html-keyboard-response,392,2129942,0.0-17.0-2.19,90485,List2B,white,man,,,,null,,,,
9104,,,survey-text,393,2139049,0.0-17.0-3.19,90485,List2B,white,man,,,,,"{""Q0"":""jane is fighting with dave""}","<img src=""stim_listB/fight1.gif""style=""height:400px;""></stim_listB>",is fighting,
2579,"<img src='img/portrait_matrix_list2.jpg' style='width:900px;height:500px;''></img><p>If you have memorised all the portraits and names and are ready to start, press Continue.</p><p><strong>Please note: Your memory of these faces will be tested 4 times during this experiment.</strong></p>",0,html-button-response,394,2141630,0.0-18.0-0.0,90485,List2B,white,man,,,,,,,,
2030,"<img src=""portrait/BW1.jpg""style=""height:400px;""></img>",0,html-button-response,395,2144662,0.0-18.0-1.0,90485,List2B,white,man,,TRUE,0,,,,,
null,CORRECT,,html-keyboard-response,396,2146163,0.0-18.0-2.0-0.0,90485,List2B,white,man,,,,null,,,,
1270,"<img src=""portrait/BW2.jpg""style=""height:400px;""></img>",2,html-button-response,397,2147435,0.0-18.0-4.0,90485,List2B,white,man,,TRUE,2,,,,,
null,CORRECT,,html-keyboard-response,398,2148932,0.0-18.0-5.0-0.0,90485,List2B,white,man,,,,null,,,,
2113,"<img src=""portrait/BM2.jpg""style=""height:400px;""></img>",5,html-button-response,399,2151047,0.0-18.0-7.0,90485,List2B,white,man,,TRUE,5,,,,,
null,CORRECT,,html-keyboard-response,400,2152547,0.0-18.0-8.0-0.0,90485,List2B,white,man,,,,null,,,,
1313,"<img src=""portrait/WM2.jpg""style=""height:400px;""></img>",7,html-button-response,401,2153862,0.0-18.0-10.0,90485,List2B,white,man,,TRUE,7,,,,,
null,CORRECT,,html-keyboard-response,402,2155363,0.0-18.0-11.0-0.0,90485,List2B,white,man,,,,null,,,,
1196,"<img src=""portrait/WM1.jpg""style=""height:400px;""></img>",6,html-button-response,403,2156561,0.0-18.0-13.0,90485,List2B,white,man,,TRUE,6,,,,,
null,CORRECT,,html-keyboard-response,404,2158061,0.0-18.0-14.0-0.0,90485,List2B,white,man,,,,null,,,,
2297,"<img src=""portrait/WW1.jpg""style=""height:400px;""></img>",1,html-button-response,405,2160360,0.0-18.0-16.0,90485,List2B,white,man,,TRUE,1,,,,,
null,CORRECT,,html-keyboard-response,406,2161860,0.0-18.0-17.0-0.0,90485,List2B,white,man,,,,null,,,,
2257,"<img src=""portrait/BM1.jpg""style=""height:400px;""></img>",4,html-button-response,407,2164119,0.0-18.0-19.0,90485,List2B,white,man,,TRUE,4,,,,,
null,CORRECT,,html-keyboard-response,408,2165620,0.0-18.0-20.0-0.0,90485,List2B,white,man,,,,null,,,,
4146,"<img src=""portrait/WW2.jpg""style=""height:400px;""></img>",3,html-button-response,409,2169767,0.0-18.0-22.0,90485,List2B,white,man,,TRUE,3,,,,,
null,CORRECT,,html-keyboard-response,410,2171268,0.0-18.0-23.0-0.0,90485,List2B,white,man,,,,null,,,,
1339,<p>You got 8 out of 8 right first time. Press Continue.</p>,0,html-button-response,411,2172608,0.0-18.0-25.0,90485,List2B,white,man,,,,,,,,
null,"<div style=""font-size:60px;"">+</div>",,html-keyboard-response,412,2174110,0.0-19.0-0.0,90485,List2B,white,man,,,,null,,,,
null,"<img src=""stim_listB/shout2.gif""style=""height:400px;""></stim_listB>",,html-keyboard-response,413,2176111,0.0-19.0-1.0,90485,List2B,white,man,,,,null,,,,
null,are shouting at each other,,html-keyboard-response,414,2178111,0.0-19.0-2.0,90485,List2B,white,man,,,,null,,,,
13903,,,survey-text,415,2192016,0.0-19.0-3.0,90485,List2B,white,man,,,,,"{""Q0"":""jane is shouting at dave""}","<img src=""stim_listB/shout2.gif""style=""height:400px;""></stim_listB>",are shouting at each other,
null,"<div style=""font-size:60px;"">+</div>",,html-keyboard-response,416,2192517,0.0-19.0-0.1,90485,List2B,white,man,,,,null,,,,
null,"<img src=""stim_listB/argue1.gif""style=""height:400px;""></stim_listB>",,html-keyboard-response,417,2194517,0.0-19.0-1.1,90485,List2B,white,man,,,,null,,,,
null,is arguing with,,html-keyboard-response,418,2196517,0.0-19.0-2.1,90485,List2B,white,man,,,,null,,,,
9893,,,survey-text,419,2206412,0.0-19.0-3.1,90485,List2B,white,man,,,,,"{""Q0"":""beth is shouting at dave""}","<img src=""stim_listB/argue1.gif""style=""height:400px;""></stim_listB>",is arguing with,
null,"<div style=""font-size:60px;"">+</div>",,html-keyboard-response,420,2206912,0.0-19.0-0.2,90485,List2B,white,man,,,,null,,,,
null,"<img src=""stim_listB/marry8.gif""style=""height:400px;""></stim_listB>",,html-keyboard-response,421,2208908,0.0-19.0-1.2,90485,List2B,white,man,,,,null,,,,
null,are marrying each other,,html-keyboard-response,422,2210908,0.0-19.0-2.2,90485,List2B,white,man,,,,null,,,,
8260,,,survey-text,423,2219170,0.0-19.0-3.2,90485,List2B,white,man,,,,,"{""Q0"":""kate is marrying ruth""}","<img src=""stim_listB/marry8.gif""style=""height:400px;""></stim_listB>",are marrying each other,
null,"<div style=""font-size:60px;"">+</div>",,html-keyboard-response,424,2219671,0.0-19.0-0.3,90485,List2B,white,man,,,,null,,,,
null,"<img src=""stim_listB/argue6.gif""style=""height:400px;""></stim_listB>",,html-keyboard-response,425,2221671,0.0-19.0-1.3,90485,List2B,white,man,,,,null,,,,
null,are arguing with each other,,html-keyboard-response,426,2223671,0.0-19.0-2.3,90485,List2B,white,man,,,,null,,,,
9976,,,survey-text,427,2233649,0.0-19.0-3.3,90485,List2B,white,man,,,,,"{""Q0"":""mike is arguing with luke""}","<img src=""stim_listB/argue6.gif""style=""height:400px;""></stim_listB>",are arguing with each other,
null,"<div style=""font-size:60px;"">+</div>",,html-keyboard-response,428,2234150,0.0-19.0-0.4,90485,List2B,white,man,,,,null,,,,
null,"<img src=""stim_listB/fight4.gif""style=""height:400px;""></stim_listB>",,html-keyboard-response,429,2236150,0.0-19.0-1.4,90485,List2B,white,man,,,,null,,,,
null,are fighting each other,,html-keyboard-response,430,2238151,0.0-19.0-2.4,90485,List2B,white,man,,,,null,,,,
10119,,,survey-text,431,2248271,0.0-19.0-3.4,90485,List2B,white,man,,,,,"{""Q0"":""beth is fighting with fred""}","<img src=""stim_listB/fight4.gif""style=""height:400px;""></stim_listB>",are fighting each other,
null,"<div style=""font-size:60px;"">+</div>",,html-keyboard-response,432,2248772,0.0-19.0-0.5,90485,List2B,white,man,,,,null,,,,
null,"<img src=""stim_listB/shout4.gif""style=""height:400px;""></stim_listB>",,html-keyboard-response,433,2250772,0.0-19.0-1.5,90485,List2B,white,man,,,,null,,,,
null,are shouting at each other,,html-keyboard-response,434,2252772,0.0-19.0-2.5,90485,List2B,white,man,,,,null,,,,
13284,,,survey-text,435,2266056,0.0-19.0-3.5,90485,List2B,white,man,,,,,"{""Q0"":""kate is fighting with mike""}","<img src=""stim_listB/shout4.gif""style=""height:400px;""></stim_listB>",are shouting at each other,
null,"<div style=""font-size:60px;"">+</div>",,html-keyboard-response,436,2266557,0.0-19.0-0.6,90485,List2B,white,man,,,,null,,,,
null,"<img src=""stim_listB/flirt4.gif""style=""height:400px;""></stim_listB>",,html-keyboard-response,437,2268557,0.0-19.0-1.6,90485,List2B,white,man,,,,null,,,,
null,are flirting with each other,,html-keyboard-response,438,2270554,0.0-19.0-2.6,90485,List2B,white,man,,,,null,,,,
11568,,,survey-text,439,2282124,0.0-19.0-3.6,90485,List2B,white,man,,,,,"{""Q0"":""mike is flirting with beth""}","<img src=""stim_listB/flirt4.gif""style=""height:400px;""></stim_listB>",are flirting with each other,
null,"<div style=""font-size:60px;"">+</div>",,html-keyboard-response,440,2282624,0.0-19.0-0.7,90485,List2B,white,man,,,,null,,,,
null,"<img src=""stim_listB/play8.gif""style=""height:400px;""></stim_listB>",,html-keyboard-response,441,2284624,0.0-19.0-1.7,90485,List2B,white,man,,,,null,,,,
null,are playing with each other,,html-keyboard-response,442,2286624,0.0-19.0-2.7,90485,List2B,white,man,,,,null,,,,
9859,,,survey-text,443,2296485,0.0-19.0-3.7,90485,List2B,white,man,,,,,"{""Q0"":""beth is playing with ruth""}","<img src=""stim_listB/play8.gif""style=""height:400px;""></stim_listB>",are playing with each other,
null,"<div style=""font-size:60px;"">+</div>",,html-keyboard-response,444,2296986,0.0-19.0-0.8,90485,List2B,white,man,,,,null,,,,
null,"<img src=""stim_listB/fight6.gif""style=""height:400px;""></stim_listB>",,html-keyboard-response,445,2298986,0.0-19.0-1.8,90485,List2B,white,man,,,,null,,,,
null,are fighting each other,,html-keyboard-response,446,2300986,0.0-19.0-2.8,90485,List2B,white,man,,,,null,,,,
12884,,,survey-text,447,2313870,0.0-19.0-3.8,90485,List2B,white,man,,,,,"{""Q0"":""luke is fighting with fred""}","<img src=""stim_listB/fight6.gif""style=""height:400px;""></stim_listB>",are fighting each other,
null,"<div style=""font-size:60px;"">+</div>",,html-keyboard-response,448,2314371,0.0-19.0-0.9,90485,List2B,white,man,,,,null,,,,
null,"<img src=""stim_listB/flirt5.gif""style=""height:400px;""></stim_listB>",,html-keyboard-response,449,2316372,0.0-19.0-1.9,90485,List2B,white,man,,,,null,,,,
null,is flirting with,,html-keyboard-response,450,2318372,0.0-19.0-2.9,90485,List2B,white,man,,,,null,,,,
12815,,,survey-text,451,2331187,0.0-19.0-3.9,90485,List2B,white,man,,,,,"{""Q0"":""mike is flirting with luke""}","<img src=""stim_listB/flirt5.gif""style=""height:400px;""></stim_listB>",is flirting with,
null,"<div style=""font-size:60px;"">+</div>",,html-keyboard-response,452,2331688,0.0-19.0-0.10,90485,List2B,white,man,,,,null,,,,
null,"<img src=""stim_listB/talk5.gif""style=""height:400px;""></stim_listB>",,html-keyboard-response,453,2333688,0.0-19.0-1.10,90485,List2B,white,man,,,,null,,,,
null,is talking to,,html-keyboard-response,454,2335688,0.0-19.0-2.10,90485,List2B,white,man,,,,null,,,,
13151,,,survey-text,455,2348840,0.0-19.0-3.10,90485,List2B,white,man,,,,,"{""Q0"":""mike is talking with luke""}","<img src=""stim_listB/talk5.gif""style=""height:400px;""></stim_listB>",is talking to,
null,"<div style=""font-size:60px;"">+</div>",,html-keyboard-response,456,2349341,0.0-19.0-0.11,90485,List2B,white,man,,,,null,,,,
null,"<img src=""stim_listB/dance6.gif""style=""height:400px;""></stim_listB>",,html-keyboard-response,457,2351342,0.0-19.0-1.11,90485,List2B,white,man,,,,null,,,,
null,are dancing with each other,,html-keyboard-response,458,2353342,0.0-19.0-2.11,90485,List2B,white,man,,,,null,,,,
9984,,,survey-text,459,2363328,0.0-19.0-3.11,90485,List2B,white,man,,,,,"{""Q0"":""dave is dancing with fred""}","<img src=""stim_listB/dance6.gif""style=""height:400px;""></stim_listB>",are dancing with each other,
null,"<div style=""font-size:60px;"">+</div>",,html-keyboard-response,460,2363829,0.0-19.0-0.12,90485,List2B,white,man,,,,null,,,,
null,"<img src=""stim_listB/argue8.gif""style=""height:400px;""></stim_listB>",,html-keyboard-response,461,2365830,0.0-19.0-1.12,90485,List2B,white,man,,,,null,,,,
null,are arguing with each other,,html-keyboard-response,462,2367830,0.0-19.0-2.12,90485,List2B,white,man,,,,null,,,,
10121,,,survey-text,463,2377952,0.0-19.0-3.12,90485,List2B,white,man,,,,,"{""Q0"":""ruth is arguing with kate""}","<img src=""stim_listB/argue8.gif""style=""height:400px;""></stim_listB>",are arguing with each other,
null,"<div style=""font-size:60px;"">+</div>",,html-keyboard-response,464,2378453,0.0-19.0-0.13,90485,List2B,white,man,,,,null,,,,
null,"<img src=""stim_listB/marry3.gif""style=""height:400px;""></stim_listB>",,html-keyboard-response,465,2380454,0.0-19.0-1.13,90485,List2B,white,man,,,,null,,,,
null,is marrying,,html-keyboard-response,466,2382454,0.0-19.0-2.13,90485,List2B,white,man,,,,null,,,,
6808,,,survey-text,467,2389264,0.0-19.0-3.13,90485,List2B,white,man,,,,,"{""Q0"":""beth is marrying mike""}","<img src=""stim_listB/marry3.gif""style=""height:400px;""></stim_listB>",is marrying,
null,"<div style=""font-size:60px;"">+</div>",,html-keyboard-response,468,2389765,0.0-19.0-0.14,90485,List2B,white,man,,,,null,,,,
null,"<img src=""stim_listB/talk8.gif""style=""height:400px;""></stim_listB>",,html-keyboard-response,469,2391763,0.0-19.0-1.14,90485,List2B,white,man,,,,null,,,,
null,are talking to each other,,html-keyboard-response,470,2393763,0.0-19.0-2.14,90485,List2B,white,man,,,,null,,,,
10391,,,survey-text,471,2404155,0.0-19.0-3.14,90485,List2B,white,man,,,,,"{""Q0"":""jane is talking to beth""}","<img src=""stim_listB/talk8.gif""style=""height:400px;""></stim_listB>",are talking to each other,
null,"<div style=""font-size:60px;"">+</div>",,html-keyboard-response,472,2404656,0.0-19.0-0.15,90485,List2B,white,man,,,,null,,,,
null,"<img src=""stim_listB/marry6.gif""style=""height:400px;""></stim_listB>",,html-keyboard-response,473,2406656,0.0-19.0-1.15,90485,List2B,white,man,,,,null,,,,
null,are marrying each other,,html-keyboard-response,474,2408656,0.0-19.0-2.15,90485,List2B,white,man,,,,null,,,,
10253,,,survey-text,475,2418910,0.0-19.0-3.15,90485,List2B,white,man,,,,,"{""Q0"":""mike is marrying luke""}","<img src=""stim_listB/marry6.gif""style=""height:400px;""></stim_listB>",are marrying each other,
null,"<div style=""font-size:60px;"">+</div>",,html-keyboard-response,476,2419411,0.0-19.0-0.16,90485,List2B,white,man,,,,null,,,,
null,"<img src=""stim_listB/flirt7.gif""style=""height:400px;""></stim_listB>",,html-keyboard-response,477,2421412,0.0-19.0-1.16,90485,List2B,white,man,,,,null,,,,
null,is flirting with,,html-keyboard-response,478,2423412,0.0-19.0-2.16,90485,List2B,white,man,,,,null,,,,
9776,,,survey-text,479,2433188,0.0-19.0-3.16,90485,List2B,white,man,,,,,"{""Q0"":""kate is flirting with ruth""}","<img src=""stim_listB/flirt7.gif""style=""height:400px;""></stim_listB>",is flirting with,
null,"<div style=""font-size:60px;"">+</div>",,html-keyboard-response,480,2433689,0.0-19.0-0.17,90485,List2B,white,man,,,,null,,,,
null,"<img src=""stim_listB/dance5.gif""style=""height:400px;""></stim_listB>",,html-keyboard-response,481,2435690,0.0-19.0-1.17,90485,List2B,white,man,,,,null,,,,
null,is dancing with,,html-keyboard-response,482,2437690,0.0-19.0-2.17,90485,List2B,white,man,,,,null,,,,
7704,,,survey-text,483,2445396,0.0-19.0-3.17,90485,List2B,white,man,,,,,"{""Q0"":""mike is dancing with luke""}","<img src=""stim_listB/dance5.gif""style=""height:400px;""></stim_listB>",is dancing with,
null,"<div style=""font-size:60px;"">+</div>",,html-keyboard-response,484,2445896,0.0-19.0-0.18,90485,List2B,white,man,,,,null,,,,
null,"<img src=""stim_listB/kiss5.gif""style=""height:400px;""></stim_listB>",,html-keyboard-response,485,2447896,0.0-19.0-1.18,90485,List2B,white,man,,,,null,,,,
null,is kissing,,html-keyboard-response,486,2449896,0.0-19.0-2.18,90485,List2B,white,man,,,,null,,,,
7797,,,survey-text,487,2457695,0.0-19.0-3.18,90485,List2B,white,man,,,,,"{""Q0"":""luke is kissing fred""}","<img src=""stim_listB/kiss5.gif""style=""height:400px;""></stim_listB>",is kissing,
null,"<div style=""font-size:60px;"">+</div>",,html-keyboard-response,488,2458196,0.0-19.0-0.19,90485,List2B,white,man,,,,null,,,,
null,"<img src=""stim_listB/argue5.gif""style=""height:400px;""></stim_listB>",,html-keyboard-response,489,2460196,0.0-19.0-1.19,90485,List2B,white,man,,,,null,,,,
null,is arguing with,,html-keyboard-response,490,2462196,0.0-19.0-2.19,90485,List2B,white,man,,,,null,,,,
16825,,,survey-text,491,2479023,0.0-19.0-3.19,90485,List2B,white,man,,,,,"{""Q0"":""fred is kissing dave""}","<img src=""stim_listB/argue5.gif""style=""height:400px;""></stim_listB>",is arguing with,
2671,<p>Thank you for completing that task.</p><p>The final part of this session is a short questionnaire.</p><p>Press Continue.</p>,0,html-button-response,492,2481696,0.0-20.0,90485,List2B,white,man,,,,,,,,
27283,,,survey-text,493,2509981,0.0-21.0,90485,List2B,white,man,,,,,"{""Q0"":""39"",""Q1"":""English"",""Q2"":""English"",""Q3"":""Ireland"",""Q4"":""Caucasian"",""Q5"":""Male""}",,,demographics
8490,,,survey-likert,494,2518474,0.0-22.0,90485,List2B,white,man,,,,,"{""Q0"":4}",,,likert_ESS
9542,,,survey-likert,495,2528096,0.0-23.0,90485,List2B,white,man,,,,,"{""Q0"":4}",,,likert_NSSAL_Q1
3923,,,survey-likert,496,2532097,0.0-24.0,90485,List2B,white,man,,,,,"{""Q0"":4}",,,likert_NSSAL_Q2
6272,,,survey-likert,497,2538448,0.0-25.0,90485,List2B,white,man,,,,,"{""Q0"":4}",,,likert_CGRS_Q1
5570,,,survey-likert,498,2544097,0.0-26.0,90485,List2B,white,man,,,,,"{""Q0"":4}",,,likert_CGRS_Q2
3539,,,survey-likert,499,2547714,0.0-27.0,90485,List2B,white,man,,,,,"{""Q0"":4}",,,likert_CGRS_Q3
10890,,,survey-text,500,2558682,0.0-28.0,90485,List2B,white,man,,,,,"{""Q0"":""ccc""}",,,worker_id
13986,,,external-html,501,2572852,0.0-29.0,90485,List2B,white,man,debrief.html,,,,,,,
