rt,stimulus,button_pressed,trial_type,trial_index,time_elapsed,internal_node_id,subject,list,ppt_race,ppt_gender,url,first_guess,correct,key_press,responses,image_type,phrase_type,test_part
11004,Welcome to the experiment. Press Continue to begin.,0,html-button-response,0,11008,0.0-0.0,91696,List1B,white,woman,,,,,,,,
45647,,,external-html,1,57963,0.0-1.0,91696,List1B,white,woman,consent.html,,,,,,,
11677,"<p>On the next page, you will see portraits of 8 people and their names.</p><p>Your first task is to take a few minutes to memorise the names of these people.</p><p>You will have to recall their names during the rest of the experiment, so it is</p><p>essential that you try to memorise these people and their names as best as you can.</p><br><p><strong>You will then be tested on your memory of these names and portraits.</strong></p><br><p>The experiment will start after you have completed this memory test.</p><br><p>Ready?</p>",0,html-button-response,2,69643,0.0-2.0,91696,List1B,white,woman,,,,,,,,
119003,"<img src='img/portrait_matrix_list1.jpg' style='width:900px;height:500px;''></img><p>If you have memorised all the portraits and names and are ready to start, press Continue.</p><p><strong>Please note: Your memory of these faces will be tested 4 times during this experiment.</strong></p>",0,html-button-response,3,189655,0.0-3.0-0.0,91696,List1B,white,woman,,,,,,,,
4562,"<img src=""portrait/BM2.jpg""style=""height:400px;""></img>",5,html-button-response,4,195249,0.0-3.0-1.0,91696,List1B,white,woman,,TRUE,5,,,,,
null,CORRECT,,html-keyboard-response,5,196762,0.0-3.0-2.0-0.0,91696,List1B,white,woman,,,,null,,,,
2298,"<img src=""portrait/WW1.jpg""style=""height:400px;""></img>",1,html-button-response,6,199065,0.0-3.0-4.0,91696,List1B,white,woman,,TRUE,1,,,,,
null,CORRECT,,html-keyboard-response,7,200571,0.0-3.0-5.0-0.0,91696,List1B,white,woman,,,,null,,,,
2156,"<img src=""portrait/BW2.jpg""style=""height:400px;""></img>",2,html-button-response,8,202729,0.0-3.0-7.0,91696,List1B,white,woman,,TRUE,2,,,,,
null,CORRECT,,html-keyboard-response,9,204239,0.0-3.0-8.0-0.0,91696,List1B,white,woman,,,,null,,,,
3667,"<img src=""portrait/BW1.jpg""style=""height:400px;""></img>",0,html-button-response,10,207907,0.0-3.0-10.0,91696,List1B,white,woman,,TRUE,0,,,,,
null,CORRECT,,html-keyboard-response,11,209418,0.0-3.0-11.0-0.0,91696,List1B,white,woman,,,,null,,,,
5654,"<img src=""portrait/BM1.jpg""style=""height:400px;""></img>",4,html-button-response,12,215073,0.0-3.0-13.0,91696,List1B,white,woman,,TRUE,4,,,,,
null,CORRECT,,html-keyboard-response,13,216579,0.0-3.0-14.0-0.0,91696,List1B,white,woman,,,,null,,,,
2931,"<img src=""portrait/WM2.jpg""style=""height:400px;""></img>",7,html-button-response,14,219513,0.0-3.0-16.0,91696,List1B,white,woman,,TRUE,7,,,,,
null,CORRECT,,html-keyboard-response,15,221019,0.0-3.0-17.0-0.0,91696,List1B,white,woman,,,,null,,,,
2105,"<img src=""portrait/WW2.jpg""style=""height:400px;""></img>",3,html-button-response,16,223127,0.0-3.0-19.0,91696,List1B,white,woman,,TRUE,3,,,,,
null,CORRECT,,html-keyboard-response,17,224631,0.0-3.0-20.0-0.0,91696,List1B,white,woman,,,,null,,,,
3844,"<img src=""portrait/WM1.jpg""style=""height:400px;""></img>",6,html-button-response,18,228478,0.0-3.0-22.0,91696,List1B,white,woman,,TRUE,6,,,,,
null,CORRECT,,html-keyboard-response,19,229980,0.0-3.0-23.0-0.0,91696,List1B,white,woman,,,,null,,,,
2002,<p>You got 8 out of 8 right first time. Press Continue.</p>,0,html-button-response,20,231984,0.0-3.0-25.0,91696,List1B,white,woman,,,,,,,,
80790,"<p>In this experiment, you will view photographs of the people from the memory game interacting.</p><p>By using the <strong>exact</strong> phrase given <i>after</i> the photograph appears and recalling the correct names of the people in the photographs, form a sentence describing the interaction. You do not need to capitalise names.</p><p>Type your answer in the space provided. Please complete every sentence before moving onto the next trial.</p><p>You will only have a few seconds to memorise each given photograph and phrase before you can respond, so try your best to focus.</p><p>An example is given below. Press 'Continue' when you are ready.</p><img src='img/speaking_example.jpg' style='width:800px;height:460px;''></img>",0,html-button-response,21,313780,0.0-4.0,91696,List1B,white,woman,,,,,,,,
2133,"<p>Before the experiment starts, you will watch two example trials. Press 'Continue'.</p>",0,html-button-response,22,316917,0.0-5.0,91696,List1B,white,woman,,,,,,,,
null,<img src='img/meet_eg.gif' style='height:400px;''></img>,,html-keyboard-response,23,319930,0.0-6.0,91696,List1B,white,woman,,,,null,,,,
null,<p>is meeting</p>,,html-keyboard-response,24,321933,0.0-7.0,91696,List1B,white,woman,,,,null,,,,
58323,<p><b>Answer:</b> kate is meeting beth</p>,0,html-button-response,25,380258,0.0-8.0,91696,List1B,white,woman,,,,,,,,
null,<img src='img/look_eg.gif' style='height:400px;''></img>,,html-keyboard-response,26,383267,0.0-9.0,91696,List1B,white,woman,,,,null,,,,
null,<p>are looking at each other</p>,,html-keyboard-response,27,385271,0.0-10.0,91696,List1B,white,woman,,,,null,,,,
1884,<p><b>Answer:</b> luke and dave are looking at each other</p>,0,html-button-response,28,387156,0.0-11.0,91696,List1B,white,woman,,,,,,,,
5587,"<p>Ready to start the experiment?</p><br><p><strong>Remember to describe the picture using a full sentence,</strong></p><p><strong>that combines the names of the people with the <i>exact</i> phrase given.</strong></p><p><strong>To receive full payment you must do this correctly.</strong></p><p><strong> You do not need to capitalise names or use punctuation.</strong></p><br><p>Press 'Continue' to begin.</p>",0,html-button-response,29,393746,0.0-12.0,91696,List1B,white,woman,,,,,,,,
null,"<div style=""font-size:60px;"">+</div>",,html-keyboard-response,30,395254,0.0-13.0-0.0,91696,List1B,white,woman,,,,null,,,,
null,"<img src=""stim_listB/play2.gif""style=""height:400px;""></stim_listB>",,html-keyboard-response,31,397267,0.0-13.0-1.0,91696,List1B,white,woman,,,,null,,,,
null,are playing with each other,,html-keyboard-response,32,399269,0.0-13.0-2.0,91696,List1B,white,woman,,,,null,,,,
6853,,,survey-text,33,406138,0.0-13.0-3.0,91696,List1B,white,woman,,,,,"{""Q0"":""fred and beth are playing with each other.""}","<img src=""stim_listB/play2.gif""style=""height:400px;""></stim_listB>",are playing with each other,
null,"<div style=""font-size:60px;"">+</div>",,html-keyboard-response,34,406645,0.0-13.0-0.1,91696,List1B,white,woman,,,,null,,,,
null,"<img src=""stim_listB/play4.gif""style=""height:400px;""></stim_listB>",,html-keyboard-response,35,408650,0.0-13.0-1.1,91696,List1B,white,woman,,,,null,,,,
null,are playing with each other,,html-keyboard-response,36,410654,0.0-13.0-2.1,91696,List1B,white,woman,,,,null,,,,
6137,,,survey-text,37,416793,0.0-13.0-3.1,91696,List1B,white,woman,,,,,"{""Q0"":""luke and ruth are playing with each other""}","<img src=""stim_listB/play4.gif""style=""height:400px;""></stim_listB>",are playing with each other,
null,"<div style=""font-size:60px;"">+</div>",,html-keyboard-response,38,417300,0.0-13.0-0.2,91696,List1B,white,woman,,,,null,,,,
null,"<img src=""stim_listB/argue2.gif""style=""height:400px;""></stim_listB>",,html-keyboard-response,39,419302,0.0-13.0-1.2,91696,List1B,white,woman,,,,null,,,,
null,are arguing with each other,,html-keyboard-response,40,421307,0.0-13.0-2.2,91696,List1B,white,woman,,,,null,,,,
6466,,,survey-text,41,427775,0.0-13.0-3.2,91696,List1B,white,woman,,,,,"{""Q0"":""fred and kate are arguing with each other""}","<img src=""stim_listB/argue2.gif""style=""height:400px;""></stim_listB>",are arguing with each other,
null,"<div style=""font-size:60px;"">+</div>",,html-keyboard-response,42,428276,0.0-13.0-0.3,91696,List1B,white,woman,,,,null,,,,
null,"<img src=""stim_listB/argue6.gif""style=""height:400px;""></stim_listB>",,html-keyboard-response,43,430292,0.0-13.0-1.3,91696,List1B,white,woman,,,,null,,,,
null,are arguing with each other,,html-keyboard-response,44,432294,0.0-13.0-2.3,91696,List1B,white,woman,,,,null,,,,
8323,,,survey-text,45,440617,0.0-13.0-3.3,91696,List1B,white,woman,,,,,"{""Q0"":""dave and fred are arguing with each other.""}","<img src=""stim_listB/argue6.gif""style=""height:400px;""></stim_listB>",are arguing with each other,
null,"<div style=""font-size:60px;"">+</div>",,html-keyboard-response,46,441122,0.0-13.0-0.4,91696,List1B,white,woman,,,,null,,,,
null,"<img src=""stim_listB/touch8.gif""style=""height:400px;""></stim_listB>",,html-keyboard-response,47,443132,0.0-13.0-1.4,91696,List1B,white,woman,,,,null,,,,
null,are touching each other,,html-keyboard-response,48,445134,0.0-13.0-2.4,91696,List1B,white,woman,,,,null,,,,
6677,,,survey-text,49,451813,0.0-13.0-3.4,91696,List1B,white,woman,,,,,"{""Q0"":""ruth and beth are touching each other.""}","<img src=""stim_listB/touch8.gif""style=""height:400px;""></stim_listB>",are touching each other,
null,"<div style=""font-size:60px;"">+</div>",,html-keyboard-response,50,452314,0.0-13.0-0.5,91696,List1B,white,woman,,,,null,,,,
null,"<img src=""stim_listB/marry4.gif""style=""height:400px;""></stim_listB>",,html-keyboard-response,51,454316,0.0-13.0-1.5,91696,List1B,white,woman,,,,null,,,,
null,are marrying each other,,html-keyboard-response,52,456318,0.0-13.0-2.5,91696,List1B,white,woman,,,,null,,,,
6720,,,survey-text,53,463039,0.0-13.0-3.5,91696,List1B,white,woman,,,,,"{""Q0"":""luke and jane are marrying each other.""}","<img src=""stim_listB/marry4.gif""style=""height:400px;""></stim_listB>",are marrying each other,
null,"<div style=""font-size:60px;"">+</div>",,html-keyboard-response,54,463545,0.0-13.0-0.6,91696,List1B,white,woman,,,,null,,,,
null,"<img src=""stim_listB/dance3.gif""style=""height:400px;""></stim_listB>",,html-keyboard-response,55,465562,0.0-13.0-1.6,91696,List1B,white,woman,,,,null,,,,
null,is dancing with,,html-keyboard-response,56,467564,0.0-13.0-2.6,91696,List1B,white,woman,,,,null,,,,
6605,,,survey-text,57,474171,0.0-13.0-3.6,91696,List1B,white,woman,,,,,"{""Q0"":""luke is dancing with jane""}","<img src=""stim_listB/dance3.gif""style=""height:400px;""></stim_listB>",is dancing with,
null,"<div style=""font-size:60px;"">+</div>",,html-keyboard-response,58,474673,0.0-13.0-0.7,91696,List1B,white,woman,,,,null,,,,
null,"<img src=""stim_listB/shout2.gif""style=""height:400px;""></stim_listB>",,html-keyboard-response,59,476679,0.0-13.0-1.7,91696,List1B,white,woman,,,,null,,,,
null,are shouting at each other,,html-keyboard-response,60,478681,0.0-13.0-2.7,91696,List1B,white,woman,,,,null,,,,
7281,,,survey-text,61,485964,0.0-13.0-3.7,91696,List1B,white,woman,,,,,"{""Q0"":""mike and kate are yelling at each other""}","<img src=""stim_listB/shout2.gif""style=""height:400px;""></stim_listB>",are shouting at each other,
null,"<div style=""font-size:60px;"">+</div>",,html-keyboard-response,62,486469,0.0-13.0-0.8,91696,List1B,white,woman,,,,null,,,,
null,"<img src=""stim_listB/touch4.gif""style=""height:400px;""></stim_listB>",,html-keyboard-response,63,488475,0.0-13.0-1.8,91696,List1B,white,woman,,,,null,,,,
null,are touching each other,,html-keyboard-response,64,490477,0.0-13.0-2.8,91696,List1B,white,woman,,,,null,,,,
6758,,,survey-text,65,497237,0.0-13.0-3.8,91696,List1B,white,woman,,,,,"{""Q0"":""luke and ruth are touching each other""}","<img src=""stim_listB/touch4.gif""style=""height:400px;""></stim_listB>",are touching each other,
null,"<div style=""font-size:60px;"">+</div>",,html-keyboard-response,66,497740,0.0-13.0-0.9,91696,List1B,white,woman,,,,null,,,,
null,"<img src=""stim_listB/talk1.gif""style=""height:400px;""></stim_listB>",,html-keyboard-response,67,499749,0.0-13.0-1.9,91696,List1B,white,woman,,,,null,,,,
null,is talking to,,html-keyboard-response,68,501753,0.0-13.0-2.9,91696,List1B,white,woman,,,,null,,,,
4567,,,survey-text,69,506321,0.0-13.0-3.9,91696,List1B,white,woman,,,,,"{""Q0"":""fred is talking to kate""}","<img src=""stim_listB/talk1.gif""style=""height:400px;""></stim_listB>",is talking to,
null,"<div style=""font-size:60px;"">+</div>",,html-keyboard-response,70,506827,0.0-13.0-0.10,91696,List1B,white,woman,,,,null,,,,
null,"<img src=""stim_listB/marry3.gif""style=""height:400px;""></stim_listB>",,html-keyboard-response,71,508840,0.0-13.0-1.10,91696,List1B,white,woman,,,,null,,,,
null,is marrying,,html-keyboard-response,72,510842,0.0-13.0-2.10,91696,List1B,white,woman,,,,null,,,,
9577,,,survey-text,73,520421,0.0-13.0-3.10,91696,List1B,white,woman,,,,,"{""Q0"":""dave is marrying ruth.""}","<img src=""stim_listB/marry3.gif""style=""height:400px;""></stim_listB>",is marrying,
null,"<div style=""font-size:60px;"">+</div>",,html-keyboard-response,74,520926,0.0-13.0-0.11,91696,List1B,white,woman,,,,null,,,,
null,"<img src=""stim_listB/flirt5.gif""style=""height:400px;""></stim_listB>",,html-keyboard-response,75,522935,0.0-13.0-1.11,91696,List1B,white,woman,,,,null,,,,
null,is flirting with,,html-keyboard-response,76,524939,0.0-13.0-2.11,91696,List1B,white,woman,,,,null,,,,
4748,,,survey-text,77,529689,0.0-13.0-3.11,91696,List1B,white,woman,,,,,"{""Q0"":""dave is flirting with fred""}","<img src=""stim_listB/flirt5.gif""style=""height:400px;""></stim_listB>",is flirting with,
null,"<div style=""font-size:60px;"">+</div>",,html-keyboard-response,78,530191,0.0-13.0-0.12,91696,List1B,white,woman,,,,null,,,,
null,"<img src=""stim_listB/marry2.gif""style=""height:400px;""></stim_listB>",,html-keyboard-response,79,532195,0.0-13.0-1.12,91696,List1B,white,woman,,,,null,,,,
null,are marrying each other,,html-keyboard-response,80,534197,0.0-13.0-2.12,91696,List1B,white,woman,,,,null,,,,
6966,,,survey-text,81,541165,0.0-13.0-3.12,91696,List1B,white,woman,,,,,"{""Q0"":""fred and kate are marrying each other.""}","<img src=""stim_listB/marry2.gif""style=""height:400px;""></stim_listB>",are marrying each other,
null,"<div style=""font-size:60px;"">+</div>",,html-keyboard-response,82,541669,0.0-13.0-0.13,91696,List1B,white,woman,,,,null,,,,
null,"<img src=""stim_listB/talk4.gif""style=""height:400px;""></stim_listB>",,html-keyboard-response,83,543675,0.0-13.0-1.13,91696,List1B,white,woman,,,,null,,,,
null,are talking to each other,,html-keyboard-response,84,545678,0.0-13.0-2.13,91696,List1B,white,woman,,,,null,,,,
5244,,,survey-text,85,550924,0.0-13.0-3.13,91696,List1B,white,woman,,,,,"{""Q0"":""dave and ruth are talking to each other""}","<img src=""stim_listB/talk4.gif""style=""height:400px;""></stim_listB>",are talking to each other,
null,"<div style=""font-size:60px;"">+</div>",,html-keyboard-response,86,551426,0.0-13.0-0.14,91696,List1B,white,woman,,,,null,,,,
null,"<img src=""stim_listB/shout3.gif""style=""height:400px;""></stim_listB>",,html-keyboard-response,87,553431,0.0-13.0-1.14,91696,List1B,white,woman,,,,null,,,,
null,is shouting at,,html-keyboard-response,88,555432,0.0-13.0-2.14,91696,List1B,white,woman,,,,null,,,,
5589,,,survey-text,89,561022,0.0-13.0-3.14,91696,List1B,white,woman,,,,,"{""Q0"":""luke is shouting at ruth""}","<img src=""stim_listB/shout3.gif""style=""height:400px;""></stim_listB>",is shouting at,
null,"<div style=""font-size:60px;"">+</div>",,html-keyboard-response,90,561526,0.0-13.0-0.15,91696,List1B,white,woman,,,,null,,,,
null,"<img src=""stim_listB/kiss6.gif""style=""height:400px;""></stim_listB>",,html-keyboard-response,91,563527,0.0-13.0-1.15,91696,List1B,white,woman,,,,null,,,,
null,are kissing each other,,html-keyboard-response,92,565529,0.0-13.0-2.15,91696,List1B,white,woman,,,,null,,,,
5960,,,survey-text,93,571491,0.0-13.0-3.15,91696,List1B,white,woman,,,,,"{""Q0"":""dave and mike are kissing each other""}","<img src=""stim_listB/kiss6.gif""style=""height:400px;""></stim_listB>",are kissing each other,
null,"<div style=""font-size:60px;"">+</div>",,html-keyboard-response,94,571995,0.0-13.0-0.16,91696,List1B,white,woman,,,,null,,,,
null,"<img src=""stim_listB/flirt2.gif""style=""height:400px;""></stim_listB>",,html-keyboard-response,95,574007,0.0-13.0-1.16,91696,List1B,white,woman,,,,null,,,,
null,are flirting with each other,,html-keyboard-response,96,576009,0.0-13.0-2.16,91696,List1B,white,woman,,,,null,,,,
5952,,,survey-text,97,581963,0.0-13.0-3.16,91696,List1B,white,woman,,,,,"{""Q0"":""mike and beth are flirting with each other""}","<img src=""stim_listB/flirt2.gif""style=""height:400px;""></stim_listB>",are flirting with each other,
null,"<div style=""font-size:60px;"">+</div>",,html-keyboard-response,98,582465,0.0-13.0-0.17,91696,List1B,white,woman,,,,null,,,,
null,"<img src=""stim_listB/talk2.gif""style=""height:400px;""></stim_listB>",,html-keyboard-response,99,584468,0.0-13.0-1.17,91696,List1B,white,woman,,,,null,,,,
null,are talking to each other,,html-keyboard-response,100,586471,0.0-13.0-2.17,91696,List1B,white,woman,,,,null,,,,
7297,,,survey-text,101,593769,0.0-13.0-3.17,91696,List1B,white,woman,,,,,"{""Q0"":""mike and beth are talking to each other""}","<img src=""stim_listB/talk2.gif""style=""height:400px;""></stim_listB>",are talking to each other,
null,"<div style=""font-size:60px;"">+</div>",,html-keyboard-response,102,594273,0.0-13.0-0.18,91696,List1B,white,woman,,,,null,,,,
null,"<img src=""stim_listB/dance6.gif""style=""height:400px;""></stim_listB>",,html-keyboard-response,103,596287,0.0-13.0-1.18,91696,List1B,white,woman,,,,null,,,,
null,are dancing with each other,,html-keyboard-response,104,598291,0.0-13.0-2.18,91696,List1B,white,woman,,,,null,,,,
6602,,,survey-text,105,604897,0.0-13.0-3.18,91696,List1B,white,woman,,,,,"{""Q0"":""luke and mike are dancing with each other""}","<img src=""stim_listB/dance6.gif""style=""height:400px;""></stim_listB>",are dancing with each other,
null,"<div style=""font-size:60px;"">+</div>",,html-keyboard-response,106,605402,0.0-13.0-0.19,91696,List1B,white,woman,,,,null,,,,
null,"<img src=""stim_listB/argue8.gif""style=""height:400px;""></stim_listB>",,html-keyboard-response,107,607405,0.0-13.0-1.19,91696,List1B,white,woman,,,,null,,,,
null,are arguing with each other,,html-keyboard-response,108,609407,0.0-13.0-2.19,91696,List1B,white,woman,,,,null,,,,
6151,,,survey-text,109,615560,0.0-13.0-3.19,91696,List1B,white,woman,,,,,"{""Q0"":""beth and jane are arguing with each other""}","<img src=""stim_listB/argue8.gif""style=""height:400px;""></stim_listB>",are arguing with each other,
6086,"<img src='img/portrait_matrix_list1.jpg' style='width:900px;height:500px;''></img><p>If you have memorised all the portraits and names and are ready to start, press Continue.</p><p><strong>Please note: Your memory of these faces will be tested 4 times during this experiment.</strong></p>",0,html-button-response,110,621650,0.0-14.0-0.0,91696,List1B,white,woman,,,,,,,,
2335,"<img src=""portrait/BW1.jpg""style=""height:400px;""></img>",0,html-button-response,111,624989,0.0-14.0-1.0,91696,List1B,white,woman,,TRUE,0,,,,,
null,CORRECT,,html-keyboard-response,112,626493,0.0-14.0-2.0-0.0,91696,List1B,white,woman,,,,null,,,,
2039,"<img src=""portrait/BM2.jpg""style=""height:400px;""></img>",5,html-button-response,113,628534,0.0-14.0-4.0,91696,List1B,white,woman,,TRUE,5,,,,,
null,CORRECT,,html-keyboard-response,114,630041,0.0-14.0-5.0-0.0,91696,List1B,white,woman,,,,null,,,,
1998,"<img src=""portrait/WW2.jpg""style=""height:400px;""></img>",3,html-button-response,115,632043,0.0-14.0-7.0,91696,List1B,white,woman,,TRUE,3,,,,,
null,CORRECT,,html-keyboard-response,116,633552,0.0-14.0-8.0-0.0,91696,List1B,white,woman,,,,null,,,,
3232,"<img src=""portrait/WM1.jpg""style=""height:400px;""></img>",6,html-button-response,117,636786,0.0-14.0-10.0,91696,List1B,white,woman,,TRUE,6,,,,,
null,CORRECT,,html-keyboard-response,118,638292,0.0-14.0-11.0-0.0,91696,List1B,white,woman,,,,null,,,,
2106,"<img src=""portrait/WW1.jpg""style=""height:400px;""></img>",1,html-button-response,119,640400,0.0-14.0-13.0,91696,List1B,white,woman,,TRUE,1,,,,,
null,CORRECT,,html-keyboard-response,120,641904,0.0-14.0-14.0-0.0,91696,List1B,white,woman,,,,null,,,,
1340,"<img src=""portrait/BM1.jpg""style=""height:400px;""></img>",4,html-button-response,121,643246,0.0-14.0-16.0,91696,List1B,white,woman,,TRUE,4,,,,,
null,CORRECT,,html-keyboard-response,122,644755,0.0-14.0-17.0-0.0,91696,List1B,white,woman,,,,null,,,,
1446,"<img src=""portrait/WM2.jpg""style=""height:400px;""></img>",7,html-button-response,123,646204,0.0-14.0-19.0,91696,List1B,white,woman,,TRUE,7,,,,,
null,CORRECT,,html-keyboard-response,124,647712,0.0-14.0-20.0-0.0,91696,List1B,white,woman,,,,null,,,,
2382,"<img src=""portrait/BW2.jpg""style=""height:400px;""></img>",2,html-button-response,125,650096,0.0-14.0-22.0,91696,List1B,white,woman,,TRUE,2,,,,,
null,CORRECT,,html-keyboard-response,126,651601,0.0-14.0-23.0-0.0,91696,List1B,white,woman,,,,null,,,,
1368,<p>You got 8 out of 8 right first time. Press Continue.</p>,0,html-button-response,127,652970,0.0-14.0-25.0,91696,List1B,white,woman,,,,,,,,
null,"<div style=""font-size:60px;"">+</div>",,html-keyboard-response,128,654482,0.0-15.0-0.0,91696,List1B,white,woman,,,,null,,,,
null,"<img src=""stim_listB/fight1.gif""style=""height:400px;""></stim_listB>",,html-keyboard-response,129,656486,0.0-15.0-1.0,91696,List1B,white,woman,,,,null,,,,
null,is fighting,,html-keyboard-response,130,658488,0.0-15.0-2.0,91696,List1B,white,woman,,,,null,,,,
4745,,,survey-text,131,663235,0.0-15.0-3.0,91696,List1B,white,woman,,,,,"{""Q0"":""Mike is fighting with kate""}","<img src=""stim_listB/fight1.gif""style=""height:400px;""></stim_listB>",is fighting,
null,"<div style=""font-size:60px;"">+</div>",,html-keyboard-response,132,663738,0.0-15.0-0.1,91696,List1B,white,woman,,,,null,,,,
null,"<img src=""stim_listB/argue4.gif""style=""height:400px;""></stim_listB>",,html-keyboard-response,133,665743,0.0-15.0-1.1,91696,List1B,white,woman,,,,null,,,,
null,are arguing with each other,,html-keyboard-response,134,667745,0.0-15.0-2.1,91696,List1B,white,woman,,,,null,,,,
7595,,,survey-text,135,675341,0.0-15.0-3.1,91696,List1B,white,woman,,,,,"{""Q0"":""jane and luke are arguing with each other""}","<img src=""stim_listB/argue4.gif""style=""height:400px;""></stim_listB>",are arguing with each other,
null,"<div style=""font-size:60px;"">+</div>",,html-keyboard-response,136,675844,0.0-15.0-0.2,91696,List1B,white,woman,,,,null,,,,
null,"<img src=""stim_listB/talk5.gif""style=""height:400px;""></stim_listB>",,html-keyboard-response,137,677846,0.0-15.0-1.2,91696,List1B,white,woman,,,,null,,,,
null,is talking to,,html-keyboard-response,138,679848,0.0-15.0-2.2,91696,List1B,white,woman,,,,null,,,,
4075,,,survey-text,139,683925,0.0-15.0-3.2,91696,List1B,white,woman,,,,,"{""Q0"":""fred is talking to dave""}","<img src=""stim_listB/talk5.gif""style=""height:400px;""></stim_listB>",is talking to,
null,"<div style=""font-size:60px;"">+</div>",,html-keyboard-response,140,684428,0.0-15.0-0.3,91696,List1B,white,woman,,,,null,,,,
null,"<img src=""stim_listB/kiss7.gif""style=""height:400px;""></stim_listB>",,html-keyboard-response,141,686435,0.0-15.0-1.3,91696,List1B,white,woman,,,,null,,,,
null,is kissing,,html-keyboard-response,142,688439,0.0-15.0-2.3,91696,List1B,white,woman,,,,null,,,,
28045,,,survey-text,143,716485,0.0-15.0-3.3,91696,List1B,white,woman,,,,,"{""Q0"":""Luke is flirting with beth""}","<img src=""stim_listB/kiss7.gif""style=""height:400px;""></stim_listB>",is kissing,
null,"<div style=""font-size:60px;"">+</div>",,html-keyboard-response,144,716992,0.0-15.0-0.4,91696,List1B,white,woman,,,,null,,,,
null,"<img src=""stim_listB/fight4.gif""style=""height:400px;""></stim_listB>",,html-keyboard-response,145,718995,0.0-15.0-1.4,91696,List1B,white,woman,,,,null,,,,
null,are fighting each other,,html-keyboard-response,146,720999,0.0-15.0-2.4,91696,List1B,white,woman,,,,null,,,,
10266,,,survey-text,147,731269,0.0-15.0-3.4,91696,List1B,white,woman,,,,,"{""Q0"":""luke and ruth are fighting with each other""}","<img src=""stim_listB/fight4.gif""style=""height:400px;""></stim_listB>",are fighting each other,
null,"<div style=""font-size:60px;"">+</div>",,html-keyboard-response,148,731774,0.0-15.0-0.5,91696,List1B,white,woman,,,,null,,,,
null,"<img src=""stim_listB/marry6.gif""style=""height:400px;""></stim_listB>",,html-keyboard-response,149,733779,0.0-15.0-1.5,91696,List1B,white,woman,,,,null,,,,
null,are marrying each other,,html-keyboard-response,150,735783,0.0-15.0-2.5,91696,List1B,white,woman,,,,null,,,,
5856,,,survey-text,151,741641,0.0-15.0-3.5,91696,List1B,white,woman,,,,,"{""Q0"":""dave and fred are marrying each other""}","<img src=""stim_listB/marry6.gif""style=""height:400px;""></stim_listB>",are marrying each other,
null,"<div style=""font-size:60px;"">+</div>",,html-keyboard-response,152,742142,0.0-15.0-0.6,91696,List1B,white,woman,,,,null,,,,
null,"<img src=""stim_listB/flirt1.gif""style=""height:400px;""></stim_listB>",,html-keyboard-response,153,744145,0.0-15.0-1.6,91696,List1B,white,woman,,,,null,,,,
null,is flirting with,,html-keyboard-response,154,746150,0.0-15.0-2.6,91696,List1B,white,woman,,,,null,,,,
6302,,,survey-text,155,752453,0.0-15.0-3.6,91696,List1B,white,woman,,,,,"{""Q0"":""fred is flirting with kate""}","<img src=""stim_listB/flirt1.gif""style=""height:400px;""></stim_listB>",is flirting with,
null,"<div style=""font-size:60px;"">+</div>",,html-keyboard-response,156,752956,0.0-15.0-0.7,91696,List1B,white,woman,,,,null,,,,
null,"<img src=""stim_listB/marry5.gif""style=""height:400px;""></stim_listB>",,html-keyboard-response,157,754962,0.0-15.0-1.7,91696,List1B,white,woman,,,,null,,,,
null,is marrying,,html-keyboard-response,158,756963,0.0-15.0-2.7,91696,List1B,white,woman,,,,null,,,,
3890,,,survey-text,159,760855,0.0-15.0-3.7,91696,List1B,white,woman,,,,,"{""Q0"":""mike is marrying luke""}","<img src=""stim_listB/marry5.gif""style=""height:400px;""></stim_listB>",is marrying,
null,"<div style=""font-size:60px;"">+</div>",,html-keyboard-response,160,761357,0.0-15.0-0.8,91696,List1B,white,woman,,,,null,,,,
null,"<img src=""stim_listB/fight6.gif""style=""height:400px;""></stim_listB>",,html-keyboard-response,161,763370,0.0-15.0-1.8,91696,List1B,white,woman,,,,null,,,,
null,are fighting each other,,html-keyboard-response,162,765373,0.0-15.0-2.8,91696,List1B,white,woman,,,,null,,,,
8012,,,survey-text,163,773386,0.0-15.0-3.8,91696,List1B,white,woman,,,,,"{""Q0"":""luke and fred are fighting with each other""}","<img src=""stim_listB/fight6.gif""style=""height:400px;""></stim_listB>",are fighting each other,
null,"<div style=""font-size:60px;"">+</div>",,html-keyboard-response,164,773888,0.0-15.0-0.9,91696,List1B,white,woman,,,,null,,,,
null,"<img src=""stim_listB/flirt3.gif""style=""height:400px;""></stim_listB>",,html-keyboard-response,165,775892,0.0-15.0-1.9,91696,List1B,white,woman,,,,null,,,,
null,is flirting with,,html-keyboard-response,166,777893,0.0-15.0-2.9,91696,List1B,white,woman,,,,null,,,,
7563,,,survey-text,167,785458,0.0-15.0-3.9,91696,List1B,white,woman,,,,,"{""Q0"":""luke is flirting with jane""}","<img src=""stim_listB/flirt3.gif""style=""height:400px;""></stim_listB>",is flirting with,
null,"<div style=""font-size:60px;"">+</div>",,html-keyboard-response,168,785963,0.0-15.0-0.10,91696,List1B,white,woman,,,,null,,,,
null,"<img src=""stim_listB/flirt7.gif""style=""height:400px;""></stim_listB>",,html-keyboard-response,169,787968,0.0-15.0-1.10,91696,List1B,white,woman,,,,null,,,,
null,is flirting with,,html-keyboard-response,170,789975,0.0-15.0-2.10,91696,List1B,white,woman,,,,null,,,,
4919,,,survey-text,171,794897,0.0-15.0-3.10,91696,List1B,white,woman,,,,,"{""Q0"":""jane is flirting with beth""}","<img src=""stim_listB/flirt7.gif""style=""height:400px;""></stim_listB>",is flirting with,
null,"<div style=""font-size:60px;"">+</div>",,html-keyboard-response,172,795402,0.0-15.0-0.11,91696,List1B,white,woman,,,,null,,,,
null,"<img src=""stim_listB/dance5.gif""style=""height:400px;""></stim_listB>",,html-keyboard-response,173,797407,0.0-15.0-1.11,91696,List1B,white,woman,,,,null,,,,
null,is dancing with,,html-keyboard-response,174,799409,0.0-15.0-2.11,91696,List1B,white,woman,,,,null,,,,
5626,,,survey-text,175,805036,0.0-15.0-3.11,91696,List1B,white,woman,,,,,"{""Q0"":""fred is dancing with dave""}","<img src=""stim_listB/dance5.gif""style=""height:400px;""></stim_listB>",is dancing with,
null,"<div style=""font-size:60px;"">+</div>",,html-keyboard-response,176,805541,0.0-15.0-0.12,91696,List1B,white,woman,,,,null,,,,
null,"<img src=""stim_listB/dance1.gif""style=""height:400px;""></stim_listB>",,html-keyboard-response,177,807555,0.0-15.0-1.12,91696,List1B,white,woman,,,,null,,,,
null,is dancing with,,html-keyboard-response,178,809557,0.0-15.0-2.12,91696,List1B,white,woman,,,,null,,,,
5864,,,survey-text,179,815422,0.0-15.0-3.12,91696,List1B,white,woman,,,,,"{""Q0"":""fred is dancing with kate""}","<img src=""stim_listB/dance1.gif""style=""height:400px;""></stim_listB>",is dancing with,
null,"<div style=""font-size:60px;"">+</div>",,html-keyboard-response,180,815924,0.0-15.0-0.13,91696,List1B,white,woman,,,,null,,,,
null,"<img src=""stim_listB/fight7.gif""style=""height:400px;""></stim_listB>",,html-keyboard-response,181,817926,0.0-15.0-1.13,91696,List1B,white,woman,,,,null,,,,
null,is fighting,,html-keyboard-response,182,819931,0.0-15.0-2.13,91696,List1B,white,woman,,,,null,,,,
4549,,,survey-text,183,824482,0.0-15.0-3.13,91696,List1B,white,woman,,,,,"{""Q0"":""kate is fighting jane""}","<img src=""stim_listB/fight7.gif""style=""height:400px;""></stim_listB>",is fighting,
null,"<div style=""font-size:60px;"">+</div>",,html-keyboard-response,184,824985,0.0-15.0-0.14,91696,List1B,white,woman,,,,null,,,,
null,"<img src=""stim_listB/shout5.gif""style=""height:400px;""></stim_listB>",,html-keyboard-response,185,826987,0.0-15.0-1.14,91696,List1B,white,woman,,,,null,,,,
null,is shouting at,,html-keyboard-response,186,828991,0.0-15.0-2.14,91696,List1B,white,woman,,,,null,,,,
20113,,,survey-text,187,849106,0.0-15.0-3.14,91696,List1B,white,woman,,,,,"{""Q0"":""luke is shouting at fred""}","<img src=""stim_listB/shout5.gif""style=""height:400px;""></stim_listB>",is shouting at,
null,"<div style=""font-size:60px;"">+</div>",,html-keyboard-response,188,849611,0.0-15.0-0.15,91696,List1B,white,woman,,,,null,,,,
null,"<img src=""stim_listB/fight3.gif""style=""height:400px;""></stim_listB>",,html-keyboard-response,189,851616,0.0-15.0-1.15,91696,List1B,white,woman,,,,null,,,,
null,is fighting,,html-keyboard-response,190,853621,0.0-15.0-2.15,91696,List1B,white,woman,,,,null,,,,
3890,,,survey-text,191,857513,0.0-15.0-3.15,91696,List1B,white,woman,,,,,"{""Q0"":""jane is fighting dave""}","<img src=""stim_listB/fight3.gif""style=""height:400px;""></stim_listB>",is fighting,
null,"<div style=""font-size:60px;"">+</div>",,html-keyboard-response,192,858017,0.0-15.0-0.16,91696,List1B,white,woman,,,,null,,,,
null,"<img src=""stim_listB/dance2.gif""style=""height:400px;""></stim_listB>",,html-keyboard-response,193,860022,0.0-15.0-1.16,91696,List1B,white,woman,,,,null,,,,
null,are dancing with each other,,html-keyboard-response,194,862022,0.0-15.0-2.16,91696,List1B,white,woman,,,,null,,,,
13253,,,survey-text,195,875277,0.0-15.0-3.16,91696,List1B,white,woman,,,,,"{""Q0"":""jane and dave are dancing with each other""}","<img src=""stim_listB/dance2.gif""style=""height:400px;""></stim_listB>",are dancing with each other,
null,"<div style=""font-size:60px;"">+</div>",,html-keyboard-response,196,875779,0.0-15.0-0.17,91696,List1B,white,woman,,,,null,,,,
null,"<img src=""stim_listB/flirt8.gif""style=""height:400px;""></stim_listB>",,html-keyboard-response,197,877785,0.0-15.0-1.17,91696,List1B,white,woman,,,,null,,,,
null,are flirting with each other,,html-keyboard-response,198,879786,0.0-15.0-2.17,91696,List1B,white,woman,,,,null,,,,
9787,,,survey-text,199,889575,0.0-15.0-3.17,91696,List1B,white,woman,,,,,"{""Q0"":""ruth and beth are flirting with each other""}","<img src=""stim_listB/flirt8.gif""style=""height:400px;""></stim_listB>",are flirting with each other,
null,"<div style=""font-size:60px;"">+</div>",,html-keyboard-response,200,890076,0.0-15.0-0.18,91696,List1B,white,woman,,,,null,,,,
null,"<img src=""stim_listB/shout8.gif""style=""height:400px;""></stim_listB>",,html-keyboard-response,201,892081,0.0-15.0-1.18,91696,List1B,white,woman,,,,null,,,,
null,are shouting at each other,,html-keyboard-response,202,894087,0.0-15.0-2.18,91696,List1B,white,woman,,,,null,,,,
6555,,,survey-text,203,900643,0.0-15.0-3.18,91696,List1B,white,woman,,,,,"{""Q0"":""kate and jane are shouting at each other""}","<img src=""stim_listB/shout8.gif""style=""height:400px;""></stim_listB>",are shouting at each other,
null,"<div style=""font-size:60px;"">+</div>",,html-keyboard-response,204,901145,0.0-15.0-0.19,91696,List1B,white,woman,,,,null,,,,
null,"<img src=""stim_listB/argue1.gif""style=""height:400px;""></stim_listB>",,html-keyboard-response,205,903151,0.0-15.0-1.19,91696,List1B,white,woman,,,,null,,,,
null,is arguing with,,html-keyboard-response,206,905155,0.0-15.0-2.19,91696,List1B,white,woman,,,,null,,,,
7678,,,survey-text,207,912834,0.0-15.0-3.19,91696,List1B,white,woman,,,,,"{""Q0"":""beth is arguing with mike""}","<img src=""stim_listB/argue1.gif""style=""height:400px;""></stim_listB>",is arguing with,
2747,"<img src='img/portrait_matrix_list1.jpg' style='width:900px;height:500px;''></img><p>If you have memorised all the portraits and names and are ready to start, press Continue.</p><p><strong>Please note: Your memory of these faces will be tested 4 times during this experiment.</strong></p>",0,html-button-response,208,915584,0.0-16.0-0.0,91696,List1B,white,woman,,,,,,,,
1985,"<img src=""portrait/BW2.jpg""style=""height:400px;""></img>",2,html-button-response,209,918579,0.0-16.0-1.0,91696,List1B,white,woman,,TRUE,2,,,,,
null,CORRECT,,html-keyboard-response,210,920086,0.0-16.0-2.0-0.0,91696,List1B,white,woman,,,,null,,,,
1952,"<img src=""portrait/WM2.jpg""style=""height:400px;""></img>",7,html-button-response,211,922041,0.0-16.0-4.0,91696,List1B,white,woman,,TRUE,7,,,,,
null,CORRECT,,html-keyboard-response,212,923546,0.0-16.0-5.0-0.0,91696,List1B,white,woman,,,,null,,,,
3517,"<img src=""portrait/BW1.jpg""style=""height:400px;""></img>",0,html-button-response,213,927065,0.0-16.0-7.0,91696,List1B,white,woman,,TRUE,0,,,,,
null,CORRECT,,html-keyboard-response,214,928573,0.0-16.0-8.0-0.0,91696,List1B,white,woman,,,,null,,,,
2487,"<img src=""portrait/WW1.jpg""style=""height:400px;""></img>",1,html-button-response,215,931065,0.0-16.0-10.0,91696,List1B,white,woman,,TRUE,1,,,,,
null,CORRECT,,html-keyboard-response,216,932570,0.0-16.0-11.0-0.0,91696,List1B,white,woman,,,,null,,,,
1789,"<img src=""portrait/WM1.jpg""style=""height:400px;""></img>",6,html-button-response,217,934369,0.0-16.0-13.0,91696,List1B,white,woman,,TRUE,6,,,,,
null,CORRECT,,html-keyboard-response,218,935881,0.0-16.0-14.0-0.0,91696,List1B,white,woman,,,,null,,,,
1670,"<img src=""portrait/WW2.jpg""style=""height:400px;""></img>",3,html-button-response,219,937562,0.0-16.0-16.0,91696,List1B,white,woman,,TRUE,3,,,,,
null,CORRECT,,html-keyboard-response,220,939065,0.0-16.0-17.0-0.0,91696,List1B,white,woman,,,,null,,,,
1916,"<img src=""portrait/BM2.jpg""style=""height:400px;""></img>",5,html-button-response,221,940985,0.0-16.0-19.0,91696,List1B,white,woman,,TRUE,5,,,,,
null,CORRECT,,html-keyboard-response,222,942491,0.0-16.0-20.0-0.0,91696,List1B,white,woman,,,,null,,,,
1601,"<img src=""portrait/BM1.jpg""style=""height:400px;""></img>",4,html-button-response,223,944095,0.0-16.0-22.0,91696,List1B,white,woman,,TRUE,4,,,,,
null,CORRECT,,html-keyboard-response,224,945598,0.0-16.0-23.0-0.0,91696,List1B,white,woman,,,,null,,,,
1345,<p>You got 8 out of 8 right first time. Press Continue.</p>,0,html-button-response,225,946948,0.0-16.0-25.0,91696,List1B,white,woman,,,,,,,,
null,"<div style=""font-size:60px;"">+</div>",,html-keyboard-response,226,948457,0.0-17.0-0.0,91696,List1B,white,woman,,,,null,,,,
null,"<img src=""stim_listB/kiss2.gif""style=""height:400px;""></stim_listB>",,html-keyboard-response,227,950464,0.0-17.0-1.0,91696,List1B,white,woman,,,,null,,,,
null,are kissing each other,,html-keyboard-response,228,952467,0.0-17.0-2.0,91696,List1B,white,woman,,,,null,,,,
9336,,,survey-text,229,961804,0.0-17.0-3.0,91696,List1B,white,woman,,,,,"{""Q0"":""mike and kate are kissing each other""}","<img src=""stim_listB/kiss2.gif""style=""height:400px;""></stim_listB>",are kissing each other,
null,"<div style=""font-size:60px;"">+</div>",,html-keyboard-response,230,962311,0.0-17.0-0.1,91696,List1B,white,woman,,,,null,,,,
null,"<img src=""stim_listB/kiss5.gif""style=""height:400px;""></stim_listB>",,html-keyboard-response,231,964316,0.0-17.0-1.1,91696,List1B,white,woman,,,,null,,,,
null,is kissing,,html-keyboard-response,232,966317,0.0-17.0-2.1,91696,List1B,white,woman,,,,null,,,,
4427,,,survey-text,233,970745,0.0-17.0-3.1,91696,List1B,white,woman,,,,,"{""Q0"":""fred is kissing luke""}","<img src=""stim_listB/kiss5.gif""style=""height:400px;""></stim_listB>",is kissing,
null,"<div style=""font-size:60px;"">+</div>",,html-keyboard-response,234,971246,0.0-17.0-0.2,91696,List1B,white,woman,,,,null,,,,
null,"<img src=""stim_listB/dance8.gif""style=""height:400px;""></stim_listB>",,html-keyboard-response,235,973251,0.0-17.0-1.2,91696,List1B,white,woman,,,,null,,,,
null,are dancing with each other,,html-keyboard-response,236,975254,0.0-17.0-2.2,91696,List1B,white,woman,,,,null,,,,
13722,,,survey-text,237,988977,0.0-17.0-3.2,91696,List1B,white,woman,,,,,"{""Q0"":""ruth and kate are dancing with each other""}","<img src=""stim_listB/dance8.gif""style=""height:400px;""></stim_listB>",are dancing with each other,
null,"<div style=""font-size:60px;"">+</div>",,html-keyboard-response,238,989479,0.0-17.0-0.3,91696,List1B,white,woman,,,,null,,,,
null,"<img src=""stim_listB/touch5.gif""style=""height:400px;""></stim_listB>",,html-keyboard-response,239,991486,0.0-17.0-1.3,91696,List1B,white,woman,,,,null,,,,
null,is touching,,html-keyboard-response,240,993491,0.0-17.0-2.3,91696,List1B,white,woman,,,,null,,,,
5812,,,survey-text,241,999305,0.0-17.0-3.3,91696,List1B,white,woman,,,,,"{""Q0"":""dave is touching mike""}","<img src=""stim_listB/touch5.gif""style=""height:400px;""></stim_listB>",is touching,
null,"<div style=""font-size:60px;"">+</div>",,html-keyboard-response,242,999809,0.0-17.0-0.4,91696,List1B,white,woman,,,,null,,,,
null,"<img src=""stim_listB/play5.gif""style=""height:400px;""></stim_listB>",,html-keyboard-response,243,1001813,0.0-17.0-1.4,91696,List1B,white,woman,,,,null,,,,
null,is playing with,,html-keyboard-response,244,1003813,0.0-17.0-2.4,91696,List1B,white,woman,,,,null,,,,
6392,,,survey-text,245,1010206,0.0-17.0-3.4,91696,List1B,white,woman,,,,,"{""Q0"":""mike is playing with dave""}","<img src=""stim_listB/play5.gif""style=""height:400px;""></stim_listB>",is playing with,
null,"<div style=""font-size:60px;"">+</div>",,html-keyboard-response,246,1010709,0.0-17.0-0.5,91696,List1B,white,woman,,,,null,,,,
null,"<img src=""stim_listB/shout4.gif""style=""height:400px;""></stim_listB>",,html-keyboard-response,247,1012722,0.0-17.0-1.5,91696,List1B,white,woman,,,,null,,,,
null,are shouting at each other,,html-keyboard-response,248,1014728,0.0-17.0-2.5,91696,List1B,white,woman,,,,null,,,,
6203,,,survey-text,249,1020932,0.0-17.0-3.5,91696,List1B,white,woman,,,,,"{""Q0"":""dave and jane are shouting at each other""}","<img src=""stim_listB/shout4.gif""style=""height:400px;""></stim_listB>",are shouting at each other,
null,"<div style=""font-size:60px;"">+</div>",,html-keyboard-response,250,1021439,0.0-17.0-0.6,91696,List1B,white,woman,,,,null,,,,
null,"<img src=""stim_listB/talk7.gif""style=""height:400px;""></stim_listB>",,html-keyboard-response,251,1023447,0.0-17.0-1.6,91696,List1B,white,woman,,,,null,,,,
null,is talking to,,html-keyboard-response,252,1025455,0.0-17.0-2.6,91696,List1B,white,woman,,,,null,,,,
6231,,,survey-text,253,1031691,0.0-17.0-3.6,91696,List1B,white,woman,,,,,"{""Q0"":""beth is talking to jane""}","<img src=""stim_listB/talk7.gif""style=""height:400px;""></stim_listB>",is talking to,
null,"<div style=""font-size:60px;"">+</div>",,html-keyboard-response,254,1032198,0.0-17.0-0.7,91696,List1B,white,woman,,,,null,,,,
null,"<img src=""stim_listB/touch2.gif""style=""height:400px;""></stim_listB>",,html-keyboard-response,255,1034203,0.0-17.0-1.7,91696,List1B,white,woman,,,,null,,,,
null,are touching each other,,html-keyboard-response,256,1036207,0.0-17.0-2.7,91696,List1B,white,woman,,,,null,,,,
5406,,,survey-text,257,1041615,0.0-17.0-3.7,91696,List1B,white,woman,,,,,"{""Q0"":""fred and beth are touching each other""}","<img src=""stim_listB/touch2.gif""style=""height:400px;""></stim_listB>",are touching each other,
null,"<div style=""font-size:60px;"">+</div>",,html-keyboard-response,258,1042119,0.0-17.0-0.8,91696,List1B,white,woman,,,,null,,,,
null,"<img src=""stim_listB/shout1.gif""style=""height:400px;""></stim_listB>",,html-keyboard-response,259,1044122,0.0-17.0-1.8,91696,List1B,white,woman,,,,null,,,,
null,is shouting at,,html-keyboard-response,260,1046124,0.0-17.0-2.8,91696,List1B,white,woman,,,,null,,,,
8078,,,survey-text,261,1054204,0.0-17.0-3.8,91696,List1B,white,woman,,,,,"{""Q0"":""fred is shouting at beth""}","<img src=""stim_listB/shout1.gif""style=""height:400px;""></stim_listB>",is shouting at,
null,"<div style=""font-size:60px;"">+</div>",,html-keyboard-response,262,1054705,0.0-17.0-0.9,91696,List1B,white,woman,,,,null,,,,
null,"<img src=""stim_listB/touch1.gif""style=""height:400px;""></stim_listB>",,html-keyboard-response,263,1056714,0.0-17.0-1.9,91696,List1B,white,woman,,,,null,,,,
null,is touching,,html-keyboard-response,264,1058716,0.0-17.0-2.9,91696,List1B,white,woman,,,,null,,,,
4526,,,survey-text,265,1063243,0.0-17.0-3.9,91696,List1B,white,woman,,,,,"{""Q0"":""kate is touching mike""}","<img src=""stim_listB/touch1.gif""style=""height:400px;""></stim_listB>",is touching,
null,"<div style=""font-size:60px;"">+</div>",,html-keyboard-response,266,1063747,0.0-17.0-0.10,91696,List1B,white,woman,,,,null,,,,
null,"<img src=""stim_listB/fight5.gif""style=""height:400px;""></stim_listB>",,html-keyboard-response,267,1065748,0.0-17.0-1.10,91696,List1B,white,woman,,,,null,,,,
null,is fighting,,html-keyboard-response,268,1067752,0.0-17.0-2.10,91696,List1B,white,woman,,,,null,,,,
4180,,,survey-text,269,1071934,0.0-17.0-3.10,91696,List1B,white,woman,,,,,"{""Q0"":""dave is fighting mike""}","<img src=""stim_listB/fight5.gif""style=""height:400px;""></stim_listB>",is fighting,
null,"<div style=""font-size:60px;"">+</div>",,html-keyboard-response,270,1072437,0.0-17.0-0.11,91696,List1B,white,woman,,,,null,,,,
null,"<img src=""stim_listB/shout7.gif""style=""height:400px;""></stim_listB>",,html-keyboard-response,271,1074440,0.0-17.0-1.11,91696,List1B,white,woman,,,,null,,,,
null,is shouting at,,html-keyboard-response,272,1076445,0.0-17.0-2.11,91696,List1B,white,woman,,,,null,,,,
7235,,,survey-text,273,1083682,0.0-17.0-3.11,91696,List1B,white,woman,,,,,"{""Q0"":""beth is shouting at ruth""}","<img src=""stim_listB/shout7.gif""style=""height:400px;""></stim_listB>",is shouting at,
null,"<div style=""font-size:60px;"">+</div>",,html-keyboard-response,274,1084190,0.0-17.0-0.12,91696,List1B,white,woman,,,,null,,,,
null,"<img src=""stim_listB/marry8.gif""style=""height:400px;""></stim_listB>",,html-keyboard-response,275,1086195,0.0-17.0-1.12,91696,List1B,white,woman,,,,null,,,,
null,are marrying each other,,html-keyboard-response,276,1088198,0.0-17.0-2.12,91696,List1B,white,woman,,,,null,,,,
5415,,,survey-text,277,1093615,0.0-17.0-3.12,91696,List1B,white,woman,,,,,"{""Q0"":""jane and beth are marrying each other""}","<img src=""stim_listB/marry8.gif""style=""height:400px;""></stim_listB>",are marrying each other,
null,"<div style=""font-size:60px;"">+</div>",,html-keyboard-response,278,1094120,0.0-17.0-0.13,91696,List1B,white,woman,,,,null,,,,
null,"<img src=""stim_listB/kiss4.gif""style=""height:400px;""></stim_listB>",,html-keyboard-response,279,1096127,0.0-17.0-1.13,91696,List1B,white,woman,,,,null,,,,
null,are kissing each other,,html-keyboard-response,280,1098130,0.0-17.0-2.13,91696,List1B,white,woman,,,,null,,,,
5286,,,survey-text,281,1103417,0.0-17.0-3.13,91696,List1B,white,woman,,,,,"{""Q0"":""dave and jane are kissing each other""}","<img src=""stim_listB/kiss4.gif""style=""height:400px;""></stim_listB>",are kissing each other,
null,"<div style=""font-size:60px;"">+</div>",,html-keyboard-response,282,1103918,0.0-17.0-0.14,91696,List1B,white,woman,,,,null,,,,
null,"<img src=""stim_listB/play3.gif""style=""height:400px;""></stim_listB>",,html-keyboard-response,283,1105924,0.0-17.0-1.14,91696,List1B,white,woman,,,,null,,,,
null,is playing with,,html-keyboard-response,284,1107928,0.0-17.0-2.14,91696,List1B,white,woman,,,,null,,,,
4066,,,survey-text,285,1111995,0.0-17.0-3.14,91696,List1B,white,woman,,,,,"{""Q0"":""dave is playing with jane""}","<img src=""stim_listB/play3.gif""style=""height:400px;""></stim_listB>",is playing with,
null,"<div style=""font-size:60px;"">+</div>",,html-keyboard-response,286,1112499,0.0-17.0-0.15,91696,List1B,white,woman,,,,null,,,,
null,"<img src=""stim_listB/talk6.gif""style=""height:400px;""></stim_listB>",,html-keyboard-response,287,1114500,0.0-17.0-1.15,91696,List1B,white,woman,,,,null,,,,
null,are talking to each other,,html-keyboard-response,288,1116502,0.0-17.0-2.15,91696,List1B,white,woman,,,,null,,,,
6647,,,survey-text,289,1123152,0.0-17.0-3.15,91696,List1B,white,woman,,,,,"{""Q0"":""luke and mike are talking to each other""}","<img src=""stim_listB/talk6.gif""style=""height:400px;""></stim_listB>",are talking to each other,
null,"<div style=""font-size:60px;"">+</div>",,html-keyboard-response,290,1123656,0.0-17.0-0.16,91696,List1B,white,woman,,,,null,,,,
null,"<img src=""stim_listB/flirt4.gif""style=""height:400px;""></stim_listB>",,html-keyboard-response,291,1125661,0.0-17.0-1.16,91696,List1B,white,woman,,,,null,,,,
null,are flirting with each other,,html-keyboard-response,292,1127666,0.0-17.0-2.16,91696,List1B,white,woman,,,,null,,,,
7242,,,survey-text,293,1134909,0.0-17.0-3.16,91696,List1B,white,woman,,,,,"{""Q0"":""ruth and dave are flirting with each other""}","<img src=""stim_listB/flirt4.gif""style=""height:400px;""></stim_listB>",are flirting with each other,
null,"<div style=""font-size:60px;"">+</div>",,html-keyboard-response,294,1135413,0.0-17.0-0.17,91696,List1B,white,woman,,,,null,,,,
null,"<img src=""stim_listB/touch7.gif""style=""height:400px;""></stim_listB>",,html-keyboard-response,295,1137416,0.0-17.0-1.17,91696,List1B,white,woman,,,,null,,,,
null,is touching,,html-keyboard-response,296,1139416,0.0-17.0-2.17,91696,List1B,white,woman,,,,null,,,,
3644,,,survey-text,297,1143062,0.0-17.0-3.17,91696,List1B,white,woman,,,,,"{""Q0"":""jane is touching kate""}","<img src=""stim_listB/touch7.gif""style=""height:400px;""></stim_listB>",is touching,
null,"<div style=""font-size:60px;"">+</div>",,html-keyboard-response,298,1143568,0.0-17.0-0.18,91696,List1B,white,woman,,,,null,,,,
null,"<img src=""stim_listB/shout6.gif""style=""height:400px;""></stim_listB>",,html-keyboard-response,299,1145574,0.0-17.0-1.18,91696,List1B,white,woman,,,,null,,,,
null,are shouting at each other,,html-keyboard-response,300,1147576,0.0-17.0-2.18,91696,List1B,white,woman,,,,null,,,,
7272,,,survey-text,301,1154850,0.0-17.0-3.18,91696,List1B,white,woman,,,,,"{""Q0"":""dave and mike are shouting at each other""}","<img src=""stim_listB/shout6.gif""style=""height:400px;""></stim_listB>",are shouting at each other,
null,"<div style=""font-size:60px;"">+</div>",,html-keyboard-response,302,1155353,0.0-17.0-0.19,91696,List1B,white,woman,,,,null,,,,
null,"<img src=""stim_listB/flirt6.gif""style=""height:400px;""></stim_listB>",,html-keyboard-response,303,1157354,0.0-17.0-1.19,91696,List1B,white,woman,,,,null,,,,
null,are flirting with each other,,html-keyboard-response,304,1159358,0.0-17.0-2.19,91696,List1B,white,woman,,,,null,,,,
7348,,,survey-text,305,1166707,0.0-17.0-3.19,91696,List1B,white,woman,,,,,"{""Q0"":""luke and mike are flirting with each other.""}","<img src=""stim_listB/flirt6.gif""style=""height:400px;""></stim_listB>",are flirting with each other,
2119,"<img src='img/portrait_matrix_list1.jpg' style='width:900px;height:500px;''></img><p>If you have memorised all the portraits and names and are ready to start, press Continue.</p><p><strong>Please note: Your memory of these faces will be tested 4 times during this experiment.</strong></p>",0,html-button-response,306,1168829,0.0-18.0-0.0,91696,List1B,white,woman,,,,,,,,
2148,"<img src=""portrait/WM2.jpg""style=""height:400px;""></img>",7,html-button-response,307,1171988,0.0-18.0-1.0,91696,List1B,white,woman,,TRUE,7,,,,,
null,CORRECT,,html-keyboard-response,308,1173491,0.0-18.0-2.0-0.0,91696,List1B,white,woman,,,,null,,,,
1661,"<img src=""portrait/BW2.jpg""style=""height:400px;""></img>",2,html-button-response,309,1175157,0.0-18.0-4.0,91696,List1B,white,woman,,TRUE,2,,,,,
null,CORRECT,,html-keyboard-response,310,1176663,0.0-18.0-5.0-0.0,91696,List1B,white,woman,,,,null,,,,
2381,"<img src=""portrait/BM2.jpg""style=""height:400px;""></img>",5,html-button-response,311,1179047,0.0-18.0-7.0,91696,List1B,white,woman,,TRUE,5,,,,,
null,CORRECT,,html-keyboard-response,312,1180554,0.0-18.0-8.0-0.0,91696,List1B,white,woman,,,,null,,,,
1866,"<img src=""portrait/BW1.jpg""style=""height:400px;""></img>",0,html-button-response,313,1182423,0.0-18.0-10.0,91696,List1B,white,woman,,TRUE,0,,,,,
null,CORRECT,,html-keyboard-response,314,1183932,0.0-18.0-11.0-0.0,91696,List1B,white,woman,,,,null,,,,
1647,"<img src=""portrait/WM1.jpg""style=""height:400px;""></img>",6,html-button-response,315,1185581,0.0-18.0-13.0,91696,List1B,white,woman,,TRUE,6,,,,,
null,CORRECT,,html-keyboard-response,316,1187089,0.0-18.0-14.0-0.0,91696,List1B,white,woman,,,,null,,,,
1392,"<img src=""portrait/BM1.jpg""style=""height:400px;""></img>",4,html-button-response,317,1188484,0.0-18.0-16.0,91696,List1B,white,woman,,TRUE,4,,,,,
null,CORRECT,,html-keyboard-response,318,1189990,0.0-18.0-17.0-0.0,91696,List1B,white,woman,,,,null,,,,
1435,"<img src=""portrait/WW2.jpg""style=""height:400px;""></img>",3,html-button-response,319,1191427,0.0-18.0-19.0,91696,List1B,white,woman,,TRUE,3,,,,,
null,CORRECT,,html-keyboard-response,320,1192931,0.0-18.0-20.0-0.0,91696,List1B,white,woman,,,,null,,,,
2524,"<img src=""portrait/WW1.jpg""style=""height:400px;""></img>",1,html-button-response,321,1195457,0.0-18.0-22.0,91696,List1B,white,woman,,TRUE,1,,,,,
null,CORRECT,,html-keyboard-response,322,1196964,0.0-18.0-23.0-0.0,91696,List1B,white,woman,,,,null,,,,
1359,<p>You got 8 out of 8 right first time. Press Continue.</p>,0,html-button-response,323,1198326,0.0-18.0-25.0,91696,List1B,white,woman,,,,,,,,
null,"<div style=""font-size:60px;"">+</div>",,html-keyboard-response,324,1199838,0.0-19.0-0.0,91696,List1B,white,woman,,,,null,,,,
null,"<img src=""stim_listB/argue3.gif""style=""height:400px;""></stim_listB>",,html-keyboard-response,325,1201840,0.0-19.0-1.0,91696,List1B,white,woman,,,,null,,,,
null,is arguing with,,html-keyboard-response,326,1203848,0.0-19.0-2.0,91696,List1B,white,woman,,,,null,,,,
5045,,,survey-text,327,1208895,0.0-19.0-3.0,91696,List1B,white,woman,,,,,"{""Q0"":""dave is arguing with ruth""}","<img src=""stim_listB/argue3.gif""style=""height:400px;""></stim_listB>",is arguing with,
null,"<div style=""font-size:60px;"">+</div>",,html-keyboard-response,328,1209398,0.0-19.0-0.1,91696,List1B,white,woman,,,,null,,,,
null,"<img src=""stim_listB/argue5.gif""style=""height:400px;""></stim_listB>",,html-keyboard-response,329,1211401,0.0-19.0-1.1,91696,List1B,white,woman,,,,null,,,,
null,is arguing with,,html-keyboard-response,330,1213403,0.0-19.0-2.1,91696,List1B,white,woman,,,,null,,,,
4787,,,survey-text,331,1218193,0.0-19.0-3.1,91696,List1B,white,woman,,,,,"{""Q0"":""luke is arguing with mike""}","<img src=""stim_listB/argue5.gif""style=""height:400px;""></stim_listB>",is arguing with,
null,"<div style=""font-size:60px;"">+</div>",,html-keyboard-response,332,1218696,0.0-19.0-0.2,91696,List1B,white,woman,,,,null,,,,
null,"<img src=""stim_listB/touch6.gif""style=""height:400px;""></stim_listB>",,html-keyboard-response,333,1220703,0.0-19.0-1.2,91696,List1B,white,woman,,,,null,,,,
null,are touching each other,,html-keyboard-response,334,1222708,0.0-19.0-2.2,91696,List1B,white,woman,,,,null,,,,
6318,,,survey-text,335,1229029,0.0-19.0-3.2,91696,List1B,white,woman,,,,,"{""Q0"":""fred and luke are touching each other""}","<img src=""stim_listB/touch6.gif""style=""height:400px;""></stim_listB>",are touching each other,
null,"<div style=""font-size:60px;"">+</div>",,html-keyboard-response,336,1229537,0.0-19.0-0.3,91696,List1B,white,woman,,,,null,,,,
null,"<img src=""stim_listB/touch3.gif""style=""height:400px;""></stim_listB>",,html-keyboard-response,337,1231543,0.0-19.0-1.3,91696,List1B,white,woman,,,,null,,,,
null,is touching,,html-keyboard-response,338,1233548,0.0-19.0-2.3,91696,List1B,white,woman,,,,null,,,,
4361,,,survey-text,339,1237910,0.0-19.0-3.3,91696,List1B,white,woman,,,,,"{""Q0"":""jane is touching dave""}","<img src=""stim_listB/touch3.gif""style=""height:400px;""></stim_listB>",is touching,
null,"<div style=""font-size:60px;"">+</div>",,html-keyboard-response,340,1238413,0.0-19.0-0.4,91696,List1B,white,woman,,,,null,,,,
null,"<img src=""stim_listB/fight2.gif""style=""height:400px;""></stim_listB>",,html-keyboard-response,341,1240419,0.0-19.0-1.4,91696,List1B,white,woman,,,,null,,,,
null,are fighting each other,,html-keyboard-response,342,1242423,0.0-19.0-2.4,91696,List1B,white,woman,,,,null,,,,
6067,,,survey-text,343,1248493,0.0-19.0-3.4,91696,List1B,white,woman,,,,,"{""Q0"":""beth and fred are fighting with each other""}","<img src=""stim_listB/fight2.gif""style=""height:400px;""></stim_listB>",are fighting each other,
null,"<div style=""font-size:60px;"">+</div>",,html-keyboard-response,344,1248997,0.0-19.0-0.5,91696,List1B,white,woman,,,,null,,,,
null,"<img src=""stim_listB/play1.gif""style=""height:400px;""></stim_listB>",,html-keyboard-response,345,1250999,0.0-19.0-1.5,91696,List1B,white,woman,,,,null,,,,
null,is playing with,,html-keyboard-response,346,1253002,0.0-19.0-2.5,91696,List1B,white,woman,,,,null,,,,
5829,,,survey-text,347,1258832,0.0-19.0-3.5,91696,List1B,white,woman,,,,,"{""Q0"":""mike is playing with kate""}","<img src=""stim_listB/play1.gif""style=""height:400px;""></stim_listB>",is playing with,
null,"<div style=""font-size:60px;"">+</div>",,html-keyboard-response,348,1259335,0.0-19.0-0.6,91696,List1B,white,woman,,,,null,,,,
null,"<img src=""stim_listB/marry1.gif""style=""height:400px;""></stim_listB>",,html-keyboard-response,349,1261341,0.0-19.0-1.6,91696,List1B,white,woman,,,,null,,,,
null,is marrying,,html-keyboard-response,350,1263346,0.0-19.0-2.6,91696,List1B,white,woman,,,,null,,,,
5073,,,survey-text,351,1268420,0.0-19.0-3.6,91696,List1B,white,woman,,,,,"{""Q0"":""beth is marrying mike""}","<img src=""stim_listB/marry1.gif""style=""height:400px;""></stim_listB>",is marrying,
null,"<div style=""font-size:60px;"">+</div>",,html-keyboard-response,352,1268923,0.0-19.0-0.7,91696,List1B,white,woman,,,,null,,,,
null,"<img src=""stim_listB/kiss1.gif""style=""height:400px;""></stim_listB>",,html-keyboard-response,353,1270928,0.0-19.0-1.7,91696,List1B,white,woman,,,,null,,,,
null,is kissing,,html-keyboard-response,354,1272930,0.0-19.0-2.7,91696,List1B,white,woman,,,,null,,,,
3958,,,survey-text,355,1276891,0.0-19.0-3.7,91696,List1B,white,woman,,,,,"{""Q0"":""beth is kissing fred""}","<img src=""stim_listB/kiss1.gif""style=""height:400px;""></stim_listB>",is kissing,
null,"<div style=""font-size:60px;"">+</div>",,html-keyboard-response,356,1277394,0.0-19.0-0.8,91696,List1B,white,woman,,,,null,,,,
null,"<img src=""stim_listB/play6.gif""style=""height:400px;""></stim_listB>",,html-keyboard-response,357,1279397,0.0-19.0-1.8,91696,List1B,white,woman,,,,null,,,,
null,are playing with each other,,html-keyboard-response,358,1281398,0.0-19.0-2.8,91696,List1B,white,woman,,,,null,,,,
9016,,,survey-text,359,1290423,0.0-19.0-3.8,91696,List1B,white,woman,,,,,"{""Q0"":""fred and luke are playing with each other""}","<img src=""stim_listB/play6.gif""style=""height:400px;""></stim_listB>",are playing with each other,
null,"<div style=""font-size:60px;"">+</div>",,html-keyboard-response,360,1290925,0.0-19.0-0.9,91696,List1B,white,woman,,,,null,,,,
null,"<img src=""stim_listB/play8.gif""style=""height:400px;""></stim_listB>",,html-keyboard-response,361,1292931,0.0-19.0-1.9,91696,List1B,white,woman,,,,null,,,,
null,are playing with each other,,html-keyboard-response,362,1294935,0.0-19.0-2.9,91696,List1B,white,woman,,,,null,,,,
7288,,,survey-text,363,1302224,0.0-19.0-3.9,91696,List1B,white,woman,,,,,"{""Q0"":""beth and ruth are playing with each other""}","<img src=""stim_listB/play8.gif""style=""height:400px;""></stim_listB>",are playing with each other,
null,"<div style=""font-size:60px;"">+</div>",,html-keyboard-response,364,1302728,0.0-19.0-0.10,91696,List1B,white,woman,,,,null,,,,
null,"<img src=""stim_listB/marry7.gif""style=""height:400px;""></stim_listB>",,html-keyboard-response,365,1304734,0.0-19.0-1.10,91696,List1B,white,woman,,,,null,,,,
null,is marrying,,html-keyboard-response,366,1306740,0.0-19.0-2.10,91696,List1B,white,woman,,,,null,,,,
4594,,,survey-text,367,1311335,0.0-19.0-3.10,91696,List1B,white,woman,,,,,"{""Q0"":""kate is marrying ruth""}","<img src=""stim_listB/marry7.gif""style=""height:400px;""></stim_listB>",is marrying,
null,"<div style=""font-size:60px;"">+</div>",,html-keyboard-response,368,1311836,0.0-19.0-0.11,91696,List1B,white,woman,,,,null,,,,
null,"<img src=""stim_listB/dance4.gif""style=""height:400px;""></stim_listB>",,html-keyboard-response,369,1313843,0.0-19.0-1.11,91696,List1B,white,woman,,,,null,,,,
null,are dancing with each other,,html-keyboard-response,370,1315850,0.0-19.0-2.11,91696,List1B,white,woman,,,,null,,,,
12028,,,survey-text,371,1327880,0.0-19.0-3.11,91696,List1B,white,woman,,,,,"{""Q0"":""dave and ruth are dancing with each other""}","<img src=""stim_listB/dance4.gif""style=""height:400px;""></stim_listB>",are dancing with each other,
null,"<div style=""font-size:60px;"">+</div>",,html-keyboard-response,372,1328386,0.0-19.0-0.12,91696,List1B,white,woman,,,,null,,,,
null,"<img src=""stim_listB/fight8.gif""style=""height:400px;""></stim_listB>",,html-keyboard-response,373,1330395,0.0-19.0-1.12,91696,List1B,white,woman,,,,null,,,,
null,are fighting each other,,html-keyboard-response,374,1332398,0.0-19.0-2.12,91696,List1B,white,woman,,,,null,,,,
5439,,,survey-text,375,1337840,0.0-19.0-3.12,91696,List1B,white,woman,,,,,"{""Q0"":""ruth and beth are fighting each other""}","<img src=""stim_listB/fight8.gif""style=""height:400px;""></stim_listB>",are fighting each other,
null,"<div style=""font-size:60px;"">+</div>",,html-keyboard-response,376,1338342,0.0-19.0-0.13,91696,List1B,white,woman,,,,null,,,,
null,"<img src=""stim_listB/kiss3.gif""style=""height:400px;""></stim_listB>",,html-keyboard-response,377,1340346,0.0-19.0-1.13,91696,List1B,white,woman,,,,null,,,,
null,is kissing,,html-keyboard-response,378,1342348,0.0-19.0-2.13,91696,List1B,white,woman,,,,null,,,,
3443,,,survey-text,379,1345792,0.0-19.0-3.13,91696,List1B,white,woman,,,,,"{""Q0"":""ruth is kissing luke""}","<img src=""stim_listB/kiss3.gif""style=""height:400px;""></stim_listB>",is kissing,
null,"<div style=""font-size:60px;"">+</div>",,html-keyboard-response,380,1346296,0.0-19.0-0.14,91696,List1B,white,woman,,,,null,,,,
null,"<img src=""stim_listB/kiss8.gif""style=""height:400px;""></stim_listB>",,html-keyboard-response,381,1348298,0.0-19.0-1.14,91696,List1B,white,woman,,,,null,,,,
null,are kissing each other,,html-keyboard-response,382,1350301,0.0-19.0-2.14,91696,List1B,white,woman,,,,null,,,,
5297,,,survey-text,383,1355601,0.0-19.0-3.14,91696,List1B,white,woman,,,,,"{""Q0"":""jane and kate are kissing each other""}","<img src=""stim_listB/kiss8.gif""style=""height:400px;""></stim_listB>",are kissing each other,
null,"<div style=""font-size:60px;"">+</div>",,html-keyboard-response,384,1356106,0.0-19.0-0.15,91696,List1B,white,woman,,,,null,,,,
null,"<img src=""stim_listB/talk3.gif""style=""height:400px;""></stim_listB>",,html-keyboard-response,385,1358112,0.0-19.0-1.15,91696,List1B,white,woman,,,,null,,,,
null,is talking to,,html-keyboard-response,386,1360113,0.0-19.0-2.15,91696,List1B,white,woman,,,,null,,,,
4081,,,survey-text,387,1364196,0.0-19.0-3.15,91696,List1B,white,woman,,,,,"{""Q0"":""jane is talking to luke""}","<img src=""stim_listB/talk3.gif""style=""height:400px;""></stim_listB>",is talking to,
null,"<div style=""font-size:60px;"">+</div>",,html-keyboard-response,388,1364698,0.0-19.0-0.16,91696,List1B,white,woman,,,,null,,,,
null,"<img src=""stim_listB/play7.gif""style=""height:400px;""></stim_listB>",,html-keyboard-response,389,1366702,0.0-19.0-1.16,91696,List1B,white,woman,,,,null,,,,
null,is playing with,,html-keyboard-response,390,1368707,0.0-19.0-2.16,91696,List1B,white,woman,,,,null,,,,
4353,,,survey-text,391,1373060,0.0-19.0-3.16,91696,List1B,white,woman,,,,,"{""Q0"":""kate is playing with jane""}","<img src=""stim_listB/play7.gif""style=""height:400px;""></stim_listB>",is playing with,
null,"<div style=""font-size:60px;"">+</div>",,html-keyboard-response,392,1373562,0.0-19.0-0.17,91696,List1B,white,woman,,,,null,,,,
null,"<img src=""stim_listB/argue7.gif""style=""height:400px;""></stim_listB>",,html-keyboard-response,393,1375566,0.0-19.0-1.17,91696,List1B,white,woman,,,,null,,,,
null,is arguing with,,html-keyboard-response,394,1377569,0.0-19.0-2.17,91696,List1B,white,woman,,,,null,,,,
4605,,,survey-text,395,1382177,0.0-19.0-3.17,91696,List1B,white,woman,,,,,"{""Q0"":""kate is arguing with ruth""}","<img src=""stim_listB/argue7.gif""style=""height:400px;""></stim_listB>",is arguing with,
null,"<div style=""font-size:60px;"">+</div>",,html-keyboard-response,396,1382687,0.0-19.0-0.18,91696,List1B,white,woman,,,,null,,,,
null,"<img src=""stim_listB/talk8.gif""style=""height:400px;""></stim_listB>",,html-keyboard-response,397,1384695,0.0-19.0-1.18,91696,List1B,white,woman,,,,null,,,,
null,are talking to each other,,html-keyboard-response,398,1386699,0.0-19.0-2.18,91696,List1B,white,woman,,,,null,,,,
6572,,,survey-text,399,1393276,0.0-19.0-3.18,91696,List1B,white,woman,,,,,"{""Q0"":""kate and ruth are talking to each other""}","<img src=""stim_listB/talk8.gif""style=""height:400px;""></stim_listB>",are talking to each other,
null,"<div style=""font-size:60px;"">+</div>",,html-keyboard-response,400,1393783,0.0-19.0-0.19,91696,List1B,white,woman,,,,null,,,,
null,"<img src=""stim_listB/dance7.gif""style=""height:400px;""></stim_listB>",,html-keyboard-response,401,1395791,0.0-19.0-1.19,91696,List1B,white,woman,,,,null,,,,
null,is dancing with,,html-keyboard-response,402,1397796,0.0-19.0-2.19,91696,List1B,white,woman,,,,null,,,,
12027,,,survey-text,403,1409825,0.0-19.0-3.19,91696,List1B,white,woman,,,,,"{""Q0"":""beth is dancing with jane""}","<img src=""stim_listB/dance7.gif""style=""height:400px;""></stim_listB>",is dancing with,
1863,<p>Thank you for completing that task.</p><p>The final part of this session is a short questionnaire.</p><p>Press Continue.</p>,0,html-button-response,404,1411694,0.0-20.0,91696,List1B,white,woman,,,,,,,,
16796,,,survey-text,405,1429507,0.0-21.0,91696,List1B,white,woman,,,,,"{""Q0"":""33"",""Q1"":""English"",""Q2"":""English"",""Q3"":""USA"",""Q4"":""White"",""Q5"":""Female""}",,,demographics
5720,,,survey-likert,406,1435255,0.0-22.0,91696,List1B,white,woman,,,,,"{""Q0"":1}",,,likert_ESS
4584,,,survey-likert,407,1439842,0.0-23.0,91696,List1B,white,woman,,,,,"{""Q0"":0}",,,likert_NSSAL_Q1
5303,,,survey-likert,408,1445149,0.0-24.0,91696,List1B,white,woman,,,,,"{""Q0"":0}",,,likert_NSSAL_Q2
6246,,,survey-likert,409,1451398,0.0-25.0,91696,List1B,white,woman,,,,,"{""Q0"":4}",,,likert_CGRS_Q1
3158,,,survey-likert,410,1454560,0.0-26.0,91696,List1B,white,woman,,,,,"{""Q0"":4}",,,likert_CGRS_Q2
2506,,,survey-likert,411,1457069,0.0-27.0,91696,List1B,white,woman,,,,,"{""Q0"":4}",,,likert_CGRS_Q3
4103,,,survey-text,412,1461176,0.0-28.0,91696,List1B,white,woman,,,,,"{""Q0"":""ccc""}",,,worker_id
14092,,,external-html,413,1475579,0.0-29.0,91696,List1B,white,woman,debrief.html,,,,,,,
