rt,stimulus,button_pressed,trial_type,trial_index,time_elapsed,internal_node_id,subject,list,ppt_race,ppt_gender,url,first_guess,correct,key_press,responses,image_type,phrase_type,test_part
4029,Welcome to the experiment. Press Continue to begin.,0,html-button-response,0,4038,0.0-0.0,91976,List1A,black,man,,,,,,,,
36980,,,external-html,1,42350,0.0-1.0,91976,List1A,black,man,consent.html,,,,,,,
8545,"<p>On the next page, you will see portraits of 8 people and their names.</p><p>Your first task is to take a few minutes to memorise the names of these people.</p><p>You will have to recall their names during the rest of the experiment, so it is</p><p>essential that you try to memorise these people and their names as best as you can.</p><br><p><strong>You will then be tested on your memory of these names and portraits.</strong></p><br><p>The experiment will start after you have completed this memory test.</p><br><p>Ready?</p>",0,html-button-response,2,50901,0.0-2.0,91976,List1A,black,man,,,,,,,,
29661,"<img src='img/portrait_matrix_list1.jpg' style='width:900px;height:500px;''></img><p>If you have memorised all the portraits and names and are ready to start, press Continue.</p><p><strong>Please note: Your memory of these faces will be tested 4 times during this experiment.</strong></p>",0,html-button-response,3,81578,0.0-3.0-0.0,91976,List1A,black,man,,,,,,,,
2688,"<img src=""portrait/WM1.jpg""style=""height:400px;""></img>",6,html-button-response,4,85312,0.0-3.0-1.0,91976,List1A,black,man,,TRUE,6,,,,,
null,CORRECT,,html-keyboard-response,5,86829,0.0-3.0-2.0-0.0,91976,List1A,black,man,,,,null,,,,
2873,"<img src=""portrait/BM2.jpg""style=""height:400px;""></img>",5,html-button-response,6,89711,0.0-3.0-4.0,91976,List1A,black,man,,TRUE,5,,,,,
null,CORRECT,,html-keyboard-response,7,91218,0.0-3.0-5.0-0.0,91976,List1A,black,man,,,,null,,,,
1732,"<img src=""portrait/BM1.jpg""style=""height:400px;""></img>",4,html-button-response,8,92959,0.0-3.0-7.0,91976,List1A,black,man,,TRUE,4,,,,,
null,CORRECT,,html-keyboard-response,9,94464,0.0-3.0-8.0-0.0,91976,List1A,black,man,,,,null,,,,
2830,"<img src=""portrait/WW2.jpg""style=""height:400px;""></img>",3,html-button-response,10,97302,0.0-3.0-10.0,91976,List1A,black,man,,TRUE,3,,,,,
null,CORRECT,,html-keyboard-response,11,98808,0.0-3.0-11.0-0.0,91976,List1A,black,man,,,,null,,,,
5464,"<img src=""portrait/WW1.jpg""style=""height:400px;""></img>",1,html-button-response,12,104280,0.0-3.0-13.0,91976,List1A,black,man,,TRUE,1,,,,,
null,CORRECT,,html-keyboard-response,13,105787,0.0-3.0-14.0-0.0,91976,List1A,black,man,,,,null,,,,
5796,"<img src=""portrait/BW2.jpg""style=""height:400px;""></img>",2,html-button-response,14,111591,0.0-3.0-16.0,91976,List1A,black,man,,TRUE,2,,,,,
null,CORRECT,,html-keyboard-response,15,113097,0.0-3.0-17.0-0.0,91976,List1A,black,man,,,,null,,,,
2510,"<img src=""portrait/WM2.jpg""style=""height:400px;""></img>",7,html-button-response,16,115615,0.0-3.0-19.0,91976,List1A,black,man,,TRUE,7,,,,,
null,CORRECT,,html-keyboard-response,17,117122,0.0-3.0-20.0-0.0,91976,List1A,black,man,,,,null,,,,
1629,"<img src=""portrait/BW1.jpg""style=""height:400px;""></img>",0,html-button-response,18,118759,0.0-3.0-22.0,91976,List1A,black,man,,TRUE,0,,,,,
null,CORRECT,,html-keyboard-response,19,120266,0.0-3.0-23.0-0.0,91976,List1A,black,man,,,,null,,,,
1501,<p>You got 8 out of 8 right first time. Press Continue.</p>,0,html-button-response,20,121775,0.0-3.0-25.0,91976,List1A,black,man,,,,,,,,
34056,"<p>In this experiment, you will view photographs of the people from the memory game interacting.</p><p>By using the <strong>exact</strong> phrase given <i>after</i> the photograph appears and recalling the correct names of the people in the photographs, form a sentence describing the interaction. You do not need to capitalise names.</p><p>Type your answer in the space provided. Please complete every sentence before moving onto the next trial.</p><p>You will only have a few seconds to memorise each given photograph and phrase before you can respond, so try your best to focus.</p><p>An example is given below. Press 'Continue' when you are ready.</p><img src='img/speaking_example.jpg' style='width:800px;height:460px;''></img>",0,html-button-response,21,156847,0.0-4.0,91976,List1A,black,man,,,,,,,,
2880,"<p>Before the experiment starts, you will watch two example trials. Press 'Continue'.</p>",0,html-button-response,22,160736,0.0-5.0,91976,List1A,black,man,,,,,,,,
null,<img src='img/meet_eg.gif' style='height:400px;''></img>,,html-keyboard-response,23,163746,0.0-6.0,91976,List1A,black,man,,,,null,,,,
null,<p>is meeting</p>,,html-keyboard-response,24,165750,0.0-7.0,91976,List1A,black,man,,,,null,,,,
1781,<p><b>Answer:</b> kate is meeting beth</p>,0,html-button-response,25,167536,0.0-8.0,91976,List1A,black,man,,,,,,,,
null,<img src='img/look_eg.gif' style='height:400px;''></img>,,html-keyboard-response,26,170544,0.0-9.0,91976,List1A,black,man,,,,null,,,,
null,<p>are looking at each other</p>,,html-keyboard-response,27,172548,0.0-10.0,91976,List1A,black,man,,,,null,,,,
1303,<p><b>Answer:</b> luke and dave are looking at each other</p>,0,html-button-response,28,173857,0.0-11.0,91976,List1A,black,man,,,,,,,,
13332,"<p>Ready to start the experiment?</p><br><p><strong>Remember to describe the picture using a full sentence,</strong></p><p><strong>that combines the names of the people with the <i>exact</i> phrase given.</strong></p><p><strong>To receive full payment you must do this correctly.</strong></p><p><strong> You do not need to capitalise names or use punctuation.</strong></p><br><p>Press 'Continue' to begin.</p>",0,html-button-response,29,188195,0.0-12.0,91976,List1A,black,man,,,,,,,,
null,"<div style=""font-size:60px;"">+</div>",,html-keyboard-response,30,189699,0.0-13.0-0.0,91976,List1A,black,man,,,,null,,,,
null,"<img src=""stim_listA/touch7.gif""style=""height:400px;""></stim_listA>",,html-keyboard-response,31,191708,0.0-13.0-1.0,91976,List1A,black,man,,,,null,,,,
null,is touching,,html-keyboard-response,32,193713,0.0-13.0-2.0,91976,List1A,black,man,,,,null,,,,
14185,,,survey-text,33,207906,0.0-13.0-3.0,91976,List1A,black,man,,,,,"{""Q0"":""Beth is touching Ruth.""}","<img src=""stim_listA/touch7.gif""style=""height:400px;""></stim_listA>",is touching,
null,"<div style=""font-size:60px;"">+</div>",,html-keyboard-response,34,208412,0.0-13.0-0.1,91976,List1A,black,man,,,,null,,,,
null,"<img src=""stim_listA/argue7.gif""style=""height:400px;""></stim_listA>",,html-keyboard-response,35,210429,0.0-13.0-1.1,91976,List1A,black,man,,,,null,,,,
null,is arguing with,,html-keyboard-response,36,212433,0.0-13.0-2.1,91976,List1A,black,man,,,,null,,,,
12371,,,survey-text,37,224808,0.0-13.0-3.1,91976,List1A,black,man,,,,,"{""Q0"":""Ruth is arguing with Beth""}","<img src=""stim_listA/argue7.gif""style=""height:400px;""></stim_listA>",is arguing with,
null,"<div style=""font-size:60px;"">+</div>",,html-keyboard-response,38,225312,0.0-13.0-0.2,91976,List1A,black,man,,,,null,,,,
null,"<img src=""stim_listA/argue6.gif""style=""height:400px;""></stim_listA>",,html-keyboard-response,39,227322,0.0-13.0-1.2,91976,List1A,black,man,,,,null,,,,
null,are arguing with each other,,html-keyboard-response,40,229328,0.0-13.0-2.2,91976,List1A,black,man,,,,null,,,,
14580,,,survey-text,41,243914,0.0-13.0-3.2,91976,List1A,black,man,,,,,"{""Q0"":""Fred and Dave are arguing with each other.""}","<img src=""stim_listA/argue6.gif""style=""height:400px;""></stim_listA>",are arguing with each other,
null,"<div style=""font-size:60px;"">+</div>",,html-keyboard-response,42,244417,0.0-13.0-0.3,91976,List1A,black,man,,,,null,,,,
null,"<img src=""stim_listA/dance5.gif""style=""height:400px;""></stim_listA>",,html-keyboard-response,43,246427,0.0-13.0-1.3,91976,List1A,black,man,,,,null,,,,
null,is dancing with,,html-keyboard-response,44,248431,0.0-13.0-2.3,91976,List1A,black,man,,,,null,,,,
8711,,,survey-text,45,257147,0.0-13.0-3.3,91976,List1A,black,man,,,,,"{""Q0"":""Dave is dancing with Fred.""}","<img src=""stim_listA/dance5.gif""style=""height:400px;""></stim_listA>",is dancing with,
null,"<div style=""font-size:60px;"">+</div>",,html-keyboard-response,46,257651,0.0-13.0-0.4,91976,List1A,black,man,,,,null,,,,
null,"<img src=""stim_listA/dance2.gif""style=""height:400px;""></stim_listA>",,html-keyboard-response,47,259662,0.0-13.0-1.4,91976,List1A,black,man,,,,null,,,,
null,are dancing with each other,,html-keyboard-response,48,261667,0.0-13.0-2.4,91976,List1A,black,man,,,,null,,,,
14501,,,survey-text,49,276172,0.0-13.0-3.4,91976,List1A,black,man,,,,,"{""Q0"":""Katy is dancing with Mike.""}","<img src=""stim_listA/dance2.gif""style=""height:400px;""></stim_listA>",are dancing with each other,
null,"<div style=""font-size:60px;"">+</div>",,html-keyboard-response,50,276677,0.0-13.0-0.5,91976,List1A,black,man,,,,null,,,,
null,"<img src=""stim_listA/fight8.gif""style=""height:400px;""></stim_listA>",,html-keyboard-response,51,278687,0.0-13.0-1.5,91976,List1A,black,man,,,,null,,,,
null,are fighting each other,,html-keyboard-response,52,280691,0.0-13.0-2.5,91976,List1A,black,man,,,,null,,,,
19332,,,survey-text,53,300028,0.0-13.0-3.5,91976,List1A,black,man,,,,,"{""Q0"":""Ruth and Katy are fighting each other.""}","<img src=""stim_listA/fight8.gif""style=""height:400px;""></stim_listA>",are fighting each other,
null,"<div style=""font-size:60px;"">+</div>",,html-keyboard-response,54,300532,0.0-13.0-0.6,91976,List1A,black,man,,,,null,,,,
null,"<img src=""stim_listA/shout8.gif""style=""height:400px;""></stim_listA>",,html-keyboard-response,55,302545,0.0-13.0-1.6,91976,List1A,black,man,,,,null,,,,
null,are shouting at each other,,html-keyboard-response,56,304549,0.0-13.0-2.6,91976,List1A,black,man,,,,null,,,,
23091,,,survey-text,57,327645,0.0-13.0-3.6,91976,List1A,black,man,,,,,"{""Q0"":""Katy and Sarah are arguing.""}","<img src=""stim_listA/shout8.gif""style=""height:400px;""></stim_listA>",are shouting at each other,
null,"<div style=""font-size:60px;"">+</div>",,html-keyboard-response,58,328149,0.0-13.0-0.7,91976,List1A,black,man,,,,null,,,,
null,"<img src=""stim_listA/talk6.gif""style=""height:400px;""></stim_listA>",,html-keyboard-response,59,330158,0.0-13.0-1.7,91976,List1A,black,man,,,,null,,,,
null,are talking to each other,,html-keyboard-response,60,332162,0.0-13.0-2.7,91976,List1A,black,man,,,,null,,,,
10453,,,survey-text,61,342620,0.0-13.0-3.7,91976,List1A,black,man,,,,,"{""Q0"":""Luke and Mike are talking to each other.""}","<img src=""stim_listA/talk6.gif""style=""height:400px;""></stim_listA>",are talking to each other,
null,"<div style=""font-size:60px;"">+</div>",,html-keyboard-response,62,343123,0.0-13.0-0.8,91976,List1A,black,man,,,,null,,,,
null,"<img src=""stim_listA/play7.gif""style=""height:400px;""></stim_listA>",,html-keyboard-response,63,345134,0.0-13.0-1.8,91976,List1A,black,man,,,,null,,,,
null,is playing with,,html-keyboard-response,64,347138,0.0-13.0-2.8,91976,List1A,black,man,,,,null,,,,
21094,,,survey-text,65,368238,0.0-13.0-3.8,91976,List1A,black,man,,,,,"{""Q0"":""Ruth is playing with Becky.""}","<img src=""stim_listA/play7.gif""style=""height:400px;""></stim_listA>",is playing with,
null,"<div style=""font-size:60px;"">+</div>",,html-keyboard-response,66,368748,0.0-13.0-0.9,91976,List1A,black,man,,,,null,,,,
null,"<img src=""stim_listA/play3.gif""style=""height:400px;""></stim_listA>",,html-keyboard-response,67,370758,0.0-13.0-1.9,91976,List1A,black,man,,,,null,,,,
null,is playing with,,html-keyboard-response,68,372765,0.0-13.0-2.9,91976,List1A,black,man,,,,null,,,,
8020,,,survey-text,69,380789,0.0-13.0-3.9,91976,List1A,black,man,,,,,"{""Q0"":""Ruth is playing with Dave.""}","<img src=""stim_listA/play3.gif""style=""height:400px;""></stim_listA>",is playing with,
null,"<div style=""font-size:60px;"">+</div>",,html-keyboard-response,70,381292,0.0-13.0-0.10,91976,List1A,black,man,,,,null,,,,
null,"<img src=""stim_listA/shout2.gif""style=""height:400px;""></stim_listA>",,html-keyboard-response,71,383303,0.0-13.0-1.10,91976,List1A,black,man,,,,null,,,,
null,are shouting at each other,,html-keyboard-response,72,385307,0.0-13.0-2.10,91976,List1A,black,man,,,,null,,,,
11072,,,survey-text,73,396384,0.0-13.0-3.10,91976,List1A,black,man,,,,,"{""Q0"":""Mike and Katy are shouting at each other.""}","<img src=""stim_listA/shout2.gif""style=""height:400px;""></stim_listA>",are shouting at each other,
null,"<div style=""font-size:60px;"">+</div>",,html-keyboard-response,74,396887,0.0-13.0-0.11,91976,List1A,black,man,,,,null,,,,
null,"<img src=""stim_listA/touch6.gif""style=""height:400px;""></stim_listA>",,html-keyboard-response,75,398896,0.0-13.0-1.11,91976,List1A,black,man,,,,null,,,,
null,are touching each other,,html-keyboard-response,76,400900,0.0-13.0-2.11,91976,List1A,black,man,,,,null,,,,
16697,,,survey-text,77,417600,0.0-13.0-3.11,91976,List1A,black,man,,,,,"{""Q0"":""Luke and Fred are touching each other.""}","<img src=""stim_listA/touch6.gif""style=""height:400px;""></stim_listA>",are touching each other,
null,"<div style=""font-size:60px;"">+</div>",,html-keyboard-response,78,418103,0.0-13.0-0.12,91976,List1A,black,man,,,,null,,,,
null,"<img src=""stim_listA/argue3.gif""style=""height:400px;""></stim_listA>",,html-keyboard-response,79,420125,0.0-13.0-1.12,91976,List1A,black,man,,,,null,,,,
null,is arguing with,,html-keyboard-response,80,422129,0.0-13.0-2.12,91976,List1A,black,man,,,,null,,,,
10922,,,survey-text,81,433056,0.0-13.0-3.12,91976,List1A,black,man,,,,,"{""Q0"":""Ruth is arguing with Dave.""}","<img src=""stim_listA/argue3.gif""style=""height:400px;""></stim_listA>",is arguing with,
null,"<div style=""font-size:60px;"">+</div>",,html-keyboard-response,82,433559,0.0-13.0-0.13,91976,List1A,black,man,,,,null,,,,
null,"<img src=""stim_listA/dance7.gif""style=""height:400px;""></stim_listA>",,html-keyboard-response,83,435570,0.0-13.0-1.13,91976,List1A,black,man,,,,null,,,,
null,is dancing with,,html-keyboard-response,84,437574,0.0-13.0-2.13,91976,List1A,black,man,,,,null,,,,
11261,,,survey-text,85,448840,0.0-13.0-3.13,91976,List1A,black,man,,,,,"{""Q0"":""Katy is dancing with Sarah.""}","<img src=""stim_listA/dance7.gif""style=""height:400px;""></stim_listA>",is dancing with,
null,"<div style=""font-size:60px;"">+</div>",,html-keyboard-response,86,449343,0.0-13.0-0.14,91976,List1A,black,man,,,,null,,,,
null,"<img src=""stim_listA/shout4.gif""style=""height:400px;""></stim_listA>",,html-keyboard-response,87,451353,0.0-13.0-1.14,91976,List1A,black,man,,,,null,,,,
null,are shouting at each other,,html-keyboard-response,88,453359,0.0-13.0-2.14,91976,List1A,black,man,,,,null,,,,
15765,,,survey-text,89,469128,0.0-13.0-3.14,91976,List1A,black,man,,,,,"{""Q0"":""Dave and Sarah are shouting at each other.""}","<img src=""stim_listA/shout4.gif""style=""height:400px;""></stim_listA>",are shouting at each other,
null,"<div style=""font-size:60px;"">+</div>",,html-keyboard-response,90,469632,0.0-13.0-0.15,91976,List1A,black,man,,,,null,,,,
null,"<img src=""stim_listA/flirt2.gif""style=""height:400px;""></stim_listA>",,html-keyboard-response,91,471642,0.0-13.0-1.15,91976,List1A,black,man,,,,null,,,,
null,are flirting with each other,,html-keyboard-response,92,473649,0.0-13.0-2.15,91976,List1A,black,man,,,,null,,,,
14428,,,survey-text,93,488081,0.0-13.0-3.15,91976,List1A,black,man,,,,,"{""Q0"":""Luke and Katy are flirting with each other.""}","<img src=""stim_listA/flirt2.gif""style=""height:400px;""></stim_listA>",are flirting with each other,
null,"<div style=""font-size:60px;"">+</div>",,html-keyboard-response,94,488586,0.0-13.0-0.16,91976,List1A,black,man,,,,null,,,,
null,"<img src=""stim_listA/fight2.gif""style=""height:400px;""></stim_listA>",,html-keyboard-response,95,490598,0.0-13.0-1.16,91976,List1A,black,man,,,,null,,,,
null,are fighting each other,,html-keyboard-response,96,492602,0.0-13.0-2.16,91976,List1A,black,man,,,,null,,,,
14798,,,survey-text,97,507405,0.0-13.0-3.16,91976,List1A,black,man,,,,,"{""Q0"":""Fred and Katy are fighting each other.""}","<img src=""stim_listA/fight2.gif""style=""height:400px;""></stim_listA>",are fighting each other,
null,"<div style=""font-size:60px;"">+</div>",,html-keyboard-response,98,507908,0.0-13.0-0.17,91976,List1A,black,man,,,,null,,,,
null,"<img src=""stim_listA/flirt6.gif""style=""height:400px;""></stim_listA>",,html-keyboard-response,99,509918,0.0-13.0-1.17,91976,List1A,black,man,,,,null,,,,
null,are flirting with each other,,html-keyboard-response,100,511922,0.0-13.0-2.17,91976,List1A,black,man,,,,null,,,,
12117,,,survey-text,101,524043,0.0-13.0-3.17,91976,List1A,black,man,,,,,"{""Q0"":""Luke and Mike are flirting with each other.""}","<img src=""stim_listA/flirt6.gif""style=""height:400px;""></stim_listA>",are flirting with each other,
null,"<div style=""font-size:60px;"">+</div>",,html-keyboard-response,102,524547,0.0-13.0-0.18,91976,List1A,black,man,,,,null,,,,
null,"<img src=""stim_listA/touch3.gif""style=""height:400px;""></stim_listA>",,html-keyboard-response,103,526558,0.0-13.0-1.18,91976,List1A,black,man,,,,null,,,,
null,is touching,,html-keyboard-response,104,528561,0.0-13.0-2.18,91976,List1A,black,man,,,,null,,,,
10663,,,survey-text,105,539228,0.0-13.0-3.18,91976,List1A,black,man,,,,,"{""Q0"":""Dave is touching Ruth.""}","<img src=""stim_listA/touch3.gif""style=""height:400px;""></stim_listA>",is touching,
null,"<div style=""font-size:60px;"">+</div>",,html-keyboard-response,106,539732,0.0-13.0-0.19,91976,List1A,black,man,,,,null,,,,
null,"<img src=""stim_listA/kiss6.gif""style=""height:400px;""></stim_listA>",,html-keyboard-response,107,541741,0.0-13.0-1.19,91976,List1A,black,man,,,,null,,,,
null,are kissing each other,,html-keyboard-response,108,543746,0.0-13.0-2.19,91976,List1A,black,man,,,,null,,,,
7846,,,survey-text,109,551597,0.0-13.0-3.19,91976,List1A,black,man,,,,,"{""Q0"":""Dave is kissing Mike.""}","<img src=""stim_listA/kiss6.gif""style=""height:400px;""></stim_listA>",are kissing each other,
50222,"<img src='img/portrait_matrix_list1.jpg' style='width:900px;height:500px;''></img><p>If you have memorised all the portraits and names and are ready to start, press Continue.</p><p><strong>Please note: Your memory of these faces will be tested 4 times during this experiment.</strong></p>",0,html-button-response,110,601822,0.0-14.0-0.0,91976,List1A,black,man,,,,,,,,
2093,"<img src=""portrait/WM2.jpg""style=""height:400px;""></img>",7,html-button-response,111,604926,0.0-14.0-1.0,91976,List1A,black,man,,TRUE,7,,,,,
null,CORRECT,,html-keyboard-response,112,606434,0.0-14.0-2.0-0.0,91976,List1A,black,man,,,,null,,,,
1995,"<img src=""portrait/BM2.jpg""style=""height:400px;""></img>",5,html-button-response,113,608441,0.0-14.0-4.0,91976,List1A,black,man,,TRUE,5,,,,,
null,CORRECT,,html-keyboard-response,114,609947,0.0-14.0-5.0-0.0,91976,List1A,black,man,,,,null,,,,
1652,"<img src=""portrait/BM1.jpg""style=""height:400px;""></img>",4,html-button-response,115,611607,0.0-14.0-7.0,91976,List1A,black,man,,TRUE,4,,,,,
null,CORRECT,,html-keyboard-response,116,613113,0.0-14.0-8.0-0.0,91976,List1A,black,man,,,,null,,,,
1781,"<img src=""portrait/BW1.jpg""style=""height:400px;""></img>",0,html-button-response,117,614910,0.0-14.0-10.0,91976,List1A,black,man,,TRUE,0,,,,,
null,CORRECT,,html-keyboard-response,118,616417,0.0-14.0-11.0-0.0,91976,List1A,black,man,,,,null,,,,
1694,"<img src=""portrait/BW2.jpg""style=""height:400px;""></img>",2,html-button-response,119,618119,0.0-14.0-13.0,91976,List1A,black,man,,TRUE,2,,,,,
null,CORRECT,,html-keyboard-response,120,619628,0.0-14.0-14.0-0.0,91976,List1A,black,man,,,,null,,,,
5300,"<img src=""portrait/WW1.jpg""style=""height:400px;""></img>",1,html-button-response,121,624935,0.0-14.0-16.0,91976,List1A,black,man,,TRUE,1,,,,,
null,CORRECT,,html-keyboard-response,122,626441,0.0-14.0-17.0-0.0,91976,List1A,black,man,,,,null,,,,
5103,"<img src=""portrait/WW2.jpg""style=""height:400px;""></img>",3,html-button-response,123,631552,0.0-14.0-19.0,91976,List1A,black,man,,TRUE,3,,,,,
null,CORRECT,,html-keyboard-response,124,633059,0.0-14.0-20.0-0.0,91976,List1A,black,man,,,,null,,,,
2333,"<img src=""portrait/WM1.jpg""style=""height:400px;""></img>",6,html-button-response,125,635400,0.0-14.0-22.0,91976,List1A,black,man,,TRUE,6,,,,,
null,CORRECT,,html-keyboard-response,126,636905,0.0-14.0-23.0-0.0,91976,List1A,black,man,,,,null,,,,
1183,<p>You got 8 out of 8 right first time. Press Continue.</p>,0,html-button-response,127,638095,0.0-14.0-25.0,91976,List1A,black,man,,,,,,,,
null,"<div style=""font-size:60px;"">+</div>",,html-keyboard-response,128,639604,0.0-15.0-0.0,91976,List1A,black,man,,,,null,,,,
null,"<img src=""stim_listA/play4.gif""style=""height:400px;""></stim_listA>",,html-keyboard-response,129,641610,0.0-15.0-1.0,91976,List1A,black,man,,,,null,,,,
null,are playing with each other,,html-keyboard-response,130,643614,0.0-15.0-2.0,91976,List1A,black,man,,,,null,,,,
11604,,,survey-text,131,655223,0.0-15.0-3.0,91976,List1A,black,man,,,,,"{""Q0"":""Luke and Ruth are playing with each other.""}","<img src=""stim_listA/play4.gif""style=""height:400px;""></stim_listA>",are playing with each other,
null,"<div style=""font-size:60px;"">+</div>",,html-keyboard-response,132,655727,0.0-15.0-0.1,91976,List1A,black,man,,,,null,,,,
null,"<img src=""stim_listA/argue5.gif""style=""height:400px;""></stim_listA>",,html-keyboard-response,133,657737,0.0-15.0-1.1,91976,List1A,black,man,,,,null,,,,
null,is arguing with,,html-keyboard-response,134,659742,0.0-15.0-2.1,91976,List1A,black,man,,,,null,,,,
10149,,,survey-text,135,669896,0.0-15.0-3.1,91976,List1A,black,man,,,,,"{""Q0"":""Mike is arguing with Luke.""}","<img src=""stim_listA/argue5.gif""style=""height:400px;""></stim_listA>",is arguing with,
null,"<div style=""font-size:60px;"">+</div>",,html-keyboard-response,136,670400,0.0-15.0-0.2,91976,List1A,black,man,,,,null,,,,
null,"<img src=""stim_listA/shout5.gif""style=""height:400px;""></stim_listA>",,html-keyboard-response,137,672410,0.0-15.0-1.2,91976,List1A,black,man,,,,null,,,,
null,is shouting at,,html-keyboard-response,138,674414,0.0-15.0-2.2,91976,List1A,black,man,,,,null,,,,
11503,,,survey-text,139,685921,0.0-15.0-3.2,91976,List1A,black,man,,,,,"{""Q0"":""Fred is shouting at Luke.""}","<img src=""stim_listA/shout5.gif""style=""height:400px;""></stim_listA>",is shouting at,
null,"<div style=""font-size:60px;"">+</div>",,html-keyboard-response,140,686425,0.0-15.0-0.3,91976,List1A,black,man,,,,null,,,,
null,"<img src=""stim_listA/play8.gif""style=""height:400px;""></stim_listA>",,html-keyboard-response,141,688434,0.0-15.0-1.3,91976,List1A,black,man,,,,null,,,,
null,are playing with each other,,html-keyboard-response,142,690438,0.0-15.0-2.3,91976,List1A,black,man,,,,null,,,,
14695,,,survey-text,143,705136,0.0-15.0-3.3,91976,List1A,black,man,,,,,"{""Q0"":""Beth and Kate are fighting.""}","<img src=""stim_listA/play8.gif""style=""height:400px;""></stim_listA>",are playing with each other,
null,"<div style=""font-size:60px;"">+</div>",,html-keyboard-response,144,705640,0.0-15.0-0.4,91976,List1A,black,man,,,,null,,,,
null,"<img src=""stim_listA/fight5.gif""style=""height:400px;""></stim_listA>",,html-keyboard-response,145,707649,0.0-15.0-1.4,91976,List1A,black,man,,,,null,,,,
null,is fighting,,html-keyboard-response,146,709654,0.0-15.0-2.4,91976,List1A,black,man,,,,null,,,,
16383,,,survey-text,147,726041,0.0-15.0-3.4,91976,List1A,black,man,,,,,"{""Q0"":""Dave is fighting Mike.""}","<img src=""stim_listA/fight5.gif""style=""height:400px;""></stim_listA>",is fighting,
null,"<div style=""font-size:60px;"">+</div>",,html-keyboard-response,148,726544,0.0-15.0-0.5,91976,List1A,black,man,,,,null,,,,
null,"<img src=""stim_listA/flirt4.gif""style=""height:400px;""></stim_listA>",,html-keyboard-response,149,728555,0.0-15.0-1.5,91976,List1A,black,man,,,,null,,,,
null,are flirting with each other,,html-keyboard-response,150,730558,0.0-15.0-2.5,91976,List1A,black,man,,,,null,,,,
13510,,,survey-text,151,744073,0.0-15.0-3.5,91976,List1A,black,man,,,,,"{""Q0"":""Dave and Ruth are flirting with each other.""}","<img src=""stim_listA/flirt4.gif""style=""height:400px;""></stim_listA>",are flirting with each other,
null,"<div style=""font-size:60px;"">+</div>",,html-keyboard-response,152,744577,0.0-15.0-0.6,91976,List1A,black,man,,,,null,,,,
null,"<img src=""stim_listA/play1.gif""style=""height:400px;""></stim_listA>",,html-keyboard-response,153,746589,0.0-15.0-1.6,91976,List1A,black,man,,,,null,,,,
null,is playing with,,html-keyboard-response,154,748593,0.0-15.0-2.6,91976,List1A,black,man,,,,null,,,,
7692,,,survey-text,155,756289,0.0-15.0-3.6,91976,List1A,black,man,,,,,"{""Q0"":""Kate is playing with Mike.""}","<img src=""stim_listA/play1.gif""style=""height:400px;""></stim_listA>",is playing with,
null,"<div style=""font-size:60px;"">+</div>",,html-keyboard-response,156,756793,0.0-15.0-0.7,91976,List1A,black,man,,,,null,,,,
null,"<img src=""stim_listA/flirt5.gif""style=""height:400px;""></stim_listA>",,html-keyboard-response,157,758803,0.0-15.0-1.7,91976,List1A,black,man,,,,null,,,,
null,is flirting with,,html-keyboard-response,158,760809,0.0-15.0-2.7,91976,List1A,black,man,,,,null,,,,
11964,,,survey-text,159,772777,0.0-15.0-3.7,91976,List1A,black,man,,,,,"{""Q0"":""Fred is flirting with Dave.""}","<img src=""stim_listA/flirt5.gif""style=""height:400px;""></stim_listA>",is flirting with,
null,"<div style=""font-size:60px;"">+</div>",,html-keyboard-response,160,773282,0.0-15.0-0.8,91976,List1A,black,man,,,,null,,,,
null,"<img src=""stim_listA/marry7.gif""style=""height:400px;""></stim_listA>",,html-keyboard-response,161,775291,0.0-15.0-1.8,91976,List1A,black,man,,,,null,,,,
null,is marrying,,html-keyboard-response,162,777295,0.0-15.0-2.8,91976,List1A,black,man,,,,null,,,,
21415,,,survey-text,163,798715,0.0-15.0-3.8,91976,List1A,black,man,,,,,"{""Q0"":""Ruth is marrying Kate.""}","<img src=""stim_listA/marry7.gif""style=""height:400px;""></stim_listA>",is marrying,
null,"<div style=""font-size:60px;"">+</div>",,html-keyboard-response,164,799218,0.0-15.0-0.9,91976,List1A,black,man,,,,null,,,,
null,"<img src=""stim_listA/touch4.gif""style=""height:400px;""></stim_listA>",,html-keyboard-response,165,801227,0.0-15.0-1.9,91976,List1A,black,man,,,,null,,,,
null,are touching each other,,html-keyboard-response,166,803231,0.0-15.0-2.9,91976,List1A,black,man,,,,null,,,,
26659,,,survey-text,167,829895,0.0-15.0-3.9,91976,List1A,black,man,,,,,"{""Q0"":""Ruth and Luke are touching each other.""}","<img src=""stim_listA/touch4.gif""style=""height:400px;""></stim_listA>",are touching each other,
null,"<div style=""font-size:60px;"">+</div>",,html-keyboard-response,168,830400,0.0-15.0-0.10,91976,List1A,black,man,,,,null,,,,
null,"<img src=""stim_listA/marry4.gif""style=""height:400px;""></stim_listA>",,html-keyboard-response,169,832416,0.0-15.0-1.10,91976,List1A,black,man,,,,null,,,,
null,are marrying each other,,html-keyboard-response,170,834420,0.0-15.0-2.10,91976,List1A,black,man,,,,null,,,,
10285,,,survey-text,171,844709,0.0-15.0-3.10,91976,List1A,black,man,,,,,"{""Q0"":""Jane and Luke are marrying each other.""}","<img src=""stim_listA/marry4.gif""style=""height:400px;""></stim_listA>",are marrying each other,
null,"<div style=""font-size:60px;"">+</div>",,html-keyboard-response,172,845214,0.0-15.0-0.11,91976,List1A,black,man,,,,null,,,,
null,"<img src=""stim_listA/shout1.gif""style=""height:400px;""></stim_listA>",,html-keyboard-response,173,847223,0.0-15.0-1.11,91976,List1A,black,man,,,,null,,,,
null,is shouting at,,html-keyboard-response,174,849228,0.0-15.0-2.11,91976,List1A,black,man,,,,null,,,,
6501,,,survey-text,175,855733,0.0-15.0-3.11,91976,List1A,black,man,,,,,"{""Q0"":""Fred is shouting at Beth.""}","<img src=""stim_listA/shout1.gif""style=""height:400px;""></stim_listA>",is shouting at,
null,"<div style=""font-size:60px;"">+</div>",,html-keyboard-response,176,856238,0.0-15.0-0.12,91976,List1A,black,man,,,,null,,,,
null,"<img src=""stim_listA/play2.gif""style=""height:400px;""></stim_listA>",,html-keyboard-response,177,858248,0.0-15.0-1.12,91976,List1A,black,man,,,,null,,,,
null,are playing with each other,,html-keyboard-response,178,860253,0.0-15.0-2.12,91976,List1A,black,man,,,,null,,,,
9515,,,survey-text,179,869773,0.0-15.0-3.12,91976,List1A,black,man,,,,,"{""Q0"":""Fred is playing with Beth.""}","<img src=""stim_listA/play2.gif""style=""height:400px;""></stim_listA>",are playing with each other,
null,"<div style=""font-size:60px;"">+</div>",,html-keyboard-response,180,870277,0.0-15.0-0.13,91976,List1A,black,man,,,,null,,,,
null,"<img src=""stim_listA/kiss4.gif""style=""height:400px;""></stim_listA>",,html-keyboard-response,181,872287,0.0-15.0-1.13,91976,List1A,black,man,,,,null,,,,
null,are kissing each other,,html-keyboard-response,182,874290,0.0-15.0-2.13,91976,List1A,black,man,,,,null,,,,
17288,,,survey-text,183,891584,0.0-15.0-3.13,91976,List1A,black,man,,,,,"{""Q0"":""Jane and David are flirting each other.""}","<img src=""stim_listA/kiss4.gif""style=""height:400px;""></stim_listA>",are kissing each other,
null,"<div style=""font-size:60px;"">+</div>",,html-keyboard-response,184,892087,0.0-15.0-0.14,91976,List1A,black,man,,,,null,,,,
null,"<img src=""stim_listA/kiss7.gif""style=""height:400px;""></stim_listA>",,html-keyboard-response,185,894099,0.0-15.0-1.14,91976,List1A,black,man,,,,null,,,,
null,is kissing,,html-keyboard-response,186,896103,0.0-15.0-2.14,91976,List1A,black,man,,,,null,,,,
9827,,,survey-text,187,905935,0.0-15.0-3.14,91976,List1A,black,man,,,,,"{""Q0"":""Ruth is kissing Beth.""}","<img src=""stim_listA/kiss7.gif""style=""height:400px;""></stim_listA>",is kissing,
null,"<div style=""font-size:60px;"">+</div>",,html-keyboard-response,188,906438,0.0-15.0-0.15,91976,List1A,black,man,,,,null,,,,
null,"<img src=""stim_listA/argue1.gif""style=""height:400px;""></stim_listA>",,html-keyboard-response,189,908448,0.0-15.0-1.15,91976,List1A,black,man,,,,null,,,,
null,is arguing with,,html-keyboard-response,190,910454,0.0-15.0-2.15,91976,List1A,black,man,,,,null,,,,
8094,,,survey-text,191,918552,0.0-15.0-3.15,91976,List1A,black,man,,,,,"{""Q0"":""Mike is arguing with Beth.""}","<img src=""stim_listA/argue1.gif""style=""height:400px;""></stim_listA>",is arguing with,
null,"<div style=""font-size:60px;"">+</div>",,html-keyboard-response,192,919056,0.0-15.0-0.16,91976,List1A,black,man,,,,null,,,,
null,"<img src=""stim_listA/marry5.gif""style=""height:400px;""></stim_listA>",,html-keyboard-response,193,921065,0.0-15.0-1.16,91976,List1A,black,man,,,,null,,,,
null,is marrying,,html-keyboard-response,194,923069,0.0-15.0-2.16,91976,List1A,black,man,,,,null,,,,
12008,,,survey-text,195,935083,0.0-15.0-3.16,91976,List1A,black,man,,,,,"{""Q0"":""Luke is marrying Mike.""}","<img src=""stim_listA/marry5.gif""style=""height:400px;""></stim_listA>",is marrying,
null,"<div style=""font-size:60px;"">+</div>",,html-keyboard-response,196,935586,0.0-15.0-0.17,91976,List1A,black,man,,,,null,,,,
null,"<img src=""stim_listA/dance3.gif""style=""height:400px;""></stim_listA>",,html-keyboard-response,197,937596,0.0-15.0-1.17,91976,List1A,black,man,,,,null,,,,
null,is dancing with,,html-keyboard-response,198,939599,0.0-15.0-2.17,91976,List1A,black,man,,,,null,,,,
15694,,,survey-text,199,955296,0.0-15.0-3.17,91976,List1A,black,man,,,,,"{""Q0"":""Jane is dancing with Luke.""}","<img src=""stim_listA/dance3.gif""style=""height:400px;""></stim_listA>",is dancing with,
null,"<div style=""font-size:60px;"">+</div>",,html-keyboard-response,200,955799,0.0-15.0-0.18,91976,List1A,black,man,,,,null,,,,
null,"<img src=""stim_listA/marry3.gif""style=""height:400px;""></stim_listA>",,html-keyboard-response,201,957808,0.0-15.0-1.18,91976,List1A,black,man,,,,null,,,,
null,is marrying,,html-keyboard-response,202,959813,0.0-15.0-2.18,91976,List1A,black,man,,,,null,,,,
15056,,,survey-text,203,974873,0.0-15.0-3.18,91976,List1A,black,man,,,,,"{""Q0"":""Ruth is marrying Dave.""}","<img src=""stim_listA/marry3.gif""style=""height:400px;""></stim_listA>",is marrying,
null,"<div style=""font-size:60px;"">+</div>",,html-keyboard-response,204,975377,0.0-15.0-0.19,91976,List1A,black,man,,,,null,,,,
null,"<img src=""stim_listA/flirt8.gif""style=""height:400px;""></stim_listA>",,html-keyboard-response,205,977387,0.0-15.0-1.19,91976,List1A,black,man,,,,null,,,,
null,are flirting with each other,,html-keyboard-response,206,979391,0.0-15.0-2.19,91976,List1A,black,man,,,,null,,,,
12917,,,survey-text,207,992314,0.0-15.0-3.19,91976,List1A,black,man,,,,,"{""Q0"":""Ruth and Kate are flirting with each other.""}","<img src=""stim_listA/flirt8.gif""style=""height:400px;""></stim_listA>",are flirting with each other,
7605,"<img src='img/portrait_matrix_list1.jpg' style='width:900px;height:500px;''></img><p>If you have memorised all the portraits and names and are ready to start, press Continue.</p><p><strong>Please note: Your memory of these faces will be tested 4 times during this experiment.</strong></p>",0,html-button-response,208,999923,0.0-16.0-0.0,91976,List1A,black,man,,,,,,,,
2331,"<img src=""portrait/WW2.jpg""style=""height:400px;""></img>",1,html-button-response,209,1003265,0.0-16.0-1.0,91976,List1A,black,man,,TRUE,3,,,,,
2494,"<img src=""portrait/WW2.jpg""style=""height:400px;""></img>",3,html-button-response,210,1006771,0.0-16.0-3.0-0.0,91976,List1A,black,man,,FALSE,3,,,,,
null,CORRECT,,html-keyboard-response,211,1008278,0.0-16.0-3.0-1.0-0.0,91976,List1A,black,man,,,,null,,,,
1396,"<img src=""portrait/BM2.jpg""style=""height:400px;""></img>",5,html-button-response,212,1009686,0.0-16.0-4.0,91976,List1A,black,man,,TRUE,5,,,,,
null,CORRECT,,html-keyboard-response,213,1011194,0.0-16.0-5.0-0.0,91976,List1A,black,man,,,,null,,,,
1105,"<img src=""portrait/BM1.jpg""style=""height:400px;""></img>",4,html-button-response,214,1012307,0.0-16.0-7.0,91976,List1A,black,man,,TRUE,4,,,,,
null,CORRECT,,html-keyboard-response,215,1013814,0.0-16.0-8.0-0.0,91976,List1A,black,man,,,,null,,,,
1805,"<img src=""portrait/WM2.jpg""style=""height:400px;""></img>",7,html-button-response,216,1015628,0.0-16.0-10.0,91976,List1A,black,man,,TRUE,7,,,,,
null,CORRECT,,html-keyboard-response,217,1017134,0.0-16.0-11.0-0.0,91976,List1A,black,man,,,,null,,,,
1758,"<img src=""portrait/WW1.jpg""style=""height:400px;""></img>",1,html-button-response,218,1018901,0.0-16.0-13.0,91976,List1A,black,man,,TRUE,1,,,,,
null,CORRECT,,html-keyboard-response,219,1020408,0.0-16.0-14.0-0.0,91976,List1A,black,man,,,,null,,,,
1555,"<img src=""portrait/BW2.jpg""style=""height:400px;""></img>",2,html-button-response,220,1021972,0.0-16.0-16.0,91976,List1A,black,man,,TRUE,2,,,,,
null,CORRECT,,html-keyboard-response,221,1023478,0.0-16.0-17.0-0.0,91976,List1A,black,man,,,,null,,,,
2934,"<img src=""portrait/BW1.jpg""style=""height:400px;""></img>",0,html-button-response,222,1026420,0.0-16.0-19.0,91976,List1A,black,man,,TRUE,0,,,,,
null,CORRECT,,html-keyboard-response,223,1027927,0.0-16.0-20.0-0.0,91976,List1A,black,man,,,,null,,,,
1932,"<img src=""portrait/WM1.jpg""style=""height:400px;""></img>",6,html-button-response,224,1029869,0.0-16.0-22.0,91976,List1A,black,man,,TRUE,6,,,,,
null,CORRECT,,html-keyboard-response,225,1031376,0.0-16.0-23.0-0.0,91976,List1A,black,man,,,,null,,,,
1107,<p>You got 7 out of 8 right first time. Press Continue.</p>,0,html-button-response,226,1032490,0.0-16.0-25.0,91976,List1A,black,man,,,,,,,,
3851,"As you did not score 100%, the memory game will repeat. Press Continue.",0,html-button-response,227,1037347,0.0-16.0-26.0-0.0,91976,List1A,black,man,,,,,,,,
1359,"<img src='img/portrait_matrix_list1.jpg' style='width:900px;height:500px;''></img><p>If you have memorised all the portraits and names and are ready to start, press Continue.</p><p><strong>Please note: Your memory of these faces will be tested 4 times during this experiment.</strong></p>",0,html-button-response,228,1039716,0.0-16.1-0.1,91976,List1A,black,man,,,,,,,,
2528,"<img src=""portrait/WW2.jpg""style=""height:400px;""></img>",3,html-button-response,229,1043252,0.0-16.1-1.1,91976,List1A,black,man,,TRUE,3,,,,,
null,CORRECT,,html-keyboard-response,230,1044758,0.0-16.1-2.1-0.1,91976,List1A,black,man,,,,null,,,,
1455,"<img src=""portrait/BM2.jpg""style=""height:400px;""></img>",5,html-button-response,231,1046222,0.0-16.1-4.1,91976,List1A,black,man,,TRUE,5,,,,,
null,CORRECT,,html-keyboard-response,232,1047729,0.0-16.1-5.1-0.1,91976,List1A,black,man,,,,null,,,,
1436,"<img src=""portrait/BM1.jpg""style=""height:400px;""></img>",4,html-button-response,233,1049173,0.0-16.1-7.1,91976,List1A,black,man,,TRUE,4,,,,,
null,CORRECT,,html-keyboard-response,234,1050677,0.0-16.1-8.1-0.1,91976,List1A,black,man,,,,null,,,,
1551,"<img src=""portrait/WM2.jpg""style=""height:400px;""></img>",7,html-button-response,235,1052237,0.0-16.1-10.1,91976,List1A,black,man,,TRUE,7,,,,,
null,CORRECT,,html-keyboard-response,236,1053745,0.0-16.1-11.1-0.1,91976,List1A,black,man,,,,null,,,,
7907,"<img src=""portrait/WW1.jpg""style=""height:400px;""></img>",1,html-button-response,237,1061660,0.0-16.1-13.1,91976,List1A,black,man,,TRUE,1,,,,,
null,CORRECT,,html-keyboard-response,238,1063166,0.0-16.1-14.1-0.1,91976,List1A,black,man,,,,null,,,,
2431,"<img src=""portrait/BW2.jpg""style=""height:400px;""></img>",2,html-button-response,239,1065606,0.0-16.1-16.1,91976,List1A,black,man,,TRUE,2,,,,,
null,CORRECT,,html-keyboard-response,240,1067111,0.0-16.1-17.1-0.1,91976,List1A,black,man,,,,null,,,,
2085,"<img src=""portrait/BW1.jpg""style=""height:400px;""></img>",0,html-button-response,241,1069204,0.0-16.1-19.1,91976,List1A,black,man,,TRUE,0,,,,,
null,CORRECT,,html-keyboard-response,242,1070711,0.0-16.1-20.1-0.1,91976,List1A,black,man,,,,null,,,,
1767,"<img src=""portrait/WM1.jpg""style=""height:400px;""></img>",6,html-button-response,243,1072486,0.0-16.1-22.1,91976,List1A,black,man,,TRUE,6,,,,,
null,CORRECT,,html-keyboard-response,244,1073991,0.0-16.1-23.1-0.1,91976,List1A,black,man,,,,null,,,,
895,<p>You got 8 out of 8 right first time. Press Continue.</p>,0,html-button-response,245,1074893,0.0-16.1-25.1,91976,List1A,black,man,,,,,,,,
null,"<div style=""font-size:60px;"">+</div>",,html-keyboard-response,246,1076402,0.0-17.0-0.0,91976,List1A,black,man,,,,null,,,,
null,"<img src=""stim_listA/fight6.gif""style=""height:400px;""></stim_listA>",,html-keyboard-response,247,1078412,0.0-17.0-1.0,91976,List1A,black,man,,,,null,,,,
null,are fighting each other,,html-keyboard-response,248,1080416,0.0-17.0-2.0,91976,List1A,black,man,,,,null,,,,
11928,,,survey-text,249,1092349,0.0-17.0-3.0,91976,List1A,black,man,,,,,"{""Q0"":""Luke and Mark are fighting each other.""}","<img src=""stim_listA/fight6.gif""style=""height:400px;""></stim_listA>",are fighting each other,
null,"<div style=""font-size:60px;"">+</div>",,html-keyboard-response,250,1092853,0.0-17.0-0.1,91976,List1A,black,man,,,,null,,,,
null,"<img src=""stim_listA/marry1.gif""style=""height:400px;""></stim_listA>",,html-keyboard-response,251,1094862,0.0-17.0-1.1,91976,List1A,black,man,,,,null,,,,
null,is marrying,,html-keyboard-response,252,1096867,0.0-17.0-2.1,91976,List1A,black,man,,,,null,,,,
12008,,,survey-text,253,1108877,0.0-17.0-3.1,91976,List1A,black,man,,,,,"{""Q0"":""Mike is marrying Beth.""}","<img src=""stim_listA/marry1.gif""style=""height:400px;""></stim_listA>",is marrying,
null,"<div style=""font-size:60px;"">+</div>",,html-keyboard-response,254,1109380,0.0-17.0-0.2,91976,List1A,black,man,,,,null,,,,
null,"<img src=""stim_listA/dance4.gif""style=""height:400px;""></stim_listA>",,html-keyboard-response,255,1111390,0.0-17.0-1.2,91976,List1A,black,man,,,,null,,,,
null,are dancing with each other,,html-keyboard-response,256,1113395,0.0-17.0-2.2,91976,List1A,black,man,,,,null,,,,
7926,,,survey-text,257,1121325,0.0-17.0-3.2,91976,List1A,black,man,,,,,"{""Q0"":""Ruth is dancing with Dave.""}","<img src=""stim_listA/dance4.gif""style=""height:400px;""></stim_listA>",are dancing with each other,
null,"<div style=""font-size:60px;"">+</div>",,html-keyboard-response,258,1121829,0.0-17.0-0.3,91976,List1A,black,man,,,,null,,,,
null,"<img src=""stim_listA/kiss3.gif""style=""height:400px;""></stim_listA>",,html-keyboard-response,259,1123844,0.0-17.0-1.3,91976,List1A,black,man,,,,null,,,,
null,is kissing,,html-keyboard-response,260,1125848,0.0-17.0-2.3,91976,List1A,black,man,,,,null,,,,
8434,,,survey-text,261,1134286,0.0-17.0-3.3,91976,List1A,black,man,,,,,"{""Q0"":""Ruth is kissing Luke.""}","<img src=""stim_listA/kiss3.gif""style=""height:400px;""></stim_listA>",is kissing,
null,"<div style=""font-size:60px;"">+</div>",,html-keyboard-response,262,1134790,0.0-17.0-0.4,91976,List1A,black,man,,,,null,,,,
null,"<img src=""stim_listA/shout6.gif""style=""height:400px;""></stim_listA>",,html-keyboard-response,263,1136800,0.0-17.0-1.4,91976,List1A,black,man,,,,null,,,,
null,are shouting at each other,,html-keyboard-response,264,1138805,0.0-17.0-2.4,91976,List1A,black,man,,,,null,,,,
13951,,,survey-text,265,1152760,0.0-17.0-3.4,91976,List1A,black,man,,,,,"{""Q0"":""Mike and Dave are shouting at each other.""}","<img src=""stim_listA/shout6.gif""style=""height:400px;""></stim_listA>",are shouting at each other,
null,"<div style=""font-size:60px;"">+</div>",,html-keyboard-response,266,1153265,0.0-17.0-0.5,91976,List1A,black,man,,,,null,,,,
null,"<img src=""stim_listA/touch1.gif""style=""height:400px;""></stim_listA>",,html-keyboard-response,267,1155276,0.0-17.0-1.5,91976,List1A,black,man,,,,null,,,,
null,is touching,,html-keyboard-response,268,1157282,0.0-17.0-2.5,91976,List1A,black,man,,,,null,,,,
10931,,,survey-text,269,1168217,0.0-17.0-3.5,91976,List1A,black,man,,,,,"{""Q0"":""Mike is touching Beth.""}","<img src=""stim_listA/touch1.gif""style=""height:400px;""></stim_listA>",is touching,
null,"<div style=""font-size:60px;"">+</div>",,html-keyboard-response,270,1168721,0.0-17.0-0.6,91976,List1A,black,man,,,,null,,,,
null,"<img src=""stim_listA/talk7.gif""style=""height:400px;""></stim_listA>",,html-keyboard-response,271,1170731,0.0-17.0-1.6,91976,List1A,black,man,,,,null,,,,
null,is talking to,,html-keyboard-response,272,1172736,0.0-17.0-2.6,91976,List1A,black,man,,,,null,,,,
14395,,,survey-text,273,1187135,0.0-17.0-3.6,91976,List1A,black,man,,,,,"{""Q0"":""Beth is talking to Jane.""}","<img src=""stim_listA/talk7.gif""style=""height:400px;""></stim_listA>",is talking to,
null,"<div style=""font-size:60px;"">+</div>",,html-keyboard-response,274,1187639,0.0-17.0-0.7,91976,List1A,black,man,,,,null,,,,
null,"<img src=""stim_listA/play5.gif""style=""height:400px;""></stim_listA>",,html-keyboard-response,275,1189649,0.0-17.0-1.7,91976,List1A,black,man,,,,null,,,,
null,is playing with,,html-keyboard-response,276,1191653,0.0-17.0-2.7,91976,List1A,black,man,,,,null,,,,
12726,,,survey-text,277,1204384,0.0-17.0-3.7,91976,List1A,black,man,,,,,"{""Q0"":""Mike is playing with Dave.""}","<img src=""stim_listA/play5.gif""style=""height:400px;""></stim_listA>",is playing with,
null,"<div style=""font-size:60px;"">+</div>",,html-keyboard-response,278,1204888,0.0-17.0-0.8,91976,List1A,black,man,,,,null,,,,
null,"<img src=""stim_listA/touch2.gif""style=""height:400px;""></stim_listA>",,html-keyboard-response,279,1206899,0.0-17.0-1.8,91976,List1A,black,man,,,,null,,,,
null,are touching each other,,html-keyboard-response,280,1208904,0.0-17.0-2.8,91976,List1A,black,man,,,,null,,,,
10548,,,survey-text,281,1219457,0.0-17.0-3.8,91976,List1A,black,man,,,,,"{""Q0"":""Beth is touching Fred.""}","<img src=""stim_listA/touch2.gif""style=""height:400px;""></stim_listA>",are touching each other,
null,"<div style=""font-size:60px;"">+</div>",,html-keyboard-response,282,1219961,0.0-17.0-0.9,91976,List1A,black,man,,,,null,,,,
null,"<img src=""stim_listA/touch8.gif""style=""height:400px;""></stim_listA>",,html-keyboard-response,283,1221973,0.0-17.0-1.9,91976,List1A,black,man,,,,null,,,,
null,are touching each other,,html-keyboard-response,284,1223978,0.0-17.0-2.9,91976,List1A,black,man,,,,null,,,,
8371,,,survey-text,285,1232353,0.0-17.0-3.9,91976,List1A,black,man,,,,,"{""Q0"":""Ruth is touching Beth.""}","<img src=""stim_listA/touch8.gif""style=""height:400px;""></stim_listA>",are touching each other,
null,"<div style=""font-size:60px;"">+</div>",,html-keyboard-response,286,1232856,0.0-17.0-0.10,91976,List1A,black,man,,,,null,,,,
null,"<img src=""stim_listA/argue2.gif""style=""height:400px;""></stim_listA>",,html-keyboard-response,287,1234861,0.0-17.0-1.10,91976,List1A,black,man,,,,null,,,,
null,are arguing with each other,,html-keyboard-response,288,1236865,0.0-17.0-2.10,91976,List1A,black,man,,,,null,,,,
12030,,,survey-text,289,1248897,0.0-17.0-3.10,91976,List1A,black,man,,,,,"{""Q0"":""Kate is arguing with Fred.""}","<img src=""stim_listA/argue2.gif""style=""height:400px;""></stim_listA>",are arguing with each other,
null,"<div style=""font-size:60px;"">+</div>",,html-keyboard-response,290,1249402,0.0-17.0-0.11,91976,List1A,black,man,,,,null,,,,
null,"<img src=""stim_listA/talk2.gif""style=""height:400px;""></stim_listA>",,html-keyboard-response,291,1251412,0.0-17.0-1.11,91976,List1A,black,man,,,,null,,,,
null,are talking to each other,,html-keyboard-response,292,1253417,0.0-17.0-2.11,91976,List1A,black,man,,,,null,,,,
8891,,,survey-text,293,1262313,0.0-17.0-3.11,91976,List1A,black,man,,,,,"{""Q0"":""Beck is arguing with Mike.""}","<img src=""stim_listA/talk2.gif""style=""height:400px;""></stim_listA>",are talking to each other,
null,"<div style=""font-size:60px;"">+</div>",,html-keyboard-response,294,1262817,0.0-17.0-0.12,91976,List1A,black,man,,,,null,,,,
null,"<img src=""stim_listA/flirt1.gif""style=""height:400px;""></stim_listA>",,html-keyboard-response,295,1264822,0.0-17.0-1.12,91976,List1A,black,man,,,,null,,,,
null,is flirting with,,html-keyboard-response,296,1266826,0.0-17.0-2.12,91976,List1A,black,man,,,,null,,,,
14735,,,survey-text,297,1281564,0.0-17.0-3.12,91976,List1A,black,man,,,,,"{""Q0"":""Fred is flirting with Kate.""}","<img src=""stim_listA/flirt1.gif""style=""height:400px;""></stim_listA>",is flirting with,
null,"<div style=""font-size:60px;"">+</div>",,html-keyboard-response,298,1282067,0.0-17.0-0.13,91976,List1A,black,man,,,,null,,,,
null,"<img src=""stim_listA/dance8.gif""style=""height:400px;""></stim_listA>",,html-keyboard-response,299,1284078,0.0-17.0-1.13,91976,List1A,black,man,,,,null,,,,
null,are dancing with each other,,html-keyboard-response,300,1286092,0.0-17.0-2.13,91976,List1A,black,man,,,,null,,,,
17210,,,survey-text,301,1303307,0.0-17.0-3.13,91976,List1A,black,man,,,,,"{""Q0"":""Kate is dancing with Jane.""}","<img src=""stim_listA/dance8.gif""style=""height:400px;""></stim_listA>",are dancing with each other,
null,"<div style=""font-size:60px;"">+</div>",,html-keyboard-response,302,1303811,0.0-17.0-0.14,91976,List1A,black,man,,,,null,,,,
null,"<img src=""stim_listA/fight4.gif""style=""height:400px;""></stim_listA>",,html-keyboard-response,303,1305822,0.0-17.0-1.14,91976,List1A,black,man,,,,null,,,,
null,are fighting each other,,html-keyboard-response,304,1307826,0.0-17.0-2.14,91976,List1A,black,man,,,,null,,,,
12086,,,survey-text,305,1319916,0.0-17.0-3.14,91976,List1A,black,man,,,,,"{""Q0"":""Ruth is fighting Luke.""}","<img src=""stim_listA/fight4.gif""style=""height:400px;""></stim_listA>",are fighting each other,
null,"<div style=""font-size:60px;"">+</div>",,html-keyboard-response,306,1320419,0.0-17.0-0.15,91976,List1A,black,man,,,,null,,,,
null,"<img src=""stim_listA/talk5.gif""style=""height:400px;""></stim_listA>",,html-keyboard-response,307,1322430,0.0-17.0-1.15,91976,List1A,black,man,,,,null,,,,
null,is talking to,,html-keyboard-response,308,1324434,0.0-17.0-2.15,91976,List1A,black,man,,,,null,,,,
8792,,,survey-text,309,1333230,0.0-17.0-3.15,91976,List1A,black,man,,,,,"{""Q0"":""Fred is talking to Dave.""}","<img src=""stim_listA/talk5.gif""style=""height:400px;""></stim_listA>",is talking to,
null,"<div style=""font-size:60px;"">+</div>",,html-keyboard-response,310,1333734,0.0-17.0-0.16,91976,List1A,black,man,,,,null,,,,
null,"<img src=""stim_listA/marry8.gif""style=""height:400px;""></stim_listA>",,html-keyboard-response,311,1335744,0.0-17.0-1.16,91976,List1A,black,man,,,,null,,,,
null,are marrying each other,,html-keyboard-response,312,1337749,0.0-17.0-2.16,91976,List1A,black,man,,,,null,,,,
9722,,,survey-text,313,1347476,0.0-17.0-3.16,91976,List1A,black,man,,,,,"{""Q0"":""Jane is marrying Beth.""}","<img src=""stim_listA/marry8.gif""style=""height:400px;""></stim_listA>",are marrying each other,
null,"<div style=""font-size:60px;"">+</div>",,html-keyboard-response,314,1347980,0.0-17.0-0.17,91976,List1A,black,man,,,,null,,,,
null,"<img src=""stim_listA/shout7.gif""style=""height:400px;""></stim_listA>",,html-keyboard-response,315,1349991,0.0-17.0-1.17,91976,List1A,black,man,,,,null,,,,
null,is shouting at,,html-keyboard-response,316,1351995,0.0-17.0-2.17,91976,List1A,black,man,,,,null,,,,
9510,,,survey-text,317,1361509,0.0-17.0-3.17,91976,List1A,black,man,,,,,"{""Q0"":""Ruth is shouting at Beth.""}","<img src=""stim_listA/shout7.gif""style=""height:400px;""></stim_listA>",is shouting at,
null,"<div style=""font-size:60px;"">+</div>",,html-keyboard-response,318,1362012,0.0-17.0-0.18,91976,List1A,black,man,,,,null,,,,
null,"<img src=""stim_listA/flirt7.gif""style=""height:400px;""></stim_listA>",,html-keyboard-response,319,1364022,0.0-17.0-1.18,91976,List1A,black,man,,,,null,,,,
null,is flirting with,,html-keyboard-response,320,1366027,0.0-17.0-2.18,91976,List1A,black,man,,,,null,,,,
7791,,,survey-text,321,1373824,0.0-17.0-3.18,91976,List1A,black,man,,,,,"{""Q0"":""Beth is flirting with Jane.""}","<img src=""stim_listA/flirt7.gif""style=""height:400px;""></stim_listA>",is flirting with,
null,"<div style=""font-size:60px;"">+</div>",,html-keyboard-response,322,1374329,0.0-17.0-0.19,91976,List1A,black,man,,,,null,,,,
null,"<img src=""stim_listA/fight3.gif""style=""height:400px;""></stim_listA>",,html-keyboard-response,323,1376338,0.0-17.0-1.19,91976,List1A,black,man,,,,null,,,,
null,is fighting,,html-keyboard-response,324,1378342,0.0-17.0-2.19,91976,List1A,black,man,,,,null,,,,
7115,,,survey-text,325,1385463,0.0-17.0-3.19,91976,List1A,black,man,,,,,"{""Q0"":""Jane is fighting Dave.""}","<img src=""stim_listA/fight3.gif""style=""height:400px;""></stim_listA>",is fighting,
20108,"<img src='img/portrait_matrix_list1.jpg' style='width:900px;height:500px;''></img><p>If you have memorised all the portraits and names and are ready to start, press Continue.</p><p><strong>Please note: Your memory of these faces will be tested 4 times during this experiment.</strong></p>",0,html-button-response,326,1405575,0.0-18.0-0.0,91976,List1A,black,man,,,,,,,,
1631,"<img src=""portrait/BM2.jpg""style=""height:400px;""></img>",5,html-button-response,327,1408214,0.0-18.0-1.0,91976,List1A,black,man,,TRUE,5,,,,,
null,CORRECT,,html-keyboard-response,328,1409720,0.0-18.0-2.0-0.0,91976,List1A,black,man,,,,null,,,,
2031,"<img src=""portrait/WW1.jpg""style=""height:400px;""></img>",1,html-button-response,329,1411760,0.0-18.0-4.0,91976,List1A,black,man,,TRUE,1,,,,,
null,CORRECT,,html-keyboard-response,330,1413268,0.0-18.0-5.0-0.0,91976,List1A,black,man,,,,null,,,,
1524,"<img src=""portrait/WM1.jpg""style=""height:400px;""></img>",6,html-button-response,331,1414801,0.0-18.0-7.0,91976,List1A,black,man,,TRUE,6,,,,,
null,CORRECT,,html-keyboard-response,332,1416307,0.0-18.0-8.0-0.0,91976,List1A,black,man,,,,null,,,,
2237,"<img src=""portrait/WW2.jpg""style=""height:400px;""></img>",3,html-button-response,333,1418552,0.0-18.0-10.0,91976,List1A,black,man,,TRUE,3,,,,,
null,CORRECT,,html-keyboard-response,334,1420058,0.0-18.0-11.0-0.0,91976,List1A,black,man,,,,null,,,,
1546,"<img src=""portrait/WM2.jpg""style=""height:400px;""></img>",7,html-button-response,335,1421609,0.0-18.0-13.0,91976,List1A,black,man,,TRUE,7,,,,,
null,CORRECT,,html-keyboard-response,336,1423114,0.0-18.0-14.0-0.0,91976,List1A,black,man,,,,null,,,,
1614,"<img src=""portrait/BW1.jpg""style=""height:400px;""></img>",0,html-button-response,337,1424736,0.0-18.0-16.0,91976,List1A,black,man,,TRUE,0,,,,,
null,CORRECT,,html-keyboard-response,338,1426242,0.0-18.0-17.0-0.0,91976,List1A,black,man,,,,null,,,,
3798,"<img src=""portrait/BW2.jpg""style=""height:400px;""></img>",2,html-button-response,339,1430048,0.0-18.0-19.0,91976,List1A,black,man,,TRUE,2,,,,,
null,CORRECT,,html-keyboard-response,340,1431556,0.0-18.0-20.0-0.0,91976,List1A,black,man,,,,null,,,,
1580,"<img src=""portrait/BM1.jpg""style=""height:400px;""></img>",4,html-button-response,341,1433145,0.0-18.0-22.0,91976,List1A,black,man,,TRUE,4,,,,,
null,CORRECT,,html-keyboard-response,342,1434651,0.0-18.0-23.0-0.0,91976,List1A,black,man,,,,null,,,,
934,<p>You got 8 out of 8 right first time. Press Continue.</p>,0,html-button-response,343,1435593,0.0-18.0-25.0,91976,List1A,black,man,,,,,,,,
null,"<div style=""font-size:60px;"">+</div>",,html-keyboard-response,344,1437103,0.0-19.0-0.0,91976,List1A,black,man,,,,null,,,,
null,"<img src=""stim_listA/argue8.gif""style=""height:400px;""></stim_listA>",,html-keyboard-response,345,1439111,0.0-19.0-1.0,91976,List1A,black,man,,,,null,,,,
null,are arguing with each other,,html-keyboard-response,346,1441115,0.0-19.0-2.0,91976,List1A,black,man,,,,null,,,,
44137,,,survey-text,347,1485257,0.0-19.0-3.0,91976,List1A,black,man,,,,,"{""Q0"":""Jane is arguing with Beth.""}","<img src=""stim_listA/argue8.gif""style=""height:400px;""></stim_listA>",are arguing with each other,
null,"<div style=""font-size:60px;"">+</div>",,html-keyboard-response,348,1485761,0.0-19.0-0.1,91976,List1A,black,man,,,,null,,,,
null,"<img src=""stim_listA/play6.gif""style=""height:400px;""></stim_listA>",,html-keyboard-response,349,1487770,0.0-19.0-1.1,91976,List1A,black,man,,,,null,,,,
null,are playing with each other,,html-keyboard-response,350,1489775,0.0-19.0-2.1,91976,List1A,black,man,,,,null,,,,
26782,,,survey-text,351,1516562,0.0-19.0-3.1,91976,List1A,black,man,,,,,"{""Q0"":""Luke is playing with Fred.""}","<img src=""stim_listA/play6.gif""style=""height:400px;""></stim_listA>",are playing with each other,
null,"<div style=""font-size:60px;"">+</div>",,html-keyboard-response,352,1517066,0.0-19.0-0.2,91976,List1A,black,man,,,,null,,,,
null,"<img src=""stim_listA/kiss1.gif""style=""height:400px;""></stim_listA>",,html-keyboard-response,353,1519074,0.0-19.0-1.2,91976,List1A,black,man,,,,null,,,,
null,is kissing,,html-keyboard-response,354,1521079,0.0-19.0-2.2,91976,List1A,black,man,,,,null,,,,
12576,,,survey-text,355,1533659,0.0-19.0-3.2,91976,List1A,black,man,,,,,"{""Q0"":""Fred is kissing Beth.""}","<img src=""stim_listA/kiss1.gif""style=""height:400px;""></stim_listA>",is kissing,
null,"<div style=""font-size:60px;"">+</div>",,html-keyboard-response,356,1534164,0.0-19.0-0.3,91976,List1A,black,man,,,,null,,,,
null,"<img src=""stim_listA/marry6.gif""style=""height:400px;""></stim_listA>",,html-keyboard-response,357,1536175,0.0-19.0-1.3,91976,List1A,black,man,,,,null,,,,
null,are marrying each other,,html-keyboard-response,358,1538180,0.0-19.0-2.3,91976,List1A,black,man,,,,null,,,,
7178,,,survey-text,359,1545363,0.0-19.0-3.3,91976,List1A,black,man,,,,,"{""Q0"":""Dave is marrying Fred.""}","<img src=""stim_listA/marry6.gif""style=""height:400px;""></stim_listA>",are marrying each other,
null,"<div style=""font-size:60px;"">+</div>",,html-keyboard-response,360,1545867,0.0-19.0-0.4,91976,List1A,black,man,,,,null,,,,
null,"<img src=""stim_listA/flirt3.gif""style=""height:400px;""></stim_listA>",,html-keyboard-response,361,1547877,0.0-19.0-1.4,91976,List1A,black,man,,,,null,,,,
null,is flirting with,,html-keyboard-response,362,1549881,0.0-19.0-2.4,91976,List1A,black,man,,,,null,,,,
7768,,,survey-text,363,1557652,0.0-19.0-3.4,91976,List1A,black,man,,,,,"{""Q0"":""Luke is flirting with Jane.""}","<img src=""stim_listA/flirt3.gif""style=""height:400px;""></stim_listA>",is flirting with,
null,"<div style=""font-size:60px;"">+</div>",,html-keyboard-response,364,1558155,0.0-19.0-0.5,91976,List1A,black,man,,,,null,,,,
null,"<img src=""stim_listA/talk3.gif""style=""height:400px;""></stim_listA>",,html-keyboard-response,365,1560168,0.0-19.0-1.5,91976,List1A,black,man,,,,null,,,,
null,is talking to,,html-keyboard-response,366,1562173,0.0-19.0-2.5,91976,List1A,black,man,,,,null,,,,
13588,,,survey-text,367,1575766,0.0-19.0-3.5,91976,List1A,black,man,,,,,"{""Q0"":""Luke is talking to Jane.""}","<img src=""stim_listA/talk3.gif""style=""height:400px;""></stim_listA>",is talking to,
null,"<div style=""font-size:60px;"">+</div>",,html-keyboard-response,368,1576269,0.0-19.0-0.6,91976,List1A,black,man,,,,null,,,,
null,"<img src=""stim_listA/dance6.gif""style=""height:400px;""></stim_listA>",,html-keyboard-response,369,1578278,0.0-19.0-1.6,91976,List1A,black,man,,,,null,,,,
null,are dancing with each other,,html-keyboard-response,370,1580282,0.0-19.0-2.6,91976,List1A,black,man,,,,null,,,,
16646,,,survey-text,371,1596933,0.0-19.0-3.6,91976,List1A,black,man,,,,,"{""Q0"":""Luke is dancing with Mike.""}","<img src=""stim_listA/dance6.gif""style=""height:400px;""></stim_listA>",are dancing with each other,
null,"<div style=""font-size:60px;"">+</div>",,html-keyboard-response,372,1597437,0.0-19.0-0.7,91976,List1A,black,man,,,,null,,,,
null,"<img src=""stim_listA/talk4.gif""style=""height:400px;""></stim_listA>",,html-keyboard-response,373,1599447,0.0-19.0-1.7,91976,List1A,black,man,,,,null,,,,
null,are talking to each other,,html-keyboard-response,374,1601451,0.0-19.0-2.7,91976,List1A,black,man,,,,null,,,,
9062,,,survey-text,375,1610517,0.0-19.0-3.7,91976,List1A,black,man,,,,,"{""Q0"":""Ruth is talking to Dave.""}","<img src=""stim_listA/talk4.gif""style=""height:400px;""></stim_listA>",are talking to each other,
null,"<div style=""font-size:60px;"">+</div>",,html-keyboard-response,376,1611021,0.0-19.0-0.8,91976,List1A,black,man,,,,null,,,,
null,"<img src=""stim_listA/argue4.gif""style=""height:400px;""></stim_listA>",,html-keyboard-response,377,1613033,0.0-19.0-1.8,91976,List1A,black,man,,,,null,,,,
null,are arguing with each other,,html-keyboard-response,378,1615038,0.0-19.0-2.8,91976,List1A,black,man,,,,null,,,,
12003,,,survey-text,379,1627046,0.0-19.0-3.8,91976,List1A,black,man,,,,,"{""Q0"":""Jane is arguing with Luke.""}","<img src=""stim_listA/argue4.gif""style=""height:400px;""></stim_listA>",are arguing with each other,
null,"<div style=""font-size:60px;"">+</div>",,html-keyboard-response,380,1627549,0.0-19.0-0.9,91976,List1A,black,man,,,,null,,,,
null,"<img src=""stim_listA/talk1.gif""style=""height:400px;""></stim_listA>",,html-keyboard-response,381,1629559,0.0-19.0-1.9,91976,List1A,black,man,,,,null,,,,
null,is talking to,,html-keyboard-response,382,1631564,0.0-19.0-2.9,91976,List1A,black,man,,,,null,,,,
7415,,,survey-text,383,1638984,0.0-19.0-3.9,91976,List1A,black,man,,,,,"{""Q0"":""Fred is talking to Kate.""}","<img src=""stim_listA/talk1.gif""style=""height:400px;""></stim_listA>",is talking to,
null,"<div style=""font-size:60px;"">+</div>",,html-keyboard-response,384,1639487,0.0-19.0-0.10,91976,List1A,black,man,,,,null,,,,
null,"<img src=""stim_listA/marry2.gif""style=""height:400px;""></stim_listA>",,html-keyboard-response,385,1641498,0.0-19.0-1.10,91976,List1A,black,man,,,,null,,,,
null,are marrying each other,,html-keyboard-response,386,1643504,0.0-19.0-2.10,91976,List1A,black,man,,,,null,,,,
6490,,,survey-text,387,1649999,0.0-19.0-3.10,91976,List1A,black,man,,,,,"{""Q0"":""Fred is marrying Kate.""}","<img src=""stim_listA/marry2.gif""style=""height:400px;""></stim_listA>",are marrying each other,
null,"<div style=""font-size:60px;"">+</div>",,html-keyboard-response,388,1650502,0.0-19.0-0.11,91976,List1A,black,man,,,,null,,,,
null,"<img src=""stim_listA/fight1.gif""style=""height:400px;""></stim_listA>",,html-keyboard-response,389,1652506,0.0-19.0-1.11,91976,List1A,black,man,,,,null,,,,
null,is fighting,,html-keyboard-response,390,1654511,0.0-19.0-2.11,91976,List1A,black,man,,,,null,,,,
7920,,,survey-text,391,1662440,0.0-19.0-3.11,91976,List1A,black,man,,,,,"{""Q0"":""Mike is fighting Kate.""}","<img src=""stim_listA/fight1.gif""style=""height:400px;""></stim_listA>",is fighting,
null,"<div style=""font-size:60px;"">+</div>",,html-keyboard-response,392,1662944,0.0-19.0-0.12,91976,List1A,black,man,,,,null,,,,
null,"<img src=""stim_listA/dance1.gif""style=""height:400px;""></stim_listA>",,html-keyboard-response,393,1664953,0.0-19.0-1.12,91976,List1A,black,man,,,,null,,,,
null,is dancing with,,html-keyboard-response,394,1666958,0.0-19.0-2.12,91976,List1A,black,man,,,,null,,,,
12660,,,survey-text,395,1679624,0.0-19.0-3.12,91976,List1A,black,man,,,,,"{""Q0"":""Fred is dancing with Kate.""}","<img src=""stim_listA/dance1.gif""style=""height:400px;""></stim_listA>",is dancing with,
null,"<div style=""font-size:60px;"">+</div>",,html-keyboard-response,396,1680127,0.0-19.0-0.13,91976,List1A,black,man,,,,null,,,,
null,"<img src=""stim_listA/kiss2.gif""style=""height:400px;""></stim_listA>",,html-keyboard-response,397,1682134,0.0-19.0-1.13,91976,List1A,black,man,,,,null,,,,
null,are kissing each other,,html-keyboard-response,398,1684139,0.0-19.0-2.13,91976,List1A,black,man,,,,null,,,,
9872,,,survey-text,399,1694016,0.0-19.0-3.13,91976,List1A,black,man,,,,,"{""Q0"":""Kate and Mike are kissing each other.""}","<img src=""stim_listA/kiss2.gif""style=""height:400px;""></stim_listA>",are kissing each other,
null,"<div style=""font-size:60px;"">+</div>",,html-keyboard-response,400,1694519,0.0-19.0-0.14,91976,List1A,black,man,,,,null,,,,
null,"<img src=""stim_listA/talk8.gif""style=""height:400px;""></stim_listA>",,html-keyboard-response,401,1696528,0.0-19.0-1.14,91976,List1A,black,man,,,,null,,,,
null,are talking to each other,,html-keyboard-response,402,1698532,0.0-19.0-2.14,91976,List1A,black,man,,,,null,,,,
12704,,,survey-text,403,1711241,0.0-19.0-3.14,91976,List1A,black,man,,,,,"{""Q0"":""Ruth is talking with Jane.""}","<img src=""stim_listA/talk8.gif""style=""height:400px;""></stim_listA>",are talking to each other,
null,"<div style=""font-size:60px;"">+</div>",,html-keyboard-response,404,1711745,0.0-19.0-0.15,91976,List1A,black,man,,,,null,,,,
null,"<img src=""stim_listA/fight7.gif""style=""height:400px;""></stim_listA>",,html-keyboard-response,405,1713755,0.0-19.0-1.15,91976,List1A,black,man,,,,null,,,,
null,is fighting,,html-keyboard-response,406,1715760,0.0-19.0-2.15,91976,List1A,black,man,,,,null,,,,
11886,,,survey-text,407,1727651,0.0-19.0-3.15,91976,List1A,black,man,,,,,"{""Q0"":""Jane is fighting Kate.""}","<img src=""stim_listA/fight7.gif""style=""height:400px;""></stim_listA>",is fighting,
null,"<div style=""font-size:60px;"">+</div>",,html-keyboard-response,408,1728155,0.0-19.0-0.16,91976,List1A,black,man,,,,null,,,,
null,"<img src=""stim_listA/shout3.gif""style=""height:400px;""></stim_listA>",,html-keyboard-response,409,1730165,0.0-19.0-1.16,91976,List1A,black,man,,,,null,,,,
null,is shouting at,,html-keyboard-response,410,1732170,0.0-19.0-2.16,91976,List1A,black,man,,,,null,,,,
7690,,,survey-text,411,1739866,0.0-19.0-3.16,91976,List1A,black,man,,,,,"{""Q0"":""Ruth is shouting at Luke.""}","<img src=""stim_listA/shout3.gif""style=""height:400px;""></stim_listA>",is shouting at,
null,"<div style=""font-size:60px;"">+</div>",,html-keyboard-response,412,1740369,0.0-19.0-0.17,91976,List1A,black,man,,,,null,,,,
null,"<img src=""stim_listA/kiss8.gif""style=""height:400px;""></stim_listA>",,html-keyboard-response,413,1742379,0.0-19.0-1.17,91976,List1A,black,man,,,,null,,,,
null,are kissing each other,,html-keyboard-response,414,1744384,0.0-19.0-2.17,91976,List1A,black,man,,,,null,,,,
12439,,,survey-text,415,1756828,0.0-19.0-3.17,91976,List1A,black,man,,,,,"{""Q0"":""Jane is kissing Kate.""}","<img src=""stim_listA/kiss8.gif""style=""height:400px;""></stim_listA>",are kissing each other,
null,"<div style=""font-size:60px;"">+</div>",,html-keyboard-response,416,1757331,0.0-19.0-0.18,91976,List1A,black,man,,,,null,,,,
null,"<img src=""stim_listA/kiss5.gif""style=""height:400px;""></stim_listA>",,html-keyboard-response,417,1759335,0.0-19.0-1.18,91976,List1A,black,man,,,,null,,,,
null,is kissing,,html-keyboard-response,418,1761340,0.0-19.0-2.18,91976,List1A,black,man,,,,null,,,,
7195,,,survey-text,419,1768540,0.0-19.0-3.18,91976,List1A,black,man,,,,,"{""Q0"":""Fred is kissing Luke.""}","<img src=""stim_listA/kiss5.gif""style=""height:400px;""></stim_listA>",is kissing,
null,"<div style=""font-size:60px;"">+</div>",,html-keyboard-response,420,1769044,0.0-19.0-0.19,91976,List1A,black,man,,,,null,,,,
null,"<img src=""stim_listA/touch5.gif""style=""height:400px;""></stim_listA>",,html-keyboard-response,421,1771057,0.0-19.0-1.19,91976,List1A,black,man,,,,null,,,,
null,is touching,,html-keyboard-response,422,1773061,0.0-19.0-2.19,91976,List1A,black,man,,,,null,,,,
9556,,,survey-text,423,1782627,0.0-19.0-3.19,91976,List1A,black,man,,,,,"{""Q0"":""Mike is touching Dave""}","<img src=""stim_listA/touch5.gif""style=""height:400px;""></stim_listA>",is touching,
2750,<p>Thank you for completing that task.</p><p>The final part of this session is a short questionnaire.</p><p>Press Continue.</p>,0,html-button-response,424,1785380,0.0-20.0,91976,List1A,black,man,,,,,,,,
35086,,,survey-text,425,1821477,0.0-21.0,91976,List1A,black,man,,,,,"{""Q0"":""18"",""Q1"":""English"",""Q2"":""English"",""Q3"":""United States of America"",""Q4"":""African American"",""Q5"":""Male""}",,,demographics
6956,,,survey-likert,426,1828447,0.0-22.0,91976,List1A,black,man,,,,,"{""Q0"":3}",,,likert_ESS
3759,,,survey-likert,427,1832213,0.0-23.0,91976,List1A,black,man,,,,,"{""Q0"":2}",,,likert_NSSAL_Q1
3553,,,survey-likert,428,1835773,0.0-24.0,91976,List1A,black,man,,,,,"{""Q0"":2}",,,likert_NSSAL_Q2
6890,,,survey-likert,429,1842670,0.0-25.0,91976,List1A,black,man,,,,,"{""Q0"":4}",,,likert_CGRS_Q1
2299,,,survey-likert,430,1844975,0.0-26.0,91976,List1A,black,man,,,,,"{""Q0"":4}",,,likert_CGRS_Q2
1818,,,survey-likert,431,1846798,0.0-27.0,91976,List1A,black,man,,,,,"{""Q0"":4}",,,likert_CGRS_Q3
7659,,,survey-text,432,1854462,0.0-28.0,91976,List1A,black,man,,,,,"{""Q0"":""ccc""}",,,worker_id
20839,,,external-html,433,1875637,0.0-29.0,91976,List1A,black,man,debrief.html,,,,,,,
