rt,stimulus,button_pressed,trial_type,trial_index,time_elapsed,internal_node_id,subject,list,ppt_race,ppt_gender,url,first_guess,correct,key_press,responses,image_type,phrase_type,test_part
1911,Welcome to the experiment. Press Continue to begin.,0,html-button-response,0,1915,0.0-0.0,92626,List2A,black,woman,,,,,,,,
51331,,,external-html,1,54294,0.0-1.0,92626,List2A,black,woman,consent.html,,,,,,,
23072,"<p>On the next page, you will see portraits of 8 people and their names.</p><p>Your first task is to take a few minutes to memorise the names of these people.</p><p>You will have to recall their names during the rest of the experiment, so it is</p><p>essential that you try to memorise these people and their names as best as you can.</p><br><p><strong>You will then be tested on your memory of these names and portraits.</strong></p><br><p>The experiment will start after you have completed this memory test.</p><br><p>Ready?</p>",0,html-button-response,2,77368,0.0-2.0,92626,List2A,black,woman,,,,,,,,
97624,"<img src='img/portrait_matrix_list2.jpg' style='width:900px;height:500px;''></img><p>If you have memorised all the portraits and names and are ready to start, press Continue.</p><p><strong>Please note: Your memory of these faces will be tested 4 times during this experiment.</strong></p>",0,html-button-response,3,175995,0.0-3.0-0.0,92626,List2A,black,woman,,,,,,,,
14805,"<img src=""portrait/BM2.jpg""style=""height:400px;""></img>",5,html-button-response,4,191803,0.0-3.0-1.0,92626,List2A,black,woman,,TRUE,5,,,,,
null,CORRECT,,html-keyboard-response,5,193317,0.0-3.0-2.0-0.0,92626,List2A,black,woman,,,,null,,,,
9098,"<img src=""portrait/BW1.jpg""style=""height:400px;""></img>",0,html-button-response,6,202418,0.0-3.0-4.0,92626,List2A,black,woman,,TRUE,0,,,,,
null,CORRECT,,html-keyboard-response,7,203921,0.0-3.0-5.0-0.0,92626,List2A,black,woman,,,,null,,,,
9672,"<img src=""portrait/WM2.jpg""style=""height:400px;""></img>",7,html-button-response,8,213594,0.0-3.0-7.0,92626,List2A,black,woman,,TRUE,7,,,,,
null,CORRECT,,html-keyboard-response,9,215096,0.0-3.0-8.0-0.0,92626,List2A,black,woman,,,,null,,,,
10715,"<img src=""portrait/WW2.jpg""style=""height:400px;""></img>",2,html-button-response,10,225813,0.0-3.0-10.0,92626,List2A,black,woman,,TRUE,3,,,,,
2885,"<img src=""portrait/WW2.jpg""style=""height:400px;""></img>",3,html-button-response,11,229701,0.0-3.0-12.0-0.0,92626,List2A,black,woman,,FALSE,3,,,,,
null,CORRECT,,html-keyboard-response,12,231204,0.0-3.0-12.0-1.0-0.0,92626,List2A,black,woman,,,,null,,,,
8846,"<img src=""portrait/BW2.jpg""style=""height:400px;""></img>",2,html-button-response,13,240052,0.0-3.0-13.0,92626,List2A,black,woman,,TRUE,2,,,,,
null,CORRECT,,html-keyboard-response,14,241554,0.0-3.0-14.0-0.0,92626,List2A,black,woman,,,,null,,,,
4608,"<img src=""portrait/WM1.jpg""style=""height:400px;""></img>",6,html-button-response,15,246164,0.0-3.0-16.0,92626,List2A,black,woman,,TRUE,6,,,,,
null,CORRECT,,html-keyboard-response,16,247667,0.0-3.0-17.0-0.0,92626,List2A,black,woman,,,,null,,,,
11655,"<img src=""portrait/WW1.jpg""style=""height:400px;""></img>",2,html-button-response,17,259324,0.0-3.0-19.0,92626,List2A,black,woman,,TRUE,1,,,,,
1677,"<img src=""portrait/WW1.jpg""style=""height:400px;""></img>",1,html-button-response,18,262004,0.0-3.0-21.0-0.0,92626,List2A,black,woman,,FALSE,1,,,,,
null,CORRECT,,html-keyboard-response,19,263506,0.0-3.0-21.0-1.0-0.0,92626,List2A,black,woman,,,,null,,,,
6759,"<img src=""portrait/BM1.jpg""style=""height:400px;""></img>",4,html-button-response,20,270268,0.0-3.0-22.0,92626,List2A,black,woman,,TRUE,4,,,,,
null,CORRECT,,html-keyboard-response,21,271770,0.0-3.0-23.0-0.0,92626,List2A,black,woman,,,,null,,,,
1632,<p>You got 6 out of 8 right first time. Press Continue.</p>,0,html-button-response,22,273403,0.0-3.0-25.0,92626,List2A,black,woman,,,,,,,,
2341,"As you did not score 100%, the memory game will repeat. Press Continue.",0,html-button-response,23,276747,0.0-3.0-26.0-0.0,92626,List2A,black,woman,,,,,,,,
4852,"<img src='img/portrait_matrix_list2.jpg' style='width:900px;height:500px;''></img><p>If you have memorised all the portraits and names and are ready to start, press Continue.</p><p><strong>Please note: Your memory of these faces will be tested 4 times during this experiment.</strong></p>",0,html-button-response,24,282603,0.0-3.1-0.1,92626,List2A,black,woman,,,,,,,,
3753,"<img src=""portrait/BM2.jpg""style=""height:400px;""></img>",5,html-button-response,25,287359,0.0-3.1-1.1,92626,List2A,black,woman,,TRUE,5,,,,,
null,CORRECT,,html-keyboard-response,26,288861,0.0-3.1-2.1-0.1,92626,List2A,black,woman,,,,null,,,,
7472,"<img src=""portrait/BW1.jpg""style=""height:400px;""></img>",0,html-button-response,27,296335,0.0-3.1-4.1,92626,List2A,black,woman,,TRUE,0,,,,,
null,CORRECT,,html-keyboard-response,28,297837,0.0-3.1-5.1-0.1,92626,List2A,black,woman,,,,null,,,,
3384,"<img src=""portrait/WM2.jpg""style=""height:400px;""></img>",7,html-button-response,29,301223,0.0-3.1-7.1,92626,List2A,black,woman,,TRUE,7,,,,,
null,CORRECT,,html-keyboard-response,30,302725,0.0-3.1-8.1-0.1,92626,List2A,black,woman,,,,null,,,,
9800,"<img src=""portrait/WW2.jpg""style=""height:400px;""></img>",3,html-button-response,31,312527,0.0-3.1-10.1,92626,List2A,black,woman,,TRUE,3,,,,,
null,CORRECT,,html-keyboard-response,32,314029,0.0-3.1-11.1-0.1,92626,List2A,black,woman,,,,null,,,,
4302,"<img src=""portrait/BW2.jpg""style=""height:400px;""></img>",2,html-button-response,33,318334,0.0-3.1-13.1,92626,List2A,black,woman,,TRUE,2,,,,,
null,CORRECT,,html-keyboard-response,34,319837,0.0-3.1-14.1-0.1,92626,List2A,black,woman,,,,null,,,,
3647,"<img src=""portrait/WM1.jpg""style=""height:400px;""></img>",6,html-button-response,35,323487,0.0-3.1-16.1,92626,List2A,black,woman,,TRUE,6,,,,,
null,CORRECT,,html-keyboard-response,36,324989,0.0-3.1-17.1-0.1,92626,List2A,black,woman,,,,null,,,,
4191,"<img src=""portrait/WW1.jpg""style=""height:400px;""></img>",1,html-button-response,37,329182,0.0-3.1-19.1,92626,List2A,black,woman,,TRUE,1,,,,,
null,CORRECT,,html-keyboard-response,38,330684,0.0-3.1-20.1-0.1,92626,List2A,black,woman,,,,null,,,,
4904,"<img src=""portrait/BM1.jpg""style=""height:400px;""></img>",4,html-button-response,39,335591,0.0-3.1-22.1,92626,List2A,black,woman,,TRUE,4,,,,,
null,CORRECT,,html-keyboard-response,40,337094,0.0-3.1-23.1-0.1,92626,List2A,black,woman,,,,null,,,,
1318,<p>You got 8 out of 8 right first time. Press Continue.</p>,0,html-button-response,41,338414,0.0-3.1-25.1,92626,List2A,black,woman,,,,,,,,
23584,"<p>In this experiment, you will view photographs of the people from the memory game interacting.</p><p>By using the <strong>exact</strong> phrase given <i>after</i> the photograph appears and recalling the correct names of the people in the photographs, form a sentence describing the interaction. You do not need to capitalise names.</p><p>Type your answer in the space provided. Please complete every sentence before moving onto the next trial.</p><p>You will only have a few seconds to memorise each given photograph and phrase before you can respond, so try your best to focus.</p><p>An example is given below. Press 'Continue' when you are ready.</p><img src='img/speaking_example.jpg' style='width:800px;height:460px;''></img>",0,html-button-response,42,363001,0.0-4.0,92626,List2A,black,woman,,,,,,,,
2358,"<p>Before the experiment starts, you will watch two example trials. Press 'Continue'.</p>",0,html-button-response,43,366360,0.0-5.0,92626,List2A,black,woman,,,,,,,,
null,<img src='img/meet_eg.gif' style='height:400px;''></img>,,html-keyboard-response,44,369364,0.0-6.0,92626,List2A,black,woman,,,,null,,,,
null,<p>is meeting</p>,,html-keyboard-response,45,371365,0.0-7.0,92626,List2A,black,woman,,,,null,,,,
3514,<p><b>Answer:</b> jane is meeting ruth</p>,0,html-button-response,46,374880,0.0-8.0,92626,List2A,black,woman,,,,,,,,
null,<img src='img/look_eg.gif' style='height:400px;''></img>,,html-keyboard-response,47,377882,0.0-9.0,92626,List2A,black,woman,,,,null,,,,
null,<p>are looking at each other</p>,,html-keyboard-response,48,379883,0.0-10.0,92626,List2A,black,woman,,,,null,,,,
3859,<p><b>Answer:</b> fred and mike are looking at each other</p>,0,html-button-response,49,383744,0.0-11.0,92626,List2A,black,woman,,,,,,,,
4925,"<p>Ready to start the experiment?</p><br><p><strong>Remember to describe the picture using a full sentence,</strong></p><p><strong>that combines the names of the people with the <i>exact</i> phrase given.</strong></p><p><strong>To receive full payment you must do this correctly.</strong></p><p><strong> You do not need to capitalise names or use punctuation.</strong></p><br><p>Press 'Continue' to begin.</p>",0,html-button-response,50,389672,0.0-12.0,92626,List2A,black,woman,,,,,,,,
null,"<div style=""font-size:60px;"">+</div>",,html-keyboard-response,51,391174,0.0-13.0-0.0,92626,List2A,black,woman,,,,null,,,,
null,"<img src=""stim_listA/marry2.gif""style=""height:400px;""></stim_listA>",,html-keyboard-response,52,393177,0.0-13.0-1.0,92626,List2A,black,woman,,,,null,,,,
null,are marrying each other,,html-keyboard-response,53,395178,0.0-13.0-2.0,92626,List2A,black,woman,,,,null,,,,
32151,,,survey-text,54,427331,0.0-13.0-3.0,92626,List2A,black,woman,,,,,"{""Q0"":""Jane is meeting Luke""}","<img src=""stim_listA/marry2.gif""style=""height:400px;""></stim_listA>",are marrying each other,
null,"<div style=""font-size:60px;"">+</div>",,html-keyboard-response,55,427833,0.0-13.0-0.1,92626,List2A,black,woman,,,,null,,,,
null,"<img src=""stim_listA/dance7.gif""style=""height:400px;""></stim_listA>",,html-keyboard-response,56,429835,0.0-13.0-1.1,92626,List2A,black,woman,,,,null,,,,
null,is dancing with,,html-keyboard-response,57,431836,0.0-13.0-2.1,92626,List2A,black,woman,,,,null,,,,
14052,,,survey-text,58,445890,0.0-13.0-3.1,92626,List2A,black,woman,,,,,"{""Q0"":""Ruth is dancing with Kate""}","<img src=""stim_listA/dance7.gif""style=""height:400px;""></stim_listA>",is dancing with,
null,"<div style=""font-size:60px;"">+</div>",,html-keyboard-response,59,446395,0.0-13.0-0.2,92626,List2A,black,woman,,,,null,,,,
null,"<img src=""stim_listA/flirt4.gif""style=""height:400px;""></stim_listA>",,html-keyboard-response,60,448398,0.0-13.0-1.2,92626,List2A,black,woman,,,,null,,,,
null,are flirting with each other,,html-keyboard-response,61,450399,0.0-13.0-2.2,92626,List2A,black,woman,,,,null,,,,
29213,,,survey-text,62,479614,0.0-13.0-3.2,92626,List2A,black,woman,,,,,"{""Q0"":""Kate is flirting with Mike""}","<img src=""stim_listA/flirt4.gif""style=""height:400px;""></stim_listA>",are flirting with each other,
null,"<div style=""font-size:60px;"">+</div>",,html-keyboard-response,63,480115,0.0-13.0-0.3,92626,List2A,black,woman,,,,null,,,,
null,"<img src=""stim_listA/flirt3.gif""style=""height:400px;""></stim_listA>",,html-keyboard-response,64,482117,0.0-13.0-1.3,92626,List2A,black,woman,,,,null,,,,
null,is flirting with,,html-keyboard-response,65,484118,0.0-13.0-2.3,92626,List2A,black,woman,,,,null,,,,
14126,,,survey-text,66,498245,0.0-13.0-3.3,92626,List2A,black,woman,,,,,"{""Q0"":""Kate is flirting with Mike""}","<img src=""stim_listA/flirt3.gif""style=""height:400px;""></stim_listA>",is flirting with,
null,"<div style=""font-size:60px;"">+</div>",,html-keyboard-response,67,498747,0.0-13.0-0.4,92626,List2A,black,woman,,,,null,,,,
null,"<img src=""stim_listA/fight8.gif""style=""height:400px;""></stim_listA>",,html-keyboard-response,68,500749,0.0-13.0-1.4,92626,List2A,black,woman,,,,null,,,,
null,are fighting each other,,html-keyboard-response,69,502750,0.0-13.0-2.4,92626,List2A,black,woman,,,,null,,,,
24749,,,survey-text,70,527501,0.0-13.0-3.4,92626,List2A,black,woman,,,,,"{""Q0"":""Ruth and Beth are fighting each other""}","<img src=""stim_listA/fight8.gif""style=""height:400px;""></stim_listA>",are fighting each other,
null,"<div style=""font-size:60px;"">+</div>",,html-keyboard-response,71,528002,0.0-13.0-0.5,92626,List2A,black,woman,,,,null,,,,
null,"<img src=""stim_listA/shout1.gif""style=""height:400px;""></stim_listA>",,html-keyboard-response,72,530004,0.0-13.0-1.5,92626,List2A,black,woman,,,,null,,,,
null,is shouting at,,html-keyboard-response,73,532005,0.0-13.0-2.5,92626,List2A,black,woman,,,,null,,,,
19008,,,survey-text,74,551015,0.0-13.0-3.5,92626,List2A,black,woman,,,,,"{""Q0"":""Ruth and Luke are fighting each other""}","<img src=""stim_listA/shout1.gif""style=""height:400px;""></stim_listA>",is shouting at,
null,"<div style=""font-size:60px;"">+</div>",,html-keyboard-response,75,551516,0.0-13.0-0.6,92626,List2A,black,woman,,,,null,,,,
null,"<img src=""stim_listA/talk4.gif""style=""height:400px;""></stim_listA>",,html-keyboard-response,76,553518,0.0-13.0-1.6,92626,List2A,black,woman,,,,null,,,,
null,are talking to each other,,html-keyboard-response,77,555519,0.0-13.0-2.6,92626,List2A,black,woman,,,,null,,,,
32493,,,survey-text,78,588014,0.0-13.0-3.6,92626,List2A,black,woman,,,,,"{""Q0"":""Beth and Mike are fighting each other""}","<img src=""stim_listA/talk4.gif""style=""height:400px;""></stim_listA>",are talking to each other,
null,"<div style=""font-size:60px;"">+</div>",,html-keyboard-response,79,588516,0.0-13.0-0.7,92626,List2A,black,woman,,,,null,,,,
null,"<img src=""stim_listA/shout7.gif""style=""height:400px;""></stim_listA>",,html-keyboard-response,80,590518,0.0-13.0-1.7,92626,List2A,black,woman,,,,null,,,,
null,is shouting at,,html-keyboard-response,81,592519,0.0-13.0-2.7,92626,List2A,black,woman,,,,null,,,,
24386,,,survey-text,82,616906,0.0-13.0-3.7,92626,List2A,black,woman,,,,,"{""Q0"":""Ruth and Beth are shouting at each other""}","<img src=""stim_listA/shout7.gif""style=""height:400px;""></stim_listA>",is shouting at,
null,"<div style=""font-size:60px;"">+</div>",,html-keyboard-response,83,617407,0.0-13.0-0.8,92626,List2A,black,woman,,,,null,,,,
null,"<img src=""stim_listA/fight3.gif""style=""height:400px;""></stim_listA>",,html-keyboard-response,84,619409,0.0-13.0-1.8,92626,List2A,black,woman,,,,null,,,,
null,is fighting,,html-keyboard-response,85,621410,0.0-13.0-2.8,92626,List2A,black,woman,,,,null,,,,
30701,,,survey-text,86,652113,0.0-13.0-3.8,92626,List2A,black,woman,,,,,"{""Q0"":""Kate and Mike are fighting each other""}","<img src=""stim_listA/fight3.gif""style=""height:400px;""></stim_listA>",is fighting,
null,"<div style=""font-size:60px;"">+</div>",,html-keyboard-response,87,652615,0.0-13.0-0.9,92626,List2A,black,woman,,,,null,,,,
null,"<img src=""stim_listA/fight2.gif""style=""height:400px;""></stim_listA>",,html-keyboard-response,88,654618,0.0-13.0-1.9,92626,List2A,black,woman,,,,null,,,,
null,are fighting each other,,html-keyboard-response,89,656620,0.0-13.0-2.9,92626,List2A,black,woman,,,,null,,,,
15815,,,survey-text,90,672436,0.0-13.0-3.9,92626,List2A,black,woman,,,,,"{""Q0"":""Ruth and Luke are fighting each other""}","<img src=""stim_listA/fight2.gif""style=""height:400px;""></stim_listA>",are fighting each other,
null,"<div style=""font-size:60px;"">+</div>",,html-keyboard-response,91,672938,0.0-13.0-0.10,92626,List2A,black,woman,,,,null,,,,
null,"<img src=""stim_listA/touch2.gif""style=""height:400px;""></stim_listA>",,html-keyboard-response,92,674940,0.0-13.0-1.10,92626,List2A,black,woman,,,,null,,,,
null,are touching each other,,html-keyboard-response,93,676941,0.0-13.0-2.10,92626,List2A,black,woman,,,,null,,,,
14261,,,survey-text,94,691203,0.0-13.0-3.10,92626,List2A,black,woman,,,,,"{""Q0"":""Ruth and Luke are touching each other""}","<img src=""stim_listA/touch2.gif""style=""height:400px;""></stim_listA>",are touching each other,
null,"<div style=""font-size:60px;"">+</div>",,html-keyboard-response,95,691705,0.0-13.0-0.11,92626,List2A,black,woman,,,,null,,,,
null,"<img src=""stim_listA/play8.gif""style=""height:400px;""></stim_listA>",,html-keyboard-response,96,693707,0.0-13.0-1.11,92626,List2A,black,woman,,,,null,,,,
null,are playing with each other,,html-keyboard-response,97,695708,0.0-13.0-2.11,92626,List2A,black,woman,,,,null,,,,
28465,,,survey-text,98,724174,0.0-13.0-3.11,92626,List2A,black,woman,,,,,"{""Q0"":""Ruth and Beth are playing with each other""}","<img src=""stim_listA/play8.gif""style=""height:400px;""></stim_listA>",are playing with each other,
null,"<div style=""font-size:60px;"">+</div>",,html-keyboard-response,99,724676,0.0-13.0-0.12,92626,List2A,black,woman,,,,null,,,,
null,"<img src=""stim_listA/dance5.gif""style=""height:400px;""></stim_listA>",,html-keyboard-response,100,726678,0.0-13.0-1.12,92626,List2A,black,woman,,,,null,,,,
null,is dancing with,,html-keyboard-response,101,728679,0.0-13.0-2.12,92626,List2A,black,woman,,,,null,,,,
32070,,,survey-text,102,760749,0.0-13.0-3.12,92626,List2A,black,woman,,,,,"{""Q0"":""Luke and Fred are dancing with each other""}","<img src=""stim_listA/dance5.gif""style=""height:400px;""></stim_listA>",is dancing with,
null,"<div style=""font-size:60px;"">+</div>",,html-keyboard-response,103,761251,0.0-13.0-0.13,92626,List2A,black,woman,,,,null,,,,
null,"<img src=""stim_listA/play2.gif""style=""height:400px;""></stim_listA>",,html-keyboard-response,104,763253,0.0-13.0-1.13,92626,List2A,black,woman,,,,null,,,,
null,are playing with each other,,html-keyboard-response,105,765254,0.0-13.0-2.13,92626,List2A,black,woman,,,,null,,,,
18561,,,survey-text,106,783816,0.0-13.0-3.13,92626,List2A,black,woman,,,,,"{""Q0"":""Luke and Ruth are playing with each other""}","<img src=""stim_listA/play2.gif""style=""height:400px;""></stim_listA>",are playing with each other,
null,"<div style=""font-size:60px;"">+</div>",,html-keyboard-response,107,784317,0.0-13.0-0.14,92626,List2A,black,woman,,,,null,,,,
null,"<img src=""stim_listA/talk3.gif""style=""height:400px;""></stim_listA>",,html-keyboard-response,108,786319,0.0-13.0-1.14,92626,List2A,black,woman,,,,null,,,,
null,is talking to,,html-keyboard-response,109,788320,0.0-13.0-2.14,92626,List2A,black,woman,,,,null,,,,
28830,,,survey-text,110,817151,0.0-13.0-3.14,92626,List2A,black,woman,,,,,"{""Q0"":""Kate and Mike are talking to each other""}","<img src=""stim_listA/talk3.gif""style=""height:400px;""></stim_listA>",is talking to,
null,"<div style=""font-size:60px;"">+</div>",,html-keyboard-response,111,817653,0.0-13.0-0.15,92626,List2A,black,woman,,,,null,,,,
null,"<img src=""stim_listA/touch3.gif""style=""height:400px;""></stim_listA>",,html-keyboard-response,112,819655,0.0-13.0-1.15,92626,List2A,black,woman,,,,null,,,,
null,is touching,,html-keyboard-response,113,821657,0.0-13.0-2.15,92626,List2A,black,woman,,,,null,,,,
35943,,,survey-text,114,857602,0.0-13.0-3.15,92626,List2A,black,woman,,,,,"{""Q0"":""Kate and Mike are touching""}","<img src=""stim_listA/touch3.gif""style=""height:400px;""></stim_listA>",is touching,
null,"<div style=""font-size:60px;"">+</div>",,html-keyboard-response,115,858104,0.0-13.0-0.16,92626,List2A,black,woman,,,,null,,,,
null,"<img src=""stim_listA/touch1.gif""style=""height:400px;""></stim_listA>",,html-keyboard-response,116,860107,0.0-13.0-1.16,92626,List2A,black,woman,,,,null,,,,
null,is touching,,html-keyboard-response,117,862109,0.0-13.0-2.16,92626,List2A,black,woman,,,,null,,,,
22435,,,survey-text,118,884546,0.0-13.0-3.16,92626,List2A,black,woman,,,,,"{""Q0"":""Jane and Dave are touching""}","<img src=""stim_listA/touch1.gif""style=""height:400px;""></stim_listA>",is touching,
null,"<div style=""font-size:60px;"">+</div>",,html-keyboard-response,119,885047,0.0-13.0-0.17,92626,List2A,black,woman,,,,null,,,,
null,"<img src=""stim_listA/kiss8.gif""style=""height:400px;""></stim_listA>",,html-keyboard-response,120,887049,0.0-13.0-1.17,92626,List2A,black,woman,,,,null,,,,
null,are kissing each other,,html-keyboard-response,121,889050,0.0-13.0-2.17,92626,List2A,black,woman,,,,null,,,,
69298,,,survey-text,122,958350,0.0-13.0-3.17,92626,List2A,black,woman,,,,,"{""Q0"":""Jane and Mike are dancing""}","<img src=""stim_listA/kiss8.gif""style=""height:400px;""></stim_listA>",are kissing each other,
null,"<div style=""font-size:60px;"">+</div>",,html-keyboard-response,123,958851,0.0-13.0-0.18,92626,List2A,black,woman,,,,null,,,,
null,"<img src=""stim_listA/play4.gif""style=""height:400px;""></stim_listA>",,html-keyboard-response,124,960854,0.0-13.0-1.18,92626,List2A,black,woman,,,,null,,,,
null,are playing with each other,,html-keyboard-response,125,962855,0.0-13.0-2.18,92626,List2A,black,woman,,,,null,,,,
26070,,,survey-text,126,988926,0.0-13.0-3.18,92626,List2A,black,woman,,,,,"{""Q0"":""Kate and Fred are playing with each other""}","<img src=""stim_listA/play4.gif""style=""height:400px;""></stim_listA>",are playing with each other,
null,"<div style=""font-size:60px;"">+</div>",,html-keyboard-response,127,989428,0.0-13.0-0.19,92626,List2A,black,woman,,,,null,,,,
null,"<img src=""stim_listA/fight1.gif""style=""height:400px;""></stim_listA>",,html-keyboard-response,128,991432,0.0-13.0-1.19,92626,List2A,black,woman,,,,null,,,,
null,is fighting,,html-keyboard-response,129,993434,0.0-13.0-2.19,92626,List2A,black,woman,,,,null,,,,
15469,,,survey-text,130,1008904,0.0-13.0-3.19,92626,List2A,black,woman,,,,,"{""Q0"":""Dave and Jane are fighting""}","<img src=""stim_listA/fight1.gif""style=""height:400px;""></stim_listA>",is fighting,
37837,"<img src='img/portrait_matrix_list2.jpg' style='width:900px;height:500px;''></img><p>If you have memorised all the portraits and names and are ready to start, press Continue.</p><p><strong>Please note: Your memory of these faces will be tested 4 times during this experiment.</strong></p>",0,html-button-response,131,1046744,0.0-14.0-0.0,92626,List2A,black,woman,,,,,,,,
6430,"<img src=""portrait/BM1.jpg""style=""height:400px;""></img>",4,html-button-response,132,1054176,0.0-14.0-1.0,92626,List2A,black,woman,,TRUE,4,,,,,
null,CORRECT,,html-keyboard-response,133,1055678,0.0-14.0-2.0-0.0,92626,List2A,black,woman,,,,null,,,,
7215,"<img src=""portrait/WW1.jpg""style=""height:400px;""></img>",1,html-button-response,134,1062895,0.0-14.0-4.0,92626,List2A,black,woman,,TRUE,1,,,,,
null,CORRECT,,html-keyboard-response,135,1064397,0.0-14.0-5.0-0.0,92626,List2A,black,woman,,,,null,,,,
10012,"<img src=""portrait/WW2.jpg""style=""height:400px;""></img>",3,html-button-response,136,1074411,0.0-14.0-7.0,92626,List2A,black,woman,,TRUE,3,,,,,
null,CORRECT,,html-keyboard-response,137,1075914,0.0-14.0-8.0-0.0,92626,List2A,black,woman,,,,null,,,,
3207,"<img src=""portrait/WM2.jpg""style=""height:400px;""></img>",7,html-button-response,138,1079123,0.0-14.0-10.0,92626,List2A,black,woman,,TRUE,7,,,,,
null,CORRECT,,html-keyboard-response,139,1080625,0.0-14.0-11.0-0.0,92626,List2A,black,woman,,,,null,,,,
3136,"<img src=""portrait/WM1.jpg""style=""height:400px;""></img>",6,html-button-response,140,1083763,0.0-14.0-13.0,92626,List2A,black,woman,,TRUE,6,,,,,
null,CORRECT,,html-keyboard-response,141,1085265,0.0-14.0-14.0-0.0,92626,List2A,black,woman,,,,null,,,,
12768,"<img src=""portrait/BM2.jpg""style=""height:400px;""></img>",5,html-button-response,142,1098035,0.0-14.0-16.0,92626,List2A,black,woman,,TRUE,5,,,,,
null,CORRECT,,html-keyboard-response,143,1099537,0.0-14.0-17.0-0.0,92626,List2A,black,woman,,,,null,,,,
4639,"<img src=""portrait/BW1.jpg""style=""height:400px;""></img>",0,html-button-response,144,1104178,0.0-14.0-19.0,92626,List2A,black,woman,,TRUE,0,,,,,
null,CORRECT,,html-keyboard-response,145,1105681,0.0-14.0-20.0-0.0,92626,List2A,black,woman,,,,null,,,,
5079,"<img src=""portrait/BW2.jpg""style=""height:400px;""></img>",2,html-button-response,146,1110762,0.0-14.0-22.0,92626,List2A,black,woman,,TRUE,2,,,,,
null,CORRECT,,html-keyboard-response,147,1112264,0.0-14.0-23.0-0.0,92626,List2A,black,woman,,,,null,,,,
1360,<p>You got 8 out of 8 right first time. Press Continue.</p>,0,html-button-response,148,1113626,0.0-14.0-25.0,92626,List2A,black,woman,,,,,,,,
null,"<div style=""font-size:60px;"">+</div>",,html-keyboard-response,149,1115129,0.0-15.0-0.0,92626,List2A,black,woman,,,,null,,,,
null,"<img src=""stim_listA/marry3.gif""style=""height:400px;""></stim_listA>",,html-keyboard-response,150,1117132,0.0-15.0-1.0,92626,List2A,black,woman,,,,null,,,,
null,is marrying,,html-keyboard-response,151,1119134,0.0-15.0-2.0,92626,List2A,black,woman,,,,null,,,,
17037,,,survey-text,152,1136173,0.0-15.0-3.0,92626,List2A,black,woman,,,,,"{""Q0"":""Beth and Mike is marrying""}","<img src=""stim_listA/marry3.gif""style=""height:400px;""></stim_listA>",is marrying,
null,"<div style=""font-size:60px;"">+</div>",,html-keyboard-response,153,1136675,0.0-15.0-0.1,92626,List2A,black,woman,,,,null,,,,
null,"<img src=""stim_listA/touch4.gif""style=""height:400px;""></stim_listA>",,html-keyboard-response,154,1138677,0.0-15.0-1.1,92626,List2A,black,woman,,,,null,,,,
null,are touching each other,,html-keyboard-response,155,1140679,0.0-15.0-2.1,92626,List2A,black,woman,,,,null,,,,
16844,,,survey-text,156,1157524,0.0-15.0-3.1,92626,List2A,black,woman,,,,,"{""Q0"":""Beth and Fred are touching""}","<img src=""stim_listA/touch4.gif""style=""height:400px;""></stim_listA>",are touching each other,
null,"<div style=""font-size:60px;"">+</div>",,html-keyboard-response,157,1158026,0.0-15.0-0.2,92626,List2A,black,woman,,,,null,,,,
null,"<img src=""stim_listA/shout2.gif""style=""height:400px;""></stim_listA>",,html-keyboard-response,158,1160028,0.0-15.0-1.2,92626,List2A,black,woman,,,,null,,,,
null,are shouting at each other,,html-keyboard-response,159,1162029,0.0-15.0-2.2,92626,List2A,black,woman,,,,null,,,,
14325,,,survey-text,160,1176356,0.0-15.0-3.2,92626,List2A,black,woman,,,,,"{""Q0"":""Jane and Dave are shouting""}","<img src=""stim_listA/shout2.gif""style=""height:400px;""></stim_listA>",are shouting at each other,
null,"<div style=""font-size:60px;"">+</div>",,html-keyboard-response,161,1176857,0.0-15.0-0.3,92626,List2A,black,woman,,,,null,,,,
null,"<img src=""stim_listA/argue3.gif""style=""height:400px;""></stim_listA>",,html-keyboard-response,162,1178859,0.0-15.0-1.3,92626,List2A,black,woman,,,,null,,,,
null,is arguing with,,html-keyboard-response,163,1180861,0.0-15.0-2.3,92626,List2A,black,woman,,,,null,,,,
72339,,,survey-text,164,1253201,0.0-15.0-3.3,92626,List2A,black,woman,,,,,"{""Q0"":""Beth is shouting at Fred""}","<img src=""stim_listA/argue3.gif""style=""height:400px;""></stim_listA>",is arguing with,
null,"<div style=""font-size:60px;"">+</div>",,html-keyboard-response,165,1253702,0.0-15.0-0.4,92626,List2A,black,woman,,,,null,,,,
null,"<img src=""stim_listA/talk7.gif""style=""height:400px;""></stim_listA>",,html-keyboard-response,166,1255704,0.0-15.0-1.4,92626,List2A,black,woman,,,,null,,,,
null,is talking to,,html-keyboard-response,167,1257706,0.0-15.0-2.4,92626,List2A,black,woman,,,,null,,,,
17428,,,survey-text,168,1275136,0.0-15.0-3.4,92626,List2A,black,woman,,,,,"{""Q0"":""Ruth is talking to Kate""}","<img src=""stim_listA/talk7.gif""style=""height:400px;""></stim_listA>",is talking to,
null,"<div style=""font-size:60px;"">+</div>",,html-keyboard-response,169,1275638,0.0-15.0-0.5,92626,List2A,black,woman,,,,null,,,,
null,"<img src=""stim_listA/flirt2.gif""style=""height:400px;""></stim_listA>",,html-keyboard-response,170,1277640,0.0-15.0-1.5,92626,List2A,black,woman,,,,null,,,,
null,are flirting with each other,,html-keyboard-response,171,1279642,0.0-15.0-2.5,92626,List2A,black,woman,,,,null,,,,
15044,,,survey-text,172,1294687,0.0-15.0-3.5,92626,List2A,black,woman,,,,,"{""Q0"":""Dave is flirting with Ruth""}","<img src=""stim_listA/flirt2.gif""style=""height:400px;""></stim_listA>",are flirting with each other,
null,"<div style=""font-size:60px;"">+</div>",,html-keyboard-response,173,1295189,0.0-15.0-0.6,92626,List2A,black,woman,,,,null,,,,
null,"<img src=""stim_listA/play6.gif""style=""height:400px;""></stim_listA>",,html-keyboard-response,174,1297192,0.0-15.0-1.6,92626,List2A,black,woman,,,,null,,,,
null,are playing with each other,,html-keyboard-response,175,1299194,0.0-15.0-2.6,92626,List2A,black,woman,,,,null,,,,
21295,,,survey-text,176,1320491,0.0-15.0-3.6,92626,List2A,black,woman,,,,,"{""Q0"":""Luke and Mike are playing with each other""}","<img src=""stim_listA/play6.gif""style=""height:400px;""></stim_listA>",are playing with each other,
null,"<div style=""font-size:60px;"">+</div>",,html-keyboard-response,177,1320993,0.0-15.0-0.7,92626,List2A,black,woman,,,,null,,,,
null,"<img src=""stim_listA/kiss5.gif""style=""height:400px;""></stim_listA>",,html-keyboard-response,178,1322996,0.0-15.0-1.7,92626,List2A,black,woman,,,,null,,,,
null,is kissing,,html-keyboard-response,179,1324997,0.0-15.0-2.7,92626,List2A,black,woman,,,,null,,,,
14524,,,survey-text,180,1339523,0.0-15.0-3.7,92626,List2A,black,woman,,,,,"{""Q0"":""Luke and Mike are kissing""}","<img src=""stim_listA/kiss5.gif""style=""height:400px;""></stim_listA>",is kissing,
null,"<div style=""font-size:60px;"">+</div>",,html-keyboard-response,181,1340024,0.0-15.0-0.8,92626,List2A,black,woman,,,,null,,,,
null,"<img src=""stim_listA/dance8.gif""style=""height:400px;""></stim_listA>",,html-keyboard-response,182,1342027,0.0-15.0-1.8,92626,List2A,black,woman,,,,null,,,,
null,are dancing with each other,,html-keyboard-response,183,1344028,0.0-15.0-2.8,92626,List2A,black,woman,,,,null,,,,
61360,,,survey-text,184,1405388,0.0-15.0-3.8,92626,List2A,black,woman,,,,,"{""Q0"":""Beth and Jane are dancing with each other""}","<img src=""stim_listA/dance8.gif""style=""height:400px;""></stim_listA>",are dancing with each other,
null,"<div style=""font-size:60px;"">+</div>",,html-keyboard-response,185,1405891,0.0-15.0-0.9,92626,List2A,black,woman,,,,null,,,,
null,"<img src=""stim_listA/marry5.gif""style=""height:400px;""></stim_listA>",,html-keyboard-response,186,1407894,0.0-15.0-1.9,92626,List2A,black,woman,,,,null,,,,
null,is marrying,,html-keyboard-response,187,1409895,0.0-15.0-2.9,92626,List2A,black,woman,,,,null,,,,
26680,,,survey-text,188,1436575,0.0-15.0-3.9,92626,List2A,black,woman,,,,,"{""Q0"":""Dave is marrying Fred""}","<img src=""stim_listA/marry5.gif""style=""height:400px;""></stim_listA>",is marrying,
null,"<div style=""font-size:60px;"">+</div>",,html-keyboard-response,189,1437077,0.0-15.0-0.10,92626,List2A,black,woman,,,,null,,,,
null,"<img src=""stim_listA/talk2.gif""style=""height:400px;""></stim_listA>",,html-keyboard-response,190,1439080,0.0-15.0-1.10,92626,List2A,black,woman,,,,null,,,,
null,are talking to each other,,html-keyboard-response,191,1441081,0.0-15.0-2.10,92626,List2A,black,woman,,,,null,,,,
15613,,,survey-text,192,1456695,0.0-15.0-3.10,92626,List2A,black,woman,,,,,"{""Q0"":""Dave is talking to Ruth""}","<img src=""stim_listA/talk2.gif""style=""height:400px;""></stim_listA>",are talking to each other,
null,"<div style=""font-size:60px;"">+</div>",,html-keyboard-response,193,1457196,0.0-15.0-0.11,92626,List2A,black,woman,,,,null,,,,
null,"<img src=""stim_listA/flirt6.gif""style=""height:400px;""></stim_listA>",,html-keyboard-response,194,1459198,0.0-15.0-1.11,92626,List2A,black,woman,,,,null,,,,
null,are flirting with each other,,html-keyboard-response,195,1461200,0.0-15.0-2.11,92626,List2A,black,woman,,,,null,,,,
28972,,,survey-text,196,1490174,0.0-15.0-3.11,92626,List2A,black,woman,,,,,"{""Q0"":""Dave and Fred are flirting with each other""}","<img src=""stim_listA/flirt6.gif""style=""height:400px;""></stim_listA>",are flirting with each other,
null,"<div style=""font-size:60px;"">+</div>",,html-keyboard-response,197,1490676,0.0-15.0-0.12,92626,List2A,black,woman,,,,null,,,,
null,"<img src=""stim_listA/fight5.gif""style=""height:400px;""></stim_listA>",,html-keyboard-response,198,1492678,0.0-15.0-1.12,92626,List2A,black,woman,,,,null,,,,
null,is fighting,,html-keyboard-response,199,1494684,0.0-15.0-2.12,92626,List2A,black,woman,,,,null,,,,
14045,,,survey-text,200,1508729,0.0-15.0-3.12,92626,List2A,black,woman,,,,,"{""Q0"":""Dave is fighting Mike""}","<img src=""stim_listA/fight5.gif""style=""height:400px;""></stim_listA>",is fighting,
null,"<div style=""font-size:60px;"">+</div>",,html-keyboard-response,201,1509231,0.0-15.0-0.13,92626,List2A,black,woman,,,,null,,,,
null,"<img src=""stim_listA/dance6.gif""style=""height:400px;""></stim_listA>",,html-keyboard-response,202,1511233,0.0-15.0-1.13,92626,List2A,black,woman,,,,null,,,,
null,are dancing with each other,,html-keyboard-response,203,1513235,0.0-15.0-2.13,92626,List2A,black,woman,,,,null,,,,
13292,,,survey-text,204,1526529,0.0-15.0-3.13,92626,List2A,black,woman,,,,,"{""Q0"":""Dave and Fred are dancing with each other""}","<img src=""stim_listA/dance6.gif""style=""height:400px;""></stim_listA>",are dancing with each other,
null,"<div style=""font-size:60px;"">+</div>",,html-keyboard-response,205,1527031,0.0-15.0-0.14,92626,List2A,black,woman,,,,null,,,,
null,"<img src=""stim_listA/kiss6.gif""style=""height:400px;""></stim_listA>",,html-keyboard-response,206,1529033,0.0-15.0-1.14,92626,List2A,black,woman,,,,null,,,,
null,are kissing each other,,html-keyboard-response,207,1531034,0.0-15.0-2.14,92626,List2A,black,woman,,,,null,,,,
9741,,,survey-text,208,1540777,0.0-15.0-3.14,92626,List2A,black,woman,,,,,"{""Q0"":""Dave and Mike are kissing""}","<img src=""stim_listA/kiss6.gif""style=""height:400px;""></stim_listA>",are kissing each other,
null,"<div style=""font-size:60px;"">+</div>",,html-keyboard-response,209,1541278,0.0-15.0-0.15,92626,List2A,black,woman,,,,null,,,,
null,"<img src=""stim_listA/marry6.gif""style=""height:400px;""></stim_listA>",,html-keyboard-response,210,1543281,0.0-15.0-1.15,92626,List2A,black,woman,,,,null,,,,
null,are marrying each other,,html-keyboard-response,211,1545282,0.0-15.0-2.15,92626,List2A,black,woman,,,,null,,,,
14608,,,survey-text,212,1559891,0.0-15.0-3.15,92626,List2A,black,woman,,,,,"{""Q0"":""Mike and Luke are marrying each other""}","<img src=""stim_listA/marry6.gif""style=""height:400px;""></stim_listA>",are marrying each other,
null,"<div style=""font-size:60px;"">+</div>",,html-keyboard-response,213,1560393,0.0-15.0-0.16,92626,List2A,black,woman,,,,null,,,,
null,"<img src=""stim_listA/play1.gif""style=""height:400px;""></stim_listA>",,html-keyboard-response,214,1562395,0.0-15.0-1.16,92626,List2A,black,woman,,,,null,,,,
null,is playing with,,html-keyboard-response,215,1564397,0.0-15.0-2.16,92626,List2A,black,woman,,,,null,,,,
21517,,,survey-text,216,1585915,0.0-15.0-3.16,92626,List2A,black,woman,,,,,"{""Q0"":""Jane and Dave are playing with each other""}","<img src=""stim_listA/play1.gif""style=""height:400px;""></stim_listA>",is playing with,
null,"<div style=""font-size:60px;"">+</div>",,html-keyboard-response,217,1586416,0.0-15.0-0.17,92626,List2A,black,woman,,,,null,,,,
null,"<img src=""stim_listA/argue1.gif""style=""height:400px;""></stim_listA>",,html-keyboard-response,218,1588418,0.0-15.0-1.17,92626,List2A,black,woman,,,,null,,,,
null,is arguing with,,html-keyboard-response,219,1590420,0.0-15.0-2.17,92626,List2A,black,woman,,,,null,,,,
14486,,,survey-text,220,1604906,0.0-15.0-3.17,92626,List2A,black,woman,,,,,"{""Q0"":""Ruth is arguing with Dave""}","<img src=""stim_listA/argue1.gif""style=""height:400px;""></stim_listA>",is arguing with,
null,"<div style=""font-size:60px;"">+</div>",,html-keyboard-response,221,1605408,0.0-15.0-0.18,92626,List2A,black,woman,,,,null,,,,
null,"<img src=""stim_listA/touch8.gif""style=""height:400px;""></stim_listA>",,html-keyboard-response,222,1607410,0.0-15.0-1.18,92626,List2A,black,woman,,,,null,,,,
null,are touching each other,,html-keyboard-response,223,1609411,0.0-15.0-2.18,92626,List2A,black,woman,,,,null,,,,
15865,,,survey-text,224,1625277,0.0-15.0-3.18,92626,List2A,black,woman,,,,,"{""Q0"":""Ruth and Kate are touching each other""}","<img src=""stim_listA/touch8.gif""style=""height:400px;""></stim_listA>",are touching each other,
null,"<div style=""font-size:60px;"">+</div>",,html-keyboard-response,225,1625779,0.0-15.0-0.19,92626,List2A,black,woman,,,,null,,,,
null,"<img src=""stim_listA/argue6.gif""style=""height:400px;""></stim_listA>",,html-keyboard-response,226,1627781,0.0-15.0-1.19,92626,List2A,black,woman,,,,null,,,,
null,are arguing with each other,,html-keyboard-response,227,1629782,0.0-15.0-2.19,92626,List2A,black,woman,,,,null,,,,
14853,,,survey-text,228,1644637,0.0-15.0-3.19,92626,List2A,black,woman,,,,,"{""Q0"":""Luke and Mike are arguing with each other""}","<img src=""stim_listA/argue6.gif""style=""height:400px;""></stim_listA>",are arguing with each other,
28038,"<img src='img/portrait_matrix_list2.jpg' style='width:900px;height:500px;''></img><p>If you have memorised all the portraits and names and are ready to start, press Continue.</p><p><strong>Please note: Your memory of these faces will be tested 4 times during this experiment.</strong></p>",0,html-button-response,229,1672676,0.0-16.0-0.0,92626,List2A,black,woman,,,,,,,,
5675,"<img src=""portrait/BM2.jpg""style=""height:400px;""></img>",5,html-button-response,230,1679354,0.0-16.0-1.0,92626,List2A,black,woman,,TRUE,5,,,,,
null,CORRECT,,html-keyboard-response,231,1680857,0.0-16.0-2.0-0.0,92626,List2A,black,woman,,,,null,,,,
1783,"<img src=""portrait/WM2.jpg""style=""height:400px;""></img>",7,html-button-response,232,1682642,0.0-16.0-4.0,92626,List2A,black,woman,,TRUE,7,,,,,
null,CORRECT,,html-keyboard-response,233,1684144,0.0-16.0-5.0-0.0,92626,List2A,black,woman,,,,null,,,,
1568,"<img src=""portrait/WW1.jpg""style=""height:400px;""></img>",1,html-button-response,234,1685714,0.0-16.0-7.0,92626,List2A,black,woman,,TRUE,1,,,,,
null,CORRECT,,html-keyboard-response,235,1687216,0.0-16.0-8.0-0.0,92626,List2A,black,woman,,,,null,,,,
1952,"<img src=""portrait/WM1.jpg""style=""height:400px;""></img>",6,html-button-response,236,1689170,0.0-16.0-10.0,92626,List2A,black,woman,,TRUE,6,,,,,
null,CORRECT,,html-keyboard-response,237,1690672,0.0-16.0-11.0-0.0,92626,List2A,black,woman,,,,null,,,,
4704,"<img src=""portrait/WW2.jpg""style=""height:400px;""></img>",3,html-button-response,238,1695378,0.0-16.0-13.0,92626,List2A,black,woman,,TRUE,3,,,,,
null,CORRECT,,html-keyboard-response,239,1696881,0.0-16.0-14.0-0.0,92626,List2A,black,woman,,,,null,,,,
4391,"<img src=""portrait/BW2.jpg""style=""height:400px;""></img>",2,html-button-response,240,1701274,0.0-16.0-16.0,92626,List2A,black,woman,,TRUE,2,,,,,
null,CORRECT,,html-keyboard-response,241,1702775,0.0-16.0-17.0-0.0,92626,List2A,black,woman,,,,null,,,,
3784,"<img src=""portrait/BM1.jpg""style=""height:400px;""></img>",4,html-button-response,242,1706562,0.0-16.0-19.0,92626,List2A,black,woman,,TRUE,4,,,,,
null,CORRECT,,html-keyboard-response,243,1708064,0.0-16.0-20.0-0.0,92626,List2A,black,woman,,,,null,,,,
3080,"<img src=""portrait/BW1.jpg""style=""height:400px;""></img>",0,html-button-response,244,1711146,0.0-16.0-22.0,92626,List2A,black,woman,,TRUE,0,,,,,
null,CORRECT,,html-keyboard-response,245,1712648,0.0-16.0-23.0-0.0,92626,List2A,black,woman,,,,null,,,,
1103,<p>You got 8 out of 8 right first time. Press Continue.</p>,0,html-button-response,246,1713753,0.0-16.0-25.0,92626,List2A,black,woman,,,,,,,,
null,"<div style=""font-size:60px;"">+</div>",,html-keyboard-response,247,1715256,0.0-17.0-0.0,92626,List2A,black,woman,,,,null,,,,
null,"<img src=""stim_listA/fight4.gif""style=""height:400px;""></stim_listA>",,html-keyboard-response,248,1717258,0.0-17.0-1.0,92626,List2A,black,woman,,,,null,,,,
null,are fighting each other,,html-keyboard-response,249,1719259,0.0-17.0-2.0,92626,List2A,black,woman,,,,null,,,,
16692,,,survey-text,250,1735953,0.0-17.0-3.0,92626,List2A,black,woman,,,,,"{""Q0"":""Beth and Fred are fighting each other""}","<img src=""stim_listA/fight4.gif""style=""height:400px;""></stim_listA>",are fighting each other,
null,"<div style=""font-size:60px;"">+</div>",,html-keyboard-response,251,1736454,0.0-17.0-0.1,92626,List2A,black,woman,,,,null,,,,
null,"<img src=""stim_listA/dance1.gif""style=""height:400px;""></stim_listA>",,html-keyboard-response,252,1738447,0.0-17.0-1.1,92626,List2A,black,woman,,,,null,,,,
null,is dancing with,,html-keyboard-response,253,1740448,0.0-17.0-2.1,92626,List2A,black,woman,,,,null,,,,
11574,,,survey-text,254,1752023,0.0-17.0-3.1,92626,List2A,black,woman,,,,,"{""Q0"":""Jane and Luke are dancing with each other""}","<img src=""stim_listA/dance1.gif""style=""height:400px;""></stim_listA>",is dancing with,
null,"<div style=""font-size:60px;"">+</div>",,html-keyboard-response,255,1752525,0.0-17.0-0.2,92626,List2A,black,woman,,,,null,,,,
null,"<img src=""stim_listA/kiss4.gif""style=""height:400px;""></stim_listA>",,html-keyboard-response,256,1754527,0.0-17.0-1.2,92626,List2A,black,woman,,,,null,,,,
null,are kissing each other,,html-keyboard-response,257,1756528,0.0-17.0-2.2,92626,List2A,black,woman,,,,null,,,,
15509,,,survey-text,258,1772039,0.0-17.0-3.2,92626,List2A,black,woman,,,,,"{""Q0"":""Kate and Mike are kissing""}","<img src=""stim_listA/kiss4.gif""style=""height:400px;""></stim_listA>",are kissing each other,
null,"<div style=""font-size:60px;"">+</div>",,html-keyboard-response,259,1772541,0.0-17.0-0.3,92626,List2A,black,woman,,,,null,,,,
null,"<img src=""stim_listA/shout5.gif""style=""height:400px;""></stim_listA>",,html-keyboard-response,260,1774544,0.0-17.0-1.3,92626,List2A,black,woman,,,,null,,,,
null,is shouting at,,html-keyboard-response,261,1776545,0.0-17.0-2.3,92626,List2A,black,woman,,,,null,,,,
11668,,,survey-text,262,1788215,0.0-17.0-3.3,92626,List2A,black,woman,,,,,"{""Q0"":""Luke is shouting at Fred""}","<img src=""stim_listA/shout5.gif""style=""height:400px;""></stim_listA>",is shouting at,
null,"<div style=""font-size:60px;"">+</div>",,html-keyboard-response,263,1788716,0.0-17.0-0.4,92626,List2A,black,woman,,,,null,,,,
null,"<img src=""stim_listA/marry8.gif""style=""height:400px;""></stim_listA>",,html-keyboard-response,264,1790719,0.0-17.0-1.4,92626,List2A,black,woman,,,,null,,,,
null,are marrying each other,,html-keyboard-response,265,1792721,0.0-17.0-2.4,92626,List2A,black,woman,,,,null,,,,
27516,,,survey-text,266,1820237,0.0-17.0-3.4,92626,List2A,black,woman,,,,,"{""Q0"":""Kate and Ruth are marrying each other""}","<img src=""stim_listA/marry8.gif""style=""height:400px;""></stim_listA>",are marrying each other,
null,"<div style=""font-size:60px;"">+</div>",,html-keyboard-response,267,1820739,0.0-17.0-0.5,92626,List2A,black,woman,,,,null,,,,
null,"<img src=""stim_listA/play7.gif""style=""height:400px;""></stim_listA>",,html-keyboard-response,268,1822741,0.0-17.0-1.5,92626,List2A,black,woman,,,,null,,,,
null,is playing with,,html-keyboard-response,269,1824742,0.0-17.0-2.5,92626,List2A,black,woman,,,,null,,,,
42564,,,survey-text,270,1867308,0.0-17.0-3.5,92626,List2A,black,woman,,,,,"{""Q0"":""Ruth and Kate are playing with each other""}","<img src=""stim_listA/play7.gif""style=""height:400px;""></stim_listA>",is playing with,
null,"<div style=""font-size:60px;"">+</div>",,html-keyboard-response,271,1867810,0.0-17.0-0.6,92626,List2A,black,woman,,,,null,,,,
null,"<img src=""stim_listA/shout3.gif""style=""height:400px;""></stim_listA>",,html-keyboard-response,272,1869812,0.0-17.0-1.6,92626,List2A,black,woman,,,,null,,,,
null,is shouting at,,html-keyboard-response,273,1871814,0.0-17.0-2.6,92626,List2A,black,woman,,,,null,,,,
26499,,,survey-text,274,1898315,0.0-17.0-3.6,92626,List2A,black,woman,,,,,"{""Q0"":""Fred is shouting at Beth""}","<img src=""stim_listA/shout3.gif""style=""height:400px;""></stim_listA>",is shouting at,
null,"<div style=""font-size:60px;"">+</div>",,html-keyboard-response,275,1898817,0.0-17.0-0.7,92626,List2A,black,woman,,,,null,,,,
null,"<img src=""stim_listA/talk5.gif""style=""height:400px;""></stim_listA>",,html-keyboard-response,276,1900819,0.0-17.0-1.7,92626,List2A,black,woman,,,,null,,,,
null,is talking to,,html-keyboard-response,277,1902821,0.0-17.0-2.7,92626,List2A,black,woman,,,,null,,,,
16867,,,survey-text,278,1919690,0.0-17.0-3.7,92626,List2A,black,woman,,,,,"{""Q0"":""Luke is talking to Mike""}","<img src=""stim_listA/talk5.gif""style=""height:400px;""></stim_listA>",is talking to,
null,"<div style=""font-size:60px;"">+</div>",,html-keyboard-response,279,1920192,0.0-17.0-0.8,92626,List2A,black,woman,,,,null,,,,
null,"<img src=""stim_listA/fight7.gif""style=""height:400px;""></stim_listA>",,html-keyboard-response,280,1922194,0.0-17.0-1.8,92626,List2A,black,woman,,,,null,,,,
null,is fighting,,html-keyboard-response,281,1924195,0.0-17.0-2.8,92626,List2A,black,woman,,,,null,,,,
9733,,,survey-text,282,1933929,0.0-17.0-3.8,92626,List2A,black,woman,,,,,"{""Q0"":""Kate is fighting Jane""}","<img src=""stim_listA/fight7.gif""style=""height:400px;""></stim_listA>",is fighting,
null,"<div style=""font-size:60px;"">+</div>",,html-keyboard-response,283,1934431,0.0-17.0-0.9,92626,List2A,black,woman,,,,null,,,,
null,"<img src=""stim_listA/flirt7.gif""style=""height:400px;""></stim_listA>",,html-keyboard-response,284,1936434,0.0-17.0-1.9,92626,List2A,black,woman,,,,null,,,,
null,is flirting with,,html-keyboard-response,285,1938435,0.0-17.0-2.9,92626,List2A,black,woman,,,,null,,,,
54447,,,survey-text,286,1992882,0.0-17.0-3.9,92626,List2A,black,woman,,,,,"{""Q0"":""Ruth is flirting with Kate""}","<img src=""stim_listA/flirt7.gif""style=""height:400px;""></stim_listA>",is flirting with,
null,"<div style=""font-size:60px;"">+</div>",,html-keyboard-response,287,1993384,0.0-17.0-0.10,92626,List2A,black,woman,,,,null,,,,
null,"<img src=""stim_listA/touch7.gif""style=""height:400px;""></stim_listA>",,html-keyboard-response,288,1995386,0.0-17.0-1.10,92626,List2A,black,woman,,,,null,,,,
null,is touching,,html-keyboard-response,289,1997387,0.0-17.0-2.10,92626,List2A,black,woman,,,,null,,,,
10117,,,survey-text,290,2007506,0.0-17.0-3.10,92626,List2A,black,woman,,,,,"{""Q0"":""Jane is touching Kate""}","<img src=""stim_listA/touch7.gif""style=""height:400px;""></stim_listA>",is touching,
null,"<div style=""font-size:60px;"">+</div>",,html-keyboard-response,291,2008008,0.0-17.0-0.11,92626,List2A,black,woman,,,,null,,,,
null,"<img src=""stim_listA/marry1.gif""style=""height:400px;""></stim_listA>",,html-keyboard-response,292,2010010,0.0-17.0-1.11,92626,List2A,black,woman,,,,null,,,,
null,is marrying,,html-keyboard-response,293,2012011,0.0-17.0-2.11,92626,List2A,black,woman,,,,null,,,,
14533,,,survey-text,294,2026546,0.0-17.0-3.11,92626,List2A,black,woman,,,,,"{""Q0"":""Ruth is marrying Dave""}","<img src=""stim_listA/marry1.gif""style=""height:400px;""></stim_listA>",is marrying,
null,"<div style=""font-size:60px;"">+</div>",,html-keyboard-response,295,2027048,0.0-17.0-0.12,92626,List2A,black,woman,,,,null,,,,
null,"<img src=""stim_listA/argue8.gif""style=""height:400px;""></stim_listA>",,html-keyboard-response,296,2029050,0.0-17.0-1.12,92626,List2A,black,woman,,,,null,,,,
null,are arguing with each other,,html-keyboard-response,297,2031051,0.0-17.0-2.12,92626,List2A,black,woman,,,,null,,,,
66103,,,survey-text,298,2097156,0.0-17.0-3.12,92626,List2A,black,woman,,,,,"{""Q0"":""Kate and Ruth are arguing with each other""}","<img src=""stim_listA/argue8.gif""style=""height:400px;""></stim_listA>",are arguing with each other,
null,"<div style=""font-size:60px;"">+</div>",,html-keyboard-response,299,2097658,0.0-17.0-0.13,92626,List2A,black,woman,,,,null,,,,
null,"<img src=""stim_listA/kiss2.gif""style=""height:400px;""></stim_listA>",,html-keyboard-response,300,2099660,0.0-17.0-1.13,92626,List2A,black,woman,,,,null,,,,
null,are kissing each other,,html-keyboard-response,301,2101662,0.0-17.0-2.13,92626,List2A,black,woman,,,,null,,,,
14844,,,survey-text,302,2116508,0.0-17.0-3.13,92626,List2A,black,woman,,,,,"{""Q0"":""Jane and Dave are kissing each other""}","<img src=""stim_listA/kiss2.gif""style=""height:400px;""></stim_listA>",are kissing each other,
null,"<div style=""font-size:60px;"">+</div>",,html-keyboard-response,303,2117010,0.0-17.0-0.14,92626,List2A,black,woman,,,,null,,,,
null,"<img src=""stim_listA/kiss3.gif""style=""height:400px;""></stim_listA>",,html-keyboard-response,304,2119012,0.0-17.0-1.14,92626,List2A,black,woman,,,,null,,,,
null,is kissing,,html-keyboard-response,305,2121014,0.0-17.0-2.14,92626,List2A,black,woman,,,,null,,,,
17356,,,survey-text,306,2138371,0.0-17.0-3.14,92626,List2A,black,woman,,,,,"{""Q0"":""Beth and Fred are kissing""}","<img src=""stim_listA/kiss3.gif""style=""height:400px;""></stim_listA>",is kissing,
null,"<div style=""font-size:60px;"">+</div>",,html-keyboard-response,307,2138872,0.0-17.0-0.15,92626,List2A,black,woman,,,,null,,,,
null,"<img src=""stim_listA/marry4.gif""style=""height:400px;""></stim_listA>",,html-keyboard-response,308,2140875,0.0-17.0-1.15,92626,List2A,black,woman,,,,null,,,,
null,are marrying each other,,html-keyboard-response,309,2142877,0.0-17.0-2.15,92626,List2A,black,woman,,,,null,,,,
17018,,,survey-text,310,2159896,0.0-17.0-3.15,92626,List2A,black,woman,,,,,"{""Q0"":""Kate and Fred are marrying""}","<img src=""stim_listA/marry4.gif""style=""height:400px;""></stim_listA>",are marrying each other,
null,"<div style=""font-size:60px;"">+</div>",,html-keyboard-response,311,2160397,0.0-17.0-0.16,92626,List2A,black,woman,,,,null,,,,
null,"<img src=""stim_listA/argue7.gif""style=""height:400px;""></stim_listA>",,html-keyboard-response,312,2162400,0.0-17.0-1.16,92626,List2A,black,woman,,,,null,,,,
null,is arguing with,,html-keyboard-response,313,2164402,0.0-17.0-2.16,92626,List2A,black,woman,,,,null,,,,
20516,,,survey-text,314,2184919,0.0-17.0-3.16,92626,List2A,black,woman,,,,,"{""Q0"":""Jane is arguing with Beth""}","<img src=""stim_listA/argue7.gif""style=""height:400px;""></stim_listA>",is arguing with,
null,"<div style=""font-size:60px;"">+</div>",,html-keyboard-response,315,2185421,0.0-17.0-0.17,92626,List2A,black,woman,,,,null,,,,
null,"<img src=""stim_listA/shout6.gif""style=""height:400px;""></stim_listA>",,html-keyboard-response,316,2187423,0.0-17.0-1.17,92626,List2A,black,woman,,,,null,,,,
null,are shouting at each other,,html-keyboard-response,317,2189425,0.0-17.0-2.17,92626,List2A,black,woman,,,,null,,,,
20165,,,survey-text,318,2209590,0.0-17.0-3.17,92626,List2A,black,woman,,,,,"{""Q0"":""Dave and Mike are shouting at each other""}","<img src=""stim_listA/shout6.gif""style=""height:400px;""></stim_listA>",are shouting at each other,
null,"<div style=""font-size:60px;"">+</div>",,html-keyboard-response,319,2210092,0.0-17.0-0.18,92626,List2A,black,woman,,,,null,,,,
null,"<img src=""stim_listA/play5.gif""style=""height:400px;""></stim_listA>",,html-keyboard-response,320,2212095,0.0-17.0-1.18,92626,List2A,black,woman,,,,null,,,,
null,is playing with,,html-keyboard-response,321,2214097,0.0-17.0-2.18,92626,List2A,black,woman,,,,null,,,,
21986,,,survey-text,322,2236084,0.0-17.0-3.18,92626,List2A,black,woman,,,,,"{""Q0"":""Dave is playing with Mike""}","<img src=""stim_listA/play5.gif""style=""height:400px;""></stim_listA>",is playing with,
null,"<div style=""font-size:60px;"">+</div>",,html-keyboard-response,323,2236585,0.0-17.0-0.19,92626,List2A,black,woman,,,,null,,,,
null,"<img src=""stim_listA/dance3.gif""style=""height:400px;""></stim_listA>",,html-keyboard-response,324,2238588,0.0-17.0-1.19,92626,List2A,black,woman,,,,null,,,,
null,is dancing with,,html-keyboard-response,325,2240589,0.0-17.0-2.19,92626,List2A,black,woman,,,,null,,,,
19670,,,survey-text,326,2260259,0.0-17.0-3.19,92626,List2A,black,woman,,,,,"{""Q0"":""Kate is dancing with Mike""}","<img src=""stim_listA/dance3.gif""style=""height:400px;""></stim_listA>",is dancing with,
18797,"<img src='img/portrait_matrix_list2.jpg' style='width:900px;height:500px;''></img><p>If you have memorised all the portraits and names and are ready to start, press Continue.</p><p><strong>Please note: Your memory of these faces will be tested 4 times during this experiment.</strong></p>",0,html-button-response,327,2279059,0.0-18.0-0.0,92626,List2A,black,woman,,,,,,,,
30014,"<img src=""portrait/WM2.jpg""style=""height:400px;""></img>",7,html-button-response,328,2310872,0.0-18.0-1.0,92626,List2A,black,woman,,TRUE,7,,,,,
null,CORRECT,,html-keyboard-response,329,2312374,0.0-18.0-2.0-0.0,92626,List2A,black,woman,,,,null,,,,
3728,"<img src=""portrait/BM1.jpg""style=""height:400px;""></img>",4,html-button-response,330,2316104,0.0-18.0-4.0,92626,List2A,black,woman,,TRUE,4,,,,,
null,CORRECT,,html-keyboard-response,331,2317606,0.0-18.0-5.0-0.0,92626,List2A,black,woman,,,,null,,,,
2392,"<img src=""portrait/WW2.jpg""style=""height:400px;""></img>",3,html-button-response,332,2320000,0.0-18.0-7.0,92626,List2A,black,woman,,TRUE,3,,,,,
null,CORRECT,,html-keyboard-response,333,2321503,0.0-18.0-8.0-0.0,92626,List2A,black,woman,,,,null,,,,
3647,"<img src=""portrait/BW2.jpg""style=""height:400px;""></img>",0,html-button-response,334,2325152,0.0-18.0-10.0,92626,List2A,black,woman,,TRUE,2,,,,,
2036,"<img src=""portrait/BW2.jpg""style=""height:400px;""></img>",2,html-button-response,335,2328191,0.0-18.0-12.0-0.0,92626,List2A,black,woman,,FALSE,2,,,,,
null,CORRECT,,html-keyboard-response,336,2329695,0.0-18.0-12.0-1.0-0.0,92626,List2A,black,woman,,,,null,,,,
1694,"<img src=""portrait/BM2.jpg""style=""height:400px;""></img>",5,html-button-response,337,2331391,0.0-18.0-13.0,92626,List2A,black,woman,,TRUE,5,,,,,
null,CORRECT,,html-keyboard-response,338,2332894,0.0-18.0-14.0-0.0,92626,List2A,black,woman,,,,null,,,,
1415,"<img src=""portrait/WW1.jpg""style=""height:400px;""></img>",3,html-button-response,339,2334311,0.0-18.0-16.0,92626,List2A,black,woman,,TRUE,1,,,,,
2701,"<img src=""portrait/WW1.jpg""style=""height:400px;""></img>",1,html-button-response,340,2338015,0.0-18.0-18.0-0.0,92626,List2A,black,woman,,FALSE,1,,,,,
null,CORRECT,,html-keyboard-response,341,2339517,0.0-18.0-18.0-1.0-0.0,92626,List2A,black,woman,,,,null,,,,
2894,"<img src=""portrait/WM1.jpg""style=""height:400px;""></img>",6,html-button-response,342,2342413,0.0-18.0-19.0,92626,List2A,black,woman,,TRUE,6,,,,,
null,CORRECT,,html-keyboard-response,343,2343915,0.0-18.0-20.0-0.0,92626,List2A,black,woman,,,,null,,,,
3454,"<img src=""portrait/BW1.jpg""style=""height:400px;""></img>",0,html-button-response,344,2347372,0.0-18.0-22.0,92626,List2A,black,woman,,TRUE,0,,,,,
null,CORRECT,,html-keyboard-response,345,2348875,0.0-18.0-23.0-0.0,92626,List2A,black,woman,,,,null,,,,
1319,<p>You got 6 out of 8 right first time. Press Continue.</p>,0,html-button-response,346,2350196,0.0-18.0-25.0,92626,List2A,black,woman,,,,,,,,
4566,"As you did not score 100%, the memory game will repeat. Press Continue.",0,html-button-response,347,2355764,0.0-18.0-26.0-0.0,92626,List2A,black,woman,,,,,,,,
1693,"<img src='img/portrait_matrix_list2.jpg' style='width:900px;height:500px;''></img><p>If you have memorised all the portraits and names and are ready to start, press Continue.</p><p><strong>Please note: Your memory of these faces will be tested 4 times during this experiment.</strong></p>",0,html-button-response,348,2358460,0.0-18.1-0.1,92626,List2A,black,woman,,,,,,,,
4957,"<img src=""portrait/WM2.jpg""style=""height:400px;""></img>",7,html-button-response,349,2364420,0.0-18.1-1.1,92626,List2A,black,woman,,TRUE,7,,,,,
null,CORRECT,,html-keyboard-response,350,2365923,0.0-18.1-2.1-0.1,92626,List2A,black,woman,,,,null,,,,
4039,"<img src=""portrait/BM1.jpg""style=""height:400px;""></img>",4,html-button-response,351,2369964,0.0-18.1-4.1,92626,List2A,black,woman,,TRUE,4,,,,,
null,CORRECT,,html-keyboard-response,352,2371466,0.0-18.1-5.1-0.1,92626,List2A,black,woman,,,,null,,,,
3896,"<img src=""portrait/WW2.jpg""style=""height:400px;""></img>",3,html-button-response,353,2375364,0.0-18.1-7.1,92626,List2A,black,woman,,TRUE,3,,,,,
null,CORRECT,,html-keyboard-response,354,2377852,0.0-18.1-8.1-0.1,92626,List2A,black,woman,,,,null,,,,
90343,"<img src=""portrait/BW2.jpg""style=""height:400px;""></img>",2,html-button-response,355,2468197,0.0-18.1-10.1,92626,List2A,black,woman,,TRUE,2,,,,,
null,CORRECT,,html-keyboard-response,356,2469699,0.0-18.1-11.1-0.1,92626,List2A,black,woman,,,,null,,,,
3335,"<img src=""portrait/BM2.jpg""style=""height:400px;""></img>",5,html-button-response,357,2473037,0.0-18.1-13.1,92626,List2A,black,woman,,TRUE,5,,,,,
null,CORRECT,,html-keyboard-response,358,2474539,0.0-18.1-14.1-0.1,92626,List2A,black,woman,,,,null,,,,
4912,"<img src=""portrait/WW1.jpg""style=""height:400px;""></img>",1,html-button-response,359,2479453,0.0-18.1-16.1,92626,List2A,black,woman,,TRUE,1,,,,,
null,CORRECT,,html-keyboard-response,360,2480955,0.0-18.1-17.1-0.1,92626,List2A,black,woman,,,,null,,,,
5376,"<img src=""portrait/WM1.jpg""style=""height:400px;""></img>",6,html-button-response,361,2486333,0.0-18.1-19.1,92626,List2A,black,woman,,TRUE,6,,,,,
null,CORRECT,,html-keyboard-response,362,2487835,0.0-18.1-20.1-0.1,92626,List2A,black,woman,,,,null,,,,
2823,"<img src=""portrait/BW1.jpg""style=""height:400px;""></img>",0,html-button-response,363,2490660,0.0-18.1-22.1,92626,List2A,black,woman,,TRUE,0,,,,,
null,CORRECT,,html-keyboard-response,364,2492162,0.0-18.1-23.1-0.1,92626,List2A,black,woman,,,,null,,,,
1424,<p>You got 8 out of 8 right first time. Press Continue.</p>,0,html-button-response,365,2493588,0.0-18.1-25.1,92626,List2A,black,woman,,,,,,,,
null,"<div style=""font-size:60px;"">+</div>",,html-keyboard-response,366,2495091,0.0-19.0-0.0,92626,List2A,black,woman,,,,null,,,,
null,"<img src=""stim_listA/argue5.gif""style=""height:400px;""></stim_listA>",,html-keyboard-response,367,2497093,0.0-19.0-1.0,92626,List2A,black,woman,,,,null,,,,
null,is arguing with,,html-keyboard-response,368,2499094,0.0-19.0-2.0,92626,List2A,black,woman,,,,null,,,,
16220,,,survey-text,369,2515316,0.0-19.0-3.0,92626,List2A,black,woman,,,,,"{""Q0"":""Dave is arguing with Fred""}","<img src=""stim_listA/argue5.gif""style=""height:400px;""></stim_listA>",is arguing with,
null,"<div style=""font-size:60px;"">+</div>",,html-keyboard-response,370,2515817,0.0-19.0-0.1,92626,List2A,black,woman,,,,null,,,,
null,"<img src=""stim_listA/touch6.gif""style=""height:400px;""></stim_listA>",,html-keyboard-response,371,2517820,0.0-19.0-1.1,92626,List2A,black,woman,,,,null,,,,
null,are touching each other,,html-keyboard-response,372,2519822,0.0-19.0-2.1,92626,List2A,black,woman,,,,null,,,,
18641,,,survey-text,373,2538464,0.0-19.0-3.1,92626,List2A,black,woman,,,,,"{""Q0"":""Luke and Fred are touching""}","<img src=""stim_listA/touch6.gif""style=""height:400px;""></stim_listA>",are touching each other,
null,"<div style=""font-size:60px;"">+</div>",,html-keyboard-response,374,2538966,0.0-19.0-0.2,92626,List2A,black,woman,,,,null,,,,
null,"<img src=""stim_listA/play3.gif""style=""height:400px;""></stim_listA>",,html-keyboard-response,375,2540968,0.0-19.0-1.2,92626,List2A,black,woman,,,,null,,,,
null,is playing with,,html-keyboard-response,376,2542970,0.0-19.0-2.2,92626,List2A,black,woman,,,,null,,,,
10884,,,survey-text,377,2553856,0.0-19.0-3.2,92626,List2A,black,woman,,,,,"{""Q0"":""Mike is playing with Kate""}","<img src=""stim_listA/play3.gif""style=""height:400px;""></stim_listA>",is playing with,
null,"<div style=""font-size:60px;"">+</div>",,html-keyboard-response,378,2554358,0.0-19.0-0.3,92626,List2A,black,woman,,,,null,,,,
null,"<img src=""stim_listA/dance2.gif""style=""height:400px;""></stim_listA>",,html-keyboard-response,379,2556360,0.0-19.0-1.3,92626,List2A,black,woman,,,,null,,,,
null,are dancing with each other,,html-keyboard-response,380,2558361,0.0-19.0-2.3,92626,List2A,black,woman,,,,null,,,,
30802,,,survey-text,381,2589164,0.0-19.0-3.3,92626,List2A,black,woman,,,,,"{""Q0"":""Ruth and Dave are dancing with each other""}","<img src=""stim_listA/dance2.gif""style=""height:400px;""></stim_listA>",are dancing with each other,
null,"<div style=""font-size:60px;"">+</div>",,html-keyboard-response,382,2589667,0.0-19.0-0.4,92626,List2A,black,woman,,,,null,,,,
null,"<img src=""stim_listA/kiss1.gif""style=""height:400px;""></stim_listA>",,html-keyboard-response,383,2591669,0.0-19.0-1.4,92626,List2A,black,woman,,,,null,,,,
null,is kissing,,html-keyboard-response,384,2593670,0.0-19.0-2.4,92626,List2A,black,woman,,,,null,,,,
10405,,,survey-text,385,2604076,0.0-19.0-3.4,92626,List2A,black,woman,,,,,"{""Q0"":""Ruth is kissing Luke""}","<img src=""stim_listA/kiss1.gif""style=""height:400px;""></stim_listA>",is kissing,
null,"<div style=""font-size:60px;"">+</div>",,html-keyboard-response,386,2604578,0.0-19.0-0.5,92626,List2A,black,woman,,,,null,,,,
null,"<img src=""stim_listA/touch5.gif""style=""height:400px;""></stim_listA>",,html-keyboard-response,387,2606581,0.0-19.0-1.5,92626,List2A,black,woman,,,,null,,,,
null,is touching,,html-keyboard-response,388,2608582,0.0-19.0-2.5,92626,List2A,black,woman,,,,null,,,,
9540,,,survey-text,389,2618124,0.0-19.0-3.5,92626,List2A,black,woman,,,,,"{""Q0"":""Dave is touching Mike""}","<img src=""stim_listA/touch5.gif""style=""height:400px;""></stim_listA>",is touching,
null,"<div style=""font-size:60px;"">+</div>",,html-keyboard-response,390,2618626,0.0-19.0-0.6,92626,List2A,black,woman,,,,null,,,,
null,"<img src=""stim_listA/flirt5.gif""style=""height:400px;""></stim_listA>",,html-keyboard-response,391,2620628,0.0-19.0-1.6,92626,List2A,black,woman,,,,null,,,,
null,is flirting with,,html-keyboard-response,392,2622629,0.0-19.0-2.6,92626,List2A,black,woman,,,,null,,,,
16916,,,survey-text,393,2639547,0.0-19.0-3.6,92626,List2A,black,woman,,,,,"{""Q0"":""Luke is flirting with Mike""}","<img src=""stim_listA/flirt5.gif""style=""height:400px;""></stim_listA>",is flirting with,
null,"<div style=""font-size:60px;"">+</div>",,html-keyboard-response,394,2640049,0.0-19.0-0.7,92626,List2A,black,woman,,,,null,,,,
null,"<img src=""stim_listA/marry7.gif""style=""height:400px;""></stim_listA>",,html-keyboard-response,395,2642051,0.0-19.0-1.7,92626,List2A,black,woman,,,,null,,,,
null,is marrying,,html-keyboard-response,396,2644052,0.0-19.0-2.7,92626,List2A,black,woman,,,,null,,,,
13386,,,survey-text,397,2657440,0.0-19.0-3.7,92626,List2A,black,woman,,,,,"{""Q0"":""Jane is marrying Beth""}","<img src=""stim_listA/marry7.gif""style=""height:400px;""></stim_listA>",is marrying,
null,"<div style=""font-size:60px;"">+</div>",,html-keyboard-response,398,2657942,0.0-19.0-0.8,92626,List2A,black,woman,,,,null,,,,
null,"<img src=""stim_listA/flirt8.gif""style=""height:400px;""></stim_listA>",,html-keyboard-response,399,2659944,0.0-19.0-1.8,92626,List2A,black,woman,,,,null,,,,
null,are flirting with each other,,html-keyboard-response,400,2661945,0.0-19.0-2.8,92626,List2A,black,woman,,,,null,,,,
14749,,,survey-text,401,2676696,0.0-19.0-3.8,92626,List2A,black,woman,,,,,"{""Q0"":""Jane and Beth are flirting with each other""}","<img src=""stim_listA/flirt8.gif""style=""height:400px;""></stim_listA>",are flirting with each other,
null,"<div style=""font-size:60px;"">+</div>",,html-keyboard-response,402,2677197,0.0-19.0-0.9,92626,List2A,black,woman,,,,null,,,,
null,"<img src=""stim_listA/dance4.gif""style=""height:400px;""></stim_listA>",,html-keyboard-response,403,2679200,0.0-19.0-1.9,92626,List2A,black,woman,,,,null,,,,
null,are dancing with each other,,html-keyboard-response,404,2681202,0.0-19.0-2.9,92626,List2A,black,woman,,,,null,,,,
14084,,,survey-text,405,2695287,0.0-19.0-3.9,92626,List2A,black,woman,,,,,"{""Q0"":""Mike and Beth are dancing with each other""}","<img src=""stim_listA/dance4.gif""style=""height:400px;""></stim_listA>",are dancing with each other,
null,"<div style=""font-size:60px;"">+</div>",,html-keyboard-response,406,2695789,0.0-19.0-0.10,92626,List2A,black,woman,,,,null,,,,
null,"<img src=""stim_listA/shout8.gif""style=""height:400px;""></stim_listA>",,html-keyboard-response,407,2697791,0.0-19.0-1.10,92626,List2A,black,woman,,,,null,,,,
null,are shouting at each other,,html-keyboard-response,408,2699792,0.0-19.0-2.10,92626,List2A,black,woman,,,,null,,,,
9491,,,survey-text,409,2709284,0.0-19.0-3.10,92626,List2A,black,woman,,,,,"{""Q0"":""Jane is arguing with Kate""}","<img src=""stim_listA/shout8.gif""style=""height:400px;""></stim_listA>",are shouting at each other,
null,"<div style=""font-size:60px;"">+</div>",,html-keyboard-response,410,2709786,0.0-19.0-0.11,92626,List2A,black,woman,,,,null,,,,
null,"<img src=""stim_listA/fight6.gif""style=""height:400px;""></stim_listA>",,html-keyboard-response,411,2711788,0.0-19.0-1.11,92626,List2A,black,woman,,,,null,,,,
null,are fighting each other,,html-keyboard-response,412,2713789,0.0-19.0-2.11,92626,List2A,black,woman,,,,null,,,,
22061,,,survey-text,413,2735852,0.0-19.0-3.11,92626,List2A,black,woman,,,,,"{""Q0"":""Luke and Fred are fighting each other""}","<img src=""stim_listA/fight6.gif""style=""height:400px;""></stim_listA>",are fighting each other,
null,"<div style=""font-size:60px;"">+</div>",,html-keyboard-response,414,2736354,0.0-19.0-0.12,92626,List2A,black,woman,,,,null,,,,
null,"<img src=""stim_listA/talk6.gif""style=""height:400px;""></stim_listA>",,html-keyboard-response,415,2738356,0.0-19.0-1.12,92626,List2A,black,woman,,,,null,,,,
null,are talking to each other,,html-keyboard-response,416,2740357,0.0-19.0-2.12,92626,List2A,black,woman,,,,null,,,,
14901,,,survey-text,417,2755259,0.0-19.0-3.12,92626,List2A,black,woman,,,,,"{""Q0"":""Dave and Fred are talking to each other""}","<img src=""stim_listA/talk6.gif""style=""height:400px;""></stim_listA>",are talking to each other,
null,"<div style=""font-size:60px;"">+</div>",,html-keyboard-response,418,2755761,0.0-19.0-0.13,92626,List2A,black,woman,,,,null,,,,
null,"<img src=""stim_listA/talk8.gif""style=""height:400px;""></stim_listA>",,html-keyboard-response,419,2757763,0.0-19.0-1.13,92626,List2A,black,woman,,,,null,,,,
null,are talking to each other,,html-keyboard-response,420,2759765,0.0-19.0-2.13,92626,List2A,black,woman,,,,null,,,,
13108,,,survey-text,421,2772874,0.0-19.0-3.13,92626,List2A,black,woman,,,,,"{""Q0"":""Jane and Beth are talking to each other""}","<img src=""stim_listA/talk8.gif""style=""height:400px;""></stim_listA>",are talking to each other,
null,"<div style=""font-size:60px;"">+</div>",,html-keyboard-response,422,2773376,0.0-19.0-0.14,92626,List2A,black,woman,,,,null,,,,
null,"<img src=""stim_listA/argue2.gif""style=""height:400px;""></stim_listA>",,html-keyboard-response,423,2775378,0.0-19.0-1.14,92626,List2A,black,woman,,,,null,,,,
null,are arguing with each other,,html-keyboard-response,424,2777379,0.0-19.0-2.14,92626,List2A,black,woman,,,,null,,,,
14101,,,survey-text,425,2791482,0.0-19.0-3.14,92626,List2A,black,woman,,,,,"{""Q0"":""Jane and Luke are arguing with each other""}","<img src=""stim_listA/argue2.gif""style=""height:400px;""></stim_listA>",are arguing with each other,
null,"<div style=""font-size:60px;"">+</div>",,html-keyboard-response,426,2791984,0.0-19.0-0.15,92626,List2A,black,woman,,,,null,,,,
null,"<img src=""stim_listA/kiss7.gif""style=""height:400px;""></stim_listA>",,html-keyboard-response,427,2793986,0.0-19.0-1.15,92626,List2A,black,woman,,,,null,,,,
null,is kissing,,html-keyboard-response,428,2795987,0.0-19.0-2.15,92626,List2A,black,woman,,,,null,,,,
13229,,,survey-text,429,2809218,0.0-19.0-3.15,92626,List2A,black,woman,,,,,"{""Q0"":""Ruth and Beth are kissing""}","<img src=""stim_listA/kiss7.gif""style=""height:400px;""></stim_listA>",is kissing,
null,"<div style=""font-size:60px;"">+</div>",,html-keyboard-response,430,2809720,0.0-19.0-0.16,92626,List2A,black,woman,,,,null,,,,
null,"<img src=""stim_listA/talk1.gif""style=""height:400px;""></stim_listA>",,html-keyboard-response,431,2811722,0.0-19.0-1.16,92626,List2A,black,woman,,,,null,,,,
null,is talking to,,html-keyboard-response,432,2813723,0.0-19.0-2.16,92626,List2A,black,woman,,,,null,,,,
9181,,,survey-text,433,2822905,0.0-19.0-3.16,92626,List2A,black,woman,,,,,"{""Q0"":""Jane is talking to Luke""}","<img src=""stim_listA/talk1.gif""style=""height:400px;""></stim_listA>",is talking to,
null,"<div style=""font-size:60px;"">+</div>",,html-keyboard-response,434,2823407,0.0-19.0-0.17,92626,List2A,black,woman,,,,null,,,,
null,"<img src=""stim_listA/flirt1.gif""style=""height:400px;""></stim_listA>",,html-keyboard-response,435,2825409,0.0-19.0-1.17,92626,List2A,black,woman,,,,null,,,,
null,is flirting with,,html-keyboard-response,436,2827411,0.0-19.0-2.17,92626,List2A,black,woman,,,,null,,,,
7821,,,survey-text,437,2835232,0.0-19.0-3.17,92626,List2A,black,woman,,,,,"{""Q0"":""Jane is flirting with Luke""}","<img src=""stim_listA/flirt1.gif""style=""height:400px;""></stim_listA>",is flirting with,
null,"<div style=""font-size:60px;"">+</div>",,html-keyboard-response,438,2835734,0.0-19.0-0.18,92626,List2A,black,woman,,,,null,,,,
null,"<img src=""stim_listA/argue4.gif""style=""height:400px;""></stim_listA>",,html-keyboard-response,439,2837737,0.0-19.0-1.18,92626,List2A,black,woman,,,,null,,,,
null,are arguing with each other,,html-keyboard-response,440,2839738,0.0-19.0-2.18,92626,List2A,black,woman,,,,null,,,,
12412,,,survey-text,441,2852152,0.0-19.0-3.18,92626,List2A,black,woman,,,,,"{""Q0"":""Fred and Kate are arguing with each other""}","<img src=""stim_listA/argue4.gif""style=""height:400px;""></stim_listA>",are arguing with each other,
null,"<div style=""font-size:60px;"">+</div>",,html-keyboard-response,442,2852654,0.0-19.0-0.19,92626,List2A,black,woman,,,,null,,,,
null,"<img src=""stim_listA/shout4.gif""style=""height:400px;""></stim_listA>",,html-keyboard-response,443,2854656,0.0-19.0-1.19,92626,List2A,black,woman,,,,null,,,,
null,are shouting at each other,,html-keyboard-response,444,2856657,0.0-19.0-2.19,92626,List2A,black,woman,,,,null,,,,
14269,,,survey-text,445,2870927,0.0-19.0-3.19,92626,List2A,black,woman,,,,,"{""Q0"":""Kate and Mike are shouting at each other""}","<img src=""stim_listA/shout4.gif""style=""height:400px;""></stim_listA>",are shouting at each other,
1526,<p>Thank you for completing that task.</p><p>The final part of this session is a short questionnaire.</p><p>Press Continue.</p>,0,html-button-response,446,2872455,0.0-20.0,92626,List2A,black,woman,,,,,,,,
22301,,,survey-text,447,2895760,0.0-21.0,92626,List2A,black,woman,,,,,"{""Q0"":""33"",""Q1"":""English"",""Q2"":""English"",""Q3"":""UK"",""Q4"":""Black British"",""Q5"":""Female""}",,,demographics
5236,,,survey-likert,448,2901001,0.0-22.0,92626,List2A,black,woman,,,,,"{""Q0"":4}",,,likert_ESS
4972,,,survey-likert,449,2905976,0.0-23.0,92626,List2A,black,woman,,,,,"{""Q0"":4}",,,likert_NSSAL_Q1
3229,,,survey-likert,450,2909208,0.0-24.0,92626,List2A,black,woman,,,,,"{""Q0"":4}",,,likert_NSSAL_Q2
5214,,,survey-likert,451,2914423,0.0-25.0,92626,List2A,black,woman,,,,,"{""Q0"":4}",,,likert_CGRS_Q1
3014,,,survey-likert,452,2917440,0.0-26.0,92626,List2A,black,woman,,,,,"{""Q0"":4}",,,likert_CGRS_Q2
2917,,,survey-likert,453,2920359,0.0-27.0,92626,List2A,black,woman,,,,,"{""Q0"":4}",,,likert_CGRS_Q3
3757,,,survey-text,454,2924119,0.0-28.0,92626,List2A,black,woman,,,,,"{""Q0"":""ccc""}",,,worker_id
23044,,,external-html,455,2947239,0.0-29.0,92626,List2A,black,woman,debrief.html,,,,,,,
