rt,stimulus,button_pressed,trial_type,trial_index,time_elapsed,internal_node_id,subject,list,ppt_race,ppt_gender,url,first_guess,correct,key_press,responses,image_type,phrase_type,test_part
91654,Welcome to the experiment. Press Continue to begin.,0,html-button-response,0,91662,0.0-0.0,93638,List1B,white,man,,,,,,,,
58204,,,external-html,1,150930,0.0-1.0,93638,List1B,white,man,consent.html,,,,,,,
9255,"<p>On the next page, you will see portraits of 8 people and their names.</p><p>Your first task is to take a few minutes to memorise the names of these people.</p><p>You will have to recall their names during the rest of the experiment, so it is</p><p>essential that you try to memorise these people and their names as best as you can.</p><br><p><strong>You will then be tested on your memory of these names and portraits.</strong></p><br><p>The experiment will start after you have completed this memory test.</p><br><p>Ready?</p>",0,html-button-response,2,160187,0.0-2.0,93638,List1B,white,man,,,,,,,,
53389,"<img src='img/portrait_matrix_list1.jpg' style='width:900px;height:500px;''></img><p>If you have memorised all the portraits and names and are ready to start, press Continue.</p><p><strong>Please note: Your memory of these faces will be tested 4 times during this experiment.</strong></p>",0,html-button-response,3,214593,0.0-3.0-0.0,93638,List1B,white,man,,,,,,,,
8172,"<img src=""portrait/WW1.jpg""style=""height:400px;""></img>",3,html-button-response,4,223768,0.0-3.0-1.0,93638,List1B,white,man,,TRUE,1,,,,,
3667,"<img src=""portrait/WW1.jpg""style=""height:400px;""></img>",1,html-button-response,5,228439,0.0-3.0-3.0-0.0,93638,List1B,white,man,,FALSE,1,,,,,
null,CORRECT,,html-keyboard-response,6,229943,0.0-3.0-3.0-1.0-0.0,93638,List1B,white,man,,,,null,,,,
16114,"<img src=""portrait/WM1.jpg""style=""height:400px;""></img>",6,html-button-response,7,246060,0.0-3.0-4.0,93638,List1B,white,man,,TRUE,6,,,,,
null,CORRECT,,html-keyboard-response,8,247566,0.0-3.0-5.0-0.0,93638,List1B,white,man,,,,null,,,,
1527,"<img src=""portrait/WM2.jpg""style=""height:400px;""></img>",4,html-button-response,9,249095,0.0-3.0-7.0,93638,List1B,white,man,,TRUE,7,,,,,
2048,"<img src=""portrait/WM2.jpg""style=""height:400px;""></img>",7,html-button-response,10,252146,0.0-3.0-9.0-0.0,93638,List1B,white,man,,FALSE,7,,,,,
null,CORRECT,,html-keyboard-response,11,253648,0.0-3.0-9.0-1.0-0.0,93638,List1B,white,man,,,,null,,,,
2199,"<img src=""portrait/BM1.jpg""style=""height:400px;""></img>",4,html-button-response,12,255849,0.0-3.0-10.0,93638,List1B,white,man,,TRUE,4,,,,,
null,CORRECT,,html-keyboard-response,13,257351,0.0-3.0-11.0-0.0,93638,List1B,white,man,,,,null,,,,
2927,"<img src=""portrait/BW2.jpg""style=""height:400px;""></img>",2,html-button-response,14,260281,0.0-3.0-13.0,93638,List1B,white,man,,TRUE,2,,,,,
null,CORRECT,,html-keyboard-response,15,261783,0.0-3.0-14.0-0.0,93638,List1B,white,man,,,,null,,,,
2488,"<img src=""portrait/BW1.jpg""style=""height:400px;""></img>",0,html-button-response,16,264272,0.0-3.0-16.0,93638,List1B,white,man,,TRUE,0,,,,,
null,CORRECT,,html-keyboard-response,17,265776,0.0-3.0-17.0-0.0,93638,List1B,white,man,,,,null,,,,
1699,"<img src=""portrait/BM2.jpg""style=""height:400px;""></img>",5,html-button-response,18,267477,0.0-3.0-19.0,93638,List1B,white,man,,TRUE,5,,,,,
null,CORRECT,,html-keyboard-response,19,268980,0.0-3.0-20.0-0.0,93638,List1B,white,man,,,,null,,,,
9275,"<img src=""portrait/WW2.jpg""style=""height:400px;""></img>",3,html-button-response,20,278258,0.0-3.0-22.0,93638,List1B,white,man,,TRUE,3,,,,,
null,CORRECT,,html-keyboard-response,21,279761,0.0-3.0-23.0-0.0,93638,List1B,white,man,,,,null,,,,
1254,<p>You got 6 out of 8 right first time. Press Continue.</p>,0,html-button-response,22,281017,0.0-3.0-25.0,93638,List1B,white,man,,,,,,,,
2015,"As you did not score 100%, the memory game will repeat. Press Continue.",0,html-button-response,23,284035,0.0-3.0-26.0-0.0,93638,List1B,white,man,,,,,,,,
4398,"<img src='img/portrait_matrix_list1.jpg' style='width:900px;height:500px;''></img><p>If you have memorised all the portraits and names and are ready to start, press Continue.</p><p><strong>Please note: Your memory of these faces will be tested 4 times during this experiment.</strong></p>",0,html-button-response,24,289437,0.0-3.1-0.1,93638,List1B,white,man,,,,,,,,
4662,"<img src=""portrait/WW1.jpg""style=""height:400px;""></img>",1,html-button-response,25,295101,0.0-3.1-1.1,93638,List1B,white,man,,TRUE,1,,,,,
null,CORRECT,,html-keyboard-response,26,296603,0.0-3.1-2.1-0.1,93638,List1B,white,man,,,,null,,,,
3299,"<img src=""portrait/WM1.jpg""style=""height:400px;""></img>",6,html-button-response,27,299904,0.0-3.1-4.1,93638,List1B,white,man,,TRUE,6,,,,,
null,CORRECT,,html-keyboard-response,28,301407,0.0-3.1-5.1-0.1,93638,List1B,white,man,,,,null,,,,
1214,"<img src=""portrait/WM2.jpg""style=""height:400px;""></img>",7,html-button-response,29,302623,0.0-3.1-7.1,93638,List1B,white,man,,TRUE,7,,,,,
null,CORRECT,,html-keyboard-response,30,304125,0.0-3.1-8.1-0.1,93638,List1B,white,man,,,,null,,,,
1265,"<img src=""portrait/BM1.jpg""style=""height:400px;""></img>",4,html-button-response,31,305393,0.0-3.1-10.1,93638,List1B,white,man,,TRUE,4,,,,,
null,CORRECT,,html-keyboard-response,32,306895,0.0-3.1-11.1-0.1,93638,List1B,white,man,,,,null,,,,
10973,"<img src=""portrait/BW2.jpg""style=""height:400px;""></img>",2,html-button-response,33,317870,0.0-3.1-13.1,93638,List1B,white,man,,TRUE,2,,,,,
null,CORRECT,,html-keyboard-response,34,319373,0.0-3.1-14.1-0.1,93638,List1B,white,man,,,,null,,,,
2647,"<img src=""portrait/BW1.jpg""style=""height:400px;""></img>",0,html-button-response,35,322022,0.0-3.1-16.1,93638,List1B,white,man,,TRUE,0,,,,,
null,CORRECT,,html-keyboard-response,36,323530,0.0-3.1-17.1-0.1,93638,List1B,white,man,,,,null,,,,
1702,"<img src=""portrait/BM2.jpg""style=""height:400px;""></img>",5,html-button-response,37,325234,0.0-3.1-19.1,93638,List1B,white,man,,TRUE,5,,,,,
null,CORRECT,,html-keyboard-response,38,326737,0.0-3.1-20.1-0.1,93638,List1B,white,man,,,,null,,,,
17875,"<img src=""portrait/WW2.jpg""style=""height:400px;""></img>",3,html-button-response,39,344614,0.0-3.1-22.1,93638,List1B,white,man,,TRUE,3,,,,,
null,CORRECT,,html-keyboard-response,40,346121,0.0-3.1-23.1-0.1,93638,List1B,white,man,,,,null,,,,
1091,<p>You got 8 out of 8 right first time. Press Continue.</p>,0,html-button-response,41,347214,0.0-3.1-25.1,93638,List1B,white,man,,,,,,,,
46066,"<p>In this experiment, you will view photographs of the people from the memory game interacting.</p><p>By using the <strong>exact</strong> phrase given <i>after</i> the photograph appears and recalling the correct names of the people in the photographs, form a sentence describing the interaction. You do not need to capitalise names.</p><p>Type your answer in the space provided. Please complete every sentence before moving onto the next trial.</p><p>You will only have a few seconds to memorise each given photograph and phrase before you can respond, so try your best to focus.</p><p>An example is given below. Press 'Continue' when you are ready.</p><img src='img/speaking_example.jpg' style='width:800px;height:460px;''></img>",0,html-button-response,42,394282,0.0-4.0,93638,List1B,white,man,,,,,,,,
1962,"<p>Before the experiment starts, you will watch two example trials. Press 'Continue'.</p>",0,html-button-response,43,397246,0.0-5.0,93638,List1B,white,man,,,,,,,,
null,<img src='img/meet_eg.gif' style='height:400px;''></img>,,html-keyboard-response,44,400250,0.0-6.0,93638,List1B,white,man,,,,null,,,,
null,<p>is meeting</p>,,html-keyboard-response,45,402256,0.0-7.0,93638,List1B,white,man,,,,null,,,,
1879,<p><b>Answer:</b> kate is meeting beth</p>,0,html-button-response,46,404135,0.0-8.0,93638,List1B,white,man,,,,,,,,
null,<img src='img/look_eg.gif' style='height:400px;''></img>,,html-keyboard-response,47,407137,0.0-9.0,93638,List1B,white,man,,,,null,,,,
null,<p>are looking at each other</p>,,html-keyboard-response,48,409139,0.0-10.0,93638,List1B,white,man,,,,null,,,,
1390,<p><b>Answer:</b> luke and dave are looking at each other</p>,0,html-button-response,49,410530,0.0-11.0,93638,List1B,white,man,,,,,,,,
48846,"<p>Ready to start the experiment?</p><br><p><strong>Remember to describe the picture using a full sentence,</strong></p><p><strong>that combines the names of the people with the <i>exact</i> phrase given.</strong></p><p><strong>To receive full payment you must do this correctly.</strong></p><p><strong> You do not need to capitalise names or use punctuation.</strong></p><br><p>Press 'Continue' to begin.</p>",0,html-button-response,50,460382,0.0-12.0,93638,List1B,white,man,,,,,,,,
null,"<div style=""font-size:60px;"">+</div>",,html-keyboard-response,51,461885,0.0-13.0-0.0,93638,List1B,white,man,,,,null,,,,
null,"<img src=""stim_listB/touch7.gif""style=""height:400px;""></stim_listB>",,html-keyboard-response,52,463887,0.0-13.0-1.0,93638,List1B,white,man,,,,null,,,,
null,is touching,,html-keyboard-response,53,465887,0.0-13.0-2.0,93638,List1B,white,man,,,,null,,,,
16641,,,survey-text,54,482530,0.0-13.0-3.0,93638,List1B,white,man,,,,,"{""Q0"":""jane is touching beth""}","<img src=""stim_listB/touch7.gif""style=""height:400px;""></stim_listB>",is touching,
null,"<div style=""font-size:60px;"">+</div>",,html-keyboard-response,55,483033,0.0-13.0-0.1,93638,List1B,white,man,,,,null,,,,
null,"<img src=""stim_listB/argue1.gif""style=""height:400px;""></stim_listB>",,html-keyboard-response,56,485034,0.0-13.0-1.1,93638,List1B,white,man,,,,null,,,,
null,is arguing with,,html-keyboard-response,57,487037,0.0-13.0-2.1,93638,List1B,white,man,,,,null,,,,
6667,,,survey-text,58,493705,0.0-13.0-3.1,93638,List1B,white,man,,,,,"{""Q0"":""beth is arguing with mike ""}","<img src=""stim_listB/argue1.gif""style=""height:400px;""></stim_listB>",is arguing with,
null,"<div style=""font-size:60px;"">+</div>",,html-keyboard-response,59,494211,0.0-13.0-0.2,93638,List1B,white,man,,,,null,,,,
null,"<img src=""stim_listB/touch5.gif""style=""height:400px;""></stim_listB>",,html-keyboard-response,60,496213,0.0-13.0-1.2,93638,List1B,white,man,,,,null,,,,
null,is touching,,html-keyboard-response,61,498215,0.0-13.0-2.2,93638,List1B,white,man,,,,null,,,,
4522,,,survey-text,62,502737,0.0-13.0-3.2,93638,List1B,white,man,,,,,"{""Q0"":""dave is touching mike""}","<img src=""stim_listB/touch5.gif""style=""height:400px;""></stim_listB>",is touching,
null,"<div style=""font-size:60px;"">+</div>",,html-keyboard-response,63,503239,0.0-13.0-0.3,93638,List1B,white,man,,,,null,,,,
null,"<img src=""stim_listB/play2.gif""style=""height:400px;""></stim_listB>",,html-keyboard-response,64,505241,0.0-13.0-1.3,93638,List1B,white,man,,,,null,,,,
null,are playing with each other,,html-keyboard-response,65,507243,0.0-13.0-2.3,93638,List1B,white,man,,,,null,,,,
56146,,,survey-text,66,563391,0.0-13.0-3.3,93638,List1B,white,man,,,,,"{""Q0"":""jeff and beth are playing with each other""}","<img src=""stim_listB/play2.gif""style=""height:400px;""></stim_listB>",are playing with each other,
null,"<div style=""font-size:60px;"">+</div>",,html-keyboard-response,67,563893,0.0-13.0-0.4,93638,List1B,white,man,,,,null,,,,
null,"<img src=""stim_listB/shout5.gif""style=""height:400px;""></stim_listB>",,html-keyboard-response,68,565895,0.0-13.0-1.4,93638,List1B,white,man,,,,null,,,,
null,is shouting at,,html-keyboard-response,69,567896,0.0-13.0-2.4,93638,List1B,white,man,,,,null,,,,
6069,,,survey-text,70,573967,0.0-13.0-3.4,93638,List1B,white,man,,,,,"{""Q0"":""luke is shouting at jeff""}","<img src=""stim_listB/shout5.gif""style=""height:400px;""></stim_listB>",is shouting at,
null,"<div style=""font-size:60px;"">+</div>",,html-keyboard-response,71,574470,0.0-13.0-0.5,93638,List1B,white,man,,,,null,,,,
null,"<img src=""stim_listB/dance3.gif""style=""height:400px;""></stim_listB>",,html-keyboard-response,72,576472,0.0-13.0-1.5,93638,List1B,white,man,,,,null,,,,
null,is dancing with,,html-keyboard-response,73,578473,0.0-13.0-2.5,93638,List1B,white,man,,,,null,,,,
4871,,,survey-text,74,583344,0.0-13.0-3.5,93638,List1B,white,man,,,,,"{""Q0"":""luke is dancing with ruth ""}","<img src=""stim_listB/dance3.gif""style=""height:400px;""></stim_listB>",is dancing with,
null,"<div style=""font-size:60px;"">+</div>",,html-keyboard-response,75,583846,0.0-13.0-0.6,93638,List1B,white,man,,,,null,,,,
null,"<img src=""stim_listB/touch3.gif""style=""height:400px;""></stim_listB>",,html-keyboard-response,76,585849,0.0-13.0-1.6,93638,List1B,white,man,,,,null,,,,
null,is touching,,html-keyboard-response,77,587850,0.0-13.0-2.6,93638,List1B,white,man,,,,null,,,,
6149,,,survey-text,78,593999,0.0-13.0-3.6,93638,List1B,white,man,,,,,"{""Q0"":""dave is touching ruth""}","<img src=""stim_listB/touch3.gif""style=""height:400px;""></stim_listB>",is touching,
null,"<div style=""font-size:60px;"">+</div>",,html-keyboard-response,79,594501,0.0-13.0-0.7,93638,List1B,white,man,,,,null,,,,
null,"<img src=""stim_listB/touch2.gif""style=""height:400px;""></stim_listB>",,html-keyboard-response,80,596502,0.0-13.0-1.7,93638,List1B,white,man,,,,null,,,,
null,are touching each other,,html-keyboard-response,81,598503,0.0-13.0-2.7,93638,List1B,white,man,,,,null,,,,
5629,,,survey-text,82,604134,0.0-13.0-3.7,93638,List1B,white,man,,,,,"{""Q0"":""beth and jeff are touching each other""}","<img src=""stim_listB/touch2.gif""style=""height:400px;""></stim_listB>",are touching each other,
null,"<div style=""font-size:60px;"">+</div>",,html-keyboard-response,83,604640,0.0-13.0-0.8,93638,List1B,white,man,,,,null,,,,
null,"<img src=""stim_listB/flirt2.gif""style=""height:400px;""></stim_listB>",,html-keyboard-response,84,606643,0.0-13.0-1.8,93638,List1B,white,man,,,,null,,,,
null,are flirting with each other,,html-keyboard-response,85,608644,0.0-13.0-2.8,93638,List1B,white,man,,,,null,,,,
6193,,,survey-text,86,614838,0.0-13.0-3.8,93638,List1B,white,man,,,,,"{""Q0"":""beth and mike are flirting with each other""}","<img src=""stim_listB/flirt2.gif""style=""height:400px;""></stim_listB>",are flirting with each other,
null,"<div style=""font-size:60px;"">+</div>",,html-keyboard-response,87,615339,0.0-13.0-0.9,93638,List1B,white,man,,,,null,,,,
null,"<img src=""stim_listB/dance6.gif""style=""height:400px;""></stim_listB>",,html-keyboard-response,88,617341,0.0-13.0-1.9,93638,List1B,white,man,,,,null,,,,
null,are dancing with each other,,html-keyboard-response,89,619342,0.0-13.0-2.9,93638,List1B,white,man,,,,null,,,,
5504,,,survey-text,90,624848,0.0-13.0-3.9,93638,List1B,white,man,,,,,"{""Q0"":""mike and luke are dancing with each other""}","<img src=""stim_listB/dance6.gif""style=""height:400px;""></stim_listB>",are dancing with each other,
null,"<div style=""font-size:60px;"">+</div>",,html-keyboard-response,91,625349,0.0-13.0-0.10,93638,List1B,white,man,,,,null,,,,
null,"<img src=""stim_listB/argue5.gif""style=""height:400px;""></stim_listB>",,html-keyboard-response,92,627350,0.0-13.0-1.10,93638,List1B,white,man,,,,null,,,,
null,is arguing with,,html-keyboard-response,93,629352,0.0-13.0-2.10,93638,List1B,white,man,,,,null,,,,
4474,,,survey-text,94,633827,0.0-13.0-3.10,93638,List1B,white,man,,,,,"{""Q0"":""mike is arguing with luke""}","<img src=""stim_listB/argue5.gif""style=""height:400px;""></stim_listB>",is arguing with,
null,"<div style=""font-size:60px;"">+</div>",,html-keyboard-response,95,634333,0.0-13.0-0.11,93638,List1B,white,man,,,,null,,,,
null,"<img src=""stim_listB/shout3.gif""style=""height:400px;""></stim_listB>",,html-keyboard-response,96,636335,0.0-13.0-1.11,93638,List1B,white,man,,,,null,,,,
null,is shouting at,,html-keyboard-response,97,638336,0.0-13.0-2.11,93638,List1B,white,man,,,,null,,,,
4112,,,survey-text,98,642449,0.0-13.0-3.11,93638,List1B,white,man,,,,,"{""Q0"":""luke is shouting at ruth""}","<img src=""stim_listB/shout3.gif""style=""height:400px;""></stim_listB>",is shouting at,
null,"<div style=""font-size:60px;"">+</div>",,html-keyboard-response,99,642951,0.0-13.0-0.12,93638,List1B,white,man,,,,null,,,,
null,"<img src=""stim_listB/flirt6.gif""style=""height:400px;""></stim_listB>",,html-keyboard-response,100,644952,0.0-13.0-1.12,93638,List1B,white,man,,,,null,,,,
null,are flirting with each other,,html-keyboard-response,101,646953,0.0-13.0-2.12,93638,List1B,white,man,,,,null,,,,
7853,,,survey-text,102,654808,0.0-13.0-3.12,93638,List1B,white,man,,,,,"{""Q0"":""mike and luke are flirting with each other""}","<img src=""stim_listB/flirt6.gif""style=""height:400px;""></stim_listB>",are flirting with each other,
null,"<div style=""font-size:60px;"">+</div>",,html-keyboard-response,103,655310,0.0-13.0-0.13,93638,List1B,white,man,,,,null,,,,
null,"<img src=""stim_listB/fight4.gif""style=""height:400px;""></stim_listB>",,html-keyboard-response,104,657311,0.0-13.0-1.13,93638,List1B,white,man,,,,null,,,,
null,are fighting each other,,html-keyboard-response,105,659312,0.0-13.0-2.13,93638,List1B,white,man,,,,null,,,,
337,,,survey-text,106,659650,0.0-13.0-3.13,93638,List1B,white,man,,,,,"{""Q0"":""""}","<img src=""stim_listB/fight4.gif""style=""height:400px;""></stim_listB>",are fighting each other,
null,"<div style=""font-size:60px;"">+</div>",,html-keyboard-response,107,660151,0.0-13.0-0.14,93638,List1B,white,man,,,,null,,,,
null,"<img src=""stim_listB/fight8.gif""style=""height:400px;""></stim_listB>",,html-keyboard-response,108,662153,0.0-13.0-1.14,93638,List1B,white,man,,,,null,,,,
null,are fighting each other,,html-keyboard-response,109,664155,0.0-13.0-2.14,93638,List1B,white,man,,,,null,,,,
6740,,,survey-text,110,670897,0.0-13.0-3.14,93638,List1B,white,man,,,,,"{""Q0"":""ruth and beth are fighting each other""}","<img src=""stim_listB/fight8.gif""style=""height:400px;""></stim_listB>",are fighting each other,
null,"<div style=""font-size:60px;"">+</div>",,html-keyboard-response,111,671398,0.0-13.0-0.15,93638,List1B,white,man,,,,null,,,,
null,"<img src=""stim_listB/fight6.gif""style=""height:400px;""></stim_listB>",,html-keyboard-response,112,673400,0.0-13.0-1.15,93638,List1B,white,man,,,,null,,,,
null,are fighting each other,,html-keyboard-response,113,675401,0.0-13.0-2.15,93638,List1B,white,man,,,,null,,,,
6964,,,survey-text,114,682367,0.0-13.0-3.15,93638,List1B,white,man,,,,,"{""Q0"":""jeff and luke are fighting each other""}","<img src=""stim_listB/fight6.gif""style=""height:400px;""></stim_listB>",are fighting each other,
null,"<div style=""font-size:60px;"">+</div>",,html-keyboard-response,115,682871,0.0-13.0-0.16,93638,List1B,white,man,,,,null,,,,
null,"<img src=""stim_listB/argue6.gif""style=""height:400px;""></stim_listB>",,html-keyboard-response,116,684873,0.0-13.0-1.16,93638,List1B,white,man,,,,null,,,,
null,are arguing with each other,,html-keyboard-response,117,686874,0.0-13.0-2.16,93638,List1B,white,man,,,,null,,,,
9883,,,survey-text,118,696758,0.0-13.0-3.16,93638,List1B,white,man,,,,,"{""Q0"":""jeff and dave are arguing with each other""}","<img src=""stim_listB/argue6.gif""style=""height:400px;""></stim_listB>",are arguing with each other,
null,"<div style=""font-size:60px;"">+</div>",,html-keyboard-response,119,697260,0.0-13.0-0.17,93638,List1B,white,man,,,,null,,,,
null,"<img src=""stim_listB/kiss7.gif""style=""height:400px;""></stim_listB>",,html-keyboard-response,120,699262,0.0-13.0-1.17,93638,List1B,white,man,,,,null,,,,
null,is kissing,,html-keyboard-response,121,701263,0.0-13.0-2.17,93638,List1B,white,man,,,,null,,,,
3554,,,survey-text,122,704819,0.0-13.0-3.17,93638,List1B,white,man,,,,,"{""Q0"":""beth is kissing ruth""}","<img src=""stim_listB/kiss7.gif""style=""height:400px;""></stim_listB>",is kissing,
null,"<div style=""font-size:60px;"">+</div>",,html-keyboard-response,123,705320,0.0-13.0-0.18,93638,List1B,white,man,,,,null,,,,
null,"<img src=""stim_listB/talk5.gif""style=""height:400px;""></stim_listB>",,html-keyboard-response,124,707324,0.0-13.0-1.18,93638,List1B,white,man,,,,null,,,,
null,is talking to,,html-keyboard-response,125,709325,0.0-13.0-2.18,93638,List1B,white,man,,,,null,,,,
3487,,,survey-text,126,712812,0.0-13.0-3.18,93638,List1B,white,man,,,,,"{""Q0"":""dave is talking to jeff""}","<img src=""stim_listB/talk5.gif""style=""height:400px;""></stim_listB>",is talking to,
null,"<div style=""font-size:60px;"">+</div>",,html-keyboard-response,127,713313,0.0-13.0-0.19,93638,List1B,white,man,,,,null,,,,
null,"<img src=""stim_listB/dance1.gif""style=""height:400px;""></stim_listB>",,html-keyboard-response,128,715317,0.0-13.0-1.19,93638,List1B,white,man,,,,null,,,,
null,is dancing with,,html-keyboard-response,129,717318,0.0-13.0-2.19,93638,List1B,white,man,,,,null,,,,
4081,,,survey-text,130,721400,0.0-13.0-3.19,93638,List1B,white,man,,,,,"{""Q0"":""jeff is dancing with kate""}","<img src=""stim_listB/dance1.gif""style=""height:400px;""></stim_listB>",is dancing with,
19649,"<img src='img/portrait_matrix_list1.jpg' style='width:900px;height:500px;''></img><p>If you have memorised all the portraits and names and are ready to start, press Continue.</p><p><strong>Please note: Your memory of these faces will be tested 4 times during this experiment.</strong></p>",0,html-button-response,131,741051,0.0-14.0-0.0,93638,List1B,white,man,,,,,,,,
2456,"<img src=""portrait/WM2.jpg""style=""height:400px;""></img>",7,html-button-response,132,744513,0.0-14.0-1.0,93638,List1B,white,man,,TRUE,7,,,,,
null,CORRECT,,html-keyboard-response,133,746016,0.0-14.0-2.0-0.0,93638,List1B,white,man,,,,null,,,,
1255,"<img src=""portrait/WW2.jpg""style=""height:400px;""></img>",3,html-button-response,134,747273,0.0-14.0-4.0,93638,List1B,white,man,,TRUE,3,,,,,
null,CORRECT,,html-keyboard-response,135,748776,0.0-14.0-5.0-0.0,93638,List1B,white,man,,,,null,,,,
1835,"<img src=""portrait/BW1.jpg""style=""height:400px;""></img>",0,html-button-response,136,750613,0.0-14.0-7.0,93638,List1B,white,man,,TRUE,0,,,,,
null,CORRECT,,html-keyboard-response,137,752115,0.0-14.0-8.0-0.0,93638,List1B,white,man,,,,null,,,,
1252,"<img src=""portrait/WW1.jpg""style=""height:400px;""></img>",3,html-button-response,138,753369,0.0-14.0-10.0,93638,List1B,white,man,,TRUE,1,,,,,
1485,"<img src=""portrait/WW1.jpg""style=""height:400px;""></img>",1,html-button-response,139,755856,0.0-14.0-12.0-0.0,93638,List1B,white,man,,FALSE,1,,,,,
null,CORRECT,,html-keyboard-response,140,757362,0.0-14.0-12.0-1.0-0.0,93638,List1B,white,man,,,,null,,,,
1302,"<img src=""portrait/BM1.jpg""style=""height:400px;""></img>",4,html-button-response,141,758667,0.0-14.0-13.0,93638,List1B,white,man,,TRUE,4,,,,,
null,CORRECT,,html-keyboard-response,142,760169,0.0-14.0-14.0-0.0,93638,List1B,white,man,,,,null,,,,
2784,"<img src=""portrait/BW2.jpg""style=""height:400px;""></img>",2,html-button-response,143,762954,0.0-14.0-16.0,93638,List1B,white,man,,TRUE,2,,,,,
null,CORRECT,,html-keyboard-response,144,764457,0.0-14.0-17.0-0.0,93638,List1B,white,man,,,,null,,,,
1474,"<img src=""portrait/BM2.jpg""style=""height:400px;""></img>",5,html-button-response,145,765933,0.0-14.0-19.0,93638,List1B,white,man,,TRUE,5,,,,,
null,CORRECT,,html-keyboard-response,146,767435,0.0-14.0-20.0-0.0,93638,List1B,white,man,,,,null,,,,
2485,"<img src=""portrait/WM1.jpg""style=""height:400px;""></img>",6,html-button-response,147,769922,0.0-14.0-22.0,93638,List1B,white,man,,TRUE,6,,,,,
null,CORRECT,,html-keyboard-response,148,771424,0.0-14.0-23.0-0.0,93638,List1B,white,man,,,,null,,,,
1381,<p>You got 7 out of 8 right first time. Press Continue.</p>,0,html-button-response,149,772806,0.0-14.0-25.0,93638,List1B,white,man,,,,,,,,
724,"As you did not score 100%, the memory game will repeat. Press Continue.",0,html-button-response,150,774534,0.0-14.0-26.0-0.0,93638,List1B,white,man,,,,,,,,
818,"<img src='img/portrait_matrix_list1.jpg' style='width:900px;height:500px;''></img><p>If you have memorised all the portraits and names and are ready to start, press Continue.</p><p><strong>Please note: Your memory of these faces will be tested 4 times during this experiment.</strong></p>",0,html-button-response,151,776354,0.0-14.1-0.1,93638,List1B,white,man,,,,,,,,
1122,"<img src=""portrait/WM2.jpg""style=""height:400px;""></img>",7,html-button-response,152,778480,0.0-14.1-1.1,93638,List1B,white,man,,TRUE,7,,,,,
null,CORRECT,,html-keyboard-response,153,779982,0.0-14.1-2.1-0.1,93638,List1B,white,man,,,,null,,,,
1155,"<img src=""portrait/WW2.jpg""style=""height:400px;""></img>",3,html-button-response,154,781140,0.0-14.1-4.1,93638,List1B,white,man,,TRUE,3,,,,,
null,CORRECT,,html-keyboard-response,155,782642,0.0-14.1-5.1-0.1,93638,List1B,white,man,,,,null,,,,
2927,"<img src=""portrait/BW1.jpg""style=""height:400px;""></img>",0,html-button-response,156,785570,0.0-14.1-7.1,93638,List1B,white,man,,TRUE,0,,,,,
null,CORRECT,,html-keyboard-response,157,787074,0.0-14.1-8.1-0.1,93638,List1B,white,man,,,,null,,,,
1730,"<img src=""portrait/WW1.jpg""style=""height:400px;""></img>",1,html-button-response,158,788806,0.0-14.1-10.1,93638,List1B,white,man,,TRUE,1,,,,,
null,CORRECT,,html-keyboard-response,159,790308,0.0-14.1-11.1-0.1,93638,List1B,white,man,,,,null,,,,
1097,"<img src=""portrait/BM1.jpg""style=""height:400px;""></img>",4,html-button-response,160,791408,0.0-14.1-13.1,93638,List1B,white,man,,TRUE,4,,,,,
null,CORRECT,,html-keyboard-response,161,792911,0.0-14.1-14.1-0.1,93638,List1B,white,man,,,,null,,,,
2209,"<img src=""portrait/BW2.jpg""style=""height:400px;""></img>",2,html-button-response,162,795122,0.0-14.1-16.1,93638,List1B,white,man,,TRUE,2,,,,,
null,CORRECT,,html-keyboard-response,163,796628,0.0-14.1-17.1-0.1,93638,List1B,white,man,,,,null,,,,
1062,"<img src=""portrait/BM2.jpg""style=""height:400px;""></img>",5,html-button-response,164,797692,0.0-14.1-19.1,93638,List1B,white,man,,TRUE,5,,,,,
null,CORRECT,,html-keyboard-response,165,799194,0.0-14.1-20.1-0.1,93638,List1B,white,man,,,,null,,,,
1146,"<img src=""portrait/WM1.jpg""style=""height:400px;""></img>",6,html-button-response,166,800342,0.0-14.1-22.1,93638,List1B,white,man,,TRUE,6,,,,,
null,CORRECT,,html-keyboard-response,167,801845,0.0-14.1-23.1-0.1,93638,List1B,white,man,,,,null,,,,
845,<p>You got 8 out of 8 right first time. Press Continue.</p>,0,html-button-response,168,802692,0.0-14.1-25.1,93638,List1B,white,man,,,,,,,,
null,"<div style=""font-size:60px;"">+</div>",,html-keyboard-response,169,804194,0.0-15.0-0.0,93638,List1B,white,man,,,,null,,,,
null,"<img src=""stim_listB/fight5.gif""style=""height:400px;""></stim_listB>",,html-keyboard-response,170,806197,0.0-15.0-1.0,93638,List1B,white,man,,,,null,,,,
null,is fighting,,html-keyboard-response,171,808198,0.0-15.0-2.0,93638,List1B,white,man,,,,null,,,,
4467,,,survey-text,172,812666,0.0-15.0-3.0,93638,List1B,white,man,,,,,"{""Q0"":""mike is fighting dave ""}","<img src=""stim_listB/fight5.gif""style=""height:400px;""></stim_listB>",is fighting,
null,"<div style=""font-size:60px;"">+</div>",,html-keyboard-response,173,813167,0.0-15.0-0.1,93638,List1B,white,man,,,,null,,,,
null,"<img src=""stim_listB/play1.gif""style=""height:400px;""></stim_listB>",,html-keyboard-response,174,815170,0.0-15.0-1.1,93638,List1B,white,man,,,,null,,,,
null,is playing with,,html-keyboard-response,175,817171,0.0-15.0-2.1,93638,List1B,white,man,,,,null,,,,
4263,,,survey-text,176,821435,0.0-15.0-3.1,93638,List1B,white,man,,,,,"{""Q0"":""mike is playing with kate""}","<img src=""stim_listB/play1.gif""style=""height:400px;""></stim_listB>",is playing with,
null,"<div style=""font-size:60px;"">+</div>",,html-keyboard-response,177,821940,0.0-15.0-0.2,93638,List1B,white,man,,,,null,,,,
null,"<img src=""stim_listB/shout7.gif""style=""height:400px;""></stim_listB>",,html-keyboard-response,178,823941,0.0-15.0-1.2,93638,List1B,white,man,,,,null,,,,
null,is shouting at,,html-keyboard-response,179,825942,0.0-15.0-2.2,93638,List1B,white,man,,,,null,,,,
4263,,,survey-text,180,830207,0.0-15.0-3.2,93638,List1B,white,man,,,,,"{""Q0"":""ruth is shouting at beth""}","<img src=""stim_listB/shout7.gif""style=""height:400px;""></stim_listB>",is shouting at,
null,"<div style=""font-size:60px;"">+</div>",,html-keyboard-response,181,830708,0.0-15.0-0.3,93638,List1B,white,man,,,,null,,,,
null,"<img src=""stim_listB/flirt1.gif""style=""height:400px;""></stim_listB>",,html-keyboard-response,182,832710,0.0-15.0-1.3,93638,List1B,white,man,,,,null,,,,
null,is flirting with,,html-keyboard-response,183,834711,0.0-15.0-2.3,93638,List1B,white,man,,,,null,,,,
4943,,,survey-text,184,839656,0.0-15.0-3.3,93638,List1B,white,man,,,,,"{""Q0"":""fred is flirting with kate""}","<img src=""stim_listB/flirt1.gif""style=""height:400px;""></stim_listB>",is flirting with,
null,"<div style=""font-size:60px;"">+</div>",,html-keyboard-response,185,840159,0.0-15.0-0.4,93638,List1B,white,man,,,,null,,,,
null,"<img src=""stim_listB/play7.gif""style=""height:400px;""></stim_listB>",,html-keyboard-response,186,842160,0.0-15.0-1.4,93638,List1B,white,man,,,,null,,,,
null,is playing with,,html-keyboard-response,187,844161,0.0-15.0-2.4,93638,List1B,white,man,,,,null,,,,
5475,,,survey-text,188,849637,0.0-15.0-3.4,93638,List1B,white,man,,,,,"{""Q0"":""jane is playing with kate""}","<img src=""stim_listB/play7.gif""style=""height:400px;""></stim_listB>",is playing with,
null,"<div style=""font-size:60px;"">+</div>",,html-keyboard-response,189,850139,0.0-15.0-0.5,93638,List1B,white,man,,,,null,,,,
null,"<img src=""stim_listB/flirt4.gif""style=""height:400px;""></stim_listB>",,html-keyboard-response,190,852142,0.0-15.0-1.5,93638,List1B,white,man,,,,null,,,,
null,are flirting with each other,,html-keyboard-response,191,854143,0.0-15.0-2.5,93638,List1B,white,man,,,,null,,,,
7830,,,survey-text,192,861974,0.0-15.0-3.5,93638,List1B,white,man,,,,,"{""Q0"":""ruth and dave are flirting with each other""}","<img src=""stim_listB/flirt4.gif""style=""height:400px;""></stim_listB>",are flirting with each other,
null,"<div style=""font-size:60px;"">+</div>",,html-keyboard-response,193,862476,0.0-15.0-0.6,93638,List1B,white,man,,,,null,,,,
null,"<img src=""stim_listB/talk2.gif""style=""height:400px;""></stim_listB>",,html-keyboard-response,194,864478,0.0-15.0-1.6,93638,List1B,white,man,,,,null,,,,
null,are talking to each other,,html-keyboard-response,195,866481,0.0-15.0-2.6,93638,List1B,white,man,,,,null,,,,
6790,,,survey-text,196,873272,0.0-15.0-3.6,93638,List1B,white,man,,,,,"{""Q0"":""mike and beth are talking to each other""}","<img src=""stim_listB/talk2.gif""style=""height:400px;""></stim_listB>",are talking to each other,
null,"<div style=""font-size:60px;"">+</div>",,html-keyboard-response,197,873774,0.0-15.0-0.7,93638,List1B,white,man,,,,null,,,,
null,"<img src=""stim_listB/kiss4.gif""style=""height:400px;""></stim_listB>",,html-keyboard-response,198,875776,0.0-15.0-1.7,93638,List1B,white,man,,,,null,,,,
null,are kissing each other,,html-keyboard-response,199,877779,0.0-15.0-2.7,93638,List1B,white,man,,,,null,,,,
6149,,,survey-text,200,883930,0.0-15.0-3.7,93638,List1B,white,man,,,,,"{""Q0"":""dave and jane are kissing each other""}","<img src=""stim_listB/kiss4.gif""style=""height:400px;""></stim_listB>",are kissing each other,
null,"<div style=""font-size:60px;"">+</div>",,html-keyboard-response,201,884432,0.0-15.0-0.8,93638,List1B,white,man,,,,null,,,,
null,"<img src=""stim_listB/flirt8.gif""style=""height:400px;""></stim_listB>",,html-keyboard-response,202,886434,0.0-15.0-1.8,93638,List1B,white,man,,,,null,,,,
null,are flirting with each other,,html-keyboard-response,203,888435,0.0-15.0-2.8,93638,List1B,white,man,,,,null,,,,
7697,,,survey-text,204,896134,0.0-15.0-3.8,93638,List1B,white,man,,,,,"{""Q0"":""kate and ruth are flirting with each other""}","<img src=""stim_listB/flirt8.gif""style=""height:400px;""></stim_listB>",are flirting with each other,
null,"<div style=""font-size:60px;"">+</div>",,html-keyboard-response,205,896635,0.0-15.0-0.9,93638,List1B,white,man,,,,null,,,,
null,"<img src=""stim_listB/flirt7.gif""style=""height:400px;""></stim_listB>",,html-keyboard-response,206,898636,0.0-15.0-1.9,93638,List1B,white,man,,,,null,,,,
null,is flirting with,,html-keyboard-response,207,900637,0.0-15.0-2.9,93638,List1B,white,man,,,,null,,,,
5515,,,survey-text,208,906153,0.0-15.0-3.9,93638,List1B,white,man,,,,,"{""Q0"":""beth is flirting with ruth""}","<img src=""stim_listB/flirt7.gif""style=""height:400px;""></stim_listB>",is flirting with,
null,"<div style=""font-size:60px;"">+</div>",,html-keyboard-response,209,906655,0.0-15.0-0.10,93638,List1B,white,man,,,,null,,,,
null,"<img src=""stim_listB/touch8.gif""style=""height:400px;""></stim_listB>",,html-keyboard-response,210,908657,0.0-15.0-1.10,93638,List1B,white,man,,,,null,,,,
null,are touching each other,,html-keyboard-response,211,910658,0.0-15.0-2.10,93638,List1B,white,man,,,,null,,,,
1198,,,survey-text,212,911856,0.0-15.0-3.10,93638,List1B,white,man,,,,,"{""Q0"":""""}","<img src=""stim_listB/touch8.gif""style=""height:400px;""></stim_listB>",are touching each other,
null,"<div style=""font-size:60px;"">+</div>",,html-keyboard-response,213,912357,0.0-15.0-0.11,93638,List1B,white,man,,,,null,,,,
null,"<img src=""stim_listB/kiss8.gif""style=""height:400px;""></stim_listB>",,html-keyboard-response,214,914359,0.0-15.0-1.11,93638,List1B,white,man,,,,null,,,,
null,are kissing each other,,html-keyboard-response,215,916360,0.0-15.0-2.11,93638,List1B,white,man,,,,null,,,,
5329,,,survey-text,216,921690,0.0-15.0-3.11,93638,List1B,white,man,,,,,"{""Q0"":""kate and jane are kissing each other""}","<img src=""stim_listB/kiss8.gif""style=""height:400px;""></stim_listB>",are kissing each other,
null,"<div style=""font-size:60px;"">+</div>",,html-keyboard-response,217,922192,0.0-15.0-0.12,93638,List1B,white,man,,,,null,,,,
null,"<img src=""stim_listB/kiss3.gif""style=""height:400px;""></stim_listB>",,html-keyboard-response,218,924194,0.0-15.0-1.12,93638,List1B,white,man,,,,null,,,,
null,is kissing,,html-keyboard-response,219,926195,0.0-15.0-2.12,93638,List1B,white,man,,,,null,,,,
3963,,,survey-text,220,930158,0.0-15.0-3.12,93638,List1B,white,man,,,,,"{""Q0"":""ruth is kissing luke""}","<img src=""stim_listB/kiss3.gif""style=""height:400px;""></stim_listB>",is kissing,
null,"<div style=""font-size:60px;"">+</div>",,html-keyboard-response,221,930661,0.0-15.0-0.13,93638,List1B,white,man,,,,null,,,,
null,"<img src=""stim_listB/play5.gif""style=""height:400px;""></stim_listB>",,html-keyboard-response,222,932663,0.0-15.0-1.13,93638,List1B,white,man,,,,null,,,,
null,is playing with,,html-keyboard-response,223,934665,0.0-15.0-2.13,93638,List1B,white,man,,,,null,,,,
5465,,,survey-text,224,940130,0.0-15.0-3.13,93638,List1B,white,man,,,,,"{""Q0"":""dave is playing with mike""}","<img src=""stim_listB/play5.gif""style=""height:400px;""></stim_listB>",is playing with,
null,"<div style=""font-size:60px;"">+</div>",,html-keyboard-response,225,940632,0.0-15.0-0.14,93638,List1B,white,man,,,,null,,,,
null,"<img src=""stim_listB/fight1.gif""style=""height:400px;""></stim_listB>",,html-keyboard-response,226,942635,0.0-15.0-1.14,93638,List1B,white,man,,,,null,,,,
null,is fighting,,html-keyboard-response,227,944636,0.0-15.0-2.14,93638,List1B,white,man,,,,null,,,,
3927,,,survey-text,228,948564,0.0-15.0-3.14,93638,List1B,white,man,,,,,"{""Q0"":""kate is fighting mike""}","<img src=""stim_listB/fight1.gif""style=""height:400px;""></stim_listB>",is fighting,
null,"<div style=""font-size:60px;"">+</div>",,html-keyboard-response,229,949067,0.0-15.0-0.15,93638,List1B,white,man,,,,null,,,,
null,"<img src=""stim_listB/shout2.gif""style=""height:400px;""></stim_listB>",,html-keyboard-response,230,951072,0.0-15.0-1.15,93638,List1B,white,man,,,,null,,,,
null,are shouting at each other,,html-keyboard-response,231,953073,0.0-15.0-2.15,93638,List1B,white,man,,,,null,,,,
6769,,,survey-text,232,959842,0.0-15.0-3.15,93638,List1B,white,man,,,,,"{""Q0"":""mike and kate are shouting at each other""}","<img src=""stim_listB/shout2.gif""style=""height:400px;""></stim_listB>",are shouting at each other,
null,"<div style=""font-size:60px;"">+</div>",,html-keyboard-response,233,960344,0.0-15.0-0.16,93638,List1B,white,man,,,,null,,,,
null,"<img src=""stim_listB/argue8.gif""style=""height:400px;""></stim_listB>",,html-keyboard-response,234,962346,0.0-15.0-1.16,93638,List1B,white,man,,,,null,,,,
null,are arguing with each other,,html-keyboard-response,235,964347,0.0-15.0-2.16,93638,List1B,white,man,,,,null,,,,
6785,,,survey-text,236,971133,0.0-15.0-3.16,93638,List1B,white,man,,,,,"{""Q0"":""jane and beth are shouting at each other""}","<img src=""stim_listB/argue8.gif""style=""height:400px;""></stim_listB>",are arguing with each other,
null,"<div style=""font-size:60px;"">+</div>",,html-keyboard-response,237,971636,0.0-15.0-0.17,93638,List1B,white,man,,,,null,,,,
null,"<img src=""stim_listB/marry5.gif""style=""height:400px;""></stim_listB>",,html-keyboard-response,238,973637,0.0-15.0-1.17,93638,List1B,white,man,,,,null,,,,
null,is marrying,,html-keyboard-response,239,975638,0.0-15.0-2.17,93638,List1B,white,man,,,,null,,,,
3617,,,survey-text,240,979257,0.0-15.0-3.17,93638,List1B,white,man,,,,,"{""Q0"":""mike is marrying luke""}","<img src=""stim_listB/marry5.gif""style=""height:400px;""></stim_listB>",is marrying,
null,"<div style=""font-size:60px;"">+</div>",,html-keyboard-response,241,979758,0.0-15.0-0.18,93638,List1B,white,man,,,,null,,,,
null,"<img src=""stim_listB/play4.gif""style=""height:400px;""></stim_listB>",,html-keyboard-response,242,981761,0.0-15.0-1.18,93638,List1B,white,man,,,,null,,,,
null,are playing with each other,,html-keyboard-response,243,983762,0.0-15.0-2.18,93638,List1B,white,man,,,,null,,,,
5885,,,survey-text,244,989649,0.0-15.0-3.18,93638,List1B,white,man,,,,,"{""Q0"":""luke and ruth are playing with each other""}","<img src=""stim_listB/play4.gif""style=""height:400px;""></stim_listB>",are playing with each other,
null,"<div style=""font-size:60px;"">+</div>",,html-keyboard-response,245,990151,0.0-15.0-0.19,93638,List1B,white,man,,,,null,,,,
null,"<img src=""stim_listB/argue3.gif""style=""height:400px;""></stim_listB>",,html-keyboard-response,246,992153,0.0-15.0-1.19,93638,List1B,white,man,,,,null,,,,
null,is arguing with,,html-keyboard-response,247,994154,0.0-15.0-2.19,93638,List1B,white,man,,,,null,,,,
3469,,,survey-text,248,997624,0.0-15.0-3.19,93638,List1B,white,man,,,,,"{""Q0"":""dave is arguing with ruth""}","<img src=""stim_listB/argue3.gif""style=""height:400px;""></stim_listB>",is arguing with,
3291,"<img src='img/portrait_matrix_list1.jpg' style='width:900px;height:500px;''></img><p>If you have memorised all the portraits and names and are ready to start, press Continue.</p><p><strong>Please note: Your memory of these faces will be tested 4 times during this experiment.</strong></p>",0,html-button-response,249,1000917,0.0-16.0-0.0,93638,List1B,white,man,,,,,,,,
2263,"<img src=""portrait/BM2.jpg""style=""height:400px;""></img>",5,html-button-response,250,1004183,0.0-16.0-1.0,93638,List1B,white,man,,TRUE,5,,,,,
null,CORRECT,,html-keyboard-response,251,1005685,0.0-16.0-2.0-0.0,93638,List1B,white,man,,,,null,,,,
1886,"<img src=""portrait/WW1.jpg""style=""height:400px;""></img>",1,html-button-response,252,1007573,0.0-16.0-4.0,93638,List1B,white,man,,TRUE,1,,,,,
null,CORRECT,,html-keyboard-response,253,1009075,0.0-16.0-5.0-0.0,93638,List1B,white,man,,,,null,,,,
2332,"<img src=""portrait/BW1.jpg""style=""height:400px;""></img>",0,html-button-response,254,1011408,0.0-16.0-7.0,93638,List1B,white,man,,TRUE,0,,,,,
null,CORRECT,,html-keyboard-response,255,1014156,0.0-16.0-8.0-0.0,93638,List1B,white,man,,,,null,,,,
2984,"<img src=""portrait/WM1.jpg""style=""height:400px;""></img>",6,html-button-response,256,1017143,0.0-16.0-10.0,93638,List1B,white,man,,TRUE,6,,,,,
null,CORRECT,,html-keyboard-response,257,1018645,0.0-16.0-11.0-0.0,93638,List1B,white,man,,,,null,,,,
1727,"<img src=""portrait/WM2.jpg""style=""height:400px;""></img>",7,html-button-response,258,1020375,0.0-16.0-13.0,93638,List1B,white,man,,TRUE,7,,,,,
null,CORRECT,,html-keyboard-response,259,1021878,0.0-16.0-14.0-0.0,93638,List1B,white,man,,,,null,,,,
2381,"<img src=""portrait/BW2.jpg""style=""height:400px;""></img>",2,html-button-response,260,1024260,0.0-16.0-16.0,93638,List1B,white,man,,TRUE,2,,,,,
null,CORRECT,,html-keyboard-response,261,1025763,0.0-16.0-17.0-0.0,93638,List1B,white,man,,,,null,,,,
1306,"<img src=""portrait/WW2.jpg""style=""height:400px;""></img>",3,html-button-response,262,1027070,0.0-16.0-19.0,93638,List1B,white,man,,TRUE,3,,,,,
null,CORRECT,,html-keyboard-response,263,1028573,0.0-16.0-20.0-0.0,93638,List1B,white,man,,,,null,,,,
1080,"<img src=""portrait/BM1.jpg""style=""height:400px;""></img>",4,html-button-response,264,1029656,0.0-16.0-22.0,93638,List1B,white,man,,TRUE,4,,,,,
null,CORRECT,,html-keyboard-response,265,1031159,0.0-16.0-23.0-0.0,93638,List1B,white,man,,,,null,,,,
774,<p>You got 8 out of 8 right first time. Press Continue.</p>,0,html-button-response,266,1031935,0.0-16.0-25.0,93638,List1B,white,man,,,,,,,,
null,"<div style=""font-size:60px;"">+</div>",,html-keyboard-response,267,1033439,0.0-17.0-0.0,93638,List1B,white,man,,,,null,,,,
null,"<img src=""stim_listB/play6.gif""style=""height:400px;""></stim_listB>",,html-keyboard-response,268,1035442,0.0-17.0-1.0,93638,List1B,white,man,,,,null,,,,
null,are playing with each other,,html-keyboard-response,269,1037443,0.0-17.0-2.0,93638,List1B,white,man,,,,null,,,,
6166,,,survey-text,270,1043609,0.0-17.0-3.0,93638,List1B,white,man,,,,,"{""Q0"":""fred and luke are playing with each other""}","<img src=""stim_listB/play6.gif""style=""height:400px;""></stim_listB>",are playing with each other,
null,"<div style=""font-size:60px;"">+</div>",,html-keyboard-response,271,1044112,0.0-17.0-0.1,93638,List1B,white,man,,,,null,,,,
null,"<img src=""stim_listB/marry3.gif""style=""height:400px;""></stim_listB>",,html-keyboard-response,272,1046114,0.0-17.0-1.1,93638,List1B,white,man,,,,null,,,,
null,is marrying,,html-keyboard-response,273,1048115,0.0-17.0-2.1,93638,List1B,white,man,,,,null,,,,
3485,,,survey-text,274,1051601,0.0-17.0-3.1,93638,List1B,white,man,,,,,"{""Q0"":""dave is marrying ruth""}","<img src=""stim_listB/marry3.gif""style=""height:400px;""></stim_listB>",is marrying,
null,"<div style=""font-size:60px;"">+</div>",,html-keyboard-response,275,1052102,0.0-17.0-0.2,93638,List1B,white,man,,,,null,,,,
null,"<img src=""stim_listB/flirt3.gif""style=""height:400px;""></stim_listB>",,html-keyboard-response,276,1054104,0.0-17.0-1.2,93638,List1B,white,man,,,,null,,,,
null,is flirting with,,html-keyboard-response,277,1056107,0.0-17.0-2.2,93638,List1B,white,man,,,,null,,,,
4250,,,survey-text,278,1060358,0.0-17.0-3.2,93638,List1B,white,man,,,,,"{""Q0"":""luke is flirting with jane""}","<img src=""stim_listB/flirt3.gif""style=""height:400px;""></stim_listB>",is flirting with,
null,"<div style=""font-size:60px;"">+</div>",,html-keyboard-response,279,1060860,0.0-17.0-0.3,93638,List1B,white,man,,,,null,,,,
null,"<img src=""stim_listB/shout4.gif""style=""height:400px;""></stim_listB>",,html-keyboard-response,280,1062861,0.0-17.0-1.3,93638,List1B,white,man,,,,null,,,,
null,are shouting at each other,,html-keyboard-response,281,1064862,0.0-17.0-2.3,93638,List1B,white,man,,,,null,,,,
6539,,,survey-text,282,1071403,0.0-17.0-3.3,93638,List1B,white,man,,,,,"{""Q0"":""dave and jane are shouting at each other""}","<img src=""stim_listB/shout4.gif""style=""height:400px;""></stim_listB>",are shouting at each other,
null,"<div style=""font-size:60px;"">+</div>",,html-keyboard-response,283,1071905,0.0-17.0-0.4,93638,List1B,white,man,,,,null,,,,
null,"<img src=""stim_listB/fight2.gif""style=""height:400px;""></stim_listB>",,html-keyboard-response,284,1073907,0.0-17.0-1.4,93638,List1B,white,man,,,,null,,,,
null,are fighting each other,,html-keyboard-response,285,1075907,0.0-17.0-2.4,93638,List1B,white,man,,,,null,,,,
8207,,,survey-text,286,1084116,0.0-17.0-3.4,93638,List1B,white,man,,,,,"{""Q0"":""kate and beth are shouting at each other""}","<img src=""stim_listB/fight2.gif""style=""height:400px;""></stim_listB>",are fighting each other,
null,"<div style=""font-size:60px;"">+</div>",,html-keyboard-response,287,1084617,0.0-17.0-0.5,93638,List1B,white,man,,,,null,,,,
null,"<img src=""stim_listB/kiss5.gif""style=""height:400px;""></stim_listB>",,html-keyboard-response,288,1086619,0.0-17.0-1.5,93638,List1B,white,man,,,,null,,,,
null,is kissing,,html-keyboard-response,289,1088620,0.0-17.0-2.5,93638,List1B,white,man,,,,null,,,,
4385,,,survey-text,290,1093006,0.0-17.0-3.5,93638,List1B,white,man,,,,,"{""Q0"":""fred is kissing luke""}","<img src=""stim_listB/kiss5.gif""style=""height:400px;""></stim_listB>",is kissing,
null,"<div style=""font-size:60px;"">+</div>",,html-keyboard-response,291,1093508,0.0-17.0-0.6,93638,List1B,white,man,,,,null,,,,
null,"<img src=""stim_listB/marry7.gif""style=""height:400px;""></stim_listB>",,html-keyboard-response,292,1095510,0.0-17.0-1.6,93638,List1B,white,man,,,,null,,,,
null,is marrying,,html-keyboard-response,293,1097511,0.0-17.0-2.6,93638,List1B,white,man,,,,null,,,,
3844,,,survey-text,294,1101356,0.0-17.0-3.6,93638,List1B,white,man,,,,,"{""Q0"":""ruth is marrying kate""}","<img src=""stim_listB/marry7.gif""style=""height:400px;""></stim_listB>",is marrying,
null,"<div style=""font-size:60px;"">+</div>",,html-keyboard-response,295,1101858,0.0-17.0-0.7,93638,List1B,white,man,,,,null,,,,
null,"<img src=""stim_listB/play8.gif""style=""height:400px;""></stim_listB>",,html-keyboard-response,296,1103860,0.0-17.0-1.7,93638,List1B,white,man,,,,null,,,,
null,are playing with each other,,html-keyboard-response,297,1105861,0.0-17.0-2.7,93638,List1B,white,man,,,,null,,,,
9471,,,survey-text,298,1115334,0.0-17.0-3.7,93638,List1B,white,man,,,,,"{""Q0"":""beth and ruth are playing with each other""}","<img src=""stim_listB/play8.gif""style=""height:400px;""></stim_listB>",are playing with each other,
null,"<div style=""font-size:60px;"">+</div>",,html-keyboard-response,299,1115835,0.0-17.0-0.8,93638,List1B,white,man,,,,null,,,,
null,"<img src=""stim_listB/dance8.gif""style=""height:400px;""></stim_listB>",,html-keyboard-response,300,1117838,0.0-17.0-1.8,93638,List1B,white,man,,,,null,,,,
null,are dancing with each other,,html-keyboard-response,301,1119839,0.0-17.0-2.8,93638,List1B,white,man,,,,null,,,,
5522,,,survey-text,302,1125362,0.0-17.0-3.8,93638,List1B,white,man,,,,,"{""Q0"":""kate and ruth are dancing with each other""}","<img src=""stim_listB/dance8.gif""style=""height:400px;""></stim_listB>",are dancing with each other,
null,"<div style=""font-size:60px;"">+</div>",,html-keyboard-response,303,1125864,0.0-17.0-0.9,93638,List1B,white,man,,,,null,,,,
null,"<img src=""stim_listB/fight3.gif""style=""height:400px;""></stim_listB>",,html-keyboard-response,304,1127867,0.0-17.0-1.9,93638,List1B,white,man,,,,null,,,,
null,is fighting,,html-keyboard-response,305,1129868,0.0-17.0-2.9,93638,List1B,white,man,,,,null,,,,
3588,,,survey-text,306,1133458,0.0-17.0-3.9,93638,List1B,white,man,,,,,"{""Q0"":""jane is fighting dave ""}","<img src=""stim_listB/fight3.gif""style=""height:400px;""></stim_listB>",is fighting,
null,"<div style=""font-size:60px;"">+</div>",,html-keyboard-response,307,1133960,0.0-17.0-0.10,93638,List1B,white,man,,,,null,,,,
null,"<img src=""stim_listB/marry4.gif""style=""height:400px;""></stim_listB>",,html-keyboard-response,308,1135961,0.0-17.0-1.10,93638,List1B,white,man,,,,null,,,,
null,are marrying each other,,html-keyboard-response,309,1137963,0.0-17.0-2.10,93638,List1B,white,man,,,,null,,,,
8180,,,survey-text,310,1146143,0.0-17.0-3.10,93638,List1B,white,man,,,,,"{""Q0"":""luke and jane are marrying each other""}","<img src=""stim_listB/marry4.gif""style=""height:400px;""></stim_listB>",are marrying each other,
null,"<div style=""font-size:60px;"">+</div>",,html-keyboard-response,311,1146645,0.0-17.0-0.11,93638,List1B,white,man,,,,null,,,,
null,"<img src=""stim_listB/shout1.gif""style=""height:400px;""></stim_listB>",,html-keyboard-response,312,1148646,0.0-17.0-1.11,93638,List1B,white,man,,,,null,,,,
null,is shouting at,,html-keyboard-response,313,1150651,0.0-17.0-2.11,93638,List1B,white,man,,,,null,,,,
4839,,,survey-text,314,1155491,0.0-17.0-3.11,93638,List1B,white,man,,,,,"{""Q0"":""fred is shouting at beth""}","<img src=""stim_listB/shout1.gif""style=""height:400px;""></stim_listB>",is shouting at,
null,"<div style=""font-size:60px;"">+</div>",,html-keyboard-response,315,1155993,0.0-17.0-0.12,93638,List1B,white,man,,,,null,,,,
null,"<img src=""stim_listB/shout6.gif""style=""height:400px;""></stim_listB>",,html-keyboard-response,316,1157996,0.0-17.0-1.12,93638,List1B,white,man,,,,null,,,,
null,are shouting at each other,,html-keyboard-response,317,1159997,0.0-17.0-2.12,93638,List1B,white,man,,,,null,,,,
5952,,,survey-text,318,1165949,0.0-17.0-3.12,93638,List1B,white,man,,,,,"{""Q0"":""mike and dave are shouting at each other""}","<img src=""stim_listB/shout6.gif""style=""height:400px;""></stim_listB>",are shouting at each other,
null,"<div style=""font-size:60px;"">+</div>",,html-keyboard-response,319,1166451,0.0-17.0-0.13,93638,List1B,white,man,,,,null,,,,
null,"<img src=""stim_listB/marry2.gif""style=""height:400px;""></stim_listB>",,html-keyboard-response,320,1168454,0.0-17.0-1.13,93638,List1B,white,man,,,,null,,,,
null,are marrying each other,,html-keyboard-response,321,1170455,0.0-17.0-2.13,93638,List1B,white,man,,,,null,,,,
6929,,,survey-text,322,1177385,0.0-17.0-3.13,93638,List1B,white,man,,,,,"{""Q0"":""fred and kate are marrying each other""}","<img src=""stim_listB/marry2.gif""style=""height:400px;""></stim_listB>",are marrying each other,
null,"<div style=""font-size:60px;"">+</div>",,html-keyboard-response,323,1177886,0.0-17.0-0.14,93638,List1B,white,man,,,,null,,,,
null,"<img src=""stim_listB/dance7.gif""style=""height:400px;""></stim_listB>",,html-keyboard-response,324,1179888,0.0-17.0-1.14,93638,List1B,white,man,,,,null,,,,
null,is dancing with,,html-keyboard-response,325,1181889,0.0-17.0-2.14,93638,List1B,white,man,,,,null,,,,
4578,,,survey-text,326,1186469,0.0-17.0-3.14,93638,List1B,white,man,,,,,"{""Q0"":""beth is dancing with jane""}","<img src=""stim_listB/dance7.gif""style=""height:400px;""></stim_listB>",is dancing with,
null,"<div style=""font-size:60px;"">+</div>",,html-keyboard-response,327,1186970,0.0-17.0-0.15,93638,List1B,white,man,,,,null,,,,
null,"<img src=""stim_listB/argue2.gif""style=""height:400px;""></stim_listB>",,html-keyboard-response,328,1188971,0.0-17.0-1.15,93638,List1B,white,man,,,,null,,,,
null,are arguing with each other,,html-keyboard-response,329,1190973,0.0-17.0-2.15,93638,List1B,white,man,,,,null,,,,
6010,,,survey-text,330,1196985,0.0-17.0-3.15,93638,List1B,white,man,,,,,"{""Q0"":""fred and kate are arguing with each other""}","<img src=""stim_listB/argue2.gif""style=""height:400px;""></stim_listB>",are arguing with each other,
null,"<div style=""font-size:60px;"">+</div>",,html-keyboard-response,331,1197487,0.0-17.0-0.16,93638,List1B,white,man,,,,null,,,,
null,"<img src=""stim_listB/marry8.gif""style=""height:400px;""></stim_listB>",,html-keyboard-response,332,1199489,0.0-17.0-1.16,93638,List1B,white,man,,,,null,,,,
null,are marrying each other,,html-keyboard-response,333,1201490,0.0-17.0-2.16,93638,List1B,white,man,,,,null,,,,
6103,,,survey-text,334,1207594,0.0-17.0-3.16,93638,List1B,white,man,,,,,"{""Q0"":""ruth and beth are marrying each other""}","<img src=""stim_listB/marry8.gif""style=""height:400px;""></stim_listB>",are marrying each other,
null,"<div style=""font-size:60px;"">+</div>",,html-keyboard-response,335,1208096,0.0-17.0-0.17,93638,List1B,white,man,,,,null,,,,
null,"<img src=""stim_listB/talk8.gif""style=""height:400px;""></stim_listB>",,html-keyboard-response,336,1210098,0.0-17.0-1.17,93638,List1B,white,man,,,,null,,,,
null,are talking to each other,,html-keyboard-response,337,1212099,0.0-17.0-2.17,93638,List1B,white,man,,,,null,,,,
8094,,,survey-text,338,1220193,0.0-17.0-3.17,93638,List1B,white,man,,,,,"{""Q0"":""ruth and kate are talking to each other""}","<img src=""stim_listB/talk8.gif""style=""height:400px;""></stim_listB>",are talking to each other,
null,"<div style=""font-size:60px;"">+</div>",,html-keyboard-response,339,1220695,0.0-17.0-0.18,93638,List1B,white,man,,,,null,,,,
null,"<img src=""stim_listB/dance4.gif""style=""height:400px;""></stim_listB>",,html-keyboard-response,340,1222697,0.0-17.0-1.18,93638,List1B,white,man,,,,null,,,,
null,are dancing with each other,,html-keyboard-response,341,1224698,0.0-17.0-2.18,93638,List1B,white,man,,,,null,,,,
5759,,,survey-text,342,1230458,0.0-17.0-3.18,93638,List1B,white,man,,,,,"{""Q0"":""dave and ruth are dancing with each other""}","<img src=""stim_listB/dance4.gif""style=""height:400px;""></stim_listB>",are dancing with each other,
null,"<div style=""font-size:60px;"">+</div>",,html-keyboard-response,343,1230960,0.0-17.0-0.19,93638,List1B,white,man,,,,null,,,,
null,"<img src=""stim_listB/argue4.gif""style=""height:400px;""></stim_listB>",,html-keyboard-response,344,1232962,0.0-17.0-1.19,93638,List1B,white,man,,,,null,,,,
null,are arguing with each other,,html-keyboard-response,345,1234963,0.0-17.0-2.19,93638,List1B,white,man,,,,null,,,,
5920,,,survey-text,346,1240884,0.0-17.0-3.19,93638,List1B,white,man,,,,,"{""Q0"":""luke and jane are arguing with each other ""}","<img src=""stim_listB/argue4.gif""style=""height:400px;""></stim_listB>",are arguing with each other,
2131,"<img src='img/portrait_matrix_list1.jpg' style='width:900px;height:500px;''></img><p>If you have memorised all the portraits and names and are ready to start, press Continue.</p><p><strong>Please note: Your memory of these faces will be tested 4 times during this experiment.</strong></p>",0,html-button-response,347,1243016,0.0-18.0-0.0,93638,List1B,white,man,,,,,,,,
1300,"<img src=""portrait/WM1.jpg""style=""height:400px;""></img>",6,html-button-response,348,1245321,0.0-18.0-1.0,93638,List1B,white,man,,TRUE,6,,,,,
null,CORRECT,,html-keyboard-response,349,1246823,0.0-18.0-2.0-0.0,93638,List1B,white,man,,,,null,,,,
1101,"<img src=""portrait/WM2.jpg""style=""height:400px;""></img>",7,html-button-response,350,1247926,0.0-18.0-4.0,93638,List1B,white,man,,TRUE,7,,,,,
null,CORRECT,,html-keyboard-response,351,1249429,0.0-18.0-5.0-0.0,93638,List1B,white,man,,,,null,,,,
2678,"<img src=""portrait/WW1.jpg""style=""height:400px;""></img>",1,html-button-response,352,1252108,0.0-18.0-7.0,93638,List1B,white,man,,TRUE,1,,,,,
null,CORRECT,,html-keyboard-response,353,1253611,0.0-18.0-8.0-0.0,93638,List1B,white,man,,,,null,,,,
3081,"<img src=""portrait/BW2.jpg""style=""height:400px;""></img>",2,html-button-response,354,1256694,0.0-18.0-10.0,93638,List1B,white,man,,TRUE,2,,,,,
null,CORRECT,,html-keyboard-response,355,1258197,0.0-18.0-11.0-0.0,93638,List1B,white,man,,,,null,,,,
1055,"<img src=""portrait/WW2.jpg""style=""height:400px;""></img>",3,html-button-response,356,1259254,0.0-18.0-13.0,93638,List1B,white,man,,TRUE,3,,,,,
null,CORRECT,,html-keyboard-response,357,1260757,0.0-18.0-14.0-0.0,93638,List1B,white,man,,,,null,,,,
1089,"<img src=""portrait/BM2.jpg""style=""height:400px;""></img>",5,html-button-response,358,1261848,0.0-18.0-16.0,93638,List1B,white,man,,TRUE,5,,,,,
null,CORRECT,,html-keyboard-response,359,1263351,0.0-18.0-17.0-0.0,93638,List1B,white,man,,,,null,,,,
2647,"<img src=""portrait/BW1.jpg""style=""height:400px;""></img>",0,html-button-response,360,1266000,0.0-18.0-19.0,93638,List1B,white,man,,TRUE,0,,,,,
null,CORRECT,,html-keyboard-response,361,1267502,0.0-18.0-20.0-0.0,93638,List1B,white,man,,,,null,,,,
1446,"<img src=""portrait/BM1.jpg""style=""height:400px;""></img>",4,html-button-response,362,1268950,0.0-18.0-22.0,93638,List1B,white,man,,TRUE,4,,,,,
null,CORRECT,,html-keyboard-response,363,1270453,0.0-18.0-23.0-0.0,93638,List1B,white,man,,,,null,,,,
946,<p>You got 8 out of 8 right first time. Press Continue.</p>,0,html-button-response,364,1271400,0.0-18.0-25.0,93638,List1B,white,man,,,,,,,,
null,"<div style=""font-size:60px;"">+</div>",,html-keyboard-response,365,1272904,0.0-19.0-0.0,93638,List1B,white,man,,,,null,,,,
null,"<img src=""stim_listB/talk3.gif""style=""height:400px;""></stim_listB>",,html-keyboard-response,366,1274907,0.0-19.0-1.0,93638,List1B,white,man,,,,null,,,,
null,is talking to,,html-keyboard-response,367,1276907,0.0-19.0-2.0,93638,List1B,white,man,,,,null,,,,
4367,,,survey-text,368,1281275,0.0-19.0-3.0,93638,List1B,white,man,,,,,"{""Q0"":""luke is talking to dave ""}","<img src=""stim_listB/talk3.gif""style=""height:400px;""></stim_listB>",is talking to,
null,"<div style=""font-size:60px;"">+</div>",,html-keyboard-response,369,1281777,0.0-19.0-0.1,93638,List1B,white,man,,,,null,,,,
null,"<img src=""stim_listB/talk1.gif""style=""height:400px;""></stim_listB>",,html-keyboard-response,370,1283782,0.0-19.0-1.1,93638,List1B,white,man,,,,null,,,,
null,is talking to,,html-keyboard-response,371,1285783,0.0-19.0-2.1,93638,List1B,white,man,,,,null,,,,
4948,,,survey-text,372,1290732,0.0-19.0-3.1,93638,List1B,white,man,,,,,"{""Q0"":""fred is talking to kate""}","<img src=""stim_listB/talk1.gif""style=""height:400px;""></stim_listB>",is talking to,
null,"<div style=""font-size:60px;"">+</div>",,html-keyboard-response,373,1291233,0.0-19.0-0.2,93638,List1B,white,man,,,,null,,,,
null,"<img src=""stim_listB/dance5.gif""style=""height:400px;""></stim_listB>",,html-keyboard-response,374,1293234,0.0-19.0-1.2,93638,List1B,white,man,,,,null,,,,
null,is dancing with,,html-keyboard-response,375,1295235,0.0-19.0-2.2,93638,List1B,white,man,,,,null,,,,
25412,,,survey-text,376,1320648,0.0-19.0-3.2,93638,List1B,white,man,,,,,"{""Q0"":""dave is dancing with fred""}","<img src=""stim_listB/dance5.gif""style=""height:400px;""></stim_listB>",is dancing with,
null,"<div style=""font-size:60px;"">+</div>",,html-keyboard-response,377,1321153,0.0-19.0-0.3,93638,List1B,white,man,,,,null,,,,
null,"<img src=""stim_listB/talk6.gif""style=""height:400px;""></stim_listB>",,html-keyboard-response,378,1323155,0.0-19.0-1.3,93638,List1B,white,man,,,,null,,,,
null,are talking to each other,,html-keyboard-response,379,1325156,0.0-19.0-2.3,93638,List1B,white,man,,,,null,,,,
5520,,,survey-text,380,1330677,0.0-19.0-3.3,93638,List1B,white,man,,,,,"{""Q0"":""mike and luke are talking to each other""}","<img src=""stim_listB/talk6.gif""style=""height:400px;""></stim_listB>",are talking to each other,
null,"<div style=""font-size:60px;"">+</div>",,html-keyboard-response,381,1331179,0.0-19.0-0.4,93638,List1B,white,man,,,,null,,,,
null,"<img src=""stim_listB/touch4.gif""style=""height:400px;""></stim_listB>",,html-keyboard-response,382,1333181,0.0-19.0-1.4,93638,List1B,white,man,,,,null,,,,
null,are touching each other,,html-keyboard-response,383,1335182,0.0-19.0-2.4,93638,List1B,white,man,,,,null,,,,
5227,,,survey-text,384,1340410,0.0-19.0-3.4,93638,List1B,white,man,,,,,"{""Q0"":""luke and ruth are touching each other""}","<img src=""stim_listB/touch4.gif""style=""height:400px;""></stim_listB>",are touching each other,
null,"<div style=""font-size:60px;"">+</div>",,html-keyboard-response,385,1340911,0.0-19.0-0.5,93638,List1B,white,man,,,,null,,,,
null,"<img src=""stim_listB/fight7.gif""style=""height:400px;""></stim_listB>",,html-keyboard-response,386,1342913,0.0-19.0-1.5,93638,List1B,white,man,,,,null,,,,
null,is fighting,,html-keyboard-response,387,1344914,0.0-19.0-2.5,93638,List1B,white,man,,,,null,,,,
3289,,,survey-text,388,1348205,0.0-19.0-3.5,93638,List1B,white,man,,,,,"{""Q0"":""kate is fighting jane ""}","<img src=""stim_listB/fight7.gif""style=""height:400px;""></stim_listB>",is fighting,
null,"<div style=""font-size:60px;"">+</div>",,html-keyboard-response,389,1348707,0.0-19.0-0.6,93638,List1B,white,man,,,,null,,,,
null,"<img src=""stim_listB/talk4.gif""style=""height:400px;""></stim_listB>",,html-keyboard-response,390,1350711,0.0-19.0-1.6,93638,List1B,white,man,,,,null,,,,
null,are talking to each other,,html-keyboard-response,391,1352712,0.0-19.0-2.6,93638,List1B,white,man,,,,null,,,,
5468,,,survey-text,392,1358182,0.0-19.0-3.6,93638,List1B,white,man,,,,,"{""Q0"":""dave and ruth are talking to each other ""}","<img src=""stim_listB/talk4.gif""style=""height:400px;""></stim_listB>",are talking to each other,
null,"<div style=""font-size:60px;"">+</div>",,html-keyboard-response,393,1358688,0.0-19.0-0.7,93638,List1B,white,man,,,,null,,,,
null,"<img src=""stim_listB/flirt5.gif""style=""height:400px;""></stim_listB>",,html-keyboard-response,394,1360690,0.0-19.0-1.7,93638,List1B,white,man,,,,null,,,,
null,is flirting with,,html-keyboard-response,395,1362691,0.0-19.0-2.7,93638,List1B,white,man,,,,null,,,,
4775,,,survey-text,396,1367468,0.0-19.0-3.7,93638,List1B,white,man,,,,,"{""Q0"":""dave is flirting with fred ""}","<img src=""stim_listB/flirt5.gif""style=""height:400px;""></stim_listB>",is flirting with,
null,"<div style=""font-size:60px;"">+</div>",,html-keyboard-response,397,1367969,0.0-19.0-0.8,93638,List1B,white,man,,,,null,,,,
null,"<img src=""stim_listB/play3.gif""style=""height:400px;""></stim_listB>",,html-keyboard-response,398,1369971,0.0-19.0-1.8,93638,List1B,white,man,,,,null,,,,
null,is playing with,,html-keyboard-response,399,1371973,0.0-19.0-2.8,93638,List1B,white,man,,,,null,,,,
4109,,,survey-text,400,1376083,0.0-19.0-3.8,93638,List1B,white,man,,,,,"{""Q0"":""dave is playing with jane ""}","<img src=""stim_listB/play3.gif""style=""height:400px;""></stim_listB>",is playing with,
null,"<div style=""font-size:60px;"">+</div>",,html-keyboard-response,401,1376585,0.0-19.0-0.9,93638,List1B,white,man,,,,null,,,,
null,"<img src=""stim_listB/touch1.gif""style=""height:400px;""></stim_listB>",,html-keyboard-response,402,1378587,0.0-19.0-1.9,93638,List1B,white,man,,,,null,,,,
null,is touching,,html-keyboard-response,403,1380589,0.0-19.0-2.9,93638,List1B,white,man,,,,null,,,,
4705,,,survey-text,404,1385295,0.0-19.0-3.9,93638,List1B,white,man,,,,,"{""Q0"":""kate is touching mike""}","<img src=""stim_listB/touch1.gif""style=""height:400px;""></stim_listB>",is touching,
null,"<div style=""font-size:60px;"">+</div>",,html-keyboard-response,405,1385796,0.0-19.0-0.10,93638,List1B,white,man,,,,null,,,,
null,"<img src=""stim_listB/talk7.gif""style=""height:400px;""></stim_listB>",,html-keyboard-response,406,1387799,0.0-19.0-1.10,93638,List1B,white,man,,,,null,,,,
null,is talking to,,html-keyboard-response,407,1389800,0.0-19.0-2.10,93638,List1B,white,man,,,,null,,,,
3675,,,survey-text,408,1393476,0.0-19.0-3.10,93638,List1B,white,man,,,,,"{""Q0"":""jane is talking to beth""}","<img src=""stim_listB/talk7.gif""style=""height:400px;""></stim_listB>",is talking to,
null,"<div style=""font-size:60px;"">+</div>",,html-keyboard-response,409,1393977,0.0-19.0-0.11,93638,List1B,white,man,,,,null,,,,
null,"<img src=""stim_listB/kiss1.gif""style=""height:400px;""></stim_listB>",,html-keyboard-response,410,1395979,0.0-19.0-1.11,93638,List1B,white,man,,,,null,,,,
null,is kissing,,html-keyboard-response,411,1397981,0.0-19.0-2.11,93638,List1B,white,man,,,,null,,,,
3046,,,survey-text,412,1401028,0.0-19.0-3.11,93638,List1B,white,man,,,,,"{""Q0"":""beth is kissing fred""}","<img src=""stim_listB/kiss1.gif""style=""height:400px;""></stim_listB>",is kissing,
null,"<div style=""font-size:60px;"">+</div>",,html-keyboard-response,413,1401534,0.0-19.0-0.12,93638,List1B,white,man,,,,null,,,,
null,"<img src=""stim_listB/touch6.gif""style=""height:400px;""></stim_listB>",,html-keyboard-response,414,1403537,0.0-19.0-1.12,93638,List1B,white,man,,,,null,,,,
null,are touching each other,,html-keyboard-response,415,1405538,0.0-19.0-2.12,93638,List1B,white,man,,,,null,,,,
5480,,,survey-text,416,1411020,0.0-19.0-3.12,93638,List1B,white,man,,,,,"{""Q0"":""fred and luke are touching each other ""}","<img src=""stim_listB/touch6.gif""style=""height:400px;""></stim_listB>",are touching each other,
null,"<div style=""font-size:60px;"">+</div>",,html-keyboard-response,417,1411522,0.0-19.0-0.13,93638,List1B,white,man,,,,null,,,,
null,"<img src=""stim_listB/marry1.gif""style=""height:400px;""></stim_listB>",,html-keyboard-response,418,1413525,0.0-19.0-1.13,93638,List1B,white,man,,,,null,,,,
null,is marrying,,html-keyboard-response,419,1415526,0.0-19.0-2.13,93638,List1B,white,man,,,,null,,,,
3905,,,survey-text,420,1419431,0.0-19.0-3.13,93638,List1B,white,man,,,,,"{""Q0"":""mike is marrying beth ""}","<img src=""stim_listB/marry1.gif""style=""height:400px;""></stim_listB>",is marrying,
null,"<div style=""font-size:60px;"">+</div>",,html-keyboard-response,421,1419933,0.0-19.0-0.14,93638,List1B,white,man,,,,null,,,,
null,"<img src=""stim_listB/kiss2.gif""style=""height:400px;""></stim_listB>",,html-keyboard-response,422,1421936,0.0-19.0-1.14,93638,List1B,white,man,,,,null,,,,
null,are kissing each other,,html-keyboard-response,423,1423938,0.0-19.0-2.14,93638,List1B,white,man,,,,null,,,,
6896,,,survey-text,424,1430836,0.0-19.0-3.14,93638,List1B,white,man,,,,,"{""Q0"":""kate and mike are kissing each other""}","<img src=""stim_listB/kiss2.gif""style=""height:400px;""></stim_listB>",are kissing each other,
null,"<div style=""font-size:60px;"">+</div>",,html-keyboard-response,425,1431337,0.0-19.0-0.15,93638,List1B,white,man,,,,null,,,,
null,"<img src=""stim_listB/dance2.gif""style=""height:400px;""></stim_listB>",,html-keyboard-response,426,1433340,0.0-19.0-1.15,93638,List1B,white,man,,,,null,,,,
null,are dancing with each other,,html-keyboard-response,427,1435341,0.0-19.0-2.15,93638,List1B,white,man,,,,null,,,,
5157,,,survey-text,428,1440500,0.0-19.0-3.15,93638,List1B,white,man,,,,,"{""Q0"":""beth and mike are dancing with each other""}","<img src=""stim_listB/dance2.gif""style=""height:400px;""></stim_listB>",are dancing with each other,
null,"<div style=""font-size:60px;"">+</div>",,html-keyboard-response,429,1441002,0.0-19.0-0.16,93638,List1B,white,man,,,,null,,,,
null,"<img src=""stim_listB/shout8.gif""style=""height:400px;""></stim_listB>",,html-keyboard-response,430,1443005,0.0-19.0-1.16,93638,List1B,white,man,,,,null,,,,
null,are shouting at each other,,html-keyboard-response,431,1445010,0.0-19.0-2.16,93638,List1B,white,man,,,,null,,,,
5264,,,survey-text,432,1450274,0.0-19.0-3.16,93638,List1B,white,man,,,,,"{""Q0"":""kate and jane are shouting at each other""}","<img src=""stim_listB/shout8.gif""style=""height:400px;""></stim_listB>",are shouting at each other,
null,"<div style=""font-size:60px;"">+</div>",,html-keyboard-response,433,1450776,0.0-19.0-0.17,93638,List1B,white,man,,,,null,,,,
null,"<img src=""stim_listB/marry6.gif""style=""height:400px;""></stim_listB>",,html-keyboard-response,434,1452778,0.0-19.0-1.17,93638,List1B,white,man,,,,null,,,,
null,are marrying each other,,html-keyboard-response,435,1454779,0.0-19.0-2.17,93638,List1B,white,man,,,,null,,,,
5543,,,survey-text,436,1460324,0.0-19.0-3.17,93638,List1B,white,man,,,,,"{""Q0"":""dave and fred are marrying each other""}","<img src=""stim_listB/marry6.gif""style=""height:400px;""></stim_listB>",are marrying each other,
null,"<div style=""font-size:60px;"">+</div>",,html-keyboard-response,437,1460826,0.0-19.0-0.18,93638,List1B,white,man,,,,null,,,,
null,"<img src=""stim_listB/argue7.gif""style=""height:400px;""></stim_listB>",,html-keyboard-response,438,1462827,0.0-19.0-1.18,93638,List1B,white,man,,,,null,,,,
null,is arguing with,,html-keyboard-response,439,1464829,0.0-19.0-2.18,93638,List1B,white,man,,,,null,,,,
9115,,,survey-text,440,1473945,0.0-19.0-3.18,93638,List1B,white,man,,,,,"{""Q0"":""jane is arguing with beth ""}","<img src=""stim_listB/argue7.gif""style=""height:400px;""></stim_listB>",is arguing with,
null,"<div style=""font-size:60px;"">+</div>",,html-keyboard-response,441,1474446,0.0-19.0-0.19,93638,List1B,white,man,,,,null,,,,
null,"<img src=""stim_listB/kiss6.gif""style=""height:400px;""></stim_listB>",,html-keyboard-response,442,1476448,0.0-19.0-1.19,93638,List1B,white,man,,,,null,,,,
null,are kissing each other,,html-keyboard-response,443,1478449,0.0-19.0-2.19,93638,List1B,white,man,,,,null,,,,
4530,,,survey-text,444,1482981,0.0-19.0-3.19,93638,List1B,white,man,,,,,"{""Q0"":""mike and dave are kissing each other""}","<img src=""stim_listB/kiss6.gif""style=""height:400px;""></stim_listB>",are kissing each other,
1402,<p>Thank you for completing that task.</p><p>The final part of this session is a short questionnaire.</p><p>Press Continue.</p>,0,html-button-response,445,1484385,0.0-20.0,93638,List1B,white,man,,,,,,,,
12735,,,survey-text,446,1498123,0.0-21.0,93638,List1B,white,man,,,,,"{""Q0"":""20"",""Q1"":""English"",""Q2"":""English"",""Q3"":""Wales - UK"",""Q4"":""White "",""Q5"":""Male""}",,,demographics
9335,,,survey-likert,447,1507465,0.0-22.0,93638,List1B,white,man,,,,,"{""Q0"":5}",,,likert_ESS
16239,,,survey-likert,448,1523707,0.0-23.0,93638,List1B,white,man,,,,,"{""Q0"":2}",,,likert_NSSAL_Q1
2141,,,survey-likert,449,1525850,0.0-24.0,93638,List1B,white,man,,,,,"{""Q0"":2}",,,likert_NSSAL_Q2
5323,,,survey-likert,450,1531176,0.0-25.0,93638,List1B,white,man,,,,,"{""Q0"":4}",,,likert_CGRS_Q1
5280,,,survey-likert,451,1536459,0.0-26.0,93638,List1B,white,man,,,,,"{""Q0"":2}",,,likert_CGRS_Q2
3238,,,survey-likert,452,1539699,0.0-27.0,93638,List1B,white,man,,,,,"{""Q0"":2}",,,likert_CGRS_Q3
3339,,,survey-text,453,1543040,0.0-28.0,93638,List1B,white,man,,,,,"{""Q0"":""ccc""}",,,worker_id
10372,,,external-html,454,1553475,0.0-29.0,93638,List1B,white,man,debrief.html,,,,,,,
