rt,stimulus,button_pressed,trial_type,trial_index,time_elapsed,internal_node_id,subject,list,ppt_race,ppt_gender,url,first_guess,correct,key_press,responses,image_type,phrase_type,test_part
5037,Welcome to the experiment. Press Continue to begin.,0,html-button-response,0,5042,0.0-0.0,936,List2A,black,man,,,,,,,,
36389,,,external-html,1,42830,0.0-1.0,936,List2A,black,man,consent.html,,,,,,,
9430,"<p>On the next page, you will see portraits of 8 people and their names.</p><p>Your first task is to take a few minutes to memorise the names of these people.</p><p>You will have to recall their names during the rest of the experiment, so it is</p><p>essential that you try to memorise these people and their names as best as you can.</p><br><p><strong>You will then be tested on your memory of these names and portraits.</strong></p><br><p>The experiment will start after you have completed this memory test.</p><br><p>Ready?</p>",0,html-button-response,2,52262,0.0-2.0,936,List2A,black,man,,,,,,,,
44039,"<img src='img/portrait_matrix_list2.jpg' style='width:900px;height:500px;''></img><p>If you have memorised all the portraits and names and are ready to start, press Continue.</p><p><strong>Please note: Your memory of these faces will be tested 4 times during this experiment.</strong></p>",0,html-button-response,3,97312,0.0-3.0-0.0,936,List2A,black,man,,,,,,,,
3723,"<img src=""portrait/BM2.jpg""style=""height:400px;""></img>",5,html-button-response,4,102039,0.0-3.0-1.0,936,List2A,black,man,,TRUE,5,,,,,
null,CORRECT,,html-keyboard-response,5,103568,0.0-3.0-2.0-0.0,936,List2A,black,man,,,,null,,,,
6011,"<img src=""portrait/BW1.jpg""style=""height:400px;""></img>",0,html-button-response,6,109580,0.0-3.0-4.0,936,List2A,black,man,,TRUE,0,,,,,
null,CORRECT,,html-keyboard-response,7,111097,0.0-3.0-5.0-0.0,936,List2A,black,man,,,,null,,,,
4112,"<img src=""portrait/WM1.jpg""style=""height:400px;""></img>",6,html-button-response,8,115210,0.0-3.0-7.0,936,List2A,black,man,,TRUE,6,,,,,
null,CORRECT,,html-keyboard-response,9,116726,0.0-3.0-8.0-0.0,936,List2A,black,man,,,,null,,,,
3405,"<img src=""portrait/BW2.jpg""style=""height:400px;""></img>",2,html-button-response,10,120134,0.0-3.0-10.0,936,List2A,black,man,,TRUE,2,,,,,
null,CORRECT,,html-keyboard-response,11,121642,0.0-3.0-11.0-0.0,936,List2A,black,man,,,,null,,,,
2598,"<img src=""portrait/WW2.jpg""style=""height:400px;""></img>",3,html-button-response,12,124242,0.0-3.0-13.0,936,List2A,black,man,,TRUE,3,,,,,
null,CORRECT,,html-keyboard-response,13,125748,0.0-3.0-14.0-0.0,936,List2A,black,man,,,,null,,,,
3467,"<img src=""portrait/BM1.jpg""style=""height:400px;""></img>",4,html-button-response,14,129217,0.0-3.0-16.0,936,List2A,black,man,,TRUE,4,,,,,
null,CORRECT,,html-keyboard-response,15,130726,0.0-3.0-17.0-0.0,936,List2A,black,man,,,,null,,,,
6009,"<img src=""portrait/WM2.jpg""style=""height:400px;""></img>",7,html-button-response,16,136737,0.0-3.0-19.0,936,List2A,black,man,,TRUE,7,,,,,
null,CORRECT,,html-keyboard-response,17,138240,0.0-3.0-20.0-0.0,936,List2A,black,man,,,,null,,,,
4546,"<img src=""portrait/WW1.jpg""style=""height:400px;""></img>",1,html-button-response,18,142789,0.0-3.0-22.0,936,List2A,black,man,,TRUE,1,,,,,
null,CORRECT,,html-keyboard-response,19,144303,0.0-3.0-23.0-0.0,936,List2A,black,man,,,,null,,,,
1754,<p>You got 8 out of 8 right first time. Press Continue.</p>,0,html-button-response,20,146060,0.0-3.0-25.0,936,List2A,black,man,,,,,,,,
44868,"<p>In this experiment, you will view photographs of the people from the memory game interacting.</p><p>By using the <strong>exact</strong> phrase given <i>after</i> the photograph appears and recalling the correct names of the people in the photographs, form a sentence describing the interaction. You do not need to capitalise names.</p><p>Type your answer in the space provided. Please complete every sentence before moving onto the next trial.</p><p>You will only have a few seconds to memorise each given photograph and phrase before you can respond, so try your best to focus.</p><p>An example is given below. Press 'Continue' when you are ready.</p><img src='img/speaking_example.jpg' style='width:800px;height:460px;''></img>",0,html-button-response,21,191946,0.0-4.0,936,List2A,black,man,,,,,,,,
4929,"<p>Before the experiment starts, you will watch two example trials. Press 'Continue'.</p>",0,html-button-response,22,197888,0.0-5.0,936,List2A,black,man,,,,,,,,
null,<img src='img/meet_eg.gif' style='height:400px;''></img>,,html-keyboard-response,23,200895,0.0-6.0,936,List2A,black,man,,,,null,,,,
null,<p>is meeting</p>,,html-keyboard-response,24,202905,0.0-7.0,936,List2A,black,man,,,,null,,,,
2676,<p><b>Answer:</b> jane is meeting ruth</p>,0,html-button-response,25,205581,0.0-8.0,936,List2A,black,man,,,,,,,,
null,<img src='img/look_eg.gif' style='height:400px;''></img>,,html-keyboard-response,26,208586,0.0-9.0,936,List2A,black,man,,,,null,,,,
null,<p>are looking at each other</p>,,html-keyboard-response,27,210590,0.0-10.0,936,List2A,black,man,,,,null,,,,
2387,<p><b>Answer:</b> fred and mike are looking at each other</p>,0,html-button-response,28,212977,0.0-11.0,936,List2A,black,man,,,,,,,,
5749,"<p>Ready to start the experiment?</p><br><p><strong>Remember to describe the picture using a full sentence,</strong></p><p><strong>that combines the names of the people with the <i>exact</i> phrase given.</strong></p><p><strong>To receive full payment you must do this correctly.</strong></p><p><strong> You do not need to capitalise names or use punctuation.</strong></p><br><p>Press 'Continue' to begin.</p>",0,html-button-response,29,219728,0.0-12.0,936,List2A,black,man,,,,,,,,
null,"<div style=""font-size:60px;"">+</div>",,html-keyboard-response,30,221243,0.0-13.0-0.0,936,List2A,black,man,,,,null,,,,
null,"<img src=""stim_listA/touch7.gif""style=""height:400px;""></stim_listA>",,html-keyboard-response,31,223246,0.0-13.0-1.0,936,List2A,black,man,,,,null,,,,
null,is touching,,html-keyboard-response,32,225261,0.0-13.0-2.0,936,List2A,black,man,,,,null,,,,
7213,,,survey-text,33,232477,0.0-13.0-3.0,936,List2A,black,man,,,,,"{""Q0"":""jane is touching kate""}","<img src=""stim_listA/touch7.gif""style=""height:400px;""></stim_listA>",is touching,
null,"<div style=""font-size:60px;"">+</div>",,html-keyboard-response,34,232992,0.0-13.0-0.1,936,List2A,black,man,,,,null,,,,
null,"<img src=""stim_listA/argue3.gif""style=""height:400px;""></stim_listA>",,html-keyboard-response,35,234994,0.0-13.0-1.1,936,List2A,black,man,,,,null,,,,
null,is arguing with,,html-keyboard-response,36,237011,0.0-13.0-2.1,936,List2A,black,man,,,,null,,,,
9026,,,survey-text,37,246039,0.0-13.0-3.1,936,List2A,black,man,,,,,"{""Q0"":""mike is arguing with beth""}","<img src=""stim_listA/argue3.gif""style=""height:400px;""></stim_listA>",is arguing with,
null,"<div style=""font-size:60px;"">+</div>",,html-keyboard-response,38,246546,0.0-13.0-0.2,936,List2A,black,man,,,,null,,,,
null,"<img src=""stim_listA/argue8.gif""style=""height:400px;""></stim_listA>",,html-keyboard-response,39,248549,0.0-13.0-1.2,936,List2A,black,man,,,,null,,,,
null,are arguing with each other,,html-keyboard-response,40,250554,0.0-13.0-2.2,936,List2A,black,man,,,,null,,,,
10614,,,survey-text,41,261170,0.0-13.0-3.2,936,List2A,black,man,,,,,"{""Q0"":""kate and ruth are arguing with each other""}","<img src=""stim_listA/argue8.gif""style=""height:400px;""></stim_listA>",are arguing with each other,
null,"<div style=""font-size:60px;"">+</div>",,html-keyboard-response,42,261685,0.0-13.0-0.3,936,List2A,black,man,,,,null,,,,
null,"<img src=""stim_listA/talk7.gif""style=""height:400px;""></stim_listA>",,html-keyboard-response,43,263688,0.0-13.0-1.3,936,List2A,black,man,,,,null,,,,
null,is talking to,,html-keyboard-response,44,265697,0.0-13.0-2.3,936,List2A,black,man,,,,null,,,,
7687,,,survey-text,45,273386,0.0-13.0-3.3,936,List2A,black,man,,,,,"{""Q0"":""ruth is talking kate""}","<img src=""stim_listA/talk7.gif""style=""height:400px;""></stim_listA>",is talking to,
null,"<div style=""font-size:60px;"">+</div>",,html-keyboard-response,46,273887,0.0-13.0-0.4,936,List2A,black,man,,,,null,,,,
null,"<img src=""stim_listA/dance4.gif""style=""height:400px;""></stim_listA>",,html-keyboard-response,47,275904,0.0-13.0-1.4,936,List2A,black,man,,,,null,,,,
null,are dancing with each other,,html-keyboard-response,48,277915,0.0-13.0-2.4,936,List2A,black,man,,,,null,,,,
9733,,,survey-text,49,287649,0.0-13.0-3.4,936,List2A,black,man,,,,,"{""Q0"":""beth and mike are dancing with each other""}","<img src=""stim_listA/dance4.gif""style=""height:400px;""></stim_listA>",are dancing with each other,
null,"<div style=""font-size:60px;"">+</div>",,html-keyboard-response,50,288151,0.0-13.0-0.5,936,List2A,black,man,,,,null,,,,
null,"<img src=""stim_listA/fight5.gif""style=""height:400px;""></stim_listA>",,html-keyboard-response,51,290155,0.0-13.0-1.5,936,List2A,black,man,,,,null,,,,
null,is fighting,,html-keyboard-response,52,292162,0.0-13.0-2.5,936,List2A,black,man,,,,null,,,,
6182,,,survey-text,53,298345,0.0-13.0-3.5,936,List2A,black,man,,,,,"{""Q0"":""mike is fighting is dave""}","<img src=""stim_listA/fight5.gif""style=""height:400px;""></stim_listA>",is fighting,
null,"<div style=""font-size:60px;"">+</div>",,html-keyboard-response,54,298848,0.0-13.0-0.6,936,List2A,black,man,,,,null,,,,
null,"<img src=""stim_listA/play7.gif""style=""height:400px;""></stim_listA>",,html-keyboard-response,55,300851,0.0-13.0-1.6,936,List2A,black,man,,,,null,,,,
null,is playing with,,html-keyboard-response,56,302854,0.0-13.0-2.6,936,List2A,black,man,,,,null,,,,
11785,,,survey-text,57,314641,0.0-13.0-3.6,936,List2A,black,man,,,,,"{""Q0"":""jane is playing with kate""}","<img src=""stim_listA/play7.gif""style=""height:400px;""></stim_listA>",is playing with,
null,"<div style=""font-size:60px;"">+</div>",,html-keyboard-response,58,315150,0.0-13.0-0.7,936,List2A,black,man,,,,null,,,,
null,"<img src=""stim_listA/flirt8.gif""style=""height:400px;""></stim_listA>",,html-keyboard-response,59,317153,0.0-13.0-1.7,936,List2A,black,man,,,,null,,,,
null,are flirting with each other,,html-keyboard-response,60,319156,0.0-13.0-2.7,936,List2A,black,man,,,,null,,,,
16983,,,survey-text,61,336140,0.0-13.0-3.7,936,List2A,black,man,,,,,"{""Q0"":""beth and jane are flirting with each other""}","<img src=""stim_listA/flirt8.gif""style=""height:400px;""></stim_listA>",are flirting with each other,
null,"<div style=""font-size:60px;"">+</div>",,html-keyboard-response,62,336649,0.0-13.0-0.8,936,List2A,black,man,,,,null,,,,
null,"<img src=""stim_listA/fight3.gif""style=""height:400px;""></stim_listA>",,html-keyboard-response,63,338665,0.0-13.0-1.8,936,List2A,black,man,,,,null,,,,
null,is fighting,,html-keyboard-response,64,341276,0.0-13.0-2.8,936,List2A,black,man,,,,null,,,,
6712,,,survey-text,65,347989,0.0-13.0-3.8,936,List2A,black,man,,,,,"{""Q0"":""kate is fighting mike""}","<img src=""stim_listA/fight3.gif""style=""height:400px;""></stim_listA>",is fighting,
null,"<div style=""font-size:60px;"">+</div>",,html-keyboard-response,66,348496,0.0-13.0-0.9,936,List2A,black,man,,,,null,,,,
null,"<img src=""stim_listA/marry1.gif""style=""height:400px;""></stim_listA>",,html-keyboard-response,67,350499,0.0-13.0-1.9,936,List2A,black,man,,,,null,,,,
null,is marrying,,html-keyboard-response,68,352502,0.0-13.0-2.9,936,List2A,black,man,,,,null,,,,
6297,,,survey-text,69,358801,0.0-13.0-3.9,936,List2A,black,man,,,,,"{""Q0"":""ruth is marrying dave""}","<img src=""stim_listA/marry1.gif""style=""height:400px;""></stim_listA>",is marrying,
null,"<div style=""font-size:60px;"">+</div>",,html-keyboard-response,70,359303,0.0-13.0-0.10,936,List2A,black,man,,,,null,,,,
null,"<img src=""stim_listA/marry4.gif""style=""height:400px;""></stim_listA>",,html-keyboard-response,71,361308,0.0-13.0-1.10,936,List2A,black,man,,,,null,,,,
null,are marrying each other,,html-keyboard-response,72,363310,0.0-13.0-2.10,936,List2A,black,man,,,,null,,,,
8358,,,survey-text,73,371670,0.0-13.0-3.10,936,List2A,black,man,,,,,"{""Q0"":""kate and fred are marrying each other""}","<img src=""stim_listA/marry4.gif""style=""height:400px;""></stim_listA>",are marrying each other,
null,"<div style=""font-size:60px;"">+</div>",,html-keyboard-response,74,372183,0.0-13.0-0.11,936,List2A,black,man,,,,null,,,,
null,"<img src=""stim_listA/play2.gif""style=""height:400px;""></stim_listA>",,html-keyboard-response,75,374187,0.0-13.0-1.11,936,List2A,black,man,,,,null,,,,
null,are playing with each other,,html-keyboard-response,76,376201,0.0-13.0-2.11,936,List2A,black,man,,,,null,,,,
7378,,,survey-text,77,383581,0.0-13.0-3.11,936,List2A,black,man,,,,,"{""Q0"":""ruth and luke are playing with each other""}","<img src=""stim_listA/play2.gif""style=""height:400px;""></stim_listA>",are playing with each other,
null,"<div style=""font-size:60px;"">+</div>",,html-keyboard-response,78,384093,0.0-13.0-0.12,936,List2A,black,man,,,,null,,,,
null,"<img src=""stim_listA/argue1.gif""style=""height:400px;""></stim_listA>",,html-keyboard-response,79,386097,0.0-13.0-1.12,936,List2A,black,man,,,,null,,,,
null,is arguing with,,html-keyboard-response,80,388104,0.0-13.0-2.12,936,List2A,black,man,,,,null,,,,
12223,,,survey-text,81,400328,0.0-13.0-3.12,936,List2A,black,man,,,,,"{""Q0"":""dave is arguing with ruth""}","<img src=""stim_listA/argue1.gif""style=""height:400px;""></stim_listA>",is arguing with,
null,"<div style=""font-size:60px;"">+</div>",,html-keyboard-response,82,400835,0.0-13.0-0.13,936,List2A,black,man,,,,null,,,,
null,"<img src=""stim_listA/dance8.gif""style=""height:400px;""></stim_listA>",,html-keyboard-response,83,402837,0.0-13.0-1.13,936,List2A,black,man,,,,null,,,,
null,are dancing with each other,,html-keyboard-response,84,404846,0.0-13.0-2.13,936,List2A,black,man,,,,null,,,,
10210,,,survey-text,85,415057,0.0-13.0-3.13,936,List2A,black,man,,,,,"{""Q0"":""jane and beth are dancing with each other""}","<img src=""stim_listA/dance8.gif""style=""height:400px;""></stim_listA>",are dancing with each other,
null,"<div style=""font-size:60px;"">+</div>",,html-keyboard-response,86,415559,0.0-13.0-0.14,936,List2A,black,man,,,,null,,,,
null,"<img src=""stim_listA/marry2.gif""style=""height:400px;""></stim_listA>",,html-keyboard-response,87,418268,0.0-13.0-1.14,936,List2A,black,man,,,,null,,,,
null,are marrying each other,,html-keyboard-response,88,421257,0.0-13.0-2.14,936,List2A,black,man,,,,null,,,,
7933,,,survey-text,89,429191,0.0-13.0-3.14,936,List2A,black,man,,,,,"{""Q0"":""jane is marrying luke""}","<img src=""stim_listA/marry2.gif""style=""height:400px;""></stim_listA>",are marrying each other,
null,"<div style=""font-size:60px;"">+</div>",,html-keyboard-response,90,429698,0.0-13.0-0.15,936,List2A,black,man,,,,null,,,,
null,"<img src=""stim_listA/shout7.gif""style=""height:400px;""></stim_listA>",,html-keyboard-response,91,431699,0.0-13.0-1.15,936,List2A,black,man,,,,null,,,,
null,is shouting at,,html-keyboard-response,92,433709,0.0-13.0-2.15,936,List2A,black,man,,,,null,,,,
5847,,,survey-text,93,439558,0.0-13.0-3.15,936,List2A,black,man,,,,,"{""Q0"":""ruth is shouting at beth""}","<img src=""stim_listA/shout7.gif""style=""height:400px;""></stim_listA>",is shouting at,
null,"<div style=""font-size:60px;"">+</div>",,html-keyboard-response,94,440073,0.0-13.0-0.16,936,List2A,black,man,,,,null,,,,
null,"<img src=""stim_listA/touch2.gif""style=""height:400px;""></stim_listA>",,html-keyboard-response,95,442077,0.0-13.0-1.16,936,List2A,black,man,,,,null,,,,
null,are touching each other,,html-keyboard-response,96,444095,0.0-13.0-2.16,936,List2A,black,man,,,,null,,,,
7506,,,survey-text,97,451602,0.0-13.0-3.16,936,List2A,black,man,,,,,"{""Q0"":""ruth and luke are touching each other""}","<img src=""stim_listA/touch2.gif""style=""height:400px;""></stim_listA>",are touching each other,
null,"<div style=""font-size:60px;"">+</div>",,html-keyboard-response,98,452115,0.0-13.0-0.17,936,List2A,black,man,,,,null,,,,
null,"<img src=""stim_listA/fight6.gif""style=""height:400px;""></stim_listA>",,html-keyboard-response,99,454117,0.0-13.0-1.17,936,List2A,black,man,,,,null,,,,
null,are fighting each other,,html-keyboard-response,100,456120,0.0-13.0-2.17,936,List2A,black,man,,,,null,,,,
12162,,,survey-text,101,468284,0.0-13.0-3.17,936,List2A,black,man,,,,,"{""Q0"":""luke and fred are fighting each other""}","<img src=""stim_listA/fight6.gif""style=""height:400px;""></stim_listA>",are fighting each other,
null,"<div style=""font-size:60px;"">+</div>",,html-keyboard-response,102,468786,0.0-13.0-0.18,936,List2A,black,man,,,,null,,,,
null,"<img src=""stim_listA/argue2.gif""style=""height:400px;""></stim_listA>",,html-keyboard-response,103,470788,0.0-13.0-1.18,936,List2A,black,man,,,,null,,,,
null,are arguing with each other,,html-keyboard-response,104,472802,0.0-13.0-2.18,936,List2A,black,man,,,,null,,,,
11574,,,survey-text,105,484377,0.0-13.0-3.18,936,List2A,black,man,,,,,"{""Q0"":""luke and fred are arguing with each other""}","<img src=""stim_listA/argue2.gif""style=""height:400px;""></stim_listA>",are arguing with each other,
null,"<div style=""font-size:60px;"">+</div>",,html-keyboard-response,106,484880,0.0-13.0-0.19,936,List2A,black,man,,,,null,,,,
null,"<img src=""stim_listA/talk4.gif""style=""height:400px;""></stim_listA>",,html-keyboard-response,107,486883,0.0-13.0-1.19,936,List2A,black,man,,,,null,,,,
null,are talking to each other,,html-keyboard-response,108,488885,0.0-13.0-2.19,936,List2A,black,man,,,,null,,,,
7235,,,survey-text,109,496122,0.0-13.0-3.19,936,List2A,black,man,,,,,"{""Q0"":""mike and beth are talking to each other""}","<img src=""stim_listA/talk4.gif""style=""height:400px;""></stim_listA>",are talking to each other,
4413,"<img src='img/portrait_matrix_list2.jpg' style='width:900px;height:500px;''></img><p>If you have memorised all the portraits and names and are ready to start, press Continue.</p><p><strong>Please note: Your memory of these faces will be tested 4 times during this experiment.</strong></p>",0,html-button-response,110,500537,0.0-14.0-0.0,936,List2A,black,man,,,,,,,,
1948,"<img src=""portrait/BW1.jpg""style=""height:400px;""></img>",0,html-button-response,111,503489,0.0-14.0-1.0,936,List2A,black,man,,TRUE,0,,,,,
null,CORRECT,,html-keyboard-response,112,505012,0.0-14.0-2.0-0.0,936,List2A,black,man,,,,null,,,,
1831,"<img src=""portrait/BM1.jpg""style=""height:400px;""></img>",4,html-button-response,113,506845,0.0-14.0-4.0,936,List2A,black,man,,TRUE,4,,,,,
null,CORRECT,,html-keyboard-response,114,508351,0.0-14.0-5.0-0.0,936,List2A,black,man,,,,null,,,,
1458,"<img src=""portrait/WW2.jpg""style=""height:400px;""></img>",3,html-button-response,115,509811,0.0-14.0-7.0,936,List2A,black,man,,TRUE,3,,,,,
null,CORRECT,,html-keyboard-response,116,511328,0.0-14.0-8.0-0.0,936,List2A,black,man,,,,null,,,,
3197,"<img src=""portrait/WM2.jpg""style=""height:400px;""></img>",7,html-button-response,117,514527,0.0-14.0-10.0,936,List2A,black,man,,TRUE,7,,,,,
null,CORRECT,,html-keyboard-response,118,516045,0.0-14.0-11.0-0.0,936,List2A,black,man,,,,null,,,,
2237,"<img src=""portrait/WW1.jpg""style=""height:400px;""></img>",1,html-button-response,119,518284,0.0-14.0-13.0,936,List2A,black,man,,TRUE,1,,,,,
null,CORRECT,,html-keyboard-response,120,519796,0.0-14.0-14.0-0.0,936,List2A,black,man,,,,null,,,,
1794,"<img src=""portrait/BW2.jpg""style=""height:400px;""></img>",2,html-button-response,121,521592,0.0-14.0-16.0,936,List2A,black,man,,TRUE,2,,,,,
null,CORRECT,,html-keyboard-response,122,523110,0.0-14.0-17.0-0.0,936,List2A,black,man,,,,null,,,,
2208,"<img src=""portrait/WM1.jpg""style=""height:400px;""></img>",6,html-button-response,123,525320,0.0-14.0-19.0,936,List2A,black,man,,TRUE,6,,,,,
null,CORRECT,,html-keyboard-response,124,526826,0.0-14.0-20.0-0.0,936,List2A,black,man,,,,null,,,,
2832,"<img src=""portrait/BM2.jpg""style=""height:400px;""></img>",5,html-button-response,125,529659,0.0-14.0-22.0,936,List2A,black,man,,TRUE,5,,,,,
null,CORRECT,,html-keyboard-response,126,531178,0.0-14.0-23.0-0.0,936,List2A,black,man,,,,null,,,,
1668,<p>You got 8 out of 8 right first time. Press Continue.</p>,0,html-button-response,127,532847,0.0-14.0-25.0,936,List2A,black,man,,,,,,,,
null,"<div style=""font-size:60px;"">+</div>",,html-keyboard-response,128,534359,0.0-15.0-0.0,936,List2A,black,man,,,,null,,,,
null,"<img src=""stim_listA/shout4.gif""style=""height:400px;""></stim_listA>",,html-keyboard-response,129,536362,0.0-15.0-1.0,936,List2A,black,man,,,,null,,,,
null,are shouting at each other,,html-keyboard-response,130,538364,0.0-15.0-2.0,936,List2A,black,man,,,,null,,,,
9805,,,survey-text,131,548170,0.0-15.0-3.0,936,List2A,black,man,,,,,"{""Q0"":""mike and beth are shouting at each other""}","<img src=""stim_listA/shout4.gif""style=""height:400px;""></stim_listA>",are shouting at each other,
null,"<div style=""font-size:60px;"">+</div>",,html-keyboard-response,132,548674,0.0-15.0-0.1,936,List2A,black,man,,,,null,,,,
null,"<img src=""stim_listA/touch3.gif""style=""height:400px;""></stim_listA>",,html-keyboard-response,133,550676,0.0-15.0-1.1,936,List2A,black,man,,,,null,,,,
null,is touching,,html-keyboard-response,134,552685,0.0-15.0-2.1,936,List2A,black,man,,,,null,,,,
7390,,,survey-text,135,560076,0.0-15.0-3.1,936,List2A,black,man,,,,,"{""Q0"":""mike is touching kate""}","<img src=""stim_listA/touch3.gif""style=""height:400px;""></stim_listA>",is touching,
null,"<div style=""font-size:60px;"">+</div>",,html-keyboard-response,136,560590,0.0-15.0-0.2,936,List2A,black,man,,,,null,,,,
null,"<img src=""stim_listA/flirt5.gif""style=""height:400px;""></stim_listA>",,html-keyboard-response,137,562595,0.0-15.0-1.2,936,List2A,black,man,,,,null,,,,
null,is flirting with,,html-keyboard-response,138,564602,0.0-15.0-2.2,936,List2A,black,man,,,,null,,,,
8454,,,survey-text,139,573057,0.0-15.0-3.2,936,List2A,black,man,,,,,"{""Q0"":""mike is flirting with luke""}","<img src=""stim_listA/flirt5.gif""style=""height:400px;""></stim_listA>",is flirting with,
null,"<div style=""font-size:60px;"">+</div>",,html-keyboard-response,140,573560,0.0-15.0-0.3,936,List2A,black,man,,,,null,,,,
null,"<img src=""stim_listA/fight7.gif""style=""height:400px;""></stim_listA>",,html-keyboard-response,141,575563,0.0-15.0-1.3,936,List2A,black,man,,,,null,,,,
null,is fighting,,html-keyboard-response,142,577568,0.0-15.0-2.3,936,List2A,black,man,,,,null,,,,
15099,,,survey-text,143,592669,0.0-15.0-3.3,936,List2A,black,man,,,,,"{""Q0"":""kate is fighting jane""}","<img src=""stim_listA/fight7.gif""style=""height:400px;""></stim_listA>",is fighting,
null,"<div style=""font-size:60px;"">+</div>",,html-keyboard-response,144,593171,0.0-15.0-0.4,936,List2A,black,man,,,,null,,,,
null,"<img src=""stim_listA/play4.gif""style=""height:400px;""></stim_listA>",,html-keyboard-response,145,595174,0.0-15.0-1.4,936,List2A,black,man,,,,null,,,,
null,are playing with each other,,html-keyboard-response,146,597189,0.0-15.0-2.4,936,List2A,black,man,,,,null,,,,
15169,,,survey-text,147,612360,0.0-15.0-3.4,936,List2A,black,man,,,,,"{""Q0"":""beth and fred are playing with each other""}","<img src=""stim_listA/play4.gif""style=""height:400px;""></stim_listA>",are playing with each other,
null,"<div style=""font-size:60px;"">+</div>",,html-keyboard-response,148,612864,0.0-15.0-0.5,936,List2A,black,man,,,,null,,,,
null,"<img src=""stim_listA/flirt4.gif""style=""height:400px;""></stim_listA>",,html-keyboard-response,149,614868,0.0-15.0-1.5,936,List2A,black,man,,,,null,,,,
null,are flirting with each other,,html-keyboard-response,150,616871,0.0-15.0-2.5,936,List2A,black,man,,,,null,,,,
10977,,,survey-text,151,627850,0.0-15.0-3.5,936,List2A,black,man,,,,,"{""Q0"":""beth and mike are flirting with each other""}","<img src=""stim_listA/flirt4.gif""style=""height:400px;""></stim_listA>",are flirting with each other,
null,"<div style=""font-size:60px;"">+</div>",,html-keyboard-response,152,628362,0.0-15.0-0.6,936,List2A,black,man,,,,null,,,,
null,"<img src=""stim_listA/shout6.gif""style=""height:400px;""></stim_listA>",,html-keyboard-response,153,630365,0.0-15.0-1.6,936,List2A,black,man,,,,null,,,,
null,are shouting at each other,,html-keyboard-response,154,632381,0.0-15.0-2.6,936,List2A,black,man,,,,null,,,,
8832,,,survey-text,155,641214,0.0-15.0-3.6,936,List2A,black,man,,,,,"{""Q0"":""luke and mike are shouting at each other""}","<img src=""stim_listA/shout6.gif""style=""height:400px;""></stim_listA>",are shouting at each other,
null,"<div style=""font-size:60px;"">+</div>",,html-keyboard-response,156,641720,0.0-15.0-0.7,936,List2A,black,man,,,,null,,,,
null,"<img src=""stim_listA/dance1.gif""style=""height:400px;""></stim_listA>",,html-keyboard-response,157,643722,0.0-15.0-1.7,936,List2A,black,man,,,,null,,,,
null,is dancing with,,html-keyboard-response,158,645734,0.0-15.0-2.7,936,List2A,black,man,,,,null,,,,
7109,,,survey-text,159,652844,0.0-15.0-3.7,936,List2A,black,man,,,,,"{""Q0"":""jane is dancing with luke""}","<img src=""stim_listA/dance1.gif""style=""height:400px;""></stim_listA>",is dancing with,
null,"<div style=""font-size:60px;"">+</div>",,html-keyboard-response,160,653345,0.0-15.0-0.8,936,List2A,black,man,,,,null,,,,
null,"<img src=""stim_listA/dance3.gif""style=""height:400px;""></stim_listA>",,html-keyboard-response,161,655347,0.0-15.0-1.8,936,List2A,black,man,,,,null,,,,
null,is dancing with,,html-keyboard-response,162,657349,0.0-15.0-2.8,936,List2A,black,man,,,,null,,,,
9044,,,survey-text,163,666393,0.0-15.0-3.8,936,List2A,black,man,,,,,"{""Q0"":""kate is dancing with dave""}","<img src=""stim_listA/dance3.gif""style=""height:400px;""></stim_listA>",is dancing with,
null,"<div style=""font-size:60px;"">+</div>",,html-keyboard-response,164,666898,0.0-15.0-0.9,936,List2A,black,man,,,,null,,,,
null,"<img src=""stim_listA/play8.gif""style=""height:400px;""></stim_listA>",,html-keyboard-response,165,668901,0.0-15.0-1.9,936,List2A,black,man,,,,null,,,,
null,are playing with each other,,html-keyboard-response,166,670909,0.0-15.0-2.9,936,List2A,black,man,,,,null,,,,
15462,,,survey-text,167,686373,0.0-15.0-3.9,936,List2A,black,man,,,,,"{""Q0"":""beth and ruth are playing with each other""}","<img src=""stim_listA/play8.gif""style=""height:400px;""></stim_listA>",are playing with each other,
null,"<div style=""font-size:60px;"">+</div>",,html-keyboard-response,168,686879,0.0-15.0-0.10,936,List2A,black,man,,,,null,,,,
null,"<img src=""stim_listA/play6.gif""style=""height:400px;""></stim_listA>",,html-keyboard-response,169,688889,0.0-15.0-1.10,936,List2A,black,man,,,,null,,,,
null,are playing with each other,,html-keyboard-response,170,690899,0.0-15.0-2.10,936,List2A,black,man,,,,null,,,,
9491,,,survey-text,171,700391,0.0-15.0-3.10,936,List2A,black,man,,,,,"{""Q0"":""fred and luke are playing with each other""}","<img src=""stim_listA/play6.gif""style=""height:400px;""></stim_listA>",are playing with each other,
null,"<div style=""font-size:60px;"">+</div>",,html-keyboard-response,172,700903,0.0-15.0-0.11,936,List2A,black,man,,,,null,,,,
null,"<img src=""stim_listA/kiss6.gif""style=""height:400px;""></stim_listA>",,html-keyboard-response,173,702906,0.0-15.0-1.11,936,List2A,black,man,,,,null,,,,
null,are kissing each other,,html-keyboard-response,174,704915,0.0-15.0-2.11,936,List2A,black,man,,,,null,,,,
7688,,,survey-text,175,712604,0.0-15.0-3.11,936,List2A,black,man,,,,,"{""Q0"":""dave and mike are kissing each other""}","<img src=""stim_listA/kiss6.gif""style=""height:400px;""></stim_listA>",are kissing each other,
null,"<div style=""font-size:60px;"">+</div>",,html-keyboard-response,176,713119,0.0-15.0-0.12,936,List2A,black,man,,,,null,,,,
null,"<img src=""stim_listA/kiss5.gif""style=""height:400px;""></stim_listA>",,html-keyboard-response,177,715124,0.0-15.0-1.12,936,List2A,black,man,,,,null,,,,
null,is kissing,,html-keyboard-response,178,717127,0.0-15.0-2.12,936,List2A,black,man,,,,null,,,,
6911,,,survey-text,179,724040,0.0-15.0-3.12,936,List2A,black,man,,,,,"{""Q0"":""fred is kissing luke""}","<img src=""stim_listA/kiss5.gif""style=""height:400px;""></stim_listA>",is kissing,
null,"<div style=""font-size:60px;"">+</div>",,html-keyboard-response,180,724553,0.0-15.0-0.13,936,List2A,black,man,,,,null,,,,
null,"<img src=""stim_listA/talk5.gif""style=""height:400px;""></stim_listA>",,html-keyboard-response,181,726556,0.0-15.0-1.13,936,List2A,black,man,,,,null,,,,
null,is talking to,,html-keyboard-response,182,728558,0.0-15.0-2.13,936,List2A,black,man,,,,null,,,,
10320,,,survey-text,183,738879,0.0-15.0-3.13,936,List2A,black,man,,,,,"{""Q0"":""mike is talking to luke""}","<img src=""stim_listA/talk5.gif""style=""height:400px;""></stim_listA>",is talking to,
null,"<div style=""font-size:60px;"">+</div>",,html-keyboard-response,184,739382,0.0-15.0-0.14,936,List2A,black,man,,,,null,,,,
null,"<img src=""stim_listA/kiss3.gif""style=""height:400px;""></stim_listA>",,html-keyboard-response,185,741385,0.0-15.0-1.14,936,List2A,black,man,,,,null,,,,
null,is kissing,,html-keyboard-response,186,743387,0.0-15.0-2.14,936,List2A,black,man,,,,null,,,,
7458,,,survey-text,187,750847,0.0-15.0-3.14,936,List2A,black,man,,,,,"{""Q0"":""beth is kissing fred""}","<img src=""stim_listA/kiss3.gif""style=""height:400px;""></stim_listA>",is kissing,
null,"<div style=""font-size:60px;"">+</div>",,html-keyboard-response,188,751349,0.0-15.0-0.15,936,List2A,black,man,,,,null,,,,
null,"<img src=""stim_listA/kiss2.gif""style=""height:400px;""></stim_listA>",,html-keyboard-response,189,753352,0.0-15.0-1.15,936,List2A,black,man,,,,null,,,,
null,are kissing each other,,html-keyboard-response,190,755354,0.0-15.0-2.15,936,List2A,black,man,,,,null,,,,
13116,,,survey-text,191,768471,0.0-15.0-3.15,936,List2A,black,man,,,,,"{""Q0"":""jane and dave are kissing each other""}","<img src=""stim_listA/kiss2.gif""style=""height:400px;""></stim_listA>",are kissing each other,
null,"<div style=""font-size:60px;"">+</div>",,html-keyboard-response,192,768986,0.0-15.0-0.16,936,List2A,black,man,,,,null,,,,
null,"<img src=""stim_listA/shout8.gif""style=""height:400px;""></stim_listA>",,html-keyboard-response,193,770989,0.0-15.0-1.16,936,List2A,black,man,,,,null,,,,
null,are shouting at each other,,html-keyboard-response,194,773003,0.0-15.0-2.16,936,List2A,black,man,,,,null,,,,
11690,,,survey-text,195,784695,0.0-15.0-3.16,936,List2A,black,man,,,,,"{""Q0"":""jane and kate are shouting at each other""}","<img src=""stim_listA/shout8.gif""style=""height:400px;""></stim_listA>",are shouting at each other,
null,"<div style=""font-size:60px;"">+</div>",,html-keyboard-response,196,785201,0.0-15.0-0.17,936,List2A,black,man,,,,null,,,,
null,"<img src=""stim_listA/touch4.gif""style=""height:400px;""></stim_listA>",,html-keyboard-response,197,787204,0.0-15.0-1.17,936,List2A,black,man,,,,null,,,,
null,are touching each other,,html-keyboard-response,198,789214,0.0-15.0-2.17,936,List2A,black,man,,,,null,,,,
9527,,,survey-text,199,798742,0.0-15.0-3.17,936,List2A,black,man,,,,,"{""Q0"":""fred and beth are touching each other""}","<img src=""stim_listA/touch4.gif""style=""height:400px;""></stim_listA>",are touching each other,
null,"<div style=""font-size:60px;"">+</div>",,html-keyboard-response,200,799248,0.0-15.0-0.18,936,List2A,black,man,,,,null,,,,
null,"<img src=""stim_listA/fight4.gif""style=""height:400px;""></stim_listA>",,html-keyboard-response,201,801255,0.0-15.0-1.18,936,List2A,black,man,,,,null,,,,
null,are fighting each other,,html-keyboard-response,202,803258,0.0-15.0-2.18,936,List2A,black,man,,,,null,,,,
19577,,,survey-text,203,822836,0.0-15.0-3.18,936,List2A,black,man,,,,,"{""Q0"":""fred and beth are fighting each other""}","<img src=""stim_listA/fight4.gif""style=""height:400px;""></stim_listA>",are fighting each other,
null,"<div style=""font-size:60px;"">+</div>",,html-keyboard-response,204,823348,0.0-15.0-0.19,936,List2A,black,man,,,,null,,,,
null,"<img src=""stim_listA/kiss4.gif""style=""height:400px;""></stim_listA>",,html-keyboard-response,205,825351,0.0-15.0-1.19,936,List2A,black,man,,,,null,,,,
null,are kissing each other,,html-keyboard-response,206,827353,0.0-15.0-2.19,936,List2A,black,man,,,,null,,,,
10187,,,survey-text,207,837542,0.0-15.0-3.19,936,List2A,black,man,,,,,"{""Q0"":""mike and  beth are kissing each other""}","<img src=""stim_listA/kiss4.gif""style=""height:400px;""></stim_listA>",are kissing each other,
1341225,"<img src='img/portrait_matrix_list2.jpg' style='width:900px;height:500px;''></img><p>If you have memorised all the portraits and names and are ready to start, press Continue.</p><p><strong>Please note: Your memory of these faces will be tested 4 times during this experiment.</strong></p>",0,html-button-response,208,2178769,0.0-16.0-0.0,936,List2A,black,man,,,,,,,,
9475,"<img src=""portrait/WW1.jpg""style=""height:400px;""></img>",1,html-button-response,209,2189255,0.0-16.0-1.0,936,List2A,black,man,,TRUE,1,,,,,
null,CORRECT,,html-keyboard-response,210,2190786,0.0-16.0-2.0-0.0,936,List2A,black,man,,,,null,,,,
2082,"<img src=""portrait/BM1.jpg""style=""height:400px;""></img>",4,html-button-response,211,2192870,0.0-16.0-4.0,936,List2A,black,man,,TRUE,4,,,,,
null,CORRECT,,html-keyboard-response,212,2194373,0.0-16.0-5.0-0.0,936,List2A,black,man,,,,null,,,,
2794,"<img src=""portrait/WM2.jpg""style=""height:400px;""></img>",7,html-button-response,213,2197170,0.0-16.0-7.0,936,List2A,black,man,,TRUE,7,,,,,
null,CORRECT,,html-keyboard-response,214,2198699,0.0-16.0-8.0-0.0,936,List2A,black,man,,,,null,,,,
2229,"<img src=""portrait/BW1.jpg""style=""height:400px;""></img>",0,html-button-response,215,2200930,0.0-16.0-10.0,936,List2A,black,man,,TRUE,0,,,,,
null,CORRECT,,html-keyboard-response,216,2202444,0.0-16.0-11.0-0.0,936,List2A,black,man,,,,null,,,,
2643,"<img src=""portrait/BM2.jpg""style=""height:400px;""></img>",5,html-button-response,217,2205090,0.0-16.0-13.0,936,List2A,black,man,,TRUE,5,,,,,
null,CORRECT,,html-keyboard-response,218,2206608,0.0-16.0-14.0-0.0,936,List2A,black,man,,,,null,,,,
2395,"<img src=""portrait/BW2.jpg""style=""height:400px;""></img>",2,html-button-response,219,2209005,0.0-16.0-16.0,936,List2A,black,man,,TRUE,2,,,,,
null,CORRECT,,html-keyboard-response,220,2210526,0.0-16.0-17.0-0.0,936,List2A,black,man,,,,null,,,,
3060,"<img src=""portrait/WW2.jpg""style=""height:400px;""></img>",3,html-button-response,221,2213588,0.0-16.0-19.0,936,List2A,black,man,,TRUE,3,,,,,
null,CORRECT,,html-keyboard-response,222,2215099,0.0-16.0-20.0-0.0,936,List2A,black,man,,,,null,,,,
2654,"<img src=""portrait/WM1.jpg""style=""height:400px;""></img>",6,html-button-response,223,2217755,0.0-16.0-22.0,936,List2A,black,man,,TRUE,6,,,,,
null,CORRECT,,html-keyboard-response,224,2219266,0.0-16.0-23.0-0.0,936,List2A,black,man,,,,null,,,,
1792,<p>You got 8 out of 8 right first time. Press Continue.</p>,0,html-button-response,225,2221060,0.0-16.0-25.0,936,List2A,black,man,,,,,,,,
null,"<div style=""font-size:60px;"">+</div>",,html-keyboard-response,226,2222584,0.0-17.0-0.0,936,List2A,black,man,,,,null,,,,
null,"<img src=""stim_listA/marry3.gif""style=""height:400px;""></stim_listA>",,html-keyboard-response,227,2224589,0.0-17.0-1.0,936,List2A,black,man,,,,null,,,,
null,is marrying,,html-keyboard-response,228,2226590,0.0-17.0-2.0,936,List2A,black,man,,,,null,,,,
10210,,,survey-text,229,2236802,0.0-17.0-3.0,936,List2A,black,man,,,,,"{""Q0"":""mike is marrying beth""}","<img src=""stim_listA/marry3.gif""style=""height:400px;""></stim_listA>",is marrying,
null,"<div style=""font-size:60px;"">+</div>",,html-keyboard-response,230,2237304,0.0-17.0-0.1,936,List2A,black,man,,,,null,,,,
null,"<img src=""stim_listA/marry8.gif""style=""height:400px;""></stim_listA>",,html-keyboard-response,231,2239307,0.0-17.0-1.1,936,List2A,black,man,,,,null,,,,
null,are marrying each other,,html-keyboard-response,232,2241309,0.0-17.0-2.1,936,List2A,black,man,,,,null,,,,
15729,,,survey-text,233,2257041,0.0-17.0-3.1,936,List2A,black,man,,,,,"{""Q0"":""beth and ruth are marrying each other""}","<img src=""stim_listA/marry8.gif""style=""height:400px;""></stim_listA>",are marrying each other,
null,"<div style=""font-size:60px;"">+</div>",,html-keyboard-response,234,2257545,0.0-17.0-0.2,936,List2A,black,man,,,,null,,,,
null,"<img src=""stim_listA/dance5.gif""style=""height:400px;""></stim_listA>",,html-keyboard-response,235,2259550,0.0-17.0-1.2,936,List2A,black,man,,,,null,,,,
null,is dancing with,,html-keyboard-response,236,2261551,0.0-17.0-2.2,936,List2A,black,man,,,,null,,,,
19181,,,survey-text,237,2280735,0.0-17.0-3.2,936,List2A,black,man,,,,,"{""Q0"":""mike is dancing with luke""}","<img src=""stim_listA/dance5.gif""style=""height:400px;""></stim_listA>",is dancing with,
null,"<div style=""font-size:60px;"">+</div>",,html-keyboard-response,238,2281243,0.0-17.0-0.3,936,List2A,black,man,,,,null,,,,
null,"<img src=""stim_listA/touch5.gif""style=""height:400px;""></stim_listA>",,html-keyboard-response,239,2283247,0.0-17.0-1.3,936,List2A,black,man,,,,null,,,,
null,is touching,,html-keyboard-response,240,2285261,0.0-17.0-2.3,936,List2A,black,man,,,,null,,,,
14219,,,survey-text,241,2299481,0.0-17.0-3.3,936,List2A,black,man,,,,,"{""Q0"":""fred is touching dave""}","<img src=""stim_listA/touch5.gif""style=""height:400px;""></stim_listA>",is touching,
null,"<div style=""font-size:60px;"">+</div>",,html-keyboard-response,242,2299989,0.0-17.0-0.4,936,List2A,black,man,,,,null,,,,
null,"<img src=""stim_listA/marry7.gif""style=""height:400px;""></stim_listA>",,html-keyboard-response,243,2302000,0.0-17.0-1.4,936,List2A,black,man,,,,null,,,,
null,is marrying,,html-keyboard-response,244,2304002,0.0-17.0-2.4,936,List2A,black,man,,,,null,,,,
17745,,,survey-text,245,2321749,0.0-17.0-3.4,936,List2A,black,man,,,,,"{""Q0"":""beth is marrying julie""}","<img src=""stim_listA/marry7.gif""style=""height:400px;""></stim_listA>",is marrying,
null,"<div style=""font-size:60px;"">+</div>",,html-keyboard-response,246,2322260,0.0-17.0-0.5,936,List2A,black,man,,,,null,,,,
null,"<img src=""stim_listA/shout1.gif""style=""height:400px;""></stim_listA>",,html-keyboard-response,247,2324263,0.0-17.0-1.5,936,List2A,black,man,,,,null,,,,
null,is shouting at,,html-keyboard-response,248,2326272,0.0-17.0-2.5,936,List2A,black,man,,,,null,,,,
9185,,,survey-text,249,2335459,0.0-17.0-3.5,936,List2A,black,man,,,,,"{""Q0"":""luke is shouting at ruth""}","<img src=""stim_listA/shout1.gif""style=""height:400px;""></stim_listA>",is shouting at,
null,"<div style=""font-size:60px;"">+</div>",,html-keyboard-response,250,2335962,0.0-17.0-0.6,936,List2A,black,man,,,,null,,,,
null,"<img src=""stim_listA/marry6.gif""style=""height:400px;""></stim_listA>",,html-keyboard-response,251,2337967,0.0-17.0-1.6,936,List2A,black,man,,,,null,,,,
null,are marrying each other,,html-keyboard-response,252,2339984,0.0-17.0-2.6,936,List2A,black,man,,,,null,,,,
7321,,,survey-text,253,2347308,0.0-17.0-3.6,936,List2A,black,man,,,,,"{""Q0"":""mike and luke are marrying each other""}","<img src=""stim_listA/marry6.gif""style=""height:400px;""></stim_listA>",are marrying each other,
null,"<div style=""font-size:60px;"">+</div>",,html-keyboard-response,254,2347815,0.0-17.0-0.7,936,List2A,black,man,,,,null,,,,
null,"<img src=""stim_listA/play3.gif""style=""height:400px;""></stim_listA>",,html-keyboard-response,255,2349818,0.0-17.0-1.7,936,List2A,black,man,,,,null,,,,
null,is playing with,,html-keyboard-response,256,2351826,0.0-17.0-2.7,936,List2A,black,man,,,,null,,,,
13931,,,survey-text,257,2365759,0.0-17.0-3.7,936,List2A,black,man,,,,,"{""Q0"":""mike is playing with kate""}","<img src=""stim_listA/play3.gif""style=""height:400px;""></stim_listA>",is playing with,
null,"<div style=""font-size:60px;"">+</div>",,html-keyboard-response,258,2366275,0.0-17.0-0.8,936,List2A,black,man,,,,null,,,,
null,"<img src=""stim_listA/talk1.gif""style=""height:400px;""></stim_listA>",,html-keyboard-response,259,2368279,0.0-17.0-1.8,936,List2A,black,man,,,,null,,,,
null,is talking to,,html-keyboard-response,260,2370281,0.0-17.0-2.8,936,List2A,black,man,,,,null,,,,
5418,,,survey-text,261,2375700,0.0-17.0-3.8,936,List2A,black,man,,,,,"{""Q0"":""jane is talking to luke""}","<img src=""stim_listA/talk1.gif""style=""height:400px;""></stim_listA>",is talking to,
null,"<div style=""font-size:60px;"">+</div>",,html-keyboard-response,262,2376208,0.0-17.0-0.9,936,List2A,black,man,,,,null,,,,
null,"<img src=""stim_listA/touch6.gif""style=""height:400px;""></stim_listA>",,html-keyboard-response,263,2378212,0.0-17.0-1.9,936,List2A,black,man,,,,null,,,,
null,are touching each other,,html-keyboard-response,264,2380216,0.0-17.0-2.9,936,List2A,black,man,,,,null,,,,
12401,,,survey-text,265,2392618,0.0-17.0-3.9,936,List2A,black,man,,,,,"{""Q0"":""jane and luke are touching each other""}","<img src=""stim_listA/touch6.gif""style=""height:400px;""></stim_listA>",are touching each other,
null,"<div style=""font-size:60px;"">+</div>",,html-keyboard-response,266,2393137,0.0-17.0-0.10,936,List2A,black,man,,,,null,,,,
null,"<img src=""stim_listA/argue7.gif""style=""height:400px;""></stim_listA>",,html-keyboard-response,267,2395140,0.0-17.0-1.10,936,List2A,black,man,,,,null,,,,
null,is arguing with,,html-keyboard-response,268,2397150,0.0-17.0-2.10,936,List2A,black,man,,,,null,,,,
5628,,,survey-text,269,2402782,0.0-17.0-3.10,936,List2A,black,man,,,,,"{""Q0"":""jane is arguing with beth""}","<img src=""stim_listA/argue7.gif""style=""height:400px;""></stim_listA>",is arguing with,
null,"<div style=""font-size:60px;"">+</div>",,html-keyboard-response,270,2403284,0.0-17.0-0.11,936,List2A,black,man,,,,null,,,,
null,"<img src=""stim_listA/talk2.gif""style=""height:400px;""></stim_listA>",,html-keyboard-response,271,2405286,0.0-17.0-1.11,936,List2A,black,man,,,,null,,,,
null,are talking to each other,,html-keyboard-response,272,2407297,0.0-17.0-2.11,936,List2A,black,man,,,,null,,,,
8382,,,survey-text,273,2415682,0.0-17.0-3.11,936,List2A,black,man,,,,,"{""Q0"":""ruth and dave are talking to each other""}","<img src=""stim_listA/talk2.gif""style=""height:400px;""></stim_listA>",are talking to each other,
null,"<div style=""font-size:60px;"">+</div>",,html-keyboard-response,274,2416186,0.0-17.0-0.12,936,List2A,black,man,,,,null,,,,
null,"<img src=""stim_listA/dance7.gif""style=""height:400px;""></stim_listA>",,html-keyboard-response,275,2418190,0.0-17.0-1.12,936,List2A,black,man,,,,null,,,,
null,is dancing with,,html-keyboard-response,276,2420194,0.0-17.0-2.12,936,List2A,black,man,,,,null,,,,
9492,,,survey-text,277,2429688,0.0-17.0-3.12,936,List2A,black,man,,,,,"{""Q0"":""ruth is dancing with kate""}","<img src=""stim_listA/dance7.gif""style=""height:400px;""></stim_listA>",is dancing with,
null,"<div style=""font-size:60px;"">+</div>",,html-keyboard-response,278,2430200,0.0-17.0-0.13,936,List2A,black,man,,,,null,,,,
null,"<img src=""stim_listA/play1.gif""style=""height:400px;""></stim_listA>",,html-keyboard-response,279,2432204,0.0-17.0-1.13,936,List2A,black,man,,,,null,,,,
null,is playing with,,html-keyboard-response,280,2434208,0.0-17.0-2.13,936,List2A,black,man,,,,null,,,,
8461,,,survey-text,281,2442671,0.0-17.0-3.13,936,List2A,black,man,,,,,"{""Q0"":""jane is playing with dave""}","<img src=""stim_listA/play1.gif""style=""height:400px;""></stim_listA>",is playing with,
null,"<div style=""font-size:60px;"">+</div>",,html-keyboard-response,282,2443182,0.0-17.0-0.14,936,List2A,black,man,,,,null,,,,
null,"<img src=""stim_listA/fight2.gif""style=""height:400px;""></stim_listA>",,html-keyboard-response,283,2445188,0.0-17.0-1.14,936,List2A,black,man,,,,null,,,,
null,are fighting each other,,html-keyboard-response,284,2447192,0.0-17.0-2.14,936,List2A,black,man,,,,null,,,,
7038,,,survey-text,285,2454231,0.0-17.0-3.14,936,List2A,black,man,,,,,"{""Q0"":""ruth and luke are fighting each other""}","<img src=""stim_listA/fight2.gif""style=""height:400px;""></stim_listA>",are fighting each other,
null,"<div style=""font-size:60px;"">+</div>",,html-keyboard-response,286,2454741,0.0-17.0-0.15,936,List2A,black,man,,,,null,,,,
null,"<img src=""stim_listA/fight8.gif""style=""height:400px;""></stim_listA>",,html-keyboard-response,287,2456746,0.0-17.0-1.15,936,List2A,black,man,,,,null,,,,
null,are fighting each other,,html-keyboard-response,288,2458749,0.0-17.0-2.15,936,List2A,black,man,,,,null,,,,
8091,,,survey-text,289,2466843,0.0-17.0-3.15,936,List2A,black,man,,,,,"{""Q0"":""beth and ruth are fighting each other""}","<img src=""stim_listA/fight8.gif""style=""height:400px;""></stim_listA>",are fighting each other,
null,"<div style=""font-size:60px;"">+</div>",,html-keyboard-response,290,2467345,0.0-17.0-0.16,936,List2A,black,man,,,,null,,,,
null,"<img src=""stim_listA/kiss7.gif""style=""height:400px;""></stim_listA>",,html-keyboard-response,291,2469349,0.0-17.0-1.16,936,List2A,black,man,,,,null,,,,
null,is kissing,,html-keyboard-response,292,2471352,0.0-17.0-2.16,936,List2A,black,man,,,,null,,,,
13565,,,survey-text,293,2484919,0.0-17.0-3.16,936,List2A,black,man,,,,,"{""Q0"":""best is kissing ruth""}","<img src=""stim_listA/kiss7.gif""style=""height:400px;""></stim_listA>",is kissing,
null,"<div style=""font-size:60px;"">+</div>",,html-keyboard-response,294,2485420,0.0-17.0-0.17,936,List2A,black,man,,,,null,,,,
null,"<img src=""stim_listA/shout2.gif""style=""height:400px;""></stim_listA>",,html-keyboard-response,295,2488263,0.0-17.0-1.17,936,List2A,black,man,,,,null,,,,
null,are shouting at each other,,html-keyboard-response,296,2490266,0.0-17.0-2.17,936,List2A,black,man,,,,null,,,,
8757,,,survey-text,297,2499025,0.0-17.0-3.17,936,List2A,black,man,,,,,"{""Q0"":""jane and dave are shouting at each other""}","<img src=""stim_listA/shout2.gif""style=""height:400px;""></stim_listA>",are shouting at each other,
null,"<div style=""font-size:60px;"">+</div>",,html-keyboard-response,298,2499541,0.0-17.0-0.18,936,List2A,black,man,,,,null,,,,
null,"<img src=""stim_listA/flirt7.gif""style=""height:400px;""></stim_listA>",,html-keyboard-response,299,2501550,0.0-17.0-1.18,936,List2A,black,man,,,,null,,,,
null,is flirting with,,html-keyboard-response,300,2503553,0.0-17.0-2.18,936,List2A,black,man,,,,null,,,,
17073,,,survey-text,301,2520627,0.0-17.0-3.18,936,List2A,black,man,,,,,"{""Q0"":""kate is flirting with ruth""}","<img src=""stim_listA/flirt7.gif""style=""height:400px;""></stim_listA>",is flirting with,
null,"<div style=""font-size:60px;"">+</div>",,html-keyboard-response,302,2521135,0.0-17.0-0.19,936,List2A,black,man,,,,null,,,,
null,"<img src=""stim_listA/argue4.gif""style=""height:400px;""></stim_listA>",,html-keyboard-response,303,2523137,0.0-17.0-1.19,936,List2A,black,man,,,,null,,,,
null,are arguing with each other,,html-keyboard-response,304,2525138,0.0-17.0-2.19,936,List2A,black,man,,,,null,,,,
7668,,,survey-text,305,2532808,0.0-17.0-3.19,936,List2A,black,man,,,,,"{""Q0"":""fred and kate are arguing with each other""}","<img src=""stim_listA/argue4.gif""style=""height:400px;""></stim_listA>",are arguing with each other,
203354,"<img src='img/portrait_matrix_list2.jpg' style='width:900px;height:500px;''></img><p>If you have memorised all the portraits and names and are ready to start, press Continue.</p><p><strong>Please note: Your memory of these faces will be tested 4 times during this experiment.</strong></p>",0,html-button-response,306,2736164,0.0-18.0-0.0,936,List2A,black,man,,,,,,,,
3121,"<img src=""portrait/WM1.jpg""style=""height:400px;""></img>",6,html-button-response,307,2740292,0.0-18.0-1.0,936,List2A,black,man,,TRUE,6,,,,,
null,CORRECT,,html-keyboard-response,308,2741809,0.0-18.0-2.0-0.0,936,List2A,black,man,,,,null,,,,
2347,"<img src=""portrait/WW1.jpg""style=""height:400px;""></img>",1,html-button-response,309,2744159,0.0-18.0-4.0,936,List2A,black,man,,TRUE,1,,,,,
null,CORRECT,,html-keyboard-response,310,2745671,0.0-18.0-5.0-0.0,936,List2A,black,man,,,,null,,,,
2014,"<img src=""portrait/BM1.jpg""style=""height:400px;""></img>",4,html-button-response,311,2747687,0.0-18.0-7.0,936,List2A,black,man,,TRUE,4,,,,,
null,CORRECT,,html-keyboard-response,312,2749207,0.0-18.0-8.0-0.0,936,List2A,black,man,,,,null,,,,
2046,"<img src=""portrait/BM2.jpg""style=""height:400px;""></img>",5,html-button-response,313,2751254,0.0-18.0-10.0,936,List2A,black,man,,TRUE,5,,,,,
null,CORRECT,,html-keyboard-response,314,2752765,0.0-18.0-11.0-0.0,936,List2A,black,man,,,,null,,,,
2393,"<img src=""portrait/BW2.jpg""style=""height:400px;""></img>",2,html-button-response,315,2755159,0.0-18.0-13.0,936,List2A,black,man,,TRUE,2,,,,,
null,CORRECT,,html-keyboard-response,316,2756666,0.0-18.0-14.0-0.0,936,List2A,black,man,,,,null,,,,
2143,"<img src=""portrait/WW2.jpg""style=""height:400px;""></img>",3,html-button-response,317,2758810,0.0-18.0-16.0,936,List2A,black,man,,TRUE,3,,,,,
null,CORRECT,,html-keyboard-response,318,2760329,0.0-18.0-17.0-0.0,936,List2A,black,man,,,,null,,,,
2215,"<img src=""portrait/BW1.jpg""style=""height:400px;""></img>",0,html-button-response,319,2762546,0.0-18.0-19.0,936,List2A,black,man,,TRUE,0,,,,,
null,CORRECT,,html-keyboard-response,320,2764072,0.0-18.0-20.0-0.0,936,List2A,black,man,,,,null,,,,
2961,"<img src=""portrait/WM2.jpg""style=""height:400px;""></img>",7,html-button-response,321,2767034,0.0-18.0-22.0,936,List2A,black,man,,TRUE,7,,,,,
null,CORRECT,,html-keyboard-response,322,2768552,0.0-18.0-23.0-0.0,936,List2A,black,man,,,,null,,,,
1808,<p>You got 8 out of 8 right first time. Press Continue.</p>,0,html-button-response,323,2770362,0.0-18.0-25.0,936,List2A,black,man,,,,,,,,
null,"<div style=""font-size:60px;"">+</div>",,html-keyboard-response,324,2771888,0.0-19.0-0.0,936,List2A,black,man,,,,null,,,,
null,"<img src=""stim_listA/kiss1.gif""style=""height:400px;""></stim_listA>",,html-keyboard-response,325,2773890,0.0-19.0-1.0,936,List2A,black,man,,,,null,,,,
null,is kissing,,html-keyboard-response,326,2775895,0.0-19.0-2.0,936,List2A,black,man,,,,null,,,,
13671,,,survey-text,327,2789568,0.0-19.0-3.0,936,List2A,black,man,,,,,"{""Q0"":""luke is kissing ruth""}","<img src=""stim_listA/kiss1.gif""style=""height:400px;""></stim_listA>",is kissing,
null,"<div style=""font-size:60px;"">+</div>",,html-keyboard-response,328,2790075,0.0-19.0-0.1,936,List2A,black,man,,,,null,,,,
null,"<img src=""stim_listA/talk8.gif""style=""height:400px;""></stim_listA>",,html-keyboard-response,329,2792078,0.0-19.0-1.1,936,List2A,black,man,,,,null,,,,
null,are talking to each other,,html-keyboard-response,330,2794093,0.0-19.0-2.1,936,List2A,black,man,,,,null,,,,
8969,,,survey-text,331,2803063,0.0-19.0-3.1,936,List2A,black,man,,,,,"{""Q0"":""jane and beth are talking to each other""}","<img src=""stim_listA/talk8.gif""style=""height:400px;""></stim_listA>",are talking to each other,
null,"<div style=""font-size:60px;"">+</div>",,html-keyboard-response,332,2803571,0.0-19.0-0.2,936,List2A,black,man,,,,null,,,,
null,"<img src=""stim_listA/dance6.gif""style=""height:400px;""></stim_listA>",,html-keyboard-response,333,2805574,0.0-19.0-1.2,936,List2A,black,man,,,,null,,,,
null,are dancing with each other,,html-keyboard-response,334,2807575,0.0-19.0-2.2,936,List2A,black,man,,,,null,,,,
9069,,,survey-text,335,2816647,0.0-19.0-3.2,936,List2A,black,man,,,,,"{""Q0"":""fred and dave are dancing with each other""}","<img src=""stim_listA/dance6.gif""style=""height:400px;""></stim_listA>",are dancing with each other,
null,"<div style=""font-size:60px;"">+</div>",,html-keyboard-response,336,2817158,0.0-19.0-0.3,936,List2A,black,man,,,,null,,,,
null,"<img src=""stim_listA/touch8.gif""style=""height:400px;""></stim_listA>",,html-keyboard-response,337,2819160,0.0-19.0-1.3,936,List2A,black,man,,,,null,,,,
null,are touching each other,,html-keyboard-response,338,2821174,0.0-19.0-2.3,936,List2A,black,man,,,,null,,,,
6061,,,survey-text,339,2827236,0.0-19.0-3.3,936,List2A,black,man,,,,,"{""Q0"":""beth and ruth are touching each other""}","<img src=""stim_listA/touch8.gif""style=""height:400px;""></stim_listA>",are touching each other,
null,"<div style=""font-size:60px;"">+</div>",,html-keyboard-response,340,2827751,0.0-19.0-0.4,936,List2A,black,man,,,,null,,,,
null,"<img src=""stim_listA/shout5.gif""style=""height:400px;""></stim_listA>",,html-keyboard-response,341,2829755,0.0-19.0-1.4,936,List2A,black,man,,,,null,,,,
null,is shouting at,,html-keyboard-response,342,2831759,0.0-19.0-2.4,936,List2A,black,man,,,,null,,,,
5061,,,survey-text,343,2836821,0.0-19.0-3.4,936,List2A,black,man,,,,,"{""Q0"":""luke is shouting at fred""}","<img src=""stim_listA/shout5.gif""style=""height:400px;""></stim_listA>",is shouting at,
null,"<div style=""font-size:60px;"">+</div>",,html-keyboard-response,344,2837323,0.0-19.0-0.5,936,List2A,black,man,,,,null,,,,
null,"<img src=""stim_listA/argue5.gif""style=""height:400px;""></stim_listA>",,html-keyboard-response,345,2839325,0.0-19.0-1.5,936,List2A,black,man,,,,null,,,,
null,is arguing with,,html-keyboard-response,346,2841327,0.0-19.0-2.5,936,List2A,black,man,,,,null,,,,
7333,,,survey-text,347,2848662,0.0-19.0-3.5,936,List2A,black,man,,,,,"{""Q0"":""fred is arguing with dave""}","<img src=""stim_listA/argue5.gif""style=""height:400px;""></stim_listA>",is arguing with,
null,"<div style=""font-size:60px;"">+</div>",,html-keyboard-response,348,2849172,0.0-19.0-0.6,936,List2A,black,man,,,,null,,,,
null,"<img src=""stim_listA/dance2.gif""style=""height:400px;""></stim_listA>",,html-keyboard-response,349,2851186,0.0-19.0-1.6,936,List2A,black,man,,,,null,,,,
null,are dancing with each other,,html-keyboard-response,350,2853188,0.0-19.0-2.6,936,List2A,black,man,,,,null,,,,
7061,,,survey-text,351,2860251,0.0-19.0-3.6,936,List2A,black,man,,,,,"{""Q0"":""dave and ruth are dancing with each other""}","<img src=""stim_listA/dance2.gif""style=""height:400px;""></stim_listA>",are dancing with each other,
null,"<div style=""font-size:60px;"">+</div>",,html-keyboard-response,352,2860758,0.0-19.0-0.7,936,List2A,black,man,,,,null,,,,
null,"<img src=""stim_listA/shout3.gif""style=""height:400px;""></stim_listA>",,html-keyboard-response,353,2862763,0.0-19.0-1.7,936,List2A,black,man,,,,null,,,,
null,is shouting at,,html-keyboard-response,354,2864780,0.0-19.0-2.7,936,List2A,black,man,,,,null,,,,
3810,,,survey-text,355,2868591,0.0-19.0-3.7,936,List2A,black,man,,,,,"{""Q0"":""beth is shouting at fred""}","<img src=""stim_listA/shout3.gif""style=""height:400px;""></stim_listA>",is shouting at,
null,"<div style=""font-size:60px;"">+</div>",,html-keyboard-response,356,2869099,0.0-19.0-0.8,936,List2A,black,man,,,,null,,,,
null,"<img src=""stim_listA/flirt2.gif""style=""height:400px;""></stim_listA>",,html-keyboard-response,357,2871101,0.0-19.0-1.8,936,List2A,black,man,,,,null,,,,
null,are flirting with each other,,html-keyboard-response,358,2873112,0.0-19.0-2.8,936,List2A,black,man,,,,null,,,,
9059,,,survey-text,359,2882173,0.0-19.0-3.8,936,List2A,black,man,,,,,"{""Q0"":""dave and ruth are flirting with each other""}","<img src=""stim_listA/flirt2.gif""style=""height:400px;""></stim_listA>",are flirting with each other,
null,"<div style=""font-size:60px;"">+</div>",,html-keyboard-response,360,2882682,0.0-19.0-0.9,936,List2A,black,man,,,,null,,,,
null,"<img src=""stim_listA/fight1.gif""style=""height:400px;""></stim_listA>",,html-keyboard-response,361,2884686,0.0-19.0-1.9,936,List2A,black,man,,,,null,,,,
null,is fighting,,html-keyboard-response,362,2886689,0.0-19.0-2.9,936,List2A,black,man,,,,null,,,,
4586,,,survey-text,363,2891276,0.0-19.0-3.9,936,List2A,black,man,,,,,"{""Q0"":""jane is fighting dave""}","<img src=""stim_listA/fight1.gif""style=""height:400px;""></stim_listA>",is fighting,
null,"<div style=""font-size:60px;"">+</div>",,html-keyboard-response,364,2891778,0.0-19.0-0.10,936,List2A,black,man,,,,null,,,,
null,"<img src=""stim_listA/talk3.gif""style=""height:400px;""></stim_listA>",,html-keyboard-response,365,2893780,0.0-19.0-1.10,936,List2A,black,man,,,,null,,,,
null,is talking to,,html-keyboard-response,366,2895789,0.0-19.0-2.10,936,List2A,black,man,,,,null,,,,
8131,,,survey-text,367,2903921,0.0-19.0-3.10,936,List2A,black,man,,,,,"{""Q0"":""fred is talking to kate""}","<img src=""stim_listA/talk3.gif""style=""height:400px;""></stim_listA>",is talking to,
null,"<div style=""font-size:60px;"">+</div>",,html-keyboard-response,368,2904433,0.0-19.0-0.11,936,List2A,black,man,,,,null,,,,
null,"<img src=""stim_listA/touch1.gif""style=""height:400px;""></stim_listA>",,html-keyboard-response,369,2906436,0.0-19.0-1.11,936,List2A,black,man,,,,null,,,,
null,is touching,,html-keyboard-response,370,2908438,0.0-19.0-2.11,936,List2A,black,man,,,,null,,,,
12962,,,survey-text,371,2921403,0.0-19.0-3.11,936,List2A,black,man,,,,,"{""Q0"":""dave is touching jane""}","<img src=""stim_listA/touch1.gif""style=""height:400px;""></stim_listA>",is touching,
null,"<div style=""font-size:60px;"">+</div>",,html-keyboard-response,372,2921914,0.0-19.0-0.12,936,List2A,black,man,,,,null,,,,
null,"<img src=""stim_listA/flirt3.gif""style=""height:400px;""></stim_listA>",,html-keyboard-response,373,2923917,0.0-19.0-1.12,936,List2A,black,man,,,,null,,,,
null,is flirting with,,html-keyboard-response,374,2925920,0.0-19.0-2.12,936,List2A,black,man,,,,null,,,,
4693,,,survey-text,375,2930614,0.0-19.0-3.12,936,List2A,black,man,,,,,"{""Q0"":""kate is flirting with fred""}","<img src=""stim_listA/flirt3.gif""style=""height:400px;""></stim_listA>",is flirting with,
null,"<div style=""font-size:60px;"">+</div>",,html-keyboard-response,376,2931131,0.0-19.0-0.13,936,List2A,black,man,,,,null,,,,
null,"<img src=""stim_listA/kiss8.gif""style=""height:400px;""></stim_listA>",,html-keyboard-response,377,2933134,0.0-19.0-1.13,936,List2A,black,man,,,,null,,,,
null,are kissing each other,,html-keyboard-response,378,2935139,0.0-19.0-2.13,936,List2A,black,man,,,,null,,,,
7285,,,survey-text,379,2942425,0.0-19.0-3.13,936,List2A,black,man,,,,,"{""Q0"":""jane and kate are kissing each other""}","<img src=""stim_listA/kiss8.gif""style=""height:400px;""></stim_listA>",are kissing each other,
null,"<div style=""font-size:60px;"">+</div>",,html-keyboard-response,380,2942931,0.0-19.0-0.14,936,List2A,black,man,,,,null,,,,
null,"<img src=""stim_listA/argue6.gif""style=""height:400px;""></stim_listA>",,html-keyboard-response,381,2944934,0.0-19.0-1.14,936,List2A,black,man,,,,null,,,,
null,are arguing with each other,,html-keyboard-response,382,2946936,0.0-19.0-2.14,936,List2A,black,man,,,,null,,,,
16899,,,survey-text,383,2963836,0.0-19.0-3.14,936,List2A,black,man,,,,,"{""Q0"":""mike and luke are arguing with each other""}","<img src=""stim_listA/argue6.gif""style=""height:400px;""></stim_listA>",are arguing with each other,
null,"<div style=""font-size:60px;"">+</div>",,html-keyboard-response,384,2964338,0.0-19.0-0.15,936,List2A,black,man,,,,null,,,,
null,"<img src=""stim_listA/talk6.gif""style=""height:400px;""></stim_listA>",,html-keyboard-response,385,2966340,0.0-19.0-1.15,936,List2A,black,man,,,,null,,,,
null,are talking to each other,,html-keyboard-response,386,2968355,0.0-19.0-2.15,936,List2A,black,man,,,,null,,,,
9743,,,survey-text,387,2978100,0.0-19.0-3.15,936,List2A,black,man,,,,,"{""Q0"":""dave and fred are talking to each other""}","<img src=""stim_listA/talk6.gif""style=""height:400px;""></stim_listA>",are talking to each other,
null,"<div style=""font-size:60px;"">+</div>",,html-keyboard-response,388,2978614,0.0-19.0-0.16,936,List2A,black,man,,,,null,,,,
null,"<img src=""stim_listA/marry5.gif""style=""height:400px;""></stim_listA>",,html-keyboard-response,389,2980620,0.0-19.0-1.16,936,List2A,black,man,,,,null,,,,
null,is marrying,,html-keyboard-response,390,2982636,0.0-19.0-2.16,936,List2A,black,man,,,,null,,,,
3909,,,survey-text,391,2986546,0.0-19.0-3.16,936,List2A,black,man,,,,,"{""Q0"":""dave is marrying fred""}","<img src=""stim_listA/marry5.gif""style=""height:400px;""></stim_listA>",is marrying,
null,"<div style=""font-size:60px;"">+</div>",,html-keyboard-response,392,2987061,0.0-19.0-0.17,936,List2A,black,man,,,,null,,,,
null,"<img src=""stim_listA/flirt1.gif""style=""height:400px;""></stim_listA>",,html-keyboard-response,393,2989064,0.0-19.0-1.17,936,List2A,black,man,,,,null,,,,
null,is flirting with,,html-keyboard-response,394,2991076,0.0-19.0-2.17,936,List2A,black,man,,,,null,,,,
7735,,,survey-text,395,2998812,0.0-19.0-3.17,936,List2A,black,man,,,,,"{""Q0"":""luke is flirting with jane""}","<img src=""stim_listA/flirt1.gif""style=""height:400px;""></stim_listA>",is flirting with,
null,"<div style=""font-size:60px;"">+</div>",,html-keyboard-response,396,2999315,0.0-19.0-0.18,936,List2A,black,man,,,,null,,,,
null,"<img src=""stim_listA/flirt6.gif""style=""height:400px;""></stim_listA>",,html-keyboard-response,397,3001318,0.0-19.0-1.18,936,List2A,black,man,,,,null,,,,
null,are flirting with each other,,html-keyboard-response,398,3003320,0.0-19.0-2.18,936,List2A,black,man,,,,null,,,,
12910,,,survey-text,399,3016232,0.0-19.0-3.18,936,List2A,black,man,,,,,"{""Q0"":""frank and dave are flirting with each other""}","<img src=""stim_listA/flirt6.gif""style=""height:400px;""></stim_listA>",are flirting with each other,
null,"<div style=""font-size:60px;"">+</div>",,html-keyboard-response,400,3016748,0.0-19.0-0.19,936,List2A,black,man,,,,null,,,,
null,"<img src=""stim_listA/play5.gif""style=""height:400px;""></stim_listA>",,html-keyboard-response,401,3018750,0.0-19.0-1.19,936,List2A,black,man,,,,null,,,,
null,is playing with,,html-keyboard-response,402,3020753,0.0-19.0-2.19,936,List2A,black,man,,,,null,,,,
6105,,,survey-text,403,3026859,0.0-19.0-3.19,936,List2A,black,man,,,,,"{""Q0"":""dave is playing with mike""}","<img src=""stim_listA/play5.gif""style=""height:400px;""></stim_listA>",is playing with,
2344,<p>Thank you for completing that task.</p><p>The final part of this session is a short questionnaire.</p><p>Press Continue.</p>,0,html-button-response,404,3029205,0.0-20.0,936,List2A,black,man,,,,,,,,
15125,,,survey-text,405,3045340,0.0-21.0,936,List2A,black,man,,,,,"{""Q0"":""36"",""Q1"":""English"",""Q2"":""English"",""Q3"":""United States"",""Q4"":""African American"",""Q5"":""Male""}",,,demographics
6583,,,survey-likert,406,3051926,0.0-22.0,936,List2A,black,man,,,,,"{""Q0"":3}",,,likert_ESS
4208,,,survey-likert,407,3056136,0.0-23.0,936,List2A,black,man,,,,,"{""Q0"":0}",,,likert_NSSAL_Q1
3017,,,survey-likert,408,3059155,0.0-24.0,936,List2A,black,man,,,,,"{""Q0"":0}",,,likert_NSSAL_Q2
4806,,,survey-likert,409,3063963,0.0-25.0,936,List2A,black,man,,,,,"{""Q0"":4}",,,likert_CGRS_Q1
5667,,,survey-likert,410,3069632,0.0-26.0,936,List2A,black,man,,,,,"{""Q0"":2}",,,likert_CGRS_Q2
2939,,,survey-likert,411,3072574,0.0-27.0,936,List2A,black,man,,,,,"{""Q0"":2}",,,likert_CGRS_Q3
8813,,,survey-text,412,3081390,0.0-28.0,936,List2A,black,man,,,,,"{""Q0"":""ccc""}",,,worker_id
29284,,,external-html,413,3111094,0.0-29.0,936,List2A,black,man,debrief.html,,,,,,,
