rt,stimulus,button_pressed,trial_type,trial_index,time_elapsed,internal_node_id,subject,list,ppt_race,ppt_gender,url,first_guess,correct,key_press,responses,image_type,phrase_type,test_part
8663,Welcome to the experiment. Press Continue to begin.,0,html-button-response,0,8673,0.0-0.0,93700,List1A,black,man,,,,,,,,
78461,,,external-html,1,88472,0.0-1.0,93700,List1A,black,man,consent.html,,,,,,,
32260,"<p>On the next page, you will see portraits of 8 people and their names.</p><p>Your first task is to take a few minutes to memorise the names of these people.</p><p>You will have to recall their names during the rest of the experiment, so it is</p><p>essential that you try to memorise these people and their names as best as you can.</p><br><p><strong>You will then be tested on your memory of these names and portraits.</strong></p><br><p>The experiment will start after you have completed this memory test.</p><br><p>Ready?</p>",0,html-button-response,2,120737,0.0-2.0,93700,List1A,black,man,,,,,,,,
266832,"<img src='img/portrait_matrix_list1.jpg' style='width:900px;height:500px;''></img><p>If you have memorised all the portraits and names and are ready to start, press Continue.</p><p><strong>Please note: Your memory of these faces will be tested 4 times during this experiment.</strong></p>",0,html-button-response,3,388591,0.0-3.0-0.0,93700,List1A,black,man,,,,,,,,
31219,"<img src=""portrait/BW1.jpg""style=""height:400px;""></img>",0,html-button-response,4,420826,0.0-3.0-1.0,93700,List1A,black,man,,TRUE,0,,,,,
null,CORRECT,,html-keyboard-response,5,422360,0.0-3.0-2.0-0.0,93700,List1A,black,man,,,,null,,,,
16429,"<img src=""portrait/WW1.jpg""style=""height:400px;""></img>",1,html-button-response,6,438793,0.0-3.0-4.0,93700,List1A,black,man,,TRUE,1,,,,,
null,CORRECT,,html-keyboard-response,7,440312,0.0-3.0-5.0-0.0,93700,List1A,black,man,,,,null,,,,
9213,"<img src=""portrait/WW2.jpg""style=""height:400px;""></img>",3,html-button-response,8,449531,0.0-3.0-7.0,93700,List1A,black,man,,TRUE,3,,,,,
null,CORRECT,,html-keyboard-response,9,451061,0.0-3.0-8.0-0.0,93700,List1A,black,man,,,,null,,,,
6075,"<img src=""portrait/BW2.jpg""style=""height:400px;""></img>",2,html-button-response,10,457140,0.0-3.0-10.0,93700,List1A,black,man,,TRUE,2,,,,,
null,CORRECT,,html-keyboard-response,11,458651,0.0-3.0-11.0-0.0,93700,List1A,black,man,,,,null,,,,
8928,"<img src=""portrait/BM1.jpg""style=""height:400px;""></img>",4,html-button-response,12,467583,0.0-3.0-13.0,93700,List1A,black,man,,TRUE,4,,,,,
null,CORRECT,,html-keyboard-response,13,469106,0.0-3.0-14.0-0.0,93700,List1A,black,man,,,,null,,,,
3973,"<img src=""portrait/BM2.jpg""style=""height:400px;""></img>",5,html-button-response,14,473084,0.0-3.0-16.0,93700,List1A,black,man,,TRUE,5,,,,,
null,CORRECT,,html-keyboard-response,15,474591,0.0-3.0-17.0-0.0,93700,List1A,black,man,,,,null,,,,
2889,"<img src=""portrait/WM1.jpg""style=""height:400px;""></img>",6,html-button-response,16,477490,0.0-3.0-19.0,93700,List1A,black,man,,TRUE,6,,,,,
null,CORRECT,,html-keyboard-response,17,479013,0.0-3.0-20.0-0.0,93700,List1A,black,man,,,,null,,,,
3026,"<img src=""portrait/WM2.jpg""style=""height:400px;""></img>",7,html-button-response,18,482043,0.0-3.0-22.0,93700,List1A,black,man,,TRUE,7,,,,,
null,CORRECT,,html-keyboard-response,19,483557,0.0-3.0-23.0-0.0,93700,List1A,black,man,,,,null,,,,
2252,<p>You got 8 out of 8 right first time. Press Continue.</p>,0,html-button-response,20,485819,0.0-3.0-25.0,93700,List1A,black,man,,,,,,,,
47657,"<p>In this experiment, you will view photographs of the people from the memory game interacting.</p><p>By using the <strong>exact</strong> phrase given <i>after</i> the photograph appears and recalling the correct names of the people in the photographs, form a sentence describing the interaction. You do not need to capitalise names.</p><p>Type your answer in the space provided. Please complete every sentence before moving onto the next trial.</p><p>You will only have a few seconds to memorise each given photograph and phrase before you can respond, so try your best to focus.</p><p>An example is given below. Press 'Continue' when you are ready.</p><img src='img/speaking_example.jpg' style='width:800px;height:460px;''></img>",0,html-button-response,21,534507,0.0-4.0,93700,List1A,black,man,,,,,,,,
3635,"<p>Before the experiment starts, you will watch two example trials. Press 'Continue'.</p>",0,html-button-response,22,539166,0.0-5.0,93700,List1A,black,man,,,,,,,,
null,<img src='img/meet_eg.gif' style='height:400px;''></img>,,html-keyboard-response,23,542183,0.0-6.0,93700,List1A,black,man,,,,null,,,,
null,<p>is meeting</p>,,html-keyboard-response,24,544191,0.0-7.0,93700,List1A,black,man,,,,null,,,,
8181,<p><b>Answer:</b> kate is meeting beth</p>,0,html-button-response,25,552374,0.0-8.0,93700,List1A,black,man,,,,,,,,
null,<img src='img/look_eg.gif' style='height:400px;''></img>,,html-keyboard-response,26,555388,0.0-9.0,93700,List1A,black,man,,,,null,,,,
null,<p>are looking at each other</p>,,html-keyboard-response,27,557401,0.0-10.0,93700,List1A,black,man,,,,null,,,,
4705,<p><b>Answer:</b> luke and dave are looking at each other</p>,0,html-button-response,28,562108,0.0-11.0,93700,List1A,black,man,,,,,,,,
19649,"<p>Ready to start the experiment?</p><br><p><strong>Remember to describe the picture using a full sentence,</strong></p><p><strong>that combines the names of the people with the <i>exact</i> phrase given.</strong></p><p><strong>To receive full payment you must do this correctly.</strong></p><p><strong> You do not need to capitalise names or use punctuation.</strong></p><br><p>Press 'Continue' to begin.</p>",0,html-button-response,29,582764,0.0-12.0,93700,List1A,black,man,,,,,,,,
null,"<div style=""font-size:60px;"">+</div>",,html-keyboard-response,30,584279,0.0-13.0-0.0,93700,List1A,black,man,,,,null,,,,
null,"<img src=""stim_listA/argue7.gif""style=""height:400px;""></stim_listA>",,html-keyboard-response,31,586289,0.0-13.0-1.0,93700,List1A,black,man,,,,null,,,,
null,is arguing with,,html-keyboard-response,32,588294,0.0-13.0-2.0,93700,List1A,black,man,,,,null,,,,
29736,,,survey-text,33,618036,0.0-13.0-3.0,93700,List1A,black,man,,,,,"{""Q0"":""kate is arguing with jane""}","<img src=""stim_listA/argue7.gif""style=""height:400px;""></stim_listA>",is arguing with,
null,"<div style=""font-size:60px;"">+</div>",,html-keyboard-response,34,618547,0.0-13.0-0.1,93700,List1A,black,man,,,,null,,,,
null,"<img src=""stim_listA/shout3.gif""style=""height:400px;""></stim_listA>",,html-keyboard-response,35,620557,0.0-13.0-1.1,93700,List1A,black,man,,,,null,,,,
null,is shouting at,,html-keyboard-response,36,622570,0.0-13.0-2.1,93700,List1A,black,man,,,,null,,,,
16392,,,survey-text,37,638965,0.0-13.0-3.1,93700,List1A,black,man,,,,,"{""Q0"":""ruth is shouting at luke""}","<img src=""stim_listA/shout3.gif""style=""height:400px;""></stim_listA>",is shouting at,
null,"<div style=""font-size:60px;"">+</div>",,html-keyboard-response,38,639469,0.0-13.0-0.2,93700,List1A,black,man,,,,null,,,,
null,"<img src=""stim_listA/marry1.gif""style=""height:400px;""></stim_listA>",,html-keyboard-response,39,641486,0.0-13.0-1.2,93700,List1A,black,man,,,,null,,,,
null,is marrying,,html-keyboard-response,40,643493,0.0-13.0-2.2,93700,List1A,black,man,,,,null,,,,
19542,,,survey-text,41,663040,0.0-13.0-3.2,93700,List1A,black,man,,,,,"{""Q0"":""mike is talking to beth""}","<img src=""stim_listA/marry1.gif""style=""height:400px;""></stim_listA>",is marrying,
null,"<div style=""font-size:60px;"">+</div>",,html-keyboard-response,42,663556,0.0-13.0-0.3,93700,List1A,black,man,,,,null,,,,
null,"<img src=""stim_listA/play1.gif""style=""height:400px;""></stim_listA>",,html-keyboard-response,43,665568,0.0-13.0-1.3,93700,List1A,black,man,,,,null,,,,
null,is playing with,,html-keyboard-response,44,667582,0.0-13.0-2.3,93700,List1A,black,man,,,,null,,,,
20133,,,survey-text,45,687717,0.0-13.0-3.3,93700,List1A,black,man,,,,,"{""Q0"":""mike is playing with kate""}","<img src=""stim_listA/play1.gif""style=""height:400px;""></stim_listA>",is playing with,
null,"<div style=""font-size:60px;"">+</div>",,html-keyboard-response,46,688222,0.0-13.0-0.4,93700,List1A,black,man,,,,null,,,,
null,"<img src=""stim_listA/kiss6.gif""style=""height:400px;""></stim_listA>",,html-keyboard-response,47,690230,0.0-13.0-1.4,93700,List1A,black,man,,,,null,,,,
null,are kissing each other,,html-keyboard-response,48,692248,0.0-13.0-2.4,93700,List1A,black,man,,,,null,,,,
21571,,,survey-text,49,713823,0.0-13.0-3.4,93700,List1A,black,man,,,,,"{""Q0"":""fred and mike is kissing each other""}","<img src=""stim_listA/kiss6.gif""style=""height:400px;""></stim_listA>",are kissing each other,
null,"<div style=""font-size:60px;"">+</div>",,html-keyboard-response,50,714344,0.0-13.0-0.5,93700,List1A,black,man,,,,null,,,,
null,"<img src=""stim_listA/dance5.gif""style=""height:400px;""></stim_listA>",,html-keyboard-response,51,716354,0.0-13.0-1.5,93700,List1A,black,man,,,,null,,,,
null,is dancing with,,html-keyboard-response,52,718368,0.0-13.0-2.5,93700,List1A,black,man,,,,null,,,,
25529,,,survey-text,53,743900,0.0-13.0-3.5,93700,List1A,black,man,,,,,"{""Q0"":""fred and dave are dancing with each other""}","<img src=""stim_listA/dance5.gif""style=""height:400px;""></stim_listA>",is dancing with,
null,"<div style=""font-size:60px;"">+</div>",,html-keyboard-response,54,744408,0.0-13.0-0.6,93700,List1A,black,man,,,,null,,,,
null,"<img src=""stim_listA/kiss2.gif""style=""height:400px;""></stim_listA>",,html-keyboard-response,55,746417,0.0-13.0-1.6,93700,List1A,black,man,,,,null,,,,
null,are kissing each other,,html-keyboard-response,56,748426,0.0-13.0-2.6,93700,List1A,black,man,,,,null,,,,
22702,,,survey-text,57,771130,0.0-13.0-3.6,93700,List1A,black,man,,,,,"{""Q0"":""mike and kate are kissing each other""}","<img src=""stim_listA/kiss2.gif""style=""height:400px;""></stim_listA>",are kissing each other,
null,"<div style=""font-size:60px;"">+</div>",,html-keyboard-response,58,771646,0.0-13.0-0.7,93700,List1A,black,man,,,,null,,,,
null,"<img src=""stim_listA/touch7.gif""style=""height:400px;""></stim_listA>",,html-keyboard-response,59,773651,0.0-13.0-1.7,93700,List1A,black,man,,,,null,,,,
null,is touching,,html-keyboard-response,60,775661,0.0-13.0-2.7,93700,List1A,black,man,,,,null,,,,
19086,,,survey-text,61,794752,0.0-13.0-3.7,93700,List1A,black,man,,,,,"{""Q0"":""jane and kate is touching each other""}","<img src=""stim_listA/touch7.gif""style=""height:400px;""></stim_listA>",is touching,
null,"<div style=""font-size:60px;"">+</div>",,html-keyboard-response,62,795267,0.0-13.0-0.8,93700,List1A,black,man,,,,null,,,,
null,"<img src=""stim_listA/kiss4.gif""style=""height:400px;""></stim_listA>",,html-keyboard-response,63,797271,0.0-13.0-1.8,93700,List1A,black,man,,,,null,,,,
null,are kissing each other,,html-keyboard-response,64,799292,0.0-13.0-2.8,93700,List1A,black,man,,,,null,,,,
22859,,,survey-text,65,822155,0.0-13.0-3.8,93700,List1A,black,man,,,,,"{""Q0"":""dave and jane are kissing each other""}","<img src=""stim_listA/kiss4.gif""style=""height:400px;""></stim_listA>",are kissing each other,
null,"<div style=""font-size:60px;"">+</div>",,html-keyboard-response,66,822678,0.0-13.0-0.9,93700,List1A,black,man,,,,null,,,,
null,"<img src=""stim_listA/dance7.gif""style=""height:400px;""></stim_listA>",,html-keyboard-response,67,824683,0.0-13.0-1.9,93700,List1A,black,man,,,,null,,,,
null,is dancing with,,html-keyboard-response,68,826694,0.0-13.0-2.9,93700,List1A,black,man,,,,null,,,,
19806,,,survey-text,69,846502,0.0-13.0-3.9,93700,List1A,black,man,,,,,"{""Q0"":""kate is dancing with beth""}","<img src=""stim_listA/dance7.gif""style=""height:400px;""></stim_listA>",is dancing with,
null,"<div style=""font-size:60px;"">+</div>",,html-keyboard-response,70,847016,0.0-13.0-0.10,93700,List1A,black,man,,,,null,,,,
null,"<img src=""stim_listA/marry2.gif""style=""height:400px;""></stim_listA>",,html-keyboard-response,71,849027,0.0-13.0-1.10,93700,List1A,black,man,,,,null,,,,
null,are marrying each other,,html-keyboard-response,72,851033,0.0-13.0-2.10,93700,List1A,black,man,,,,null,,,,
24612,,,survey-text,73,875648,0.0-13.0-3.10,93700,List1A,black,man,,,,,"{""Q0"":""fred and jane are marrying each other""}","<img src=""stim_listA/marry2.gif""style=""height:400px;""></stim_listA>",are marrying each other,
null,"<div style=""font-size:60px;"">+</div>",,html-keyboard-response,74,876158,0.0-13.0-0.11,93700,List1A,black,man,,,,null,,,,
null,"<img src=""stim_listA/fight1.gif""style=""height:400px;""></stim_listA>",,html-keyboard-response,75,878169,0.0-13.0-1.11,93700,List1A,black,man,,,,null,,,,
null,is fighting,,html-keyboard-response,76,880178,0.0-13.0-2.11,93700,List1A,black,man,,,,null,,,,
23280,,,survey-text,77,903462,0.0-13.0-3.11,93700,List1A,black,man,,,,,"{""Q0"":""mike and kate are fighting each other""}","<img src=""stim_listA/fight1.gif""style=""height:400px;""></stim_listA>",is fighting,
null,"<div style=""font-size:60px;"">+</div>",,html-keyboard-response,78,903978,0.0-13.0-0.12,93700,List1A,black,man,,,,null,,,,
null,"<img src=""stim_listA/fight4.gif""style=""height:400px;""></stim_listA>",,html-keyboard-response,79,905985,0.0-13.0-1.12,93700,List1A,black,man,,,,null,,,,
null,are fighting each other,,html-keyboard-response,80,908000,0.0-13.0-2.12,93700,List1A,black,man,,,,null,,,,
31569,,,survey-text,81,939571,0.0-13.0-3.12,93700,List1A,black,man,,,,,"{""Q0"":""jane and luke are fighting each other""}","<img src=""stim_listA/fight4.gif""style=""height:400px;""></stim_listA>",are fighting each other,
null,"<div style=""font-size:60px;"">+</div>",,html-keyboard-response,82,940086,0.0-13.0-0.13,93700,List1A,black,man,,,,null,,,,
null,"<img src=""stim_listA/marry5.gif""style=""height:400px;""></stim_listA>",,html-keyboard-response,83,942094,0.0-13.0-1.13,93700,List1A,black,man,,,,null,,,,
null,is marrying,,html-keyboard-response,84,944097,0.0-13.0-2.13,93700,List1A,black,man,,,,null,,,,
23850,,,survey-text,85,967949,0.0-13.0-3.13,93700,List1A,black,man,,,,,"{""Q0"":""mike and luke are marrying each other""}","<img src=""stim_listA/marry5.gif""style=""height:400px;""></stim_listA>",is marrying,
null,"<div style=""font-size:60px;"">+</div>",,html-keyboard-response,86,968457,0.0-13.0-0.14,93700,List1A,black,man,,,,null,,,,
null,"<img src=""stim_listA/shout4.gif""style=""height:400px;""></stim_listA>",,html-keyboard-response,87,970480,0.0-13.0-1.14,93700,List1A,black,man,,,,null,,,,
null,are shouting at each other,,html-keyboard-response,88,972488,0.0-13.0-2.14,93700,List1A,black,man,,,,null,,,,
22923,,,survey-text,89,995414,0.0-13.0-3.14,93700,List1A,black,man,,,,,"{""Q0"":""jane and dave are shouting at each other""}","<img src=""stim_listA/shout4.gif""style=""height:400px;""></stim_listA>",are shouting at each other,
null,"<div style=""font-size:60px;"">+</div>",,html-keyboard-response,90,995924,0.0-13.0-0.15,93700,List1A,black,man,,,,null,,,,
null,"<img src=""stim_listA/play8.gif""style=""height:400px;""></stim_listA>",,html-keyboard-response,91,997930,0.0-13.0-1.15,93700,List1A,black,man,,,,null,,,,
null,are playing with each other,,html-keyboard-response,92,999943,0.0-13.0-2.15,93700,List1A,black,man,,,,null,,,,
36014,,,survey-text,93,1035962,0.0-13.0-3.15,93700,List1A,black,man,,,,,"{""Q0"":""jane and beth are playing with each other""}","<img src=""stim_listA/play8.gif""style=""height:400px;""></stim_listA>",are playing with each other,
null,"<div style=""font-size:60px;"">+</div>",,html-keyboard-response,94,1036472,0.0-13.0-0.16,93700,List1A,black,man,,,,null,,,,
null,"<img src=""stim_listA/fight7.gif""style=""height:400px;""></stim_listA>",,html-keyboard-response,95,1038492,0.0-13.0-1.16,93700,List1A,black,man,,,,null,,,,
null,is fighting,,html-keyboard-response,96,1040500,0.0-13.0-2.16,93700,List1A,black,man,,,,null,,,,
13575,,,survey-text,97,1054081,0.0-13.0-3.16,93700,List1A,black,man,,,,,"{""Q0"":""kate and jane is fighting""}","<img src=""stim_listA/fight7.gif""style=""height:400px;""></stim_listA>",is fighting,
null,"<div style=""font-size:60px;"">+</div>",,html-keyboard-response,98,1054591,0.0-13.0-0.17,93700,List1A,black,man,,,,null,,,,
null,"<img src=""stim_listA/flirt6.gif""style=""height:400px;""></stim_listA>",,html-keyboard-response,99,1056600,0.0-13.0-1.17,93700,List1A,black,man,,,,null,,,,
null,are flirting with each other,,html-keyboard-response,100,1058603,0.0-13.0-2.17,93700,List1A,black,man,,,,null,,,,
24459,,,survey-text,101,1083066,0.0-13.0-3.17,93700,List1A,black,man,,,,,"{""Q0"":""luke and mike are flirting with each other""}","<img src=""stim_listA/flirt6.gif""style=""height:400px;""></stim_listA>",are flirting with each other,
null,"<div style=""font-size:60px;"">+</div>",,html-keyboard-response,102,1083580,0.0-13.0-0.18,93700,List1A,black,man,,,,null,,,,
null,"<img src=""stim_listA/argue6.gif""style=""height:400px;""></stim_listA>",,html-keyboard-response,103,1085592,0.0-13.0-1.18,93700,List1A,black,man,,,,null,,,,
null,are arguing with each other,,html-keyboard-response,104,1087598,0.0-13.0-2.18,93700,List1A,black,man,,,,null,,,,
20996,,,survey-text,105,1108597,0.0-13.0-3.18,93700,List1A,black,man,,,,,"{""Q0"":""fred and dave are arguing with each other""}","<img src=""stim_listA/argue6.gif""style=""height:400px;""></stim_listA>",are arguing with each other,
null,"<div style=""font-size:60px;"">+</div>",,html-keyboard-response,106,1109109,0.0-13.0-0.19,93700,List1A,black,man,,,,null,,,,
null,"<img src=""stim_listA/argue1.gif""style=""height:400px;""></stim_listA>",,html-keyboard-response,107,1111120,0.0-13.0-1.19,93700,List1A,black,man,,,,null,,,,
null,is arguing with,,html-keyboard-response,108,1113132,0.0-13.0-2.19,93700,List1A,black,man,,,,null,,,,
29980,,,survey-text,109,1143116,0.0-13.0-3.19,93700,List1A,black,man,,,,,"{""Q0"":""mike is arguing with beth""}","<img src=""stim_listA/argue1.gif""style=""height:400px;""></stim_listA>",is arguing with,
51319,"<img src='img/portrait_matrix_list1.jpg' style='width:900px;height:500px;''></img><p>If you have memorised all the portraits and names and are ready to start, press Continue.</p><p><strong>Please note: Your memory of these faces will be tested 4 times during this experiment.</strong></p>",0,html-button-response,110,1194439,0.0-14.0-0.0,93700,List1A,black,man,,,,,,,,
6425,"<img src=""portrait/WM1.jpg""style=""height:400px;""></img>",6,html-button-response,111,1201873,0.0-14.0-1.0,93700,List1A,black,man,,TRUE,6,,,,,
null,CORRECT,,html-keyboard-response,112,1203402,0.0-14.0-2.0-0.0,93700,List1A,black,man,,,,null,,,,
2341,"<img src=""portrait/BM2.jpg""style=""height:400px;""></img>",5,html-button-response,113,1205749,0.0-14.0-4.0,93700,List1A,black,man,,TRUE,5,,,,,
null,CORRECT,,html-keyboard-response,114,1207280,0.0-14.0-5.0-0.0,93700,List1A,black,man,,,,null,,,,
20017,"<img src=""portrait/BW1.jpg""style=""height:400px;""></img>",2,html-button-response,115,1227302,0.0-14.0-7.0,93700,List1A,black,man,,TRUE,0,,,,,
10873,"<img src=""portrait/BW1.jpg""style=""height:400px;""></img>",0,html-button-response,116,1239184,0.0-14.0-9.0-0.0,93700,List1A,black,man,,FALSE,0,,,,,
null,CORRECT,,html-keyboard-response,117,1240722,0.0-14.0-9.0-1.0-0.0,93700,List1A,black,man,,,,null,,,,
4806,"<img src=""portrait/BW2.jpg""style=""height:400px;""></img>",3,html-button-response,118,1245531,0.0-14.0-10.0,93700,List1A,black,man,,TRUE,2,,,,,
3406,"<img src=""portrait/BW2.jpg""style=""height:400px;""></img>",2,html-button-response,119,1249950,0.0-14.0-12.0-0.0,93700,List1A,black,man,,FALSE,2,,,,,
null,CORRECT,,html-keyboard-response,120,1251483,0.0-14.0-12.0-1.0-0.0,93700,List1A,black,man,,,,null,,,,
5959,"<img src=""portrait/WW2.jpg""style=""height:400px;""></img>",3,html-button-response,121,1257446,0.0-14.0-13.0,93700,List1A,black,man,,TRUE,3,,,,,
null,CORRECT,,html-keyboard-response,122,1258970,0.0-14.0-14.0-0.0,93700,List1A,black,man,,,,null,,,,
2208,"<img src=""portrait/BM1.jpg""style=""height:400px;""></img>",4,html-button-response,123,1261182,0.0-14.0-16.0,93700,List1A,black,man,,TRUE,4,,,,,
null,CORRECT,,html-keyboard-response,124,1262694,0.0-14.0-17.0-0.0,93700,List1A,black,man,,,,null,,,,
6708,"<img src=""portrait/WW1.jpg""style=""height:400px;""></img>",1,html-button-response,125,1269406,0.0-14.0-19.0,93700,List1A,black,man,,TRUE,1,,,,,
null,CORRECT,,html-keyboard-response,126,1270910,0.0-14.0-20.0-0.0,93700,List1A,black,man,,,,null,,,,
4277,"<img src=""portrait/WM2.jpg""style=""height:400px;""></img>",7,html-button-response,127,1275192,0.0-14.0-22.0,93700,List1A,black,man,,TRUE,7,,,,,
null,CORRECT,,html-keyboard-response,128,1276699,0.0-14.0-23.0-0.0,93700,List1A,black,man,,,,null,,,,
3070,<p>You got 6 out of 8 right first time. Press Continue.</p>,0,html-button-response,129,1279771,0.0-14.0-25.0,93700,List1A,black,man,,,,,,,,
3393,"As you did not score 100%, the memory game will repeat. Press Continue.",0,html-button-response,130,1284172,0.0-14.0-26.0-0.0,93700,List1A,black,man,,,,,,,,
4233,"<img src='img/portrait_matrix_list1.jpg' style='width:900px;height:500px;''></img><p>If you have memorised all the portraits and names and are ready to start, press Continue.</p><p><strong>Please note: Your memory of these faces will be tested 4 times during this experiment.</strong></p>",0,html-button-response,131,1289417,0.0-14.1-0.1,93700,List1A,black,man,,,,,,,,
2557,"<img src=""portrait/WM1.jpg""style=""height:400px;""></img>",7,html-button-response,132,1292985,0.0-14.1-1.1,93700,List1A,black,man,,TRUE,6,,,,,
3881,"<img src=""portrait/WM1.jpg""style=""height:400px;""></img>",6,html-button-response,133,1297877,0.0-14.1-3.1-0.1,93700,List1A,black,man,,FALSE,6,,,,,
null,CORRECT,,html-keyboard-response,134,1299394,0.0-14.1-3.1-1.1-0.1,93700,List1A,black,man,,,,null,,,,
2011,"<img src=""portrait/BM2.jpg""style=""height:400px;""></img>",5,html-button-response,135,1301413,0.0-14.1-4.1,93700,List1A,black,man,,TRUE,5,,,,,
null,CORRECT,,html-keyboard-response,136,1302919,0.0-14.1-5.1-0.1,93700,List1A,black,man,,,,null,,,,
4338,"<img src=""portrait/BW1.jpg""style=""height:400px;""></img>",0,html-button-response,137,1307264,0.0-14.1-7.1,93700,List1A,black,man,,TRUE,0,,,,,
null,CORRECT,,html-keyboard-response,138,1308773,0.0-14.1-8.1-0.1,93700,List1A,black,man,,,,null,,,,
4168,"<img src=""portrait/BW2.jpg""style=""height:400px;""></img>",2,html-button-response,139,1312947,0.0-14.1-10.1,93700,List1A,black,man,,TRUE,2,,,,,
null,CORRECT,,html-keyboard-response,140,1314463,0.0-14.1-11.1-0.1,93700,List1A,black,man,,,,null,,,,
3256,"<img src=""portrait/WW2.jpg""style=""height:400px;""></img>",3,html-button-response,141,1317723,0.0-14.1-13.1,93700,List1A,black,man,,TRUE,3,,,,,
null,CORRECT,,html-keyboard-response,142,1319231,0.0-14.1-14.1-0.1,93700,List1A,black,man,,,,null,,,,
2176,"<img src=""portrait/BM1.jpg""style=""height:400px;""></img>",4,html-button-response,143,1321411,0.0-14.1-16.1,93700,List1A,black,man,,TRUE,4,,,,,
null,CORRECT,,html-keyboard-response,144,1322926,0.0-14.1-17.1-0.1,93700,List1A,black,man,,,,null,,,,
8718,"<img src=""portrait/WW1.jpg""style=""height:400px;""></img>",1,html-button-response,145,1331648,0.0-14.1-19.1,93700,List1A,black,man,,TRUE,1,,,,,
null,CORRECT,,html-keyboard-response,146,1333172,0.0-14.1-20.1-0.1,93700,List1A,black,man,,,,null,,,,
2165,"<img src=""portrait/WM2.jpg""style=""height:400px;""></img>",7,html-button-response,147,1335346,0.0-14.1-22.1,93700,List1A,black,man,,TRUE,7,,,,,
null,CORRECT,,html-keyboard-response,148,1336867,0.0-14.1-23.1-0.1,93700,List1A,black,man,,,,null,,,,
2146,<p>You got 7 out of 8 right first time. Press Continue.</p>,0,html-button-response,149,1339017,0.0-14.1-25.1,93700,List1A,black,man,,,,,,,,
1462,"As you did not score 100%, the memory game will repeat. Press Continue.",0,html-button-response,150,1341486,0.0-14.1-26.1-0.1,93700,List1A,black,man,,,,,,,,
3756,"<img src='img/portrait_matrix_list1.jpg' style='width:900px;height:500px;''></img><p>If you have memorised all the portraits and names and are ready to start, press Continue.</p><p><strong>Please note: Your memory of these faces will be tested 4 times during this experiment.</strong></p>",0,html-button-response,151,1346253,0.0-14.2-0.2,93700,List1A,black,man,,,,,,,,
7262,"<img src=""portrait/WM1.jpg""style=""height:400px;""></img>",6,html-button-response,152,1354547,0.0-14.2-1.2,93700,List1A,black,man,,TRUE,6,,,,,
null,CORRECT,,html-keyboard-response,153,1356071,0.0-14.2-2.2-0.2,93700,List1A,black,man,,,,null,,,,
1881,"<img src=""portrait/BM2.jpg""style=""height:400px;""></img>",5,html-button-response,154,1357955,0.0-14.2-4.2,93700,List1A,black,man,,TRUE,5,,,,,
null,CORRECT,,html-keyboard-response,155,1359480,0.0-14.2-5.2-0.2,93700,List1A,black,man,,,,null,,,,
5382,"<img src=""portrait/BW1.jpg""style=""height:400px;""></img>",0,html-button-response,156,1364870,0.0-14.2-7.2,93700,List1A,black,man,,TRUE,0,,,,,
null,CORRECT,,html-keyboard-response,157,1366395,0.0-14.2-8.2-0.2,93700,List1A,black,man,,,,null,,,,
4427,"<img src=""portrait/BW2.jpg""style=""height:400px;""></img>",2,html-button-response,158,1370835,0.0-14.2-10.2,93700,List1A,black,man,,TRUE,2,,,,,
null,CORRECT,,html-keyboard-response,159,1372357,0.0-14.2-11.2-0.2,93700,List1A,black,man,,,,null,,,,
3038,"<img src=""portrait/WW2.jpg""style=""height:400px;""></img>",3,html-button-response,160,1375404,0.0-14.2-13.2,93700,List1A,black,man,,TRUE,3,,,,,
null,CORRECT,,html-keyboard-response,161,1376926,0.0-14.2-14.2-0.2,93700,List1A,black,man,,,,null,,,,
2415,"<img src=""portrait/BM1.jpg""style=""height:400px;""></img>",4,html-button-response,162,1379354,0.0-14.2-16.2,93700,List1A,black,man,,TRUE,4,,,,,
null,CORRECT,,html-keyboard-response,163,1380860,0.0-14.2-17.2-0.2,93700,List1A,black,man,,,,null,,,,
6514,"<img src=""portrait/WW1.jpg""style=""height:400px;""></img>",1,html-button-response,164,1387378,0.0-14.2-19.2,93700,List1A,black,man,,TRUE,1,,,,,
null,CORRECT,,html-keyboard-response,165,1388889,0.0-14.2-20.2-0.2,93700,List1A,black,man,,,,null,,,,
2785,"<img src=""portrait/WM2.jpg""style=""height:400px;""></img>",7,html-button-response,166,1391687,0.0-14.2-22.2,93700,List1A,black,man,,TRUE,7,,,,,
null,CORRECT,,html-keyboard-response,167,1393207,0.0-14.2-23.2-0.2,93700,List1A,black,man,,,,null,,,,
2259,<p>You got 8 out of 8 right first time. Press Continue.</p>,0,html-button-response,168,1395470,0.0-14.2-25.2,93700,List1A,black,man,,,,,,,,
null,"<div style=""font-size:60px;"">+</div>",,html-keyboard-response,169,1397001,0.0-15.0-0.0,93700,List1A,black,man,,,,null,,,,
null,"<img src=""stim_listA/fight8.gif""style=""height:400px;""></stim_listA>",,html-keyboard-response,170,1399014,0.0-15.0-1.0,93700,List1A,black,man,,,,null,,,,
null,are fighting each other,,html-keyboard-response,171,1401038,0.0-15.0-2.0,93700,List1A,black,man,,,,null,,,,
20258,,,survey-text,172,1421299,0.0-15.0-3.0,93700,List1A,black,man,,,,,"{""Q0"":""beth and ruth are fighting each other""}","<img src=""stim_listA/fight8.gif""style=""height:400px;""></stim_listA>",are fighting each other,
null,"<div style=""font-size:60px;"">+</div>",,html-keyboard-response,173,1421804,0.0-15.0-0.1,93700,List1A,black,man,,,,null,,,,
null,"<img src=""stim_listA/talk7.gif""style=""height:400px;""></stim_listA>",,html-keyboard-response,174,1423812,0.0-15.0-1.1,93700,List1A,black,man,,,,null,,,,
null,is talking to,,html-keyboard-response,175,1425835,0.0-15.0-2.1,93700,List1A,black,man,,,,null,,,,
26655,,,survey-text,176,1452493,0.0-15.0-3.1,93700,List1A,black,man,,,,,"{""Q0"":""beth and jane are talking with each other""}","<img src=""stim_listA/talk7.gif""style=""height:400px;""></stim_listA>",is talking to,
null,"<div style=""font-size:60px;"">+</div>",,html-keyboard-response,177,1453018,0.0-15.0-0.2,93700,List1A,black,man,,,,null,,,,
null,"<img src=""stim_listA/argue2.gif""style=""height:400px;""></stim_listA>",,html-keyboard-response,178,1455024,0.0-15.0-1.2,93700,List1A,black,man,,,,null,,,,
null,are arguing with each other,,html-keyboard-response,179,1457026,0.0-15.0-2.2,93700,List1A,black,man,,,,null,,,,
29393,,,survey-text,180,1486423,0.0-15.0-3.2,93700,List1A,black,man,,,,,"{""Q0"":""fred and kate are arguing with each other""}","<img src=""stim_listA/argue2.gif""style=""height:400px;""></stim_listA>",are arguing with each other,
null,"<div style=""font-size:60px;"">+</div>",,html-keyboard-response,181,1486934,0.0-15.0-0.3,93700,List1A,black,man,,,,null,,,,
null,"<img src=""stim_listA/flirt5.gif""style=""height:400px;""></stim_listA>",,html-keyboard-response,182,1488941,0.0-15.0-1.3,93700,List1A,black,man,,,,null,,,,
null,is flirting with,,html-keyboard-response,183,1490958,0.0-15.0-2.3,93700,List1A,black,man,,,,null,,,,
16939,,,survey-text,184,1507899,0.0-15.0-3.3,93700,List1A,black,man,,,,,"{""Q0"":""dave is flirting with fred""}","<img src=""stim_listA/flirt5.gif""style=""height:400px;""></stim_listA>",is flirting with,
null,"<div style=""font-size:60px;"">+</div>",,html-keyboard-response,185,1508406,0.0-15.0-0.4,93700,List1A,black,man,,,,null,,,,
null,"<img src=""stim_listA/flirt3.gif""style=""height:400px;""></stim_listA>",,html-keyboard-response,186,1510414,0.0-15.0-1.4,93700,List1A,black,man,,,,null,,,,
null,is flirting with,,html-keyboard-response,187,1512425,0.0-15.0-2.4,93700,List1A,black,man,,,,null,,,,
19205,,,survey-text,188,1531633,0.0-15.0-3.4,93700,List1A,black,man,,,,,"{""Q0"":""luke is flirting with jane""}","<img src=""stim_listA/flirt3.gif""style=""height:400px;""></stim_listA>",is flirting with,
null,"<div style=""font-size:60px;"">+</div>",,html-keyboard-response,189,1532153,0.0-15.0-0.5,93700,List1A,black,man,,,,null,,,,
null,"<img src=""stim_listA/fight3.gif""style=""height:400px;""></stim_listA>",,html-keyboard-response,190,1534167,0.0-15.0-1.5,93700,List1A,black,man,,,,null,,,,
null,is fighting,,html-keyboard-response,191,1536173,0.0-15.0-2.5,93700,List1A,black,man,,,,null,,,,
25129,,,survey-text,192,1561306,0.0-15.0-3.5,93700,List1A,black,man,,,,,"{""Q0"":""dave is fighting jane""}","<img src=""stim_listA/fight3.gif""style=""height:400px;""></stim_listA>",is fighting,
null,"<div style=""font-size:60px;"">+</div>",,html-keyboard-response,193,1561814,0.0-15.0-0.6,93700,List1A,black,man,,,,null,,,,
null,"<img src=""stim_listA/touch4.gif""style=""height:400px;""></stim_listA>",,html-keyboard-response,194,1563823,0.0-15.0-1.6,93700,List1A,black,man,,,,null,,,,
null,are touching each other,,html-keyboard-response,195,1565825,0.0-15.0-2.6,93700,List1A,black,man,,,,null,,,,
18966,,,survey-text,196,1584796,0.0-15.0-3.6,93700,List1A,black,man,,,,,"{""Q0"":""luke and ruth are touching each other""}","<img src=""stim_listA/touch4.gif""style=""height:400px;""></stim_listA>",are touching each other,
null,"<div style=""font-size:60px;"">+</div>",,html-keyboard-response,197,1585307,0.0-15.0-0.7,93700,List1A,black,man,,,,null,,,,
null,"<img src=""stim_listA/argue8.gif""style=""height:400px;""></stim_listA>",,html-keyboard-response,198,1587317,0.0-15.0-1.7,93700,List1A,black,man,,,,null,,,,
null,are arguing with each other,,html-keyboard-response,199,1589322,0.0-15.0-2.7,93700,List1A,black,man,,,,null,,,,
27476,,,survey-text,200,1616802,0.0-15.0-3.7,93700,List1A,black,man,,,,,"{""Q0"":""jane and beth are arguing with each other""}","<img src=""stim_listA/argue8.gif""style=""height:400px;""></stim_listA>",are arguing with each other,
null,"<div style=""font-size:60px;"">+</div>",,html-keyboard-response,201,1617310,0.0-15.0-0.8,93700,List1A,black,man,,,,null,,,,
null,"<img src=""stim_listA/fight5.gif""style=""height:400px;""></stim_listA>",,html-keyboard-response,202,1619320,0.0-15.0-1.8,93700,List1A,black,man,,,,null,,,,
null,is fighting,,html-keyboard-response,203,1621345,0.0-15.0-2.8,93700,List1A,black,man,,,,null,,,,
10781,,,survey-text,204,1632130,0.0-15.0-3.8,93700,List1A,black,man,,,,,"{""Q0"":""dave is fighting mike""}","<img src=""stim_listA/fight5.gif""style=""height:400px;""></stim_listA>",is fighting,
null,"<div style=""font-size:60px;"">+</div>",,html-keyboard-response,205,1632634,0.0-15.0-0.9,93700,List1A,black,man,,,,null,,,,
null,"<img src=""stim_listA/touch1.gif""style=""height:400px;""></stim_listA>",,html-keyboard-response,206,1634641,0.0-15.0-1.9,93700,List1A,black,man,,,,null,,,,
null,is touching,,html-keyboard-response,207,1636644,0.0-15.0-2.9,93700,List1A,black,man,,,,null,,,,
15267,,,survey-text,208,1651914,0.0-15.0-3.9,93700,List1A,black,man,,,,,"{""Q0"":""mike is touching kate""}","<img src=""stim_listA/touch1.gif""style=""height:400px;""></stim_listA>",is touching,
null,"<div style=""font-size:60px;"">+</div>",,html-keyboard-response,209,1652427,0.0-15.0-0.10,93700,List1A,black,man,,,,null,,,,
null,"<img src=""stim_listA/marry3.gif""style=""height:400px;""></stim_listA>",,html-keyboard-response,210,1654438,0.0-15.0-1.10,93700,List1A,black,man,,,,null,,,,
null,is marrying,,html-keyboard-response,211,1656449,0.0-15.0-2.10,93700,List1A,black,man,,,,null,,,,
13978,,,survey-text,212,1670431,0.0-15.0-3.10,93700,List1A,black,man,,,,,"{""Q0"":""dave and ruth is marrying""}","<img src=""stim_listA/marry3.gif""style=""height:400px;""></stim_listA>",is marrying,
null,"<div style=""font-size:60px;"">+</div>",,html-keyboard-response,213,1670949,0.0-15.0-0.11,93700,List1A,black,man,,,,null,,,,
null,"<img src=""stim_listA/dance2.gif""style=""height:400px;""></stim_listA>",,html-keyboard-response,214,1672967,0.0-15.0-1.11,93700,List1A,black,man,,,,null,,,,
null,are dancing with each other,,html-keyboard-response,215,1674969,0.0-15.0-2.11,93700,List1A,black,man,,,,null,,,,
27116,,,survey-text,216,1702088,0.0-15.0-3.11,93700,List1A,black,man,,,,,"{""Q0"":""mike and beth are dancing with each other""}","<img src=""stim_listA/dance2.gif""style=""height:400px;""></stim_listA>",are dancing with each other,
null,"<div style=""font-size:60px;"">+</div>",,html-keyboard-response,217,1702604,0.0-15.0-0.12,93700,List1A,black,man,,,,null,,,,
null,"<img src=""stim_listA/touch8.gif""style=""height:400px;""></stim_listA>",,html-keyboard-response,218,1704611,0.0-15.0-1.12,93700,List1A,black,man,,,,null,,,,
null,are touching each other,,html-keyboard-response,219,1706614,0.0-15.0-2.12,93700,List1A,black,man,,,,null,,,,
25168,,,survey-text,220,1731785,0.0-15.0-3.12,93700,List1A,black,man,,,,,"{""Q0"":""ruth and beth are touching each other""}","<img src=""stim_listA/touch8.gif""style=""height:400px;""></stim_listA>",are touching each other,
null,"<div style=""font-size:60px;"">+</div>",,html-keyboard-response,221,1732292,0.0-15.0-0.13,93700,List1A,black,man,,,,null,,,,
null,"<img src=""stim_listA/flirt7.gif""style=""height:400px;""></stim_listA>",,html-keyboard-response,222,1734298,0.0-15.0-1.13,93700,List1A,black,man,,,,null,,,,
null,is flirting with,,html-keyboard-response,223,1736300,0.0-15.0-2.13,93700,List1A,black,man,,,,null,,,,
21364,,,survey-text,224,1757668,0.0-15.0-3.13,93700,List1A,black,man,,,,,"{""Q0"":""beth is flirting with jane""}","<img src=""stim_listA/flirt7.gif""style=""height:400px;""></stim_listA>",is flirting with,
null,"<div style=""font-size:60px;"">+</div>",,html-keyboard-response,225,1758189,0.0-15.0-0.14,93700,List1A,black,man,,,,null,,,,
null,"<img src=""stim_listA/play3.gif""style=""height:400px;""></stim_listA>",,html-keyboard-response,226,1760200,0.0-15.0-1.14,93700,List1A,black,man,,,,null,,,,
null,is playing with,,html-keyboard-response,227,1762224,0.0-15.0-2.14,93700,List1A,black,man,,,,null,,,,
14520,,,survey-text,228,1776747,0.0-15.0-3.14,93700,List1A,black,man,,,,,"{""Q0"":""dave is playing with jane""}","<img src=""stim_listA/play3.gif""style=""height:400px;""></stim_listA>",is playing with,
null,"<div style=""font-size:60px;"">+</div>",,html-keyboard-response,229,1777263,0.0-15.0-0.15,93700,List1A,black,man,,,,null,,,,
null,"<img src=""stim_listA/touch3.gif""style=""height:400px;""></stim_listA>",,html-keyboard-response,230,1779268,0.0-15.0-1.15,93700,List1A,black,man,,,,null,,,,
null,is touching,,html-keyboard-response,231,1781272,0.0-15.0-2.15,93700,List1A,black,man,,,,null,,,,
14200,,,survey-text,232,1795480,0.0-15.0-3.15,93700,List1A,black,man,,,,,"{""Q0"":""dave is touching jane""}","<img src=""stim_listA/touch3.gif""style=""height:400px;""></stim_listA>",is touching,
null,"<div style=""font-size:60px;"">+</div>",,html-keyboard-response,233,1795999,0.0-15.0-0.16,93700,List1A,black,man,,,,null,,,,
null,"<img src=""stim_listA/dance4.gif""style=""height:400px;""></stim_listA>",,html-keyboard-response,234,1798005,0.0-15.0-1.16,93700,List1A,black,man,,,,null,,,,
null,are dancing with each other,,html-keyboard-response,235,1800020,0.0-15.0-2.16,93700,List1A,black,man,,,,null,,,,
18948,,,survey-text,236,1818974,0.0-15.0-3.16,93700,List1A,black,man,,,,,"{""Q0"":""ruth and dave are dancing with each other""}","<img src=""stim_listA/dance4.gif""style=""height:400px;""></stim_listA>",are dancing with each other,
null,"<div style=""font-size:60px;"">+</div>",,html-keyboard-response,237,1819480,0.0-15.0-0.17,93700,List1A,black,man,,,,null,,,,
null,"<img src=""stim_listA/play4.gif""style=""height:400px;""></stim_listA>",,html-keyboard-response,238,1821490,0.0-15.0-1.17,93700,List1A,black,man,,,,null,,,,
null,are playing with each other,,html-keyboard-response,239,1823505,0.0-15.0-2.17,93700,List1A,black,man,,,,null,,,,
21430,,,survey-text,240,1844941,0.0-15.0-3.17,93700,List1A,black,man,,,,,"{""Q0"":""luke and ruth are playing with each other""}","<img src=""stim_listA/play4.gif""style=""height:400px;""></stim_listA>",are playing with each other,
null,"<div style=""font-size:60px;"">+</div>",,html-keyboard-response,241,1845456,0.0-15.0-0.18,93700,List1A,black,man,,,,null,,,,
null,"<img src=""stim_listA/marry8.gif""style=""height:400px;""></stim_listA>",,html-keyboard-response,242,1847466,0.0-15.0-1.18,93700,List1A,black,man,,,,null,,,,
null,are marrying each other,,html-keyboard-response,243,1849484,0.0-15.0-2.18,93700,List1A,black,man,,,,null,,,,
22140,,,survey-text,244,1871628,0.0-15.0-3.18,93700,List1A,black,man,,,,,"{""Q0"":""jane and beth are marrying each other""}","<img src=""stim_listA/marry8.gif""style=""height:400px;""></stim_listA>",are marrying each other,
null,"<div style=""font-size:60px;"">+</div>",,html-keyboard-response,245,1872136,0.0-15.0-0.19,93700,List1A,black,man,,,,null,,,,
null,"<img src=""stim_listA/play5.gif""style=""height:400px;""></stim_listA>",,html-keyboard-response,246,1874144,0.0-15.0-1.19,93700,List1A,black,man,,,,null,,,,
null,is playing with,,html-keyboard-response,247,1876158,0.0-15.0-2.19,93700,List1A,black,man,,,,null,,,,
16473,,,survey-text,248,1892633,0.0-15.0-3.19,93700,List1A,black,man,,,,,"{""Q0"":""mike is playing with dave""}","<img src=""stim_listA/play5.gif""style=""height:400px;""></stim_listA>",is playing with,
9804,"<img src='img/portrait_matrix_list1.jpg' style='width:900px;height:500px;''></img><p>If you have memorised all the portraits and names and are ready to start, press Continue.</p><p><strong>Please note: Your memory of these faces will be tested 4 times during this experiment.</strong></p>",0,html-button-response,249,1902440,0.0-16.0-0.0,93700,List1A,black,man,,,,,,,,
4955,"<img src=""portrait/BW2.jpg""style=""height:400px;""></img>",2,html-button-response,250,1908414,0.0-16.0-1.0,93700,List1A,black,man,,TRUE,2,,,,,
null,CORRECT,,html-keyboard-response,251,1909946,0.0-16.0-2.0-0.0,93700,List1A,black,man,,,,null,,,,
1758,"<img src=""portrait/WW2.jpg""style=""height:400px;""></img>",3,html-button-response,252,1911709,0.0-16.0-4.0,93700,List1A,black,man,,TRUE,3,,,,,
null,CORRECT,,html-keyboard-response,253,1913236,0.0-16.0-5.0-0.0,93700,List1A,black,man,,,,null,,,,
4695,"<img src=""portrait/WM1.jpg""style=""height:400px;""></img>",6,html-button-response,254,1917937,0.0-16.0-7.0,93700,List1A,black,man,,TRUE,6,,,,,
null,CORRECT,,html-keyboard-response,255,1919467,0.0-16.0-8.0-0.0,93700,List1A,black,man,,,,null,,,,
6080,"<img src=""portrait/BM2.jpg""style=""height:400px;""></img>",5,html-button-response,256,1925550,0.0-16.0-10.0,93700,List1A,black,man,,TRUE,5,,,,,
null,CORRECT,,html-keyboard-response,257,1927072,0.0-16.0-11.0-0.0,93700,List1A,black,man,,,,null,,,,
4832,"<img src=""portrait/WM2.jpg""style=""height:400px;""></img>",7,html-button-response,258,1931908,0.0-16.0-13.0,93700,List1A,black,man,,TRUE,7,,,,,
null,CORRECT,,html-keyboard-response,259,1933438,0.0-16.0-14.0-0.0,93700,List1A,black,man,,,,null,,,,
5032,"<img src=""portrait/BM1.jpg""style=""height:400px;""></img>",4,html-button-response,260,1938474,0.0-16.0-16.0,93700,List1A,black,man,,TRUE,4,,,,,
null,CORRECT,,html-keyboard-response,261,1939996,0.0-16.0-17.0-0.0,93700,List1A,black,man,,,,null,,,,
5113,"<img src=""portrait/BW1.jpg""style=""height:400px;""></img>",0,html-button-response,262,1945113,0.0-16.0-19.0,93700,List1A,black,man,,TRUE,0,,,,,
null,CORRECT,,html-keyboard-response,263,1946631,0.0-16.0-20.0-0.0,93700,List1A,black,man,,,,null,,,,
4004,"<img src=""portrait/WW1.jpg""style=""height:400px;""></img>",1,html-button-response,264,1950642,0.0-16.0-22.0,93700,List1A,black,man,,TRUE,1,,,,,
null,CORRECT,,html-keyboard-response,265,1952156,0.0-16.0-23.0-0.0,93700,List1A,black,man,,,,null,,,,
55259,<p>You got 8 out of 8 right first time. Press Continue.</p>,0,html-button-response,266,2007420,0.0-16.0-25.0,93700,List1A,black,man,,,,,,,,
null,"<div style=""font-size:60px;"">+</div>",,html-keyboard-response,267,2008940,0.0-17.0-0.0,93700,List1A,black,man,,,,null,,,,
null,"<img src=""stim_listA/kiss8.gif""style=""height:400px;""></stim_listA>",,html-keyboard-response,268,2010951,0.0-17.0-1.0,93700,List1A,black,man,,,,null,,,,
null,are kissing each other,,html-keyboard-response,269,2012960,0.0-17.0-2.0,93700,List1A,black,man,,,,null,,,,
17304,,,survey-text,270,2030268,0.0-17.0-3.0,93700,List1A,black,man,,,,,"{""Q0"":""jane and kate are kissing""}","<img src=""stim_listA/kiss8.gif""style=""height:400px;""></stim_listA>",are kissing each other,
null,"<div style=""font-size:60px;"">+</div>",,html-keyboard-response,271,2030787,0.0-17.0-0.1,93700,List1A,black,man,,,,null,,,,
null,"<img src=""stim_listA/marry4.gif""style=""height:400px;""></stim_listA>",,html-keyboard-response,272,2032797,0.0-17.0-1.1,93700,List1A,black,man,,,,null,,,,
null,are marrying each other,,html-keyboard-response,273,2034802,0.0-17.0-2.1,93700,List1A,black,man,,,,null,,,,
21796,,,survey-text,274,2056603,0.0-17.0-3.1,93700,List1A,black,man,,,,,"{""Q0"":""luke and jane are marrying each other""}","<img src=""stim_listA/marry4.gif""style=""height:400px;""></stim_listA>",are marrying each other,
null,"<div style=""font-size:60px;"">+</div>",,html-keyboard-response,275,2057109,0.0-17.0-0.2,93700,List1A,black,man,,,,null,,,,
null,"<img src=""stim_listA/flirt8.gif""style=""height:400px;""></stim_listA>",,html-keyboard-response,276,2059119,0.0-17.0-1.2,93700,List1A,black,man,,,,null,,,,
null,are flirting with each other,,html-keyboard-response,277,2061123,0.0-17.0-2.2,93700,List1A,black,man,,,,null,,,,
22309,,,survey-text,278,2083434,0.0-17.0-3.2,93700,List1A,black,man,,,,,"{""Q0"":""ruth and kate are flirting with each other""}","<img src=""stim_listA/flirt8.gif""style=""height:400px;""></stim_listA>",are flirting with each other,
null,"<div style=""font-size:60px;"">+</div>",,html-keyboard-response,279,2083942,0.0-17.0-0.3,93700,List1A,black,man,,,,null,,,,
null,"<img src=""stim_listA/shout7.gif""style=""height:400px;""></stim_listA>",,html-keyboard-response,280,2085957,0.0-17.0-1.3,93700,List1A,black,man,,,,null,,,,
null,is shouting at,,html-keyboard-response,281,2087968,0.0-17.0-2.3,93700,List1A,black,man,,,,null,,,,
18750,,,survey-text,282,2106721,0.0-17.0-3.3,93700,List1A,black,man,,,,,"{""Q0"":""ruth is shouting at beth""}","<img src=""stim_listA/shout7.gif""style=""height:400px;""></stim_listA>",is shouting at,
null,"<div style=""font-size:60px;"">+</div>",,html-keyboard-response,283,2107235,0.0-17.0-0.4,93700,List1A,black,man,,,,null,,,,
null,"<img src=""stim_listA/play7.gif""style=""height:400px;""></stim_listA>",,html-keyboard-response,284,2109247,0.0-17.0-1.4,93700,List1A,black,man,,,,null,,,,
null,is playing with,,html-keyboard-response,285,2111257,0.0-17.0-2.4,93700,List1A,black,man,,,,null,,,,
12744,,,survey-text,286,2124006,0.0-17.0-3.4,93700,List1A,black,man,,,,,"{""Q0"":""kate is playing with jane""}","<img src=""stim_listA/play7.gif""style=""height:400px;""></stim_listA>",is playing with,
null,"<div style=""font-size:60px;"">+</div>",,html-keyboard-response,287,2124519,0.0-17.0-0.5,93700,List1A,black,man,,,,null,,,,
null,"<img src=""stim_listA/talk1.gif""style=""height:400px;""></stim_listA>",,html-keyboard-response,288,2126525,0.0-17.0-1.5,93700,List1A,black,man,,,,null,,,,
null,is talking to,,html-keyboard-response,289,2128532,0.0-17.0-2.5,93700,List1A,black,man,,,,null,,,,
15782,,,survey-text,290,2144319,0.0-17.0-3.5,93700,List1A,black,man,,,,,"{""Q0"":""fred is talking to kate""}","<img src=""stim_listA/talk1.gif""style=""height:400px;""></stim_listA>",is talking to,
null,"<div style=""font-size:60px;"">+</div>",,html-keyboard-response,291,2144822,0.0-17.0-0.6,93700,List1A,black,man,,,,null,,,,
null,"<img src=""stim_listA/touch2.gif""style=""height:400px;""></stim_listA>",,html-keyboard-response,292,2146835,0.0-17.0-1.6,93700,List1A,black,man,,,,null,,,,
null,are touching each other,,html-keyboard-response,293,2148850,0.0-17.0-2.6,93700,List1A,black,man,,,,null,,,,
22219,,,survey-text,294,2171074,0.0-17.0-3.6,93700,List1A,black,man,,,,,"{""Q0"":""beth and fred are touching each other""}","<img src=""stim_listA/touch2.gif""style=""height:400px;""></stim_listA>",are touching each other,
null,"<div style=""font-size:60px;"">+</div>",,html-keyboard-response,295,2171590,0.0-17.0-0.7,93700,List1A,black,man,,,,null,,,,
null,"<img src=""stim_listA/argue3.gif""style=""height:400px;""></stim_listA>",,html-keyboard-response,296,2173602,0.0-17.0-1.7,93700,List1A,black,man,,,,null,,,,
null,is arguing with,,html-keyboard-response,297,2175606,0.0-17.0-2.7,93700,List1A,black,man,,,,null,,,,
13223,,,survey-text,298,2188831,0.0-17.0-3.7,93700,List1A,black,man,,,,,"{""Q0"":""dave is arguing with ruth""}","<img src=""stim_listA/argue3.gif""style=""height:400px;""></stim_listA>",is arguing with,
null,"<div style=""font-size:60px;"">+</div>",,html-keyboard-response,299,2189343,0.0-17.0-0.8,93700,List1A,black,man,,,,null,,,,
null,"<img src=""stim_listA/talk2.gif""style=""height:400px;""></stim_listA>",,html-keyboard-response,300,2191349,0.0-17.0-1.8,93700,List1A,black,man,,,,null,,,,
null,are talking to each other,,html-keyboard-response,301,2193358,0.0-17.0-2.8,93700,List1A,black,man,,,,null,,,,
19838,,,survey-text,302,2213200,0.0-17.0-3.8,93700,List1A,black,man,,,,,"{""Q0"":""mike and beth are talking to each other""}","<img src=""stim_listA/talk2.gif""style=""height:400px;""></stim_listA>",are talking to each other,
null,"<div style=""font-size:60px;"">+</div>",,html-keyboard-response,303,2213705,0.0-17.0-0.9,93700,List1A,black,man,,,,null,,,,
null,"<img src=""stim_listA/flirt1.gif""style=""height:400px;""></stim_listA>",,html-keyboard-response,304,2215708,0.0-17.0-1.9,93700,List1A,black,man,,,,null,,,,
null,is flirting with,,html-keyboard-response,305,2217711,0.0-17.0-2.9,93700,List1A,black,man,,,,null,,,,
13476,,,survey-text,306,2231190,0.0-17.0-3.9,93700,List1A,black,man,,,,,"{""Q0"":""kate is flirting with fred""}","<img src=""stim_listA/flirt1.gif""style=""height:400px;""></stim_listA>",is flirting with,
null,"<div style=""font-size:60px;"">+</div>",,html-keyboard-response,307,2231693,0.0-17.0-0.10,93700,List1A,black,man,,,,null,,,,
null,"<img src=""stim_listA/shout6.gif""style=""height:400px;""></stim_listA>",,html-keyboard-response,308,2233699,0.0-17.0-1.10,93700,List1A,black,man,,,,null,,,,
null,are shouting at each other,,html-keyboard-response,309,2235708,0.0-17.0-2.10,93700,List1A,black,man,,,,null,,,,
21164,,,survey-text,310,2256875,0.0-17.0-3.10,93700,List1A,black,man,,,,,"{""Q0"":""mike and dave are shouting at each other""}","<img src=""stim_listA/shout6.gif""style=""height:400px;""></stim_listA>",are shouting at each other,
null,"<div style=""font-size:60px;"">+</div>",,html-keyboard-response,311,2257394,0.0-17.0-0.11,93700,List1A,black,man,,,,null,,,,
null,"<img src=""stim_listA/talk6.gif""style=""height:400px;""></stim_listA>",,html-keyboard-response,312,2259404,0.0-17.0-1.11,93700,List1A,black,man,,,,null,,,,
null,are talking to each other,,html-keyboard-response,313,2261411,0.0-17.0-2.11,93700,List1A,black,man,,,,null,,,,
22980,,,survey-text,314,2284395,0.0-17.0-3.11,93700,List1A,black,man,,,,,"{""Q0"":""luke and mike are talking to each other""}","<img src=""stim_listA/talk6.gif""style=""height:400px;""></stim_listA>",are talking to each other,
null,"<div style=""font-size:60px;"">+</div>",,html-keyboard-response,315,2284910,0.0-17.0-0.12,93700,List1A,black,man,,,,null,,,,
null,"<img src=""stim_listA/shout5.gif""style=""height:400px;""></stim_listA>",,html-keyboard-response,316,2286918,0.0-17.0-1.12,93700,List1A,black,man,,,,null,,,,
null,is shouting at,,html-keyboard-response,317,2288934,0.0-17.0-2.12,93700,List1A,black,man,,,,null,,,,
14537,,,survey-text,318,2303475,0.0-17.0-3.12,93700,List1A,black,man,,,,,"{""Q0"":""luke is shouting at fred""}","<img src=""stim_listA/shout5.gif""style=""height:400px;""></stim_listA>",is shouting at,
null,"<div style=""font-size:60px;"">+</div>",,html-keyboard-response,319,2303999,0.0-17.0-0.13,93700,List1A,black,man,,,,null,,,,
null,"<img src=""stim_listA/dance3.gif""style=""height:400px;""></stim_listA>",,html-keyboard-response,320,2306008,0.0-17.0-1.13,93700,List1A,black,man,,,,null,,,,
null,is dancing with,,html-keyboard-response,321,2308029,0.0-17.0-2.13,93700,List1A,black,man,,,,null,,,,
14464,,,survey-text,322,2322499,0.0-17.0-3.13,93700,List1A,black,man,,,,,"{""Q0"":""luke is dancing with jane""}","<img src=""stim_listA/dance3.gif""style=""height:400px;""></stim_listA>",is dancing with,
null,"<div style=""font-size:60px;"">+</div>",,html-keyboard-response,323,2323009,0.0-17.0-0.14,93700,List1A,black,man,,,,null,,,,
null,"<img src=""stim_listA/shout2.gif""style=""height:400px;""></stim_listA>",,html-keyboard-response,324,2325012,0.0-17.0-1.14,93700,List1A,black,man,,,,null,,,,
null,are shouting at each other,,html-keyboard-response,325,2327021,0.0-17.0-2.14,93700,List1A,black,man,,,,null,,,,
21611,,,survey-text,326,2348637,0.0-17.0-3.14,93700,List1A,black,man,,,,,"{""Q0"":""kate and mike are shouting at each other""}","<img src=""stim_listA/shout2.gif""style=""height:400px;""></stim_listA>",are shouting at each other,
null,"<div style=""font-size:60px;"">+</div>",,html-keyboard-response,327,2349144,0.0-17.0-0.15,93700,List1A,black,man,,,,null,,,,
null,"<img src=""stim_listA/flirt2.gif""style=""height:400px;""></stim_listA>",,html-keyboard-response,328,2351150,0.0-17.0-1.15,93700,List1A,black,man,,,,null,,,,
null,are flirting with each other,,html-keyboard-response,329,2353153,0.0-17.0-2.15,93700,List1A,black,man,,,,null,,,,
28029,,,survey-text,330,2381188,0.0-17.0-3.15,93700,List1A,black,man,,,,,"{""Q0"":""mike and beth are flirting with each other""}","<img src=""stim_listA/flirt2.gif""style=""height:400px;""></stim_listA>",are flirting with each other,
null,"<div style=""font-size:60px;"">+</div>",,html-keyboard-response,331,2381707,0.0-17.0-0.16,93700,List1A,black,man,,,,null,,,,
null,"<img src=""stim_listA/argue4.gif""style=""height:400px;""></stim_listA>",,html-keyboard-response,332,2383728,0.0-17.0-1.16,93700,List1A,black,man,,,,null,,,,
null,are arguing with each other,,html-keyboard-response,333,2385743,0.0-17.0-2.16,93700,List1A,black,man,,,,null,,,,
19921,,,survey-text,334,2405668,0.0-17.0-3.16,93700,List1A,black,man,,,,,"{""Q0"":""luke and jane are arguing with each other""}","<img src=""stim_listA/argue4.gif""style=""height:400px;""></stim_listA>",are arguing with each other,
null,"<div style=""font-size:60px;"">+</div>",,html-keyboard-response,335,2406174,0.0-17.0-0.17,93700,List1A,black,man,,,,null,,,,
null,"<img src=""stim_listA/touch5.gif""style=""height:400px;""></stim_listA>",,html-keyboard-response,336,2408181,0.0-17.0-1.17,93700,List1A,black,man,,,,null,,,,
null,is touching,,html-keyboard-response,337,2410194,0.0-17.0-2.17,93700,List1A,black,man,,,,null,,,,
12735,,,survey-text,338,2422931,0.0-17.0-3.17,93700,List1A,black,man,,,,,"{""Q0"":""dave and mike is touching""}","<img src=""stim_listA/touch5.gif""style=""height:400px;""></stim_listA>",is touching,
null,"<div style=""font-size:60px;"">+</div>",,html-keyboard-response,339,2423439,0.0-17.0-0.18,93700,List1A,black,man,,,,null,,,,
null,"<img src=""stim_listA/talk4.gif""style=""height:400px;""></stim_listA>",,html-keyboard-response,340,2425450,0.0-17.0-1.18,93700,List1A,black,man,,,,null,,,,
null,are talking to each other,,html-keyboard-response,341,2427464,0.0-17.0-2.18,93700,List1A,black,man,,,,null,,,,
19399,,,survey-text,342,2446866,0.0-17.0-3.18,93700,List1A,black,man,,,,,"{""Q0"":""dave and ruth are talking with each other""}","<img src=""stim_listA/talk4.gif""style=""height:400px;""></stim_listA>",are talking to each other,
null,"<div style=""font-size:60px;"">+</div>",,html-keyboard-response,343,2447385,0.0-17.0-0.19,93700,List1A,black,man,,,,null,,,,
null,"<img src=""stim_listA/marry7.gif""style=""height:400px;""></stim_listA>",,html-keyboard-response,344,2449397,0.0-17.0-1.19,93700,List1A,black,man,,,,null,,,,
null,is marrying,,html-keyboard-response,345,2451416,0.0-17.0-2.19,93700,List1A,black,man,,,,null,,,,
12784,,,survey-text,346,2464203,0.0-17.0-3.19,93700,List1A,black,man,,,,,"{""Q0"":""ruth is marrying kate""}","<img src=""stim_listA/marry7.gif""style=""height:400px;""></stim_listA>",is marrying,
7005,"<img src='img/portrait_matrix_list1.jpg' style='width:900px;height:500px;''></img><p>If you have memorised all the portraits and names and are ready to start, press Continue.</p><p><strong>Please note: Your memory of these faces will be tested 4 times during this experiment.</strong></p>",0,html-button-response,347,2471211,0.0-18.0-0.0,93700,List1A,black,man,,,,,,,,
3198,"<img src=""portrait/BW2.jpg""style=""height:400px;""></img>",2,html-button-response,348,2475428,0.0-18.0-1.0,93700,List1A,black,man,,TRUE,2,,,,,
null,CORRECT,,html-keyboard-response,349,2476958,0.0-18.0-2.0-0.0,93700,List1A,black,man,,,,null,,,,
2990,"<img src=""portrait/WM1.jpg""style=""height:400px;""></img>",6,html-button-response,350,2479953,0.0-18.0-4.0,93700,List1A,black,man,,TRUE,6,,,,,
null,CORRECT,,html-keyboard-response,351,2481463,0.0-18.0-5.0-0.0,93700,List1A,black,man,,,,null,,,,
1692,"<img src=""portrait/BM1.jpg""style=""height:400px;""></img>",4,html-button-response,352,2483163,0.0-18.0-7.0,93700,List1A,black,man,,TRUE,4,,,,,
null,CORRECT,,html-keyboard-response,353,2484686,0.0-18.0-8.0-0.0,93700,List1A,black,man,,,,null,,,,
3013,"<img src=""portrait/WW1.jpg""style=""height:400px;""></img>",1,html-button-response,354,2487710,0.0-18.0-10.0,93700,List1A,black,man,,TRUE,1,,,,,
null,CORRECT,,html-keyboard-response,355,2489219,0.0-18.0-11.0-0.0,93700,List1A,black,man,,,,null,,,,
2165,"<img src=""portrait/BM2.jpg""style=""height:400px;""></img>",5,html-button-response,356,2491392,0.0-18.0-13.0,93700,List1A,black,man,,TRUE,5,,,,,
null,CORRECT,,html-keyboard-response,357,2492928,0.0-18.0-14.0-0.0,93700,List1A,black,man,,,,null,,,,
2315,"<img src=""portrait/BW1.jpg""style=""height:400px;""></img>",0,html-button-response,358,2495249,0.0-18.0-16.0,93700,List1A,black,man,,TRUE,0,,,,,
null,CORRECT,,html-keyboard-response,359,2496759,0.0-18.0-17.0-0.0,93700,List1A,black,man,,,,null,,,,
1824,"<img src=""portrait/WM2.jpg""style=""height:400px;""></img>",7,html-button-response,360,2498591,0.0-18.0-19.0,93700,List1A,black,man,,TRUE,7,,,,,
null,CORRECT,,html-keyboard-response,361,2500107,0.0-18.0-20.0-0.0,93700,List1A,black,man,,,,null,,,,
1770,"<img src=""portrait/WW2.jpg""style=""height:400px;""></img>",3,html-button-response,362,2501884,0.0-18.0-22.0,93700,List1A,black,man,,TRUE,3,,,,,
null,CORRECT,,html-keyboard-response,363,2503392,0.0-18.0-23.0-0.0,93700,List1A,black,man,,,,null,,,,
1514,<p>You got 8 out of 8 right first time. Press Continue.</p>,0,html-button-response,364,2504910,0.0-18.0-25.0,93700,List1A,black,man,,,,,,,,
null,"<div style=""font-size:60px;"">+</div>",,html-keyboard-response,365,2506432,0.0-19.0-0.0,93700,List1A,black,man,,,,null,,,,
null,"<img src=""stim_listA/shout8.gif""style=""height:400px;""></stim_listA>",,html-keyboard-response,366,2508443,0.0-19.0-1.0,93700,List1A,black,man,,,,null,,,,
null,are shouting at each other,,html-keyboard-response,367,2510454,0.0-19.0-2.0,93700,List1A,black,man,,,,null,,,,
18953,,,survey-text,368,2529412,0.0-19.0-3.0,93700,List1A,black,man,,,,,"{""Q0"":""kate and jane are shouting at each other""}","<img src=""stim_listA/shout8.gif""style=""height:400px;""></stim_listA>",are shouting at each other,
null,"<div style=""font-size:60px;"">+</div>",,html-keyboard-response,369,2529926,0.0-19.0-0.1,93700,List1A,black,man,,,,null,,,,
null,"<img src=""stim_listA/talk5.gif""style=""height:400px;""></stim_listA>",,html-keyboard-response,370,2531939,0.0-19.0-1.1,93700,List1A,black,man,,,,null,,,,
null,is talking to,,html-keyboard-response,371,2533956,0.0-19.0-2.1,93700,List1A,black,man,,,,null,,,,
15319,,,survey-text,372,2549282,0.0-19.0-3.1,93700,List1A,black,man,,,,,"{""Q0"":""fred is talking with dave""}","<img src=""stim_listA/talk5.gif""style=""height:400px;""></stim_listA>",is talking to,
null,"<div style=""font-size:60px;"">+</div>",,html-keyboard-response,373,2549805,0.0-19.0-0.2,93700,List1A,black,man,,,,null,,,,
null,"<img src=""stim_listA/shout1.gif""style=""height:400px;""></stim_listA>",,html-keyboard-response,374,2551821,0.0-19.0-1.2,93700,List1A,black,man,,,,null,,,,
null,is shouting at,,html-keyboard-response,375,2553825,0.0-19.0-2.2,93700,List1A,black,man,,,,null,,,,
16198,,,survey-text,376,2570025,0.0-19.0-3.2,93700,List1A,black,man,,,,,"{""Q0"":""fred is shouting at beth""}","<img src=""stim_listA/shout1.gif""style=""height:400px;""></stim_listA>",is shouting at,
null,"<div style=""font-size:60px;"">+</div>",,html-keyboard-response,377,2570528,0.0-19.0-0.3,93700,List1A,black,man,,,,null,,,,
null,"<img src=""stim_listA/dance8.gif""style=""height:400px;""></stim_listA>",,html-keyboard-response,378,2572534,0.0-19.0-1.3,93700,List1A,black,man,,,,null,,,,
null,are dancing with each other,,html-keyboard-response,379,2574543,0.0-19.0-2.3,93700,List1A,black,man,,,,null,,,,
16780,,,survey-text,380,2591329,0.0-19.0-3.3,93700,List1A,black,man,,,,,"{""Q0"":""ruth and kate are dancing with each other""}","<img src=""stim_listA/dance8.gif""style=""height:400px;""></stim_listA>",are dancing with each other,
null,"<div style=""font-size:60px;"">+</div>",,html-keyboard-response,381,2591839,0.0-19.0-0.4,93700,List1A,black,man,,,,null,,,,
null,"<img src=""stim_listA/dance6.gif""style=""height:400px;""></stim_listA>",,html-keyboard-response,382,2593849,0.0-19.0-1.4,93700,List1A,black,man,,,,null,,,,
null,are dancing with each other,,html-keyboard-response,383,2595855,0.0-19.0-2.4,93700,List1A,black,man,,,,null,,,,
17563,,,survey-text,384,2613427,0.0-19.0-3.4,93700,List1A,black,man,,,,,"{""Q0"":""mike and luke are dancing with each other""}","<img src=""stim_listA/dance6.gif""style=""height:400px;""></stim_listA>",are dancing with each other,
null,"<div style=""font-size:60px;"">+</div>",,html-keyboard-response,385,2613939,0.0-19.0-0.5,93700,List1A,black,man,,,,null,,,,
null,"<img src=""stim_listA/kiss5.gif""style=""height:400px;""></stim_listA>",,html-keyboard-response,386,2615948,0.0-19.0-1.5,93700,List1A,black,man,,,,null,,,,
null,is kissing,,html-keyboard-response,387,2617954,0.0-19.0-2.5,93700,List1A,black,man,,,,null,,,,
11289,,,survey-text,388,2629245,0.0-19.0-3.5,93700,List1A,black,man,,,,,"{""Q0"":""fred is kissing luke""}","<img src=""stim_listA/kiss5.gif""style=""height:400px;""></stim_listA>",is kissing,
null,"<div style=""font-size:60px;"">+</div>",,html-keyboard-response,389,2629757,0.0-19.0-0.6,93700,List1A,black,man,,,,null,,,,
null,"<img src=""stim_listA/argue5.gif""style=""height:400px;""></stim_listA>",,html-keyboard-response,390,2631772,0.0-19.0-1.6,93700,List1A,black,man,,,,null,,,,
null,is arguing with,,html-keyboard-response,391,2633778,0.0-19.0-2.6,93700,List1A,black,man,,,,null,,,,
11420,,,survey-text,392,2645201,0.0-19.0-3.6,93700,List1A,black,man,,,,,"{""Q0"":""luke is arguing with mike""}","<img src=""stim_listA/argue5.gif""style=""height:400px;""></stim_listA>",is arguing with,
null,"<div style=""font-size:60px;"">+</div>",,html-keyboard-response,393,2645712,0.0-19.0-0.7,93700,List1A,black,man,,,,null,,,,
null,"<img src=""stim_listA/flirt4.gif""style=""height:400px;""></stim_listA>",,html-keyboard-response,394,2647718,0.0-19.0-1.7,93700,List1A,black,man,,,,null,,,,
null,are flirting with each other,,html-keyboard-response,395,2649725,0.0-19.0-2.7,93700,List1A,black,man,,,,null,,,,
18126,,,survey-text,396,2667853,0.0-19.0-3.7,93700,List1A,black,man,,,,,"{""Q0"":""dave and ruth are flirting with each other""}","<img src=""stim_listA/flirt4.gif""style=""height:400px;""></stim_listA>",are flirting with each other,
null,"<div style=""font-size:60px;"">+</div>",,html-keyboard-response,397,2668369,0.0-19.0-0.8,93700,List1A,black,man,,,,null,,,,
null,"<img src=""stim_listA/kiss7.gif""style=""height:400px;""></stim_listA>",,html-keyboard-response,398,2670372,0.0-19.0-1.8,93700,List1A,black,man,,,,null,,,,
null,is kissing,,html-keyboard-response,399,2672384,0.0-19.0-2.8,93700,List1A,black,man,,,,null,,,,
24107,,,survey-text,400,2696495,0.0-19.0-3.8,93700,List1A,black,man,,,,,"{""Q0"":""ruth and beth is kissing""}","<img src=""stim_listA/kiss7.gif""style=""height:400px;""></stim_listA>",is kissing,
null,"<div style=""font-size:60px;"">+</div>",,html-keyboard-response,401,2697001,0.0-19.0-0.9,93700,List1A,black,man,,,,null,,,,
null,"<img src=""stim_listA/touch6.gif""style=""height:400px;""></stim_listA>",,html-keyboard-response,402,2699011,0.0-19.0-1.9,93700,List1A,black,man,,,,null,,,,
null,are touching each other,,html-keyboard-response,403,2701022,0.0-19.0-2.9,93700,List1A,black,man,,,,null,,,,
19679,,,survey-text,404,2720704,0.0-19.0-3.9,93700,List1A,black,man,,,,,"{""Q0"":""fred and luke are touching each other""}","<img src=""stim_listA/touch6.gif""style=""height:400px;""></stim_listA>",are touching each other,
null,"<div style=""font-size:60px;"">+</div>",,html-keyboard-response,405,2721211,0.0-19.0-0.10,93700,List1A,black,man,,,,null,,,,
null,"<img src=""stim_listA/marry6.gif""style=""height:400px;""></stim_listA>",,html-keyboard-response,406,2723216,0.0-19.0-1.10,93700,List1A,black,man,,,,null,,,,
null,are marrying each other,,html-keyboard-response,407,2725218,0.0-19.0-2.10,93700,List1A,black,man,,,,null,,,,
16556,,,survey-text,408,2741777,0.0-19.0-3.10,93700,List1A,black,man,,,,,"{""Q0"":""fred and dave are marrying each other""}","<img src=""stim_listA/marry6.gif""style=""height:400px;""></stim_listA>",are marrying each other,
null,"<div style=""font-size:60px;"">+</div>",,html-keyboard-response,409,2742280,0.0-19.0-0.11,93700,List1A,black,man,,,,null,,,,
null,"<img src=""stim_listA/play2.gif""style=""height:400px;""></stim_listA>",,html-keyboard-response,410,2744300,0.0-19.0-1.11,93700,List1A,black,man,,,,null,,,,
null,are playing with each other,,html-keyboard-response,411,2746306,0.0-19.0-2.11,93700,List1A,black,man,,,,null,,,,
18988,,,survey-text,412,2765298,0.0-19.0-3.11,93700,List1A,black,man,,,,,"{""Q0"":""fred and beth are playing with each other""}","<img src=""stim_listA/play2.gif""style=""height:400px;""></stim_listA>",are playing with each other,
null,"<div style=""font-size:60px;"">+</div>",,html-keyboard-response,413,2765806,0.0-19.0-0.12,93700,List1A,black,man,,,,null,,,,
null,"<img src=""stim_listA/kiss1.gif""style=""height:400px;""></stim_listA>",,html-keyboard-response,414,2767823,0.0-19.0-1.12,93700,List1A,black,man,,,,null,,,,
null,is kissing,,html-keyboard-response,415,2769828,0.0-19.0-2.12,93700,List1A,black,man,,,,null,,,,
18652,,,survey-text,416,2788485,0.0-19.0-3.12,93700,List1A,black,man,,,,,"{""Q0"":""fred is kissing beth""}","<img src=""stim_listA/kiss1.gif""style=""height:400px;""></stim_listA>",is kissing,
null,"<div style=""font-size:60px;"">+</div>",,html-keyboard-response,417,2788998,0.0-19.0-0.13,93700,List1A,black,man,,,,null,,,,
null,"<img src=""stim_listA/fight2.gif""style=""height:400px;""></stim_listA>",,html-keyboard-response,418,2791008,0.0-19.0-1.13,93700,List1A,black,man,,,,null,,,,
null,are fighting each other,,html-keyboard-response,419,2793024,0.0-19.0-2.13,93700,List1A,black,man,,,,null,,,,
19071,,,survey-text,420,2812099,0.0-19.0-3.13,93700,List1A,black,man,,,,,"{""Q0"":""fred and beth are fighting each other""}","<img src=""stim_listA/fight2.gif""style=""height:400px;""></stim_listA>",are fighting each other,
null,"<div style=""font-size:60px;"">+</div>",,html-keyboard-response,421,2812605,0.0-19.0-0.14,93700,List1A,black,man,,,,null,,,,
null,"<img src=""stim_listA/talk3.gif""style=""height:400px;""></stim_listA>",,html-keyboard-response,422,2814613,0.0-19.0-1.14,93700,List1A,black,man,,,,null,,,,
null,is talking to,,html-keyboard-response,423,2816620,0.0-19.0-2.14,93700,List1A,black,man,,,,null,,,,
10195,,,survey-text,424,2826819,0.0-19.0-3.14,93700,List1A,black,man,,,,,"{""Q0"":""luke is talking to jane""}","<img src=""stim_listA/talk3.gif""style=""height:400px;""></stim_listA>",is talking to,
null,"<div style=""font-size:60px;"">+</div>",,html-keyboard-response,425,2827334,0.0-19.0-0.15,93700,List1A,black,man,,,,null,,,,
null,"<img src=""stim_listA/dance1.gif""style=""height:400px;""></stim_listA>",,html-keyboard-response,426,2829339,0.0-19.0-1.15,93700,List1A,black,man,,,,null,,,,
null,is dancing with,,html-keyboard-response,427,2831346,0.0-19.0-2.15,93700,List1A,black,man,,,,null,,,,
12027,,,survey-text,428,2843378,0.0-19.0-3.15,93700,List1A,black,man,,,,,"{""Q0"":""fred is dancing with kate""}","<img src=""stim_listA/dance1.gif""style=""height:400px;""></stim_listA>",is dancing with,
null,"<div style=""font-size:60px;"">+</div>",,html-keyboard-response,429,2843883,0.0-19.0-0.16,93700,List1A,black,man,,,,null,,,,
null,"<img src=""stim_listA/fight6.gif""style=""height:400px;""></stim_listA>",,html-keyboard-response,430,2845890,0.0-19.0-1.16,93700,List1A,black,man,,,,null,,,,
null,are fighting each other,,html-keyboard-response,431,2847906,0.0-19.0-2.16,93700,List1A,black,man,,,,null,,,,
18199,,,survey-text,432,2866112,0.0-19.0-3.16,93700,List1A,black,man,,,,,"{""Q0"":""fred and luke are fighting each other""}","<img src=""stim_listA/fight6.gif""style=""height:400px;""></stim_listA>",are fighting each other,
null,"<div style=""font-size:60px;"">+</div>",,html-keyboard-response,433,2866622,0.0-19.0-0.17,93700,List1A,black,man,,,,null,,,,
null,"<img src=""stim_listA/kiss3.gif""style=""height:400px;""></stim_listA>",,html-keyboard-response,434,2868632,0.0-19.0-1.17,93700,List1A,black,man,,,,null,,,,
null,is kissing,,html-keyboard-response,435,2870636,0.0-19.0-2.17,93700,List1A,black,man,,,,null,,,,
10221,,,survey-text,436,2880860,0.0-19.0-3.17,93700,List1A,black,man,,,,,"{""Q0"":""luke is kissing ruth""}","<img src=""stim_listA/kiss3.gif""style=""height:400px;""></stim_listA>",is kissing,
null,"<div style=""font-size:60px;"">+</div>",,html-keyboard-response,437,2881367,0.0-19.0-0.18,93700,List1A,black,man,,,,null,,,,
null,"<img src=""stim_listA/talk8.gif""style=""height:400px;""></stim_listA>",,html-keyboard-response,438,2883377,0.0-19.0-1.18,93700,List1A,black,man,,,,null,,,,
null,are talking to each other,,html-keyboard-response,439,2885380,0.0-19.0-2.18,93700,List1A,black,man,,,,null,,,,
15943,,,survey-text,440,2901326,0.0-19.0-3.18,93700,List1A,black,man,,,,,"{""Q0"":""ruth and kate are talking to each other""}","<img src=""stim_listA/talk8.gif""style=""height:400px;""></stim_listA>",are talking to each other,
null,"<div style=""font-size:60px;"">+</div>",,html-keyboard-response,441,2901837,0.0-19.0-0.19,93700,List1A,black,man,,,,null,,,,
null,"<img src=""stim_listA/play6.gif""style=""height:400px;""></stim_listA>",,html-keyboard-response,442,2903847,0.0-19.0-1.19,93700,List1A,black,man,,,,null,,,,
null,are playing with each other,,html-keyboard-response,443,2905852,0.0-19.0-2.19,93700,List1A,black,man,,,,null,,,,
17559,,,survey-text,444,2923415,0.0-19.0-3.19,93700,List1A,black,man,,,,,"{""Q0"":""fred and luke are playing with each other""}","<img src=""stim_listA/play6.gif""style=""height:400px;""></stim_listA>",are playing with each other,
5046,<p>Thank you for completing that task.</p><p>The final part of this session is a short questionnaire.</p><p>Press Continue.</p>,0,html-button-response,445,2928467,0.0-20.0,93700,List1A,black,man,,,,,,,,
41101,,,survey-text,446,2970580,0.0-21.0,93700,List1A,black,man,,,,,"{""Q0"":""39"",""Q1"":""english"",""Q2"":""english"",""Q3"":""united states"",""Q4"":""black"",""Q5"":""male""}",,,demographics
13997,,,survey-likert,447,2984594,0.0-22.0,93700,List1A,black,man,,,,,"{""Q0"":4}",,,likert_ESS
18711,,,survey-likert,448,3003316,0.0-23.0,93700,List1A,black,man,,,,,"{""Q0"":0}",,,likert_NSSAL_Q1
7253,,,survey-likert,449,3010576,0.0-24.0,93700,List1A,black,man,,,,,"{""Q0"":0}",,,likert_NSSAL_Q2
6664,,,survey-likert,450,3017246,0.0-25.0,93700,List1A,black,man,,,,,"{""Q0"":4}",,,likert_CGRS_Q1
5110,,,survey-likert,451,3022366,0.0-26.0,93700,List1A,black,man,,,,,"{""Q0"":4}",,,likert_CGRS_Q2
5038,,,survey-likert,452,3027416,0.0-27.0,93700,List1A,black,man,,,,,"{""Q0"":4}",,,likert_CGRS_Q3
7428,,,survey-text,453,3034849,0.0-28.0,93700,List1A,black,man,,,,,"{""Q0"":""ccc""}",,,worker_id
37143,,,external-html,454,3072441,0.0-29.0,93700,List1A,black,man,debrief.html,,,,,,,
