rt,stimulus,button_pressed,trial_type,trial_index,time_elapsed,internal_node_id,subject,list,ppt_race,ppt_gender,url,first_guess,correct,key_press,responses,image_type,phrase_type,test_part
11455,Welcome to the experiment. Press Continue to begin.,0,html-button-response,0,11458,0.0-0.0,93809,List1B,white,man,,,,,,,,
23763,,,external-html,1,36266,0.0-1.0,93809,List1B,white,man,consent.html,,,,,,,
8005,"<p>On the next page, you will see portraits of 8 people and their names.</p><p>Your first task is to take a few minutes to memorise the names of these people.</p><p>You will have to recall their names during the rest of the experiment, so it is</p><p>essential that you try to memorise these people and their names as best as you can.</p><br><p><strong>You will then be tested on your memory of these names and portraits.</strong></p><br><p>The experiment will start after you have completed this memory test.</p><br><p>Ready?</p>",0,html-button-response,2,44272,0.0-2.0,93809,List1B,white,man,,,,,,,,
28535,"<img src='img/portrait_matrix_list1.jpg' style='width:900px;height:500px;''></img><p>If you have memorised all the portraits and names and are ready to start, press Continue.</p><p><strong>Please note: Your memory of these faces will be tested 4 times during this experiment.</strong></p>",0,html-button-response,3,73810,0.0-3.0-0.0,93809,List1B,white,man,,,,,,,,
6838,"<img src=""portrait/BW1.jpg""style=""height:400px;""></img>",0,html-button-response,4,81651,0.0-3.0-1.0,93809,List1B,white,man,,TRUE,0,,,,,
null,CORRECT,,html-keyboard-response,5,83154,0.0-3.0-2.0-0.0,93809,List1B,white,man,,,,null,,,,
4304,"<img src=""portrait/WM1.jpg""style=""height:400px;""></img>",6,html-button-response,6,87460,0.0-3.0-4.0,93809,List1B,white,man,,TRUE,6,,,,,
null,CORRECT,,html-keyboard-response,7,88964,0.0-3.0-5.0-0.0,93809,List1B,white,man,,,,null,,,,
5933,"<img src=""portrait/WW1.jpg""style=""height:400px;""></img>",1,html-button-response,8,94898,0.0-3.0-7.0,93809,List1B,white,man,,TRUE,1,,,,,
null,CORRECT,,html-keyboard-response,9,96400,0.0-3.0-8.0-0.0,93809,List1B,white,man,,,,null,,,,
2318,"<img src=""portrait/WW2.jpg""style=""height:400px;""></img>",3,html-button-response,10,98720,0.0-3.0-10.0,93809,List1B,white,man,,TRUE,3,,,,,
null,CORRECT,,html-keyboard-response,11,100223,0.0-3.0-11.0-0.0,93809,List1B,white,man,,,,null,,,,
3862,"<img src=""portrait/WM2.jpg""style=""height:400px;""></img>",5,html-button-response,12,104086,0.0-3.0-13.0,93809,List1B,white,man,,TRUE,7,,,,,
3462,"<img src=""portrait/WM2.jpg""style=""height:400px;""></img>",7,html-button-response,13,108550,0.0-3.0-15.0-0.0,93809,List1B,white,man,,FALSE,7,,,,,
null,CORRECT,,html-keyboard-response,14,110053,0.0-3.0-15.0-1.0-0.0,93809,List1B,white,man,,,,null,,,,
3444,"<img src=""portrait/BM1.jpg""style=""height:400px;""></img>",4,html-button-response,15,113499,0.0-3.0-16.0,93809,List1B,white,man,,TRUE,4,,,,,
null,CORRECT,,html-keyboard-response,16,115001,0.0-3.0-17.0-0.0,93809,List1B,white,man,,,,null,,,,
3070,"<img src=""portrait/BM2.jpg""style=""height:400px;""></img>",5,html-button-response,17,118072,0.0-3.0-19.0,93809,List1B,white,man,,TRUE,5,,,,,
null,CORRECT,,html-keyboard-response,18,119575,0.0-3.0-20.0-0.0,93809,List1B,white,man,,,,null,,,,
7901,"<img src=""portrait/BW2.jpg""style=""height:400px;""></img>",1,html-button-response,19,127476,0.0-3.0-22.0,93809,List1B,white,man,,TRUE,2,,,,,
2712,"<img src=""portrait/BW2.jpg""style=""height:400px;""></img>",2,html-button-response,20,131190,0.0-3.0-24.0-0.0,93809,List1B,white,man,,FALSE,2,,,,,
null,CORRECT,,html-keyboard-response,21,132693,0.0-3.0-24.0-1.0-0.0,93809,List1B,white,man,,,,null,,,,
2030,<p>You got 6 out of 8 right first time. Press Continue.</p>,0,html-button-response,22,134725,0.0-3.0-25.0,93809,List1B,white,man,,,,,,,,
2423,"As you did not score 100%, the memory game will repeat. Press Continue.",0,html-button-response,23,138150,0.0-3.0-26.0-0.0,93809,List1B,white,man,,,,,,,,
13119,"<img src='img/portrait_matrix_list1.jpg' style='width:900px;height:500px;''></img><p>If you have memorised all the portraits and names and are ready to start, press Continue.</p><p><strong>Please note: Your memory of these faces will be tested 4 times during this experiment.</strong></p>",0,html-button-response,24,152272,0.0-3.1-0.1,93809,List1B,white,man,,,,,,,,
5674,"<img src=""portrait/BW1.jpg""style=""height:400px;""></img>",1,html-button-response,25,158948,0.0-3.1-1.1,93809,List1B,white,man,,TRUE,0,,,,,
3419,"<img src=""portrait/BW1.jpg""style=""height:400px;""></img>",0,html-button-response,26,163371,0.0-3.1-3.1-0.1,93809,List1B,white,man,,FALSE,0,,,,,
null,CORRECT,,html-keyboard-response,27,164873,0.0-3.1-3.1-1.1-0.1,93809,List1B,white,man,,,,null,,,,
2279,"<img src=""portrait/WM1.jpg""style=""height:400px;""></img>",6,html-button-response,28,167153,0.0-3.1-4.1,93809,List1B,white,man,,TRUE,6,,,,,
null,CORRECT,,html-keyboard-response,29,168656,0.0-3.1-5.1-0.1,93809,List1B,white,man,,,,null,,,,
6866,"<img src=""portrait/WW1.jpg""style=""height:400px;""></img>",1,html-button-response,30,175523,0.0-3.1-7.1,93809,List1B,white,man,,TRUE,1,,,,,
null,CORRECT,,html-keyboard-response,31,177026,0.0-3.1-8.1-0.1,93809,List1B,white,man,,,,null,,,,
1289,"<img src=""portrait/WW2.jpg""style=""height:400px;""></img>",3,html-button-response,32,178317,0.0-3.1-10.1,93809,List1B,white,man,,TRUE,3,,,,,
null,CORRECT,,html-keyboard-response,33,179820,0.0-3.1-11.1-0.1,93809,List1B,white,man,,,,null,,,,
6933,"<img src=""portrait/WM2.jpg""style=""height:400px;""></img>",7,html-button-response,34,186755,0.0-3.1-13.1,93809,List1B,white,man,,TRUE,7,,,,,
null,CORRECT,,html-keyboard-response,35,188257,0.0-3.1-14.1-0.1,93809,List1B,white,man,,,,null,,,,
3152,"<img src=""portrait/BM1.jpg""style=""height:400px;""></img>",4,html-button-response,36,191411,0.0-3.1-16.1,93809,List1B,white,man,,TRUE,4,,,,,
null,CORRECT,,html-keyboard-response,37,192912,0.0-3.1-17.1-0.1,93809,List1B,white,man,,,,null,,,,
3881,"<img src=""portrait/BM2.jpg""style=""height:400px;""></img>",5,html-button-response,38,196795,0.0-3.1-19.1,93809,List1B,white,man,,TRUE,5,,,,,
null,CORRECT,,html-keyboard-response,39,198297,0.0-3.1-20.1-0.1,93809,List1B,white,man,,,,null,,,,
4218,"<img src=""portrait/BW2.jpg""style=""height:400px;""></img>",1,html-button-response,40,202516,0.0-3.1-22.1,93809,List1B,white,man,,TRUE,2,,,,,
1972,"<img src=""portrait/BW2.jpg""style=""height:400px;""></img>",2,html-button-response,41,205490,0.0-3.1-24.1-0.1,93809,List1B,white,man,,FALSE,2,,,,,
null,CORRECT,,html-keyboard-response,42,206992,0.0-3.1-24.1-1.1-0.1,93809,List1B,white,man,,,,null,,,,
3179,<p>You got 6 out of 8 right first time. Press Continue.</p>,0,html-button-response,43,210173,0.0-3.1-25.1,93809,List1B,white,man,,,,,,,,
1528,"As you did not score 100%, the memory game will repeat. Press Continue.",0,html-button-response,44,212702,0.0-3.1-26.1-0.1,93809,List1B,white,man,,,,,,,,
11156,"<img src='img/portrait_matrix_list1.jpg' style='width:900px;height:500px;''></img><p>If you have memorised all the portraits and names and are ready to start, press Continue.</p><p><strong>Please note: Your memory of these faces will be tested 4 times during this experiment.</strong></p>",0,html-button-response,45,224861,0.0-3.2-0.2,93809,List1B,white,man,,,,,,,,
3137,"<img src=""portrait/BW1.jpg""style=""height:400px;""></img>",1,html-button-response,46,229001,0.0-3.2-1.2,93809,List1B,white,man,,TRUE,0,,,,,
1968,"<img src=""portrait/BW1.jpg""style=""height:400px;""></img>",0,html-button-response,47,231971,0.0-3.2-3.2-0.2,93809,List1B,white,man,,FALSE,0,,,,,
null,CORRECT,,html-keyboard-response,48,233473,0.0-3.2-3.2-1.2-0.2,93809,List1B,white,man,,,,null,,,,
1863,"<img src=""portrait/WM1.jpg""style=""height:400px;""></img>",7,html-button-response,49,235337,0.0-3.2-4.2,93809,List1B,white,man,,TRUE,6,,,,,
1672,"<img src=""portrait/WM1.jpg""style=""height:400px;""></img>",6,html-button-response,50,238011,0.0-3.2-6.2-0.2,93809,List1B,white,man,,FALSE,6,,,,,
null,CORRECT,,html-keyboard-response,51,239513,0.0-3.2-6.2-1.2-0.2,93809,List1B,white,man,,,,null,,,,
6373,"<img src=""portrait/WW1.jpg""style=""height:400px;""></img>",1,html-button-response,52,245889,0.0-3.2-7.2,93809,List1B,white,man,,TRUE,1,,,,,
null,CORRECT,,html-keyboard-response,53,247391,0.0-3.2-8.2-0.2,93809,List1B,white,man,,,,null,,,,
1475,"<img src=""portrait/WW2.jpg""style=""height:400px;""></img>",3,html-button-response,54,248867,0.0-3.2-10.2,93809,List1B,white,man,,TRUE,3,,,,,
null,CORRECT,,html-keyboard-response,55,250371,0.0-3.2-11.2-0.2,93809,List1B,white,man,,,,null,,,,
2313,"<img src=""portrait/WM2.jpg""style=""height:400px;""></img>",7,html-button-response,56,252685,0.0-3.2-13.2,93809,List1B,white,man,,TRUE,7,,,,,
null,CORRECT,,html-keyboard-response,57,254188,0.0-3.2-14.2-0.2,93809,List1B,white,man,,,,null,,,,
2816,"<img src=""portrait/BM1.jpg""style=""height:400px;""></img>",4,html-button-response,58,257005,0.0-3.2-16.2,93809,List1B,white,man,,TRUE,4,,,,,
null,CORRECT,,html-keyboard-response,59,258508,0.0-3.2-17.2-0.2,93809,List1B,white,man,,,,null,,,,
1482,"<img src=""portrait/BM2.jpg""style=""height:400px;""></img>",5,html-button-response,60,259991,0.0-3.2-19.2,93809,List1B,white,man,,TRUE,5,,,,,
null,CORRECT,,html-keyboard-response,61,261493,0.0-3.2-20.2-0.2,93809,List1B,white,man,,,,null,,,,
3578,"<img src=""portrait/BW2.jpg""style=""height:400px;""></img>",2,html-button-response,62,265073,0.0-3.2-22.2,93809,List1B,white,man,,TRUE,2,,,,,
null,CORRECT,,html-keyboard-response,63,266575,0.0-3.2-23.2-0.2,93809,List1B,white,man,,,,null,,,,
1968,<p>You got 6 out of 8 right first time. Press Continue.</p>,0,html-button-response,64,268545,0.0-3.2-25.2,93809,List1B,white,man,,,,,,,,
1396,"As you did not score 100%, the memory game will repeat. Press Continue.",0,html-button-response,65,270942,0.0-3.2-26.2-0.2,93809,List1B,white,man,,,,,,,,
3645,"<img src='img/portrait_matrix_list1.jpg' style='width:900px;height:500px;''></img><p>If you have memorised all the portraits and names and are ready to start, press Continue.</p><p><strong>Please note: Your memory of these faces will be tested 4 times during this experiment.</strong></p>",0,html-button-response,66,275591,0.0-3.3-0.3,93809,List1B,white,man,,,,,,,,
1719,"<img src=""portrait/BW1.jpg""style=""height:400px;""></img>",1,html-button-response,67,278311,0.0-3.3-1.3,93809,List1B,white,man,,TRUE,0,,,,,
3143,"<img src=""portrait/BW1.jpg""style=""height:400px;""></img>",0,html-button-response,68,282456,0.0-3.3-3.3-0.3,93809,List1B,white,man,,FALSE,0,,,,,
null,CORRECT,,html-keyboard-response,69,283958,0.0-3.3-3.3-1.3-0.3,93809,List1B,white,man,,,,null,,,,
2707,"<img src=""portrait/WM1.jpg""style=""height:400px;""></img>",6,html-button-response,70,286666,0.0-3.3-4.3,93809,List1B,white,man,,TRUE,6,,,,,
null,CORRECT,,html-keyboard-response,71,288168,0.0-3.3-5.3-0.3,93809,List1B,white,man,,,,null,,,,
4116,"<img src=""portrait/WW1.jpg""style=""height:400px;""></img>",1,html-button-response,72,292286,0.0-3.3-7.3,93809,List1B,white,man,,TRUE,1,,,,,
null,CORRECT,,html-keyboard-response,73,293789,0.0-3.3-8.3-0.3,93809,List1B,white,man,,,,null,,,,
1291,"<img src=""portrait/WW2.jpg""style=""height:400px;""></img>",3,html-button-response,74,295082,0.0-3.3-10.3,93809,List1B,white,man,,TRUE,3,,,,,
null,CORRECT,,html-keyboard-response,75,296584,0.0-3.3-11.3-0.3,93809,List1B,white,man,,,,null,,,,
2786,"<img src=""portrait/WM2.jpg""style=""height:400px;""></img>",7,html-button-response,76,299371,0.0-3.3-13.3,93809,List1B,white,man,,TRUE,7,,,,,
null,CORRECT,,html-keyboard-response,77,300872,0.0-3.3-14.3-0.3,93809,List1B,white,man,,,,null,,,,
1996,"<img src=""portrait/BM1.jpg""style=""height:400px;""></img>",4,html-button-response,78,302870,0.0-3.3-16.3,93809,List1B,white,man,,TRUE,4,,,,,
null,CORRECT,,html-keyboard-response,79,304372,0.0-3.3-17.3-0.3,93809,List1B,white,man,,,,null,,,,
1438,"<img src=""portrait/BM2.jpg""style=""height:400px;""></img>",5,html-button-response,80,305812,0.0-3.3-19.3,93809,List1B,white,man,,TRUE,5,,,,,
null,CORRECT,,html-keyboard-response,81,307315,0.0-3.3-20.3-0.3,93809,List1B,white,man,,,,null,,,,
2587,"<img src=""portrait/BW2.jpg""style=""height:400px;""></img>",2,html-button-response,82,309904,0.0-3.3-22.3,93809,List1B,white,man,,TRUE,2,,,,,
null,CORRECT,,html-keyboard-response,83,311407,0.0-3.3-23.3-0.3,93809,List1B,white,man,,,,null,,,,
1467,<p>You got 7 out of 8 right first time. Press Continue.</p>,0,html-button-response,84,312876,0.0-3.3-25.3,93809,List1B,white,man,,,,,,,,
1159,"As you did not score 100%, the memory game will repeat. Press Continue.",0,html-button-response,85,315038,0.0-3.3-26.3-0.3,93809,List1B,white,man,,,,,,,,
4792,"<img src='img/portrait_matrix_list1.jpg' style='width:900px;height:500px;''></img><p>If you have memorised all the portraits and names and are ready to start, press Continue.</p><p><strong>Please note: Your memory of these faces will be tested 4 times during this experiment.</strong></p>",0,html-button-response,86,320832,0.0-3.4-0.4,93809,List1B,white,man,,,,,,,,
1650,"<img src=""portrait/BW1.jpg""style=""height:400px;""></img>",0,html-button-response,87,323484,0.0-3.4-1.4,93809,List1B,white,man,,TRUE,0,,,,,
null,CORRECT,,html-keyboard-response,88,324986,0.0-3.4-2.4-0.4,93809,List1B,white,man,,,,null,,,,
1528,"<img src=""portrait/WM1.jpg""style=""height:400px;""></img>",6,html-button-response,89,326516,0.0-3.4-4.4,93809,List1B,white,man,,TRUE,6,,,,,
null,CORRECT,,html-keyboard-response,90,328018,0.0-3.4-5.4-0.4,93809,List1B,white,man,,,,null,,,,
2536,"<img src=""portrait/WW1.jpg""style=""height:400px;""></img>",1,html-button-response,91,330556,0.0-3.4-7.4,93809,List1B,white,man,,TRUE,1,,,,,
null,CORRECT,,html-keyboard-response,92,332057,0.0-3.4-8.4-0.4,93809,List1B,white,man,,,,null,,,,
1332,"<img src=""portrait/WW2.jpg""style=""height:400px;""></img>",3,html-button-response,93,333390,0.0-3.4-10.4,93809,List1B,white,man,,TRUE,3,,,,,
null,CORRECT,,html-keyboard-response,94,334892,0.0-3.4-11.4-0.4,93809,List1B,white,man,,,,null,,,,
2178,"<img src=""portrait/WM2.jpg""style=""height:400px;""></img>",7,html-button-response,95,337072,0.0-3.4-13.4,93809,List1B,white,man,,TRUE,7,,,,,
null,CORRECT,,html-keyboard-response,96,338574,0.0-3.4-14.4-0.4,93809,List1B,white,man,,,,null,,,,
1240,"<img src=""portrait/BM1.jpg""style=""height:400px;""></img>",4,html-button-response,97,339816,0.0-3.4-16.4,93809,List1B,white,man,,TRUE,4,,,,,
null,CORRECT,,html-keyboard-response,98,341319,0.0-3.4-17.4-0.4,93809,List1B,white,man,,,,null,,,,
1065,"<img src=""portrait/BM2.jpg""style=""height:400px;""></img>",5,html-button-response,99,342386,0.0-3.4-19.4,93809,List1B,white,man,,TRUE,5,,,,,
null,CORRECT,,html-keyboard-response,100,343888,0.0-3.4-20.4-0.4,93809,List1B,white,man,,,,null,,,,
1264,"<img src=""portrait/BW2.jpg""style=""height:400px;""></img>",2,html-button-response,101,345154,0.0-3.4-22.4,93809,List1B,white,man,,TRUE,2,,,,,
null,CORRECT,,html-keyboard-response,102,346657,0.0-3.4-23.4-0.4,93809,List1B,white,man,,,,null,,,,
1446,<p>You got 8 out of 8 right first time. Press Continue.</p>,0,html-button-response,103,348104,0.0-3.4-25.4,93809,List1B,white,man,,,,,,,,
39923,"<p>In this experiment, you will view photographs of the people from the memory game interacting.</p><p>By using the <strong>exact</strong> phrase given <i>after</i> the photograph appears and recalling the correct names of the people in the photographs, form a sentence describing the interaction. You do not need to capitalise names.</p><p>Type your answer in the space provided. Please complete every sentence before moving onto the next trial.</p><p>You will only have a few seconds to memorise each given photograph and phrase before you can respond, so try your best to focus.</p><p>An example is given below. Press 'Continue' when you are ready.</p><img src='img/speaking_example.jpg' style='width:800px;height:460px;''></img>",0,html-button-response,104,389030,0.0-4.0,93809,List1B,white,man,,,,,,,,
1952,"<p>Before the experiment starts, you will watch two example trials. Press 'Continue'.</p>",0,html-button-response,105,391984,0.0-5.0,93809,List1B,white,man,,,,,,,,
null,<img src='img/meet_eg.gif' style='height:400px;''></img>,,html-keyboard-response,106,394986,0.0-6.0,93809,List1B,white,man,,,,null,,,,
null,<p>is meeting</p>,,html-keyboard-response,107,396988,0.0-7.0,93809,List1B,white,man,,,,null,,,,
4431,<p><b>Answer:</b> kate is meeting beth</p>,0,html-button-response,108,401420,0.0-8.0,93809,List1B,white,man,,,,,,,,
null,<img src='img/look_eg.gif' style='height:400px;''></img>,,html-keyboard-response,109,404422,0.0-9.0,93809,List1B,white,man,,,,null,,,,
null,<p>are looking at each other</p>,,html-keyboard-response,110,406423,0.0-10.0,93809,List1B,white,man,,,,null,,,,
4994,<p><b>Answer:</b> luke and dave are looking at each other</p>,0,html-button-response,111,411417,0.0-11.0,93809,List1B,white,man,,,,,,,,
6916,"<p>Ready to start the experiment?</p><br><p><strong>Remember to describe the picture using a full sentence,</strong></p><p><strong>that combines the names of the people with the <i>exact</i> phrase given.</strong></p><p><strong>To receive full payment you must do this correctly.</strong></p><p><strong> You do not need to capitalise names or use punctuation.</strong></p><br><p>Press 'Continue' to begin.</p>",0,html-button-response,112,419336,0.0-12.0,93809,List1B,white,man,,,,,,,,
null,"<div style=""font-size:60px;"">+</div>",,html-keyboard-response,113,420839,0.0-13.0-0.0,93809,List1B,white,man,,,,null,,,,
null,"<img src=""stim_listB/marry5.gif""style=""height:400px;""></stim_listB>",,html-keyboard-response,114,422840,0.0-13.0-1.0,93809,List1B,white,man,,,,null,,,,
null,is marrying,,html-keyboard-response,115,424842,0.0-13.0-2.0,93809,List1B,white,man,,,,null,,,,
21080,,,survey-text,116,445924,0.0-13.0-3.0,93809,List1B,white,man,,,,,"{""Q0"":""mike is marrying luke""}","<img src=""stim_listB/marry5.gif""style=""height:400px;""></stim_listB>",is marrying,
null,"<div style=""font-size:60px;"">+</div>",,html-keyboard-response,117,446426,0.0-13.0-0.1,93809,List1B,white,man,,,,null,,,,
null,"<img src=""stim_listB/play1.gif""style=""height:400px;""></stim_listB>",,html-keyboard-response,118,448428,0.0-13.0-1.1,93809,List1B,white,man,,,,null,,,,
null,is playing with,,html-keyboard-response,119,450429,0.0-13.0-2.1,93809,List1B,white,man,,,,null,,,,
13075,,,survey-text,120,463504,0.0-13.0-3.1,93809,List1B,white,man,,,,,"{""Q0"":""kate is playing with dave""}","<img src=""stim_listB/play1.gif""style=""height:400px;""></stim_listB>",is playing with,
null,"<div style=""font-size:60px;"">+</div>",,html-keyboard-response,121,464005,0.0-13.0-0.2,93809,List1B,white,man,,,,null,,,,
null,"<img src=""stim_listB/fight7.gif""style=""height:400px;""></stim_listB>",,html-keyboard-response,122,466008,0.0-13.0-1.2,93809,List1B,white,man,,,,null,,,,
null,is fighting,,html-keyboard-response,123,468009,0.0-13.0-2.2,93809,List1B,white,man,,,,null,,,,
10838,,,survey-text,124,478848,0.0-13.0-3.2,93809,List1B,white,man,,,,,"{""Q0"":""kate is fighting jane""}","<img src=""stim_listB/fight7.gif""style=""height:400px;""></stim_listB>",is fighting,
null,"<div style=""font-size:60px;"">+</div>",,html-keyboard-response,125,479350,0.0-13.0-0.3,93809,List1B,white,man,,,,null,,,,
null,"<img src=""stim_listB/play5.gif""style=""height:400px;""></stim_listB>",,html-keyboard-response,126,481352,0.0-13.0-1.3,93809,List1B,white,man,,,,null,,,,
null,is playing with,,html-keyboard-response,127,483355,0.0-13.0-2.3,93809,List1B,white,man,,,,null,,,,
16925,,,survey-text,128,500280,0.0-13.0-3.3,93809,List1B,white,man,,,,,"{""Q0"":""mike is playing with dave""}","<img src=""stim_listB/play5.gif""style=""height:400px;""></stim_listB>",is playing with,
null,"<div style=""font-size:60px;"">+</div>",,html-keyboard-response,129,500782,0.0-13.0-0.4,93809,List1B,white,man,,,,null,,,,
null,"<img src=""stim_listB/flirt6.gif""style=""height:400px;""></stim_listB>",,html-keyboard-response,130,502783,0.0-13.0-1.4,93809,List1B,white,man,,,,null,,,,
null,are flirting with each other,,html-keyboard-response,131,504785,0.0-13.0-2.4,93809,List1B,white,man,,,,null,,,,
20350,,,survey-text,132,525135,0.0-13.0-3.4,93809,List1B,white,man,,,,,"{""Q0"":""luke and mike are flirting with each other""}","<img src=""stim_listB/flirt6.gif""style=""height:400px;""></stim_listB>",are flirting with each other,
null,"<div style=""font-size:60px;"">+</div>",,html-keyboard-response,133,525637,0.0-13.0-0.5,93809,List1B,white,man,,,,null,,,,
null,"<img src=""stim_listB/fight4.gif""style=""height:400px;""></stim_listB>",,html-keyboard-response,134,527640,0.0-13.0-1.5,93809,List1B,white,man,,,,null,,,,
null,are fighting each other,,html-keyboard-response,135,529642,0.0-13.0-2.5,93809,List1B,white,man,,,,null,,,,
16183,,,survey-text,136,545825,0.0-13.0-3.5,93809,List1B,white,man,,,,,"{""Q0"":""jane and luke are fighting each other""}","<img src=""stim_listB/fight4.gif""style=""height:400px;""></stim_listB>",are fighting each other,
null,"<div style=""font-size:60px;"">+</div>",,html-keyboard-response,137,546327,0.0-13.0-0.6,93809,List1B,white,man,,,,null,,,,
null,"<img src=""stim_listB/fight5.gif""style=""height:400px;""></stim_listB>",,html-keyboard-response,138,548329,0.0-13.0-1.6,93809,List1B,white,man,,,,null,,,,
null,is fighting,,html-keyboard-response,139,550330,0.0-13.0-2.6,93809,List1B,white,man,,,,null,,,,
10016,,,survey-text,140,560347,0.0-13.0-3.6,93809,List1B,white,man,,,,,"{""Q0"":""mike is fighting dave""}","<img src=""stim_listB/fight5.gif""style=""height:400px;""></stim_listB>",is fighting,
null,"<div style=""font-size:60px;"">+</div>",,html-keyboard-response,141,560849,0.0-13.0-0.7,93809,List1B,white,man,,,,null,,,,
null,"<img src=""stim_listB/flirt1.gif""style=""height:400px;""></stim_listB>",,html-keyboard-response,142,562851,0.0-13.0-1.7,93809,List1B,white,man,,,,null,,,,
null,is flirting with,,html-keyboard-response,143,564852,0.0-13.0-2.7,93809,List1B,white,man,,,,null,,,,
11811,,,survey-text,144,576663,0.0-13.0-3.7,93809,List1B,white,man,,,,,"{""Q0"":""kate is flirting with fred""}","<img src=""stim_listB/flirt1.gif""style=""height:400px;""></stim_listB>",is flirting with,
null,"<div style=""font-size:60px;"">+</div>",,html-keyboard-response,145,577164,0.0-13.0-0.8,93809,List1B,white,man,,,,null,,,,
null,"<img src=""stim_listB/talk5.gif""style=""height:400px;""></stim_listB>",,html-keyboard-response,146,579166,0.0-13.0-1.8,93809,List1B,white,man,,,,null,,,,
null,is talking to,,html-keyboard-response,147,581168,0.0-13.0-2.8,93809,List1B,white,man,,,,null,,,,
14195,,,survey-text,148,595364,0.0-13.0-3.8,93809,List1B,white,man,,,,,"{""Q0"":""fred is talking to luke""}","<img src=""stim_listB/talk5.gif""style=""height:400px;""></stim_listB>",is talking to,
null,"<div style=""font-size:60px;"">+</div>",,html-keyboard-response,149,595865,0.0-13.0-0.9,93809,List1B,white,man,,,,null,,,,
null,"<img src=""stim_listB/marry1.gif""style=""height:400px;""></stim_listB>",,html-keyboard-response,150,597868,0.0-13.0-1.9,93809,List1B,white,man,,,,null,,,,
null,is marrying,,html-keyboard-response,151,599870,0.0-13.0-2.9,93809,List1B,white,man,,,,null,,,,
13395,,,survey-text,152,613266,0.0-13.0-3.9,93809,List1B,white,man,,,,,"{""Q0"":""mike is marrying beth""}","<img src=""stim_listB/marry1.gif""style=""height:400px;""></stim_listB>",is marrying,
null,"<div style=""font-size:60px;"">+</div>",,html-keyboard-response,153,613767,0.0-13.0-0.10,93809,List1B,white,man,,,,null,,,,
null,"<img src=""stim_listB/touch6.gif""style=""height:400px;""></stim_listB>",,html-keyboard-response,154,615769,0.0-13.0-1.10,93809,List1B,white,man,,,,null,,,,
null,are touching each other,,html-keyboard-response,155,617771,0.0-13.0-2.10,93809,List1B,white,man,,,,null,,,,
16108,,,survey-text,156,633880,0.0-13.0-3.10,93809,List1B,white,man,,,,,"{""Q0"":""fred and luke are touching each other""}","<img src=""stim_listB/touch6.gif""style=""height:400px;""></stim_listB>",are touching each other,
null,"<div style=""font-size:60px;"">+</div>",,html-keyboard-response,157,634382,0.0-13.0-0.11,93809,List1B,white,man,,,,null,,,,
null,"<img src=""stim_listB/talk3.gif""style=""height:400px;""></stim_listB>",,html-keyboard-response,158,636383,0.0-13.0-1.11,93809,List1B,white,man,,,,null,,,,
null,is talking to,,html-keyboard-response,159,638386,0.0-13.0-2.11,93809,List1B,white,man,,,,null,,,,
9135,,,survey-text,160,647522,0.0-13.0-3.11,93809,List1B,white,man,,,,,"{""Q0"":""jane is talking to luke""}","<img src=""stim_listB/talk3.gif""style=""height:400px;""></stim_listB>",is talking to,
null,"<div style=""font-size:60px;"">+</div>",,html-keyboard-response,161,648023,0.0-13.0-0.12,93809,List1B,white,man,,,,null,,,,
null,"<img src=""stim_listB/flirt2.gif""style=""height:400px;""></stim_listB>",,html-keyboard-response,162,650025,0.0-13.0-1.12,93809,List1B,white,man,,,,null,,,,
null,are flirting with each other,,html-keyboard-response,163,652028,0.0-13.0-2.12,93809,List1B,white,man,,,,null,,,,
21305,,,survey-text,164,673333,0.0-13.0-3.12,93809,List1B,white,man,,,,,"{""Q0"":""beth and mike are flirting together""}","<img src=""stim_listB/flirt2.gif""style=""height:400px;""></stim_listB>",are flirting with each other,
null,"<div style=""font-size:60px;"">+</div>",,html-keyboard-response,165,673834,0.0-13.0-0.13,93809,List1B,white,man,,,,null,,,,
null,"<img src=""stim_listB/play3.gif""style=""height:400px;""></stim_listB>",,html-keyboard-response,166,675838,0.0-13.0-1.13,93809,List1B,white,man,,,,null,,,,
null,is playing with,,html-keyboard-response,167,677840,0.0-13.0-2.13,93809,List1B,white,man,,,,null,,,,
15738,,,survey-text,168,693580,0.0-13.0-3.13,93809,List1B,white,man,,,,,"{""Q0"":""jane is playing with dave""}","<img src=""stim_listB/play3.gif""style=""height:400px;""></stim_listB>",is playing with,
null,"<div style=""font-size:60px;"">+</div>",,html-keyboard-response,169,694083,0.0-13.0-0.14,93809,List1B,white,man,,,,null,,,,
null,"<img src=""stim_listB/touch8.gif""style=""height:400px;""></stim_listB>",,html-keyboard-response,170,696085,0.0-13.0-1.14,93809,List1B,white,man,,,,null,,,,
null,are touching each other,,html-keyboard-response,171,698085,0.0-13.0-2.14,93809,List1B,white,man,,,,null,,,,
23766,,,survey-text,172,721852,0.0-13.0-3.14,93809,List1B,white,man,,,,,"{""Q0"":""ruth and beth are touching each other""}","<img src=""stim_listB/touch8.gif""style=""height:400px;""></stim_listB>",are touching each other,
null,"<div style=""font-size:60px;"">+</div>",,html-keyboard-response,173,722353,0.0-13.0-0.15,93809,List1B,white,man,,,,null,,,,
null,"<img src=""stim_listB/talk7.gif""style=""height:400px;""></stim_listB>",,html-keyboard-response,174,724355,0.0-13.0-1.15,93809,List1B,white,man,,,,null,,,,
null,is talking to,,html-keyboard-response,175,726356,0.0-13.0-2.15,93809,List1B,white,man,,,,null,,,,
9663,,,survey-text,176,736020,0.0-13.0-3.15,93809,List1B,white,man,,,,,"{""Q0"":""ruth is talking to beth""}","<img src=""stim_listB/talk7.gif""style=""height:400px;""></stim_listB>",is talking to,
null,"<div style=""font-size:60px;"">+</div>",,html-keyboard-response,177,736522,0.0-13.0-0.16,93809,List1B,white,man,,,,null,,,,
null,"<img src=""stim_listB/touch5.gif""style=""height:400px;""></stim_listB>",,html-keyboard-response,178,738523,0.0-13.0-1.16,93809,List1B,white,man,,,,null,,,,
null,is touching,,html-keyboard-response,179,740524,0.0-13.0-2.16,93809,List1B,white,man,,,,null,,,,
10308,,,survey-text,180,750832,0.0-13.0-3.16,93809,List1B,white,man,,,,,"{""Q0"":""mike is touching dave""}","<img src=""stim_listB/touch5.gif""style=""height:400px;""></stim_listB>",is touching,
null,"<div style=""font-size:60px;"">+</div>",,html-keyboard-response,181,751333,0.0-13.0-0.17,93809,List1B,white,man,,,,null,,,,
null,"<img src=""stim_listB/talk2.gif""style=""height:400px;""></stim_listB>",,html-keyboard-response,182,753335,0.0-13.0-1.17,93809,List1B,white,man,,,,null,,,,
null,are talking to each other,,html-keyboard-response,183,755336,0.0-13.0-2.17,93809,List1B,white,man,,,,null,,,,
11031,,,survey-text,184,766368,0.0-13.0-3.17,93809,List1B,white,man,,,,,"{""Q0"":""mike is talking to ruth""}","<img src=""stim_listB/talk2.gif""style=""height:400px;""></stim_listB>",are talking to each other,
null,"<div style=""font-size:60px;"">+</div>",,html-keyboard-response,185,766871,0.0-13.0-0.18,93809,List1B,white,man,,,,null,,,,
null,"<img src=""stim_listB/shout1.gif""style=""height:400px;""></stim_listB>",,html-keyboard-response,186,768873,0.0-13.0-1.18,93809,List1B,white,man,,,,null,,,,
null,is shouting at,,html-keyboard-response,187,770874,0.0-13.0-2.18,93809,List1B,white,man,,,,null,,,,
9854,,,survey-text,188,780730,0.0-13.0-3.18,93809,List1B,white,man,,,,,"{""Q0"":""ruth is shouting at fred""}","<img src=""stim_listB/shout1.gif""style=""height:400px;""></stim_listB>",is shouting at,
null,"<div style=""font-size:60px;"">+</div>",,html-keyboard-response,189,781232,0.0-13.0-0.19,93809,List1B,white,man,,,,null,,,,
null,"<img src=""stim_listB/dance3.gif""style=""height:400px;""></stim_listB>",,html-keyboard-response,190,783233,0.0-13.0-1.19,93809,List1B,white,man,,,,null,,,,
null,is dancing with,,html-keyboard-response,191,785235,0.0-13.0-2.19,93809,List1B,white,man,,,,null,,,,
9682,,,survey-text,192,794918,0.0-13.0-3.19,93809,List1B,white,man,,,,,"{""Q0"":""jane is dancing with luke""}","<img src=""stim_listB/dance3.gif""style=""height:400px;""></stim_listB>",is dancing with,
8332,"<img src='img/portrait_matrix_list1.jpg' style='width:900px;height:500px;''></img><p>If you have memorised all the portraits and names and are ready to start, press Continue.</p><p><strong>Please note: Your memory of these faces will be tested 4 times during this experiment.</strong></p>",0,html-button-response,193,803252,0.0-14.0-0.0,93809,List1B,white,man,,,,,,,,
2855,"<img src=""portrait/WM2.jpg""style=""height:400px;""></img>",7,html-button-response,194,807110,0.0-14.0-1.0,93809,List1B,white,man,,TRUE,7,,,,,
null,CORRECT,,html-keyboard-response,195,808614,0.0-14.0-2.0-0.0,93809,List1B,white,man,,,,null,,,,
1629,"<img src=""portrait/BW2.jpg""style=""height:400px;""></img>",2,html-button-response,196,810244,0.0-14.0-4.0,93809,List1B,white,man,,TRUE,2,,,,,
null,CORRECT,,html-keyboard-response,197,811746,0.0-14.0-5.0-0.0,93809,List1B,white,man,,,,null,,,,
1638,"<img src=""portrait/WM1.jpg""style=""height:400px;""></img>",6,html-button-response,198,813386,0.0-14.0-7.0,93809,List1B,white,man,,TRUE,6,,,,,
null,CORRECT,,html-keyboard-response,199,814889,0.0-14.0-8.0-0.0,93809,List1B,white,man,,,,null,,,,
1870,"<img src=""portrait/WW1.jpg""style=""height:400px;""></img>",1,html-button-response,200,816760,0.0-14.0-10.0,93809,List1B,white,man,,TRUE,1,,,,,
null,CORRECT,,html-keyboard-response,201,818263,0.0-14.0-11.0-0.0,93809,List1B,white,man,,,,null,,,,
2054,"<img src=""portrait/BM2.jpg""style=""height:400px;""></img>",5,html-button-response,202,820318,0.0-14.0-13.0,93809,List1B,white,man,,TRUE,5,,,,,
null,CORRECT,,html-keyboard-response,203,821821,0.0-14.0-14.0-0.0,93809,List1B,white,man,,,,null,,,,
1169,"<img src=""portrait/WW2.jpg""style=""height:400px;""></img>",3,html-button-response,204,822992,0.0-14.0-16.0,93809,List1B,white,man,,TRUE,3,,,,,
null,CORRECT,,html-keyboard-response,205,824493,0.0-14.0-17.0-0.0,93809,List1B,white,man,,,,null,,,,
1500,"<img src=""portrait/BW1.jpg""style=""height:400px;""></img>",0,html-button-response,206,825996,0.0-14.0-19.0,93809,List1B,white,man,,TRUE,0,,,,,
null,CORRECT,,html-keyboard-response,207,827497,0.0-14.0-20.0-0.0,93809,List1B,white,man,,,,null,,,,
1811,"<img src=""portrait/BM1.jpg""style=""height:400px;""></img>",4,html-button-response,208,829310,0.0-14.0-22.0,93809,List1B,white,man,,TRUE,4,,,,,
null,CORRECT,,html-keyboard-response,209,830812,0.0-14.0-23.0-0.0,93809,List1B,white,man,,,,null,,,,
1726,<p>You got 8 out of 8 right first time. Press Continue.</p>,0,html-button-response,210,832540,0.0-14.0-25.0,93809,List1B,white,man,,,,,,,,
null,"<div style=""font-size:60px;"">+</div>",,html-keyboard-response,211,834042,0.0-15.0-0.0,93809,List1B,white,man,,,,null,,,,
null,"<img src=""stim_listB/fight8.gif""style=""height:400px;""></stim_listB>",,html-keyboard-response,212,836045,0.0-15.0-1.0,93809,List1B,white,man,,,,null,,,,
null,are fighting each other,,html-keyboard-response,213,838046,0.0-15.0-2.0,93809,List1B,white,man,,,,null,,,,
21602,,,survey-text,214,859650,0.0-15.0-3.0,93809,List1B,white,man,,,,,"{""Q0"":""ruth and beth are fighting each other""}","<img src=""stim_listB/fight8.gif""style=""height:400px;""></stim_listB>",are fighting each other,
null,"<div style=""font-size:60px;"">+</div>",,html-keyboard-response,215,860151,0.0-15.0-0.1,93809,List1B,white,man,,,,null,,,,
null,"<img src=""stim_listB/marry7.gif""style=""height:400px;""></stim_listB>",,html-keyboard-response,216,862153,0.0-15.0-1.1,93809,List1B,white,man,,,,null,,,,
null,is marrying,,html-keyboard-response,217,864154,0.0-15.0-2.1,93809,List1B,white,man,,,,null,,,,
18150,,,survey-text,218,882305,0.0-15.0-3.1,93809,List1B,white,man,,,,,"{""Q0"":""kate is marrying jane""}","<img src=""stim_listB/marry7.gif""style=""height:400px;""></stim_listB>",is marrying,
null,"<div style=""font-size:60px;"">+</div>",,html-keyboard-response,219,882807,0.0-15.0-0.2,93809,List1B,white,man,,,,null,,,,
null,"<img src=""stim_listB/play4.gif""style=""height:400px;""></stim_listB>",,html-keyboard-response,220,884809,0.0-15.0-1.2,93809,List1B,white,man,,,,null,,,,
null,are playing with each other,,html-keyboard-response,221,886810,0.0-15.0-2.2,93809,List1B,white,man,,,,null,,,,
14624,,,survey-text,222,901435,0.0-15.0-3.2,93809,List1B,white,man,,,,,"{""Q0"":""jane and luke are playing with each other""}","<img src=""stim_listB/play4.gif""style=""height:400px;""></stim_listB>",are playing with each other,
null,"<div style=""font-size:60px;"">+</div>",,html-keyboard-response,223,901937,0.0-15.0-0.3,93809,List1B,white,man,,,,null,,,,
null,"<img src=""stim_listB/flirt3.gif""style=""height:400px;""></stim_listB>",,html-keyboard-response,224,903939,0.0-15.0-1.3,93809,List1B,white,man,,,,null,,,,
null,is flirting with,,html-keyboard-response,225,905940,0.0-15.0-2.3,93809,List1B,white,man,,,,null,,,,
9805,,,survey-text,226,915745,0.0-15.0-3.3,93809,List1B,white,man,,,,,"{""Q0"":""jane is flirting with luke""}","<img src=""stim_listB/flirt3.gif""style=""height:400px;""></stim_listB>",is flirting with,
null,"<div style=""font-size:60px;"">+</div>",,html-keyboard-response,227,916248,0.0-15.0-0.4,93809,List1B,white,man,,,,null,,,,
null,"<img src=""stim_listB/argue8.gif""style=""height:400px;""></stim_listB>",,html-keyboard-response,228,918250,0.0-15.0-1.4,93809,List1B,white,man,,,,null,,,,
null,are arguing with each other,,html-keyboard-response,229,920252,0.0-15.0-2.4,93809,List1B,white,man,,,,null,,,,
18538,,,survey-text,230,938791,0.0-15.0-3.4,93809,List1B,white,man,,,,,"{""Q0"":""beth and jane are arguing with each other""}","<img src=""stim_listB/argue8.gif""style=""height:400px;""></stim_listB>",are arguing with each other,
null,"<div style=""font-size:60px;"">+</div>",,html-keyboard-response,231,939292,0.0-15.0-0.5,93809,List1B,white,man,,,,null,,,,
null,"<img src=""stim_listB/dance5.gif""style=""height:400px;""></stim_listB>",,html-keyboard-response,232,941294,0.0-15.0-1.5,93809,List1B,white,man,,,,null,,,,
null,is dancing with,,html-keyboard-response,233,943295,0.0-15.0-2.5,93809,List1B,white,man,,,,null,,,,
13695,,,survey-text,234,956991,0.0-15.0-3.5,93809,List1B,white,man,,,,,"{""Q0"":""fred is dancing with dave""}","<img src=""stim_listB/dance5.gif""style=""height:400px;""></stim_listB>",is dancing with,
null,"<div style=""font-size:60px;"">+</div>",,html-keyboard-response,235,957494,0.0-15.0-0.6,93809,List1B,white,man,,,,null,,,,
null,"<img src=""stim_listB/kiss1.gif""style=""height:400px;""></stim_listB>",,html-keyboard-response,236,959497,0.0-15.0-1.6,93809,List1B,white,man,,,,null,,,,
null,is kissing,,html-keyboard-response,237,961498,0.0-15.0-2.6,93809,List1B,white,man,,,,null,,,,
10825,,,survey-text,238,972324,0.0-15.0-3.6,93809,List1B,white,man,,,,,"{""Q0"":""fred is kissing beth""}","<img src=""stim_listB/kiss1.gif""style=""height:400px;""></stim_listB>",is kissing,
null,"<div style=""font-size:60px;"">+</div>",,html-keyboard-response,239,972825,0.0-15.0-0.7,93809,List1B,white,man,,,,null,,,,
null,"<img src=""stim_listB/kiss5.gif""style=""height:400px;""></stim_listB>",,html-keyboard-response,240,974827,0.0-15.0-1.7,93809,List1B,white,man,,,,null,,,,
null,is kissing,,html-keyboard-response,241,976828,0.0-15.0-2.7,93809,List1B,white,man,,,,null,,,,
7789,,,survey-text,242,984617,0.0-15.0-3.7,93809,List1B,white,man,,,,,"{""Q0"":""fred is kissing luke""}","<img src=""stim_listB/kiss5.gif""style=""height:400px;""></stim_listB>",is kissing,
null,"<div style=""font-size:60px;"">+</div>",,html-keyboard-response,243,985119,0.0-15.0-0.8,93809,List1B,white,man,,,,null,,,,
null,"<img src=""stim_listB/dance7.gif""style=""height:400px;""></stim_listB>",,html-keyboard-response,244,987122,0.0-15.0-1.8,93809,List1B,white,man,,,,null,,,,
null,is dancing with,,html-keyboard-response,245,989123,0.0-15.0-2.8,93809,List1B,white,man,,,,null,,,,
9881,,,survey-text,246,999005,0.0-15.0-3.8,93809,List1B,white,man,,,,,"{""Q0"":""jane is dancing with beth""}","<img src=""stim_listB/dance7.gif""style=""height:400px;""></stim_listB>",is dancing with,
null,"<div style=""font-size:60px;"">+</div>",,html-keyboard-response,247,999507,0.0-15.0-0.9,93809,List1B,white,man,,,,null,,,,
null,"<img src=""stim_listB/flirt4.gif""style=""height:400px;""></stim_listB>",,html-keyboard-response,248,1001509,0.0-15.0-1.9,93809,List1B,white,man,,,,null,,,,
null,are flirting with each other,,html-keyboard-response,249,1003510,0.0-15.0-2.9,93809,List1B,white,man,,,,null,,,,
26792,,,survey-text,250,1030303,0.0-15.0-3.9,93809,List1B,white,man,,,,,"{""Q0"":""dave is flirting with ruth""}","<img src=""stim_listB/flirt4.gif""style=""height:400px;""></stim_listB>",are flirting with each other,
null,"<div style=""font-size:60px;"">+</div>",,html-keyboard-response,251,1030804,0.0-15.0-0.10,93809,List1B,white,man,,,,null,,,,
null,"<img src=""stim_listB/touch4.gif""style=""height:400px;""></stim_listB>",,html-keyboard-response,252,1032807,0.0-15.0-1.10,93809,List1B,white,man,,,,null,,,,
null,are touching each other,,html-keyboard-response,253,1034809,0.0-15.0-2.10,93809,List1B,white,man,,,,null,,,,
14064,,,survey-text,254,1048873,0.0-15.0-3.10,93809,List1B,white,man,,,,,"{""Q0"":""jane and luke are touching each other""}","<img src=""stim_listB/touch4.gif""style=""height:400px;""></stim_listB>",are touching each other,
null,"<div style=""font-size:60px;"">+</div>",,html-keyboard-response,255,1049374,0.0-15.0-0.11,93809,List1B,white,man,,,,null,,,,
null,"<img src=""stim_listB/argue6.gif""style=""height:400px;""></stim_listB>",,html-keyboard-response,256,1051376,0.0-15.0-1.11,93809,List1B,white,man,,,,null,,,,
null,are arguing with each other,,html-keyboard-response,257,1053377,0.0-15.0-2.11,93809,List1B,white,man,,,,null,,,,
13110,,,survey-text,258,1066489,0.0-15.0-3.11,93809,List1B,white,man,,,,,"{""Q0"":""fred and dave are arguing with each other""}","<img src=""stim_listB/argue6.gif""style=""height:400px;""></stim_listB>",are arguing with each other,
null,"<div style=""font-size:60px;"">+</div>",,html-keyboard-response,259,1066991,0.0-15.0-0.12,93809,List1B,white,man,,,,null,,,,
null,"<img src=""stim_listB/play2.gif""style=""height:400px;""></stim_listB>",,html-keyboard-response,260,1068993,0.0-15.0-1.12,93809,List1B,white,man,,,,null,,,,
null,are playing with each other,,html-keyboard-response,261,1070995,0.0-15.0-2.12,93809,List1B,white,man,,,,null,,,,
13983,,,survey-text,262,1084979,0.0-15.0-3.12,93809,List1B,white,man,,,,,"{""Q0"":""beth and fred are playing with each other""}","<img src=""stim_listB/play2.gif""style=""height:400px;""></stim_listB>",are playing with each other,
null,"<div style=""font-size:60px;"">+</div>",,html-keyboard-response,263,1085481,0.0-15.0-0.13,93809,List1B,white,man,,,,null,,,,
null,"<img src=""stim_listB/flirt5.gif""style=""height:400px;""></stim_listB>",,html-keyboard-response,264,1087483,0.0-15.0-1.13,93809,List1B,white,man,,,,null,,,,
null,is flirting with,,html-keyboard-response,265,1089484,0.0-15.0-2.13,93809,List1B,white,man,,,,null,,,,
12212,,,survey-text,266,1101697,0.0-15.0-3.13,93809,List1B,white,man,,,,,"{""Q0"":""fred is flirting with dave""}","<img src=""stim_listB/flirt5.gif""style=""height:400px;""></stim_listB>",is flirting with,
null,"<div style=""font-size:60px;"">+</div>",,html-keyboard-response,267,1102198,0.0-15.0-0.14,93809,List1B,white,man,,,,null,,,,
null,"<img src=""stim_listB/marry8.gif""style=""height:400px;""></stim_listB>",,html-keyboard-response,268,1104199,0.0-15.0-1.14,93809,List1B,white,man,,,,null,,,,
null,are marrying each other,,html-keyboard-response,269,1106201,0.0-15.0-2.14,93809,List1B,white,man,,,,null,,,,
13895,,,survey-text,270,1120097,0.0-15.0-3.14,93809,List1B,white,man,,,,,"{""Q0"":""beth is marrying jane""}","<img src=""stim_listB/marry8.gif""style=""height:400px;""></stim_listB>",are marrying each other,
null,"<div style=""font-size:60px;"">+</div>",,html-keyboard-response,271,1120599,0.0-15.0-0.15,93809,List1B,white,man,,,,null,,,,
null,"<img src=""stim_listB/shout4.gif""style=""height:400px;""></stim_listB>",,html-keyboard-response,272,1122601,0.0-15.0-1.15,93809,List1B,white,man,,,,null,,,,
null,are shouting at each other,,html-keyboard-response,273,1124602,0.0-15.0-2.15,93809,List1B,white,man,,,,null,,,,
13754,,,survey-text,274,1138357,0.0-15.0-3.15,93809,List1B,white,man,,,,,"{""Q0"":""dave and jane are shouting at each other""}","<img src=""stim_listB/shout4.gif""style=""height:400px;""></stim_listB>",are shouting at each other,
null,"<div style=""font-size:60px;"">+</div>",,html-keyboard-response,275,1138859,0.0-15.0-0.16,93809,List1B,white,man,,,,null,,,,
null,"<img src=""stim_listB/kiss6.gif""style=""height:400px;""></stim_listB>",,html-keyboard-response,276,1140861,0.0-15.0-1.16,93809,List1B,white,man,,,,null,,,,
null,are kissing each other,,html-keyboard-response,277,1142862,0.0-15.0-2.16,93809,List1B,white,man,,,,null,,,,
12520,,,survey-text,278,1155383,0.0-15.0-3.16,93809,List1B,white,man,,,,,"{""Q0"":""mike and dave are kissing each other""}","<img src=""stim_listB/kiss6.gif""style=""height:400px;""></stim_listB>",are kissing each other,
null,"<div style=""font-size:60px;"">+</div>",,html-keyboard-response,279,1155884,0.0-15.0-0.17,93809,List1B,white,man,,,,null,,,,
null,"<img src=""stim_listB/dance8.gif""style=""height:400px;""></stim_listB>",,html-keyboard-response,280,1157886,0.0-15.0-1.17,93809,List1B,white,man,,,,null,,,,
null,are dancing with each other,,html-keyboard-response,281,1159888,0.0-15.0-2.17,93809,List1B,white,man,,,,null,,,,
18545,,,survey-text,282,1178435,0.0-15.0-3.17,93809,List1B,white,man,,,,,"{""Q0"":""kate and ruth are dancing with each other""}","<img src=""stim_listB/dance8.gif""style=""height:400px;""></stim_listB>",are dancing with each other,
null,"<div style=""font-size:60px;"">+</div>",,html-keyboard-response,283,1178937,0.0-15.0-0.18,93809,List1B,white,man,,,,null,,,,
null,"<img src=""stim_listB/marry4.gif""style=""height:400px;""></stim_listB>",,html-keyboard-response,284,1180938,0.0-15.0-1.18,93809,List1B,white,man,,,,null,,,,
null,are marrying each other,,html-keyboard-response,285,1182939,0.0-15.0-2.18,93809,List1B,white,man,,,,null,,,,
13637,,,survey-text,286,1196577,0.0-15.0-3.18,93809,List1B,white,man,,,,,"{""Q0"":""luke and jane are marrying each other""}","<img src=""stim_listB/marry4.gif""style=""height:400px;""></stim_listB>",are marrying each other,
null,"<div style=""font-size:60px;"">+</div>",,html-keyboard-response,287,1197079,0.0-15.0-0.19,93809,List1B,white,man,,,,null,,,,
null,"<img src=""stim_listB/dance1.gif""style=""height:400px;""></stim_listB>",,html-keyboard-response,288,1199082,0.0-15.0-1.19,93809,List1B,white,man,,,,null,,,,
null,is dancing with,,html-keyboard-response,289,1201083,0.0-15.0-2.19,93809,List1B,white,man,,,,null,,,,
11595,,,survey-text,290,1212679,0.0-15.0-3.19,93809,List1B,white,man,,,,,"{""Q0"":""fred is dancing with kate""}","<img src=""stim_listB/dance1.gif""style=""height:400px;""></stim_listB>",is dancing with,
10317,"<img src='img/portrait_matrix_list1.jpg' style='width:900px;height:500px;''></img><p>If you have memorised all the portraits and names and are ready to start, press Continue.</p><p><strong>Please note: Your memory of these faces will be tested 4 times during this experiment.</strong></p>",0,html-button-response,291,1222997,0.0-16.0-0.0,93809,List1B,white,man,,,,,,,,
1753,"<img src=""portrait/BM1.jpg""style=""height:400px;""></img>",4,html-button-response,292,1225753,0.0-16.0-1.0,93809,List1B,white,man,,TRUE,4,,,,,
null,CORRECT,,html-keyboard-response,293,1227256,0.0-16.0-2.0-0.0,93809,List1B,white,man,,,,null,,,,
1877,"<img src=""portrait/BW2.jpg""style=""height:400px;""></img>",2,html-button-response,294,1229134,0.0-16.0-4.0,93809,List1B,white,man,,TRUE,2,,,,,
null,CORRECT,,html-keyboard-response,295,1230636,0.0-16.0-5.0-0.0,93809,List1B,white,man,,,,null,,,,
1720,"<img src=""portrait/WW1.jpg""style=""height:400px;""></img>",1,html-button-response,296,1232357,0.0-16.0-7.0,93809,List1B,white,man,,TRUE,1,,,,,
null,CORRECT,,html-keyboard-response,297,1233860,0.0-16.0-8.0-0.0,93809,List1B,white,man,,,,null,,,,
1496,"<img src=""portrait/WW2.jpg""style=""height:400px;""></img>",3,html-button-response,298,1235357,0.0-16.0-10.0,93809,List1B,white,man,,TRUE,3,,,,,
null,CORRECT,,html-keyboard-response,299,1236860,0.0-16.0-11.0-0.0,93809,List1B,white,man,,,,null,,,,
4624,"<img src=""portrait/BM2.jpg""style=""height:400px;""></img>",5,html-button-response,300,1241486,0.0-16.0-13.0,93809,List1B,white,man,,TRUE,5,,,,,
null,CORRECT,,html-keyboard-response,301,1242988,0.0-16.0-14.0-0.0,93809,List1B,white,man,,,,null,,,,
1505,"<img src=""portrait/WM1.jpg""style=""height:400px;""></img>",6,html-button-response,302,1244496,0.0-16.0-16.0,93809,List1B,white,man,,TRUE,6,,,,,
null,CORRECT,,html-keyboard-response,303,1245998,0.0-16.0-17.0-0.0,93809,List1B,white,man,,,,null,,,,
1443,"<img src=""portrait/WM2.jpg""style=""height:400px;""></img>",7,html-button-response,304,1247441,0.0-16.0-19.0,93809,List1B,white,man,,TRUE,7,,,,,
null,CORRECT,,html-keyboard-response,305,1248944,0.0-16.0-20.0-0.0,93809,List1B,white,man,,,,null,,,,
1190,"<img src=""portrait/BW1.jpg""style=""height:400px;""></img>",0,html-button-response,306,1250135,0.0-16.0-22.0,93809,List1B,white,man,,TRUE,0,,,,,
null,CORRECT,,html-keyboard-response,307,1251638,0.0-16.0-23.0-0.0,93809,List1B,white,man,,,,null,,,,
1578,<p>You got 8 out of 8 right first time. Press Continue.</p>,0,html-button-response,308,1253218,0.0-16.0-25.0,93809,List1B,white,man,,,,,,,,
null,"<div style=""font-size:60px;"">+</div>",,html-keyboard-response,309,1254722,0.0-17.0-0.0,93809,List1B,white,man,,,,null,,,,
null,"<img src=""stim_listB/marry3.gif""style=""height:400px;""></stim_listB>",,html-keyboard-response,310,1256725,0.0-17.0-1.0,93809,List1B,white,man,,,,null,,,,
null,is marrying,,html-keyboard-response,311,1258726,0.0-17.0-2.0,93809,List1B,white,man,,,,null,,,,
12260,,,survey-text,312,1270987,0.0-17.0-3.0,93809,List1B,white,man,,,,,"{""Q0"":""ruth is marrying dave""}","<img src=""stim_listB/marry3.gif""style=""height:400px;""></stim_listB>",is marrying,
null,"<div style=""font-size:60px;"">+</div>",,html-keyboard-response,313,1271489,0.0-17.0-0.1,93809,List1B,white,man,,,,null,,,,
null,"<img src=""stim_listB/argue3.gif""style=""height:400px;""></stim_listB>",,html-keyboard-response,314,1273491,0.0-17.0-1.1,93809,List1B,white,man,,,,null,,,,
null,is arguing with,,html-keyboard-response,315,1275493,0.0-17.0-2.1,93809,List1B,white,man,,,,null,,,,
10943,,,survey-text,316,1286438,0.0-17.0-3.1,93809,List1B,white,man,,,,,"{""Q0"":""ruth is arguing with dave""}","<img src=""stim_listB/argue3.gif""style=""height:400px;""></stim_listB>",is arguing with,
null,"<div style=""font-size:60px;"">+</div>",,html-keyboard-response,317,1286939,0.0-17.0-0.2,93809,List1B,white,man,,,,null,,,,
null,"<img src=""stim_listB/flirt8.gif""style=""height:400px;""></stim_listB>",,html-keyboard-response,318,1288942,0.0-17.0-1.2,93809,List1B,white,man,,,,null,,,,
null,are flirting with each other,,html-keyboard-response,319,1290943,0.0-17.0-2.2,93809,List1B,white,man,,,,null,,,,
17151,,,survey-text,320,1308095,0.0-17.0-3.2,93809,List1B,white,man,,,,,"{""Q0"":""kate and jane are flirting with each other""}","<img src=""stim_listB/flirt8.gif""style=""height:400px;""></stim_listB>",are flirting with each other,
null,"<div style=""font-size:60px;"">+</div>",,html-keyboard-response,321,1308597,0.0-17.0-0.3,93809,List1B,white,man,,,,null,,,,
null,"<img src=""stim_listB/talk4.gif""style=""height:400px;""></stim_listB>",,html-keyboard-response,322,1310599,0.0-17.0-1.3,93809,List1B,white,man,,,,null,,,,
null,are talking to each other,,html-keyboard-response,323,1312601,0.0-17.0-2.3,93809,List1B,white,man,,,,null,,,,
17728,,,survey-text,324,1330329,0.0-17.0-3.3,93809,List1B,white,man,,,,,"{""Q0"":""dave and ruth are talking to each other""}","<img src=""stim_listB/talk4.gif""style=""height:400px;""></stim_listB>",are talking to each other,
null,"<div style=""font-size:60px;"">+</div>",,html-keyboard-response,325,1330830,0.0-17.0-0.4,93809,List1B,white,man,,,,null,,,,
null,"<img src=""stim_listB/dance6.gif""style=""height:400px;""></stim_listB>",,html-keyboard-response,326,1332832,0.0-17.0-1.4,93809,List1B,white,man,,,,null,,,,
null,are dancing with each other,,html-keyboard-response,327,1334834,0.0-17.0-2.4,93809,List1B,white,man,,,,null,,,,
18639,,,survey-text,328,1353473,0.0-17.0-3.4,93809,List1B,white,man,,,,,"{""Q0"":""mike and luke are dancing with each other""}","<img src=""stim_listB/dance6.gif""style=""height:400px;""></stim_listB>",are dancing with each other,
null,"<div style=""font-size:60px;"">+</div>",,html-keyboard-response,329,1353974,0.0-17.0-0.5,93809,List1B,white,man,,,,null,,,,
null,"<img src=""stim_listB/shout8.gif""style=""height:400px;""></stim_listB>",,html-keyboard-response,330,1355976,0.0-17.0-1.5,93809,List1B,white,man,,,,null,,,,
null,are shouting at each other,,html-keyboard-response,331,1357977,0.0-17.0-2.5,93809,List1B,white,man,,,,null,,,,
16179,,,survey-text,332,1374157,0.0-17.0-3.5,93809,List1B,white,man,,,,,"{""Q0"":""kate and jane are shouting at each other""}","<img src=""stim_listB/shout8.gif""style=""height:400px;""></stim_listB>",are shouting at each other,
null,"<div style=""font-size:60px;"">+</div>",,html-keyboard-response,333,1374660,0.0-17.0-0.6,93809,List1B,white,man,,,,null,,,,
null,"<img src=""stim_listB/argue1.gif""style=""height:400px;""></stim_listB>",,html-keyboard-response,334,1376662,0.0-17.0-1.6,93809,List1B,white,man,,,,null,,,,
null,is arguing with,,html-keyboard-response,335,1378663,0.0-17.0-2.6,93809,List1B,white,man,,,,null,,,,
15719,,,survey-text,336,1394383,0.0-17.0-3.6,93809,List1B,white,man,,,,,"{""Q0"":""beth is arguing with mike""}","<img src=""stim_listB/argue1.gif""style=""height:400px;""></stim_listB>",is arguing with,
null,"<div style=""font-size:60px;"">+</div>",,html-keyboard-response,337,1394885,0.0-17.0-0.7,93809,List1B,white,man,,,,null,,,,
null,"<img src=""stim_listB/fight3.gif""style=""height:400px;""></stim_listB>",,html-keyboard-response,338,1396887,0.0-17.0-1.7,93809,List1B,white,man,,,,null,,,,
null,is fighting,,html-keyboard-response,339,1398888,0.0-17.0-2.7,93809,List1B,white,man,,,,null,,,,
10313,,,survey-text,340,1409201,0.0-17.0-3.7,93809,List1B,white,man,,,,,"{""Q0"":""jane is fighting dave""}","<img src=""stim_listB/fight3.gif""style=""height:400px;""></stim_listB>",is fighting,
null,"<div style=""font-size:60px;"">+</div>",,html-keyboard-response,341,1409703,0.0-17.0-0.8,93809,List1B,white,man,,,,null,,,,
null,"<img src=""stim_listB/argue5.gif""style=""height:400px;""></stim_listB>",,html-keyboard-response,342,1411705,0.0-17.0-1.8,93809,List1B,white,man,,,,null,,,,
null,is arguing with,,html-keyboard-response,343,1413706,0.0-17.0-2.8,93809,List1B,white,man,,,,null,,,,
11342,,,survey-text,344,1425049,0.0-17.0-3.8,93809,List1B,white,man,,,,,"{""Q0"":""luke is arguing with mike""}","<img src=""stim_listB/argue5.gif""style=""height:400px;""></stim_listB>",is arguing with,
null,"<div style=""font-size:60px;"">+</div>",,html-keyboard-response,345,1425550,0.0-17.0-0.9,93809,List1B,white,man,,,,null,,,,
null,"<img src=""stim_listB/flirt7.gif""style=""height:400px;""></stim_listB>",,html-keyboard-response,346,1427553,0.0-17.0-1.9,93809,List1B,white,man,,,,null,,,,
null,is flirting with,,html-keyboard-response,347,1429555,0.0-17.0-2.9,93809,List1B,white,man,,,,null,,,,
19722,,,survey-text,348,1449279,0.0-17.0-3.9,93809,List1B,white,man,,,,,"{""Q0"":""jane is flirting with ruth""}","<img src=""stim_listB/flirt7.gif""style=""height:400px;""></stim_listB>",is flirting with,
null,"<div style=""font-size:60px;"">+</div>",,html-keyboard-response,349,1449780,0.0-17.0-0.10,93809,List1B,white,man,,,,null,,,,
null,"<img src=""stim_listB/shout2.gif""style=""height:400px;""></stim_listB>",,html-keyboard-response,350,1451781,0.0-17.0-1.10,93809,List1B,white,man,,,,null,,,,
null,are shouting at each other,,html-keyboard-response,351,1453783,0.0-17.0-2.10,93809,List1B,white,man,,,,null,,,,
13417,,,survey-text,352,1467201,0.0-17.0-3.10,93809,List1B,white,man,,,,,"{""Q0"":""kate and mike are shouting at each other""}","<img src=""stim_listB/shout2.gif""style=""height:400px;""></stim_listB>",are shouting at each other,
null,"<div style=""font-size:60px;"">+</div>",,html-keyboard-response,353,1467702,0.0-17.0-0.11,93809,List1B,white,man,,,,null,,,,
null,"<img src=""stim_listB/touch7.gif""style=""height:400px;""></stim_listB>",,html-keyboard-response,354,1469704,0.0-17.0-1.11,93809,List1B,white,man,,,,null,,,,
null,is touching,,html-keyboard-response,355,1471705,0.0-17.0-2.11,93809,List1B,white,man,,,,null,,,,
10753,,,survey-text,356,1482458,0.0-17.0-3.11,93809,List1B,white,man,,,,,"{""Q0"":""jane is touching kate""}","<img src=""stim_listB/touch7.gif""style=""height:400px;""></stim_listB>",is touching,
null,"<div style=""font-size:60px;"">+</div>",,html-keyboard-response,357,1482960,0.0-17.0-0.12,93809,List1B,white,man,,,,null,,,,
null,"<img src=""stim_listB/touch1.gif""style=""height:400px;""></stim_listB>",,html-keyboard-response,358,1484962,0.0-17.0-1.12,93809,List1B,white,man,,,,null,,,,
null,is touching,,html-keyboard-response,359,1486963,0.0-17.0-2.12,93809,List1B,white,man,,,,null,,,,
11466,,,survey-text,360,1498430,0.0-17.0-3.12,93809,List1B,white,man,,,,,"{""Q0"":""kate is touching mike""}","<img src=""stim_listB/touch1.gif""style=""height:400px;""></stim_listB>",is touching,
null,"<div style=""font-size:60px;"">+</div>",,html-keyboard-response,361,1498932,0.0-17.0-0.13,93809,List1B,white,man,,,,null,,,,
null,"<img src=""stim_listB/kiss3.gif""style=""height:400px;""></stim_listB>",,html-keyboard-response,362,1500934,0.0-17.0-1.13,93809,List1B,white,man,,,,null,,,,
null,is kissing,,html-keyboard-response,363,1502937,0.0-17.0-2.13,93809,List1B,white,man,,,,null,,,,
10439,,,survey-text,364,1513376,0.0-17.0-3.13,93809,List1B,white,man,,,,,"{""Q0"":""ruth is kissing luke""}","<img src=""stim_listB/kiss3.gif""style=""height:400px;""></stim_listB>",is kissing,
null,"<div style=""font-size:60px;"">+</div>",,html-keyboard-response,365,1513879,0.0-17.0-0.14,93809,List1B,white,man,,,,null,,,,
null,"<img src=""stim_listB/dance4.gif""style=""height:400px;""></stim_listB>",,html-keyboard-response,366,1515881,0.0-17.0-1.14,93809,List1B,white,man,,,,null,,,,
null,are dancing with each other,,html-keyboard-response,367,1517882,0.0-17.0-2.14,93809,List1B,white,man,,,,null,,,,
16871,,,survey-text,368,1534754,0.0-17.0-3.14,93809,List1B,white,man,,,,,"{""Q0"":""dave and ruth are dancing with each other""}","<img src=""stim_listB/dance4.gif""style=""height:400px;""></stim_listB>",are dancing with each other,
null,"<div style=""font-size:60px;"">+</div>",,html-keyboard-response,369,1535256,0.0-17.0-0.15,93809,List1B,white,man,,,,null,,,,
null,"<img src=""stim_listB/fight2.gif""style=""height:400px;""></stim_listB>",,html-keyboard-response,370,1537258,0.0-17.0-1.15,93809,List1B,white,man,,,,null,,,,
null,are fighting each other,,html-keyboard-response,371,1539259,0.0-17.0-2.15,93809,List1B,white,man,,,,null,,,,
11919,,,survey-text,372,1551178,0.0-17.0-3.15,93809,List1B,white,man,,,,,"{""Q0"":""fred and beth are fighting each other""}","<img src=""stim_listB/fight2.gif""style=""height:400px;""></stim_listB>",are fighting each other,
null,"<div style=""font-size:60px;"">+</div>",,html-keyboard-response,373,1551680,0.0-17.0-0.16,93809,List1B,white,man,,,,null,,,,
null,"<img src=""stim_listB/play6.gif""style=""height:400px;""></stim_listB>",,html-keyboard-response,374,1553684,0.0-17.0-1.16,93809,List1B,white,man,,,,null,,,,
null,are playing with each other,,html-keyboard-response,375,1555685,0.0-17.0-2.16,93809,List1B,white,man,,,,null,,,,
13398,,,survey-text,376,1569084,0.0-17.0-3.16,93809,List1B,white,man,,,,,"{""Q0"":""fred and luke are playing together""}","<img src=""stim_listB/play6.gif""style=""height:400px;""></stim_listB>",are playing with each other,
null,"<div style=""font-size:60px;"">+</div>",,html-keyboard-response,377,1569586,0.0-17.0-0.17,93809,List1B,white,man,,,,null,,,,
null,"<img src=""stim_listB/shout7.gif""style=""height:400px;""></stim_listB>",,html-keyboard-response,378,1571587,0.0-17.0-1.17,93809,List1B,white,man,,,,null,,,,
null,is shouting at,,html-keyboard-response,379,1573589,0.0-17.0-2.17,93809,List1B,white,man,,,,null,,,,
11462,,,survey-text,380,1585052,0.0-17.0-3.17,93809,List1B,white,man,,,,,"{""Q0"":""ruth is shouting at beth""}","<img src=""stim_listB/shout7.gif""style=""height:400px;""></stim_listB>",is shouting at,
null,"<div style=""font-size:60px;"">+</div>",,html-keyboard-response,381,1585554,0.0-17.0-0.18,93809,List1B,white,man,,,,null,,,,
null,"<img src=""stim_listB/marry2.gif""style=""height:400px;""></stim_listB>",,html-keyboard-response,382,1587556,0.0-17.0-1.18,93809,List1B,white,man,,,,null,,,,
null,are marrying each other,,html-keyboard-response,383,1589557,0.0-17.0-2.18,93809,List1B,white,man,,,,null,,,,
12612,,,survey-text,384,1602170,0.0-17.0-3.18,93809,List1B,white,man,,,,,"{""Q0"":""fred and kate are marrying each other""}","<img src=""stim_listB/marry2.gif""style=""height:400px;""></stim_listB>",are marrying each other,
null,"<div style=""font-size:60px;"">+</div>",,html-keyboard-response,385,1602672,0.0-17.0-0.19,93809,List1B,white,man,,,,null,,,,
null,"<img src=""stim_listB/fight1.gif""style=""height:400px;""></stim_listB>",,html-keyboard-response,386,1604674,0.0-17.0-1.19,93809,List1B,white,man,,,,null,,,,
null,is fighting,,html-keyboard-response,387,1606676,0.0-17.0-2.19,93809,List1B,white,man,,,,null,,,,
9104,,,survey-text,388,1615780,0.0-17.0-3.19,93809,List1B,white,man,,,,,"{""Q0"":""kate is fighting mike""}","<img src=""stim_listB/fight1.gif""style=""height:400px;""></stim_listB>",is fighting,
4589,"<img src='img/portrait_matrix_list1.jpg' style='width:900px;height:500px;''></img><p>If you have memorised all the portraits and names and are ready to start, press Continue.</p><p><strong>Please note: Your memory of these faces will be tested 4 times during this experiment.</strong></p>",0,html-button-response,389,1620370,0.0-18.0-0.0,93809,List1B,white,man,,,,,,,,
1688,"<img src=""portrait/BM1.jpg""style=""height:400px;""></img>",4,html-button-response,390,1623060,0.0-18.0-1.0,93809,List1B,white,man,,TRUE,4,,,,,
null,CORRECT,,html-keyboard-response,391,1624563,0.0-18.0-2.0-0.0,93809,List1B,white,man,,,,null,,,,
1688,"<img src=""portrait/WW1.jpg""style=""height:400px;""></img>",1,html-button-response,392,1626253,0.0-18.0-4.0,93809,List1B,white,man,,TRUE,1,,,,,
null,CORRECT,,html-keyboard-response,393,1627755,0.0-18.0-5.0-0.0,93809,List1B,white,man,,,,null,,,,
1330,"<img src=""portrait/WW2.jpg""style=""height:400px;""></img>",3,html-button-response,394,1629087,0.0-18.0-7.0,93809,List1B,white,man,,TRUE,3,,,,,
null,CORRECT,,html-keyboard-response,395,1630588,0.0-18.0-8.0-0.0,93809,List1B,white,man,,,,null,,,,
3791,"<img src=""portrait/BM2.jpg""style=""height:400px;""></img>",5,html-button-response,396,1634381,0.0-18.0-10.0,93809,List1B,white,man,,TRUE,5,,,,,
null,CORRECT,,html-keyboard-response,397,1635884,0.0-18.0-11.0-0.0,93809,List1B,white,man,,,,null,,,,
1085,"<img src=""portrait/WM2.jpg""style=""height:400px;""></img>",7,html-button-response,398,1636971,0.0-18.0-13.0,93809,List1B,white,man,,TRUE,7,,,,,
null,CORRECT,,html-keyboard-response,399,1638473,0.0-18.0-14.0-0.0,93809,List1B,white,man,,,,null,,,,
830,"<img src=""portrait/BW1.jpg""style=""height:400px;""></img>",0,html-button-response,400,1639305,0.0-18.0-16.0,93809,List1B,white,man,,TRUE,0,,,,,
null,CORRECT,,html-keyboard-response,401,1640807,0.0-18.0-17.0-0.0,93809,List1B,white,man,,,,null,,,,
1838,"<img src=""portrait/WM1.jpg""style=""height:400px;""></img>",6,html-button-response,402,1642647,0.0-18.0-19.0,93809,List1B,white,man,,TRUE,6,,,,,
null,CORRECT,,html-keyboard-response,403,1644148,0.0-18.0-20.0-0.0,93809,List1B,white,man,,,,null,,,,
2299,"<img src=""portrait/BW2.jpg""style=""height:400px;""></img>",2,html-button-response,404,1646449,0.0-18.0-22.0,93809,List1B,white,man,,TRUE,2,,,,,
null,CORRECT,,html-keyboard-response,405,1647951,0.0-18.0-23.0-0.0,93809,List1B,white,man,,,,null,,,,
1457,<p>You got 8 out of 8 right first time. Press Continue.</p>,0,html-button-response,406,1649408,0.0-18.0-25.0,93809,List1B,white,man,,,,,,,,
null,"<div style=""font-size:60px;"">+</div>",,html-keyboard-response,407,1650911,0.0-19.0-0.0,93809,List1B,white,man,,,,null,,,,
null,"<img src=""stim_listB/talk6.gif""style=""height:400px;""></stim_listB>",,html-keyboard-response,408,1652913,0.0-19.0-1.0,93809,List1B,white,man,,,,null,,,,
null,are talking to each other,,html-keyboard-response,409,1654915,0.0-19.0-2.0,93809,List1B,white,man,,,,null,,,,
13266,,,survey-text,410,1668182,0.0-19.0-3.0,93809,List1B,white,man,,,,,"{""Q0"":""luke and mike are talking together""}","<img src=""stim_listB/talk6.gif""style=""height:400px;""></stim_listB>",are talking to each other,
null,"<div style=""font-size:60px;"">+</div>",,html-keyboard-response,411,1668684,0.0-19.0-0.1,93809,List1B,white,man,,,,null,,,,
null,"<img src=""stim_listB/play8.gif""style=""height:400px;""></stim_listB>",,html-keyboard-response,412,1670687,0.0-19.0-1.1,93809,List1B,white,man,,,,null,,,,
null,are playing with each other,,html-keyboard-response,413,1672688,0.0-19.0-2.1,93809,List1B,white,man,,,,null,,,,
11415,,,survey-text,414,1684104,0.0-19.0-3.1,93809,List1B,white,man,,,,,"{""Q0"":""ruth and beth are playing together""}","<img src=""stim_listB/play8.gif""style=""height:400px;""></stim_listB>",are playing with each other,
null,"<div style=""font-size:60px;"">+</div>",,html-keyboard-response,415,1684607,0.0-19.0-0.2,93809,List1B,white,man,,,,null,,,,
null,"<img src=""stim_listB/marry6.gif""style=""height:400px;""></stim_listB>",,html-keyboard-response,416,1686609,0.0-19.0-1.2,93809,List1B,white,man,,,,null,,,,
null,are marrying each other,,html-keyboard-response,417,1688610,0.0-19.0-2.2,93809,List1B,white,man,,,,null,,,,
16699,,,survey-text,418,1705311,0.0-19.0-3.2,93809,List1B,white,man,,,,,"{""Q0"":""fred and dave are marring each other""}","<img src=""stim_listB/marry6.gif""style=""height:400px;""></stim_listB>",are marrying each other,
null,"<div style=""font-size:60px;"">+</div>",,html-keyboard-response,419,1705812,0.0-19.0-0.3,93809,List1B,white,man,,,,null,,,,
null,"<img src=""stim_listB/argue2.gif""style=""height:400px;""></stim_listB>",,html-keyboard-response,420,1707814,0.0-19.0-1.3,93809,List1B,white,man,,,,null,,,,
null,are arguing with each other,,html-keyboard-response,421,1709815,0.0-19.0-2.3,93809,List1B,white,man,,,,null,,,,
15405,,,survey-text,422,1725221,0.0-19.0-3.3,93809,List1B,white,man,,,,,"{""Q0"":""fred and kate are arguing with each other""}","<img src=""stim_listB/argue2.gif""style=""height:400px;""></stim_listB>",are arguing with each other,
null,"<div style=""font-size:60px;"">+</div>",,html-keyboard-response,423,1725723,0.0-19.0-0.4,93809,List1B,white,man,,,,null,,,,
null,"<img src=""stim_listB/play7.gif""style=""height:400px;""></stim_listB>",,html-keyboard-response,424,1727725,0.0-19.0-1.4,93809,List1B,white,man,,,,null,,,,
null,is playing with,,html-keyboard-response,425,1729726,0.0-19.0-2.4,93809,List1B,white,man,,,,null,,,,
22042,,,survey-text,426,1751769,0.0-19.0-3.4,93809,List1B,white,man,,,,,"{""Q0"":""jane is playing with kate""}","<img src=""stim_listB/play7.gif""style=""height:400px;""></stim_listB>",is playing with,
null,"<div style=""font-size:60px;"">+</div>",,html-keyboard-response,427,1752271,0.0-19.0-0.5,93809,List1B,white,man,,,,null,,,,
null,"<img src=""stim_listB/shout6.gif""style=""height:400px;""></stim_listB>",,html-keyboard-response,428,1754273,0.0-19.0-1.5,93809,List1B,white,man,,,,null,,,,
null,are shouting at each other,,html-keyboard-response,429,1756274,0.0-19.0-2.5,93809,List1B,white,man,,,,null,,,,
13588,,,survey-text,430,1769862,0.0-19.0-3.5,93809,List1B,white,man,,,,,"{""Q0"":""mike and dave are shouting at each other""}","<img src=""stim_listB/shout6.gif""style=""height:400px;""></stim_listB>",are shouting at each other,
null,"<div style=""font-size:60px;"">+</div>",,html-keyboard-response,431,1770363,0.0-19.0-0.6,93809,List1B,white,man,,,,null,,,,
null,"<img src=""stim_listB/kiss7.gif""style=""height:400px;""></stim_listB>",,html-keyboard-response,432,1772366,0.0-19.0-1.6,93809,List1B,white,man,,,,null,,,,
null,is kissing,,html-keyboard-response,433,1774367,0.0-19.0-2.6,93809,List1B,white,man,,,,null,,,,
8244,,,survey-text,434,1782612,0.0-19.0-3.6,93809,List1B,white,man,,,,,"{""Q0"":""ruth is kissing beth""}","<img src=""stim_listB/kiss7.gif""style=""height:400px;""></stim_listB>",is kissing,
null,"<div style=""font-size:60px;"">+</div>",,html-keyboard-response,435,1783114,0.0-19.0-0.7,93809,List1B,white,man,,,,null,,,,
null,"<img src=""stim_listB/kiss4.gif""style=""height:400px;""></stim_listB>",,html-keyboard-response,436,1785116,0.0-19.0-1.7,93809,List1B,white,man,,,,null,,,,
null,are kissing each other,,html-keyboard-response,437,1787117,0.0-19.0-2.7,93809,List1B,white,man,,,,null,,,,
16360,,,survey-text,438,1803478,0.0-19.0-3.7,93809,List1B,white,man,,,,,"{""Q0"":""jane and dave are kissing each other""}","<img src=""stim_listB/kiss4.gif""style=""height:400px;""></stim_listB>",are kissing each other,
null,"<div style=""font-size:60px;"">+</div>",,html-keyboard-response,439,1803980,0.0-19.0-0.8,93809,List1B,white,man,,,,null,,,,
null,"<img src=""stim_listB/talk8.gif""style=""height:400px;""></stim_listB>",,html-keyboard-response,440,1805982,0.0-19.0-1.8,93809,List1B,white,man,,,,null,,,,
null,are talking to each other,,html-keyboard-response,441,1807984,0.0-19.0-2.8,93809,List1B,white,man,,,,null,,,,
13528,,,survey-text,442,1821514,0.0-19.0-3.8,93809,List1B,white,man,,,,,"{""Q0"":""kate and ruth are talking to each other""}","<img src=""stim_listB/talk8.gif""style=""height:400px;""></stim_listB>",are talking to each other,
null,"<div style=""font-size:60px;"">+</div>",,html-keyboard-response,443,1822016,0.0-19.0-0.9,93809,List1B,white,man,,,,null,,,,
null,"<img src=""stim_listB/shout5.gif""style=""height:400px;""></stim_listB>",,html-keyboard-response,444,1824017,0.0-19.0-1.9,93809,List1B,white,man,,,,null,,,,
null,is shouting at,,html-keyboard-response,445,1826019,0.0-19.0-2.9,93809,List1B,white,man,,,,null,,,,
10229,,,survey-text,446,1836248,0.0-19.0-3.9,93809,List1B,white,man,,,,,"{""Q0"":""fred is shouting at luke""}","<img src=""stim_listB/shout5.gif""style=""height:400px;""></stim_listB>",is shouting at,
null,"<div style=""font-size:60px;"">+</div>",,html-keyboard-response,447,1836749,0.0-19.0-0.10,93809,List1B,white,man,,,,null,,,,
null,"<img src=""stim_listB/talk1.gif""style=""height:400px;""></stim_listB>",,html-keyboard-response,448,1838752,0.0-19.0-1.10,93809,List1B,white,man,,,,null,,,,
null,is talking to,,html-keyboard-response,449,1840754,0.0-19.0-2.10,93809,List1B,white,man,,,,null,,,,
8620,,,survey-text,450,1849375,0.0-19.0-3.10,93809,List1B,white,man,,,,,"{""Q0"":""kate is talking to fred""}","<img src=""stim_listB/talk1.gif""style=""height:400px;""></stim_listB>",is talking to,
null,"<div style=""font-size:60px;"">+</div>",,html-keyboard-response,451,1849878,0.0-19.0-0.11,93809,List1B,white,man,,,,null,,,,
null,"<img src=""stim_listB/touch2.gif""style=""height:400px;""></stim_listB>",,html-keyboard-response,452,1851879,0.0-19.0-1.11,93809,List1B,white,man,,,,null,,,,
null,are touching each other,,html-keyboard-response,453,1853882,0.0-19.0-2.11,93809,List1B,white,man,,,,null,,,,
15394,,,survey-text,454,1869277,0.0-19.0-3.11,93809,List1B,white,man,,,,,"{""Q0"":""fred and beth are touching each other""}","<img src=""stim_listB/touch2.gif""style=""height:400px;""></stim_listB>",are touching each other,
null,"<div style=""font-size:60px;"">+</div>",,html-keyboard-response,455,1869779,0.0-19.0-0.12,93809,List1B,white,man,,,,null,,,,
null,"<img src=""stim_listB/touch3.gif""style=""height:400px;""></stim_listB>",,html-keyboard-response,456,1871780,0.0-19.0-1.12,93809,List1B,white,man,,,,null,,,,
null,is touching,,html-keyboard-response,457,1873782,0.0-19.0-2.12,93809,List1B,white,man,,,,null,,,,
9044,,,survey-text,458,1882827,0.0-19.0-3.12,93809,List1B,white,man,,,,,"{""Q0"":""jane is touching dave""}","<img src=""stim_listB/touch3.gif""style=""height:400px;""></stim_listB>",is touching,
null,"<div style=""font-size:60px;"">+</div>",,html-keyboard-response,459,1883328,0.0-19.0-0.13,93809,List1B,white,man,,,,null,,,,
null,"<img src=""stim_listB/fight6.gif""style=""height:400px;""></stim_listB>",,html-keyboard-response,460,1885329,0.0-19.0-1.13,93809,List1B,white,man,,,,null,,,,
null,are fighting each other,,html-keyboard-response,461,1887330,0.0-19.0-2.13,93809,List1B,white,man,,,,null,,,,
12735,,,survey-text,462,1900067,0.0-19.0-3.13,93809,List1B,white,man,,,,,"{""Q0"":""fred and luke are fighting each other""}","<img src=""stim_listB/fight6.gif""style=""height:400px;""></stim_listB>",are fighting each other,
null,"<div style=""font-size:60px;"">+</div>",,html-keyboard-response,463,1900568,0.0-19.0-0.14,93809,List1B,white,man,,,,null,,,,
null,"<img src=""stim_listB/kiss2.gif""style=""height:400px;""></stim_listB>",,html-keyboard-response,464,1902571,0.0-19.0-1.14,93809,List1B,white,man,,,,null,,,,
null,are kissing each other,,html-keyboard-response,465,1904573,0.0-19.0-2.14,93809,List1B,white,man,,,,null,,,,
12278,,,survey-text,466,1916853,0.0-19.0-3.14,93809,List1B,white,man,,,,,"{""Q0"":""kate and mike are kissing each other""}","<img src=""stim_listB/kiss2.gif""style=""height:400px;""></stim_listB>",are kissing each other,
null,"<div style=""font-size:60px;"">+</div>",,html-keyboard-response,467,1917354,0.0-19.0-0.15,93809,List1B,white,man,,,,null,,,,
null,"<img src=""stim_listB/argue7.gif""style=""height:400px;""></stim_listB>",,html-keyboard-response,468,1919356,0.0-19.0-1.15,93809,List1B,white,man,,,,null,,,,
null,is arguing with,,html-keyboard-response,469,1921357,0.0-19.0-2.15,93809,List1B,white,man,,,,null,,,,
14233,,,survey-text,470,1935591,0.0-19.0-3.15,93809,List1B,white,man,,,,,"{""Q0"":""kate is arguing with ruth""}","<img src=""stim_listB/argue7.gif""style=""height:400px;""></stim_listB>",is arguing with,
null,"<div style=""font-size:60px;"">+</div>",,html-keyboard-response,471,1936092,0.0-19.0-0.16,93809,List1B,white,man,,,,null,,,,
null,"<img src=""stim_listB/dance2.gif""style=""height:400px;""></stim_listB>",,html-keyboard-response,472,1938095,0.0-19.0-1.16,93809,List1B,white,man,,,,null,,,,
null,are dancing with each other,,html-keyboard-response,473,1940097,0.0-19.0-2.16,93809,List1B,white,man,,,,null,,,,
15874,,,survey-text,474,1955973,0.0-19.0-3.16,93809,List1B,white,man,,,,,"{""Q0"":""beth and mike are dancing with each other""}","<img src=""stim_listB/dance2.gif""style=""height:400px;""></stim_listB>",are dancing with each other,
null,"<div style=""font-size:60px;"">+</div>",,html-keyboard-response,475,1956475,0.0-19.0-0.17,93809,List1B,white,man,,,,null,,,,
null,"<img src=""stim_listB/shout3.gif""style=""height:400px;""></stim_listB>",,html-keyboard-response,476,1958477,0.0-19.0-1.17,93809,List1B,white,man,,,,null,,,,
null,is shouting at,,html-keyboard-response,477,1960478,0.0-19.0-2.17,93809,List1B,white,man,,,,null,,,,
10321,,,survey-text,478,1970801,0.0-19.0-3.17,93809,List1B,white,man,,,,,"{""Q0"":""luke is shouting at ruth""}","<img src=""stim_listB/shout3.gif""style=""height:400px;""></stim_listB>",is shouting at,
null,"<div style=""font-size:60px;"">+</div>",,html-keyboard-response,479,1971302,0.0-19.0-0.18,93809,List1B,white,man,,,,null,,,,
null,"<img src=""stim_listB/argue4.gif""style=""height:400px;""></stim_listB>",,html-keyboard-response,480,1973304,0.0-19.0-1.18,93809,List1B,white,man,,,,null,,,,
null,are arguing with each other,,html-keyboard-response,481,1975305,0.0-19.0-2.18,93809,List1B,white,man,,,,null,,,,
16990,,,survey-text,482,1992297,0.0-19.0-3.18,93809,List1B,white,man,,,,,"{""Q0"":""jane and luke are arguing with each other""}","<img src=""stim_listB/argue4.gif""style=""height:400px;""></stim_listB>",are arguing with each other,
null,"<div style=""font-size:60px;"">+</div>",,html-keyboard-response,483,1992798,0.0-19.0-0.19,93809,List1B,white,man,,,,null,,,,
null,"<img src=""stim_listB/kiss8.gif""style=""height:400px;""></stim_listB>",,html-keyboard-response,484,1994801,0.0-19.0-1.19,93809,List1B,white,man,,,,null,,,,
null,are kissing each other,,html-keyboard-response,485,1996802,0.0-19.0-2.19,93809,List1B,white,man,,,,null,,,,
11813,,,survey-text,486,2008617,0.0-19.0-3.19,93809,List1B,white,man,,,,,"{""Q0"":""jane and kate are kissing each other""}","<img src=""stim_listB/kiss8.gif""style=""height:400px;""></stim_listB>",are kissing each other,
2682,<p>Thank you for completing that task.</p><p>The final part of this session is a short questionnaire.</p><p>Press Continue.</p>,0,html-button-response,487,2011299,0.0-20.0,93809,List1B,white,man,,,,,,,,
36989,,,survey-text,488,2049291,0.0-21.0,93809,List1B,white,man,,,,,"{""Q0"":""59"",""Q1"":""English"",""Q2"":""English"",""Q3"":""Wales"",""Q4"":""Caucasion"",""Q5"":""Male""}",,,demographics
7979,,,survey-likert,489,2057273,0.0-22.0,93809,List1B,white,man,,,,,"{""Q0"":3}",,,likert_ESS
5793,,,survey-likert,490,2063067,0.0-23.0,93809,List1B,white,man,,,,,"{""Q0"":4}",,,likert_NSSAL_Q1
4978,,,survey-likert,491,2068047,0.0-24.0,93809,List1B,white,man,,,,,"{""Q0"":4}",,,likert_NSSAL_Q2
4080,,,survey-likert,492,2072130,0.0-25.0,93809,List1B,white,man,,,,,"{""Q0"":3}",,,likert_CGRS_Q1
3042,,,survey-likert,493,2075174,0.0-26.0,93809,List1B,white,man,,,,,"{""Q0"":3}",,,likert_CGRS_Q2
3948,,,survey-likert,494,2079123,0.0-27.0,93809,List1B,white,man,,,,,"{""Q0"":3}",,,likert_CGRS_Q3
13070,,,survey-text,495,2092194,0.0-28.0,93809,List1B,white,man,,,,,"{""Q0"":""ccc""}",,,worker_id
25026,,,external-html,496,2117296,0.0-29.0,93809,List1B,white,man,debrief.html,,,,,,,
