rt,stimulus,button_pressed,trial_type,trial_index,time_elapsed,internal_node_id,subject,list,ppt_race,ppt_gender,url,first_guess,correct,key_press,responses,image_type,phrase_type,test_part
3396,Welcome to the experiment. Press Continue to begin.,0,html-button-response,0,3411,0.0-0.0,94180,List1B,white,woman,,,,,,,,
46807,,,external-html,1,51329,0.0-1.0,94180,List1B,white,woman,consent.html,,,,,,,
46504,"<p>On the next page, you will see portraits of 8 people and their names.</p><p>Your first task is to take a few minutes to memorise the names of these people.</p><p>You will have to recall their names during the rest of the experiment, so it is</p><p>essential that you try to memorise these people and their names as best as you can.</p><br><p><strong>You will then be tested on your memory of these names and portraits.</strong></p><br><p>The experiment will start after you have completed this memory test.</p><br><p>Ready?</p>",0,html-button-response,2,97842,0.0-2.0,94180,List1B,white,woman,,,,,,,,
132578,"<img src='img/portrait_matrix_list1.jpg' style='width:900px;height:500px;''></img><p>If you have memorised all the portraits and names and are ready to start, press Continue.</p><p><strong>Please note: Your memory of these faces will be tested 4 times during this experiment.</strong></p>",0,html-button-response,3,231445,0.0-3.0-0.0,94180,List1B,white,woman,,,,,,,,
9558,"<img src=""portrait/BM1.jpg""style=""height:400px;""></img>",4,html-button-response,4,242032,0.0-3.0-1.0,94180,List1B,white,woman,,TRUE,4,,,,,
null,CORRECT,,html-keyboard-response,5,243559,0.0-3.0-2.0-0.0,94180,List1B,white,woman,,,,null,,,,
3329,"<img src=""portrait/WW2.jpg""style=""height:400px;""></img>",3,html-button-response,6,246901,0.0-3.0-4.0,94180,List1B,white,woman,,TRUE,3,,,,,
null,CORRECT,,html-keyboard-response,7,248415,0.0-3.0-5.0-0.0,94180,List1B,white,woman,,,,null,,,,
3135,"<img src=""portrait/WM2.jpg""style=""height:400px;""></img>",7,html-button-response,8,251555,0.0-3.0-7.0,94180,List1B,white,woman,,TRUE,7,,,,,
null,CORRECT,,html-keyboard-response,9,253062,0.0-3.0-8.0-0.0,94180,List1B,white,woman,,,,null,,,,
2995,"<img src=""portrait/WM1.jpg""style=""height:400px;""></img>",6,html-button-response,10,256062,0.0-3.0-10.0,94180,List1B,white,woman,,TRUE,6,,,,,
null,CORRECT,,html-keyboard-response,11,257567,0.0-3.0-11.0-0.0,94180,List1B,white,woman,,,,null,,,,
3274,"<img src=""portrait/WW1.jpg""style=""height:400px;""></img>",1,html-button-response,12,260848,0.0-3.0-13.0,94180,List1B,white,woman,,TRUE,1,,,,,
null,CORRECT,,html-keyboard-response,13,262354,0.0-3.0-14.0-0.0,94180,List1B,white,woman,,,,null,,,,
8630,"<img src=""portrait/BW2.jpg""style=""height:400px;""></img>",2,html-button-response,14,270991,0.0-3.0-16.0,94180,List1B,white,woman,,TRUE,2,,,,,
null,CORRECT,,html-keyboard-response,15,272494,0.0-3.0-17.0-0.0,94180,List1B,white,woman,,,,null,,,,
3069,"<img src=""portrait/BM2.jpg""style=""height:400px;""></img>",5,html-button-response,16,275569,0.0-3.0-19.0,94180,List1B,white,woman,,TRUE,5,,,,,
null,CORRECT,,html-keyboard-response,17,277074,0.0-3.0-20.0-0.0,94180,List1B,white,woman,,,,null,,,,
5733,"<img src=""portrait/BW1.jpg""style=""height:400px;""></img>",0,html-button-response,18,282818,0.0-3.0-22.0,94180,List1B,white,woman,,TRUE,0,,,,,
null,CORRECT,,html-keyboard-response,19,284324,0.0-3.0-23.0-0.0,94180,List1B,white,woman,,,,null,,,,
2577,<p>You got 8 out of 8 right first time. Press Continue.</p>,0,html-button-response,20,286920,0.0-3.0-25.0,94180,List1B,white,woman,,,,,,,,
214870,"<p>In this experiment, you will view photographs of the people from the memory game interacting.</p><p>By using the <strong>exact</strong> phrase given <i>after</i> the photograph appears and recalling the correct names of the people in the photographs, form a sentence describing the interaction. You do not need to capitalise names.</p><p>Type your answer in the space provided. Please complete every sentence before moving onto the next trial.</p><p>You will only have a few seconds to memorise each given photograph and phrase before you can respond, so try your best to focus.</p><p>An example is given below. Press 'Continue' when you are ready.</p><img src='img/speaking_example.jpg' style='width:800px;height:460px;''></img>",0,html-button-response,21,502806,0.0-4.0,94180,List1B,white,woman,,,,,,,,
5819,"<p>Before the experiment starts, you will watch two example trials. Press 'Continue'.</p>",0,html-button-response,22,509648,0.0-5.0,94180,List1B,white,woman,,,,,,,,
null,<img src='img/meet_eg.gif' style='height:400px;''></img>,,html-keyboard-response,23,512680,0.0-6.0,94180,List1B,white,woman,,,,null,,,,
null,<p>is meeting</p>,,html-keyboard-response,24,514684,0.0-7.0,94180,List1B,white,woman,,,,null,,,,
3968,<p><b>Answer:</b> kate is meeting beth</p>,0,html-button-response,25,518656,0.0-8.0,94180,List1B,white,woman,,,,,,,,
null,<img src='img/look_eg.gif' style='height:400px;''></img>,,html-keyboard-response,26,521663,0.0-9.0,94180,List1B,white,woman,,,,null,,,,
null,<p>are looking at each other</p>,,html-keyboard-response,27,523667,0.0-10.0,94180,List1B,white,woman,,,,null,,,,
3312,<p><b>Answer:</b> luke and dave are looking at each other</p>,0,html-button-response,28,526984,0.0-11.0,94180,List1B,white,woman,,,,,,,,
5084,"<p>Ready to start the experiment?</p><br><p><strong>Remember to describe the picture using a full sentence,</strong></p><p><strong>that combines the names of the people with the <i>exact</i> phrase given.</strong></p><p><strong>To receive full payment you must do this correctly.</strong></p><p><strong> You do not need to capitalise names or use punctuation.</strong></p><br><p>Press 'Continue' to begin.</p>",0,html-button-response,29,533076,0.0-12.0,94180,List1B,white,woman,,,,,,,,
null,"<div style=""font-size:60px;"">+</div>",,html-keyboard-response,30,534582,0.0-13.0-0.0,94180,List1B,white,woman,,,,null,,,,
null,"<img src=""stim_listB/dance3.gif""style=""height:400px;""></stim_listB>",,html-keyboard-response,31,536592,0.0-13.0-1.0,94180,List1B,white,woman,,,,null,,,,
null,is dancing with,,html-keyboard-response,32,538595,0.0-13.0-2.0,94180,List1B,white,woman,,,,null,,,,
12155,,,survey-text,33,550762,0.0-13.0-3.0,94180,List1B,white,woman,,,,,"{""Q0"":""Jane is dancing with luke""}","<img src=""stim_listB/dance3.gif""style=""height:400px;""></stim_listB>",is dancing with,
null,"<div style=""font-size:60px;"">+</div>",,html-keyboard-response,34,551269,0.0-13.0-0.1,94180,List1B,white,woman,,,,null,,,,
null,"<img src=""stim_listB/touch6.gif""style=""height:400px;""></stim_listB>",,html-keyboard-response,35,553277,0.0-13.0-1.1,94180,List1B,white,woman,,,,null,,,,
null,are touching each other,,html-keyboard-response,36,555284,0.0-13.0-2.1,94180,List1B,white,woman,,,,null,,,,
13277,,,survey-text,37,568569,0.0-13.0-3.1,94180,List1B,white,woman,,,,,"{""Q0"":""Fred and luke are touching each other""}","<img src=""stim_listB/touch6.gif""style=""height:400px;""></stim_listB>",are touching each other,
null,"<div style=""font-size:60px;"">+</div>",,html-keyboard-response,38,569075,0.0-13.0-0.2,94180,List1B,white,woman,,,,null,,,,
null,"<img src=""stim_listB/flirt5.gif""style=""height:400px;""></stim_listB>",,html-keyboard-response,39,571083,0.0-13.0-1.2,94180,List1B,white,woman,,,,null,,,,
null,is flirting with,,html-keyboard-response,40,573087,0.0-13.0-2.2,94180,List1B,white,woman,,,,null,,,,
8914,,,survey-text,41,582006,0.0-13.0-3.2,94180,List1B,white,woman,,,,,"{""Q0"":""Dave is flirting with Fred ""}","<img src=""stim_listB/flirt5.gif""style=""height:400px;""></stim_listB>",is flirting with,
null,"<div style=""font-size:60px;"">+</div>",,html-keyboard-response,42,582509,0.0-13.0-0.3,94180,List1B,white,woman,,,,null,,,,
null,"<img src=""stim_listB/argue1.gif""style=""height:400px;""></stim_listB>",,html-keyboard-response,43,584513,0.0-13.0-1.3,94180,List1B,white,woman,,,,null,,,,
null,is arguing with,,html-keyboard-response,44,586516,0.0-13.0-2.3,94180,List1B,white,woman,,,,null,,,,
11129,,,survey-text,45,597652,0.0-13.0-3.3,94180,List1B,white,woman,,,,,"{""Q0"":""Beth is arguing with Mike ""}","<img src=""stim_listB/argue1.gif""style=""height:400px;""></stim_listB>",is arguing with,
null,"<div style=""font-size:60px;"">+</div>",,html-keyboard-response,46,598168,0.0-13.0-0.4,94180,List1B,white,woman,,,,null,,,,
null,"<img src=""stim_listB/marry1.gif""style=""height:400px;""></stim_listB>",,html-keyboard-response,47,600172,0.0-13.0-1.4,94180,List1B,white,woman,,,,null,,,,
null,is marrying,,html-keyboard-response,48,602176,0.0-13.0-2.4,94180,List1B,white,woman,,,,null,,,,
8299,,,survey-text,49,610480,0.0-13.0-3.4,94180,List1B,white,woman,,,,,"{""Q0"":""Beth is marrying Mike""}","<img src=""stim_listB/marry1.gif""style=""height:400px;""></stim_listB>",is marrying,
null,"<div style=""font-size:60px;"">+</div>",,html-keyboard-response,50,610986,0.0-13.0-0.5,94180,List1B,white,woman,,,,null,,,,
null,"<img src=""stim_listB/play8.gif""style=""height:400px;""></stim_listB>",,html-keyboard-response,51,612992,0.0-13.0-1.5,94180,List1B,white,woman,,,,null,,,,
null,are playing with each other,,html-keyboard-response,52,615004,0.0-13.0-2.5,94180,List1B,white,woman,,,,null,,,,
18497,,,survey-text,53,633518,0.0-13.0-3.5,94180,List1B,white,woman,,,,,"{""Q0"":""Ruth and Beth are playing with each other""}","<img src=""stim_listB/play8.gif""style=""height:400px;""></stim_listB>",are playing with each other,
null,"<div style=""font-size:60px;"">+</div>",,html-keyboard-response,54,634025,0.0-13.0-0.6,94180,List1B,white,woman,,,,null,,,,
null,"<img src=""stim_listB/talk6.gif""style=""height:400px;""></stim_listB>",,html-keyboard-response,55,636033,0.0-13.0-1.6,94180,List1B,white,woman,,,,null,,,,
null,are talking to each other,,html-keyboard-response,56,638039,0.0-13.0-2.6,94180,List1B,white,woman,,,,null,,,,
12844,,,survey-text,57,650890,0.0-13.0-3.6,94180,List1B,white,woman,,,,,"{""Q0"":""Luke and Mike are talking to each other""}","<img src=""stim_listB/talk6.gif""style=""height:400px;""></stim_listB>",are talking to each other,
null,"<div style=""font-size:60px;"">+</div>",,html-keyboard-response,58,651395,0.0-13.0-0.7,94180,List1B,white,woman,,,,null,,,,
null,"<img src=""stim_listB/dance6.gif""style=""height:400px;""></stim_listB>",,html-keyboard-response,59,653403,0.0-13.0-1.7,94180,List1B,white,woman,,,,null,,,,
null,are dancing with each other,,html-keyboard-response,60,655407,0.0-13.0-2.7,94180,List1B,white,woman,,,,null,,,,
14521,,,survey-text,61,669935,0.0-13.0-3.7,94180,List1B,white,woman,,,,,"{""Q0"":""Luke and Mike are dancing with each other ""}","<img src=""stim_listB/dance6.gif""style=""height:400px;""></stim_listB>",are dancing with each other,
null,"<div style=""font-size:60px;"">+</div>",,html-keyboard-response,62,670439,0.0-13.0-0.8,94180,List1B,white,woman,,,,null,,,,
null,"<img src=""stim_listB/kiss5.gif""style=""height:400px;""></stim_listB>",,html-keyboard-response,63,672445,0.0-13.0-1.8,94180,List1B,white,woman,,,,null,,,,
null,is kissing,,html-keyboard-response,64,674450,0.0-13.0-2.8,94180,List1B,white,woman,,,,null,,,,
8183,,,survey-text,65,682647,0.0-13.0-3.8,94180,List1B,white,woman,,,,,"{""Q0"":""Luke is kissing Fred ""}","<img src=""stim_listB/kiss5.gif""style=""height:400px;""></stim_listB>",is kissing,
null,"<div style=""font-size:60px;"">+</div>",,html-keyboard-response,66,683179,0.0-13.0-0.9,94180,List1B,white,woman,,,,null,,,,
null,"<img src=""stim_listB/shout6.gif""style=""height:400px;""></stim_listB>",,html-keyboard-response,67,685184,0.0-13.0-1.9,94180,List1B,white,woman,,,,null,,,,
null,are shouting at each other,,html-keyboard-response,68,687188,0.0-13.0-2.9,94180,List1B,white,woman,,,,null,,,,
10253,,,survey-text,69,697446,0.0-13.0-3.9,94180,List1B,white,woman,,,,,"{""Q0"":""Mike and Dave are shouting at each other ""}","<img src=""stim_listB/shout6.gif""style=""height:400px;""></stim_listB>",are shouting at each other,
null,"<div style=""font-size:60px;"">+</div>",,html-keyboard-response,70,697951,0.0-13.0-0.10,94180,List1B,white,woman,,,,null,,,,
null,"<img src=""stim_listB/play6.gif""style=""height:400px;""></stim_listB>",,html-keyboard-response,71,699958,0.0-13.0-1.10,94180,List1B,white,woman,,,,null,,,,
null,are playing with each other,,html-keyboard-response,72,701962,0.0-13.0-2.10,94180,List1B,white,woman,,,,null,,,,
10582,,,survey-text,73,712550,0.0-13.0-3.10,94180,List1B,white,woman,,,,,"{""Q0"":""Fred and Luke are playing with each other ""}","<img src=""stim_listB/play6.gif""style=""height:400px;""></stim_listB>",are playing with each other,
null,"<div style=""font-size:60px;"">+</div>",,html-keyboard-response,74,713055,0.0-13.0-0.11,94180,List1B,white,woman,,,,null,,,,
null,"<img src=""stim_listB/flirt8.gif""style=""height:400px;""></stim_listB>",,html-keyboard-response,75,715065,0.0-13.0-1.11,94180,List1B,white,woman,,,,null,,,,
null,are flirting with each other,,html-keyboard-response,76,717069,0.0-13.0-2.11,94180,List1B,white,woman,,,,null,,,,
21183,,,survey-text,77,738258,0.0-13.0-3.11,94180,List1B,white,woman,,,,,"{""Q0"":""Ruth and Kate and flirting with each other ""}","<img src=""stim_listB/flirt8.gif""style=""height:400px;""></stim_listB>",are flirting with each other,
null,"<div style=""font-size:60px;"">+</div>",,html-keyboard-response,78,738762,0.0-13.0-0.12,94180,List1B,white,woman,,,,null,,,,
null,"<img src=""stim_listB/touch3.gif""style=""height:400px;""></stim_listB>",,html-keyboard-response,79,740767,0.0-13.0-1.12,94180,List1B,white,woman,,,,null,,,,
null,is touching,,html-keyboard-response,80,742772,0.0-13.0-2.12,94180,List1B,white,woman,,,,null,,,,
11491,,,survey-text,81,754269,0.0-13.0-3.12,94180,List1B,white,woman,,,,,"{""Q0"":""Jane is touching Dave""}","<img src=""stim_listB/touch3.gif""style=""height:400px;""></stim_listB>",is touching,
null,"<div style=""font-size:60px;"">+</div>",,html-keyboard-response,82,754772,0.0-13.0-0.13,94180,List1B,white,woman,,,,null,,,,
null,"<img src=""stim_listB/play4.gif""style=""height:400px;""></stim_listB>",,html-keyboard-response,83,756779,0.0-13.0-1.13,94180,List1B,white,woman,,,,null,,,,
null,are playing with each other,,html-keyboard-response,84,758783,0.0-13.0-2.13,94180,List1B,white,woman,,,,null,,,,
14317,,,survey-text,85,773107,0.0-13.0-3.13,94180,List1B,white,woman,,,,,"{""Q0"":""Ruth and Luke are playing with each other ""}","<img src=""stim_listB/play4.gif""style=""height:400px;""></stim_listB>",are playing with each other,
null,"<div style=""font-size:60px;"">+</div>",,html-keyboard-response,86,773612,0.0-13.0-0.14,94180,List1B,white,woman,,,,null,,,,
null,"<img src=""stim_listB/shout3.gif""style=""height:400px;""></stim_listB>",,html-keyboard-response,87,775619,0.0-13.0-1.14,94180,List1B,white,woman,,,,null,,,,
null,is shouting at,,html-keyboard-response,88,777623,0.0-13.0-2.14,94180,List1B,white,woman,,,,null,,,,
7498,,,survey-text,89,785127,0.0-13.0-3.14,94180,List1B,white,woman,,,,,"{""Q0"":""Ruth is shouting at Luke""}","<img src=""stim_listB/shout3.gif""style=""height:400px;""></stim_listB>",is shouting at,
null,"<div style=""font-size:60px;"">+</div>",,html-keyboard-response,90,785631,0.0-13.0-0.15,94180,List1B,white,woman,,,,null,,,,
null,"<img src=""stim_listB/fight4.gif""style=""height:400px;""></stim_listB>",,html-keyboard-response,91,787639,0.0-13.0-1.15,94180,List1B,white,woman,,,,null,,,,
null,are fighting each other,,html-keyboard-response,92,789644,0.0-13.0-2.15,94180,List1B,white,woman,,,,null,,,,
10203,,,survey-text,93,799851,0.0-13.0-3.15,94180,List1B,white,woman,,,,,"{""Q0"":""Ruth and Luke are fighting each other ""}","<img src=""stim_listB/fight4.gif""style=""height:400px;""></stim_listB>",are fighting each other,
null,"<div style=""font-size:60px;"">+</div>",,html-keyboard-response,94,800354,0.0-13.0-0.16,94180,List1B,white,woman,,,,null,,,,
null,"<img src=""stim_listB/kiss3.gif""style=""height:400px;""></stim_listB>",,html-keyboard-response,95,802364,0.0-13.0-1.16,94180,List1B,white,woman,,,,null,,,,
null,is kissing,,html-keyboard-response,96,804368,0.0-13.0-2.16,94180,List1B,white,woman,,,,null,,,,
8436,,,survey-text,97,812810,0.0-13.0-3.16,94180,List1B,white,woman,,,,,"{""Q0"":""Ruth is kissing luke""}","<img src=""stim_listB/kiss3.gif""style=""height:400px;""></stim_listB>",is kissing,
null,"<div style=""font-size:60px;"">+</div>",,html-keyboard-response,98,813314,0.0-13.0-0.17,94180,List1B,white,woman,,,,null,,,,
null,"<img src=""stim_listB/argue6.gif""style=""height:400px;""></stim_listB>",,html-keyboard-response,99,815321,0.0-13.0-1.17,94180,List1B,white,woman,,,,null,,,,
null,are arguing with each other,,html-keyboard-response,100,817326,0.0-13.0-2.17,94180,List1B,white,woman,,,,null,,,,
12535,,,survey-text,101,829866,0.0-13.0-3.17,94180,List1B,white,woman,,,,,"{""Q0"":""Fred and Dave are arguing with each other ""}","<img src=""stim_listB/argue6.gif""style=""height:400px;""></stim_listB>",are arguing with each other,
null,"<div style=""font-size:60px;"">+</div>",,html-keyboard-response,102,830371,0.0-13.0-0.18,94180,List1B,white,woman,,,,null,,,,
null,"<img src=""stim_listB/shout2.gif""style=""height:400px;""></stim_listB>",,html-keyboard-response,103,832380,0.0-13.0-1.18,94180,List1B,white,woman,,,,null,,,,
null,are shouting at each other,,html-keyboard-response,104,834384,0.0-13.0-2.18,94180,List1B,white,woman,,,,null,,,,
17538,,,survey-text,105,851939,0.0-13.0-3.18,94180,List1B,white,woman,,,,,"{""Q0"":""Kate and Mike are shouting at each other ""}","<img src=""stim_listB/shout2.gif""style=""height:400px;""></stim_listB>",are shouting at each other,
null,"<div style=""font-size:60px;"">+</div>",,html-keyboard-response,106,852448,0.0-13.0-0.19,94180,List1B,white,woman,,,,null,,,,
null,"<img src=""stim_listB/play3.gif""style=""height:400px;""></stim_listB>",,html-keyboard-response,107,854485,0.0-13.0-1.19,94180,List1B,white,woman,,,,null,,,,
null,is playing with,,html-keyboard-response,108,856490,0.0-13.0-2.19,94180,List1B,white,woman,,,,null,,,,
11364,,,survey-text,109,867862,0.0-13.0-3.19,94180,List1B,white,woman,,,,,"{""Q0"":""Jane is playing with Dave""}","<img src=""stim_listB/play3.gif""style=""height:400px;""></stim_listB>",is playing with,
891005,"<img src='img/portrait_matrix_list1.jpg' style='width:900px;height:500px;''></img><p>If you have memorised all the portraits and names and are ready to start, press Continue.</p><p><strong>Please note: Your memory of these faces will be tested 4 times during this experiment.</strong></p>",0,html-button-response,110,1758893,0.0-14.0-0.0,94180,List1B,white,woman,,,,,,,,
2903,"<img src=""portrait/WW2.jpg""style=""height:400px;""></img>",3,html-button-response,111,1762852,0.0-14.0-1.0,94180,List1B,white,woman,,TRUE,3,,,,,
null,CORRECT,,html-keyboard-response,112,1764359,0.0-14.0-2.0-0.0,94180,List1B,white,woman,,,,null,,,,
2494,"<img src=""portrait/BM2.jpg""style=""height:400px;""></img>",5,html-button-response,113,1766863,0.0-14.0-4.0,94180,List1B,white,woman,,TRUE,5,,,,,
null,CORRECT,,html-keyboard-response,114,1768383,0.0-14.0-5.0-0.0,94180,List1B,white,woman,,,,null,,,,
18428,"<img src=""portrait/WW1.jpg""style=""height:400px;""></img>",1,html-button-response,115,1786827,0.0-14.0-7.0,94180,List1B,white,woman,,TRUE,1,,,,,
null,CORRECT,,html-keyboard-response,116,1788334,0.0-14.0-8.0-0.0,94180,List1B,white,woman,,,,null,,,,
2348,"<img src=""portrait/WM2.jpg""style=""height:400px;""></img>",7,html-button-response,117,1790691,0.0-14.0-10.0,94180,List1B,white,woman,,TRUE,7,,,,,
null,CORRECT,,html-keyboard-response,118,1792196,0.0-14.0-11.0-0.0,94180,List1B,white,woman,,,,null,,,,
47596,"<img src=""portrait/BM1.jpg""style=""height:400px;""></img>",4,html-button-response,119,1839816,0.0-14.0-13.0,94180,List1B,white,woman,,TRUE,4,,,,,
null,CORRECT,,html-keyboard-response,120,1841338,0.0-14.0-14.0-0.0,94180,List1B,white,woman,,,,null,,,,
2885,"<img src=""portrait/BW1.jpg""style=""height:400px;""></img>",0,html-button-response,121,1844252,0.0-14.0-16.0,94180,List1B,white,woman,,TRUE,0,,,,,
null,CORRECT,,html-keyboard-response,122,1845758,0.0-14.0-17.0-0.0,94180,List1B,white,woman,,,,null,,,,
1861,"<img src=""portrait/BW2.jpg""style=""height:400px;""></img>",2,html-button-response,123,1847674,0.0-14.0-19.0,94180,List1B,white,woman,,TRUE,2,,,,,
null,CORRECT,,html-keyboard-response,124,1849181,0.0-14.0-20.0-0.0,94180,List1B,white,woman,,,,null,,,,
2479,"<img src=""portrait/WM1.jpg""style=""height:400px;""></img>",6,html-button-response,125,1851672,0.0-14.0-22.0,94180,List1B,white,woman,,TRUE,6,,,,,
null,CORRECT,,html-keyboard-response,126,1853179,0.0-14.0-23.0-0.0,94180,List1B,white,woman,,,,null,,,,
6171,<p>You got 8 out of 8 right first time. Press Continue.</p>,0,html-button-response,127,1859368,0.0-14.0-25.0,94180,List1B,white,woman,,,,,,,,
null,"<div style=""font-size:60px;"">+</div>",,html-keyboard-response,128,1860879,0.0-15.0-0.0,94180,List1B,white,woman,,,,null,,,,
null,"<img src=""stim_listB/fight6.gif""style=""height:400px;""></stim_listB>",,html-keyboard-response,129,1862902,0.0-15.0-1.0,94180,List1B,white,woman,,,,null,,,,
null,are fighting each other,,html-keyboard-response,130,1864907,0.0-15.0-2.0,94180,List1B,white,woman,,,,null,,,,
11842,,,survey-text,131,1876759,0.0-15.0-3.0,94180,List1B,white,woman,,,,,"{""Q0"":""Fred and Luke are fighting each other ""}","<img src=""stim_listB/fight6.gif""style=""height:400px;""></stim_listB>",are fighting each other,
null,"<div style=""font-size:60px;"">+</div>",,html-keyboard-response,132,1877266,0.0-15.0-0.1,94180,List1B,white,woman,,,,null,,,,
null,"<img src=""stim_listB/talk7.gif""style=""height:400px;""></stim_listB>",,html-keyboard-response,133,1879275,0.0-15.0-1.1,94180,List1B,white,woman,,,,null,,,,
null,is talking to,,html-keyboard-response,134,1881281,0.0-15.0-2.1,94180,List1B,white,woman,,,,null,,,,
6051,,,survey-text,135,1887338,0.0-15.0-3.1,94180,List1B,white,woman,,,,,"{""Q0"":""Jane is talking to Beth ""}","<img src=""stim_listB/talk7.gif""style=""height:400px;""></stim_listB>",is talking to,
null,"<div style=""font-size:60px;"">+</div>",,html-keyboard-response,136,1887849,0.0-15.0-0.2,94180,List1B,white,woman,,,,null,,,,
null,"<img src=""stim_listB/flirt6.gif""style=""height:400px;""></stim_listB>",,html-keyboard-response,137,1889862,0.0-15.0-1.2,94180,List1B,white,woman,,,,null,,,,
null,are flirting with each other,,html-keyboard-response,138,1891867,0.0-15.0-2.2,94180,List1B,white,woman,,,,null,,,,
9528,,,survey-text,139,1901401,0.0-15.0-3.2,94180,List1B,white,woman,,,,,"{""Q0"":""Mike and Luke are flirting with each other ""}","<img src=""stim_listB/flirt6.gif""style=""height:400px;""></stim_listB>",are flirting with each other,
null,"<div style=""font-size:60px;"">+</div>",,html-keyboard-response,140,1901905,0.0-15.0-0.3,94180,List1B,white,woman,,,,null,,,,
null,"<img src=""stim_listB/argue5.gif""style=""height:400px;""></stim_listB>",,html-keyboard-response,141,1903913,0.0-15.0-1.3,94180,List1B,white,woman,,,,null,,,,
null,is arguing with,,html-keyboard-response,142,1905916,0.0-15.0-2.3,94180,List1B,white,woman,,,,null,,,,
7184,,,survey-text,143,1913107,0.0-15.0-3.3,94180,List1B,white,woman,,,,,"{""Q0"":""Mike is arguing with luke ""}","<img src=""stim_listB/argue5.gif""style=""height:400px;""></stim_listB>",is arguing with,
null,"<div style=""font-size:60px;"">+</div>",,html-keyboard-response,144,1913612,0.0-15.0-0.4,94180,List1B,white,woman,,,,null,,,,
null,"<img src=""stim_listB/marry2.gif""style=""height:400px;""></stim_listB>",,html-keyboard-response,145,1915618,0.0-15.0-1.4,94180,List1B,white,woman,,,,null,,,,
null,are marrying each other,,html-keyboard-response,146,1917623,0.0-15.0-2.4,94180,List1B,white,woman,,,,null,,,,
8612,,,survey-text,147,1926242,0.0-15.0-3.4,94180,List1B,white,woman,,,,,"{""Q0"":""Feed and Kate are marrying each other ""}","<img src=""stim_listB/marry2.gif""style=""height:400px;""></stim_listB>",are marrying each other,
null,"<div style=""font-size:60px;"">+</div>",,html-keyboard-response,148,1926747,0.0-15.0-0.5,94180,List1B,white,woman,,,,null,,,,
null,"<img src=""stim_listB/touch4.gif""style=""height:400px;""></stim_listB>",,html-keyboard-response,149,1928754,0.0-15.0-1.5,94180,List1B,white,woman,,,,null,,,,
null,are touching each other,,html-keyboard-response,150,1930759,0.0-15.0-2.5,94180,List1B,white,woman,,,,null,,,,
7866,,,survey-text,151,1938631,0.0-15.0-3.5,94180,List1B,white,woman,,,,,"{""Q0"":""Luke and Ruth are touching each other ""}","<img src=""stim_listB/touch4.gif""style=""height:400px;""></stim_listB>",are touching each other,
null,"<div style=""font-size:60px;"">+</div>",,html-keyboard-response,152,1939135,0.0-15.0-0.6,94180,List1B,white,woman,,,,null,,,,
null,"<img src=""stim_listB/marry7.gif""style=""height:400px;""></stim_listB>",,html-keyboard-response,153,1941143,0.0-15.0-1.6,94180,List1B,white,woman,,,,null,,,,
null,is marrying,,html-keyboard-response,154,1943149,0.0-15.0-2.6,94180,List1B,white,woman,,,,null,,,,
6683,,,survey-text,155,1949838,0.0-15.0-3.6,94180,List1B,white,woman,,,,,"{""Q0"":""Ruth is marrying Kate ""}","<img src=""stim_listB/marry7.gif""style=""height:400px;""></stim_listB>",is marrying,
null,"<div style=""font-size:60px;"">+</div>",,html-keyboard-response,156,1950343,0.0-15.0-0.7,94180,List1B,white,woman,,,,null,,,,
null,"<img src=""stim_listB/dance7.gif""style=""height:400px;""></stim_listB>",,html-keyboard-response,157,1952351,0.0-15.0-1.7,94180,List1B,white,woman,,,,null,,,,
null,is dancing with,,html-keyboard-response,158,1954355,0.0-15.0-2.7,94180,List1B,white,woman,,,,null,,,,
6727,,,survey-text,159,1961089,0.0-15.0-3.7,94180,List1B,white,woman,,,,,"{""Q0"":""Jane is dancing with Beth ""}","<img src=""stim_listB/dance7.gif""style=""height:400px;""></stim_listB>",is dancing with,
null,"<div style=""font-size:60px;"">+</div>",,html-keyboard-response,160,1961594,0.0-15.0-0.8,94180,List1B,white,woman,,,,null,,,,
null,"<img src=""stim_listB/touch8.gif""style=""height:400px;""></stim_listB>",,html-keyboard-response,161,1963601,0.0-15.0-1.8,94180,List1B,white,woman,,,,null,,,,
null,are touching each other,,html-keyboard-response,162,1965606,0.0-15.0-2.8,94180,List1B,white,woman,,,,null,,,,
14157,,,survey-text,163,1979770,0.0-15.0-3.8,94180,List1B,white,woman,,,,,"{""Q0"":""Beth and Ruth are touching each other ""}","<img src=""stim_listB/touch8.gif""style=""height:400px;""></stim_listB>",are touching each other,
null,"<div style=""font-size:60px;"">+</div>",,html-keyboard-response,164,1980276,0.0-15.0-0.9,94180,List1B,white,woman,,,,null,,,,
null,"<img src=""stim_listB/flirt2.gif""style=""height:400px;""></stim_listB>",,html-keyboard-response,165,1982285,0.0-15.0-1.9,94180,List1B,white,woman,,,,null,,,,
null,are flirting with each other,,html-keyboard-response,166,1984291,0.0-15.0-2.9,94180,List1B,white,woman,,,,null,,,,
8870,,,survey-text,167,1993167,0.0-15.0-3.9,94180,List1B,white,woman,,,,,"{""Q0"":""Beth and Mike are flirting with each other ""}","<img src=""stim_listB/flirt2.gif""style=""height:400px;""></stim_listB>",are flirting with each other,
null,"<div style=""font-size:60px;"">+</div>",,html-keyboard-response,168,1993672,0.0-15.0-0.10,94180,List1B,white,woman,,,,null,,,,
null,"<img src=""stim_listB/fight5.gif""style=""height:400px;""></stim_listB>",,html-keyboard-response,169,1995681,0.0-15.0-1.10,94180,List1B,white,woman,,,,null,,,,
null,is fighting,,html-keyboard-response,170,1997686,0.0-15.0-2.10,94180,List1B,white,woman,,,,null,,,,
6353,,,survey-text,171,2004045,0.0-15.0-3.10,94180,List1B,white,woman,,,,,"{""Q0"":""Dave is fighting Mike ""}","<img src=""stim_listB/fight5.gif""style=""height:400px;""></stim_listB>",is fighting,
null,"<div style=""font-size:60px;"">+</div>",,html-keyboard-response,172,2004551,0.0-15.0-0.11,94180,List1B,white,woman,,,,null,,,,
null,"<img src=""stim_listB/touch5.gif""style=""height:400px;""></stim_listB>",,html-keyboard-response,173,2006559,0.0-15.0-1.11,94180,List1B,white,woman,,,,null,,,,
null,is touching,,html-keyboard-response,174,2008565,0.0-15.0-2.11,94180,List1B,white,woman,,,,null,,,,
11185,,,survey-text,175,2019755,0.0-15.0-3.11,94180,List1B,white,woman,,,,,"{""Q0"":""Dave is touching luke ""}","<img src=""stim_listB/touch5.gif""style=""height:400px;""></stim_listB>",is touching,
null,"<div style=""font-size:60px;"">+</div>",,html-keyboard-response,176,2020261,0.0-15.0-0.12,94180,List1B,white,woman,,,,null,,,,
null,"<img src=""stim_listB/talk1.gif""style=""height:400px;""></stim_listB>",,html-keyboard-response,177,2022270,0.0-15.0-1.12,94180,List1B,white,woman,,,,null,,,,
null,is talking to,,html-keyboard-response,178,2024275,0.0-15.0-2.12,94180,List1B,white,woman,,,,null,,,,
6113,,,survey-text,179,2030395,0.0-15.0-3.12,94180,List1B,white,woman,,,,,"{""Q0"":""Kate is talking to Fred ""}","<img src=""stim_listB/talk1.gif""style=""height:400px;""></stim_listB>",is talking to,
null,"<div style=""font-size:60px;"">+</div>",,html-keyboard-response,180,2030899,0.0-15.0-0.13,94180,List1B,white,woman,,,,null,,,,
null,"<img src=""stim_listB/talk8.gif""style=""height:400px;""></stim_listB>",,html-keyboard-response,181,2032905,0.0-15.0-1.13,94180,List1B,white,woman,,,,null,,,,
null,are talking to each other,,html-keyboard-response,182,2034908,0.0-15.0-2.13,94180,List1B,white,woman,,,,null,,,,
7927,,,survey-text,183,2042842,0.0-15.0-3.13,94180,List1B,white,woman,,,,,"{""Q0"":""Kate and Ruth are talking to each other ""}","<img src=""stim_listB/talk8.gif""style=""height:400px;""></stim_listB>",are talking to each other,
null,"<div style=""font-size:60px;"">+</div>",,html-keyboard-response,184,2043348,0.0-15.0-0.14,94180,List1B,white,woman,,,,null,,,,
null,"<img src=""stim_listB/marry3.gif""style=""height:400px;""></stim_listB>",,html-keyboard-response,185,2045357,0.0-15.0-1.14,94180,List1B,white,woman,,,,null,,,,
null,is marrying,,html-keyboard-response,186,2047361,0.0-15.0-2.14,94180,List1B,white,woman,,,,null,,,,
6371,,,survey-text,187,2053736,0.0-15.0-3.14,94180,List1B,white,woman,,,,,"{""Q0"":""Ruth is marrying dave ""}","<img src=""stim_listB/marry3.gif""style=""height:400px;""></stim_listB>",is marrying,
null,"<div style=""font-size:60px;"">+</div>",,html-keyboard-response,188,2054239,0.0-15.0-0.15,94180,List1B,white,woman,,,,null,,,,
null,"<img src=""stim_listB/kiss6.gif""style=""height:400px;""></stim_listB>",,html-keyboard-response,189,2056245,0.0-15.0-1.15,94180,List1B,white,woman,,,,null,,,,
null,are kissing each other,,html-keyboard-response,190,2058250,0.0-15.0-2.15,94180,List1B,white,woman,,,,null,,,,
9961,,,survey-text,191,2068227,0.0-15.0-3.15,94180,List1B,white,woman,,,,,"{""Q0"":""Mike and Dave are kissing each other""}","<img src=""stim_listB/kiss6.gif""style=""height:400px;""></stim_listB>",are kissing each other,
null,"<div style=""font-size:60px;"">+</div>",,html-keyboard-response,192,2068737,0.0-15.0-0.16,94180,List1B,white,woman,,,,null,,,,
null,"<img src=""stim_listB/kiss7.gif""style=""height:400px;""></stim_listB>",,html-keyboard-response,193,2070754,0.0-15.0-1.16,94180,List1B,white,woman,,,,null,,,,
null,is kissing,,html-keyboard-response,194,2072794,0.0-15.0-2.16,94180,List1B,white,woman,,,,null,,,,
5686,,,survey-text,195,2078486,0.0-15.0-3.16,94180,List1B,white,woman,,,,,"{""Q0"":""Beth is kissing Ruth ""}","<img src=""stim_listB/kiss7.gif""style=""height:400px;""></stim_listB>",is kissing,
null,"<div style=""font-size:60px;"">+</div>",,html-keyboard-response,196,2078991,0.0-15.0-0.17,94180,List1B,white,woman,,,,null,,,,
null,"<img src=""stim_listB/argue7.gif""style=""height:400px;""></stim_listB>",,html-keyboard-response,197,2081000,0.0-15.0-1.17,94180,List1B,white,woman,,,,null,,,,
null,is arguing with,,html-keyboard-response,198,2083005,0.0-15.0-2.17,94180,List1B,white,woman,,,,null,,,,
6402,,,survey-text,199,2089414,0.0-15.0-3.17,94180,List1B,white,woman,,,,,"{""Q0"":""Ruth is arguing with Kate ""}","<img src=""stim_listB/argue7.gif""style=""height:400px;""></stim_listB>",is arguing with,
null,"<div style=""font-size:60px;"">+</div>",,html-keyboard-response,200,2089919,0.0-15.0-0.18,94180,List1B,white,woman,,,,null,,,,
null,"<img src=""stim_listB/flirt3.gif""style=""height:400px;""></stim_listB>",,html-keyboard-response,201,2091927,0.0-15.0-1.18,94180,List1B,white,woman,,,,null,,,,
null,is flirting with,,html-keyboard-response,202,2093932,0.0-15.0-2.18,94180,List1B,white,woman,,,,null,,,,
5966,,,survey-text,203,2099903,0.0-15.0-3.18,94180,List1B,white,woman,,,,,"{""Q0"":""Jane is flirting with luke ""}","<img src=""stim_listB/flirt3.gif""style=""height:400px;""></stim_listB>",is flirting with,
null,"<div style=""font-size:60px;"">+</div>",,html-keyboard-response,204,2100409,0.0-15.0-0.19,94180,List1B,white,woman,,,,null,,,,
null,"<img src=""stim_listB/dance8.gif""style=""height:400px;""></stim_listB>",,html-keyboard-response,205,2102417,0.0-15.0-1.19,94180,List1B,white,woman,,,,null,,,,
null,are dancing with each other,,html-keyboard-response,206,2104422,0.0-15.0-2.19,94180,List1B,white,woman,,,,null,,,,
7792,,,survey-text,207,2112220,0.0-15.0-3.19,94180,List1B,white,woman,,,,,"{""Q0"":""Kate and Ruth are dancing with each other ""}","<img src=""stim_listB/dance8.gif""style=""height:400px;""></stim_listB>",are dancing with each other,
3018,"<img src='img/portrait_matrix_list1.jpg' style='width:900px;height:500px;''></img><p>If you have memorised all the portraits and names and are ready to start, press Continue.</p><p><strong>Please note: Your memory of these faces will be tested 4 times during this experiment.</strong></p>",0,html-button-response,208,2115260,0.0-16.0-0.0,94180,List1B,white,woman,,,,,,,,
3177,"<img src=""portrait/WM2.jpg""style=""height:400px;""></img>",7,html-button-response,209,2119449,0.0-16.0-1.0,94180,List1B,white,woman,,TRUE,7,,,,,
null,CORRECT,,html-keyboard-response,210,2120961,0.0-16.0-2.0-0.0,94180,List1B,white,woman,,,,null,,,,
1938,"<img src=""portrait/WM1.jpg""style=""height:400px;""></img>",6,html-button-response,211,2122910,0.0-16.0-4.0,94180,List1B,white,woman,,TRUE,6,,,,,
null,CORRECT,,html-keyboard-response,212,2124422,0.0-16.0-5.0-0.0,94180,List1B,white,woman,,,,null,,,,
1735,"<img src=""portrait/BM1.jpg""style=""height:400px;""></img>",4,html-button-response,213,2126164,0.0-16.0-7.0,94180,List1B,white,woman,,TRUE,4,,,,,
null,CORRECT,,html-keyboard-response,214,2127670,0.0-16.0-8.0-0.0,94180,List1B,white,woman,,,,null,,,,
2095,"<img src=""portrait/BM2.jpg""style=""height:400px;""></img>",5,html-button-response,215,2129773,0.0-16.0-10.0,94180,List1B,white,woman,,TRUE,5,,,,,
null,CORRECT,,html-keyboard-response,216,2131280,0.0-16.0-11.0-0.0,94180,List1B,white,woman,,,,null,,,,
1960,"<img src=""portrait/WW1.jpg""style=""height:400px;""></img>",1,html-button-response,217,2133250,0.0-16.0-13.0,94180,List1B,white,woman,,TRUE,1,,,,,
null,CORRECT,,html-keyboard-response,218,2134756,0.0-16.0-14.0-0.0,94180,List1B,white,woman,,,,null,,,,
2006,"<img src=""portrait/BW2.jpg""style=""height:400px;""></img>",2,html-button-response,219,2136772,0.0-16.0-16.0,94180,List1B,white,woman,,TRUE,2,,,,,
null,CORRECT,,html-keyboard-response,220,2138277,0.0-16.0-17.0-0.0,94180,List1B,white,woman,,,,null,,,,
1918,"<img src=""portrait/WW2.jpg""style=""height:400px;""></img>",3,html-button-response,221,2140207,0.0-16.0-19.0,94180,List1B,white,woman,,TRUE,3,,,,,
null,CORRECT,,html-keyboard-response,222,2141714,0.0-16.0-20.0-0.0,94180,List1B,white,woman,,,,null,,,,
2035,"<img src=""portrait/BW1.jpg""style=""height:400px;""></img>",0,html-button-response,223,2143758,0.0-16.0-22.0,94180,List1B,white,woman,,TRUE,0,,,,,
null,CORRECT,,html-keyboard-response,224,2145265,0.0-16.0-23.0-0.0,94180,List1B,white,woman,,,,null,,,,
1587,<p>You got 8 out of 8 right first time. Press Continue.</p>,0,html-button-response,225,2146870,0.0-16.0-25.0,94180,List1B,white,woman,,,,,,,,
null,"<div style=""font-size:60px;"">+</div>",,html-keyboard-response,226,2148386,0.0-17.0-0.0,94180,List1B,white,woman,,,,null,,,,
null,"<img src=""stim_listB/fight3.gif""style=""height:400px;""></stim_listB>",,html-keyboard-response,227,2150397,0.0-17.0-1.0,94180,List1B,white,woman,,,,null,,,,
null,is fighting,,html-keyboard-response,228,2152401,0.0-17.0-2.0,94180,List1B,white,woman,,,,null,,,,
8529,,,survey-text,229,2160936,0.0-17.0-3.0,94180,List1B,white,woman,,,,,"{""Q0"":""Jane is fighting dave ""}","<img src=""stim_listB/fight3.gif""style=""height:400px;""></stim_listB>",is fighting,
null,"<div style=""font-size:60px;"">+</div>",,html-keyboard-response,230,2161442,0.0-17.0-0.1,94180,List1B,white,woman,,,,null,,,,
null,"<img src=""stim_listB/talk3.gif""style=""height:400px;""></stim_listB>",,html-keyboard-response,231,2163450,0.0-17.0-1.1,94180,List1B,white,woman,,,,null,,,,
null,is talking to,,html-keyboard-response,232,2165456,0.0-17.0-2.1,94180,List1B,white,woman,,,,null,,,,
821,,,survey-text,233,2166284,0.0-17.0-3.1,94180,List1B,white,woman,,,,,"{""Q0"":""""}","<img src=""stim_listB/talk3.gif""style=""height:400px;""></stim_listB>",is talking to,
null,"<div style=""font-size:60px;"">+</div>",,html-keyboard-response,234,2166792,0.0-17.0-0.2,94180,List1B,white,woman,,,,null,,,,
null,"<img src=""stim_listB/kiss1.gif""style=""height:400px;""></stim_listB>",,html-keyboard-response,235,2168799,0.0-17.0-1.2,94180,List1B,white,woman,,,,null,,,,
null,is kissing,,html-keyboard-response,236,2170804,0.0-17.0-2.2,94180,List1B,white,woman,,,,null,,,,
5627,,,survey-text,237,2176436,0.0-17.0-3.2,94180,List1B,white,woman,,,,,"{""Q0"":""Beth is kissing Fred ""}","<img src=""stim_listB/kiss1.gif""style=""height:400px;""></stim_listB>",is kissing,
null,"<div style=""font-size:60px;"">+</div>",,html-keyboard-response,238,2176942,0.0-17.0-0.3,94180,List1B,white,woman,,,,null,,,,
null,"<img src=""stim_listB/flirt1.gif""style=""height:400px;""></stim_listB>",,html-keyboard-response,239,2178950,0.0-17.0-1.3,94180,List1B,white,woman,,,,null,,,,
null,is flirting with,,html-keyboard-response,240,2180955,0.0-17.0-2.3,94180,List1B,white,woman,,,,null,,,,
10110,,,survey-text,241,2191071,0.0-17.0-3.3,94180,List1B,white,woman,,,,,"{""Q0"":""Fred is flirting with Kate ""}","<img src=""stim_listB/flirt1.gif""style=""height:400px;""></stim_listB>",is flirting with,
null,"<div style=""font-size:60px;"">+</div>",,html-keyboard-response,242,2191576,0.0-17.0-0.4,94180,List1B,white,woman,,,,null,,,,
null,"<img src=""stim_listB/shout4.gif""style=""height:400px;""></stim_listB>",,html-keyboard-response,243,2193585,0.0-17.0-1.4,94180,List1B,white,woman,,,,null,,,,
null,are shouting at each other,,html-keyboard-response,244,2195590,0.0-17.0-2.4,94180,List1B,white,woman,,,,null,,,,
10242,,,survey-text,245,2205838,0.0-17.0-3.4,94180,List1B,white,woman,,,,,"{""Q0"":""Dave and Jane are shouting at each other ""}","<img src=""stim_listB/shout4.gif""style=""height:400px;""></stim_listB>",are shouting at each other,
null,"<div style=""font-size:60px;"">+</div>",,html-keyboard-response,246,2206344,0.0-17.0-0.5,94180,List1B,white,woman,,,,null,,,,
null,"<img src=""stim_listB/talk5.gif""style=""height:400px;""></stim_listB>",,html-keyboard-response,247,2208353,0.0-17.0-1.5,94180,List1B,white,woman,,,,null,,,,
null,is talking to,,html-keyboard-response,248,2210358,0.0-17.0-2.5,94180,List1B,white,woman,,,,null,,,,
8407,,,survey-text,249,2218773,0.0-17.0-3.5,94180,List1B,white,woman,,,,,"{""Q0"":""Dave is talking to Fred ""}","<img src=""stim_listB/talk5.gif""style=""height:400px;""></stim_listB>",is talking to,
null,"<div style=""font-size:60px;"">+</div>",,html-keyboard-response,250,2219280,0.0-17.0-0.6,94180,List1B,white,woman,,,,null,,,,
null,"<img src=""stim_listB/play7.gif""style=""height:400px;""></stim_listB>",,html-keyboard-response,251,2221288,0.0-17.0-1.6,94180,List1B,white,woman,,,,null,,,,
null,is playing with,,html-keyboard-response,252,2223293,0.0-17.0-2.6,94180,List1B,white,woman,,,,null,,,,
11973,,,survey-text,253,2235271,0.0-17.0-3.6,94180,List1B,white,woman,,,,,"{""Q0"":""Jane is playing with Kate ""}","<img src=""stim_listB/play7.gif""style=""height:400px;""></stim_listB>",is playing with,
null,"<div style=""font-size:60px;"">+</div>",,html-keyboard-response,254,2235777,0.0-17.0-0.7,94180,List1B,white,woman,,,,null,,,,
null,"<img src=""stim_listB/dance1.gif""style=""height:400px;""></stim_listB>",,html-keyboard-response,255,2237785,0.0-17.0-1.7,94180,List1B,white,woman,,,,null,,,,
null,is dancing with,,html-keyboard-response,256,2239790,0.0-17.0-2.7,94180,List1B,white,woman,,,,null,,,,
14489,,,survey-text,257,2254286,0.0-17.0-3.7,94180,List1B,white,woman,,,,,"{""Q0"":""Kate is dancing with Fred ""}","<img src=""stim_listB/dance1.gif""style=""height:400px;""></stim_listB>",is dancing with,
null,"<div style=""font-size:60px;"">+</div>",,html-keyboard-response,258,2254793,0.0-17.0-0.8,94180,List1B,white,woman,,,,null,,,,
null,"<img src=""stim_listB/talk2.gif""style=""height:400px;""></stim_listB>",,html-keyboard-response,259,2256803,0.0-17.0-1.8,94180,List1B,white,woman,,,,null,,,,
null,are talking to each other,,html-keyboard-response,260,2258809,0.0-17.0-2.8,94180,List1B,white,woman,,,,null,,,,
15009,,,survey-text,261,2273824,0.0-17.0-3.8,94180,List1B,white,woman,,,,,"{""Q0"":""Mike and Beth are talking to each other ""}","<img src=""stim_listB/talk2.gif""style=""height:400px;""></stim_listB>",are talking to each other,
null,"<div style=""font-size:60px;"">+</div>",,html-keyboard-response,262,2274328,0.0-17.0-0.9,94180,List1B,white,woman,,,,null,,,,
null,"<img src=""stim_listB/shout7.gif""style=""height:400px;""></stim_listB>",,html-keyboard-response,263,2276335,0.0-17.0-1.9,94180,List1B,white,woman,,,,null,,,,
null,is shouting at,,html-keyboard-response,264,2278341,0.0-17.0-2.9,94180,List1B,white,woman,,,,null,,,,
17988,,,survey-text,265,2296335,0.0-17.0-3.9,94180,List1B,white,woman,,,,,"{""Q0"":""Ruth is shouting at Beth ""}","<img src=""stim_listB/shout7.gif""style=""height:400px;""></stim_listB>",is shouting at,
null,"<div style=""font-size:60px;"">+</div>",,html-keyboard-response,266,2296840,0.0-17.0-0.10,94180,List1B,white,woman,,,,null,,,,
null,"<img src=""stim_listB/play5.gif""style=""height:400px;""></stim_listB>",,html-keyboard-response,267,2298848,0.0-17.0-1.10,94180,List1B,white,woman,,,,null,,,,
null,is playing with,,html-keyboard-response,268,2300855,0.0-17.0-2.10,94180,List1B,white,woman,,,,null,,,,
11979,,,survey-text,269,2312841,0.0-17.0-3.10,94180,List1B,white,woman,,,,,"{""Q0"":""Dave is playing with Mike ""}","<img src=""stim_listB/play5.gif""style=""height:400px;""></stim_listB>",is playing with,
null,"<div style=""font-size:60px;"">+</div>",,html-keyboard-response,270,2313347,0.0-17.0-0.11,94180,List1B,white,woman,,,,null,,,,
null,"<img src=""stim_listB/touch7.gif""style=""height:400px;""></stim_listB>",,html-keyboard-response,271,2315357,0.0-17.0-1.11,94180,List1B,white,woman,,,,null,,,,
null,is touching,,html-keyboard-response,272,2317363,0.0-17.0-2.11,94180,List1B,white,woman,,,,null,,,,
10806,,,survey-text,273,2328176,0.0-17.0-3.11,94180,List1B,white,woman,,,,,"{""Q0"":""Jane is touching Kate ""}","<img src=""stim_listB/touch7.gif""style=""height:400px;""></stim_listB>",is touching,
null,"<div style=""font-size:60px;"">+</div>",,html-keyboard-response,274,2328682,0.0-17.0-0.12,94180,List1B,white,woman,,,,null,,,,
null,"<img src=""stim_listB/shout1.gif""style=""height:400px;""></stim_listB>",,html-keyboard-response,275,2330691,0.0-17.0-1.12,94180,List1B,white,woman,,,,null,,,,
null,is shouting at,,html-keyboard-response,276,2332697,0.0-17.0-2.12,94180,List1B,white,woman,,,,null,,,,
6036,,,survey-text,277,2338752,0.0-17.0-3.12,94180,List1B,white,woman,,,,,"{""Q0"":""Beth is shouting at Fred ""}","<img src=""stim_listB/shout1.gif""style=""height:400px;""></stim_listB>",is shouting at,
null,"<div style=""font-size:60px;"">+</div>",,html-keyboard-response,278,2339258,0.0-17.0-0.13,94180,List1B,white,woman,,,,null,,,,
null,"<img src=""stim_listB/play2.gif""style=""height:400px;""></stim_listB>",,html-keyboard-response,279,2341267,0.0-17.0-1.13,94180,List1B,white,woman,,,,null,,,,
null,are playing with each other,,html-keyboard-response,280,2343272,0.0-17.0-2.13,94180,List1B,white,woman,,,,null,,,,
7745,,,survey-text,281,2351023,0.0-17.0-3.13,94180,List1B,white,woman,,,,,"{""Q0"":""Fred and Beth are playing with each other ""}","<img src=""stim_listB/play2.gif""style=""height:400px;""></stim_listB>",are playing with each other,
null,"<div style=""font-size:60px;"">+</div>",,html-keyboard-response,282,2351529,0.0-17.0-0.14,94180,List1B,white,woman,,,,null,,,,
null,"<img src=""stim_listB/play1.gif""style=""height:400px;""></stim_listB>",,html-keyboard-response,283,2353539,0.0-17.0-1.14,94180,List1B,white,woman,,,,null,,,,
null,is playing with,,html-keyboard-response,284,2355544,0.0-17.0-2.14,94180,List1B,white,woman,,,,null,,,,
5765,,,survey-text,285,2361315,0.0-17.0-3.14,94180,List1B,white,woman,,,,,"{""Q0"":""Kate is playing with Mike ""}","<img src=""stim_listB/play1.gif""style=""height:400px;""></stim_listB>",is playing with,
null,"<div style=""font-size:60px;"">+</div>",,html-keyboard-response,286,2361821,0.0-17.0-0.15,94180,List1B,white,woman,,,,null,,,,
null,"<img src=""stim_listB/marry4.gif""style=""height:400px;""></stim_listB>",,html-keyboard-response,287,2363829,0.0-17.0-1.15,94180,List1B,white,woman,,,,null,,,,
null,are marrying each other,,html-keyboard-response,288,2365832,0.0-17.0-2.15,94180,List1B,white,woman,,,,null,,,,
7808,,,survey-text,289,2373646,0.0-17.0-3.15,94180,List1B,white,woman,,,,,"{""Q0"":""Luke and Jane are marrying each other ""}","<img src=""stim_listB/marry4.gif""style=""height:400px;""></stim_listB>",are marrying each other,
null,"<div style=""font-size:60px;"">+</div>",,html-keyboard-response,290,2374152,0.0-17.0-0.16,94180,List1B,white,woman,,,,null,,,,
null,"<img src=""stim_listB/argue4.gif""style=""height:400px;""></stim_listB>",,html-keyboard-response,291,2376160,0.0-17.0-1.16,94180,List1B,white,woman,,,,null,,,,
null,are arguing with each other,,html-keyboard-response,292,2378167,0.0-17.0-2.16,94180,List1B,white,woman,,,,null,,,,
10492,,,survey-text,293,2388666,0.0-17.0-3.16,94180,List1B,white,woman,,,,,"{""Q0"":""Luke and Jane were arguing with each other ""}","<img src=""stim_listB/argue4.gif""style=""height:400px;""></stim_listB>",are arguing with each other,
null,"<div style=""font-size:60px;"">+</div>",,html-keyboard-response,294,2389172,0.0-17.0-0.17,94180,List1B,white,woman,,,,null,,,,
null,"<img src=""stim_listB/flirt4.gif""style=""height:400px;""></stim_listB>",,html-keyboard-response,295,2391182,0.0-17.0-1.17,94180,List1B,white,woman,,,,null,,,,
null,are flirting with each other,,html-keyboard-response,296,2393188,0.0-17.0-2.17,94180,List1B,white,woman,,,,null,,,,
8227,,,survey-text,297,2401422,0.0-17.0-3.17,94180,List1B,white,woman,,,,,"{""Q0"":""Dave and Ruth are flirting with each other ""}","<img src=""stim_listB/flirt4.gif""style=""height:400px;""></stim_listB>",are flirting with each other,
null,"<div style=""font-size:60px;"">+</div>",,html-keyboard-response,298,2401928,0.0-17.0-0.18,94180,List1B,white,woman,,,,null,,,,
null,"<img src=""stim_listB/dance2.gif""style=""height:400px;""></stim_listB>",,html-keyboard-response,299,2403937,0.0-17.0-1.18,94180,List1B,white,woman,,,,null,,,,
null,are dancing with each other,,html-keyboard-response,300,2405943,0.0-17.0-2.18,94180,List1B,white,woman,,,,null,,,,
7676,,,survey-text,301,2413626,0.0-17.0-3.18,94180,List1B,white,woman,,,,,"{""Q0"":""Beth and Mike are dancing with each other ""}","<img src=""stim_listB/dance2.gif""style=""height:400px;""></stim_listB>",are dancing with each other,
null,"<div style=""font-size:60px;"">+</div>",,html-keyboard-response,302,2414133,0.0-17.0-0.19,94180,List1B,white,woman,,,,null,,,,
null,"<img src=""stim_listB/touch2.gif""style=""height:400px;""></stim_listB>",,html-keyboard-response,303,2416142,0.0-17.0-1.19,94180,List1B,white,woman,,,,null,,,,
null,are touching each other,,html-keyboard-response,304,2418148,0.0-17.0-2.19,94180,List1B,white,woman,,,,null,,,,
7252,,,survey-text,305,2425407,0.0-17.0-3.19,94180,List1B,white,woman,,,,,"{""Q0"":""Fred and Beth are touching each other ""}","<img src=""stim_listB/touch2.gif""style=""height:400px;""></stim_listB>",are touching each other,
8300,"<img src='img/portrait_matrix_list1.jpg' style='width:900px;height:500px;''></img><p>If you have memorised all the portraits and names and are ready to start, press Continue.</p><p><strong>Please note: Your memory of these faces will be tested 4 times during this experiment.</strong></p>",0,html-button-response,306,2433735,0.0-18.0-0.0,94180,List1B,white,woman,,,,,,,,
2945,"<img src=""portrait/WW1.jpg""style=""height:400px;""></img>",1,html-button-response,307,2437692,0.0-18.0-1.0,94180,List1B,white,woman,,TRUE,1,,,,,
null,CORRECT,,html-keyboard-response,308,2439204,0.0-18.0-2.0-0.0,94180,List1B,white,woman,,,,null,,,,
2247,"<img src=""portrait/WM1.jpg""style=""height:400px;""></img>",6,html-button-response,309,2441462,0.0-18.0-4.0,94180,List1B,white,woman,,TRUE,6,,,,,
null,CORRECT,,html-keyboard-response,310,2442970,0.0-18.0-5.0-0.0,94180,List1B,white,woman,,,,null,,,,
1653,"<img src=""portrait/BM1.jpg""style=""height:400px;""></img>",4,html-button-response,311,2444632,0.0-18.0-7.0,94180,List1B,white,woman,,TRUE,4,,,,,
null,CORRECT,,html-keyboard-response,312,2446138,0.0-18.0-8.0-0.0,94180,List1B,white,woman,,,,null,,,,
2424,"<img src=""portrait/BM2.jpg""style=""height:400px;""></img>",5,html-button-response,313,2448576,0.0-18.0-10.0,94180,List1B,white,woman,,TRUE,5,,,,,
null,CORRECT,,html-keyboard-response,314,2450084,0.0-18.0-11.0-0.0,94180,List1B,white,woman,,,,null,,,,
57785,"<img src=""portrait/WW2.jpg""style=""height:400px;""></img>",3,html-button-response,315,2507882,0.0-18.0-13.0,94180,List1B,white,woman,,TRUE,3,,,,,
null,CORRECT,,html-keyboard-response,316,2509388,0.0-18.0-14.0-0.0,94180,List1B,white,woman,,,,null,,,,
1944,"<img src=""portrait/BW1.jpg""style=""height:400px;""></img>",0,html-button-response,317,2511341,0.0-18.0-16.0,94180,List1B,white,woman,,TRUE,0,,,,,
null,CORRECT,,html-keyboard-response,318,2512847,0.0-18.0-17.0-0.0,94180,List1B,white,woman,,,,null,,,,
1457,"<img src=""portrait/BW2.jpg""style=""height:400px;""></img>",2,html-button-response,319,2514316,0.0-18.0-19.0,94180,List1B,white,woman,,TRUE,2,,,,,
null,CORRECT,,html-keyboard-response,320,2515824,0.0-18.0-20.0-0.0,94180,List1B,white,woman,,,,null,,,,
1956,"<img src=""portrait/WM2.jpg""style=""height:400px;""></img>",7,html-button-response,321,2517791,0.0-18.0-22.0,94180,List1B,white,woman,,TRUE,7,,,,,
null,CORRECT,,html-keyboard-response,322,2519297,0.0-18.0-23.0-0.0,94180,List1B,white,woman,,,,null,,,,
1026,<p>You got 8 out of 8 right first time. Press Continue.</p>,0,html-button-response,323,2520337,0.0-18.0-25.0,94180,List1B,white,woman,,,,,,,,
null,"<div style=""font-size:60px;"">+</div>",,html-keyboard-response,324,2521848,0.0-19.0-0.0,94180,List1B,white,woman,,,,null,,,,
null,"<img src=""stim_listB/argue8.gif""style=""height:400px;""></stim_listB>",,html-keyboard-response,325,2523857,0.0-19.0-1.0,94180,List1B,white,woman,,,,null,,,,
null,are arguing with each other,,html-keyboard-response,326,2525863,0.0-19.0-2.0,94180,List1B,white,woman,,,,null,,,,
8101,,,survey-text,327,2533971,0.0-19.0-3.0,94180,List1B,white,woman,,,,,"{""Q0"":""Beth and Jane are arguing with each other ""}","<img src=""stim_listB/argue8.gif""style=""height:400px;""></stim_listB>",are arguing with each other,
null,"<div style=""font-size:60px;"">+</div>",,html-keyboard-response,328,2534476,0.0-19.0-0.1,94180,List1B,white,woman,,,,null,,,,
null,"<img src=""stim_listB/dance5.gif""style=""height:400px;""></stim_listB>",,html-keyboard-response,329,2536485,0.0-19.0-1.1,94180,List1B,white,woman,,,,null,,,,
null,is dancing with,,html-keyboard-response,330,2538491,0.0-19.0-2.1,94180,List1B,white,woman,,,,null,,,,
5433,,,survey-text,331,2543930,0.0-19.0-3.1,94180,List1B,white,woman,,,,,"{""Q0"":""Dave is dancing with Fred ""}","<img src=""stim_listB/dance5.gif""style=""height:400px;""></stim_listB>",is dancing with,
null,"<div style=""font-size:60px;"">+</div>",,html-keyboard-response,332,2544437,0.0-19.0-0.2,94180,List1B,white,woman,,,,null,,,,
null,"<img src=""stim_listB/marry8.gif""style=""height:400px;""></stim_listB>",,html-keyboard-response,333,2546445,0.0-19.0-1.2,94180,List1B,white,woman,,,,null,,,,
null,are marrying each other,,html-keyboard-response,334,2548450,0.0-19.0-2.2,94180,List1B,white,woman,,,,null,,,,
8394,,,survey-text,335,2556851,0.0-19.0-3.2,94180,List1B,white,woman,,,,,"{""Q0"":""Beth and Jane are marrying each other ""}","<img src=""stim_listB/marry8.gif""style=""height:400px;""></stim_listB>",are marrying each other,
null,"<div style=""font-size:60px;"">+</div>",,html-keyboard-response,336,2557358,0.0-19.0-0.3,94180,List1B,white,woman,,,,null,,,,
null,"<img src=""stim_listB/marry6.gif""style=""height:400px;""></stim_listB>",,html-keyboard-response,337,2559368,0.0-19.0-1.3,94180,List1B,white,woman,,,,null,,,,
null,are marrying each other,,html-keyboard-response,338,2561374,0.0-19.0-2.3,94180,List1B,white,woman,,,,null,,,,
7679,,,survey-text,339,2569060,0.0-19.0-3.3,94180,List1B,white,woman,,,,,"{""Q0"":""Fred and Dave are marrying each other ""}","<img src=""stim_listB/marry6.gif""style=""height:400px;""></stim_listB>",are marrying each other,
null,"<div style=""font-size:60px;"">+</div>",,html-keyboard-response,340,2569567,0.0-19.0-0.4,94180,List1B,white,woman,,,,null,,,,
null,"<img src=""stim_listB/touch1.gif""style=""height:400px;""></stim_listB>",,html-keyboard-response,341,2571575,0.0-19.0-1.4,94180,List1B,white,woman,,,,null,,,,
null,is touching,,html-keyboard-response,342,2573578,0.0-19.0-2.4,94180,List1B,white,woman,,,,null,,,,
4970,,,survey-text,343,2578553,0.0-19.0-3.4,94180,List1B,white,woman,,,,,"{""Q0"":""Kate is touching Mike ""}","<img src=""stim_listB/touch1.gif""style=""height:400px;""></stim_listB>",is touching,
null,"<div style=""font-size:60px;"">+</div>",,html-keyboard-response,344,2579069,0.0-19.0-0.5,94180,List1B,white,woman,,,,null,,,,
null,"<img src=""stim_listB/fight7.gif""style=""height:400px;""></stim_listB>",,html-keyboard-response,345,2581080,0.0-19.0-1.5,94180,List1B,white,woman,,,,null,,,,
null,is fighting,,html-keyboard-response,346,2583086,0.0-19.0-2.5,94180,List1B,white,woman,,,,null,,,,
6143,,,survey-text,347,2589243,0.0-19.0-3.5,94180,List1B,white,woman,,,,,"{""Q0"":""Jane is fighting Kate ""}","<img src=""stim_listB/fight7.gif""style=""height:400px;""></stim_listB>",is fighting,
null,"<div style=""font-size:60px;"">+</div>",,html-keyboard-response,348,2589749,0.0-19.0-0.6,94180,List1B,white,woman,,,,null,,,,
null,"<img src=""stim_listB/argue2.gif""style=""height:400px;""></stim_listB>",,html-keyboard-response,349,2591759,0.0-19.0-1.6,94180,List1B,white,woman,,,,null,,,,
null,are arguing with each other,,html-keyboard-response,350,2593765,0.0-19.0-2.6,94180,List1B,white,woman,,,,null,,,,
8142,,,survey-text,351,2601914,0.0-19.0-3.6,94180,List1B,white,woman,,,,,"{""Q0"":""Fred and Kate are arguing with each other ""}","<img src=""stim_listB/argue2.gif""style=""height:400px;""></stim_listB>",are arguing with each other,
null,"<div style=""font-size:60px;"">+</div>",,html-keyboard-response,352,2602419,0.0-19.0-0.7,94180,List1B,white,woman,,,,null,,,,
null,"<img src=""stim_listB/dance4.gif""style=""height:400px;""></stim_listB>",,html-keyboard-response,353,2604428,0.0-19.0-1.7,94180,List1B,white,woman,,,,null,,,,
null,are dancing with each other,,html-keyboard-response,354,2606434,0.0-19.0-2.7,94180,List1B,white,woman,,,,null,,,,
8368,,,survey-text,355,2614812,0.0-19.0-3.7,94180,List1B,white,woman,,,,,"{""Q0"":""Dave and Ruth are dancing with each other ""}","<img src=""stim_listB/dance4.gif""style=""height:400px;""></stim_listB>",are dancing with each other,
null,"<div style=""font-size:60px;"">+</div>",,html-keyboard-response,356,2615317,0.0-19.0-0.8,94180,List1B,white,woman,,,,null,,,,
null,"<img src=""stim_listB/kiss2.gif""style=""height:400px;""></stim_listB>",,html-keyboard-response,357,2617327,0.0-19.0-1.8,94180,List1B,white,woman,,,,null,,,,
null,are kissing each other,,html-keyboard-response,358,2619331,0.0-19.0-2.8,94180,List1B,white,woman,,,,null,,,,
13544,,,survey-text,359,2632881,0.0-19.0-3.8,94180,List1B,white,woman,,,,,"{""Q0"":""Mike and Kate are kissing each other ""}","<img src=""stim_listB/kiss2.gif""style=""height:400px;""></stim_listB>",are kissing each other,
null,"<div style=""font-size:60px;"">+</div>",,html-keyboard-response,360,2633387,0.0-19.0-0.9,94180,List1B,white,woman,,,,null,,,,
null,"<img src=""stim_listB/shout5.gif""style=""height:400px;""></stim_listB>",,html-keyboard-response,361,2635396,0.0-19.0-1.9,94180,List1B,white,woman,,,,null,,,,
null,is shouting at,,html-keyboard-response,362,2637402,0.0-19.0-2.9,94180,List1B,white,woman,,,,null,,,,
12678,,,survey-text,363,2650085,0.0-19.0-3.9,94180,List1B,white,woman,,,,,"{""Q0"":""Luke is shouting at Fred ""}","<img src=""stim_listB/shout5.gif""style=""height:400px;""></stim_listB>",is shouting at,
null,"<div style=""font-size:60px;"">+</div>",,html-keyboard-response,364,2650588,0.0-19.0-0.10,94180,List1B,white,woman,,,,null,,,,
null,"<img src=""stim_listB/argue3.gif""style=""height:400px;""></stim_listB>",,html-keyboard-response,365,2652594,0.0-19.0-1.10,94180,List1B,white,woman,,,,null,,,,
null,is arguing with,,html-keyboard-response,366,2654600,0.0-19.0-2.10,94180,List1B,white,woman,,,,null,,,,
7197,,,survey-text,367,2661805,0.0-19.0-3.10,94180,List1B,white,woman,,,,,"{""Q0"":""Luke is shouting at Fred ""}","<img src=""stim_listB/argue3.gif""style=""height:400px;""></stim_listB>",is arguing with,
null,"<div style=""font-size:60px;"">+</div>",,html-keyboard-response,368,2662312,0.0-19.0-0.11,94180,List1B,white,woman,,,,null,,,,
null,"<img src=""stim_listB/shout8.gif""style=""height:400px;""></stim_listB>",,html-keyboard-response,369,2664321,0.0-19.0-1.11,94180,List1B,white,woman,,,,null,,,,
null,are shouting at each other,,html-keyboard-response,370,2666326,0.0-19.0-2.11,94180,List1B,white,woman,,,,null,,,,
7688,,,survey-text,371,2674022,0.0-19.0-3.11,94180,List1B,white,woman,,,,,"{""Q0"":""Kate and Jane are shouting at each other ""}","<img src=""stim_listB/shout8.gif""style=""height:400px;""></stim_listB>",are shouting at each other,
null,"<div style=""font-size:60px;"">+</div>",,html-keyboard-response,372,2674528,0.0-19.0-0.12,94180,List1B,white,woman,,,,null,,,,
null,"<img src=""stim_listB/marry5.gif""style=""height:400px;""></stim_listB>",,html-keyboard-response,373,2676538,0.0-19.0-1.12,94180,List1B,white,woman,,,,null,,,,
null,is marrying,,html-keyboard-response,374,2678544,0.0-19.0-2.12,94180,List1B,white,woman,,,,null,,,,
5863,,,survey-text,375,2684413,0.0-19.0-3.12,94180,List1B,white,woman,,,,,"{""Q0"":""Luke is marrying Mike ""}","<img src=""stim_listB/marry5.gif""style=""height:400px;""></stim_listB>",is marrying,
null,"<div style=""font-size:60px;"">+</div>",,html-keyboard-response,376,2684917,0.0-19.0-0.13,94180,List1B,white,woman,,,,null,,,,
null,"<img src=""stim_listB/fight8.gif""style=""height:400px;""></stim_listB>",,html-keyboard-response,377,2686923,0.0-19.0-1.13,94180,List1B,white,woman,,,,null,,,,
null,are fighting each other,,html-keyboard-response,378,2688927,0.0-19.0-2.13,94180,List1B,white,woman,,,,null,,,,
7927,,,survey-text,379,2696861,0.0-19.0-3.13,94180,List1B,white,woman,,,,,"{""Q0"":""Beth and Ruth are fighting each other ""}","<img src=""stim_listB/fight8.gif""style=""height:400px;""></stim_listB>",are fighting each other,
null,"<div style=""font-size:60px;"">+</div>",,html-keyboard-response,380,2697368,0.0-19.0-0.14,94180,List1B,white,woman,,,,null,,,,
null,"<img src=""stim_listB/flirt7.gif""style=""height:400px;""></stim_listB>",,html-keyboard-response,381,2699377,0.0-19.0-1.14,94180,List1B,white,woman,,,,null,,,,
null,is flirting with,,html-keyboard-response,382,2701383,0.0-19.0-2.14,94180,List1B,white,woman,,,,null,,,,
6369,,,survey-text,383,2707758,0.0-19.0-3.14,94180,List1B,white,woman,,,,,"{""Q0"":""Jane is flirting with Beth ""}","<img src=""stim_listB/flirt7.gif""style=""height:400px;""></stim_listB>",is flirting with,
null,"<div style=""font-size:60px;"">+</div>",,html-keyboard-response,384,2708264,0.0-19.0-0.15,94180,List1B,white,woman,,,,null,,,,
null,"<img src=""stim_listB/talk4.gif""style=""height:400px;""></stim_listB>",,html-keyboard-response,385,2710274,0.0-19.0-1.15,94180,List1B,white,woman,,,,null,,,,
null,are talking to each other,,html-keyboard-response,386,2712279,0.0-19.0-2.15,94180,List1B,white,woman,,,,null,,,,
18372,,,survey-text,387,2730658,0.0-19.0-3.15,94180,List1B,white,woman,,,,,"{""Q0"":""Dave and Ruth are talking to each other ""}","<img src=""stim_listB/talk4.gif""style=""height:400px;""></stim_listB>",are talking to each other,
null,"<div style=""font-size:60px;"">+</div>",,html-keyboard-response,388,2731165,0.0-19.0-0.16,94180,List1B,white,woman,,,,null,,,,
null,"<img src=""stim_listB/kiss4.gif""style=""height:400px;""></stim_listB>",,html-keyboard-response,389,2733172,0.0-19.0-1.16,94180,List1B,white,woman,,,,null,,,,
null,are kissing each other,,html-keyboard-response,390,2735176,0.0-19.0-2.16,94180,List1B,white,woman,,,,null,,,,
8112,,,survey-text,391,2743296,0.0-19.0-3.16,94180,List1B,white,woman,,,,,"{""Q0"":""Dave and Jane are kissing each other ""}","<img src=""stim_listB/kiss4.gif""style=""height:400px;""></stim_listB>",are kissing each other,
null,"<div style=""font-size:60px;"">+</div>",,html-keyboard-response,392,2743802,0.0-19.0-0.17,94180,List1B,white,woman,,,,null,,,,
null,"<img src=""stim_listB/kiss8.gif""style=""height:400px;""></stim_listB>",,html-keyboard-response,393,2745811,0.0-19.0-1.17,94180,List1B,white,woman,,,,null,,,,
null,are kissing each other,,html-keyboard-response,394,2747816,0.0-19.0-2.17,94180,List1B,white,woman,,,,null,,,,
9436,,,survey-text,395,2757259,0.0-19.0-3.17,94180,List1B,white,woman,,,,,"{""Q0"":""Kate and Jane are kissing each other ""}","<img src=""stim_listB/kiss8.gif""style=""height:400px;""></stim_listB>",are kissing each other,
null,"<div style=""font-size:60px;"">+</div>",,html-keyboard-response,396,2757763,0.0-19.0-0.18,94180,List1B,white,woman,,,,null,,,,
null,"<img src=""stim_listB/fight1.gif""style=""height:400px;""></stim_listB>",,html-keyboard-response,397,2759769,0.0-19.0-1.18,94180,List1B,white,woman,,,,null,,,,
null,is fighting,,html-keyboard-response,398,2761773,0.0-19.0-2.18,94180,List1B,white,woman,,,,null,,,,
9897,,,survey-text,399,2771675,0.0-19.0-3.18,94180,List1B,white,woman,,,,,"{""Q0"":""Kate is fighting Mike ""}","<img src=""stim_listB/fight1.gif""style=""height:400px;""></stim_listB>",is fighting,
null,"<div style=""font-size:60px;"">+</div>",,html-keyboard-response,400,2772182,0.0-19.0-0.19,94180,List1B,white,woman,,,,null,,,,
null,"<img src=""stim_listB/fight2.gif""style=""height:400px;""></stim_listB>",,html-keyboard-response,401,2774190,0.0-19.0-1.19,94180,List1B,white,woman,,,,null,,,,
null,are fighting each other,,html-keyboard-response,402,2776194,0.0-19.0-2.19,94180,List1B,white,woman,,,,null,,,,
11134,,,survey-text,403,2787336,0.0-19.0-3.19,94180,List1B,white,woman,,,,,"{""Q0"":""Fred and Beth are fighting each other ""}","<img src=""stim_listB/fight2.gif""style=""height:400px;""></stim_listB>",are fighting each other,
1641,<p>Thank you for completing that task.</p><p>The final part of this session is a short questionnaire.</p><p>Press Continue.</p>,0,html-button-response,404,2788985,0.0-20.0,94180,List1B,white,woman,,,,,,,,
37545,,,survey-text,405,2827552,0.0-21.0,94180,List1B,white,woman,,,,,"{""Q0"":""23"",""Q1"":""English"",""Q2"":""English"",""Q3"":""United Kingdom"",""Q4"":""White British"",""Q5"":""Female""}",,,demographics
10194,,,survey-likert,406,2837776,0.0-22.0,94180,List1B,white,woman,,,,,"{""Q0"":4}",,,likert_ESS
7066,,,survey-likert,407,2844856,0.0-23.0,94180,List1B,white,woman,,,,,"{""Q0"":4}",,,likert_NSSAL_Q1
2533,,,survey-likert,408,2847404,0.0-24.0,94180,List1B,white,woman,,,,,"{""Q0"":4}",,,likert_NSSAL_Q2
7158,,,survey-likert,409,2854576,0.0-25.0,94180,List1B,white,woman,,,,,"{""Q0"":4}",,,likert_CGRS_Q1
3523,,,survey-likert,410,2858113,0.0-26.0,94180,List1B,white,woman,,,,,"{""Q0"":4}",,,likert_CGRS_Q2
2256,,,survey-likert,411,2860384,0.0-27.0,94180,List1B,white,woman,,,,,"{""Q0"":4}",,,likert_CGRS_Q3
5712,,,survey-text,412,2866114,0.0-28.0,94180,List1B,white,woman,,,,,"{""Q0"":""ccc""}",,,worker_id
29438,,,external-html,413,2895777,0.0-29.0,94180,List1B,white,woman,debrief.html,,,,,,,
