rt,stimulus,button_pressed,trial_type,trial_index,time_elapsed,internal_node_id,subject,list,ppt_race,ppt_gender,url,first_guess,correct,key_press,responses,image_type,phrase_type,test_part
3051,Welcome to the experiment. Press Continue to begin.,0,html-button-response,0,3056,0.0-0.0,95648,List1A,white,woman,,,,,,,,
16487,,,external-html,1,20623,0.0-1.0,95648,List1A,white,woman,consent.html,,,,,,,
11632,"<p>On the next page, you will see portraits of 8 people and their names.</p><p>Your first task is to take a few minutes to memorise the names of these people.</p><p>You will have to recall their names during the rest of the experiment, so it is</p><p>essential that you try to memorise these people and their names as best as you can.</p><br><p><strong>You will then be tested on your memory of these names and portraits.</strong></p><br><p>The experiment will start after you have completed this memory test.</p><br><p>Ready?</p>",0,html-button-response,2,32260,0.0-2.0,95648,List1A,white,woman,,,,,,,,
52475,"<img src='img/portrait_matrix_list1.jpg' style='width:900px;height:500px;''></img><p>If you have memorised all the portraits and names and are ready to start, press Continue.</p><p><strong>Please note: Your memory of these faces will be tested 4 times during this experiment.</strong></p>",0,html-button-response,3,85739,0.0-3.0-0.0,95648,List1A,white,woman,,,,,,,,
4153,"<img src=""portrait/BW2.jpg""style=""height:400px;""></img>",2,html-button-response,4,90899,0.0-3.0-1.0,95648,List1A,white,woman,,TRUE,2,,,,,
null,CORRECT,,html-keyboard-response,5,92410,0.0-3.0-2.0-0.0,95648,List1A,white,woman,,,,null,,,,
3051,"<img src=""portrait/WM1.jpg""style=""height:400px;""></img>",6,html-button-response,6,95467,0.0-3.0-4.0,95648,List1A,white,woman,,TRUE,6,,,,,
null,CORRECT,,html-keyboard-response,7,96972,0.0-3.0-5.0-0.0,95648,List1A,white,woman,,,,null,,,,
2455,"<img src=""portrait/WW2.jpg""style=""height:400px;""></img>",3,html-button-response,8,99433,0.0-3.0-7.0,95648,List1A,white,woman,,TRUE,3,,,,,
null,CORRECT,,html-keyboard-response,9,100938,0.0-3.0-8.0-0.0,95648,List1A,white,woman,,,,null,,,,
5531,"<img src=""portrait/BW1.jpg""style=""height:400px;""></img>",2,html-button-response,10,106477,0.0-3.0-10.0,95648,List1A,white,woman,,TRUE,0,,,,,
3802,"<img src=""portrait/BW1.jpg""style=""height:400px;""></img>",0,html-button-response,11,111286,0.0-3.0-12.0-0.0,95648,List1A,white,woman,,FALSE,0,,,,,
null,CORRECT,,html-keyboard-response,12,112791,0.0-3.0-12.0-1.0-0.0,95648,List1A,white,woman,,,,null,,,,
3867,"<img src=""portrait/WW1.jpg""style=""height:400px;""></img>",1,html-button-response,13,116664,0.0-3.0-13.0,95648,List1A,white,woman,,TRUE,1,,,,,
null,CORRECT,,html-keyboard-response,14,118169,0.0-3.0-14.0-0.0,95648,List1A,white,woman,,,,null,,,,
4068,"<img src=""portrait/BM1.jpg""style=""height:400px;""></img>",4,html-button-response,15,122246,0.0-3.0-16.0,95648,List1A,white,woman,,TRUE,4,,,,,
null,CORRECT,,html-keyboard-response,16,123751,0.0-3.0-17.0-0.0,95648,List1A,white,woman,,,,null,,,,
2494,"<img src=""portrait/BM2.jpg""style=""height:400px;""></img>",5,html-button-response,17,126252,0.0-3.0-19.0,95648,List1A,white,woman,,TRUE,5,,,,,
null,CORRECT,,html-keyboard-response,18,127755,0.0-3.0-20.0-0.0,95648,List1A,white,woman,,,,null,,,,
2909,"<img src=""portrait/WM2.jpg""style=""height:400px;""></img>",7,html-button-response,19,130667,0.0-3.0-22.0,95648,List1A,white,woman,,TRUE,7,,,,,
null,CORRECT,,html-keyboard-response,20,132172,0.0-3.0-23.0-0.0,95648,List1A,white,woman,,,,null,,,,
3215,<p>You got 7 out of 8 right first time. Press Continue.</p>,0,html-button-response,21,135392,0.0-3.0-25.0,95648,List1A,white,woman,,,,,,,,
3827,"As you did not score 100%, the memory game will repeat. Press Continue.",0,html-button-response,22,140223,0.0-3.0-26.0-0.0,95648,List1A,white,woman,,,,,,,,
3021,"<img src='img/portrait_matrix_list1.jpg' style='width:900px;height:500px;''></img><p>If you have memorised all the portraits and names and are ready to start, press Continue.</p><p><strong>Please note: Your memory of these faces will be tested 4 times during this experiment.</strong></p>",0,html-button-response,23,144254,0.0-3.1-0.1,95648,List1A,white,woman,,,,,,,,
3697,"<img src=""portrait/BW2.jpg""style=""height:400px;""></img>",2,html-button-response,24,148957,0.0-3.1-1.1,95648,List1A,white,woman,,TRUE,2,,,,,
null,CORRECT,,html-keyboard-response,25,150462,0.0-3.1-2.1-0.1,95648,List1A,white,woman,,,,null,,,,
2249,"<img src=""portrait/WM1.jpg""style=""height:400px;""></img>",7,html-button-response,26,152716,0.0-3.1-4.1,95648,List1A,white,woman,,TRUE,6,,,,,
4074,"<img src=""portrait/WM1.jpg""style=""height:400px;""></img>",6,html-button-response,27,157798,0.0-3.1-6.1-0.1,95648,List1A,white,woman,,FALSE,6,,,,,
null,CORRECT,,html-keyboard-response,28,159304,0.0-3.1-6.1-1.1-0.1,95648,List1A,white,woman,,,,null,,,,
2579,"<img src=""portrait/WW2.jpg""style=""height:400px;""></img>",1,html-button-response,29,161889,0.0-3.1-7.1,95648,List1A,white,woman,,TRUE,3,,,,,
2998,"<img src=""portrait/WW2.jpg""style=""height:400px;""></img>",3,html-button-response,30,165894,0.0-3.1-9.1-0.1,95648,List1A,white,woman,,FALSE,3,,,,,
null,CORRECT,,html-keyboard-response,31,167398,0.0-3.1-9.1-1.1-0.1,95648,List1A,white,woman,,,,null,,,,
5611,"<img src=""portrait/BW1.jpg""style=""height:400px;""></img>",0,html-button-response,32,173016,0.0-3.1-10.1,95648,List1A,white,woman,,TRUE,0,,,,,
null,CORRECT,,html-keyboard-response,33,174520,0.0-3.1-11.1-0.1,95648,List1A,white,woman,,,,null,,,,
2516,"<img src=""portrait/WW1.jpg""style=""height:400px;""></img>",3,html-button-response,34,177043,0.0-3.1-13.1,95648,List1A,white,woman,,TRUE,1,,,,,
1634,"<img src=""portrait/WW1.jpg""style=""height:400px;""></img>",1,html-button-response,35,179683,0.0-3.1-15.1-0.1,95648,List1A,white,woman,,FALSE,1,,,,,
null,CORRECT,,html-keyboard-response,36,181188,0.0-3.1-15.1-1.1-0.1,95648,List1A,white,woman,,,,null,,,,
2987,"<img src=""portrait/BM1.jpg""style=""height:400px;""></img>",4,html-button-response,37,184183,0.0-3.1-16.1,95648,List1A,white,woman,,TRUE,4,,,,,
null,CORRECT,,html-keyboard-response,38,185689,0.0-3.1-17.1-0.1,95648,List1A,white,woman,,,,null,,,,
1470,"<img src=""portrait/BM2.jpg""style=""height:400px;""></img>",5,html-button-response,39,187166,0.0-3.1-19.1,95648,List1A,white,woman,,TRUE,5,,,,,
null,CORRECT,,html-keyboard-response,40,188671,0.0-3.1-20.1-0.1,95648,List1A,white,woman,,,,null,,,,
2353,"<img src=""portrait/WM2.jpg""style=""height:400px;""></img>",7,html-button-response,41,191029,0.0-3.1-22.1,95648,List1A,white,woman,,TRUE,7,,,,,
null,CORRECT,,html-keyboard-response,42,192534,0.0-3.1-23.1-0.1,95648,List1A,white,woman,,,,null,,,,
1236,<p>You got 5 out of 8 right first time. Press Continue.</p>,0,html-button-response,43,193775,0.0-3.1-25.1,95648,List1A,white,woman,,,,,,,,
1436,"As you did not score 100%, the memory game will repeat. Press Continue.",0,html-button-response,44,196216,0.0-3.1-26.1-0.1,95648,List1A,white,woman,,,,,,,,
8218,"<img src='img/portrait_matrix_list1.jpg' style='width:900px;height:500px;''></img><p>If you have memorised all the portraits and names and are ready to start, press Continue.</p><p><strong>Please note: Your memory of these faces will be tested 4 times during this experiment.</strong></p>",0,html-button-response,45,205441,0.0-3.2-0.2,95648,List1A,white,woman,,,,,,,,
1908,"<img src=""portrait/BW2.jpg""style=""height:400px;""></img>",2,html-button-response,46,208354,0.0-3.2-1.2,95648,List1A,white,woman,,TRUE,2,,,,,
null,CORRECT,,html-keyboard-response,47,209858,0.0-3.2-2.2-0.2,95648,List1A,white,woman,,,,null,,,,
2910,"<img src=""portrait/WM1.jpg""style=""height:400px;""></img>",6,html-button-response,48,212774,0.0-3.2-4.2,95648,List1A,white,woman,,TRUE,6,,,,,
null,CORRECT,,html-keyboard-response,49,214280,0.0-3.2-5.2-0.2,95648,List1A,white,woman,,,,null,,,,
5461,"<img src=""portrait/WW2.jpg""style=""height:400px;""></img>",1,html-button-response,50,219748,0.0-3.2-7.2,95648,List1A,white,woman,,TRUE,3,,,,,
1533,"<img src=""portrait/WW2.jpg""style=""height:400px;""></img>",3,html-button-response,51,222286,0.0-3.2-9.2-0.2,95648,List1A,white,woman,,FALSE,3,,,,,
null,CORRECT,,html-keyboard-response,52,223791,0.0-3.2-9.2-1.2-0.2,95648,List1A,white,woman,,,,null,,,,
7058,"<img src=""portrait/BW1.jpg""style=""height:400px;""></img>",0,html-button-response,53,230855,0.0-3.2-10.2,95648,List1A,white,woman,,TRUE,0,,,,,
null,CORRECT,,html-keyboard-response,54,232359,0.0-3.2-11.2-0.2,95648,List1A,white,woman,,,,null,,,,
3279,"<img src=""portrait/WW1.jpg""style=""height:400px;""></img>",2,html-button-response,55,235645,0.0-3.2-13.2,95648,List1A,white,woman,,TRUE,1,,,,,
3032,"<img src=""portrait/WW1.jpg""style=""height:400px;""></img>",1,html-button-response,56,239682,0.0-3.2-15.2-0.2,95648,List1A,white,woman,,FALSE,1,,,,,
null,CORRECT,,html-keyboard-response,57,241187,0.0-3.2-15.2-1.2-0.2,95648,List1A,white,woman,,,,null,,,,
1958,"<img src=""portrait/BM1.jpg""style=""height:400px;""></img>",4,html-button-response,58,243152,0.0-3.2-16.2,95648,List1A,white,woman,,TRUE,4,,,,,
null,CORRECT,,html-keyboard-response,59,244657,0.0-3.2-17.2-0.2,95648,List1A,white,woman,,,,null,,,,
1496,"<img src=""portrait/BM2.jpg""style=""height:400px;""></img>",5,html-button-response,60,246164,0.0-3.2-19.2,95648,List1A,white,woman,,TRUE,5,,,,,
null,CORRECT,,html-keyboard-response,61,247669,0.0-3.2-20.2-0.2,95648,List1A,white,woman,,,,null,,,,
1834,"<img src=""portrait/WM2.jpg""style=""height:400px;""></img>",7,html-button-response,62,249510,0.0-3.2-22.2,95648,List1A,white,woman,,TRUE,7,,,,,
null,CORRECT,,html-keyboard-response,63,251015,0.0-3.2-23.2-0.2,95648,List1A,white,woman,,,,null,,,,
2097,<p>You got 6 out of 8 right first time. Press Continue.</p>,0,html-button-response,64,253117,0.0-3.2-25.2,95648,List1A,white,woman,,,,,,,,
1327,"As you did not score 100%, the memory game will repeat. Press Continue.",0,html-button-response,65,255451,0.0-3.2-26.2-0.2,95648,List1A,white,woman,,,,,,,,
1931,"<img src='img/portrait_matrix_list1.jpg' style='width:900px;height:500px;''></img><p>If you have memorised all the portraits and names and are ready to start, press Continue.</p><p><strong>Please note: Your memory of these faces will be tested 4 times during this experiment.</strong></p>",0,html-button-response,66,258390,0.0-3.3-0.3,95648,List1A,white,woman,,,,,,,,
4142,"<img src=""portrait/BW2.jpg""style=""height:400px;""></img>",3,html-button-response,67,263537,0.0-3.3-1.3,95648,List1A,white,woman,,TRUE,2,,,,,
1924,"<img src=""portrait/BW2.jpg""style=""height:400px;""></img>",2,html-button-response,68,266468,0.0-3.3-3.3-0.3,95648,List1A,white,woman,,FALSE,2,,,,,
null,CORRECT,,html-keyboard-response,69,267973,0.0-3.3-3.3-1.3-0.3,95648,List1A,white,woman,,,,null,,,,
2579,"<img src=""portrait/WM1.jpg""style=""height:400px;""></img>",7,html-button-response,70,270558,0.0-3.3-4.3,95648,List1A,white,woman,,TRUE,6,,,,,
3745,"<img src=""portrait/WM1.jpg""style=""height:400px;""></img>",6,html-button-response,71,275311,0.0-3.3-6.3-0.3,95648,List1A,white,woman,,FALSE,6,,,,,
null,CORRECT,,html-keyboard-response,72,276816,0.0-3.3-6.3-1.3-0.3,95648,List1A,white,woman,,,,null,,,,
1888,"<img src=""portrait/WW2.jpg""style=""height:400px;""></img>",3,html-button-response,73,278710,0.0-3.3-7.3,95648,List1A,white,woman,,TRUE,3,,,,,
null,CORRECT,,html-keyboard-response,74,280215,0.0-3.3-8.3-0.3,95648,List1A,white,woman,,,,null,,,,
5415,"<img src=""portrait/BW1.jpg""style=""height:400px;""></img>",0,html-button-response,75,285636,0.0-3.3-10.3,95648,List1A,white,woman,,TRUE,0,,,,,
null,CORRECT,,html-keyboard-response,76,287140,0.0-3.3-11.3-0.3,95648,List1A,white,woman,,,,null,,,,
2178,"<img src=""portrait/WW1.jpg""style=""height:400px;""></img>",1,html-button-response,77,289326,0.0-3.3-13.3,95648,List1A,white,woman,,TRUE,1,,,,,
null,CORRECT,,html-keyboard-response,78,290831,0.0-3.3-14.3-0.3,95648,List1A,white,woman,,,,null,,,,
2429,"<img src=""portrait/BM1.jpg""style=""height:400px;""></img>",4,html-button-response,79,293266,0.0-3.3-16.3,95648,List1A,white,woman,,TRUE,4,,,,,
null,CORRECT,,html-keyboard-response,80,294769,0.0-3.3-17.3-0.3,95648,List1A,white,woman,,,,null,,,,
1150,"<img src=""portrait/BM2.jpg""style=""height:400px;""></img>",5,html-button-response,81,295926,0.0-3.3-19.3,95648,List1A,white,woman,,TRUE,5,,,,,
null,CORRECT,,html-keyboard-response,82,297430,0.0-3.3-20.3-0.3,95648,List1A,white,woman,,,,null,,,,
1453,"<img src=""portrait/WM2.jpg""style=""height:400px;""></img>",7,html-button-response,83,298890,0.0-3.3-22.3,95648,List1A,white,woman,,TRUE,7,,,,,
null,CORRECT,,html-keyboard-response,84,300394,0.0-3.3-23.3-0.3,95648,List1A,white,woman,,,,null,,,,
1195,<p>You got 6 out of 8 right first time. Press Continue.</p>,0,html-button-response,85,301593,0.0-3.3-25.3,95648,List1A,white,woman,,,,,,,,
1296,"As you did not score 100%, the memory game will repeat. Press Continue.",0,html-button-response,86,303893,0.0-3.3-26.3-0.3,95648,List1A,white,woman,,,,,,,,
1635,"<img src='img/portrait_matrix_list1.jpg' style='width:900px;height:500px;''></img><p>If you have memorised all the portraits and names and are ready to start, press Continue.</p><p><strong>Please note: Your memory of these faces will be tested 4 times during this experiment.</strong></p>",0,html-button-response,87,306535,0.0-3.4-0.4,95648,List1A,white,woman,,,,,,,,
3321,"<img src=""portrait/BW2.jpg""style=""height:400px;""></img>",2,html-button-response,88,310862,0.0-3.4-1.4,95648,List1A,white,woman,,TRUE,2,,,,,
null,CORRECT,,html-keyboard-response,89,312368,0.0-3.4-2.4-0.4,95648,List1A,white,woman,,,,null,,,,
2210,"<img src=""portrait/WM1.jpg""style=""height:400px;""></img>",6,html-button-response,90,314583,0.0-3.4-4.4,95648,List1A,white,woman,,TRUE,6,,,,,
null,CORRECT,,html-keyboard-response,91,316087,0.0-3.4-5.4-0.4,95648,List1A,white,woman,,,,null,,,,
2137,"<img src=""portrait/WW2.jpg""style=""height:400px;""></img>",3,html-button-response,92,318231,0.0-3.4-7.4,95648,List1A,white,woman,,TRUE,3,,,,,
null,CORRECT,,html-keyboard-response,93,319736,0.0-3.4-8.4-0.4,95648,List1A,white,woman,,,,null,,,,
2288,"<img src=""portrait/BW1.jpg""style=""height:400px;""></img>",0,html-button-response,94,322030,0.0-3.4-10.4,95648,List1A,white,woman,,TRUE,0,,,,,
null,CORRECT,,html-keyboard-response,95,323535,0.0-3.4-11.4-0.4,95648,List1A,white,woman,,,,null,,,,
1820,"<img src=""portrait/WW1.jpg""style=""height:400px;""></img>",1,html-button-response,96,325362,0.0-3.4-13.4,95648,List1A,white,woman,,TRUE,1,,,,,
null,CORRECT,,html-keyboard-response,97,326867,0.0-3.4-14.4-0.4,95648,List1A,white,woman,,,,null,,,,
3270,"<img src=""portrait/BM1.jpg""style=""height:400px;""></img>",4,html-button-response,98,330143,0.0-3.4-16.4,95648,List1A,white,woman,,TRUE,4,,,,,
null,CORRECT,,html-keyboard-response,99,331647,0.0-3.4-17.4-0.4,95648,List1A,white,woman,,,,null,,,,
2904,"<img src=""portrait/BM2.jpg""style=""height:400px;""></img>",5,html-button-response,100,334558,0.0-3.4-19.4,95648,List1A,white,woman,,TRUE,5,,,,,
null,CORRECT,,html-keyboard-response,101,336062,0.0-3.4-20.4-0.4,95648,List1A,white,woman,,,,null,,,,
1657,"<img src=""portrait/WM2.jpg""style=""height:400px;""></img>",7,html-button-response,102,337725,0.0-3.4-22.4,95648,List1A,white,woman,,TRUE,7,,,,,
null,CORRECT,,html-keyboard-response,103,339231,0.0-3.4-23.4-0.4,95648,List1A,white,woman,,,,null,,,,
1639,<p>You got 8 out of 8 right first time. Press Continue.</p>,0,html-button-response,104,340875,0.0-3.4-25.4,95648,List1A,white,woman,,,,,,,,
26716,"<p>In this experiment, you will view photographs of the people from the memory game interacting.</p><p>By using the <strong>exact</strong> phrase given <i>after</i> the photograph appears and recalling the correct names of the people in the photographs, form a sentence describing the interaction. You do not need to capitalise names.</p><p>Type your answer in the space provided. Please complete every sentence before moving onto the next trial.</p><p>You will only have a few seconds to memorise each given photograph and phrase before you can respond, so try your best to focus.</p><p>An example is given below. Press 'Continue' when you are ready.</p><img src='img/speaking_example.jpg' style='width:800px;height:460px;''></img>",0,html-button-response,105,368597,0.0-4.0,95648,List1A,white,woman,,,,,,,,
1640,"<p>Before the experiment starts, you will watch two example trials. Press 'Continue'.</p>",0,html-button-response,106,371241,0.0-5.0,95648,List1A,white,woman,,,,,,,,
null,<img src='img/meet_eg.gif' style='height:400px;''></img>,,html-keyboard-response,107,374259,0.0-6.0,95648,List1A,white,woman,,,,null,,,,
null,<p>is meeting</p>,,html-keyboard-response,108,376264,0.0-7.0,95648,List1A,white,woman,,,,null,,,,
2924,<p><b>Answer:</b> kate is meeting beth</p>,0,html-button-response,109,379195,0.0-8.0,95648,List1A,white,woman,,,,,,,,
null,<img src='img/look_eg.gif' style='height:400px;''></img>,,html-keyboard-response,110,382200,0.0-9.0,95648,List1A,white,woman,,,,null,,,,
null,<p>are looking at each other</p>,,html-keyboard-response,111,384205,0.0-10.0,95648,List1A,white,woman,,,,null,,,,
1775,<p><b>Answer:</b> luke and dave are looking at each other</p>,0,html-button-response,112,385983,0.0-11.0,95648,List1A,white,woman,,,,,,,,
1648,"<p>Ready to start the experiment?</p><br><p><strong>Remember to describe the picture using a full sentence,</strong></p><p><strong>that combines the names of the people with the <i>exact</i> phrase given.</strong></p><p><strong>To receive full payment you must do this correctly.</strong></p><p><strong> You do not need to capitalise names or use punctuation.</strong></p><br><p>Press 'Continue' to begin.</p>",0,html-button-response,113,388636,0.0-12.0,95648,List1A,white,woman,,,,,,,,
null,"<div style=""font-size:60px;"">+</div>",,html-keyboard-response,114,390140,0.0-13.0-0.0,95648,List1A,white,woman,,,,null,,,,
null,"<img src=""stim_listA/talk2.gif""style=""height:400px;""></stim_listA>",,html-keyboard-response,115,392147,0.0-13.0-1.0,95648,List1A,white,woman,,,,null,,,,
null,are talking to each other,,html-keyboard-response,116,394152,0.0-13.0-2.0,95648,List1A,white,woman,,,,null,,,,
6251,,,survey-text,117,400414,0.0-13.0-3.0,95648,List1A,white,woman,,,,,"{""Q0"":""Beth and mike""}","<img src=""stim_listA/talk2.gif""style=""height:400px;""></stim_listA>",are talking to each other,
null,"<div style=""font-size:60px;"">+</div>",,html-keyboard-response,118,400924,0.0-13.0-0.1,95648,List1A,white,woman,,,,null,,,,
null,"<img src=""stim_listA/dance2.gif""style=""height:400px;""></stim_listA>",,html-keyboard-response,119,402946,0.0-13.0-1.1,95648,List1A,white,woman,,,,null,,,,
null,are dancing with each other,,html-keyboard-response,120,404950,0.0-13.0-2.1,95648,List1A,white,woman,,,,null,,,,
11561,,,survey-text,121,416518,0.0-13.0-3.1,95648,List1A,white,woman,,,,,"{""Q0"":""Beth and mike are dancing with each other""}","<img src=""stim_listA/dance2.gif""style=""height:400px;""></stim_listA>",are dancing with each other,
null,"<div style=""font-size:60px;"">+</div>",,html-keyboard-response,122,417025,0.0-13.0-0.2,95648,List1A,white,woman,,,,null,,,,
null,"<img src=""stim_listA/dance4.gif""style=""height:400px;""></stim_listA>",,html-keyboard-response,123,419029,0.0-13.0-1.2,95648,List1A,white,woman,,,,null,,,,
null,are dancing with each other,,html-keyboard-response,124,421034,0.0-13.0-2.2,95648,List1A,white,woman,,,,null,,,,
10973,,,survey-text,125,432013,0.0-13.0-3.2,95648,List1A,white,woman,,,,,"{""Q0"":""Dave and Ruth are dancing with each other""}","<img src=""stim_listA/dance4.gif""style=""height:400px;""></stim_listA>",are dancing with each other,
null,"<div style=""font-size:60px;"">+</div>",,html-keyboard-response,126,432517,0.0-13.0-0.3,95648,List1A,white,woman,,,,null,,,,
null,"<img src=""stim_listA/play8.gif""style=""height:400px;""></stim_listA>",,html-keyboard-response,127,434522,0.0-13.0-1.3,95648,List1A,white,woman,,,,null,,,,
null,are playing with each other,,html-keyboard-response,128,436526,0.0-13.0-2.3,95648,List1A,white,woman,,,,null,,,,
8540,,,survey-text,129,445072,0.0-13.0-3.3,95648,List1A,white,woman,,,,,"{""Q0"":""Ruth and Beth are playing cards""}","<img src=""stim_listA/play8.gif""style=""height:400px;""></stim_listA>",are playing with each other,
null,"<div style=""font-size:60px;"">+</div>",,html-keyboard-response,130,445577,0.0-13.0-0.4,95648,List1A,white,woman,,,,null,,,,
null,"<img src=""stim_listA/touch1.gif""style=""height:400px;""></stim_listA>",,html-keyboard-response,131,447593,0.0-13.0-1.4,95648,List1A,white,woman,,,,null,,,,
null,is touching,,html-keyboard-response,132,449599,0.0-13.0-2.4,95648,List1A,white,woman,,,,null,,,,
9857,,,survey-text,133,459459,0.0-13.0-3.4,95648,List1A,white,woman,,,,,"{""Q0"":""Kate and mike are high fiving ""}","<img src=""stim_listA/touch1.gif""style=""height:400px;""></stim_listA>",is touching,
null,"<div style=""font-size:60px;"">+</div>",,html-keyboard-response,134,459963,0.0-13.0-0.5,95648,List1A,white,woman,,,,null,,,,
null,"<img src=""stim_listA/argue6.gif""style=""height:400px;""></stim_listA>",,html-keyboard-response,135,461968,0.0-13.0-1.5,95648,List1A,white,woman,,,,null,,,,
null,are arguing with each other,,html-keyboard-response,136,463974,0.0-13.0-2.5,95648,List1A,white,woman,,,,null,,,,
9619,,,survey-text,137,473595,0.0-13.0-3.5,95648,List1A,white,woman,,,,,"{""Q0"":""Dave and Fred are arguing with each other""}","<img src=""stim_listA/argue6.gif""style=""height:400px;""></stim_listA>",are arguing with each other,
null,"<div style=""font-size:60px;"">+</div>",,html-keyboard-response,138,474098,0.0-13.0-0.6,95648,List1A,white,woman,,,,null,,,,
null,"<img src=""stim_listA/marry4.gif""style=""height:400px;""></stim_listA>",,html-keyboard-response,139,476104,0.0-13.0-1.6,95648,List1A,white,woman,,,,null,,,,
null,are marrying each other,,html-keyboard-response,140,478108,0.0-13.0-2.6,95648,List1A,white,woman,,,,null,,,,
10557,,,survey-text,141,488671,0.0-13.0-3.6,95648,List1A,white,woman,,,,,"{""Q0"":""Jane and Luke are marrying each other""}","<img src=""stim_listA/marry4.gif""style=""height:400px;""></stim_listA>",are marrying each other,
null,"<div style=""font-size:60px;"">+</div>",,html-keyboard-response,142,489174,0.0-13.0-0.7,95648,List1A,white,woman,,,,null,,,,
null,"<img src=""stim_listA/fight4.gif""style=""height:400px;""></stim_listA>",,html-keyboard-response,143,491179,0.0-13.0-1.7,95648,List1A,white,woman,,,,null,,,,
null,are fighting each other,,html-keyboard-response,144,493183,0.0-13.0-2.7,95648,List1A,white,woman,,,,null,,,,
14080,,,survey-text,145,507268,0.0-13.0-3.7,95648,List1A,white,woman,,,,,"{""Q0"":""Jane and Luke are fighting with each other""}","<img src=""stim_listA/fight4.gif""style=""height:400px;""></stim_listA>",are fighting each other,
null,"<div style=""font-size:60px;"">+</div>",,html-keyboard-response,146,507771,0.0-13.0-0.8,95648,List1A,white,woman,,,,null,,,,
null,"<img src=""stim_listA/argue8.gif""style=""height:400px;""></stim_listA>",,html-keyboard-response,147,509774,0.0-13.0-1.8,95648,List1A,white,woman,,,,null,,,,
null,are arguing with each other,,html-keyboard-response,148,511778,0.0-13.0-2.8,95648,List1A,white,woman,,,,null,,,,
9641,,,survey-text,149,521423,0.0-13.0-3.8,95648,List1A,white,woman,,,,,"{""Q0"":""Jane and Kate are arguing with each other""}","<img src=""stim_listA/argue8.gif""style=""height:400px;""></stim_listA>",are arguing with each other,
null,"<div style=""font-size:60px;"">+</div>",,html-keyboard-response,150,521927,0.0-13.0-0.9,95648,List1A,white,woman,,,,null,,,,
null,"<img src=""stim_listA/dance5.gif""style=""height:400px;""></stim_listA>",,html-keyboard-response,151,523931,0.0-13.0-1.9,95648,List1A,white,woman,,,,null,,,,
null,is dancing with,,html-keyboard-response,152,525936,0.0-13.0-2.9,95648,List1A,white,woman,,,,null,,,,
8100,,,survey-text,153,534040,0.0-13.0-3.9,95648,List1A,white,woman,,,,,"{""Q0"":""Dave is dancing with fred""}","<img src=""stim_listA/dance5.gif""style=""height:400px;""></stim_listA>",is dancing with,
null,"<div style=""font-size:60px;"">+</div>",,html-keyboard-response,154,534544,0.0-13.0-0.10,95648,List1A,white,woman,,,,null,,,,
null,"<img src=""stim_listA/flirt7.gif""style=""height:400px;""></stim_listA>",,html-keyboard-response,155,536548,0.0-13.0-1.10,95648,List1A,white,woman,,,,null,,,,
null,is flirting with,,html-keyboard-response,156,538554,0.0-13.0-2.10,95648,List1A,white,woman,,,,null,,,,
10758,,,survey-text,157,549317,0.0-13.0-3.10,95648,List1A,white,woman,,,,,"{""Q0"":""Kate is flirting with ruth""}","<img src=""stim_listA/flirt7.gif""style=""height:400px;""></stim_listA>",is flirting with,
null,"<div style=""font-size:60px;"">+</div>",,html-keyboard-response,158,549820,0.0-13.0-0.11,95648,List1A,white,woman,,,,null,,,,
null,"<img src=""stim_listA/dance8.gif""style=""height:400px;""></stim_listA>",,html-keyboard-response,159,551824,0.0-13.0-1.11,95648,List1A,white,woman,,,,null,,,,
null,are dancing with each other,,html-keyboard-response,160,553828,0.0-13.0-2.11,95648,List1A,white,woman,,,,null,,,,
14313,,,survey-text,161,568145,0.0-13.0-3.11,95648,List1A,white,woman,,,,,"{""Q0"":""Kate and Jane are dancing with each other""}","<img src=""stim_listA/dance8.gif""style=""height:400px;""></stim_listA>",are dancing with each other,
null,"<div style=""font-size:60px;"">+</div>",,html-keyboard-response,162,568649,0.0-13.0-0.12,95648,List1A,white,woman,,,,null,,,,
null,"<img src=""stim_listA/shout5.gif""style=""height:400px;""></stim_listA>",,html-keyboard-response,163,570653,0.0-13.0-1.12,95648,List1A,white,woman,,,,null,,,,
null,is shouting at,,html-keyboard-response,164,572658,0.0-13.0-2.12,95648,List1A,white,woman,,,,null,,,,
9162,,,survey-text,165,581825,0.0-13.0-3.12,95648,List1A,white,woman,,,,,"{""Q0"":""Fred is shouting at Luke""}","<img src=""stim_listA/shout5.gif""style=""height:400px;""></stim_listA>",is shouting at,
null,"<div style=""font-size:60px;"">+</div>",,html-keyboard-response,166,582329,0.0-13.0-0.13,95648,List1A,white,woman,,,,null,,,,
null,"<img src=""stim_listA/shout7.gif""style=""height:400px;""></stim_listA>",,html-keyboard-response,167,584332,0.0-13.0-1.13,95648,List1A,white,woman,,,,null,,,,
null,is shouting at,,html-keyboard-response,168,586338,0.0-13.0-2.13,95648,List1A,white,woman,,,,null,,,,
10683,,,survey-text,169,597025,0.0-13.0-3.13,95648,List1A,white,woman,,,,,"{""Q0"":""Kate is shouting at jane""}","<img src=""stim_listA/shout7.gif""style=""height:400px;""></stim_listA>",is shouting at,
null,"<div style=""font-size:60px;"">+</div>",,html-keyboard-response,170,597530,0.0-13.0-0.14,95648,List1A,white,woman,,,,null,,,,
null,"<img src=""stim_listA/kiss2.gif""style=""height:400px;""></stim_listA>",,html-keyboard-response,171,599532,0.0-13.0-1.14,95648,List1A,white,woman,,,,null,,,,
null,are kissing each other,,html-keyboard-response,172,601534,0.0-13.0-2.14,95648,List1A,white,woman,,,,null,,,,
10358,,,survey-text,173,611895,0.0-13.0-3.14,95648,List1A,white,woman,,,,,"{""Q0"":""Kate and mike are kissing each other""}","<img src=""stim_listA/kiss2.gif""style=""height:400px;""></stim_listA>",are kissing each other,
null,"<div style=""font-size:60px;"">+</div>",,html-keyboard-response,174,612399,0.0-13.0-0.15,95648,List1A,white,woman,,,,null,,,,
null,"<img src=""stim_listA/kiss7.gif""style=""height:400px;""></stim_listA>",,html-keyboard-response,175,614403,0.0-13.0-1.15,95648,List1A,white,woman,,,,null,,,,
null,is kissing,,html-keyboard-response,176,616408,0.0-13.0-2.15,95648,List1A,white,woman,,,,null,,,,
5835,,,survey-text,177,622247,0.0-13.0-3.15,95648,List1A,white,woman,,,,,"{""Q0"":""Kate is kissing ruth""}","<img src=""stim_listA/kiss7.gif""style=""height:400px;""></stim_listA>",is kissing,
null,"<div style=""font-size:60px;"">+</div>",,html-keyboard-response,178,622750,0.0-13.0-0.16,95648,List1A,white,woman,,,,null,,,,
null,"<img src=""stim_listA/talk3.gif""style=""height:400px;""></stim_listA>",,html-keyboard-response,179,624755,0.0-13.0-1.16,95648,List1A,white,woman,,,,null,,,,
null,is talking to,,html-keyboard-response,180,626759,0.0-13.0-2.16,95648,List1A,white,woman,,,,null,,,,
7404,,,survey-text,181,634166,0.0-13.0-3.16,95648,List1A,white,woman,,,,,"{""Q0"":""Luke is talking to jane""}","<img src=""stim_listA/talk3.gif""style=""height:400px;""></stim_listA>",is talking to,
null,"<div style=""font-size:60px;"">+</div>",,html-keyboard-response,182,634670,0.0-13.0-0.17,95648,List1A,white,woman,,,,null,,,,
null,"<img src=""stim_listA/fight3.gif""style=""height:400px;""></stim_listA>",,html-keyboard-response,183,636673,0.0-13.0-1.17,95648,List1A,white,woman,,,,null,,,,
null,is fighting,,html-keyboard-response,184,638678,0.0-13.0-2.17,95648,List1A,white,woman,,,,null,,,,
6853,,,survey-text,185,645536,0.0-13.0-3.17,95648,List1A,white,woman,,,,,"{""Q0"":""Dave is fighting jane""}","<img src=""stim_listA/fight3.gif""style=""height:400px;""></stim_listA>",is fighting,
null,"<div style=""font-size:60px;"">+</div>",,html-keyboard-response,186,646039,0.0-13.0-0.18,95648,List1A,white,woman,,,,null,,,,
null,"<img src=""stim_listA/touch8.gif""style=""height:400px;""></stim_listA>",,html-keyboard-response,187,648043,0.0-13.0-1.18,95648,List1A,white,woman,,,,null,,,,
null,are touching each other,,html-keyboard-response,188,650048,0.0-13.0-2.18,95648,List1A,white,woman,,,,null,,,,
11131,,,survey-text,189,661183,0.0-13.0-3.18,95648,List1A,white,woman,,,,,"{""Q0"":""Ruth and Kate are touching each other""}","<img src=""stim_listA/touch8.gif""style=""height:400px;""></stim_listA>",are touching each other,
null,"<div style=""font-size:60px;"">+</div>",,html-keyboard-response,190,661687,0.0-13.0-0.19,95648,List1A,white,woman,,,,null,,,,
null,"<img src=""stim_listA/flirt1.gif""style=""height:400px;""></stim_listA>",,html-keyboard-response,191,663690,0.0-13.0-1.19,95648,List1A,white,woman,,,,null,,,,
null,is flirting with,,html-keyboard-response,192,665694,0.0-13.0-2.19,95648,List1A,white,woman,,,,null,,,,
7238,,,survey-text,193,672937,0.0-13.0-3.19,95648,List1A,white,woman,,,,,"{""Q0"":""Fred is flirting with kate""}","<img src=""stim_listA/flirt1.gif""style=""height:400px;""></stim_listA>",is flirting with,
7469,"<img src='img/portrait_matrix_list1.jpg' style='width:900px;height:500px;''></img><p>If you have memorised all the portraits and names and are ready to start, press Continue.</p><p><strong>Please note: Your memory of these faces will be tested 4 times during this experiment.</strong></p>",0,html-button-response,194,680413,0.0-14.0-0.0,95648,List1A,white,woman,,,,,,,,
3682,"<img src=""portrait/WW2.jpg""style=""height:400px;""></img>",3,html-button-response,195,685101,0.0-14.0-1.0,95648,List1A,white,woman,,TRUE,3,,,,,
null,CORRECT,,html-keyboard-response,196,686608,0.0-14.0-2.0-0.0,95648,List1A,white,woman,,,,null,,,,
2742,"<img src=""portrait/BW2.jpg""style=""height:400px;""></img>",2,html-button-response,197,689356,0.0-14.0-4.0,95648,List1A,white,woman,,TRUE,2,,,,,
null,CORRECT,,html-keyboard-response,198,690861,0.0-14.0-5.0-0.0,95648,List1A,white,woman,,,,null,,,,
3315,"<img src=""portrait/WM2.jpg""style=""height:400px;""></img>",7,html-button-response,199,694183,0.0-14.0-7.0,95648,List1A,white,woman,,TRUE,7,,,,,
null,CORRECT,,html-keyboard-response,200,695687,0.0-14.0-8.0-0.0,95648,List1A,white,woman,,,,null,,,,
3580,"<img src=""portrait/WM1.jpg""style=""height:400px;""></img>",6,html-button-response,201,699274,0.0-14.0-10.0,95648,List1A,white,woman,,TRUE,6,,,,,
null,CORRECT,,html-keyboard-response,202,700778,0.0-14.0-11.0-0.0,95648,List1A,white,woman,,,,null,,,,
2949,"<img src=""portrait/WW1.jpg""style=""height:400px;""></img>",1,html-button-response,203,703733,0.0-14.0-13.0,95648,List1A,white,woman,,TRUE,1,,,,,
null,CORRECT,,html-keyboard-response,204,705238,0.0-14.0-14.0-0.0,95648,List1A,white,woman,,,,null,,,,
2680,"<img src=""portrait/BM1.jpg""style=""height:400px;""></img>",4,html-button-response,205,707925,0.0-14.0-16.0,95648,List1A,white,woman,,TRUE,4,,,,,
null,CORRECT,,html-keyboard-response,206,709429,0.0-14.0-17.0-0.0,95648,List1A,white,woman,,,,null,,,,
1484,"<img src=""portrait/BM2.jpg""style=""height:400px;""></img>",5,html-button-response,207,710918,0.0-14.0-19.0,95648,List1A,white,woman,,TRUE,5,,,,,
null,CORRECT,,html-keyboard-response,208,712423,0.0-14.0-20.0-0.0,95648,List1A,white,woman,,,,null,,,,
2699,"<img src=""portrait/BW1.jpg""style=""height:400px;""></img>",2,html-button-response,209,715129,0.0-14.0-22.0,95648,List1A,white,woman,,TRUE,0,,,,,
2865,"<img src=""portrait/BW1.jpg""style=""height:400px;""></img>",0,html-button-response,210,719001,0.0-14.0-24.0-0.0,95648,List1A,white,woman,,FALSE,0,,,,,
null,CORRECT,,html-keyboard-response,211,720506,0.0-14.0-24.0-1.0-0.0,95648,List1A,white,woman,,,,null,,,,
1737,<p>You got 7 out of 8 right first time. Press Continue.</p>,0,html-button-response,212,722250,0.0-14.0-25.0,95648,List1A,white,woman,,,,,,,,
2093,"As you did not score 100%, the memory game will repeat. Press Continue.",0,html-button-response,213,725348,0.0-14.0-26.0-0.0,95648,List1A,white,woman,,,,,,,,
5759,"<img src='img/portrait_matrix_list1.jpg' style='width:900px;height:500px;''></img><p>If you have memorised all the portraits and names and are ready to start, press Continue.</p><p><strong>Please note: Your memory of these faces will be tested 4 times during this experiment.</strong></p>",0,html-button-response,214,732118,0.0-14.1-0.1,95648,List1A,white,woman,,,,,,,,
1926,"<img src=""portrait/WW2.jpg""style=""height:400px;""></img>",3,html-button-response,215,735051,0.0-14.1-1.1,95648,List1A,white,woman,,TRUE,3,,,,,
null,CORRECT,,html-keyboard-response,216,736556,0.0-14.1-2.1-0.1,95648,List1A,white,woman,,,,null,,,,
3928,"<img src=""portrait/BW2.jpg""style=""height:400px;""></img>",2,html-button-response,217,740491,0.0-14.1-4.1,95648,List1A,white,woman,,TRUE,2,,,,,
null,CORRECT,,html-keyboard-response,218,741995,0.0-14.1-5.1-0.1,95648,List1A,white,woman,,,,null,,,,
1846,"<img src=""portrait/WM2.jpg""style=""height:400px;""></img>",7,html-button-response,219,743845,0.0-14.1-7.1,95648,List1A,white,woman,,TRUE,7,,,,,
null,CORRECT,,html-keyboard-response,220,745350,0.0-14.1-8.1-0.1,95648,List1A,white,woman,,,,null,,,,
3174,"<img src=""portrait/WM1.jpg""style=""height:400px;""></img>",6,html-button-response,221,748531,0.0-14.1-10.1,95648,List1A,white,woman,,TRUE,6,,,,,
null,CORRECT,,html-keyboard-response,222,750036,0.0-14.1-11.1-0.1,95648,List1A,white,woman,,,,null,,,,
2418,"<img src=""portrait/WW1.jpg""style=""height:400px;""></img>",1,html-button-response,223,752459,0.0-14.1-13.1,95648,List1A,white,woman,,TRUE,1,,,,,
null,CORRECT,,html-keyboard-response,224,753964,0.0-14.1-14.1-0.1,95648,List1A,white,woman,,,,null,,,,
1663,"<img src=""portrait/BM1.jpg""style=""height:400px;""></img>",4,html-button-response,225,755633,0.0-14.1-16.1,95648,List1A,white,woman,,TRUE,4,,,,,
null,CORRECT,,html-keyboard-response,226,757137,0.0-14.1-17.1-0.1,95648,List1A,white,woman,,,,null,,,,
1961,"<img src=""portrait/BM2.jpg""style=""height:400px;""></img>",5,html-button-response,227,759104,0.0-14.1-19.1,95648,List1A,white,woman,,TRUE,5,,,,,
null,CORRECT,,html-keyboard-response,228,760610,0.0-14.1-20.1-0.1,95648,List1A,white,woman,,,,null,,,,
2087,"<img src=""portrait/BW1.jpg""style=""height:400px;""></img>",0,html-button-response,229,762703,0.0-14.1-22.1,95648,List1A,white,woman,,TRUE,0,,,,,
null,CORRECT,,html-keyboard-response,230,764208,0.0-14.1-23.1-0.1,95648,List1A,white,woman,,,,null,,,,
1513,<p>You got 8 out of 8 right first time. Press Continue.</p>,0,html-button-response,231,765725,0.0-14.1-25.1,95648,List1A,white,woman,,,,,,,,
null,"<div style=""font-size:60px;"">+</div>",,html-keyboard-response,232,767233,0.0-15.0-0.0,95648,List1A,white,woman,,,,null,,,,
null,"<img src=""stim_listA/fight6.gif""style=""height:400px;""></stim_listA>",,html-keyboard-response,233,769238,0.0-15.0-1.0,95648,List1A,white,woman,,,,null,,,,
null,are fighting each other,,html-keyboard-response,234,771243,0.0-15.0-2.0,95648,List1A,white,woman,,,,null,,,,
9374,,,survey-text,235,780621,0.0-15.0-3.0,95648,List1A,white,woman,,,,,"{""Q0"":""Luke and Fred are fighting each other""}","<img src=""stim_listA/fight6.gif""style=""height:400px;""></stim_listA>",are fighting each other,
null,"<div style=""font-size:60px;"">+</div>",,html-keyboard-response,236,781125,0.0-15.0-0.1,95648,List1A,white,woman,,,,null,,,,
null,"<img src=""stim_listA/marry5.gif""style=""height:400px;""></stim_listA>",,html-keyboard-response,237,783129,0.0-15.0-1.1,95648,List1A,white,woman,,,,null,,,,
null,is marrying,,html-keyboard-response,238,785134,0.0-15.0-2.1,95648,List1A,white,woman,,,,null,,,,
8929,,,survey-text,239,794070,0.0-15.0-3.1,95648,List1A,white,woman,,,,,"{""Q0"":""Mike is marrying luke""}","<img src=""stim_listA/marry5.gif""style=""height:400px;""></stim_listA>",is marrying,
null,"<div style=""font-size:60px;"">+</div>",,html-keyboard-response,240,794572,0.0-15.0-0.2,95648,List1A,white,woman,,,,null,,,,
null,"<img src=""stim_listA/argue1.gif""style=""height:400px;""></stim_listA>",,html-keyboard-response,241,796576,0.0-15.0-1.2,95648,List1A,white,woman,,,,null,,,,
null,is arguing with,,html-keyboard-response,242,798581,0.0-15.0-2.2,95648,List1A,white,woman,,,,null,,,,
8208,,,survey-text,243,806793,0.0-15.0-3.2,95648,List1A,white,woman,,,,,"{""Q0"":""Mike is arguing with Beth ""}","<img src=""stim_listA/argue1.gif""style=""height:400px;""></stim_listA>",is arguing with,
null,"<div style=""font-size:60px;"">+</div>",,html-keyboard-response,244,807296,0.0-15.0-0.3,95648,List1A,white,woman,,,,null,,,,
null,"<img src=""stim_listA/shout1.gif""style=""height:400px;""></stim_listA>",,html-keyboard-response,245,809308,0.0-15.0-1.3,95648,List1A,white,woman,,,,null,,,,
null,is shouting at,,html-keyboard-response,246,811311,0.0-15.0-2.3,95648,List1A,white,woman,,,,null,,,,
8157,,,survey-text,247,819472,0.0-15.0-3.3,95648,List1A,white,woman,,,,,"{""Q0"":""Fred is shouting at Beth ""}","<img src=""stim_listA/shout1.gif""style=""height:400px;""></stim_listA>",is shouting at,
null,"<div style=""font-size:60px;"">+</div>",,html-keyboard-response,248,819975,0.0-15.0-0.4,95648,List1A,white,woman,,,,null,,,,
null,"<img src=""stim_listA/talk7.gif""style=""height:400px;""></stim_listA>",,html-keyboard-response,249,821979,0.0-15.0-1.4,95648,List1A,white,woman,,,,null,,,,
null,is talking to,,html-keyboard-response,250,823983,0.0-15.0-2.4,95648,List1A,white,woman,,,,null,,,,
6440,,,survey-text,251,830426,0.0-15.0-3.4,95648,List1A,white,woman,,,,,"{""Q0"":""Jane is talking to beth""}","<img src=""stim_listA/talk7.gif""style=""height:400px;""></stim_listA>",is talking to,
null,"<div style=""font-size:60px;"">+</div>",,html-keyboard-response,252,830930,0.0-15.0-0.5,95648,List1A,white,woman,,,,null,,,,
null,"<img src=""stim_listA/marry2.gif""style=""height:400px;""></stim_listA>",,html-keyboard-response,253,832934,0.0-15.0-1.5,95648,List1A,white,woman,,,,null,,,,
null,are marrying each other,,html-keyboard-response,254,834939,0.0-15.0-2.5,95648,List1A,white,woman,,,,null,,,,
9317,,,survey-text,255,844260,0.0-15.0-3.5,95648,List1A,white,woman,,,,,"{""Q0"":""Kate and Fred are marrying each other""}","<img src=""stim_listA/marry2.gif""style=""height:400px;""></stim_listA>",are marrying each other,
null,"<div style=""font-size:60px;"">+</div>",,html-keyboard-response,256,844763,0.0-15.0-0.6,95648,List1A,white,woman,,,,null,,,,
null,"<img src=""stim_listA/flirt4.gif""style=""height:400px;""></stim_listA>",,html-keyboard-response,257,846769,0.0-15.0-1.6,95648,List1A,white,woman,,,,null,,,,
null,are flirting with each other,,html-keyboard-response,258,848779,0.0-15.0-2.6,95648,List1A,white,woman,,,,null,,,,
12212,,,survey-text,259,860995,0.0-15.0-3.6,95648,List1A,white,woman,,,,,"{""Q0"":""Ruth and Dave are flirting with each other""}","<img src=""stim_listA/flirt4.gif""style=""height:400px;""></stim_listA>",are flirting with each other,
null,"<div style=""font-size:60px;"">+</div>",,html-keyboard-response,260,861498,0.0-15.0-0.7,95648,List1A,white,woman,,,,null,,,,
null,"<img src=""stim_listA/fight2.gif""style=""height:400px;""></stim_listA>",,html-keyboard-response,261,863501,0.0-15.0-1.7,95648,List1A,white,woman,,,,null,,,,
null,are fighting each other,,html-keyboard-response,262,865506,0.0-15.0-2.7,95648,List1A,white,woman,,,,null,,,,
10166,,,survey-text,263,875676,0.0-15.0-3.7,95648,List1A,white,woman,,,,,"{""Q0"":""Beth and mike are fighting with each other""}","<img src=""stim_listA/fight2.gif""style=""height:400px;""></stim_listA>",are fighting each other,
null,"<div style=""font-size:60px;"">+</div>",,html-keyboard-response,264,876178,0.0-15.0-0.8,95648,List1A,white,woman,,,,null,,,,
null,"<img src=""stim_listA/play4.gif""style=""height:400px;""></stim_listA>",,html-keyboard-response,265,878181,0.0-15.0-1.8,95648,List1A,white,woman,,,,null,,,,
null,are playing with each other,,html-keyboard-response,266,880186,0.0-15.0-2.8,95648,List1A,white,woman,,,,null,,,,
9195,,,survey-text,267,889386,0.0-15.0-3.8,95648,List1A,white,woman,,,,,"{""Q0"":""Jane and Luke are playing with each other""}","<img src=""stim_listA/play4.gif""style=""height:400px;""></stim_listA>",are playing with each other,
null,"<div style=""font-size:60px;"">+</div>",,html-keyboard-response,268,889889,0.0-15.0-0.9,95648,List1A,white,woman,,,,null,,,,
null,"<img src=""stim_listA/dance3.gif""style=""height:400px;""></stim_listA>",,html-keyboard-response,269,891894,0.0-15.0-1.9,95648,List1A,white,woman,,,,null,,,,
null,is dancing with,,html-keyboard-response,270,893901,0.0-15.0-2.9,95648,List1A,white,woman,,,,null,,,,
7711,,,survey-text,271,901615,0.0-15.0-3.9,95648,List1A,white,woman,,,,,"{""Q0"":""Jane is dancing with luke""}","<img src=""stim_listA/dance3.gif""style=""height:400px;""></stim_listA>",is dancing with,
null,"<div style=""font-size:60px;"">+</div>",,html-keyboard-response,272,902119,0.0-15.0-0.10,95648,List1A,white,woman,,,,null,,,,
null,"<img src=""stim_listA/fight8.gif""style=""height:400px;""></stim_listA>",,html-keyboard-response,273,904126,0.0-15.0-1.10,95648,List1A,white,woman,,,,null,,,,
null,are fighting each other,,html-keyboard-response,274,906134,0.0-15.0-2.10,95648,List1A,white,woman,,,,null,,,,
9847,,,survey-text,275,915986,0.0-15.0-3.10,95648,List1A,white,woman,,,,,"{""Q0"":""Beth and Ruth are fighting each other""}","<img src=""stim_listA/fight8.gif""style=""height:400px;""></stim_listA>",are fighting each other,
null,"<div style=""font-size:60px;"">+</div>",,html-keyboard-response,276,916489,0.0-15.0-0.11,95648,List1A,white,woman,,,,null,,,,
null,"<img src=""stim_listA/flirt5.gif""style=""height:400px;""></stim_listA>",,html-keyboard-response,277,918493,0.0-15.0-1.11,95648,List1A,white,woman,,,,null,,,,
null,is flirting with,,html-keyboard-response,278,920498,0.0-15.0-2.11,95648,List1A,white,woman,,,,null,,,,
8975,,,survey-text,279,929478,0.0-15.0-3.11,95648,List1A,white,woman,,,,,"{""Q0"":""Mike is flirting with dave""}","<img src=""stim_listA/flirt5.gif""style=""height:400px;""></stim_listA>",is flirting with,
null,"<div style=""font-size:60px;"">+</div>",,html-keyboard-response,280,929981,0.0-15.0-0.12,95648,List1A,white,woman,,,,null,,,,
null,"<img src=""stim_listA/marry8.gif""style=""height:400px;""></stim_listA>",,html-keyboard-response,281,931985,0.0-15.0-1.12,95648,List1A,white,woman,,,,null,,,,
null,are marrying each other,,html-keyboard-response,282,933989,0.0-15.0-2.12,95648,List1A,white,woman,,,,null,,,,
8483,,,survey-text,283,942475,0.0-15.0-3.12,95648,List1A,white,woman,,,,,"{""Q0"":""Jane and Beth are marrying each other""}","<img src=""stim_listA/marry8.gif""style=""height:400px;""></stim_listA>",are marrying each other,
null,"<div style=""font-size:60px;"">+</div>",,html-keyboard-response,284,942980,0.0-15.0-0.13,95648,List1A,white,woman,,,,null,,,,
null,"<img src=""stim_listA/argue3.gif""style=""height:400px;""></stim_listA>",,html-keyboard-response,285,944985,0.0-15.0-1.13,95648,List1A,white,woman,,,,null,,,,
null,is arguing with,,html-keyboard-response,286,946989,0.0-15.0-2.13,95648,List1A,white,woman,,,,null,,,,
7444,,,survey-text,287,954436,0.0-15.0-3.13,95648,List1A,white,woman,,,,,"{""Q0"":""Dave is arguing with jane""}","<img src=""stim_listA/argue3.gif""style=""height:400px;""></stim_listA>",is arguing with,
null,"<div style=""font-size:60px;"">+</div>",,html-keyboard-response,288,954940,0.0-15.0-0.14,95648,List1A,white,woman,,,,null,,,,
null,"<img src=""stim_listA/fight5.gif""style=""height:400px;""></stim_listA>",,html-keyboard-response,289,956944,0.0-15.0-1.14,95648,List1A,white,woman,,,,null,,,,
null,is fighting,,html-keyboard-response,290,958948,0.0-15.0-2.14,95648,List1A,white,woman,,,,null,,,,
5813,,,survey-text,291,964766,0.0-15.0-3.14,95648,List1A,white,woman,,,,,"{""Q0"":""Dave is fighting mike ""}","<img src=""stim_listA/fight5.gif""style=""height:400px;""></stim_listA>",is fighting,
null,"<div style=""font-size:60px;"">+</div>",,html-keyboard-response,292,965269,0.0-15.0-0.15,95648,List1A,white,woman,,,,null,,,,
null,"<img src=""stim_listA/kiss8.gif""style=""height:400px;""></stim_listA>",,html-keyboard-response,293,967274,0.0-15.0-1.15,95648,List1A,white,woman,,,,null,,,,
null,are kissing each other,,html-keyboard-response,294,969278,0.0-15.0-2.15,95648,List1A,white,woman,,,,null,,,,
8722,,,survey-text,295,978005,0.0-15.0-3.15,95648,List1A,white,woman,,,,,"{""Q0"":""Jane and Kate are kissing each other""}","<img src=""stim_listA/kiss8.gif""style=""height:400px;""></stim_listA>",are kissing each other,
null,"<div style=""font-size:60px;"">+</div>",,html-keyboard-response,296,978509,0.0-15.0-0.16,95648,List1A,white,woman,,,,null,,,,
null,"<img src=""stim_listA/marry7.gif""style=""height:400px;""></stim_listA>",,html-keyboard-response,297,980513,0.0-15.0-1.16,95648,List1A,white,woman,,,,null,,,,
null,is marrying,,html-keyboard-response,298,982518,0.0-15.0-2.16,95648,List1A,white,woman,,,,null,,,,
7682,,,survey-text,299,990204,0.0-15.0-3.16,95648,List1A,white,woman,,,,,"{""Q0"":""Kate is marrying jane""}","<img src=""stim_listA/marry7.gif""style=""height:400px;""></stim_listA>",is marrying,
null,"<div style=""font-size:60px;"">+</div>",,html-keyboard-response,300,990707,0.0-15.0-0.17,95648,List1A,white,woman,,,,null,,,,
null,"<img src=""stim_listA/shout6.gif""style=""height:400px;""></stim_listA>",,html-keyboard-response,301,992710,0.0-15.0-1.17,95648,List1A,white,woman,,,,null,,,,
null,are shouting at each other,,html-keyboard-response,302,994715,0.0-15.0-2.17,95648,List1A,white,woman,,,,null,,,,
9316,,,survey-text,303,1004035,0.0-15.0-3.17,95648,List1A,white,woman,,,,,"{""Q0"":""Dave and mike are arguing with each other""}","<img src=""stim_listA/shout6.gif""style=""height:400px;""></stim_listA>",are shouting at each other,
null,"<div style=""font-size:60px;"">+</div>",,html-keyboard-response,304,1004539,0.0-15.0-0.18,95648,List1A,white,woman,,,,null,,,,
null,"<img src=""stim_listA/flirt2.gif""style=""height:400px;""></stim_listA>",,html-keyboard-response,305,1006543,0.0-15.0-1.18,95648,List1A,white,woman,,,,null,,,,
null,are flirting with each other,,html-keyboard-response,306,1008548,0.0-15.0-2.18,95648,List1A,white,woman,,,,null,,,,
9512,,,survey-text,307,1018063,0.0-15.0-3.18,95648,List1A,white,woman,,,,,"{""Q0"":""Mike and Beth are flirting with each other ""}","<img src=""stim_listA/flirt2.gif""style=""height:400px;""></stim_listA>",are flirting with each other,
null,"<div style=""font-size:60px;"">+</div>",,html-keyboard-response,308,1018567,0.0-15.0-0.19,95648,List1A,white,woman,,,,null,,,,
null,"<img src=""stim_listA/dance6.gif""style=""height:400px;""></stim_listA>",,html-keyboard-response,309,1020572,0.0-15.0-1.19,95648,List1A,white,woman,,,,null,,,,
null,are dancing with each other,,html-keyboard-response,310,1022577,0.0-15.0-2.19,95648,List1A,white,woman,,,,null,,,,
9251,,,survey-text,311,1031832,0.0-15.0-3.19,95648,List1A,white,woman,,,,,"{""Q0"":""Mike and Luke are dancing with each other ""}","<img src=""stim_listA/dance6.gif""style=""height:400px;""></stim_listA>",are dancing with each other,
3550,"<img src='img/portrait_matrix_list1.jpg' style='width:900px;height:500px;''></img><p>If you have memorised all the portraits and names and are ready to start, press Continue.</p><p><strong>Please note: Your memory of these faces will be tested 4 times during this experiment.</strong></p>",0,html-button-response,312,1035385,0.0-16.0-0.0,95648,List1A,white,woman,,,,,,,,
2184,"<img src=""portrait/BM1.jpg""style=""height:400px;""></img>",4,html-button-response,313,1038576,0.0-16.0-1.0,95648,List1A,white,woman,,TRUE,4,,,,,
null,CORRECT,,html-keyboard-response,314,1040081,0.0-16.0-2.0-0.0,95648,List1A,white,woman,,,,null,,,,
3697,"<img src=""portrait/WW2.jpg""style=""height:400px;""></img>",3,html-button-response,315,1043783,0.0-16.0-4.0,95648,List1A,white,woman,,TRUE,3,,,,,
null,CORRECT,,html-keyboard-response,316,1045288,0.0-16.0-5.0-0.0,95648,List1A,white,woman,,,,null,,,,
1833,"<img src=""portrait/WW1.jpg""style=""height:400px;""></img>",1,html-button-response,317,1047128,0.0-16.0-7.0,95648,List1A,white,woman,,TRUE,1,,,,,
null,CORRECT,,html-keyboard-response,318,1048633,0.0-16.0-8.0-0.0,95648,List1A,white,woman,,,,null,,,,
1569,"<img src=""portrait/BM2.jpg""style=""height:400px;""></img>",5,html-button-response,319,1050209,0.0-16.0-10.0,95648,List1A,white,woman,,TRUE,5,,,,,
null,CORRECT,,html-keyboard-response,320,1051714,0.0-16.0-11.0-0.0,95648,List1A,white,woman,,,,null,,,,
1511,"<img src=""portrait/WM2.jpg""style=""height:400px;""></img>",7,html-button-response,321,1053231,0.0-16.0-13.0,95648,List1A,white,woman,,TRUE,7,,,,,
null,CORRECT,,html-keyboard-response,322,1054736,0.0-16.0-14.0-0.0,95648,List1A,white,woman,,,,null,,,,
2307,"<img src=""portrait/BW2.jpg""style=""height:400px;""></img>",2,html-button-response,323,1057049,0.0-16.0-16.0,95648,List1A,white,woman,,TRUE,2,,,,,
null,CORRECT,,html-keyboard-response,324,1058554,0.0-16.0-17.0-0.0,95648,List1A,white,woman,,,,null,,,,
1425,"<img src=""portrait/BW1.jpg""style=""height:400px;""></img>",0,html-button-response,325,1059988,0.0-16.0-19.0,95648,List1A,white,woman,,TRUE,0,,,,,
null,CORRECT,,html-keyboard-response,326,1061492,0.0-16.0-20.0-0.0,95648,List1A,white,woman,,,,null,,,,
1851,"<img src=""portrait/WM1.jpg""style=""height:400px;""></img>",6,html-button-response,327,1063350,0.0-16.0-22.0,95648,List1A,white,woman,,TRUE,6,,,,,
null,CORRECT,,html-keyboard-response,328,1064854,0.0-16.0-23.0-0.0,95648,List1A,white,woman,,,,null,,,,
1051,<p>You got 8 out of 8 right first time. Press Continue.</p>,0,html-button-response,329,1065914,0.0-16.0-25.0,95648,List1A,white,woman,,,,,,,,
null,"<div style=""font-size:60px;"">+</div>",,html-keyboard-response,330,1067424,0.0-17.0-0.0,95648,List1A,white,woman,,,,null,,,,
null,"<img src=""stim_listA/kiss1.gif""style=""height:400px;""></stim_listA>",,html-keyboard-response,331,1069429,0.0-17.0-1.0,95648,List1A,white,woman,,,,null,,,,
null,is kissing,,html-keyboard-response,332,1071434,0.0-17.0-2.0,95648,List1A,white,woman,,,,null,,,,
5713,,,survey-text,333,1077151,0.0-17.0-3.0,95648,List1A,white,woman,,,,,"{""Q0"":""Beth is kissing fred""}","<img src=""stim_listA/kiss1.gif""style=""height:400px;""></stim_listA>",is kissing,
null,"<div style=""font-size:60px;"">+</div>",,html-keyboard-response,334,1077654,0.0-17.0-0.1,95648,List1A,white,woman,,,,null,,,,
null,"<img src=""stim_listA/dance7.gif""style=""height:400px;""></stim_listA>",,html-keyboard-response,335,1079658,0.0-17.0-1.1,95648,List1A,white,woman,,,,null,,,,
null,is dancing with,,html-keyboard-response,336,1081661,0.0-17.0-2.1,95648,List1A,white,woman,,,,null,,,,
8052,,,survey-text,337,1089719,0.0-17.0-3.1,95648,List1A,white,woman,,,,,"{""Q0"":""Jane is dancing with beth""}","<img src=""stim_listA/dance7.gif""style=""height:400px;""></stim_listA>",is dancing with,
null,"<div style=""font-size:60px;"">+</div>",,html-keyboard-response,338,1090223,0.0-17.0-0.2,95648,List1A,white,woman,,,,null,,,,
null,"<img src=""stim_listA/play5.gif""style=""height:400px;""></stim_listA>",,html-keyboard-response,339,1092227,0.0-17.0-1.2,95648,List1A,white,woman,,,,null,,,,
null,is playing with,,html-keyboard-response,340,1094231,0.0-17.0-2.2,95648,List1A,white,woman,,,,null,,,,
6179,,,survey-text,341,1100414,0.0-17.0-3.2,95648,List1A,white,woman,,,,,"{""Q0"":""Mike is playing with dave""}","<img src=""stim_listA/play5.gif""style=""height:400px;""></stim_listA>",is playing with,
null,"<div style=""font-size:60px;"">+</div>",,html-keyboard-response,342,1100917,0.0-17.0-0.3,95648,List1A,white,woman,,,,null,,,,
null,"<img src=""stim_listA/argue7.gif""style=""height:400px;""></stim_listA>",,html-keyboard-response,343,1102922,0.0-17.0-1.3,95648,List1A,white,woman,,,,null,,,,
null,is arguing with,,html-keyboard-response,344,1104926,0.0-17.0-2.3,95648,List1A,white,woman,,,,null,,,,
6912,,,survey-text,345,1111843,0.0-17.0-3.3,95648,List1A,white,woman,,,,,"{""Q0"":""Kate is arguing with ruth""}","<img src=""stim_listA/argue7.gif""style=""height:400px;""></stim_listA>",is arguing with,
null,"<div style=""font-size:60px;"">+</div>",,html-keyboard-response,346,1112346,0.0-17.0-0.4,95648,List1A,white,woman,,,,null,,,,
null,"<img src=""stim_listA/play2.gif""style=""height:400px;""></stim_listA>",,html-keyboard-response,347,1114351,0.0-17.0-1.4,95648,List1A,white,woman,,,,null,,,,
null,are playing with each other,,html-keyboard-response,348,1116355,0.0-17.0-2.4,95648,List1A,white,woman,,,,null,,,,
9070,,,survey-text,349,1125430,0.0-17.0-3.4,95648,List1A,white,woman,,,,,"{""Q0"":""Kate and Fred are playing with each other""}","<img src=""stim_listA/play2.gif""style=""height:400px;""></stim_listA>",are playing with each other,
null,"<div style=""font-size:60px;"">+</div>",,html-keyboard-response,350,1125933,0.0-17.0-0.5,95648,List1A,white,woman,,,,null,,,,
null,"<img src=""stim_listA/play1.gif""style=""height:400px;""></stim_listA>",,html-keyboard-response,351,1127937,0.0-17.0-1.5,95648,List1A,white,woman,,,,null,,,,
null,is playing with,,html-keyboard-response,352,1129942,0.0-17.0-2.5,95648,List1A,white,woman,,,,null,,,,
8096,,,survey-text,353,1138043,0.0-17.0-3.5,95648,List1A,white,woman,,,,,"{""Q0"":""Mike is playing with Kate""}","<img src=""stim_listA/play1.gif""style=""height:400px;""></stim_listA>",is playing with,
null,"<div style=""font-size:60px;"">+</div>",,html-keyboard-response,354,1138547,0.0-17.0-0.6,95648,List1A,white,woman,,,,null,,,,
null,"<img src=""stim_listA/talk1.gif""style=""height:400px;""></stim_listA>",,html-keyboard-response,355,1140551,0.0-17.0-1.6,95648,List1A,white,woman,,,,null,,,,
null,is talking to,,html-keyboard-response,356,1142557,0.0-17.0-2.6,95648,List1A,white,woman,,,,null,,,,
7166,,,survey-text,357,1149728,0.0-17.0-3.6,95648,List1A,white,woman,,,,,"{""Q0"":""Kate is talking to fred""}","<img src=""stim_listA/talk1.gif""style=""height:400px;""></stim_listA>",is talking to,
null,"<div style=""font-size:60px;"">+</div>",,html-keyboard-response,358,1150232,0.0-17.0-0.7,95648,List1A,white,woman,,,,null,,,,
null,"<img src=""stim_listA/talk5.gif""style=""height:400px;""></stim_listA>",,html-keyboard-response,359,1152236,0.0-17.0-1.7,95648,List1A,white,woman,,,,null,,,,
null,is talking to,,html-keyboard-response,360,1154241,0.0-17.0-2.7,95648,List1A,white,woman,,,,null,,,,
5989,,,survey-text,361,1160234,0.0-17.0-3.7,95648,List1A,white,woman,,,,,"{""Q0"":""Fred is talking to dave""}","<img src=""stim_listA/talk5.gif""style=""height:400px;""></stim_listA>",is talking to,
null,"<div style=""font-size:60px;"">+</div>",,html-keyboard-response,362,1160737,0.0-17.0-0.8,95648,List1A,white,woman,,,,null,,,,
null,"<img src=""stim_listA/fight7.gif""style=""height:400px;""></stim_listA>",,html-keyboard-response,363,1162741,0.0-17.0-1.8,95648,List1A,white,woman,,,,null,,,,
null,is fighting,,html-keyboard-response,364,1164746,0.0-17.0-2.8,95648,List1A,white,woman,,,,null,,,,
6104,,,survey-text,365,1170855,0.0-17.0-3.8,95648,List1A,white,woman,,,,,"{""Q0"":""Kate is fighting jane""}","<img src=""stim_listA/fight7.gif""style=""height:400px;""></stim_listA>",is fighting,
null,"<div style=""font-size:60px;"">+</div>",,html-keyboard-response,366,1171358,0.0-17.0-0.9,95648,List1A,white,woman,,,,null,,,,
null,"<img src=""stim_listA/talk8.gif""style=""height:400px;""></stim_listA>",,html-keyboard-response,367,1173363,0.0-17.0-1.9,95648,List1A,white,woman,,,,null,,,,
null,are talking to each other,,html-keyboard-response,368,1175368,0.0-17.0-2.9,95648,List1A,white,woman,,,,null,,,,
9009,,,survey-text,369,1184382,0.0-17.0-3.9,95648,List1A,white,woman,,,,,"{""Q0"":""Ruth and Kate are talking to each other""}","<img src=""stim_listA/talk8.gif""style=""height:400px;""></stim_listA>",are talking to each other,
null,"<div style=""font-size:60px;"">+</div>",,html-keyboard-response,370,1184885,0.0-17.0-0.10,95648,List1A,white,woman,,,,null,,,,
null,"<img src=""stim_listA/flirt8.gif""style=""height:400px;""></stim_listA>",,html-keyboard-response,371,1186889,0.0-17.0-1.10,95648,List1A,white,woman,,,,null,,,,
null,are flirting with each other,,html-keyboard-response,372,1188894,0.0-17.0-2.10,95648,List1A,white,woman,,,,null,,,,
9074,,,survey-text,373,1197973,0.0-17.0-3.10,95648,List1A,white,woman,,,,,"{""Q0"":""Ruth and Kate are flirting with each other""}","<img src=""stim_listA/flirt8.gif""style=""height:400px;""></stim_listA>",are flirting with each other,
null,"<div style=""font-size:60px;"">+</div>",,html-keyboard-response,374,1198477,0.0-17.0-0.11,95648,List1A,white,woman,,,,null,,,,
null,"<img src=""stim_listA/flirt6.gif""style=""height:400px;""></stim_listA>",,html-keyboard-response,375,1200482,0.0-17.0-1.11,95648,List1A,white,woman,,,,null,,,,
null,are flirting with each other,,html-keyboard-response,376,1202487,0.0-17.0-2.11,95648,List1A,white,woman,,,,null,,,,
9306,,,survey-text,377,1211797,0.0-17.0-3.11,95648,List1A,white,woman,,,,,"{""Q0"":""Luke and mike are flirting with each other ""}","<img src=""stim_listA/flirt6.gif""style=""height:400px;""></stim_listA>",are flirting with each other,
null,"<div style=""font-size:60px;"">+</div>",,html-keyboard-response,378,1212299,0.0-17.0-0.12,95648,List1A,white,woman,,,,null,,,,
null,"<img src=""stim_listA/kiss6.gif""style=""height:400px;""></stim_listA>",,html-keyboard-response,379,1214304,0.0-17.0-1.12,95648,List1A,white,woman,,,,null,,,,
null,are kissing each other,,html-keyboard-response,380,1216309,0.0-17.0-2.12,95648,List1A,white,woman,,,,null,,,,
8337,,,survey-text,381,1224650,0.0-17.0-3.12,95648,List1A,white,woman,,,,,"{""Q0"":""Dave and mike are kissing each other""}","<img src=""stim_listA/kiss6.gif""style=""height:400px;""></stim_listA>",are kissing each other,
null,"<div style=""font-size:60px;"">+</div>",,html-keyboard-response,382,1225154,0.0-17.0-0.13,95648,List1A,white,woman,,,,null,,,,
null,"<img src=""stim_listA/flirt3.gif""style=""height:400px;""></stim_listA>",,html-keyboard-response,383,1227158,0.0-17.0-1.13,95648,List1A,white,woman,,,,null,,,,
null,is flirting with,,html-keyboard-response,384,1229165,0.0-17.0-2.13,95648,List1A,white,woman,,,,null,,,,
7152,,,survey-text,385,1236321,0.0-17.0-3.13,95648,List1A,white,woman,,,,,"{""Q0"":""Luke is flirting with jane""}","<img src=""stim_listA/flirt3.gif""style=""height:400px;""></stim_listA>",is flirting with,
null,"<div style=""font-size:60px;"">+</div>",,html-keyboard-response,386,1236824,0.0-17.0-0.14,95648,List1A,white,woman,,,,null,,,,
null,"<img src=""stim_listA/shout2.gif""style=""height:400px;""></stim_listA>",,html-keyboard-response,387,1238829,0.0-17.0-1.14,95648,List1A,white,woman,,,,null,,,,
null,are shouting at each other,,html-keyboard-response,388,1240834,0.0-17.0-2.14,95648,List1A,white,woman,,,,null,,,,
8448,,,survey-text,389,1249287,0.0-17.0-3.14,95648,List1A,white,woman,,,,,"{""Q0"":""Kate and mike are shouting at each other ""}","<img src=""stim_listA/shout2.gif""style=""height:400px;""></stim_listA>",are shouting at each other,
null,"<div style=""font-size:60px;"">+</div>",,html-keyboard-response,390,1249792,0.0-17.0-0.15,95648,List1A,white,woman,,,,null,,,,
null,"<img src=""stim_listA/talk6.gif""style=""height:400px;""></stim_listA>",,html-keyboard-response,391,1251796,0.0-17.0-1.15,95648,List1A,white,woman,,,,null,,,,
null,are talking to each other,,html-keyboard-response,392,1253802,0.0-17.0-2.15,95648,List1A,white,woman,,,,null,,,,
8587,,,survey-text,393,1262393,0.0-17.0-3.15,95648,List1A,white,woman,,,,,"{""Q0"":""Luke and mike are talking to each other ""}","<img src=""stim_listA/talk6.gif""style=""height:400px;""></stim_listA>",are talking to each other,
null,"<div style=""font-size:60px;"">+</div>",,html-keyboard-response,394,1262900,0.0-17.0-0.16,95648,List1A,white,woman,,,,null,,,,
null,"<img src=""stim_listA/argue2.gif""style=""height:400px;""></stim_listA>",,html-keyboard-response,395,1264904,0.0-17.0-1.16,95648,List1A,white,woman,,,,null,,,,
null,are arguing with each other,,html-keyboard-response,396,1266910,0.0-17.0-2.16,95648,List1A,white,woman,,,,null,,,,
9019,,,survey-text,397,1275934,0.0-17.0-3.16,95648,List1A,white,woman,,,,,"{""Q0"":""Kate and Fred are arguing with each other""}","<img src=""stim_listA/argue2.gif""style=""height:400px;""></stim_listA>",are arguing with each other,
null,"<div style=""font-size:60px;"">+</div>",,html-keyboard-response,398,1276437,0.0-17.0-0.17,95648,List1A,white,woman,,,,null,,,,
null,"<img src=""stim_listA/touch5.gif""style=""height:400px;""></stim_listA>",,html-keyboard-response,399,1278482,0.0-17.0-1.17,95648,List1A,white,woman,,,,null,,,,
null,is touching,,html-keyboard-response,400,1280487,0.0-17.0-2.17,95648,List1A,white,woman,,,,null,,,,
5580,,,survey-text,401,1286072,0.0-17.0-3.17,95648,List1A,white,woman,,,,,"{""Q0"":""Dave is touching mike""}","<img src=""stim_listA/touch5.gif""style=""height:400px;""></stim_listA>",is touching,
null,"<div style=""font-size:60px;"">+</div>",,html-keyboard-response,402,1286578,0.0-17.0-0.18,95648,List1A,white,woman,,,,null,,,,
null,"<img src=""stim_listA/shout8.gif""style=""height:400px;""></stim_listA>",,html-keyboard-response,403,1288582,0.0-17.0-1.18,95648,List1A,white,woman,,,,null,,,,
null,are shouting at each other,,html-keyboard-response,404,1290587,0.0-17.0-2.18,95648,List1A,white,woman,,,,null,,,,
10408,,,survey-text,405,1300997,0.0-17.0-3.18,95648,List1A,white,woman,,,,,"{""Q0"":""Jane and Kate are arguing with each other""}","<img src=""stim_listA/shout8.gif""style=""height:400px;""></stim_listA>",are shouting at each other,
null,"<div style=""font-size:60px;"">+</div>",,html-keyboard-response,406,1301501,0.0-17.0-0.19,95648,List1A,white,woman,,,,null,,,,
null,"<img src=""stim_listA/touch4.gif""style=""height:400px;""></stim_listA>",,html-keyboard-response,407,1303511,0.0-17.0-1.19,95648,List1A,white,woman,,,,null,,,,
null,are touching each other,,html-keyboard-response,408,1305516,0.0-17.0-2.19,95648,List1A,white,woman,,,,null,,,,
9286,,,survey-text,409,1314807,0.0-17.0-3.19,95648,List1A,white,woman,,,,,"{""Q0"":""Ruth and mike are touching each other ""}","<img src=""stim_listA/touch4.gif""style=""height:400px;""></stim_listA>",are touching each other,
3941,"<img src='img/portrait_matrix_list1.jpg' style='width:900px;height:500px;''></img><p>If you have memorised all the portraits and names and are ready to start, press Continue.</p><p><strong>Please note: Your memory of these faces will be tested 4 times during this experiment.</strong></p>",0,html-button-response,410,1318752,0.0-18.0-0.0,95648,List1A,white,woman,,,,,,,,
1722,"<img src=""portrait/BM2.jpg""style=""height:400px;""></img>",5,html-button-response,411,1321479,0.0-18.0-1.0,95648,List1A,white,woman,,TRUE,5,,,,,
null,CORRECT,,html-keyboard-response,412,1322984,0.0-18.0-2.0-0.0,95648,List1A,white,woman,,,,null,,,,
1643,"<img src=""portrait/BW2.jpg""style=""height:400px;""></img>",2,html-button-response,413,1324635,0.0-18.0-4.0,95648,List1A,white,woman,,TRUE,2,,,,,
null,CORRECT,,html-keyboard-response,414,1326140,0.0-18.0-5.0-0.0,95648,List1A,white,woman,,,,null,,,,
1912,"<img src=""portrait/WM1.jpg""style=""height:400px;""></img>",6,html-button-response,415,1328065,0.0-18.0-7.0,95648,List1A,white,woman,,TRUE,6,,,,,
null,CORRECT,,html-keyboard-response,416,1329570,0.0-18.0-8.0-0.0,95648,List1A,white,woman,,,,null,,,,
1800,"<img src=""portrait/WM2.jpg""style=""height:400px;""></img>",7,html-button-response,417,1331375,0.0-18.0-10.0,95648,List1A,white,woman,,TRUE,7,,,,,
null,CORRECT,,html-keyboard-response,418,1332880,0.0-18.0-11.0-0.0,95648,List1A,white,woman,,,,null,,,,
2923,"<img src=""portrait/WW2.jpg""style=""height:400px;""></img>",3,html-button-response,419,1335809,0.0-18.0-13.0,95648,List1A,white,woman,,TRUE,3,,,,,
null,CORRECT,,html-keyboard-response,420,1337314,0.0-18.0-14.0-0.0,95648,List1A,white,woman,,,,null,,,,
2129,"<img src=""portrait/BW1.jpg""style=""height:400px;""></img>",0,html-button-response,421,1339450,0.0-18.0-16.0,95648,List1A,white,woman,,TRUE,0,,,,,
null,CORRECT,,html-keyboard-response,422,1340956,0.0-18.0-17.0-0.0,95648,List1A,white,woman,,,,null,,,,
1790,"<img src=""portrait/WW1.jpg""style=""height:400px;""></img>",1,html-button-response,423,1342751,0.0-18.0-19.0,95648,List1A,white,woman,,TRUE,1,,,,,
null,CORRECT,,html-keyboard-response,424,1344256,0.0-18.0-20.0-0.0,95648,List1A,white,woman,,,,null,,,,
2037,"<img src=""portrait/BM1.jpg""style=""height:400px;""></img>",4,html-button-response,425,1346298,0.0-18.0-22.0,95648,List1A,white,woman,,TRUE,4,,,,,
null,CORRECT,,html-keyboard-response,426,1347803,0.0-18.0-23.0-0.0,95648,List1A,white,woman,,,,null,,,,
1536,<p>You got 8 out of 8 right first time. Press Continue.</p>,0,html-button-response,427,1349344,0.0-18.0-25.0,95648,List1A,white,woman,,,,,,,,
null,"<div style=""font-size:60px;"">+</div>",,html-keyboard-response,428,1350854,0.0-19.0-0.0,95648,List1A,white,woman,,,,null,,,,
null,"<img src=""stim_listA/argue4.gif""style=""height:400px;""></stim_listA>",,html-keyboard-response,429,1352864,0.0-19.0-1.0,95648,List1A,white,woman,,,,null,,,,
null,are arguing with each other,,html-keyboard-response,430,1354871,0.0-19.0-2.0,95648,List1A,white,woman,,,,null,,,,
9272,,,survey-text,431,1364148,0.0-19.0-3.0,95648,List1A,white,woman,,,,,"{""Q0"":""Jane and mike are arguing with each other ""}","<img src=""stim_listA/argue4.gif""style=""height:400px;""></stim_listA>",are arguing with each other,
null,"<div style=""font-size:60px;"">+</div>",,html-keyboard-response,432,1364652,0.0-19.0-0.1,95648,List1A,white,woman,,,,null,,,,
null,"<img src=""stim_listA/touch3.gif""style=""height:400px;""></stim_listA>",,html-keyboard-response,433,1366657,0.0-19.0-1.1,95648,List1A,white,woman,,,,null,,,,
null,is touching,,html-keyboard-response,434,1368662,0.0-19.0-2.1,95648,List1A,white,woman,,,,null,,,,
5570,,,survey-text,435,1374237,0.0-19.0-3.1,95648,List1A,white,woman,,,,,"{""Q0"":""Dave is touching jane""}","<img src=""stim_listA/touch3.gif""style=""height:400px;""></stim_listA>",is touching,
null,"<div style=""font-size:60px;"">+</div>",,html-keyboard-response,436,1374741,0.0-19.0-0.2,95648,List1A,white,woman,,,,null,,,,
null,"<img src=""stim_listA/play3.gif""style=""height:400px;""></stim_listA>",,html-keyboard-response,437,1376746,0.0-19.0-1.2,95648,List1A,white,woman,,,,null,,,,
null,is playing with,,html-keyboard-response,438,1378752,0.0-19.0-2.2,95648,List1A,white,woman,,,,null,,,,
6437,,,survey-text,439,1385194,0.0-19.0-3.2,95648,List1A,white,woman,,,,,"{""Q0"":""Dave is playing with jane""}","<img src=""stim_listA/play3.gif""style=""height:400px;""></stim_listA>",is playing with,
null,"<div style=""font-size:60px;"">+</div>",,html-keyboard-response,440,1385697,0.0-19.0-0.3,95648,List1A,white,woman,,,,null,,,,
null,"<img src=""stim_listA/play6.gif""style=""height:400px;""></stim_listA>",,html-keyboard-response,441,1387700,0.0-19.0-1.3,95648,List1A,white,woman,,,,null,,,,
null,are playing with each other,,html-keyboard-response,442,1389705,0.0-19.0-2.3,95648,List1A,white,woman,,,,null,,,,
8564,,,survey-text,443,1398274,0.0-19.0-3.3,95648,List1A,white,woman,,,,,"{""Q0"":""Luke and Fred are playing with each other""}","<img src=""stim_listA/play6.gif""style=""height:400px;""></stim_listA>",are playing with each other,
null,"<div style=""font-size:60px;"">+</div>",,html-keyboard-response,444,1398779,0.0-19.0-0.4,95648,List1A,white,woman,,,,null,,,,
null,"<img src=""stim_listA/shout3.gif""style=""height:400px;""></stim_listA>",,html-keyboard-response,445,1400784,0.0-19.0-1.4,95648,List1A,white,woman,,,,null,,,,
null,is shouting at,,html-keyboard-response,446,1402789,0.0-19.0-2.4,95648,List1A,white,woman,,,,null,,,,
8921,,,survey-text,447,1411715,0.0-19.0-3.4,95648,List1A,white,woman,,,,,"{""Q0"":""Luke and Ruth are shouting at each other ""}","<img src=""stim_listA/shout3.gif""style=""height:400px;""></stim_listA>",is shouting at,
null,"<div style=""font-size:60px;"">+</div>",,html-keyboard-response,448,1412222,0.0-19.0-0.5,95648,List1A,white,woman,,,,null,,,,
null,"<img src=""stim_listA/argue5.gif""style=""height:400px;""></stim_listA>",,html-keyboard-response,449,1414226,0.0-19.0-1.5,95648,List1A,white,woman,,,,null,,,,
null,is arguing with,,html-keyboard-response,450,1416236,0.0-19.0-2.5,95648,List1A,white,woman,,,,null,,,,
6604,,,survey-text,451,1422845,0.0-19.0-3.5,95648,List1A,white,woman,,,,,"{""Q0"":""Mike is arguing with luke""}","<img src=""stim_listA/argue5.gif""style=""height:400px;""></stim_listA>",is arguing with,
null,"<div style=""font-size:60px;"">+</div>",,html-keyboard-response,452,1423348,0.0-19.0-0.6,95648,List1A,white,woman,,,,null,,,,
null,"<img src=""stim_listA/kiss5.gif""style=""height:400px;""></stim_listA>",,html-keyboard-response,453,1425352,0.0-19.0-1.6,95648,List1A,white,woman,,,,null,,,,
null,is kissing,,html-keyboard-response,454,1427357,0.0-19.0-2.6,95648,List1A,white,woman,,,,null,,,,
6774,,,survey-text,455,1434136,0.0-19.0-3.6,95648,List1A,white,woman,,,,,"{""Q0"":""Luke is kissing Fred ""}","<img src=""stim_listA/kiss5.gif""style=""height:400px;""></stim_listA>",is kissing,
null,"<div style=""font-size:60px;"">+</div>",,html-keyboard-response,456,1434639,0.0-19.0-0.7,95648,List1A,white,woman,,,,null,,,,
null,"<img src=""stim_listA/touch6.gif""style=""height:400px;""></stim_listA>",,html-keyboard-response,457,1436643,0.0-19.0-1.7,95648,List1A,white,woman,,,,null,,,,
null,are touching each other,,html-keyboard-response,458,1438649,0.0-19.0-2.7,95648,List1A,white,woman,,,,null,,,,
9458,,,survey-text,459,1448111,0.0-19.0-3.7,95648,List1A,white,woman,,,,,"{""Q0"":""Luke and Fred are touching each other ""}","<img src=""stim_listA/touch6.gif""style=""height:400px;""></stim_listA>",are touching each other,
null,"<div style=""font-size:60px;"">+</div>",,html-keyboard-response,460,1448615,0.0-19.0-0.8,95648,List1A,white,woman,,,,null,,,,
null,"<img src=""stim_listA/marry6.gif""style=""height:400px;""></stim_listA>",,html-keyboard-response,461,1450619,0.0-19.0-1.8,95648,List1A,white,woman,,,,null,,,,
null,are marrying each other,,html-keyboard-response,462,1452624,0.0-19.0-2.8,95648,List1A,white,woman,,,,null,,,,
9014,,,survey-text,463,1461645,0.0-19.0-3.8,95648,List1A,white,woman,,,,,"{""Q0"":""Dave and Fred are marrying each other ""}","<img src=""stim_listA/marry6.gif""style=""height:400px;""></stim_listA>",are marrying each other,
null,"<div style=""font-size:60px;"">+</div>",,html-keyboard-response,464,1462149,0.0-19.0-0.9,95648,List1A,white,woman,,,,null,,,,
null,"<img src=""stim_listA/marry3.gif""style=""height:400px;""></stim_listA>",,html-keyboard-response,465,1464154,0.0-19.0-1.9,95648,List1A,white,woman,,,,null,,,,
null,is marrying,,html-keyboard-response,466,1466159,0.0-19.0-2.9,95648,List1A,white,woman,,,,null,,,,
7469,,,survey-text,467,1473632,0.0-19.0-3.9,95648,List1A,white,woman,,,,,"{""Q0"":""Ruth is marrying dave""}","<img src=""stim_listA/marry3.gif""style=""height:400px;""></stim_listA>",is marrying,
null,"<div style=""font-size:60px;"">+</div>",,html-keyboard-response,468,1474137,0.0-19.0-0.10,95648,List1A,white,woman,,,,null,,,,
null,"<img src=""stim_listA/play7.gif""style=""height:400px;""></stim_listA>",,html-keyboard-response,469,1476142,0.0-19.0-1.10,95648,List1A,white,woman,,,,null,,,,
null,is playing with,,html-keyboard-response,470,1478147,0.0-19.0-2.10,95648,List1A,white,woman,,,,null,,,,
6163,,,survey-text,471,1484314,0.0-19.0-3.10,95648,List1A,white,woman,,,,,"{""Q0"":""Kate is playing with jane""}","<img src=""stim_listA/play7.gif""style=""height:400px;""></stim_listA>",is playing with,
null,"<div style=""font-size:60px;"">+</div>",,html-keyboard-response,472,1484819,0.0-19.0-0.11,95648,List1A,white,woman,,,,null,,,,
null,"<img src=""stim_listA/kiss4.gif""style=""height:400px;""></stim_listA>",,html-keyboard-response,473,1486823,0.0-19.0-1.11,95648,List1A,white,woman,,,,null,,,,
null,are kissing each other,,html-keyboard-response,474,1488828,0.0-19.0-2.11,95648,List1A,white,woman,,,,null,,,,
8247,,,survey-text,475,1497080,0.0-19.0-3.11,95648,List1A,white,woman,,,,,"{""Q0"":""Ruth and Dave are kissing each other ""}","<img src=""stim_listA/kiss4.gif""style=""height:400px;""></stim_listA>",are kissing each other,
null,"<div style=""font-size:60px;"">+</div>",,html-keyboard-response,476,1497583,0.0-19.0-0.12,95648,List1A,white,woman,,,,null,,,,
null,"<img src=""stim_listA/touch2.gif""style=""height:400px;""></stim_listA>",,html-keyboard-response,477,1499587,0.0-19.0-1.12,95648,List1A,white,woman,,,,null,,,,
null,are touching each other,,html-keyboard-response,478,1501591,0.0-19.0-2.12,95648,List1A,white,woman,,,,null,,,,
8303,,,survey-text,479,1509900,0.0-19.0-3.12,95648,List1A,white,woman,,,,,"{""Q0"":""Beth and Fred are touching each other ""}","<img src=""stim_listA/touch2.gif""style=""height:400px;""></stim_listA>",are touching each other,
null,"<div style=""font-size:60px;"">+</div>",,html-keyboard-response,480,1510402,0.0-19.0-0.13,95648,List1A,white,woman,,,,null,,,,
null,"<img src=""stim_listA/fight1.gif""style=""height:400px;""></stim_listA>",,html-keyboard-response,481,1512406,0.0-19.0-1.13,95648,List1A,white,woman,,,,null,,,,
null,is fighting,,html-keyboard-response,482,1514411,0.0-19.0-2.13,95648,List1A,white,woman,,,,null,,,,
5301,,,survey-text,483,1519717,0.0-19.0-3.13,95648,List1A,white,woman,,,,,"{""Q0"":""Mike is fighting kate""}","<img src=""stim_listA/fight1.gif""style=""height:400px;""></stim_listA>",is fighting,
null,"<div style=""font-size:60px;"">+</div>",,html-keyboard-response,484,1520221,0.0-19.0-0.14,95648,List1A,white,woman,,,,null,,,,
null,"<img src=""stim_listA/touch7.gif""style=""height:400px;""></stim_listA>",,html-keyboard-response,485,1522225,0.0-19.0-1.14,95648,List1A,white,woman,,,,null,,,,
null,is touching,,html-keyboard-response,486,1524230,0.0-19.0-2.14,95648,List1A,white,woman,,,,null,,,,
5160,,,survey-text,487,1529400,0.0-19.0-3.14,95648,List1A,white,woman,,,,,"{""Q0"":""Kate is touching jane""}","<img src=""stim_listA/touch7.gif""style=""height:400px;""></stim_listA>",is touching,
null,"<div style=""font-size:60px;"">+</div>",,html-keyboard-response,488,1529904,0.0-19.0-0.15,95648,List1A,white,woman,,,,null,,,,
null,"<img src=""stim_listA/shout4.gif""style=""height:400px;""></stim_listA>",,html-keyboard-response,489,1531908,0.0-19.0-1.15,95648,List1A,white,woman,,,,null,,,,
null,are shouting at each other,,html-keyboard-response,490,1533914,0.0-19.0-2.15,95648,List1A,white,woman,,,,null,,,,
8583,,,survey-text,491,1542502,0.0-19.0-3.15,95648,List1A,white,woman,,,,,"{""Q0"":""Dave and Jane are shouting at each other""}","<img src=""stim_listA/shout4.gif""style=""height:400px;""></stim_listA>",are shouting at each other,
null,"<div style=""font-size:60px;"">+</div>",,html-keyboard-response,492,1543005,0.0-19.0-0.16,95648,List1A,white,woman,,,,null,,,,
null,"<img src=""stim_listA/kiss3.gif""style=""height:400px;""></stim_listA>",,html-keyboard-response,493,1545010,0.0-19.0-1.16,95648,List1A,white,woman,,,,null,,,,
null,is kissing,,html-keyboard-response,494,1547020,0.0-19.0-2.16,95648,List1A,white,woman,,,,null,,,,
5601,,,survey-text,495,1552627,0.0-19.0-3.16,95648,List1A,white,woman,,,,,"{""Q0"":""Ruth is kissing mike""}","<img src=""stim_listA/kiss3.gif""style=""height:400px;""></stim_listA>",is kissing,
null,"<div style=""font-size:60px;"">+</div>",,html-keyboard-response,496,1553132,0.0-19.0-0.17,95648,List1A,white,woman,,,,null,,,,
null,"<img src=""stim_listA/dance1.gif""style=""height:400px;""></stim_listA>",,html-keyboard-response,497,1555137,0.0-19.0-1.17,95648,List1A,white,woman,,,,null,,,,
null,is dancing with,,html-keyboard-response,498,1557142,0.0-19.0-2.17,95648,List1A,white,woman,,,,null,,,,
6343,,,survey-text,499,1563490,0.0-19.0-3.17,95648,List1A,white,woman,,,,,"{""Q0"":""Fred is dancing with kate""}","<img src=""stim_listA/dance1.gif""style=""height:400px;""></stim_listA>",is dancing with,
null,"<div style=""font-size:60px;"">+</div>",,html-keyboard-response,500,1563994,0.0-19.0-0.18,95648,List1A,white,woman,,,,null,,,,
null,"<img src=""stim_listA/talk4.gif""style=""height:400px;""></stim_listA>",,html-keyboard-response,501,1565999,0.0-19.0-1.18,95648,List1A,white,woman,,,,null,,,,
null,are talking to each other,,html-keyboard-response,502,1568004,0.0-19.0-2.18,95648,List1A,white,woman,,,,null,,,,
8362,,,survey-text,503,1576371,0.0-19.0-3.18,95648,List1A,white,woman,,,,,"{""Q0"":""Ruth and Dave are talking to each other ""}","<img src=""stim_listA/talk4.gif""style=""height:400px;""></stim_listA>",are talking to each other,
null,"<div style=""font-size:60px;"">+</div>",,html-keyboard-response,504,1576875,0.0-19.0-0.19,95648,List1A,white,woman,,,,null,,,,
null,"<img src=""stim_listA/marry1.gif""style=""height:400px;""></stim_listA>",,html-keyboard-response,505,1578879,0.0-19.0-1.19,95648,List1A,white,woman,,,,null,,,,
null,is marrying,,html-keyboard-response,506,1580884,0.0-19.0-2.19,95648,List1A,white,woman,,,,null,,,,
5545,,,survey-text,507,1586443,0.0-19.0-3.19,95648,List1A,white,woman,,,,,"{""Q0"":""Mike is marrying beth""}","<img src=""stim_listA/marry1.gif""style=""height:400px;""></stim_listA>",is marrying,
1837,<p>Thank you for completing that task.</p><p>The final part of this session is a short questionnaire.</p><p>Press Continue.</p>,0,html-button-response,508,1588286,0.0-20.0,95648,List1A,white,woman,,,,,,,,
22310,,,survey-text,509,1611605,0.0-21.0,95648,List1A,white,woman,,,,,"{""Q0"":""30"",""Q1"":""English"",""Q2"":""English"",""Q3"":""Scotland"",""Q4"":""White"",""Q5"":""Female""}",,,demographics
7714,,,survey-likert,510,1619334,0.0-22.0,95648,List1A,white,woman,,,,,"{""Q0"":4}",,,likert_ESS
5905,,,survey-likert,511,1625249,0.0-23.0,95648,List1A,white,woman,,,,,"{""Q0"":4}",,,likert_NSSAL_Q1
2689,,,survey-likert,512,1627951,0.0-24.0,95648,List1A,white,woman,,,,,"{""Q0"":4}",,,likert_NSSAL_Q2
5184,,,survey-likert,513,1633152,0.0-25.0,95648,List1A,white,woman,,,,,"{""Q0"":4}",,,likert_CGRS_Q1
3009,,,survey-likert,514,1636177,0.0-26.0,95648,List1A,white,woman,,,,,"{""Q0"":4}",,,likert_CGRS_Q2
4318,,,survey-likert,515,1640507,0.0-27.0,95648,List1A,white,woman,,,,,"{""Q0"":4}",,,likert_CGRS_Q3
4651,,,survey-text,516,1645170,0.0-28.0,95648,List1A,white,woman,,,,,"{""Q0"":""ccc""}",,,worker_id
12013,,,external-html,517,1657328,0.0-29.0,95648,List1A,white,woman,debrief.html,,,,,,,
