rt,stimulus,button_pressed,trial_type,trial_index,time_elapsed,internal_node_id,subject,list,ppt_race,ppt_gender,url,first_guess,correct,key_press,responses,image_type,phrase_type,test_part
3618,Welcome to the experiment. Press Continue to begin.,0,html-button-response,0,3623,0.0-0.0,95748,List1B,black,woman,,,,,,,,
41729,,,external-html,1,46494,0.0-1.0,95748,List1B,black,woman,consent.html,,,,,,,
25168,"<p>On the next page, you will see portraits of 8 people and their names.</p><p>Your first task is to take a few minutes to memorise the names of these people.</p><p>You will have to recall their names during the rest of the experiment, so it is</p><p>essential that you try to memorise these people and their names as best as you can.</p><br><p><strong>You will then be tested on your memory of these names and portraits.</strong></p><br><p>The experiment will start after you have completed this memory test.</p><br><p>Ready?</p>",0,html-button-response,2,71665,0.0-2.0,95748,List1B,black,woman,,,,,,,,
68823,"<img src='img/portrait_matrix_list1.jpg' style='width:900px;height:500px;''></img><p>If you have memorised all the portraits and names and are ready to start, press Continue.</p><p><strong>Please note: Your memory of these faces will be tested 4 times during this experiment.</strong></p>",0,html-button-response,3,141492,0.0-3.0-0.0,95748,List1B,black,woman,,,,,,,,
6416,"<img src=""portrait/BM1.jpg""style=""height:400px;""></img>",4,html-button-response,4,148912,0.0-3.0-1.0,95748,List1B,black,woman,,TRUE,4,,,,,
null,CORRECT,,html-keyboard-response,5,150418,0.0-3.0-2.0-0.0,95748,List1B,black,woman,,,,null,,,,
2264,"<img src=""portrait/WW2.jpg""style=""height:400px;""></img>",3,html-button-response,6,152685,0.0-3.0-4.0,95748,List1B,black,woman,,TRUE,3,,,,,
null,CORRECT,,html-keyboard-response,7,154191,0.0-3.0-5.0-0.0,95748,List1B,black,woman,,,,null,,,,
3265,"<img src=""portrait/WM1.jpg""style=""height:400px;""></img>",6,html-button-response,8,157458,0.0-3.0-7.0,95748,List1B,black,woman,,TRUE,6,,,,,
null,CORRECT,,html-keyboard-response,9,158962,0.0-3.0-8.0-0.0,95748,List1B,black,woman,,,,null,,,,
3115,"<img src=""portrait/BW1.jpg""style=""height:400px;""></img>",2,html-button-response,10,162079,0.0-3.0-10.0,95748,List1B,black,woman,,TRUE,0,,,,,
13006,"<img src=""portrait/BW1.jpg""style=""height:400px;""></img>",0,html-button-response,11,176088,0.0-3.0-12.0-0.0,95748,List1B,black,woman,,FALSE,0,,,,,
null,CORRECT,,html-keyboard-response,12,177593,0.0-3.0-12.0-1.0-0.0,95748,List1B,black,woman,,,,null,,,,
4418,"<img src=""portrait/BW2.jpg""style=""height:400px;""></img>",2,html-button-response,13,182014,0.0-3.0-13.0,95748,List1B,black,woman,,TRUE,2,,,,,
null,CORRECT,,html-keyboard-response,14,183519,0.0-3.0-14.0-0.0,95748,List1B,black,woman,,,,null,,,,
6651,"<img src=""portrait/WM2.jpg""style=""height:400px;""></img>",7,html-button-response,15,190172,0.0-3.0-16.0,95748,List1B,black,woman,,TRUE,7,,,,,
null,CORRECT,,html-keyboard-response,16,191678,0.0-3.0-17.0-0.0,95748,List1B,black,woman,,,,null,,,,
5053,"<img src=""portrait/WW1.jpg""style=""height:400px;""></img>",1,html-button-response,17,196732,0.0-3.0-19.0,95748,List1B,black,woman,,TRUE,1,,,,,
null,CORRECT,,html-keyboard-response,18,198237,0.0-3.0-20.0-0.0,95748,List1B,black,woman,,,,null,,,,
5359,"<img src=""portrait/BM2.jpg""style=""height:400px;""></img>",5,html-button-response,19,203597,0.0-3.0-22.0,95748,List1B,black,woman,,TRUE,5,,,,,
null,CORRECT,,html-keyboard-response,20,205101,0.0-3.0-23.0-0.0,95748,List1B,black,woman,,,,null,,,,
2408,<p>You got 7 out of 8 right first time. Press Continue.</p>,0,html-button-response,21,207512,0.0-3.0-25.0,95748,List1B,black,woman,,,,,,,,
5478,"As you did not score 100%, the memory game will repeat. Press Continue.",0,html-button-response,22,213993,0.0-3.0-26.0-0.0,95748,List1B,black,woman,,,,,,,,
29915,"<img src='img/portrait_matrix_list1.jpg' style='width:900px;height:500px;''></img><p>If you have memorised all the portraits and names and are ready to start, press Continue.</p><p><strong>Please note: Your memory of these faces will be tested 4 times during this experiment.</strong></p>",0,html-button-response,23,244914,0.0-3.1-0.1,95748,List1B,black,woman,,,,,,,,
2240,"<img src=""portrait/BM1.jpg""style=""height:400px;""></img>",4,html-button-response,24,248157,0.0-3.1-1.1,95748,List1B,black,woman,,TRUE,4,,,,,
null,CORRECT,,html-keyboard-response,25,249661,0.0-3.1-2.1-0.1,95748,List1B,black,woman,,,,null,,,,
1969,"<img src=""portrait/WW2.jpg""style=""height:400px;""></img>",3,html-button-response,26,251633,0.0-3.1-4.1,95748,List1B,black,woman,,TRUE,3,,,,,
null,CORRECT,,html-keyboard-response,27,253138,0.0-3.1-5.1-0.1,95748,List1B,black,woman,,,,null,,,,
2586,"<img src=""portrait/WM1.jpg""style=""height:400px;""></img>",6,html-button-response,28,255726,0.0-3.1-7.1,95748,List1B,black,woman,,TRUE,6,,,,,
null,CORRECT,,html-keyboard-response,29,257231,0.0-3.1-8.1-0.1,95748,List1B,black,woman,,,,null,,,,
8381,"<img src=""portrait/BW1.jpg""style=""height:400px;""></img>",0,html-button-response,30,265614,0.0-3.1-10.1,95748,List1B,black,woman,,TRUE,0,,,,,
null,CORRECT,,html-keyboard-response,31,267118,0.0-3.1-11.1-0.1,95748,List1B,black,woman,,,,null,,,,
1999,"<img src=""portrait/BW2.jpg""style=""height:400px;""></img>",2,html-button-response,32,269120,0.0-3.1-13.1,95748,List1B,black,woman,,TRUE,2,,,,,
null,CORRECT,,html-keyboard-response,33,270623,0.0-3.1-14.1-0.1,95748,List1B,black,woman,,,,null,,,,
1883,"<img src=""portrait/WM2.jpg""style=""height:400px;""></img>",7,html-button-response,34,272509,0.0-3.1-16.1,95748,List1B,black,woman,,TRUE,7,,,,,
null,CORRECT,,html-keyboard-response,35,274012,0.0-3.1-17.1-0.1,95748,List1B,black,woman,,,,null,,,,
2904,"<img src=""portrait/WW1.jpg""style=""height:400px;""></img>",1,html-button-response,36,276919,0.0-3.1-19.1,95748,List1B,black,woman,,TRUE,1,,,,,
null,CORRECT,,html-keyboard-response,37,278422,0.0-3.1-20.1-0.1,95748,List1B,black,woman,,,,null,,,,
3218,"<img src=""portrait/BM2.jpg""style=""height:400px;""></img>",5,html-button-response,38,281643,0.0-3.1-22.1,95748,List1B,black,woman,,TRUE,5,,,,,
null,CORRECT,,html-keyboard-response,39,283147,0.0-3.1-23.1-0.1,95748,List1B,black,woman,,,,null,,,,
2408,<p>You got 8 out of 8 right first time. Press Continue.</p>,0,html-button-response,40,285558,0.0-3.1-25.1,95748,List1B,black,woman,,,,,,,,
40001,"<p>In this experiment, you will view photographs of the people from the memory game interacting.</p><p>By using the <strong>exact</strong> phrase given <i>after</i> the photograph appears and recalling the correct names of the people in the photographs, form a sentence describing the interaction. You do not need to capitalise names.</p><p>Type your answer in the space provided. Please complete every sentence before moving onto the next trial.</p><p>You will only have a few seconds to memorise each given photograph and phrase before you can respond, so try your best to focus.</p><p>An example is given below. Press 'Continue' when you are ready.</p><img src='img/speaking_example.jpg' style='width:800px;height:460px;''></img>",0,html-button-response,41,326563,0.0-4.0,95748,List1B,black,woman,,,,,,,,
3303,"<p>Before the experiment starts, you will watch two example trials. Press 'Continue'.</p>",0,html-button-response,42,330870,0.0-5.0,95748,List1B,black,woman,,,,,,,,
null,<img src='img/meet_eg.gif' style='height:400px;''></img>,,html-keyboard-response,43,333874,0.0-6.0,95748,List1B,black,woman,,,,null,,,,
null,<p>is meeting</p>,,html-keyboard-response,44,335876,0.0-7.0,95748,List1B,black,woman,,,,null,,,,
4716,<p><b>Answer:</b> kate is meeting beth</p>,0,html-button-response,45,340594,0.0-8.0,95748,List1B,black,woman,,,,,,,,
null,<img src='img/look_eg.gif' style='height:400px;''></img>,,html-keyboard-response,46,343597,0.0-9.0,95748,List1B,black,woman,,,,null,,,,
null,<p>are looking at each other</p>,,html-keyboard-response,47,345599,0.0-10.0,95748,List1B,black,woman,,,,null,,,,
2201,<p><b>Answer:</b> luke and dave are looking at each other</p>,0,html-button-response,48,347801,0.0-11.0,95748,List1B,black,woman,,,,,,,,
7639,"<p>Ready to start the experiment?</p><br><p><strong>Remember to describe the picture using a full sentence,</strong></p><p><strong>that combines the names of the people with the <i>exact</i> phrase given.</strong></p><p><strong>To receive full payment you must do this correctly.</strong></p><p><strong> You do not need to capitalise names or use punctuation.</strong></p><br><p>Press 'Continue' to begin.</p>",0,html-button-response,49,356444,0.0-12.0,95748,List1B,black,woman,,,,,,,,
null,"<div style=""font-size:60px;"">+</div>",,html-keyboard-response,50,357948,0.0-13.0-0.0,95748,List1B,black,woman,,,,null,,,,
null,"<img src=""stim_listB/argue6.gif""style=""height:400px;""></stim_listB>",,html-keyboard-response,51,359951,0.0-13.0-1.0,95748,List1B,black,woman,,,,null,,,,
null,are arguing with each other,,html-keyboard-response,52,361954,0.0-13.0-2.0,95748,List1B,black,woman,,,,null,,,,
10521,,,survey-text,53,372479,0.0-13.0-3.0,95748,List1B,black,woman,,,,,"{""Q0"":""dave and fred""}","<img src=""stim_listB/argue6.gif""style=""height:400px;""></stim_listB>",are arguing with each other,
null,"<div style=""font-size:60px;"">+</div>",,html-keyboard-response,54,372981,0.0-13.0-0.1,95748,List1B,black,woman,,,,null,,,,
null,"<img src=""stim_listB/marry5.gif""style=""height:400px;""></stim_listB>",,html-keyboard-response,55,374984,0.0-13.0-1.1,95748,List1B,black,woman,,,,null,,,,
null,is marrying,,html-keyboard-response,56,376986,0.0-13.0-2.1,95748,List1B,black,woman,,,,null,,,,
8470,,,survey-text,57,385457,0.0-13.0-3.1,95748,List1B,black,woman,,,,,"{""Q0"":""luke and mike""}","<img src=""stim_listB/marry5.gif""style=""height:400px;""></stim_listB>",is marrying,
null,"<div style=""font-size:60px;"">+</div>",,html-keyboard-response,58,385960,0.0-13.0-0.2,95748,List1B,black,woman,,,,null,,,,
null,"<img src=""stim_listB/marry6.gif""style=""height:400px;""></stim_listB>",,html-keyboard-response,59,387967,0.0-13.0-1.2,95748,List1B,black,woman,,,,null,,,,
null,are marrying each other,,html-keyboard-response,60,389970,0.0-13.0-2.2,95748,List1B,black,woman,,,,null,,,,
9094,,,survey-text,61,399066,0.0-13.0-3.2,95748,List1B,black,woman,,,,,"{""Q0"":""dave and fred""}","<img src=""stim_listB/marry6.gif""style=""height:400px;""></stim_listB>",are marrying each other,
null,"<div style=""font-size:60px;"">+</div>",,html-keyboard-response,62,399568,0.0-13.0-0.3,95748,List1B,black,woman,,,,null,,,,
null,"<img src=""stim_listB/shout8.gif""style=""height:400px;""></stim_listB>",,html-keyboard-response,63,401572,0.0-13.0-1.3,95748,List1B,black,woman,,,,null,,,,
null,are shouting at each other,,html-keyboard-response,64,403573,0.0-13.0-2.3,95748,List1B,black,woman,,,,null,,,,
9371,,,survey-text,65,412945,0.0-13.0-3.3,95748,List1B,black,woman,,,,,"{""Q0"":""kate and ruth""}","<img src=""stim_listB/shout8.gif""style=""height:400px;""></stim_listB>",are shouting at each other,
null,"<div style=""font-size:60px;"">+</div>",,html-keyboard-response,66,413447,0.0-13.0-0.4,95748,List1B,black,woman,,,,null,,,,
null,"<img src=""stim_listB/argue5.gif""style=""height:400px;""></stim_listB>",,html-keyboard-response,67,415451,0.0-13.0-1.4,95748,List1B,black,woman,,,,null,,,,
null,is arguing with,,html-keyboard-response,68,417454,0.0-13.0-2.4,95748,List1B,black,woman,,,,null,,,,
10744,,,survey-text,69,428199,0.0-13.0-3.4,95748,List1B,black,woman,,,,,"{""Q0"":""mike and luke""}","<img src=""stim_listB/argue5.gif""style=""height:400px;""></stim_listB>",is arguing with,
null,"<div style=""font-size:60px;"">+</div>",,html-keyboard-response,70,428702,0.0-13.0-0.5,95748,List1B,black,woman,,,,null,,,,
null,"<img src=""stim_listB/talk1.gif""style=""height:400px;""></stim_listB>",,html-keyboard-response,71,430705,0.0-13.0-1.5,95748,List1B,black,woman,,,,null,,,,
null,is talking to,,html-keyboard-response,72,432707,0.0-13.0-2.5,95748,List1B,black,woman,,,,null,,,,
6492,,,survey-text,73,439201,0.0-13.0-3.5,95748,List1B,black,woman,,,,,"{""Q0"":""kate and fred""}","<img src=""stim_listB/talk1.gif""style=""height:400px;""></stim_listB>",is talking to,
null,"<div style=""font-size:60px;"">+</div>",,html-keyboard-response,74,439703,0.0-13.0-0.6,95748,List1B,black,woman,,,,null,,,,
null,"<img src=""stim_listB/argue1.gif""style=""height:400px;""></stim_listB>",,html-keyboard-response,75,441706,0.0-13.0-1.6,95748,List1B,black,woman,,,,null,,,,
null,is arguing with,,html-keyboard-response,76,443708,0.0-13.0-2.6,95748,List1B,black,woman,,,,null,,,,
6956,,,survey-text,77,450666,0.0-13.0-3.6,95748,List1B,black,woman,,,,,"{""Q0"":""beth and mike""}","<img src=""stim_listB/argue1.gif""style=""height:400px;""></stim_listB>",is arguing with,
null,"<div style=""font-size:60px;"">+</div>",,html-keyboard-response,78,451168,0.0-13.0-0.7,95748,List1B,black,woman,,,,null,,,,
null,"<img src=""stim_listB/kiss5.gif""style=""height:400px;""></stim_listB>",,html-keyboard-response,79,453171,0.0-13.0-1.7,95748,List1B,black,woman,,,,null,,,,
null,is kissing,,html-keyboard-response,80,455173,0.0-13.0-2.7,95748,List1B,black,woman,,,,null,,,,
8457,,,survey-text,81,463633,0.0-13.0-3.7,95748,List1B,black,woman,,,,,"{""Q0"":""fred and luke""}","<img src=""stim_listB/kiss5.gif""style=""height:400px;""></stim_listB>",is kissing,
null,"<div style=""font-size:60px;"">+</div>",,html-keyboard-response,82,464135,0.0-13.0-0.8,95748,List1B,black,woman,,,,null,,,,
null,"<img src=""stim_listB/dance8.gif""style=""height:400px;""></stim_listB>",,html-keyboard-response,83,466139,0.0-13.0-1.8,95748,List1B,black,woman,,,,null,,,,
null,are dancing with each other,,html-keyboard-response,84,468141,0.0-13.0-2.8,95748,List1B,black,woman,,,,null,,,,
9341,,,survey-text,85,477484,0.0-13.0-3.8,95748,List1B,black,woman,,,,,"{""Q0"":""beth and ruth""}","<img src=""stim_listB/dance8.gif""style=""height:400px;""></stim_listB>",are dancing with each other,
null,"<div style=""font-size:60px;"">+</div>",,html-keyboard-response,86,477987,0.0-13.0-0.9,95748,List1B,black,woman,,,,null,,,,
null,"<img src=""stim_listB/fight2.gif""style=""height:400px;""></stim_listB>",,html-keyboard-response,87,479990,0.0-13.0-1.9,95748,List1B,black,woman,,,,null,,,,
null,are fighting each other,,html-keyboard-response,88,481993,0.0-13.0-2.9,95748,List1B,black,woman,,,,null,,,,
5674,,,survey-text,89,487669,0.0-13.0-3.9,95748,List1B,black,woman,,,,,"{""Q0"":""beth and fred""}","<img src=""stim_listB/fight2.gif""style=""height:400px;""></stim_listB>",are fighting each other,
null,"<div style=""font-size:60px;"">+</div>",,html-keyboard-response,90,488172,0.0-13.0-0.10,95748,List1B,black,woman,,,,null,,,,
null,"<img src=""stim_listB/marry2.gif""style=""height:400px;""></stim_listB>",,html-keyboard-response,91,490175,0.0-13.0-1.10,95748,List1B,black,woman,,,,null,,,,
null,are marrying each other,,html-keyboard-response,92,492178,0.0-13.0-2.10,95748,List1B,black,woman,,,,null,,,,
5730,,,survey-text,93,497909,0.0-13.0-3.10,95748,List1B,black,woman,,,,,"{""Q0"":""kate and fred""}","<img src=""stim_listB/marry2.gif""style=""height:400px;""></stim_listB>",are marrying each other,
null,"<div style=""font-size:60px;"">+</div>",,html-keyboard-response,94,498412,0.0-13.0-0.11,95748,List1B,black,woman,,,,null,,,,
null,"<img src=""stim_listB/talk8.gif""style=""height:400px;""></stim_listB>",,html-keyboard-response,95,500415,0.0-13.0-1.11,95748,List1B,black,woman,,,,null,,,,
null,are talking to each other,,html-keyboard-response,96,502418,0.0-13.0-2.11,95748,List1B,black,woman,,,,null,,,,
8418,,,survey-text,97,510838,0.0-13.0-3.11,95748,List1B,black,woman,,,,,"{""Q0"":""ruth and kate""}","<img src=""stim_listB/talk8.gif""style=""height:400px;""></stim_listB>",are talking to each other,
null,"<div style=""font-size:60px;"">+</div>",,html-keyboard-response,98,511341,0.0-13.0-0.12,95748,List1B,black,woman,,,,null,,,,
null,"<img src=""stim_listB/argue2.gif""style=""height:400px;""></stim_listB>",,html-keyboard-response,99,513345,0.0-13.0-1.12,95748,List1B,black,woman,,,,null,,,,
null,are arguing with each other,,html-keyboard-response,100,515348,0.0-13.0-2.12,95748,List1B,black,woman,,,,null,,,,
5486,,,survey-text,101,520836,0.0-13.0-3.12,95748,List1B,black,woman,,,,,"{""Q0"":""fred and kate""}","<img src=""stim_listB/argue2.gif""style=""height:400px;""></stim_listB>",are arguing with each other,
null,"<div style=""font-size:60px;"">+</div>",,html-keyboard-response,102,521338,0.0-13.0-0.13,95748,List1B,black,woman,,,,null,,,,
null,"<img src=""stim_listB/dance6.gif""style=""height:400px;""></stim_listB>",,html-keyboard-response,103,523340,0.0-13.0-1.13,95748,List1B,black,woman,,,,null,,,,
null,are dancing with each other,,html-keyboard-response,104,525342,0.0-13.0-2.13,95748,List1B,black,woman,,,,null,,,,
6806,,,survey-text,105,532149,0.0-13.0-3.13,95748,List1B,black,woman,,,,,"{""Q0"":""mike and luke""}","<img src=""stim_listB/dance6.gif""style=""height:400px;""></stim_listB>",are dancing with each other,
null,"<div style=""font-size:60px;"">+</div>",,html-keyboard-response,106,532652,0.0-13.0-0.14,95748,List1B,black,woman,,,,null,,,,
null,"<img src=""stim_listB/touch3.gif""style=""height:400px;""></stim_listB>",,html-keyboard-response,107,534656,0.0-13.0-1.14,95748,List1B,black,woman,,,,null,,,,
null,is touching,,html-keyboard-response,108,536658,0.0-13.0-2.14,95748,List1B,black,woman,,,,null,,,,
8164,,,survey-text,109,544823,0.0-13.0-3.14,95748,List1B,black,woman,,,,,"{""Q0"":""luke and ruth""}","<img src=""stim_listB/touch3.gif""style=""height:400px;""></stim_listB>",is touching,
null,"<div style=""font-size:60px;"">+</div>",,html-keyboard-response,110,545326,0.0-13.0-0.15,95748,List1B,black,woman,,,,null,,,,
null,"<img src=""stim_listB/kiss8.gif""style=""height:400px;""></stim_listB>",,html-keyboard-response,111,547330,0.0-13.0-1.15,95748,List1B,black,woman,,,,null,,,,
null,are kissing each other,,html-keyboard-response,112,549332,0.0-13.0-2.15,95748,List1B,black,woman,,,,null,,,,
8016,,,survey-text,113,557349,0.0-13.0-3.15,95748,List1B,black,woman,,,,,"{""Q0"":""ruth and kate ""}","<img src=""stim_listB/kiss8.gif""style=""height:400px;""></stim_listB>",are kissing each other,
null,"<div style=""font-size:60px;"">+</div>",,html-keyboard-response,114,557851,0.0-13.0-0.16,95748,List1B,black,woman,,,,null,,,,
null,"<img src=""stim_listB/argue8.gif""style=""height:400px;""></stim_listB>",,html-keyboard-response,115,559855,0.0-13.0-1.16,95748,List1B,black,woman,,,,null,,,,
null,are arguing with each other,,html-keyboard-response,116,561858,0.0-13.0-2.16,95748,List1B,black,woman,,,,null,,,,
6623,,,survey-text,117,568483,0.0-13.0-3.16,95748,List1B,black,woman,,,,,"{""Q0"":""beth and ruth ""}","<img src=""stim_listB/argue8.gif""style=""height:400px;""></stim_listB>",are arguing with each other,
null,"<div style=""font-size:60px;"">+</div>",,html-keyboard-response,118,568985,0.0-13.0-0.17,95748,List1B,black,woman,,,,null,,,,
null,"<img src=""stim_listB/argue4.gif""style=""height:400px;""></stim_listB>",,html-keyboard-response,119,570988,0.0-13.0-1.17,95748,List1B,black,woman,,,,null,,,,
null,are arguing with each other,,html-keyboard-response,120,572991,0.0-13.0-2.17,95748,List1B,black,woman,,,,null,,,,
8613,,,survey-text,121,581605,0.0-13.0-3.17,95748,List1B,black,woman,,,,,"{""Q0"":""ruth and luke""}","<img src=""stim_listB/argue4.gif""style=""height:400px;""></stim_listB>",are arguing with each other,
null,"<div style=""font-size:60px;"">+</div>",,html-keyboard-response,122,582108,0.0-13.0-0.18,95748,List1B,black,woman,,,,null,,,,
null,"<img src=""stim_listB/marry8.gif""style=""height:400px;""></stim_listB>",,html-keyboard-response,123,584112,0.0-13.0-1.18,95748,List1B,black,woman,,,,null,,,,
null,are marrying each other,,html-keyboard-response,124,586114,0.0-13.0-2.18,95748,List1B,black,woman,,,,null,,,,
6550,,,survey-text,125,592666,0.0-13.0-3.18,95748,List1B,black,woman,,,,,"{""Q0"":""beth and ruth ""}","<img src=""stim_listB/marry8.gif""style=""height:400px;""></stim_listB>",are marrying each other,
null,"<div style=""font-size:60px;"">+</div>",,html-keyboard-response,126,593169,0.0-13.0-0.19,95748,List1B,black,woman,,,,null,,,,
null,"<img src=""stim_listB/shout7.gif""style=""height:400px;""></stim_listB>",,html-keyboard-response,127,595173,0.0-13.0-1.19,95748,List1B,black,woman,,,,null,,,,
null,is shouting at,,html-keyboard-response,128,597176,0.0-13.0-2.19,95748,List1B,black,woman,,,,null,,,,
19932,,,survey-text,129,617110,0.0-13.0-3.19,95748,List1B,black,woman,,,,,"{""Q0"":""beth and ""}","<img src=""stim_listB/shout7.gif""style=""height:400px;""></stim_listB>",is shouting at,
13136,"<img src='img/portrait_matrix_list1.jpg' style='width:900px;height:500px;''></img><p>If you have memorised all the portraits and names and are ready to start, press Continue.</p><p><strong>Please note: Your memory of these faces will be tested 4 times during this experiment.</strong></p>",0,html-button-response,130,630247,0.0-14.0-0.0,95748,List1B,black,woman,,,,,,,,
3188,"<img src=""portrait/WM1.jpg""style=""height:400px;""></img>",6,html-button-response,131,634440,0.0-14.0-1.0,95748,List1B,black,woman,,TRUE,6,,,,,
null,CORRECT,,html-keyboard-response,132,635944,0.0-14.0-2.0-0.0,95748,List1B,black,woman,,,,null,,,,
5067,"<img src=""portrait/BW1.jpg""style=""height:400px;""></img>",0,html-button-response,133,641014,0.0-14.0-4.0,95748,List1B,black,woman,,TRUE,0,,,,,
null,CORRECT,,html-keyboard-response,134,642516,0.0-14.0-5.0-0.0,95748,List1B,black,woman,,,,null,,,,
2011,"<img src=""portrait/WM2.jpg""style=""height:400px;""></img>",7,html-button-response,135,644530,0.0-14.0-7.0,95748,List1B,black,woman,,TRUE,7,,,,,
null,CORRECT,,html-keyboard-response,136,646034,0.0-14.0-8.0-0.0,95748,List1B,black,woman,,,,null,,,,
2999,"<img src=""portrait/BM2.jpg""style=""height:400px;""></img>",5,html-button-response,137,649036,0.0-14.0-10.0,95748,List1B,black,woman,,TRUE,5,,,,,
null,CORRECT,,html-keyboard-response,138,650540,0.0-14.0-11.0-0.0,95748,List1B,black,woman,,,,null,,,,
2841,"<img src=""portrait/WW1.jpg""style=""height:400px;""></img>",1,html-button-response,139,653384,0.0-14.0-13.0,95748,List1B,black,woman,,TRUE,1,,,,,
null,CORRECT,,html-keyboard-response,140,654888,0.0-14.0-14.0-0.0,95748,List1B,black,woman,,,,null,,,,
1661,"<img src=""portrait/WW2.jpg""style=""height:400px;""></img>",3,html-button-response,141,656551,0.0-14.0-16.0,95748,List1B,black,woman,,TRUE,3,,,,,
null,CORRECT,,html-keyboard-response,142,658055,0.0-14.0-17.0-0.0,95748,List1B,black,woman,,,,null,,,,
3073,"<img src=""portrait/BW2.jpg""style=""height:400px;""></img>",2,html-button-response,143,661131,0.0-14.0-19.0,95748,List1B,black,woman,,TRUE,2,,,,,
null,CORRECT,,html-keyboard-response,144,662635,0.0-14.0-20.0-0.0,95748,List1B,black,woman,,,,null,,,,
3425,"<img src=""portrait/BM1.jpg""style=""height:400px;""></img>",4,html-button-response,145,666062,0.0-14.0-22.0,95748,List1B,black,woman,,TRUE,4,,,,,
null,CORRECT,,html-keyboard-response,146,667567,0.0-14.0-23.0-0.0,95748,List1B,black,woman,,,,null,,,,
1919,<p>You got 8 out of 8 right first time. Press Continue.</p>,0,html-button-response,147,669488,0.0-14.0-25.0,95748,List1B,black,woman,,,,,,,,
null,"<div style=""font-size:60px;"">+</div>",,html-keyboard-response,148,670992,0.0-15.0-0.0,95748,List1B,black,woman,,,,null,,,,
null,"<img src=""stim_listB/dance2.gif""style=""height:400px;""></stim_listB>",,html-keyboard-response,149,672995,0.0-15.0-1.0,95748,List1B,black,woman,,,,null,,,,
null,are dancing with each other,,html-keyboard-response,150,674997,0.0-15.0-2.0,95748,List1B,black,woman,,,,null,,,,
8804,,,survey-text,151,683803,0.0-15.0-3.0,95748,List1B,black,woman,,,,,"{""Q0"":""beth and mike""}","<img src=""stim_listB/dance2.gif""style=""height:400px;""></stim_listB>",are dancing with each other,
null,"<div style=""font-size:60px;"">+</div>",,html-keyboard-response,152,684306,0.0-15.0-0.1,95748,List1B,black,woman,,,,null,,,,
null,"<img src=""stim_listB/talk4.gif""style=""height:400px;""></stim_listB>",,html-keyboard-response,153,686309,0.0-15.0-1.1,95748,List1B,black,woman,,,,null,,,,
null,are talking to each other,,html-keyboard-response,154,688311,0.0-15.0-2.1,95748,List1B,black,woman,,,,null,,,,
11929,,,survey-text,155,700242,0.0-15.0-3.1,95748,List1B,black,woman,,,,,"{""Q0"":""jane and luke""}","<img src=""stim_listB/talk4.gif""style=""height:400px;""></stim_listB>",are talking to each other,
null,"<div style=""font-size:60px;"">+</div>",,html-keyboard-response,156,700744,0.0-15.0-0.2,95748,List1B,black,woman,,,,null,,,,
null,"<img src=""stim_listB/flirt5.gif""style=""height:400px;""></stim_listB>",,html-keyboard-response,157,702747,0.0-15.0-1.2,95748,List1B,black,woman,,,,null,,,,
null,is flirting with,,html-keyboard-response,158,704749,0.0-15.0-2.2,95748,List1B,black,woman,,,,null,,,,
10503,,,survey-text,159,715253,0.0-15.0-3.2,95748,List1B,black,woman,,,,,"{""Q0"":""fred and dave""}","<img src=""stim_listB/flirt5.gif""style=""height:400px;""></stim_listB>",is flirting with,
null,"<div style=""font-size:60px;"">+</div>",,html-keyboard-response,160,715755,0.0-15.0-0.3,95748,List1B,black,woman,,,,null,,,,
null,"<img src=""stim_listB/fight7.gif""style=""height:400px;""></stim_listB>",,html-keyboard-response,161,717759,0.0-15.0-1.3,95748,List1B,black,woman,,,,null,,,,
null,is fighting,,html-keyboard-response,162,719760,0.0-15.0-2.3,95748,List1B,black,woman,,,,null,,,,
11223,,,survey-text,163,730985,0.0-15.0-3.3,95748,List1B,black,woman,,,,,"{""Q0"":""kate and ruth""}","<img src=""stim_listB/fight7.gif""style=""height:400px;""></stim_listB>",is fighting,
null,"<div style=""font-size:60px;"">+</div>",,html-keyboard-response,164,731487,0.0-15.0-0.4,95748,List1B,black,woman,,,,null,,,,
null,"<img src=""stim_listB/shout1.gif""style=""height:400px;""></stim_listB>",,html-keyboard-response,165,733489,0.0-15.0-1.4,95748,List1B,black,woman,,,,null,,,,
null,is shouting at,,html-keyboard-response,166,735490,0.0-15.0-2.4,95748,List1B,black,woman,,,,null,,,,
5382,,,survey-text,167,740873,0.0-15.0-3.4,95748,List1B,black,woman,,,,,"{""Q0"":""fred and beth""}","<img src=""stim_listB/shout1.gif""style=""height:400px;""></stim_listB>",is shouting at,
null,"<div style=""font-size:60px;"">+</div>",,html-keyboard-response,168,741376,0.0-15.0-0.5,95748,List1B,black,woman,,,,null,,,,
null,"<img src=""stim_listB/argue3.gif""style=""height:400px;""></stim_listB>",,html-keyboard-response,169,743379,0.0-15.0-1.5,95748,List1B,black,woman,,,,null,,,,
null,is arguing with,,html-keyboard-response,170,745381,0.0-15.0-2.5,95748,List1B,black,woman,,,,null,,,,
8068,,,survey-text,171,753451,0.0-15.0-3.5,95748,List1B,black,woman,,,,,"{""Q0"":""dave and jane""}","<img src=""stim_listB/argue3.gif""style=""height:400px;""></stim_listB>",is arguing with,
null,"<div style=""font-size:60px;"">+</div>",,html-keyboard-response,172,753954,0.0-15.0-0.6,95748,List1B,black,woman,,,,null,,,,
null,"<img src=""stim_listB/play2.gif""style=""height:400px;""></stim_listB>",,html-keyboard-response,173,755957,0.0-15.0-1.6,95748,List1B,black,woman,,,,null,,,,
null,are playing with each other,,html-keyboard-response,174,757959,0.0-15.0-2.6,95748,List1B,black,woman,,,,null,,,,
5267,,,survey-text,175,763228,0.0-15.0-3.6,95748,List1B,black,woman,,,,,"{""Q0"":""fred and beth""}","<img src=""stim_listB/play2.gif""style=""height:400px;""></stim_listB>",are playing with each other,
null,"<div style=""font-size:60px;"">+</div>",,html-keyboard-response,176,763731,0.0-15.0-0.7,95748,List1B,black,woman,,,,null,,,,
null,"<img src=""stim_listB/argue7.gif""style=""height:400px;""></stim_listB>",,html-keyboard-response,177,765735,0.0-15.0-1.7,95748,List1B,black,woman,,,,null,,,,
null,is arguing with,,html-keyboard-response,178,767738,0.0-15.0-2.7,95748,List1B,black,woman,,,,null,,,,
13199,,,survey-text,179,780937,0.0-15.0-3.7,95748,List1B,black,woman,,,,,"{""Q0"":""kate and ruth""}","<img src=""stim_listB/argue7.gif""style=""height:400px;""></stim_listB>",is arguing with,
null,"<div style=""font-size:60px;"">+</div>",,html-keyboard-response,180,781440,0.0-15.0-0.8,95748,List1B,black,woman,,,,null,,,,
null,"<img src=""stim_listB/touch2.gif""style=""height:400px;""></stim_listB>",,html-keyboard-response,181,783443,0.0-15.0-1.8,95748,List1B,black,woman,,,,null,,,,
null,are touching each other,,html-keyboard-response,182,785445,0.0-15.0-2.8,95748,List1B,black,woman,,,,null,,,,
5499,,,survey-text,183,790946,0.0-15.0-3.8,95748,List1B,black,woman,,,,,"{""Q0"":""fred and beth""}","<img src=""stim_listB/touch2.gif""style=""height:400px;""></stim_listB>",are touching each other,
null,"<div style=""font-size:60px;"">+</div>",,html-keyboard-response,184,791448,0.0-15.0-0.9,95748,List1B,black,woman,,,,null,,,,
null,"<img src=""stim_listB/fight3.gif""style=""height:400px;""></stim_listB>",,html-keyboard-response,185,793451,0.0-15.0-1.9,95748,List1B,black,woman,,,,null,,,,
null,is fighting,,html-keyboard-response,186,795453,0.0-15.0-2.9,95748,List1B,black,woman,,,,null,,,,
10070,,,survey-text,187,805525,0.0-15.0-3.9,95748,List1B,black,woman,,,,,"{""Q0"":""dave and jane""}","<img src=""stim_listB/fight3.gif""style=""height:400px;""></stim_listB>",is fighting,
null,"<div style=""font-size:60px;"">+</div>",,html-keyboard-response,188,806028,0.0-15.0-0.10,95748,List1B,black,woman,,,,null,,,,
null,"<img src=""stim_listB/dance3.gif""style=""height:400px;""></stim_listB>",,html-keyboard-response,189,808031,0.0-15.0-1.10,95748,List1B,black,woman,,,,null,,,,
null,is dancing with,,html-keyboard-response,190,810034,0.0-15.0-2.10,95748,List1B,black,woman,,,,null,,,,
8729,,,survey-text,191,818765,0.0-15.0-3.10,95748,List1B,black,woman,,,,,"{""Q0"":""luke and ruth""}","<img src=""stim_listB/dance3.gif""style=""height:400px;""></stim_listB>",is dancing with,
null,"<div style=""font-size:60px;"">+</div>",,html-keyboard-response,192,819268,0.0-15.0-0.11,95748,List1B,black,woman,,,,null,,,,
null,"<img src=""stim_listB/flirt1.gif""style=""height:400px;""></stim_listB>",,html-keyboard-response,193,821270,0.0-15.0-1.11,95748,List1B,black,woman,,,,null,,,,
null,is flirting with,,html-keyboard-response,194,823272,0.0-15.0-2.11,95748,List1B,black,woman,,,,null,,,,
6236,,,survey-text,195,829509,0.0-15.0-3.11,95748,List1B,black,woman,,,,,"{""Q0"":""kate and fred""}","<img src=""stim_listB/flirt1.gif""style=""height:400px;""></stim_listB>",is flirting with,
null,"<div style=""font-size:60px;"">+</div>",,html-keyboard-response,196,830012,0.0-15.0-0.12,95748,List1B,black,woman,,,,null,,,,
null,"<img src=""stim_listB/touch1.gif""style=""height:400px;""></stim_listB>",,html-keyboard-response,197,832015,0.0-15.0-1.12,95748,List1B,black,woman,,,,null,,,,
null,is touching,,html-keyboard-response,198,834017,0.0-15.0-2.12,95748,List1B,black,woman,,,,null,,,,
8481,,,survey-text,199,842500,0.0-15.0-3.12,95748,List1B,black,woman,,,,,"{""Q0"":""kate and mike""}","<img src=""stim_listB/touch1.gif""style=""height:400px;""></stim_listB>",is touching,
null,"<div style=""font-size:60px;"">+</div>",,html-keyboard-response,200,843002,0.0-15.0-0.13,95748,List1B,black,woman,,,,null,,,,
null,"<img src=""stim_listB/kiss6.gif""style=""height:400px;""></stim_listB>",,html-keyboard-response,201,845005,0.0-15.0-1.13,95748,List1B,black,woman,,,,null,,,,
null,are kissing each other,,html-keyboard-response,202,847007,0.0-15.0-2.13,95748,List1B,black,woman,,,,null,,,,
6407,,,survey-text,203,853416,0.0-15.0-3.13,95748,List1B,black,woman,,,,,"{""Q0"":""dave and mike""}","<img src=""stim_listB/kiss6.gif""style=""height:400px;""></stim_listB>",are kissing each other,
null,"<div style=""font-size:60px;"">+</div>",,html-keyboard-response,204,853919,0.0-15.0-0.14,95748,List1B,black,woman,,,,null,,,,
null,"<img src=""stim_listB/play1.gif""style=""height:400px;""></stim_listB>",,html-keyboard-response,205,855923,0.0-15.0-1.14,95748,List1B,black,woman,,,,null,,,,
null,is playing with,,html-keyboard-response,206,857925,0.0-15.0-2.14,95748,List1B,black,woman,,,,null,,,,
7991,,,survey-text,207,865918,0.0-15.0-3.14,95748,List1B,black,woman,,,,,"{""Q0"":""katie and mike""}","<img src=""stim_listB/play1.gif""style=""height:400px;""></stim_listB>",is playing with,
null,"<div style=""font-size:60px;"">+</div>",,html-keyboard-response,208,866420,0.0-15.0-0.15,95748,List1B,black,woman,,,,null,,,,
null,"<img src=""stim_listB/touch8.gif""style=""height:400px;""></stim_listB>",,html-keyboard-response,209,868423,0.0-15.0-1.15,95748,List1B,black,woman,,,,null,,,,
null,are touching each other,,html-keyboard-response,210,870425,0.0-15.0-2.15,95748,List1B,black,woman,,,,null,,,,
7651,,,survey-text,211,878079,0.0-15.0-3.15,95748,List1B,black,woman,,,,,"{""Q0"":""beth and jane""}","<img src=""stim_listB/touch8.gif""style=""height:400px;""></stim_listB>",are touching each other,
null,"<div style=""font-size:60px;"">+</div>",,html-keyboard-response,212,878581,0.0-15.0-0.16,95748,List1B,black,woman,,,,null,,,,
null,"<img src=""stim_listB/kiss1.gif""style=""height:400px;""></stim_listB>",,html-keyboard-response,213,880584,0.0-15.0-1.16,95748,List1B,black,woman,,,,null,,,,
null,is kissing,,html-keyboard-response,214,882586,0.0-15.0-2.16,95748,List1B,black,woman,,,,null,,,,
7248,,,survey-text,215,889836,0.0-15.0-3.16,95748,List1B,black,woman,,,,,"{""Q0"":""fred and beth""}","<img src=""stim_listB/kiss1.gif""style=""height:400px;""></stim_listB>",is kissing,
null,"<div style=""font-size:60px;"">+</div>",,html-keyboard-response,216,890339,0.0-15.0-0.17,95748,List1B,black,woman,,,,null,,,,
null,"<img src=""stim_listB/touch6.gif""style=""height:400px;""></stim_listB>",,html-keyboard-response,217,892342,0.0-15.0-1.17,95748,List1B,black,woman,,,,null,,,,
null,are touching each other,,html-keyboard-response,218,894344,0.0-15.0-2.17,95748,List1B,black,woman,,,,null,,,,
6735,,,survey-text,219,901081,0.0-15.0-3.17,95748,List1B,black,woman,,,,,"{""Q0"":""fred and luke""}","<img src=""stim_listB/touch6.gif""style=""height:400px;""></stim_listB>",are touching each other,
null,"<div style=""font-size:60px;"">+</div>",,html-keyboard-response,220,901583,0.0-15.0-0.18,95748,List1B,black,woman,,,,null,,,,
null,"<img src=""stim_listB/flirt3.gif""style=""height:400px;""></stim_listB>",,html-keyboard-response,221,903586,0.0-15.0-1.18,95748,List1B,black,woman,,,,null,,,,
null,is flirting with,,html-keyboard-response,222,905589,0.0-15.0-2.18,95748,List1B,black,woman,,,,null,,,,
8885,,,survey-text,223,914476,0.0-15.0-3.18,95748,List1B,black,woman,,,,,"{""Q0"":""ruth and luke""}","<img src=""stim_listB/flirt3.gif""style=""height:400px;""></stim_listB>",is flirting with,
null,"<div style=""font-size:60px;"">+</div>",,html-keyboard-response,224,914978,0.0-15.0-0.19,95748,List1B,black,woman,,,,null,,,,
null,"<img src=""stim_listB/fight4.gif""style=""height:400px;""></stim_listB>",,html-keyboard-response,225,916982,0.0-15.0-1.19,95748,List1B,black,woman,,,,null,,,,
null,are fighting each other,,html-keyboard-response,226,918985,0.0-15.0-2.19,95748,List1B,black,woman,,,,null,,,,
12489,,,survey-text,227,931475,0.0-15.0-3.19,95748,List1B,black,woman,,,,,"{""Q0"":""jane and luke""}","<img src=""stim_listB/fight4.gif""style=""height:400px;""></stim_listB>",are fighting each other,
29329,"<img src='img/portrait_matrix_list1.jpg' style='width:900px;height:500px;''></img><p>If you have memorised all the portraits and names and are ready to start, press Continue.</p><p><strong>Please note: Your memory of these faces will be tested 4 times during this experiment.</strong></p>",0,html-button-response,228,960806,0.0-16.0-0.0,95748,List1B,black,woman,,,,,,,,
4466,"<img src=""portrait/WM2.jpg""style=""height:400px;""></img>",7,html-button-response,229,966276,0.0-16.0-1.0,95748,List1B,black,woman,,TRUE,7,,,,,
null,CORRECT,,html-keyboard-response,230,967780,0.0-16.0-2.0-0.0,95748,List1B,black,woman,,,,null,,,,
2206,"<img src=""portrait/WM1.jpg""style=""height:400px;""></img>",6,html-button-response,231,969989,0.0-16.0-4.0,95748,List1B,black,woman,,TRUE,6,,,,,
null,CORRECT,,html-keyboard-response,232,971493,0.0-16.0-5.0-0.0,95748,List1B,black,woman,,,,null,,,,
1858,"<img src=""portrait/BM2.jpg""style=""height:400px;""></img>",5,html-button-response,233,973353,0.0-16.0-7.0,95748,List1B,black,woman,,TRUE,5,,,,,
null,CORRECT,,html-keyboard-response,234,974858,0.0-16.0-8.0-0.0,95748,List1B,black,woman,,,,null,,,,
2899,"<img src=""portrait/WW1.jpg""style=""height:400px;""></img>",1,html-button-response,235,977759,0.0-16.0-10.0,95748,List1B,black,woman,,TRUE,1,,,,,
null,CORRECT,,html-keyboard-response,236,979265,0.0-16.0-11.0-0.0,95748,List1B,black,woman,,,,null,,,,
2306,"<img src=""portrait/BM1.jpg""style=""height:400px;""></img>",4,html-button-response,237,981573,0.0-16.0-13.0,95748,List1B,black,woman,,TRUE,4,,,,,
null,CORRECT,,html-keyboard-response,238,983078,0.0-16.0-14.0-0.0,95748,List1B,black,woman,,,,null,,,,
3671,"<img src=""portrait/BW1.jpg""style=""height:400px;""></img>",0,html-button-response,239,986751,0.0-16.0-16.0,95748,List1B,black,woman,,TRUE,0,,,,,
null,CORRECT,,html-keyboard-response,240,988255,0.0-16.0-17.0-0.0,95748,List1B,black,woman,,,,null,,,,
1434,"<img src=""portrait/BW2.jpg""style=""height:400px;""></img>",2,html-button-response,241,989692,0.0-16.0-19.0,95748,List1B,black,woman,,TRUE,2,,,,,
null,CORRECT,,html-keyboard-response,242,991196,0.0-16.0-20.0-0.0,95748,List1B,black,woman,,,,null,,,,
2621,"<img src=""portrait/WW2.jpg""style=""height:400px;""></img>",3,html-button-response,243,993819,0.0-16.0-22.0,95748,List1B,black,woman,,TRUE,3,,,,,
null,CORRECT,,html-keyboard-response,244,995323,0.0-16.0-23.0-0.0,95748,List1B,black,woman,,,,null,,,,
1578,<p>You got 8 out of 8 right first time. Press Continue.</p>,0,html-button-response,245,996903,0.0-16.0-25.0,95748,List1B,black,woman,,,,,,,,
null,"<div style=""font-size:60px;"">+</div>",,html-keyboard-response,246,998408,0.0-17.0-0.0,95748,List1B,black,woman,,,,null,,,,
null,"<img src=""stim_listB/marry7.gif""style=""height:400px;""></stim_listB>",,html-keyboard-response,247,1000412,0.0-17.0-1.0,95748,List1B,black,woman,,,,null,,,,
null,is marrying,,html-keyboard-response,248,1002414,0.0-17.0-2.0,95748,List1B,black,woman,,,,null,,,,
15047,,,survey-text,249,1017462,0.0-17.0-3.0,95748,List1B,black,woman,,,,,"{""Q0"":""jane and katie""}","<img src=""stim_listB/marry7.gif""style=""height:400px;""></stim_listB>",is marrying,
null,"<div style=""font-size:60px;"">+</div>",,html-keyboard-response,250,1017965,0.0-17.0-0.1,95748,List1B,black,woman,,,,null,,,,
null,"<img src=""stim_listB/touch4.gif""style=""height:400px;""></stim_listB>",,html-keyboard-response,251,1019968,0.0-17.0-1.1,95748,List1B,black,woman,,,,null,,,,
null,are touching each other,,html-keyboard-response,252,1021971,0.0-17.0-2.1,95748,List1B,black,woman,,,,null,,,,
16552,,,survey-text,253,1038524,0.0-17.0-3.1,95748,List1B,black,woman,,,,,"{""Q0"":""luke and jane""}","<img src=""stim_listB/touch4.gif""style=""height:400px;""></stim_listB>",are touching each other,
null,"<div style=""font-size:60px;"">+</div>",,html-keyboard-response,254,1039026,0.0-17.0-0.2,95748,List1B,black,woman,,,,null,,,,
null,"<img src=""stim_listB/talk7.gif""style=""height:400px;""></stim_listB>",,html-keyboard-response,255,1041030,0.0-17.0-1.2,95748,List1B,black,woman,,,,null,,,,
null,is talking to,,html-keyboard-response,256,1043032,0.0-17.0-2.2,95748,List1B,black,woman,,,,null,,,,
5654,,,survey-text,257,1048688,0.0-17.0-3.2,95748,List1B,black,woman,,,,,"{""Q0"":""jane and beth""}","<img src=""stim_listB/talk7.gif""style=""height:400px;""></stim_listB>",is talking to,
null,"<div style=""font-size:60px;"">+</div>",,html-keyboard-response,258,1049191,0.0-17.0-0.3,95748,List1B,black,woman,,,,null,,,,
null,"<img src=""stim_listB/fight8.gif""style=""height:400px;""></stim_listB>",,html-keyboard-response,259,1051194,0.0-17.0-1.3,95748,List1B,black,woman,,,,null,,,,
null,are fighting each other,,html-keyboard-response,260,1053196,0.0-17.0-2.3,95748,List1B,black,woman,,,,null,,,,
8765,,,survey-text,261,1061963,0.0-17.0-3.3,95748,List1B,black,woman,,,,,"{""Q0"":""beth and ruth""}","<img src=""stim_listB/fight8.gif""style=""height:400px;""></stim_listB>",are fighting each other,
null,"<div style=""font-size:60px;"">+</div>",,html-keyboard-response,262,1062465,0.0-17.0-0.4,95748,List1B,black,woman,,,,null,,,,
null,"<img src=""stim_listB/flirt6.gif""style=""height:400px;""></stim_listB>",,html-keyboard-response,263,1064468,0.0-17.0-1.4,95748,List1B,black,woman,,,,null,,,,
null,are flirting with each other,,html-keyboard-response,264,1066471,0.0-17.0-2.4,95748,List1B,black,woman,,,,null,,,,
6997,,,survey-text,265,1073470,0.0-17.0-3.4,95748,List1B,black,woman,,,,,"{""Q0"":""luke and mike""}","<img src=""stim_listB/flirt6.gif""style=""height:400px;""></stim_listB>",are flirting with each other,
null,"<div style=""font-size:60px;"">+</div>",,html-keyboard-response,266,1073972,0.0-17.0-0.5,95748,List1B,black,woman,,,,null,,,,
null,"<img src=""stim_listB/talk6.gif""style=""height:400px;""></stim_listB>",,html-keyboard-response,267,1075976,0.0-17.0-1.5,95748,List1B,black,woman,,,,null,,,,
null,are talking to each other,,html-keyboard-response,268,1077979,0.0-17.0-2.5,95748,List1B,black,woman,,,,null,,,,
6302,,,survey-text,269,1084283,0.0-17.0-3.5,95748,List1B,black,woman,,,,,"{""Q0"":""luke and mike""}","<img src=""stim_listB/talk6.gif""style=""height:400px;""></stim_listB>",are talking to each other,
null,"<div style=""font-size:60px;"">+</div>",,html-keyboard-response,270,1084785,0.0-17.0-0.6,95748,List1B,black,woman,,,,null,,,,
null,"<img src=""stim_listB/dance1.gif""style=""height:400px;""></stim_listB>",,html-keyboard-response,271,1086788,0.0-17.0-1.6,95748,List1B,black,woman,,,,null,,,,
null,is dancing with,,html-keyboard-response,272,1088790,0.0-17.0-2.6,95748,List1B,black,woman,,,,null,,,,
7334,,,survey-text,273,1096126,0.0-17.0-3.6,95748,List1B,black,woman,,,,,"{""Q0"":""katie and fred""}","<img src=""stim_listB/dance1.gif""style=""height:400px;""></stim_listB>",is dancing with,
null,"<div style=""font-size:60px;"">+</div>",,html-keyboard-response,274,1096628,0.0-17.0-0.7,95748,List1B,black,woman,,,,null,,,,
null,"<img src=""stim_listB/talk2.gif""style=""height:400px;""></stim_listB>",,html-keyboard-response,275,1098631,0.0-17.0-1.7,95748,List1B,black,woman,,,,null,,,,
null,are talking to each other,,html-keyboard-response,276,1100634,0.0-17.0-2.7,95748,List1B,black,woman,,,,null,,,,
5603,,,survey-text,277,1106240,0.0-17.0-3.7,95748,List1B,black,woman,,,,,"{""Q0"":""beth and mike""}","<img src=""stim_listB/talk2.gif""style=""height:400px;""></stim_listB>",are talking to each other,
null,"<div style=""font-size:60px;"">+</div>",,html-keyboard-response,278,1106743,0.0-17.0-0.8,95748,List1B,black,woman,,,,null,,,,
null,"<img src=""stim_listB/talk3.gif""style=""height:400px;""></stim_listB>",,html-keyboard-response,279,1108747,0.0-17.0-1.8,95748,List1B,black,woman,,,,null,,,,
null,is talking to,,html-keyboard-response,280,1110750,0.0-17.0-2.8,95748,List1B,black,woman,,,,null,,,,
5886,,,survey-text,281,1116638,0.0-17.0-3.8,95748,List1B,black,woman,,,,,"{""Q0"":""jane and luke""}","<img src=""stim_listB/talk3.gif""style=""height:400px;""></stim_listB>",is talking to,
null,"<div style=""font-size:60px;"">+</div>",,html-keyboard-response,282,1117142,0.0-17.0-0.9,95748,List1B,black,woman,,,,null,,,,
null,"<img src=""stim_listB/kiss7.gif""style=""height:400px;""></stim_listB>",,html-keyboard-response,283,1119145,0.0-17.0-1.9,95748,List1B,black,woman,,,,null,,,,
null,is kissing,,html-keyboard-response,284,1121147,0.0-17.0-2.9,95748,List1B,black,woman,,,,null,,,,
5067,,,survey-text,285,1126216,0.0-17.0-3.9,95748,List1B,black,woman,,,,,"{""Q0"":""ruth and beth""}","<img src=""stim_listB/kiss7.gif""style=""height:400px;""></stim_listB>",is kissing,
null,"<div style=""font-size:60px;"">+</div>",,html-keyboard-response,286,1126718,0.0-17.0-0.10,95748,List1B,black,woman,,,,null,,,,
null,"<img src=""stim_listB/play6.gif""style=""height:400px;""></stim_listB>",,html-keyboard-response,287,1128722,0.0-17.0-1.10,95748,List1B,black,woman,,,,null,,,,
null,are playing with each other,,html-keyboard-response,288,1130724,0.0-17.0-2.10,95748,List1B,black,woman,,,,null,,,,
6696,,,survey-text,289,1137421,0.0-17.0-3.10,95748,List1B,black,woman,,,,,"{""Q0"":""fred and luke""}","<img src=""stim_listB/play6.gif""style=""height:400px;""></stim_listB>",are playing with each other,
null,"<div style=""font-size:60px;"">+</div>",,html-keyboard-response,290,1137924,0.0-17.0-0.11,95748,List1B,black,woman,,,,null,,,,
null,"<img src=""stim_listB/flirt4.gif""style=""height:400px;""></stim_listB>",,html-keyboard-response,291,1139928,0.0-17.0-1.11,95748,List1B,black,woman,,,,null,,,,
null,are flirting with each other,,html-keyboard-response,292,1141931,0.0-17.0-2.11,95748,List1B,black,woman,,,,null,,,,
7994,,,survey-text,293,1149926,0.0-17.0-3.11,95748,List1B,black,woman,,,,,"{""Q0"":""dave and ruth""}","<img src=""stim_listB/flirt4.gif""style=""height:400px;""></stim_listB>",are flirting with each other,
null,"<div style=""font-size:60px;"">+</div>",,html-keyboard-response,294,1150428,0.0-17.0-0.12,95748,List1B,black,woman,,,,null,,,,
null,"<img src=""stim_listB/shout4.gif""style=""height:400px;""></stim_listB>",,html-keyboard-response,295,1152432,0.0-17.0-1.12,95748,List1B,black,woman,,,,null,,,,
null,are shouting at each other,,html-keyboard-response,296,1154433,0.0-17.0-2.12,95748,List1B,black,woman,,,,null,,,,
5603,,,survey-text,297,1160037,0.0-17.0-3.12,95748,List1B,black,woman,,,,,"{""Q0"":""dave and jane""}","<img src=""stim_listB/shout4.gif""style=""height:400px;""></stim_listB>",are shouting at each other,
null,"<div style=""font-size:60px;"">+</div>",,html-keyboard-response,298,1160540,0.0-17.0-0.13,95748,List1B,black,woman,,,,null,,,,
null,"<img src=""stim_listB/play5.gif""style=""height:400px;""></stim_listB>",,html-keyboard-response,299,1162543,0.0-17.0-1.13,95748,List1B,black,woman,,,,null,,,,
null,is playing with,,html-keyboard-response,300,1164546,0.0-17.0-2.13,95748,List1B,black,woman,,,,null,,,,
5541,,,survey-text,301,1170089,0.0-17.0-3.13,95748,List1B,black,woman,,,,,"{""Q0"":""dave and mike""}","<img src=""stim_listB/play5.gif""style=""height:400px;""></stim_listB>",is playing with,
null,"<div style=""font-size:60px;"">+</div>",,html-keyboard-response,302,1170592,0.0-17.0-0.14,95748,List1B,black,woman,,,,null,,,,
null,"<img src=""stim_listB/flirt2.gif""style=""height:400px;""></stim_listB>",,html-keyboard-response,303,1172596,0.0-17.0-1.14,95748,List1B,black,woman,,,,null,,,,
null,are flirting with each other,,html-keyboard-response,304,1174598,0.0-17.0-2.14,95748,List1B,black,woman,,,,null,,,,
5076,,,survey-text,305,1179676,0.0-17.0-3.14,95748,List1B,black,woman,,,,,"{""Q0"":""mike and beth""}","<img src=""stim_listB/flirt2.gif""style=""height:400px;""></stim_listB>",are flirting with each other,
null,"<div style=""font-size:60px;"">+</div>",,html-keyboard-response,306,1180179,0.0-17.0-0.15,95748,List1B,black,woman,,,,null,,,,
null,"<img src=""stim_listB/play3.gif""style=""height:400px;""></stim_listB>",,html-keyboard-response,307,1182184,0.0-17.0-1.15,95748,List1B,black,woman,,,,null,,,,
null,is playing with,,html-keyboard-response,308,1184186,0.0-17.0-2.15,95748,List1B,black,woman,,,,null,,,,
6067,,,survey-text,309,1190253,0.0-17.0-3.15,95748,List1B,black,woman,,,,,"{""Q0"":""ruth and dave ""}","<img src=""stim_listB/play3.gif""style=""height:400px;""></stim_listB>",is playing with,
null,"<div style=""font-size:60px;"">+</div>",,html-keyboard-response,310,1190756,0.0-17.0-0.16,95748,List1B,black,woman,,,,null,,,,
null,"<img src=""stim_listB/flirt7.gif""style=""height:400px;""></stim_listB>",,html-keyboard-response,311,1192760,0.0-17.0-1.16,95748,List1B,black,woman,,,,null,,,,
null,is flirting with,,html-keyboard-response,312,1194762,0.0-17.0-2.16,95748,List1B,black,woman,,,,null,,,,
7168,,,survey-text,313,1201932,0.0-17.0-3.16,95748,List1B,black,woman,,,,,"{""Q0"":""ruth and beth""}","<img src=""stim_listB/flirt7.gif""style=""height:400px;""></stim_listB>",is flirting with,
null,"<div style=""font-size:60px;"">+</div>",,html-keyboard-response,314,1202435,0.0-17.0-0.17,95748,List1B,black,woman,,,,null,,,,
null,"<img src=""stim_listB/talk5.gif""style=""height:400px;""></stim_listB>",,html-keyboard-response,315,1204439,0.0-17.0-1.17,95748,List1B,black,woman,,,,null,,,,
null,is talking to,,html-keyboard-response,316,1206441,0.0-17.0-2.17,95748,List1B,black,woman,,,,null,,,,
6630,,,survey-text,317,1213072,0.0-17.0-3.17,95748,List1B,black,woman,,,,,"{""Q0"":""dave and fred""}","<img src=""stim_listB/talk5.gif""style=""height:400px;""></stim_listB>",is talking to,
null,"<div style=""font-size:60px;"">+</div>",,html-keyboard-response,318,1213574,0.0-17.0-0.18,95748,List1B,black,woman,,,,null,,,,
null,"<img src=""stim_listB/marry4.gif""style=""height:400px;""></stim_listB>",,html-keyboard-response,319,1215578,0.0-17.0-1.18,95748,List1B,black,woman,,,,null,,,,
null,are marrying each other,,html-keyboard-response,320,1217580,0.0-17.0-2.18,95748,List1B,black,woman,,,,null,,,,
6393,,,survey-text,321,1223975,0.0-17.0-3.18,95748,List1B,black,woman,,,,,"{""Q0"":""ruth and luke""}","<img src=""stim_listB/marry4.gif""style=""height:400px;""></stim_listB>",are marrying each other,
null,"<div style=""font-size:60px;"">+</div>",,html-keyboard-response,322,1224477,0.0-17.0-0.19,95748,List1B,black,woman,,,,null,,,,
null,"<img src=""stim_listB/kiss2.gif""style=""height:400px;""></stim_listB>",,html-keyboard-response,323,1226480,0.0-17.0-1.19,95748,List1B,black,woman,,,,null,,,,
null,are kissing each other,,html-keyboard-response,324,1228483,0.0-17.0-2.19,95748,List1B,black,woman,,,,null,,,,
9238,,,survey-text,325,1237723,0.0-17.0-3.19,95748,List1B,black,woman,,,,,"{""Q0"":""katie and mike""}","<img src=""stim_listB/kiss2.gif""style=""height:400px;""></stim_listB>",are kissing each other,
23099,"<img src='img/portrait_matrix_list1.jpg' style='width:900px;height:500px;''></img><p>If you have memorised all the portraits and names and are ready to start, press Continue.</p><p><strong>Please note: Your memory of these faces will be tested 4 times during this experiment.</strong></p>",0,html-button-response,326,1260824,0.0-18.0-0.0,95748,List1B,black,woman,,,,,,,,
2666,"<img src=""portrait/BW2.jpg""style=""height:400px;""></img>",2,html-button-response,327,1264493,0.0-18.0-1.0,95748,List1B,black,woman,,TRUE,2,,,,,
null,CORRECT,,html-keyboard-response,328,1265997,0.0-18.0-2.0-0.0,95748,List1B,black,woman,,,,null,,,,
1728,"<img src=""portrait/WW2.jpg""style=""height:400px;""></img>",3,html-button-response,329,1267727,0.0-18.0-4.0,95748,List1B,black,woman,,TRUE,3,,,,,
null,CORRECT,,html-keyboard-response,330,1269232,0.0-18.0-5.0-0.0,95748,List1B,black,woman,,,,null,,,,
3013,"<img src=""portrait/BW1.jpg""style=""height:400px;""></img>",0,html-button-response,331,1272247,0.0-18.0-7.0,95748,List1B,black,woman,,TRUE,0,,,,,
null,CORRECT,,html-keyboard-response,332,1273750,0.0-18.0-8.0-0.0,95748,List1B,black,woman,,,,null,,,,
2123,"<img src=""portrait/WM2.jpg""style=""height:400px;""></img>",7,html-button-response,333,1275876,0.0-18.0-10.0,95748,List1B,black,woman,,TRUE,7,,,,,
null,CORRECT,,html-keyboard-response,334,1277380,0.0-18.0-11.0-0.0,95748,List1B,black,woman,,,,null,,,,
1849,"<img src=""portrait/WW1.jpg""style=""height:400px;""></img>",1,html-button-response,335,1279231,0.0-18.0-13.0,95748,List1B,black,woman,,TRUE,1,,,,,
null,CORRECT,,html-keyboard-response,336,1280734,0.0-18.0-14.0-0.0,95748,List1B,black,woman,,,,null,,,,
1566,"<img src=""portrait/BM2.jpg""style=""height:400px;""></img>",5,html-button-response,337,1282303,0.0-18.0-16.0,95748,List1B,black,woman,,TRUE,5,,,,,
null,CORRECT,,html-keyboard-response,338,1283806,0.0-18.0-17.0-0.0,95748,List1B,black,woman,,,,null,,,,
2559,"<img src=""portrait/WM1.jpg""style=""height:400px;""></img>",6,html-button-response,339,1286367,0.0-18.0-19.0,95748,List1B,black,woman,,TRUE,6,,,,,
null,CORRECT,,html-keyboard-response,340,1287870,0.0-18.0-20.0-0.0,95748,List1B,black,woman,,,,null,,,,
1976,"<img src=""portrait/BM1.jpg""style=""height:400px;""></img>",4,html-button-response,341,1289848,0.0-18.0-22.0,95748,List1B,black,woman,,TRUE,4,,,,,
null,CORRECT,,html-keyboard-response,342,1291353,0.0-18.0-23.0-0.0,95748,List1B,black,woman,,,,null,,,,
1544,<p>You got 8 out of 8 right first time. Press Continue.</p>,0,html-button-response,343,1292899,0.0-18.0-25.0,95748,List1B,black,woman,,,,,,,,
null,"<div style=""font-size:60px;"">+</div>",,html-keyboard-response,344,1294404,0.0-19.0-0.0,95748,List1B,black,woman,,,,null,,,,
null,"<img src=""stim_listB/play8.gif""style=""height:400px;""></stim_listB>",,html-keyboard-response,345,1296407,0.0-19.0-1.0,95748,List1B,black,woman,,,,null,,,,
null,are playing with each other,,html-keyboard-response,346,1298409,0.0-19.0-2.0,95748,List1B,black,woman,,,,null,,,,
9569,,,survey-text,347,1307979,0.0-19.0-3.0,95748,List1B,black,woman,,,,,"{""Q0"":""beth and ruth""}","<img src=""stim_listB/play8.gif""style=""height:400px;""></stim_listB>",are playing with each other,
null,"<div style=""font-size:60px;"">+</div>",,html-keyboard-response,348,1308482,0.0-19.0-0.1,95748,List1B,black,woman,,,,null,,,,
null,"<img src=""stim_listB/dance7.gif""style=""height:400px;""></stim_listB>",,html-keyboard-response,349,1310487,0.0-19.0-1.1,95748,List1B,black,woman,,,,null,,,,
null,is dancing with,,html-keyboard-response,350,1312490,0.0-19.0-2.1,95748,List1B,black,woman,,,,null,,,,
5283,,,survey-text,351,1317774,0.0-19.0-3.1,95748,List1B,black,woman,,,,,"{""Q0"":""beth and jane""}","<img src=""stim_listB/dance7.gif""style=""height:400px;""></stim_listB>",is dancing with,
null,"<div style=""font-size:60px;"">+</div>",,html-keyboard-response,352,1318278,0.0-19.0-0.2,95748,List1B,black,woman,,,,null,,,,
null,"<img src=""stim_listB/shout3.gif""style=""height:400px;""></stim_listB>",,html-keyboard-response,353,1320281,0.0-19.0-1.2,95748,List1B,black,woman,,,,null,,,,
null,is shouting at,,html-keyboard-response,354,1322283,0.0-19.0-2.2,95748,List1B,black,woman,,,,null,,,,
5722,,,survey-text,355,1328007,0.0-19.0-3.2,95748,List1B,black,woman,,,,,"{""Q0"":""ruth and luke""}","<img src=""stim_listB/shout3.gif""style=""height:400px;""></stim_listB>",is shouting at,
null,"<div style=""font-size:60px;"">+</div>",,html-keyboard-response,356,1328510,0.0-19.0-0.3,95748,List1B,black,woman,,,,null,,,,
null,"<img src=""stim_listB/marry1.gif""style=""height:400px;""></stim_listB>",,html-keyboard-response,357,1330513,0.0-19.0-1.3,95748,List1B,black,woman,,,,null,,,,
null,is marrying,,html-keyboard-response,358,1332515,0.0-19.0-2.3,95748,List1B,black,woman,,,,null,,,,
5563,,,survey-text,359,1338079,0.0-19.0-3.3,95748,List1B,black,woman,,,,,"{""Q0"":""beth and mike""}","<img src=""stim_listB/marry1.gif""style=""height:400px;""></stim_listB>",is marrying,
null,"<div style=""font-size:60px;"">+</div>",,html-keyboard-response,360,1338582,0.0-19.0-0.4,95748,List1B,black,woman,,,,null,,,,
null,"<img src=""stim_listB/fight1.gif""style=""height:400px;""></stim_listB>",,html-keyboard-response,361,1340586,0.0-19.0-1.4,95748,List1B,black,woman,,,,null,,,,
null,is fighting,,html-keyboard-response,362,1342588,0.0-19.0-2.4,95748,List1B,black,woman,,,,null,,,,
6923,,,survey-text,363,1349513,0.0-19.0-3.4,95748,List1B,black,woman,,,,,"{""Q0"":""katie and mike""}","<img src=""stim_listB/fight1.gif""style=""height:400px;""></stim_listB>",is fighting,
null,"<div style=""font-size:60px;"">+</div>",,html-keyboard-response,364,1350016,0.0-19.0-0.5,95748,List1B,black,woman,,,,null,,,,
null,"<img src=""stim_listB/touch5.gif""style=""height:400px;""></stim_listB>",,html-keyboard-response,365,1352019,0.0-19.0-1.5,95748,List1B,black,woman,,,,null,,,,
null,is touching,,html-keyboard-response,366,1354022,0.0-19.0-2.5,95748,List1B,black,woman,,,,null,,,,
6700,,,survey-text,367,1360723,0.0-19.0-3.5,95748,List1B,black,woman,,,,,"{""Q0"":""dave and mike""}","<img src=""stim_listB/touch5.gif""style=""height:400px;""></stim_listB>",is touching,
null,"<div style=""font-size:60px;"">+</div>",,html-keyboard-response,368,1361226,0.0-19.0-0.6,95748,List1B,black,woman,,,,null,,,,
null,"<img src=""stim_listB/shout6.gif""style=""height:400px;""></stim_listB>",,html-keyboard-response,369,1363229,0.0-19.0-1.6,95748,List1B,black,woman,,,,null,,,,
null,are shouting at each other,,html-keyboard-response,370,1365231,0.0-19.0-2.6,95748,List1B,black,woman,,,,null,,,,
7005,,,survey-text,371,1372237,0.0-19.0-3.6,95748,List1B,black,woman,,,,,"{""Q0"":""dave and mike""}","<img src=""stim_listB/shout6.gif""style=""height:400px;""></stim_listB>",are shouting at each other,
null,"<div style=""font-size:60px;"">+</div>",,html-keyboard-response,372,1372740,0.0-19.0-0.7,95748,List1B,black,woman,,,,null,,,,
null,"<img src=""stim_listB/kiss3.gif""style=""height:400px;""></stim_listB>",,html-keyboard-response,373,1374742,0.0-19.0-1.7,95748,List1B,black,woman,,,,null,,,,
null,is kissing,,html-keyboard-response,374,1376745,0.0-19.0-2.7,95748,List1B,black,woman,,,,null,,,,
7529,,,survey-text,375,1384276,0.0-19.0-3.7,95748,List1B,black,woman,,,,,"{""Q0"":""ruth and luke""}","<img src=""stim_listB/kiss3.gif""style=""height:400px;""></stim_listB>",is kissing,
null,"<div style=""font-size:60px;"">+</div>",,html-keyboard-response,376,1384778,0.0-19.0-0.8,95748,List1B,black,woman,,,,null,,,,
null,"<img src=""stim_listB/marry3.gif""style=""height:400px;""></stim_listB>",,html-keyboard-response,377,1386780,0.0-19.0-1.8,95748,List1B,black,woman,,,,null,,,,
null,is marrying,,html-keyboard-response,378,1388782,0.0-19.0-2.8,95748,List1B,black,woman,,,,null,,,,
7626,,,survey-text,379,1396410,0.0-19.0-3.8,95748,List1B,black,woman,,,,,"{""Q0"":""dave and ruth""}","<img src=""stim_listB/marry3.gif""style=""height:400px;""></stim_listB>",is marrying,
null,"<div style=""font-size:60px;"">+</div>",,html-keyboard-response,380,1396912,0.0-19.0-0.9,95748,List1B,black,woman,,,,null,,,,
null,"<img src=""stim_listB/shout2.gif""style=""height:400px;""></stim_listB>",,html-keyboard-response,381,1398916,0.0-19.0-1.9,95748,List1B,black,woman,,,,null,,,,
null,are shouting at each other,,html-keyboard-response,382,1400918,0.0-19.0-2.9,95748,List1B,black,woman,,,,null,,,,
5804,,,survey-text,383,1406723,0.0-19.0-3.9,95748,List1B,black,woman,,,,,"{""Q0"":""katie and mike""}","<img src=""stim_listB/shout2.gif""style=""height:400px;""></stim_listB>",are shouting at each other,
null,"<div style=""font-size:60px;"">+</div>",,html-keyboard-response,384,1407226,0.0-19.0-0.10,95748,List1B,black,woman,,,,null,,,,
null,"<img src=""stim_listB/play4.gif""style=""height:400px;""></stim_listB>",,html-keyboard-response,385,1409230,0.0-19.0-1.10,95748,List1B,black,woman,,,,null,,,,
null,are playing with each other,,html-keyboard-response,386,1411233,0.0-19.0-2.10,95748,List1B,black,woman,,,,null,,,,
8471,,,survey-text,387,1419707,0.0-19.0-3.10,95748,List1B,black,woman,,,,,"{""Q0"":""ruth and luke""}","<img src=""stim_listB/play4.gif""style=""height:400px;""></stim_listB>",are playing with each other,
null,"<div style=""font-size:60px;"">+</div>",,html-keyboard-response,388,1420209,0.0-19.0-0.11,95748,List1B,black,woman,,,,null,,,,
null,"<img src=""stim_listB/fight5.gif""style=""height:400px;""></stim_listB>",,html-keyboard-response,389,1422211,0.0-19.0-1.11,95748,List1B,black,woman,,,,null,,,,
null,is fighting,,html-keyboard-response,390,1424213,0.0-19.0-2.11,95748,List1B,black,woman,,,,null,,,,
9938,,,survey-text,391,1434155,0.0-19.0-3.11,95748,List1B,black,woman,,,,,"{""Q0"":""dave and mike""}","<img src=""stim_listB/fight5.gif""style=""height:400px;""></stim_listB>",is fighting,
null,"<div style=""font-size:60px;"">+</div>",,html-keyboard-response,392,1434658,0.0-19.0-0.12,95748,List1B,black,woman,,,,null,,,,
null,"<img src=""stim_listB/dance5.gif""style=""height:400px;""></stim_listB>",,html-keyboard-response,393,1436661,0.0-19.0-1.12,95748,List1B,black,woman,,,,null,,,,
null,is dancing with,,html-keyboard-response,394,1438664,0.0-19.0-2.12,95748,List1B,black,woman,,,,null,,,,
5449,,,survey-text,395,1444114,0.0-19.0-3.12,95748,List1B,black,woman,,,,,"{""Q0"":""fred and dave ""}","<img src=""stim_listB/dance5.gif""style=""height:400px;""></stim_listB>",is dancing with,
null,"<div style=""font-size:60px;"">+</div>",,html-keyboard-response,396,1444617,0.0-19.0-0.13,95748,List1B,black,woman,,,,null,,,,
null,"<img src=""stim_listB/shout5.gif""style=""height:400px;""></stim_listB>",,html-keyboard-response,397,1446620,0.0-19.0-1.13,95748,List1B,black,woman,,,,null,,,,
null,is shouting at,,html-keyboard-response,398,1448622,0.0-19.0-2.13,95748,List1B,black,woman,,,,null,,,,
5965,,,survey-text,399,1454589,0.0-19.0-3.13,95748,List1B,black,woman,,,,,"{""Q0"":""luke and fred""}","<img src=""stim_listB/shout5.gif""style=""height:400px;""></stim_listB>",is shouting at,
null,"<div style=""font-size:60px;"">+</div>",,html-keyboard-response,400,1455092,0.0-19.0-0.14,95748,List1B,black,woman,,,,null,,,,
null,"<img src=""stim_listB/play7.gif""style=""height:400px;""></stim_listB>",,html-keyboard-response,401,1457096,0.0-19.0-1.14,95748,List1B,black,woman,,,,null,,,,
null,is playing with,,html-keyboard-response,402,1459098,0.0-19.0-2.14,95748,List1B,black,woman,,,,null,,,,
6882,,,survey-text,403,1465982,0.0-19.0-3.14,95748,List1B,black,woman,,,,,"{""Q0"":""jane and katie""}","<img src=""stim_listB/play7.gif""style=""height:400px;""></stim_listB>",is playing with,
null,"<div style=""font-size:60px;"">+</div>",,html-keyboard-response,404,1466484,0.0-19.0-0.15,95748,List1B,black,woman,,,,null,,,,
null,"<img src=""stim_listB/dance4.gif""style=""height:400px;""></stim_listB>",,html-keyboard-response,405,1468488,0.0-19.0-1.15,95748,List1B,black,woman,,,,null,,,,
null,are dancing with each other,,html-keyboard-response,406,1470489,0.0-19.0-2.15,95748,List1B,black,woman,,,,null,,,,
12120,,,survey-text,407,1482610,0.0-19.0-3.15,95748,List1B,black,woman,,,,,"{""Q0"":""ruth and dave ""}","<img src=""stim_listB/dance4.gif""style=""height:400px;""></stim_listB>",are dancing with each other,
null,"<div style=""font-size:60px;"">+</div>",,html-keyboard-response,408,1483113,0.0-19.0-0.16,95748,List1B,black,woman,,,,null,,,,
null,"<img src=""stim_listB/kiss4.gif""style=""height:400px;""></stim_listB>",,html-keyboard-response,409,1485116,0.0-19.0-1.16,95748,List1B,black,woman,,,,null,,,,
null,are kissing each other,,html-keyboard-response,410,1487119,0.0-19.0-2.16,95748,List1B,black,woman,,,,null,,,,
5355,,,survey-text,411,1492476,0.0-19.0-3.16,95748,List1B,black,woman,,,,,"{""Q0"":""ruth and dave ""}","<img src=""stim_listB/kiss4.gif""style=""height:400px;""></stim_listB>",are kissing each other,
null,"<div style=""font-size:60px;"">+</div>",,html-keyboard-response,412,1492979,0.0-19.0-0.17,95748,List1B,black,woman,,,,null,,,,
null,"<img src=""stim_listB/touch7.gif""style=""height:400px;""></stim_listB>",,html-keyboard-response,413,1494982,0.0-19.0-1.17,95748,List1B,black,woman,,,,null,,,,
null,is touching,,html-keyboard-response,414,1496984,0.0-19.0-2.17,95748,List1B,black,woman,,,,null,,,,
9268,,,survey-text,415,1506254,0.0-19.0-3.17,95748,List1B,black,woman,,,,,"{""Q0"":""jane and katie""}","<img src=""stim_listB/touch7.gif""style=""height:400px;""></stim_listB>",is touching,
null,"<div style=""font-size:60px;"">+</div>",,html-keyboard-response,416,1506757,0.0-19.0-0.18,95748,List1B,black,woman,,,,null,,,,
null,"<img src=""stim_listB/fight6.gif""style=""height:400px;""></stim_listB>",,html-keyboard-response,417,1508761,0.0-19.0-1.18,95748,List1B,black,woman,,,,null,,,,
null,are fighting each other,,html-keyboard-response,418,1510763,0.0-19.0-2.18,95748,List1B,black,woman,,,,null,,,,
5742,,,survey-text,419,1516508,0.0-19.0-3.18,95748,List1B,black,woman,,,,,"{""Q0"":""fred and luke""}","<img src=""stim_listB/fight6.gif""style=""height:400px;""></stim_listB>",are fighting each other,
null,"<div style=""font-size:60px;"">+</div>",,html-keyboard-response,420,1517010,0.0-19.0-0.19,95748,List1B,black,woman,,,,null,,,,
null,"<img src=""stim_listB/flirt8.gif""style=""height:400px;""></stim_listB>",,html-keyboard-response,421,1519014,0.0-19.0-1.19,95748,List1B,black,woman,,,,null,,,,
null,are flirting with each other,,html-keyboard-response,422,1521016,0.0-19.0-2.19,95748,List1B,black,woman,,,,null,,,,
7702,,,survey-text,423,1528721,0.0-19.0-3.19,95748,List1B,black,woman,,,,,"{""Q0"":""ruth and beth""}","<img src=""stim_listB/flirt8.gif""style=""height:400px;""></stim_listB>",are flirting with each other,
2079,<p>Thank you for completing that task.</p><p>The final part of this session is a short questionnaire.</p><p>Press Continue.</p>,0,html-button-response,424,1530802,0.0-20.0,95748,List1B,black,woman,,,,,,,,
40064,,,survey-text,425,1571871,0.0-21.0,95748,List1B,black,woman,,,,,"{""Q0"":""46"",""Q1"":""English"",""Q2"":""English "",""Q3"":""USA"",""Q4"":""Black"",""Q5"":""Female""}",,,demographics
10700,,,survey-likert,426,1582575,0.0-22.0,95748,List1B,black,woman,,,,,"{""Q0"":3}",,,likert_ESS
25870,,,survey-likert,427,1608448,0.0-23.0,95748,List1B,black,woman,,,,,"{""Q0"":0}",,,likert_NSSAL_Q1
6184,,,survey-likert,428,1614634,0.0-24.0,95748,List1B,black,woman,,,,,"{""Q0"":0}",,,likert_NSSAL_Q2
8810,,,survey-likert,429,1623446,0.0-25.0,95748,List1B,black,woman,,,,,"{""Q0"":4}",,,likert_CGRS_Q1
11548,,,survey-likert,430,1634997,0.0-26.0,95748,List1B,black,woman,,,,,"{""Q0"":4}",,,likert_CGRS_Q2
11762,,,survey-likert,431,1646761,0.0-27.0,95748,List1B,black,woman,,,,,"{""Q0"":4}",,,likert_CGRS_Q3
10285,,,survey-text,432,1657049,0.0-28.0,95748,List1B,black,woman,,,,,"{""Q0"":""ccc""}",,,worker_id
26421,,,external-html,433,1683875,0.0-29.0,95748,List1B,black,woman,debrief.html,,,,,,,
