rt,stimulus,button_pressed,trial_type,trial_index,time_elapsed,internal_node_id,subject,list,ppt_race,ppt_gender,url,first_guess,correct,key_press,responses,image_type,phrase_type,test_part
2633,Welcome to the experiment. Press Continue to begin.,0,html-button-response,0,2637,0.0-0.0,96221,List1A,white,woman,,,,,,,,
21520,,,external-html,1,25314,0.0-1.0,96221,List1A,white,woman,consent.html,,,,,,,
25197,"<p>On the next page, you will see portraits of 8 people and their names.</p><p>Your first task is to take a few minutes to memorise the names of these people.</p><p>You will have to recall their names during the rest of the experiment, so it is</p><p>essential that you try to memorise these people and their names as best as you can.</p><br><p><strong>You will then be tested on your memory of these names and portraits.</strong></p><br><p>The experiment will start after you have completed this memory test.</p><br><p>Ready?</p>",0,html-button-response,2,50514,0.0-2.0,96221,List1A,white,woman,,,,,,,,
51059,"<img src='img/portrait_matrix_list1.jpg' style='width:900px;height:500px;''></img><p>If you have memorised all the portraits and names and are ready to start, press Continue.</p><p><strong>Please note: Your memory of these faces will be tested 4 times during this experiment.</strong></p>",0,html-button-response,3,102591,0.0-3.0-0.0,96221,List1A,white,woman,,,,,,,,
7499,"<img src=""portrait/BW2.jpg""style=""height:400px;""></img>",2,html-button-response,4,111111,0.0-3.0-1.0,96221,List1A,white,woman,,TRUE,2,,,,,
null,CORRECT,,html-keyboard-response,5,112629,0.0-3.0-2.0-0.0,96221,List1A,white,woman,,,,null,,,,
5070,"<img src=""portrait/WM2.jpg""style=""height:400px;""></img>",7,html-button-response,6,117702,0.0-3.0-4.0,96221,List1A,white,woman,,TRUE,7,,,,,
null,CORRECT,,html-keyboard-response,7,119222,0.0-3.0-5.0-0.0,96221,List1A,white,woman,,,,null,,,,
5800,"<img src=""portrait/BM1.jpg""style=""height:400px;""></img>",6,html-button-response,8,125025,0.0-3.0-7.0,96221,List1A,white,woman,,TRUE,4,,,,,
5118,"<img src=""portrait/BM1.jpg""style=""height:400px;""></img>",4,html-button-response,9,131163,0.0-3.0-9.0-0.0,96221,List1A,white,woman,,FALSE,4,,,,,
null,CORRECT,,html-keyboard-response,10,132681,0.0-3.0-9.0-1.0-0.0,96221,List1A,white,woman,,,,null,,,,
9812,"<img src=""portrait/BM2.jpg""style=""height:400px;""></img>",0,html-button-response,11,142495,0.0-3.0-10.0,96221,List1A,white,woman,,TRUE,5,,,,,
2786,"<img src=""portrait/BM2.jpg""style=""height:400px;""></img>",5,html-button-response,12,146300,0.0-3.0-12.0-0.0,96221,List1A,white,woman,,FALSE,5,,,,,
null,CORRECT,,html-keyboard-response,13,147807,0.0-3.0-12.0-1.0-0.0,96221,List1A,white,woman,,,,null,,,,
5382,"<img src=""portrait/BW1.jpg""style=""height:400px;""></img>",0,html-button-response,14,153192,0.0-3.0-13.0,96221,List1A,white,woman,,TRUE,0,,,,,
null,CORRECT,,html-keyboard-response,15,154701,0.0-3.0-14.0-0.0,96221,List1A,white,woman,,,,null,,,,
4632,"<img src=""portrait/WM1.jpg""style=""height:400px;""></img>",6,html-button-response,16,159336,0.0-3.0-16.0,96221,List1A,white,woman,,TRUE,6,,,,,
null,CORRECT,,html-keyboard-response,17,160870,0.0-3.0-17.0-0.0,96221,List1A,white,woman,,,,null,,,,
4251,"<img src=""portrait/WW2.jpg""style=""height:400px;""></img>",3,html-button-response,18,165125,0.0-3.0-19.0,96221,List1A,white,woman,,TRUE,3,,,,,
null,CORRECT,,html-keyboard-response,19,166641,0.0-3.0-20.0-0.0,96221,List1A,white,woman,,,,null,,,,
3794,"<img src=""portrait/WW1.jpg""style=""height:400px;""></img>",1,html-button-response,20,170442,0.0-3.0-22.0,96221,List1A,white,woman,,TRUE,1,,,,,
null,CORRECT,,html-keyboard-response,21,171961,0.0-3.0-23.0-0.0,96221,List1A,white,woman,,,,null,,,,
1987,<p>You got 6 out of 8 right first time. Press Continue.</p>,0,html-button-response,22,173951,0.0-3.0-25.0,96221,List1A,white,woman,,,,,,,,
3604,"As you did not score 100%, the memory game will repeat. Press Continue.",0,html-button-response,23,178559,0.0-3.0-26.0-0.0,96221,List1A,white,woman,,,,,,,,
15044,"<img src='img/portrait_matrix_list1.jpg' style='width:900px;height:500px;''></img><p>If you have memorised all the portraits and names and are ready to start, press Continue.</p><p><strong>Please note: Your memory of these faces will be tested 4 times during this experiment.</strong></p>",0,html-button-response,24,194621,0.0-3.1-0.1,96221,List1A,white,woman,,,,,,,,
5707,"<img src=""portrait/BW2.jpg""style=""height:400px;""></img>",2,html-button-response,25,201346,0.0-3.1-1.1,96221,List1A,white,woman,,TRUE,2,,,,,
null,CORRECT,,html-keyboard-response,26,202859,0.0-3.1-2.1-0.1,96221,List1A,white,woman,,,,null,,,,
5011,"<img src=""portrait/WM2.jpg""style=""height:400px;""></img>",7,html-button-response,27,207874,0.0-3.1-4.1,96221,List1A,white,woman,,TRUE,7,,,,,
null,CORRECT,,html-keyboard-response,28,209397,0.0-3.1-5.1-0.1,96221,List1A,white,woman,,,,null,,,,
4542,"<img src=""portrait/BM1.jpg""style=""height:400px;""></img>",4,html-button-response,29,213945,0.0-3.1-7.1,96221,List1A,white,woman,,TRUE,4,,,,,
null,CORRECT,,html-keyboard-response,30,215455,0.0-3.1-8.1-0.1,96221,List1A,white,woman,,,,null,,,,
4303,"<img src=""portrait/BM2.jpg""style=""height:400px;""></img>",5,html-button-response,31,219762,0.0-3.1-10.1,96221,List1A,white,woman,,TRUE,5,,,,,
null,CORRECT,,html-keyboard-response,32,221275,0.0-3.1-11.1-0.1,96221,List1A,white,woman,,,,null,,,,
6151,"<img src=""portrait/BW1.jpg""style=""height:400px;""></img>",0,html-button-response,33,227431,0.0-3.1-13.1,96221,List1A,white,woman,,TRUE,0,,,,,
null,CORRECT,,html-keyboard-response,34,228949,0.0-3.1-14.1-0.1,96221,List1A,white,woman,,,,null,,,,
1746,"<img src=""portrait/WM1.jpg""style=""height:400px;""></img>",1,html-button-response,35,230700,0.0-3.1-16.1,96221,List1A,white,woman,,TRUE,6,,,,,
2308,"<img src=""portrait/WM1.jpg""style=""height:400px;""></img>",6,html-button-response,36,234025,0.0-3.1-18.1-0.1,96221,List1A,white,woman,,FALSE,6,,,,,
null,CORRECT,,html-keyboard-response,37,235544,0.0-3.1-18.1-1.1-0.1,96221,List1A,white,woman,,,,null,,,,
2478,"<img src=""portrait/WW2.jpg""style=""height:400px;""></img>",3,html-button-response,38,238025,0.0-3.1-19.1,96221,List1A,white,woman,,TRUE,3,,,,,
null,CORRECT,,html-keyboard-response,39,239525,0.0-3.1-20.1-0.1,96221,List1A,white,woman,,,,null,,,,
9082,"<img src=""portrait/WW1.jpg""style=""height:400px;""></img>",1,html-button-response,40,248611,0.0-3.1-22.1,96221,List1A,white,woman,,TRUE,1,,,,,
null,CORRECT,,html-keyboard-response,41,250126,0.0-3.1-23.1-0.1,96221,List1A,white,woman,,,,null,,,,
1711,<p>You got 7 out of 8 right first time. Press Continue.</p>,0,html-button-response,42,251841,0.0-3.1-25.1,96221,List1A,white,woman,,,,,,,,
1492,"As you did not score 100%, the memory game will repeat. Press Continue.",0,html-button-response,43,254349,0.0-3.1-26.1-0.1,96221,List1A,white,woman,,,,,,,,
1909,"<img src='img/portrait_matrix_list1.jpg' style='width:900px;height:500px;''></img><p>If you have memorised all the portraits and names and are ready to start, press Continue.</p><p><strong>Please note: Your memory of these faces will be tested 4 times during this experiment.</strong></p>",0,html-button-response,44,257261,0.0-3.2-0.2,96221,List1A,white,woman,,,,,,,,
5000,"<img src=""portrait/BW2.jpg""style=""height:400px;""></img>",2,html-button-response,45,263278,0.0-3.2-1.2,96221,List1A,white,woman,,TRUE,2,,,,,
null,CORRECT,,html-keyboard-response,46,264794,0.0-3.2-2.2-0.2,96221,List1A,white,woman,,,,null,,,,
4017,"<img src=""portrait/WM2.jpg""style=""height:400px;""></img>",7,html-button-response,47,268816,0.0-3.2-4.2,96221,List1A,white,woman,,TRUE,7,,,,,
null,CORRECT,,html-keyboard-response,48,270336,0.0-3.2-5.2-0.2,96221,List1A,white,woman,,,,null,,,,
3396,"<img src=""portrait/BM1.jpg""style=""height:400px;""></img>",4,html-button-response,49,273734,0.0-3.2-7.2,96221,List1A,white,woman,,TRUE,4,,,,,
null,CORRECT,,html-keyboard-response,50,275249,0.0-3.2-8.2-0.2,96221,List1A,white,woman,,,,null,,,,
3507,"<img src=""portrait/BM2.jpg""style=""height:400px;""></img>",5,html-button-response,51,278758,0.0-3.2-10.2,96221,List1A,white,woman,,TRUE,5,,,,,
null,CORRECT,,html-keyboard-response,52,280268,0.0-3.2-11.2-0.2,96221,List1A,white,woman,,,,null,,,,
5019,"<img src=""portrait/BW1.jpg""style=""height:400px;""></img>",0,html-button-response,53,285289,0.0-3.2-13.2,96221,List1A,white,woman,,TRUE,0,,,,,
null,CORRECT,,html-keyboard-response,54,286798,0.0-3.2-14.2-0.2,96221,List1A,white,woman,,,,null,,,,
3474,"<img src=""portrait/WM1.jpg""style=""height:400px;""></img>",6,html-button-response,55,290275,0.0-3.2-16.2,96221,List1A,white,woman,,TRUE,6,,,,,
null,CORRECT,,html-keyboard-response,56,291795,0.0-3.2-17.2-0.2,96221,List1A,white,woman,,,,null,,,,
2046,"<img src=""portrait/WW2.jpg""style=""height:400px;""></img>",3,html-button-response,57,293844,0.0-3.2-19.2,96221,List1A,white,woman,,TRUE,3,,,,,
null,CORRECT,,html-keyboard-response,58,295375,0.0-3.2-20.2-0.2,96221,List1A,white,woman,,,,null,,,,
3467,"<img src=""portrait/WW1.jpg""style=""height:400px;""></img>",1,html-button-response,59,298844,0.0-3.2-22.2,96221,List1A,white,woman,,TRUE,1,,,,,
null,CORRECT,,html-keyboard-response,60,300362,0.0-3.2-23.2-0.2,96221,List1A,white,woman,,,,null,,,,
1466,<p>You got 8 out of 8 right first time. Press Continue.</p>,0,html-button-response,61,301830,0.0-3.2-25.2,96221,List1A,white,woman,,,,,,,,
57610,"<p>In this experiment, you will view photographs of the people from the memory game interacting.</p><p>By using the <strong>exact</strong> phrase given <i>after</i> the photograph appears and recalling the correct names of the people in the photographs, form a sentence describing the interaction. You do not need to capitalise names.</p><p>Type your answer in the space provided. Please complete every sentence before moving onto the next trial.</p><p>You will only have a few seconds to memorise each given photograph and phrase before you can respond, so try your best to focus.</p><p>An example is given below. Press 'Continue' when you are ready.</p><img src='img/speaking_example.jpg' style='width:800px;height:460px;''></img>",0,html-button-response,62,360504,0.0-4.0,96221,List1A,white,woman,,,,,,,,
3238,"<p>Before the experiment starts, you will watch two example trials. Press 'Continue'.</p>",0,html-button-response,63,364759,0.0-5.0,96221,List1A,white,woman,,,,,,,,
null,<img src='img/meet_eg.gif' style='height:400px;''></img>,,html-keyboard-response,64,367778,0.0-6.0,96221,List1A,white,woman,,,,null,,,,
null,<p>is meeting</p>,,html-keyboard-response,65,369780,0.0-7.0,96221,List1A,white,woman,,,,null,,,,
11720,<p><b>Answer:</b> kate is meeting beth</p>,0,html-button-response,66,381503,0.0-8.0,96221,List1A,white,woman,,,,,,,,
null,<img src='img/look_eg.gif' style='height:400px;''></img>,,html-keyboard-response,67,384527,0.0-9.0,96221,List1A,white,woman,,,,null,,,,
null,<p>are looking at each other</p>,,html-keyboard-response,68,386531,0.0-10.0,96221,List1A,white,woman,,,,null,,,,
3261,<p><b>Answer:</b> luke and dave are looking at each other</p>,0,html-button-response,69,389795,0.0-11.0,96221,List1A,white,woman,,,,,,,,
9255,"<p>Ready to start the experiment?</p><br><p><strong>Remember to describe the picture using a full sentence,</strong></p><p><strong>that combines the names of the people with the <i>exact</i> phrase given.</strong></p><p><strong>To receive full payment you must do this correctly.</strong></p><p><strong> You do not need to capitalise names or use punctuation.</strong></p><br><p>Press 'Continue' to begin.</p>",0,html-button-response,70,400053,0.0-12.0,96221,List1A,white,woman,,,,,,,,
null,"<div style=""font-size:60px;"">+</div>",,html-keyboard-response,71,401585,0.0-13.0-0.0,96221,List1A,white,woman,,,,null,,,,
null,"<img src=""stim_listA/flirt4.gif""style=""height:400px;""></stim_listA>",,html-keyboard-response,72,403591,0.0-13.0-1.0,96221,List1A,white,woman,,,,null,,,,
null,are flirting with each other,,html-keyboard-response,73,405591,0.0-13.0-2.0,96221,List1A,white,woman,,,,null,,,,
35741,,,survey-text,74,441336,0.0-13.0-3.0,96221,List1A,white,woman,,,,,"{""Q0"":""Ruth and Dave are flirting with eachother ""}","<img src=""stim_listA/flirt4.gif""style=""height:400px;""></stim_listA>",are flirting with each other,
null,"<div style=""font-size:60px;"">+</div>",,html-keyboard-response,75,441840,0.0-13.0-0.1,96221,List1A,white,woman,,,,null,,,,
null,"<img src=""stim_listA/argue8.gif""style=""height:400px;""></stim_listA>",,html-keyboard-response,76,443848,0.0-13.0-1.1,96221,List1A,white,woman,,,,null,,,,
null,are arguing with each other,,html-keyboard-response,77,445850,0.0-13.0-2.1,96221,List1A,white,woman,,,,null,,,,
33112,,,survey-text,78,478965,0.0-13.0-3.1,96221,List1A,white,woman,,,,,"{""Q0"":""Jane and Beth are arguing with eachother?""}","<img src=""stim_listA/argue8.gif""style=""height:400px;""></stim_listA>",are arguing with each other,
null,"<div style=""font-size:60px;"">+</div>",,html-keyboard-response,79,479482,0.0-13.0-0.2,96221,List1A,white,woman,,,,null,,,,
null,"<img src=""stim_listA/dance4.gif""style=""height:400px;""></stim_listA>",,html-keyboard-response,80,481496,0.0-13.0-1.2,96221,List1A,white,woman,,,,null,,,,
null,are dancing with each other,,html-keyboard-response,81,483501,0.0-13.0-2.2,96221,List1A,white,woman,,,,null,,,,
12392,,,survey-text,82,495899,0.0-13.0-3.2,96221,List1A,white,woman,,,,,"{""Q0"":""n/a ""}","<img src=""stim_listA/dance4.gif""style=""height:400px;""></stim_listA>",are dancing with each other,
null,"<div style=""font-size:60px;"">+</div>",,html-keyboard-response,83,496414,0.0-13.0-0.3,96221,List1A,white,woman,,,,null,,,,
null,"<img src=""stim_listA/talk4.gif""style=""height:400px;""></stim_listA>",,html-keyboard-response,84,498418,0.0-13.0-1.3,96221,List1A,white,woman,,,,null,,,,
null,are talking to each other,,html-keyboard-response,85,500420,0.0-13.0-2.3,96221,List1A,white,woman,,,,null,,,,
34956,,,survey-text,86,535378,0.0-13.0-3.3,96221,List1A,white,woman,,,,,"{""Q0"":""Ruth and Dave are talking to eachother ""}","<img src=""stim_listA/talk4.gif""style=""height:400px;""></stim_listA>",are talking to each other,
null,"<div style=""font-size:60px;"">+</div>",,html-keyboard-response,87,535895,0.0-13.0-0.4,96221,List1A,white,woman,,,,null,,,,
null,"<img src=""stim_listA/talk1.gif""style=""height:400px;""></stim_listA>",,html-keyboard-response,88,537903,0.0-13.0-1.4,96221,List1A,white,woman,,,,null,,,,
null,is talking to,,html-keyboard-response,89,539906,0.0-13.0-2.4,96221,List1A,white,woman,,,,null,,,,
28175,,,survey-text,90,568084,0.0-13.0-3.4,96221,List1A,white,woman,,,,,"{""Q0"":""Kate is talking to Mike ""}","<img src=""stim_listA/talk1.gif""style=""height:400px;""></stim_listA>",is talking to,
null,"<div style=""font-size:60px;"">+</div>",,html-keyboard-response,91,568603,0.0-13.0-0.5,96221,List1A,white,woman,,,,null,,,,
null,"<img src=""stim_listA/shout1.gif""style=""height:400px;""></stim_listA>",,html-keyboard-response,92,570606,0.0-13.0-1.5,96221,List1A,white,woman,,,,null,,,,
null,is shouting at,,html-keyboard-response,93,572614,0.0-13.0-2.5,96221,List1A,white,woman,,,,null,,,,
28675,,,survey-text,94,601294,0.0-13.0-3.5,96221,List1A,white,woman,,,,,"{""Q0"":""Fred is shouting at Beth ""}","<img src=""stim_listA/shout1.gif""style=""height:400px;""></stim_listA>",is shouting at,
null,"<div style=""font-size:60px;"">+</div>",,html-keyboard-response,95,601807,0.0-13.0-0.6,96221,List1A,white,woman,,,,null,,,,
null,"<img src=""stim_listA/touch4.gif""style=""height:400px;""></stim_listA>",,html-keyboard-response,96,603825,0.0-13.0-1.6,96221,List1A,white,woman,,,,null,,,,
null,are touching each other,,html-keyboard-response,97,605812,0.0-13.0-2.6,96221,List1A,white,woman,,,,null,,,,
33780,,,survey-text,98,639595,0.0-13.0-3.6,96221,List1A,white,woman,,,,,"{""Q0"":""Ruth and Luke are touching each other""}","<img src=""stim_listA/touch4.gif""style=""height:400px;""></stim_listA>",are touching each other,
null,"<div style=""font-size:60px;"">+</div>",,html-keyboard-response,99,640111,0.0-13.0-0.7,96221,List1A,white,woman,,,,null,,,,
null,"<img src=""stim_listA/kiss4.gif""style=""height:400px;""></stim_listA>",,html-keyboard-response,100,642121,0.0-13.0-1.7,96221,List1A,white,woman,,,,null,,,,
null,are kissing each other,,html-keyboard-response,101,644123,0.0-13.0-2.7,96221,List1A,white,woman,,,,null,,,,
24069,,,survey-text,102,668197,0.0-13.0-3.7,96221,List1A,white,woman,,,,,"{""Q0"":""Jane and Dave are kissing eachother""}","<img src=""stim_listA/kiss4.gif""style=""height:400px;""></stim_listA>",are kissing each other,
null,"<div style=""font-size:60px;"">+</div>",,html-keyboard-response,103,668709,0.0-13.0-0.8,96221,List1A,white,woman,,,,null,,,,
null,"<img src=""stim_listA/flirt3.gif""style=""height:400px;""></stim_listA>",,html-keyboard-response,104,670716,0.0-13.0-1.8,96221,List1A,white,woman,,,,null,,,,
null,is flirting with,,html-keyboard-response,105,672719,0.0-13.0-2.8,96221,List1A,white,woman,,,,null,,,,
22591,,,survey-text,106,695312,0.0-13.0-3.8,96221,List1A,white,woman,,,,,"{""Q0"":""Jane is flirting with Mike""}","<img src=""stim_listA/flirt3.gif""style=""height:400px;""></stim_listA>",is flirting with,
null,"<div style=""font-size:60px;"">+</div>",,html-keyboard-response,107,695828,0.0-13.0-0.9,96221,List1A,white,woman,,,,null,,,,
null,"<img src=""stim_listA/shout5.gif""style=""height:400px;""></stim_listA>",,html-keyboard-response,108,697841,0.0-13.0-1.9,96221,List1A,white,woman,,,,null,,,,
null,is shouting at,,html-keyboard-response,109,699845,0.0-13.0-2.9,96221,List1A,white,woman,,,,null,,,,
21322,,,survey-text,110,721170,0.0-13.0-3.9,96221,List1A,white,woman,,,,,"{""Q0"":""Fred is shouting at Luke""}","<img src=""stim_listA/shout5.gif""style=""height:400px;""></stim_listA>",is shouting at,
null,"<div style=""font-size:60px;"">+</div>",,html-keyboard-response,111,721687,0.0-13.0-0.10,96221,List1A,white,woman,,,,null,,,,
null,"<img src=""stim_listA/fight8.gif""style=""height:400px;""></stim_listA>",,html-keyboard-response,112,723701,0.0-13.0-1.10,96221,List1A,white,woman,,,,null,,,,
null,are fighting each other,,html-keyboard-response,113,725705,0.0-13.0-2.10,96221,List1A,white,woman,,,,null,,,,
59010,,,survey-text,114,784718,0.0-13.0-3.10,96221,List1A,white,woman,,,,,"{""Q0"":""Ruth and Beth are fighting each other ""}","<img src=""stim_listA/fight8.gif""style=""height:400px;""></stim_listA>",are fighting each other,
null,"<div style=""font-size:60px;"">+</div>",,html-keyboard-response,115,785235,0.0-13.0-0.11,96221,List1A,white,woman,,,,null,,,,
null,"<img src=""stim_listA/fight7.gif""style=""height:400px;""></stim_listA>",,html-keyboard-response,116,787247,0.0-13.0-1.11,96221,List1A,white,woman,,,,null,,,,
null,is fighting,,html-keyboard-response,117,789252,0.0-13.0-2.11,96221,List1A,white,woman,,,,null,,,,
48170,,,survey-text,118,837425,0.0-13.0-3.11,96221,List1A,white,woman,,,,,"{""Q0"":""Kate is fighting Jane""}","<img src=""stim_listA/fight7.gif""style=""height:400px;""></stim_listA>",is fighting,
null,"<div style=""font-size:60px;"">+</div>",,html-keyboard-response,119,837941,0.0-13.0-0.12,96221,List1A,white,woman,,,,null,,,,
null,"<img src=""stim_listA/talk6.gif""style=""height:400px;""></stim_listA>",,html-keyboard-response,120,839949,0.0-13.0-1.12,96221,List1A,white,woman,,,,null,,,,
null,are talking to each other,,html-keyboard-response,121,841952,0.0-13.0-2.12,96221,List1A,white,woman,,,,null,,,,
71553,,,survey-text,122,913511,0.0-13.0-3.12,96221,List1A,white,woman,,,,,"{""Q0"":""Luke and Mike are talking to each other""}","<img src=""stim_listA/talk6.gif""style=""height:400px;""></stim_listA>",are talking to each other,
null,"<div style=""font-size:60px;"">+</div>",,html-keyboard-response,123,914028,0.0-13.0-0.13,96221,List1A,white,woman,,,,null,,,,
null,"<img src=""stim_listA/argue5.gif""style=""height:400px;""></stim_listA>",,html-keyboard-response,124,916044,0.0-13.0-1.13,96221,List1A,white,woman,,,,null,,,,
null,is arguing with,,html-keyboard-response,125,918050,0.0-13.0-2.13,96221,List1A,white,woman,,,,null,,,,
41052,,,survey-text,126,959106,0.0-13.0-3.13,96221,List1A,white,woman,,,,,"{""Q0"":""Mike is arguing with Luke""}","<img src=""stim_listA/argue5.gif""style=""height:400px;""></stim_listA>",is arguing with,
null,"<div style=""font-size:60px;"">+</div>",,html-keyboard-response,127,959629,0.0-13.0-0.14,96221,List1A,white,woman,,,,null,,,,
null,"<img src=""stim_listA/dance8.gif""style=""height:400px;""></stim_listA>",,html-keyboard-response,128,961644,0.0-13.0-1.14,96221,List1A,white,woman,,,,null,,,,
null,are dancing with each other,,html-keyboard-response,129,963647,0.0-13.0-2.14,96221,List1A,white,woman,,,,null,,,,
29411,,,survey-text,130,993061,0.0-13.0-3.14,96221,List1A,white,woman,,,,,"{""Q0"":""Kate and Ruth are dancing with each other""}","<img src=""stim_listA/dance8.gif""style=""height:400px;""></stim_listA>",are dancing with each other,
null,"<div style=""font-size:60px;"">+</div>",,html-keyboard-response,131,993578,0.0-13.0-0.15,96221,List1A,white,woman,,,,null,,,,
null,"<img src=""stim_listA/play2.gif""style=""height:400px;""></stim_listA>",,html-keyboard-response,132,995585,0.0-13.0-1.15,96221,List1A,white,woman,,,,null,,,,
null,are playing with each other,,html-keyboard-response,133,997592,0.0-13.0-2.15,96221,List1A,white,woman,,,,null,,,,
18853,,,survey-text,134,1016448,0.0-13.0-3.15,96221,List1A,white,woman,,,,,"{""Q0"":""Beth and Fred are playing with each other""}","<img src=""stim_listA/play2.gif""style=""height:400px;""></stim_listA>",are playing with each other,
null,"<div style=""font-size:60px;"">+</div>",,html-keyboard-response,135,1016962,0.0-13.0-0.16,96221,List1A,white,woman,,,,null,,,,
null,"<img src=""stim_listA/argue7.gif""style=""height:400px;""></stim_listA>",,html-keyboard-response,136,1018971,0.0-13.0-1.16,96221,List1A,white,woman,,,,null,,,,
null,is arguing with,,html-keyboard-response,137,1020974,0.0-13.0-2.16,96221,List1A,white,woman,,,,null,,,,
13624,,,survey-text,138,1034601,0.0-13.0-3.16,96221,List1A,white,woman,,,,,"{""Q0"":""Ruth is arguing with Kate""}","<img src=""stim_listA/argue7.gif""style=""height:400px;""></stim_listA>",is arguing with,
null,"<div style=""font-size:60px;"">+</div>",,html-keyboard-response,139,1035117,0.0-13.0-0.17,96221,List1A,white,woman,,,,null,,,,
null,"<img src=""stim_listA/touch1.gif""style=""height:400px;""></stim_listA>",,html-keyboard-response,140,1037122,0.0-13.0-1.17,96221,List1A,white,woman,,,,null,,,,
null,is touching,,html-keyboard-response,141,1039125,0.0-13.0-2.17,96221,List1A,white,woman,,,,null,,,,
9446,,,survey-text,142,1048577,0.0-13.0-3.17,96221,List1A,white,woman,,,,,"{""Q0"":""Kate is touching Mike""}","<img src=""stim_listA/touch1.gif""style=""height:400px;""></stim_listA>",is touching,
null,"<div style=""font-size:60px;"">+</div>",,html-keyboard-response,143,1049097,0.0-13.0-0.18,96221,List1A,white,woman,,,,null,,,,
null,"<img src=""stim_listA/play5.gif""style=""height:400px;""></stim_listA>",,html-keyboard-response,144,1051108,0.0-13.0-1.18,96221,List1A,white,woman,,,,null,,,,
null,is playing with,,html-keyboard-response,145,1053110,0.0-13.0-2.18,96221,List1A,white,woman,,,,null,,,,
12403,,,survey-text,146,1065517,0.0-13.0-3.18,96221,List1A,white,woman,,,,,"{""Q0"":""mike is playing with dave""}","<img src=""stim_listA/play5.gif""style=""height:400px;""></stim_listA>",is playing with,
null,"<div style=""font-size:60px;"">+</div>",,html-keyboard-response,147,1066023,0.0-13.0-0.19,96221,List1A,white,woman,,,,null,,,,
null,"<img src=""stim_listA/kiss5.gif""style=""height:400px;""></stim_listA>",,html-keyboard-response,148,1068040,0.0-13.0-1.19,96221,List1A,white,woman,,,,null,,,,
null,is kissing,,html-keyboard-response,149,1070029,0.0-13.0-2.19,96221,List1A,white,woman,,,,null,,,,
8438,,,survey-text,150,1078470,0.0-13.0-3.19,96221,List1A,white,woman,,,,,"{""Q0"":""fred is kissing luke""}","<img src=""stim_listA/kiss5.gif""style=""height:400px;""></stim_listA>",is kissing,
7871,"<img src='img/portrait_matrix_list1.jpg' style='width:900px;height:500px;''></img><p>If you have memorised all the portraits and names and are ready to start, press Continue.</p><p><strong>Please note: Your memory of these faces will be tested 4 times during this experiment.</strong></p>",0,html-button-response,151,1086344,0.0-14.0-0.0,96221,List1A,white,woman,,,,,,,,
3444,"<img src=""portrait/WM1.jpg""style=""height:400px;""></img>",6,html-button-response,152,1090795,0.0-14.0-1.0,96221,List1A,white,woman,,TRUE,6,,,,,
null,CORRECT,,html-keyboard-response,153,1092311,0.0-14.0-2.0-0.0,96221,List1A,white,woman,,,,null,,,,
2835,"<img src=""portrait/WM2.jpg""style=""height:400px;""></img>",7,html-button-response,154,1095149,0.0-14.0-4.0,96221,List1A,white,woman,,TRUE,7,,,,,
null,CORRECT,,html-keyboard-response,155,1096649,0.0-14.0-5.0-0.0,96221,List1A,white,woman,,,,null,,,,
2802,"<img src=""portrait/WW1.jpg""style=""height:400px;""></img>",1,html-button-response,156,1099455,0.0-14.0-7.0,96221,List1A,white,woman,,TRUE,1,,,,,
null,CORRECT,,html-keyboard-response,157,1100978,0.0-14.0-8.0-0.0,96221,List1A,white,woman,,,,null,,,,
5103,"<img src=""portrait/BW1.jpg""style=""height:400px;""></img>",0,html-button-response,158,1106084,0.0-14.0-10.0,96221,List1A,white,woman,,TRUE,0,,,,,
null,CORRECT,,html-keyboard-response,159,1107604,0.0-14.0-11.0-0.0,96221,List1A,white,woman,,,,null,,,,
3916,"<img src=""portrait/BM2.jpg""style=""height:400px;""></img>",5,html-button-response,160,1111523,0.0-14.0-13.0,96221,List1A,white,woman,,TRUE,5,,,,,
null,CORRECT,,html-keyboard-response,161,1113053,0.0-14.0-14.0-0.0,96221,List1A,white,woman,,,,null,,,,
3935,"<img src=""portrait/BM1.jpg""style=""height:400px;""></img>",4,html-button-response,162,1116993,0.0-14.0-16.0,96221,List1A,white,woman,,TRUE,4,,,,,
null,CORRECT,,html-keyboard-response,163,1118514,0.0-14.0-17.0-0.0,96221,List1A,white,woman,,,,null,,,,
6661,"<img src=""portrait/BW2.jpg""style=""height:400px;""></img>",2,html-button-response,164,1125178,0.0-14.0-19.0,96221,List1A,white,woman,,TRUE,2,,,,,
null,CORRECT,,html-keyboard-response,165,1126694,0.0-14.0-20.0-0.0,96221,List1A,white,woman,,,,null,,,,
3557,"<img src=""portrait/WW2.jpg""style=""height:400px;""></img>",3,html-button-response,166,1130255,0.0-14.0-22.0,96221,List1A,white,woman,,TRUE,3,,,,,
null,CORRECT,,html-keyboard-response,167,1131771,0.0-14.0-23.0-0.0,96221,List1A,white,woman,,,,null,,,,
278392,<p>You got 8 out of 8 right first time. Press Continue.</p>,0,html-button-response,168,1410168,0.0-14.0-25.0,96221,List1A,white,woman,,,,,,,,
null,"<div style=""font-size:60px;"">+</div>",,html-keyboard-response,169,1411690,0.0-15.0-0.0,96221,List1A,white,woman,,,,null,,,,
null,"<img src=""stim_listA/dance6.gif""style=""height:400px;""></stim_listA>",,html-keyboard-response,170,1413704,0.0-15.0-1.0,96221,List1A,white,woman,,,,null,,,,
null,are dancing with each other,,html-keyboard-response,171,1415703,0.0-15.0-2.0,96221,List1A,white,woman,,,,null,,,,
22505,,,survey-text,172,1438212,0.0-15.0-3.0,96221,List1A,white,woman,,,,,"{""Q0"":""luke and mike are dancing with each other""}","<img src=""stim_listA/dance6.gif""style=""height:400px;""></stim_listA>",are dancing with each other,
null,"<div style=""font-size:60px;"">+</div>",,html-keyboard-response,173,1438723,0.0-15.0-0.1,96221,List1A,white,woman,,,,null,,,,
null,"<img src=""stim_listA/dance7.gif""style=""height:400px;""></stim_listA>",,html-keyboard-response,174,1440737,0.0-15.0-1.1,96221,List1A,white,woman,,,,null,,,,
null,is dancing with,,html-keyboard-response,175,1442730,0.0-15.0-2.1,96221,List1A,white,woman,,,,null,,,,
8396,,,survey-text,176,1451128,0.0-15.0-3.1,96221,List1A,white,woman,,,,,"{""Q0"":""jane is dancing with beth""}","<img src=""stim_listA/dance7.gif""style=""height:400px;""></stim_listA>",is dancing with,
null,"<div style=""font-size:60px;"">+</div>",,html-keyboard-response,177,1451644,0.0-15.0-0.2,96221,List1A,white,woman,,,,null,,,,
null,"<img src=""stim_listA/argue1.gif""style=""height:400px;""></stim_listA>",,html-keyboard-response,178,1453653,0.0-15.0-1.2,96221,List1A,white,woman,,,,null,,,,
null,is arguing with,,html-keyboard-response,179,1455655,0.0-15.0-2.2,96221,List1A,white,woman,,,,null,,,,
50278,,,survey-text,180,1505938,0.0-15.0-3.2,96221,List1A,white,woman,,,,,"{""Q0"":""mike is arguing with beth""}","<img src=""stim_listA/argue1.gif""style=""height:400px;""></stim_listA>",is arguing with,
null,"<div style=""font-size:60px;"">+</div>",,html-keyboard-response,181,1506443,0.0-15.0-0.3,96221,List1A,white,woman,,,,null,,,,
null,"<img src=""stim_listA/argue3.gif""style=""height:400px;""></stim_listA>",,html-keyboard-response,182,1508445,0.0-15.0-1.3,96221,List1A,white,woman,,,,null,,,,
null,is arguing with,,html-keyboard-response,183,1510453,0.0-15.0-2.3,96221,List1A,white,woman,,,,null,,,,
8599,,,survey-text,184,1519061,0.0-15.0-3.3,96221,List1A,white,woman,,,,,"{""Q0"":""dave is arguing with ruth""}","<img src=""stim_listA/argue3.gif""style=""height:400px;""></stim_listA>",is arguing with,
null,"<div style=""font-size:60px;"">+</div>",,html-keyboard-response,185,1519571,0.0-15.0-0.4,96221,List1A,white,woman,,,,null,,,,
null,"<img src=""stim_listA/flirt7.gif""style=""height:400px;""></stim_listA>",,html-keyboard-response,186,1521590,0.0-15.0-1.4,96221,List1A,white,woman,,,,null,,,,
null,is flirting with,,html-keyboard-response,187,1523580,0.0-15.0-2.4,96221,List1A,white,woman,,,,null,,,,
47044,,,survey-text,188,1570627,0.0-15.0-3.4,96221,List1A,white,woman,,,,,"{""Q0"":""beth is flirting with jane""}","<img src=""stim_listA/flirt7.gif""style=""height:400px;""></stim_listA>",is flirting with,
null,"<div style=""font-size:60px;"">+</div>",,html-keyboard-response,189,1571144,0.0-15.0-0.5,96221,List1A,white,woman,,,,null,,,,
null,"<img src=""stim_listA/talk3.gif""style=""height:400px;""></stim_listA>",,html-keyboard-response,190,1573169,0.0-15.0-1.5,96221,List1A,white,woman,,,,null,,,,
null,is talking to,,html-keyboard-response,191,1575173,0.0-15.0-2.5,96221,List1A,white,woman,,,,null,,,,
23657,,,survey-text,192,1598836,0.0-15.0-3.5,96221,List1A,white,woman,,,,,"{""Q0"":""luke is talking to jane""}","<img src=""stim_listA/talk3.gif""style=""height:400px;""></stim_listA>",is talking to,
null,"<div style=""font-size:60px;"">+</div>",,html-keyboard-response,193,1599346,0.0-15.0-0.6,96221,List1A,white,woman,,,,null,,,,
null,"<img src=""stim_listA/flirt1.gif""style=""height:400px;""></stim_listA>",,html-keyboard-response,194,1601358,0.0-15.0-1.6,96221,List1A,white,woman,,,,null,,,,
null,is flirting with,,html-keyboard-response,195,1603359,0.0-15.0-2.6,96221,List1A,white,woman,,,,null,,,,
6479,,,survey-text,196,1609841,0.0-15.0-3.6,96221,List1A,white,woman,,,,,"{""Q0"":""kate and jane..?""}","<img src=""stim_listA/flirt1.gif""style=""height:400px;""></stim_listA>",is flirting with,
null,"<div style=""font-size:60px;"">+</div>",,html-keyboard-response,197,1610357,0.0-15.0-0.7,96221,List1A,white,woman,,,,null,,,,
null,"<img src=""stim_listA/dance1.gif""style=""height:400px;""></stim_listA>",,html-keyboard-response,198,1612375,0.0-15.0-1.7,96221,List1A,white,woman,,,,null,,,,
null,is dancing with,,html-keyboard-response,199,1614362,0.0-15.0-2.7,96221,List1A,white,woman,,,,null,,,,
8857,,,survey-text,200,1623224,0.0-15.0-3.7,96221,List1A,white,woman,,,,,"{""Q0"":""kate is dancing with fred""}","<img src=""stim_listA/dance1.gif""style=""height:400px;""></stim_listA>",is dancing with,
null,"<div style=""font-size:60px;"">+</div>",,html-keyboard-response,201,1623741,0.0-15.0-0.8,96221,List1A,white,woman,,,,null,,,,
null,"<img src=""stim_listA/touch2.gif""style=""height:400px;""></stim_listA>",,html-keyboard-response,202,1625753,0.0-15.0-1.8,96221,List1A,white,woman,,,,null,,,,
null,are touching each other,,html-keyboard-response,203,1627751,0.0-15.0-2.8,96221,List1A,white,woman,,,,null,,,,
10723,,,survey-text,204,1638478,0.0-15.0-3.8,96221,List1A,white,woman,,,,,"{""Q0"":""fred and beth are touching each other""}","<img src=""stim_listA/touch2.gif""style=""height:400px;""></stim_listA>",are touching each other,
null,"<div style=""font-size:60px;"">+</div>",,html-keyboard-response,205,1638982,0.0-15.0-0.9,96221,List1A,white,woman,,,,null,,,,
null,"<img src=""stim_listA/kiss2.gif""style=""height:400px;""></stim_listA>",,html-keyboard-response,206,1640996,0.0-15.0-1.9,96221,List1A,white,woman,,,,null,,,,
null,are kissing each other,,html-keyboard-response,207,1642989,0.0-15.0-2.9,96221,List1A,white,woman,,,,null,,,,
197339,,,survey-text,208,1840331,0.0-15.0-3.9,96221,List1A,white,woman,,,,,"{""Q0"":""kate and mike are kissing each other""}","<img src=""stim_listA/kiss2.gif""style=""height:400px;""></stim_listA>",are kissing each other,
null,"<div style=""font-size:60px;"">+</div>",,html-keyboard-response,209,1840847,0.0-15.0-0.10,96221,List1A,white,woman,,,,null,,,,
null,"<img src=""stim_listA/shout4.gif""style=""height:400px;""></stim_listA>",,html-keyboard-response,210,1842859,0.0-15.0-1.10,96221,List1A,white,woman,,,,null,,,,
null,are shouting at each other,,html-keyboard-response,211,1844863,0.0-15.0-2.10,96221,List1A,white,woman,,,,null,,,,
47928,,,survey-text,212,1892794,0.0-15.0-3.10,96221,List1A,white,woman,,,,,"{""Q0"":""jane and dave are shouting at each other""}","<img src=""stim_listA/shout4.gif""style=""height:400px;""></stim_listA>",are shouting at each other,
null,"<div style=""font-size:60px;"">+</div>",,html-keyboard-response,213,1893309,0.0-15.0-0.11,96221,List1A,white,woman,,,,null,,,,
null,"<img src=""stim_listA/marry6.gif""style=""height:400px;""></stim_listA>",,html-keyboard-response,214,1895326,0.0-15.0-1.11,96221,List1A,white,woman,,,,null,,,,
null,are marrying each other,,html-keyboard-response,215,1897309,0.0-15.0-2.11,96221,List1A,white,woman,,,,null,,,,
9739,,,survey-text,216,1907051,0.0-15.0-3.11,96221,List1A,white,woman,,,,,"{""Q0"":""fred and dave are marrying each other""}","<img src=""stim_listA/marry6.gif""style=""height:400px;""></stim_listA>",are marrying each other,
null,"<div style=""font-size:60px;"">+</div>",,html-keyboard-response,217,1907568,0.0-15.0-0.12,96221,List1A,white,woman,,,,null,,,,
null,"<img src=""stim_listA/shout2.gif""style=""height:400px;""></stim_listA>",,html-keyboard-response,218,1909573,0.0-15.0-1.12,96221,List1A,white,woman,,,,null,,,,
null,are shouting at each other,,html-keyboard-response,219,1911576,0.0-15.0-2.12,96221,List1A,white,woman,,,,null,,,,
10914,,,survey-text,220,1922492,0.0-15.0-3.12,96221,List1A,white,woman,,,,,"{""Q0"":""kate and mike are shouting at each other""}","<img src=""stim_listA/shout2.gif""style=""height:400px;""></stim_listA>",are shouting at each other,
null,"<div style=""font-size:60px;"">+</div>",,html-keyboard-response,221,1923008,0.0-15.0-0.13,96221,List1A,white,woman,,,,null,,,,
null,"<img src=""stim_listA/fight2.gif""style=""height:400px;""></stim_listA>",,html-keyboard-response,222,1925013,0.0-15.0-1.13,96221,List1A,white,woman,,,,null,,,,
null,are fighting each other,,html-keyboard-response,223,1927015,0.0-15.0-2.13,96221,List1A,white,woman,,,,null,,,,
9208,,,survey-text,224,1936226,0.0-15.0-3.13,96221,List1A,white,woman,,,,,"{""Q0"":""beth and fred are fighting each other""}","<img src=""stim_listA/fight2.gif""style=""height:400px;""></stim_listA>",are fighting each other,
null,"<div style=""font-size:60px;"">+</div>",,html-keyboard-response,225,1936736,0.0-15.0-0.14,96221,List1A,white,woman,,,,null,,,,
null,"<img src=""stim_listA/talk5.gif""style=""height:400px;""></stim_listA>",,html-keyboard-response,226,1938739,0.0-15.0-1.14,96221,List1A,white,woman,,,,null,,,,
null,is talking to,,html-keyboard-response,227,1940740,0.0-15.0-2.14,96221,List1A,white,woman,,,,null,,,,
8135,,,survey-text,228,1948879,0.0-15.0-3.14,96221,List1A,white,woman,,,,,"{""Q0"":""fred is talking to dave ""}","<img src=""stim_listA/talk5.gif""style=""height:400px;""></stim_listA>",is talking to,
null,"<div style=""font-size:60px;"">+</div>",,html-keyboard-response,229,1949395,0.0-15.0-0.15,96221,List1A,white,woman,,,,null,,,,
null,"<img src=""stim_listA/play4.gif""style=""height:400px;""></stim_listA>",,html-keyboard-response,230,1951406,0.0-15.0-1.15,96221,List1A,white,woman,,,,null,,,,
null,are playing with each other,,html-keyboard-response,231,1953406,0.0-15.0-2.15,96221,List1A,white,woman,,,,null,,,,
8216,,,survey-text,232,1961625,0.0-15.0-3.15,96221,List1A,white,woman,,,,,"{""Q0"":""ruth and luke are playing with each other""}","<img src=""stim_listA/play4.gif""style=""height:400px;""></stim_listA>",are playing with each other,
null,"<div style=""font-size:60px;"">+</div>",,html-keyboard-response,233,1962139,0.0-15.0-0.16,96221,List1A,white,woman,,,,null,,,,
null,"<img src=""stim_listA/marry3.gif""style=""height:400px;""></stim_listA>",,html-keyboard-response,234,1964152,0.0-15.0-1.16,96221,List1A,white,woman,,,,null,,,,
null,is marrying,,html-keyboard-response,235,1966157,0.0-15.0-2.16,96221,List1A,white,woman,,,,null,,,,
6372,,,survey-text,236,1972533,0.0-15.0-3.16,96221,List1A,white,woman,,,,,"{""Q0"":""ruth is marrying dave""}","<img src=""stim_listA/marry3.gif""style=""height:400px;""></stim_listA>",is marrying,
null,"<div style=""font-size:60px;"">+</div>",,html-keyboard-response,237,1973045,0.0-15.0-0.17,96221,List1A,white,woman,,,,null,,,,
null,"<img src=""stim_listA/talk7.gif""style=""height:400px;""></stim_listA>",,html-keyboard-response,238,1975060,0.0-15.0-1.17,96221,List1A,white,woman,,,,null,,,,
null,is talking to,,html-keyboard-response,239,1977064,0.0-15.0-2.17,96221,List1A,white,woman,,,,null,,,,
6163,,,survey-text,240,1983230,0.0-15.0-3.17,96221,List1A,white,woman,,,,,"{""Q0"":""jane is talking to beth""}","<img src=""stim_listA/talk7.gif""style=""height:400px;""></stim_listA>",is talking to,
null,"<div style=""font-size:60px;"">+</div>",,html-keyboard-response,241,1983753,0.0-15.0-0.18,96221,List1A,white,woman,,,,null,,,,
null,"<img src=""stim_listA/touch3.gif""style=""height:400px;""></stim_listA>",,html-keyboard-response,242,1985768,0.0-15.0-1.18,96221,List1A,white,woman,,,,null,,,,
null,is touching,,html-keyboard-response,243,1987756,0.0-15.0-2.18,96221,List1A,white,woman,,,,null,,,,
8221,,,survey-text,244,1995980,0.0-15.0-3.18,96221,List1A,white,woman,,,,,"{""Q0"":""dave is touching jane""}","<img src=""stim_listA/touch3.gif""style=""height:400px;""></stim_listA>",is touching,
null,"<div style=""font-size:60px;"">+</div>",,html-keyboard-response,245,1996494,0.0-15.0-0.19,96221,List1A,white,woman,,,,null,,,,
null,"<img src=""stim_listA/kiss1.gif""style=""height:400px;""></stim_listA>",,html-keyboard-response,246,1998498,0.0-15.0-1.19,96221,List1A,white,woman,,,,null,,,,
null,is kissing,,html-keyboard-response,247,2000504,0.0-15.0-2.19,96221,List1A,white,woman,,,,null,,,,
5934,,,survey-text,248,2006442,0.0-15.0-3.19,96221,List1A,white,woman,,,,,"{""Q0"":""beth is kissing fred""}","<img src=""stim_listA/kiss1.gif""style=""height:400px;""></stim_listA>",is kissing,
1800,"<img src='img/portrait_matrix_list1.jpg' style='width:900px;height:500px;''></img><p>If you have memorised all the portraits and names and are ready to start, press Continue.</p><p><strong>Please note: Your memory of these faces will be tested 4 times during this experiment.</strong></p>",0,html-button-response,249,2008247,0.0-16.0-0.0,96221,List1A,white,woman,,,,,,,,
4004,"<img src=""portrait/BM1.jpg""style=""height:400px;""></img>",4,html-button-response,250,2013267,0.0-16.0-1.0,96221,List1A,white,woman,,TRUE,4,,,,,
null,CORRECT,,html-keyboard-response,251,2014785,0.0-16.0-2.0-0.0,96221,List1A,white,woman,,,,null,,,,
2660,"<img src=""portrait/WM2.jpg""style=""height:400px;""></img>",7,html-button-response,252,2017450,0.0-16.0-4.0,96221,List1A,white,woman,,TRUE,7,,,,,
null,CORRECT,,html-keyboard-response,253,2018969,0.0-16.0-5.0-0.0,96221,List1A,white,woman,,,,null,,,,
3969,"<img src=""portrait/BW1.jpg""style=""height:400px;""></img>",0,html-button-response,254,2022944,0.0-16.0-7.0,96221,List1A,white,woman,,TRUE,0,,,,,
null,CORRECT,,html-keyboard-response,255,2024445,0.0-16.0-8.0-0.0,96221,List1A,white,woman,,,,null,,,,
3490,"<img src=""portrait/WM1.jpg""style=""height:400px;""></img>",6,html-button-response,256,2027941,0.0-16.0-10.0,96221,List1A,white,woman,,TRUE,6,,,,,
null,CORRECT,,html-keyboard-response,257,2029456,0.0-16.0-11.0-0.0,96221,List1A,white,woman,,,,null,,,,
1682,"<img src=""portrait/WW2.jpg""style=""height:400px;""></img>",3,html-button-response,258,2031142,0.0-16.0-13.0,96221,List1A,white,woman,,TRUE,3,,,,,
null,CORRECT,,html-keyboard-response,259,2032658,0.0-16.0-14.0-0.0,96221,List1A,white,woman,,,,null,,,,
4488,"<img src=""portrait/BW2.jpg""style=""height:400px;""></img>",2,html-button-response,260,2037149,0.0-16.0-16.0,96221,List1A,white,woman,,TRUE,2,,,,,
null,CORRECT,,html-keyboard-response,261,2038664,0.0-16.0-17.0-0.0,96221,List1A,white,woman,,,,null,,,,
2796,"<img src=""portrait/WW1.jpg""style=""height:400px;""></img>",1,html-button-response,262,2041466,0.0-16.0-19.0,96221,List1A,white,woman,,TRUE,1,,,,,
null,CORRECT,,html-keyboard-response,263,2042981,0.0-16.0-20.0-0.0,96221,List1A,white,woman,,,,null,,,,
4737,"<img src=""portrait/BM2.jpg""style=""height:400px;""></img>",5,html-button-response,264,2047722,0.0-16.0-22.0,96221,List1A,white,woman,,TRUE,5,,,,,
null,CORRECT,,html-keyboard-response,265,2049242,0.0-16.0-23.0-0.0,96221,List1A,white,woman,,,,null,,,,
1419,<p>You got 8 out of 8 right first time. Press Continue.</p>,0,html-button-response,266,2050664,0.0-16.0-25.0,96221,List1A,white,woman,,,,,,,,
null,"<div style=""font-size:60px;"">+</div>",,html-keyboard-response,267,2052184,0.0-17.0-0.0,96221,List1A,white,woman,,,,null,,,,
null,"<img src=""stim_listA/talk2.gif""style=""height:400px;""></stim_listA>",,html-keyboard-response,268,2054191,0.0-17.0-1.0,96221,List1A,white,woman,,,,null,,,,
null,are talking to each other,,html-keyboard-response,269,2056183,0.0-17.0-2.0,96221,List1A,white,woman,,,,null,,,,
10121,,,survey-text,270,2066308,0.0-17.0-3.0,96221,List1A,white,woman,,,,,"{""Q0"":""beth and mike are talking to each other""}","<img src=""stim_listA/talk2.gif""style=""height:400px;""></stim_listA>",are talking to each other,
null,"<div style=""font-size:60px;"">+</div>",,html-keyboard-response,271,2066824,0.0-17.0-0.1,96221,List1A,white,woman,,,,null,,,,
null,"<img src=""stim_listA/argue6.gif""style=""height:400px;""></stim_listA>",,html-keyboard-response,272,2068841,0.0-17.0-1.1,96221,List1A,white,woman,,,,null,,,,
null,are arguing with each other,,html-keyboard-response,273,2070839,0.0-17.0-2.1,96221,List1A,white,woman,,,,null,,,,
10945,,,survey-text,274,2081787,0.0-17.0-3.1,96221,List1A,white,woman,,,,,"{""Q0"":""fred and dave are arguing with each other""}","<img src=""stim_listA/argue6.gif""style=""height:400px;""></stim_listA>",are arguing with each other,
null,"<div style=""font-size:60px;"">+</div>",,html-keyboard-response,275,2082303,0.0-17.0-0.2,96221,List1A,white,woman,,,,null,,,,
null,"<img src=""stim_listA/argue4.gif""style=""height:400px;""></stim_listA>",,html-keyboard-response,276,2084304,0.0-17.0-1.2,96221,List1A,white,woman,,,,null,,,,
null,are arguing with each other,,html-keyboard-response,277,2086311,0.0-17.0-2.2,96221,List1A,white,woman,,,,null,,,,
9222,,,survey-text,278,2095537,0.0-17.0-3.2,96221,List1A,white,woman,,,,,"{""Q0"":""jane and luke are arguing with each other""}","<img src=""stim_listA/argue4.gif""style=""height:400px;""></stim_listA>",are arguing with each other,
null,"<div style=""font-size:60px;"">+</div>",,html-keyboard-response,279,2096052,0.0-17.0-0.3,96221,List1A,white,woman,,,,null,,,,
null,"<img src=""stim_listA/fight6.gif""style=""height:400px;""></stim_listA>",,html-keyboard-response,280,2098060,0.0-17.0-1.3,96221,List1A,white,woman,,,,null,,,,
null,are fighting each other,,html-keyboard-response,281,2100063,0.0-17.0-2.3,96221,List1A,white,woman,,,,null,,,,
8026,,,survey-text,282,2108091,0.0-17.0-3.3,96221,List1A,white,woman,,,,,"{""Q0"":""luke and fred are fighting each other""}","<img src=""stim_listA/fight6.gif""style=""height:400px;""></stim_listA>",are fighting each other,
null,"<div style=""font-size:60px;"">+</div>",,html-keyboard-response,283,2108607,0.0-17.0-0.4,96221,List1A,white,woman,,,,null,,,,
null,"<img src=""stim_listA/flirt6.gif""style=""height:400px;""></stim_listA>",,html-keyboard-response,284,2110625,0.0-17.0-1.4,96221,List1A,white,woman,,,,null,,,,
null,are flirting with each other,,html-keyboard-response,285,2112612,0.0-17.0-2.4,96221,List1A,white,woman,,,,null,,,,
9516,,,survey-text,286,2122131,0.0-17.0-3.4,96221,List1A,white,woman,,,,,"{""Q0"":""luke and mike are flirting with each other""}","<img src=""stim_listA/flirt6.gif""style=""height:400px;""></stim_listA>",are flirting with each other,
null,"<div style=""font-size:60px;"">+</div>",,html-keyboard-response,287,2122647,0.0-17.0-0.5,96221,List1A,white,woman,,,,null,,,,
null,"<img src=""stim_listA/flirt5.gif""style=""height:400px;""></stim_listA>",,html-keyboard-response,288,2124654,0.0-17.0-1.5,96221,List1A,white,woman,,,,null,,,,
null,is flirting with,,html-keyboard-response,289,2126655,0.0-17.0-2.5,96221,List1A,white,woman,,,,null,,,,
5335,,,survey-text,290,2131994,0.0-17.0-3.5,96221,List1A,white,woman,,,,,"{""Q0"":""fred is flirting with dave""}","<img src=""stim_listA/flirt5.gif""style=""height:400px;""></stim_listA>",is flirting with,
null,"<div style=""font-size:60px;"">+</div>",,html-keyboard-response,291,2132512,0.0-17.0-0.6,96221,List1A,white,woman,,,,null,,,,
null,"<img src=""stim_listA/shout6.gif""style=""height:400px;""></stim_listA>",,html-keyboard-response,292,2134526,0.0-17.0-1.6,96221,List1A,white,woman,,,,null,,,,
null,are shouting at each other,,html-keyboard-response,293,2136514,0.0-17.0-2.6,96221,List1A,white,woman,,,,null,,,,
9885,,,survey-text,294,2146403,0.0-17.0-3.6,96221,List1A,white,woman,,,,,"{""Q0"":""dave and mike are shouting at each other""}","<img src=""stim_listA/shout6.gif""style=""height:400px;""></stim_listA>",are shouting at each other,
null,"<div style=""font-size:60px;"">+</div>",,html-keyboard-response,295,2146918,0.0-17.0-0.7,96221,List1A,white,woman,,,,null,,,,
null,"<img src=""stim_listA/play3.gif""style=""height:400px;""></stim_listA>",,html-keyboard-response,296,2148934,0.0-17.0-1.7,96221,List1A,white,woman,,,,null,,,,
null,is playing with,,html-keyboard-response,297,2150928,0.0-17.0-2.7,96221,List1A,white,woman,,,,null,,,,
5902,,,survey-text,298,2156833,0.0-17.0-3.7,96221,List1A,white,woman,,,,,"{""Q0"":""jane is playing wtih dave""}","<img src=""stim_listA/play3.gif""style=""height:400px;""></stim_listA>",is playing with,
null,"<div style=""font-size:60px;"">+</div>",,html-keyboard-response,299,2157349,0.0-17.0-0.8,96221,List1A,white,woman,,,,null,,,,
null,"<img src=""stim_listA/kiss3.gif""style=""height:400px;""></stim_listA>",,html-keyboard-response,300,2159356,0.0-17.0-1.8,96221,List1A,white,woman,,,,null,,,,
null,is kissing,,html-keyboard-response,301,2161360,0.0-17.0-2.8,96221,List1A,white,woman,,,,null,,,,
7424,,,survey-text,302,2168789,0.0-17.0-3.8,96221,List1A,white,woman,,,,,"{""Q0"":""ruth is kissing luke""}","<img src=""stim_listA/kiss3.gif""style=""height:400px;""></stim_listA>",is kissing,
null,"<div style=""font-size:60px;"">+</div>",,html-keyboard-response,303,2169304,0.0-17.0-0.9,96221,List1A,white,woman,,,,null,,,,
null,"<img src=""stim_listA/play6.gif""style=""height:400px;""></stim_listA>",,html-keyboard-response,304,2171312,0.0-17.0-1.9,96221,List1A,white,woman,,,,null,,,,
null,are playing with each other,,html-keyboard-response,305,2173318,0.0-17.0-2.9,96221,List1A,white,woman,,,,null,,,,
9655,,,survey-text,306,2182977,0.0-17.0-3.9,96221,List1A,white,woman,,,,,"{""Q0"":""fred and luke are playing with each other""}","<img src=""stim_listA/play6.gif""style=""height:400px;""></stim_listA>",are playing with each other,
null,"<div style=""font-size:60px;"">+</div>",,html-keyboard-response,307,2183490,0.0-17.0-0.10,96221,List1A,white,woman,,,,null,,,,
null,"<img src=""stim_listA/marry8.gif""style=""height:400px;""></stim_listA>",,html-keyboard-response,308,2185495,0.0-17.0-1.10,96221,List1A,white,woman,,,,null,,,,
null,are marrying each other,,html-keyboard-response,309,2187498,0.0-17.0-2.10,96221,List1A,white,woman,,,,null,,,,
8998,,,survey-text,310,2196499,0.0-17.0-3.10,96221,List1A,white,woman,,,,,"{""Q0"":""jane and beth are marrying each other""}","<img src=""stim_listA/marry8.gif""style=""height:400px;""></stim_listA>",are marrying each other,
null,"<div style=""font-size:60px;"">+</div>",,html-keyboard-response,311,2197017,0.0-17.0-0.11,96221,List1A,white,woman,,,,null,,,,
null,"<img src=""stim_listA/dance3.gif""style=""height:400px;""></stim_listA>",,html-keyboard-response,312,2199030,0.0-17.0-1.11,96221,List1A,white,woman,,,,null,,,,
null,is dancing with,,html-keyboard-response,313,2201032,0.0-17.0-2.11,96221,List1A,white,woman,,,,null,,,,
5467,,,survey-text,314,2206503,0.0-17.0-3.11,96221,List1A,white,woman,,,,,"{""Q0"":""luke is dancing with jane""}","<img src=""stim_listA/dance3.gif""style=""height:400px;""></stim_listA>",is dancing with,
null,"<div style=""font-size:60px;"">+</div>",,html-keyboard-response,315,2207022,0.0-17.0-0.12,96221,List1A,white,woman,,,,null,,,,
null,"<img src=""stim_listA/flirt8.gif""style=""height:400px;""></stim_listA>",,html-keyboard-response,316,2209032,0.0-17.0-1.12,96221,List1A,white,woman,,,,null,,,,
null,are flirting with each other,,html-keyboard-response,317,2211036,0.0-17.0-2.12,96221,List1A,white,woman,,,,null,,,,
10722,,,survey-text,318,2221761,0.0-17.0-3.12,96221,List1A,white,woman,,,,,"{""Q0"":""ruth and kate are flirting with each other""}","<img src=""stim_listA/flirt8.gif""style=""height:400px;""></stim_listA>",are flirting with each other,
null,"<div style=""font-size:60px;"">+</div>",,html-keyboard-response,319,2222279,0.0-17.0-0.13,96221,List1A,white,woman,,,,null,,,,
null,"<img src=""stim_listA/marry5.gif""style=""height:400px;""></stim_listA>",,html-keyboard-response,320,2224282,0.0-17.0-1.13,96221,List1A,white,woman,,,,null,,,,
null,is marrying,,html-keyboard-response,321,2226283,0.0-17.0-2.13,96221,List1A,white,woman,,,,null,,,,
6091,,,survey-text,322,2232377,0.0-17.0-3.13,96221,List1A,white,woman,,,,,"{""Q0"":""mike is marrying luke""}","<img src=""stim_listA/marry5.gif""style=""height:400px;""></stim_listA>",is marrying,
null,"<div style=""font-size:60px;"">+</div>",,html-keyboard-response,323,2232894,0.0-17.0-0.14,96221,List1A,white,woman,,,,null,,,,
null,"<img src=""stim_listA/dance5.gif""style=""height:400px;""></stim_listA>",,html-keyboard-response,324,2234905,0.0-17.0-1.14,96221,List1A,white,woman,,,,null,,,,
null,is dancing with,,html-keyboard-response,325,2236906,0.0-17.0-2.14,96221,List1A,white,woman,,,,null,,,,
5609,,,survey-text,326,2242518,0.0-17.0-3.14,96221,List1A,white,woman,,,,,"{""Q0"":""fred is dancing with dave""}","<img src=""stim_listA/dance5.gif""style=""height:400px;""></stim_listA>",is dancing with,
null,"<div style=""font-size:60px;"">+</div>",,html-keyboard-response,327,2243034,0.0-17.0-0.15,96221,List1A,white,woman,,,,null,,,,
null,"<img src=""stim_listA/touch8.gif""style=""height:400px;""></stim_listA>",,html-keyboard-response,328,2245046,0.0-17.0-1.15,96221,List1A,white,woman,,,,null,,,,
null,are touching each other,,html-keyboard-response,329,2247049,0.0-17.0-2.15,96221,List1A,white,woman,,,,null,,,,
10832,,,survey-text,330,2257884,0.0-17.0-3.15,96221,List1A,white,woman,,,,,"{""Q0"":""ruth and beth are touching each other""}","<img src=""stim_listA/touch8.gif""style=""height:400px;""></stim_listA>",are touching each other,
null,"<div style=""font-size:60px;"">+</div>",,html-keyboard-response,331,2258399,0.0-17.0-0.16,96221,List1A,white,woman,,,,null,,,,
null,"<img src=""stim_listA/marry4.gif""style=""height:400px;""></stim_listA>",,html-keyboard-response,332,2260405,0.0-17.0-1.16,96221,List1A,white,woman,,,,null,,,,
null,are marrying each other,,html-keyboard-response,333,2262413,0.0-17.0-2.16,96221,List1A,white,woman,,,,null,,,,
7109,,,survey-text,334,2269530,0.0-17.0-3.16,96221,List1A,white,woman,,,,,"{""Q0"":""jane and luke are marrying each other""}","<img src=""stim_listA/marry4.gif""style=""height:400px;""></stim_listA>",are marrying each other,
null,"<div style=""font-size:60px;"">+</div>",,html-keyboard-response,335,2270048,0.0-17.0-0.17,96221,List1A,white,woman,,,,null,,,,
null,"<img src=""stim_listA/play8.gif""style=""height:400px;""></stim_listA>",,html-keyboard-response,336,2272058,0.0-17.0-1.17,96221,List1A,white,woman,,,,null,,,,
null,are playing with each other,,html-keyboard-response,337,2274062,0.0-17.0-2.17,96221,List1A,white,woman,,,,null,,,,
10472,,,survey-text,338,2284538,0.0-17.0-3.17,96221,List1A,white,woman,,,,,"{""Q0"":""ruth and beth are playing with each other""}","<img src=""stim_listA/play8.gif""style=""height:400px;""></stim_listA>",are playing with each other,
null,"<div style=""font-size:60px;"">+</div>",,html-keyboard-response,339,2285053,0.0-17.0-0.18,96221,List1A,white,woman,,,,null,,,,
null,"<img src=""stim_listA/fight4.gif""style=""height:400px;""></stim_listA>",,html-keyboard-response,340,2287060,0.0-17.0-1.18,96221,List1A,white,woman,,,,null,,,,
null,are fighting each other,,html-keyboard-response,341,2289064,0.0-17.0-2.18,96221,List1A,white,woman,,,,null,,,,
7121,,,survey-text,342,2296190,0.0-17.0-3.18,96221,List1A,white,woman,,,,,"{""Q0"":""ruth and luke are fighting each other""}","<img src=""stim_listA/fight4.gif""style=""height:400px;""></stim_listA>",are fighting each other,
null,"<div style=""font-size:60px;"">+</div>",,html-keyboard-response,343,2296705,0.0-17.0-0.19,96221,List1A,white,woman,,,,null,,,,
null,"<img src=""stim_listA/talk8.gif""style=""height:400px;""></stim_listA>",,html-keyboard-response,344,2298716,0.0-17.0-1.19,96221,List1A,white,woman,,,,null,,,,
null,are talking to each other,,html-keyboard-response,345,2300719,0.0-17.0-2.19,96221,List1A,white,woman,,,,null,,,,
13191,,,survey-text,346,2313913,0.0-17.0-3.19,96221,List1A,white,woman,,,,,"{""Q0"":""ruth and kate are talking to each other""}","<img src=""stim_listA/talk8.gif""style=""height:400px;""></stim_listA>",are talking to each other,
20636,"<img src='img/portrait_matrix_list1.jpg' style='width:900px;height:500px;''></img><p>If you have memorised all the portraits and names and are ready to start, press Continue.</p><p><strong>Please note: Your memory of these faces will be tested 4 times during this experiment.</strong></p>",0,html-button-response,347,2334555,0.0-18.0-0.0,96221,List1A,white,woman,,,,,,,,
5198,"<img src=""portrait/BW2.jpg""style=""height:400px;""></img>",2,html-button-response,348,2340817,0.0-18.0-1.0,96221,List1A,white,woman,,TRUE,2,,,,,
null,CORRECT,,html-keyboard-response,349,2342331,0.0-18.0-2.0-0.0,96221,List1A,white,woman,,,,null,,,,
3482,"<img src=""portrait/WM1.jpg""style=""height:400px;""></img>",6,html-button-response,350,2345820,0.0-18.0-4.0,96221,List1A,white,woman,,TRUE,6,,,,,
null,CORRECT,,html-keyboard-response,351,2347336,0.0-18.0-5.0-0.0,96221,List1A,white,woman,,,,null,,,,
4785,"<img src=""portrait/BW1.jpg""style=""height:400px;""></img>",0,html-button-response,352,2352127,0.0-18.0-7.0,96221,List1A,white,woman,,TRUE,0,,,,,
null,CORRECT,,html-keyboard-response,353,2353645,0.0-18.0-8.0-0.0,96221,List1A,white,woman,,,,null,,,,
3000,"<img src=""portrait/BM1.jpg""style=""height:400px;""></img>",4,html-button-response,354,2356650,0.0-18.0-10.0,96221,List1A,white,woman,,TRUE,4,,,,,
null,CORRECT,,html-keyboard-response,355,2358167,0.0-18.0-11.0-0.0,96221,List1A,white,woman,,,,null,,,,
2709,"<img src=""portrait/WW2.jpg""style=""height:400px;""></img>",3,html-button-response,356,2360883,0.0-18.0-13.0,96221,List1A,white,woman,,TRUE,3,,,,,
null,CORRECT,,html-keyboard-response,357,2362412,0.0-18.0-14.0-0.0,96221,List1A,white,woman,,,,null,,,,
3278,"<img src=""portrait/BM2.jpg""style=""height:400px;""></img>",5,html-button-response,358,2365695,0.0-18.0-16.0,96221,List1A,white,woman,,TRUE,5,,,,,
null,CORRECT,,html-keyboard-response,359,2367211,0.0-18.0-17.0-0.0,96221,List1A,white,woman,,,,null,,,,
2277,"<img src=""portrait/WM2.jpg""style=""height:400px;""></img>",7,html-button-response,360,2369491,0.0-18.0-19.0,96221,List1A,white,woman,,TRUE,7,,,,,
null,CORRECT,,html-keyboard-response,361,2371009,0.0-18.0-20.0-0.0,96221,List1A,white,woman,,,,null,,,,
3120,"<img src=""portrait/WW1.jpg""style=""height:400px;""></img>",1,html-button-response,362,2374134,0.0-18.0-22.0,96221,List1A,white,woman,,TRUE,1,,,,,
null,CORRECT,,html-keyboard-response,363,2375647,0.0-18.0-23.0-0.0,96221,List1A,white,woman,,,,null,,,,
2099,<p>You got 8 out of 8 right first time. Press Continue.</p>,0,html-button-response,364,2377749,0.0-18.0-25.0,96221,List1A,white,woman,,,,,,,,
null,"<div style=""font-size:60px;"">+</div>",,html-keyboard-response,365,2379268,0.0-19.0-0.0,96221,List1A,white,woman,,,,null,,,,
null,"<img src=""stim_listA/shout8.gif""style=""height:400px;""></stim_listA>",,html-keyboard-response,366,2381280,0.0-19.0-1.0,96221,List1A,white,woman,,,,null,,,,
null,are shouting at each other,,html-keyboard-response,367,2383279,0.0-19.0-2.0,96221,List1A,white,woman,,,,null,,,,
29671,,,survey-text,368,2412956,0.0-19.0-3.0,96221,List1A,white,woman,,,,,"{""Q0"":""kate and jane are shouting at each other""}","<img src=""stim_listA/shout8.gif""style=""height:400px;""></stim_listA>",are shouting at each other,
null,"<div style=""font-size:60px;"">+</div>",,html-keyboard-response,369,2413473,0.0-19.0-0.1,96221,List1A,white,woman,,,,null,,,,
null,"<img src=""stim_listA/play7.gif""style=""height:400px;""></stim_listA>",,html-keyboard-response,370,2415481,0.0-19.0-1.1,96221,List1A,white,woman,,,,null,,,,
null,is playing with,,html-keyboard-response,371,2417488,0.0-19.0-2.1,96221,List1A,white,woman,,,,null,,,,
5824,,,survey-text,372,2423315,0.0-19.0-3.1,96221,List1A,white,woman,,,,,"{""Q0"":""kate is playing with jane""}","<img src=""stim_listA/play7.gif""style=""height:400px;""></stim_listA>",is playing with,
null,"<div style=""font-size:60px;"">+</div>",,html-keyboard-response,373,2423830,0.0-19.0-0.2,96221,List1A,white,woman,,,,null,,,,
null,"<img src=""stim_listA/kiss7.gif""style=""height:400px;""></stim_listA>",,html-keyboard-response,374,2425842,0.0-19.0-1.2,96221,List1A,white,woman,,,,null,,,,
null,is kissing,,html-keyboard-response,375,2427846,0.0-19.0-2.2,96221,List1A,white,woman,,,,null,,,,
6067,,,survey-text,376,2433916,0.0-19.0-3.2,96221,List1A,white,woman,,,,,"{""Q0"":""beth is kissing ruth""}","<img src=""stim_listA/kiss7.gif""style=""height:400px;""></stim_listA>",is kissing,
null,"<div style=""font-size:60px;"">+</div>",,html-keyboard-response,377,2434435,0.0-19.0-0.3,96221,List1A,white,woman,,,,null,,,,
null,"<img src=""stim_listA/play1.gif""style=""height:400px;""></stim_listA>",,html-keyboard-response,378,2436450,0.0-19.0-1.3,96221,List1A,white,woman,,,,null,,,,
null,is playing with,,html-keyboard-response,379,2438441,0.0-19.0-2.3,96221,List1A,white,woman,,,,null,,,,
4703,,,survey-text,380,2443147,0.0-19.0-3.3,96221,List1A,white,woman,,,,,"{""Q0"":""mike is playing with kate""}","<img src=""stim_listA/play1.gif""style=""height:400px;""></stim_listA>",is playing with,
null,"<div style=""font-size:60px;"">+</div>",,html-keyboard-response,381,2443663,0.0-19.0-0.4,96221,List1A,white,woman,,,,null,,,,
null,"<img src=""stim_listA/fight3.gif""style=""height:400px;""></stim_listA>",,html-keyboard-response,382,2445671,0.0-19.0-1.4,96221,List1A,white,woman,,,,null,,,,
null,is fighting,,html-keyboard-response,383,2447673,0.0-19.0-2.4,96221,List1A,white,woman,,,,null,,,,
18247,,,survey-text,384,2465925,0.0-19.0-3.4,96221,List1A,white,woman,,,,,"{""Q0"":""jane is fighting dave""}","<img src=""stim_listA/fight3.gif""style=""height:400px;""></stim_listA>",is fighting,
null,"<div style=""font-size:60px;"">+</div>",,html-keyboard-response,385,2466441,0.0-19.0-0.5,96221,List1A,white,woman,,,,null,,,,
null,"<img src=""stim_listA/shout3.gif""style=""height:400px;""></stim_listA>",,html-keyboard-response,386,2468457,0.0-19.0-1.5,96221,List1A,white,woman,,,,null,,,,
null,is shouting at,,html-keyboard-response,387,2470444,0.0-19.0-2.5,96221,List1A,white,woman,,,,null,,,,
6746,,,survey-text,388,2477194,0.0-19.0-3.5,96221,List1A,white,woman,,,,,"{""Q0"":""ruth is shouting at luke""}","<img src=""stim_listA/shout3.gif""style=""height:400px;""></stim_listA>",is shouting at,
null,"<div style=""font-size:60px;"">+</div>",,html-keyboard-response,389,2477708,0.0-19.0-0.6,96221,List1A,white,woman,,,,null,,,,
null,"<img src=""stim_listA/marry1.gif""style=""height:400px;""></stim_listA>",,html-keyboard-response,390,2479719,0.0-19.0-1.6,96221,List1A,white,woman,,,,null,,,,
null,is marrying,,html-keyboard-response,391,2481721,0.0-19.0-2.6,96221,List1A,white,woman,,,,null,,,,
7840,,,survey-text,392,2489565,0.0-19.0-3.6,96221,List1A,white,woman,,,,,"{""Q0"":""beth is marrying mike""}","<img src=""stim_listA/marry1.gif""style=""height:400px;""></stim_listA>",is marrying,
null,"<div style=""font-size:60px;"">+</div>",,html-keyboard-response,393,2490081,0.0-19.0-0.7,96221,List1A,white,woman,,,,null,,,,
null,"<img src=""stim_listA/marry2.gif""style=""height:400px;""></stim_listA>",,html-keyboard-response,394,2492094,0.0-19.0-1.7,96221,List1A,white,woman,,,,null,,,,
null,are marrying each other,,html-keyboard-response,395,2494098,0.0-19.0-2.7,96221,List1A,white,woman,,,,null,,,,
22800,,,survey-text,396,2516902,0.0-19.0-3.7,96221,List1A,white,woman,,,,,"{""Q0"":""kate and fred are marrying each other""}","<img src=""stim_listA/marry2.gif""style=""height:400px;""></stim_listA>",are marrying each other,
null,"<div style=""font-size:60px;"">+</div>",,html-keyboard-response,397,2517417,0.0-19.0-0.8,96221,List1A,white,woman,,,,null,,,,
null,"<img src=""stim_listA/fight5.gif""style=""height:400px;""></stim_listA>",,html-keyboard-response,398,2519423,0.0-19.0-1.8,96221,List1A,white,woman,,,,null,,,,
null,is fighting,,html-keyboard-response,399,2521427,0.0-19.0-2.8,96221,List1A,white,woman,,,,null,,,,
4788,,,survey-text,400,2526219,0.0-19.0-3.8,96221,List1A,white,woman,,,,,"{""Q0"":""dave is fighting mike""}","<img src=""stim_listA/fight5.gif""style=""height:400px;""></stim_listA>",is fighting,
null,"<div style=""font-size:60px;"">+</div>",,html-keyboard-response,401,2526735,0.0-19.0-0.9,96221,List1A,white,woman,,,,null,,,,
null,"<img src=""stim_listA/kiss6.gif""style=""height:400px;""></stim_listA>",,html-keyboard-response,402,2528749,0.0-19.0-1.9,96221,List1A,white,woman,,,,null,,,,
null,are kissing each other,,html-keyboard-response,403,2530742,0.0-19.0-2.9,96221,List1A,white,woman,,,,null,,,,
7857,,,survey-text,404,2538603,0.0-19.0-3.9,96221,List1A,white,woman,,,,,"{""Q0"":""dave and mike are kissing each other""}","<img src=""stim_listA/kiss6.gif""style=""height:400px;""></stim_listA>",are kissing each other,
null,"<div style=""font-size:60px;"">+</div>",,html-keyboard-response,405,2539111,0.0-19.0-0.10,96221,List1A,white,woman,,,,null,,,,
null,"<img src=""stim_listA/fight1.gif""style=""height:400px;""></stim_listA>",,html-keyboard-response,406,2541125,0.0-19.0-1.10,96221,List1A,white,woman,,,,null,,,,
null,is fighting,,html-keyboard-response,407,2543117,0.0-19.0-2.10,96221,List1A,white,woman,,,,null,,,,
6396,,,survey-text,408,2549517,0.0-19.0-3.10,96221,List1A,white,woman,,,,,"{""Q0"":""kate is fighting mike""}","<img src=""stim_listA/fight1.gif""style=""height:400px;""></stim_listA>",is fighting,
null,"<div style=""font-size:60px;"">+</div>",,html-keyboard-response,409,2550030,0.0-19.0-0.11,96221,List1A,white,woman,,,,null,,,,
null,"<img src=""stim_listA/argue2.gif""style=""height:400px;""></stim_listA>",,html-keyboard-response,410,2552048,0.0-19.0-1.11,96221,List1A,white,woman,,,,null,,,,
null,are arguing with each other,,html-keyboard-response,411,2554036,0.0-19.0-2.11,96221,List1A,white,woman,,,,null,,,,
7519,,,survey-text,412,2561559,0.0-19.0-3.11,96221,List1A,white,woman,,,,,"{""Q0"":""kate and fred are arguing with each other""}","<img src=""stim_listA/argue2.gif""style=""height:400px;""></stim_listA>",are arguing with each other,
null,"<div style=""font-size:60px;"">+</div>",,html-keyboard-response,413,2562074,0.0-19.0-0.12,96221,List1A,white,woman,,,,null,,,,
null,"<img src=""stim_listA/flirt2.gif""style=""height:400px;""></stim_listA>",,html-keyboard-response,414,2564091,0.0-19.0-1.12,96221,List1A,white,woman,,,,null,,,,
null,are flirting with each other,,html-keyboard-response,415,2566087,0.0-19.0-2.12,96221,List1A,white,woman,,,,null,,,,
9829,,,survey-text,416,2575921,0.0-19.0-3.12,96221,List1A,white,woman,,,,,"{""Q0"":""beth and mike are flirting with each other""}","<img src=""stim_listA/flirt2.gif""style=""height:400px;""></stim_listA>",are flirting with each other,
null,"<div style=""font-size:60px;"">+</div>",,html-keyboard-response,417,2576437,0.0-19.0-0.13,96221,List1A,white,woman,,,,null,,,,
null,"<img src=""stim_listA/shout7.gif""style=""height:400px;""></stim_listA>",,html-keyboard-response,418,2578454,0.0-19.0-1.13,96221,List1A,white,woman,,,,null,,,,
null,is shouting at,,html-keyboard-response,419,2580450,0.0-19.0-2.13,96221,List1A,white,woman,,,,null,,,,
5701,,,survey-text,420,2586154,0.0-19.0-3.13,96221,List1A,white,woman,,,,,"{""Q0"":""ruth is shoutng at beth""}","<img src=""stim_listA/shout7.gif""style=""height:400px;""></stim_listA>",is shouting at,
null,"<div style=""font-size:60px;"">+</div>",,html-keyboard-response,421,2586671,0.0-19.0-0.14,96221,List1A,white,woman,,,,null,,,,
null,"<img src=""stim_listA/kiss8.gif""style=""height:400px;""></stim_listA>",,html-keyboard-response,422,2588686,0.0-19.0-1.14,96221,List1A,white,woman,,,,null,,,,
null,are kissing each other,,html-keyboard-response,423,2590690,0.0-19.0-2.14,96221,List1A,white,woman,,,,null,,,,
60526,,,survey-text,424,2651217,0.0-19.0-3.14,96221,List1A,white,woman,,,,,"{""Q0"":""jane and kate are kissing each other""}","<img src=""stim_listA/kiss8.gif""style=""height:400px;""></stim_listA>",are kissing each other,
null,"<div style=""font-size:60px;"">+</div>",,html-keyboard-response,425,2651734,0.0-19.0-0.15,96221,List1A,white,woman,,,,null,,,,
null,"<img src=""stim_listA/dance2.gif""style=""height:400px;""></stim_listA>",,html-keyboard-response,426,2653747,0.0-19.0-1.15,96221,List1A,white,woman,,,,null,,,,
null,are dancing with each other,,html-keyboard-response,427,2655750,0.0-19.0-2.15,96221,List1A,white,woman,,,,null,,,,
74376,,,survey-text,428,2730129,0.0-19.0-3.15,96221,List1A,white,woman,,,,,"{""Q0"":""beth and mike are dancing with each other""}","<img src=""stim_listA/dance2.gif""style=""height:400px;""></stim_listA>",are dancing with each other,
null,"<div style=""font-size:60px;"">+</div>",,html-keyboard-response,429,2730644,0.0-19.0-0.16,96221,List1A,white,woman,,,,null,,,,
null,"<img src=""stim_listA/marry7.gif""style=""height:400px;""></stim_listA>",,html-keyboard-response,430,2732660,0.0-19.0-1.16,96221,List1A,white,woman,,,,null,,,,
null,is marrying,,html-keyboard-response,431,2734661,0.0-19.0-2.16,96221,List1A,white,woman,,,,null,,,,
7001,,,survey-text,432,2741667,0.0-19.0-3.16,96221,List1A,white,woman,,,,,"{""Q0"":""kate is marrying ruth""}","<img src=""stim_listA/marry7.gif""style=""height:400px;""></stim_listA>",is marrying,
null,"<div style=""font-size:60px;"">+</div>",,html-keyboard-response,433,2742183,0.0-19.0-0.17,96221,List1A,white,woman,,,,null,,,,
null,"<img src=""stim_listA/touch7.gif""style=""height:400px;""></stim_listA>",,html-keyboard-response,434,2744185,0.0-19.0-1.17,96221,List1A,white,woman,,,,null,,,,
null,is touching,,html-keyboard-response,435,2746193,0.0-19.0-2.17,96221,List1A,white,woman,,,,null,,,,
5679,,,survey-text,436,2751881,0.0-19.0-3.17,96221,List1A,white,woman,,,,,"{""Q0"":""jane is touching kate""}","<img src=""stim_listA/touch7.gif""style=""height:400px;""></stim_listA>",is touching,
null,"<div style=""font-size:60px;"">+</div>",,html-keyboard-response,437,2752397,0.0-19.0-0.18,96221,List1A,white,woman,,,,null,,,,
null,"<img src=""stim_listA/touch5.gif""style=""height:400px;""></stim_listA>",,html-keyboard-response,438,2754404,0.0-19.0-1.18,96221,List1A,white,woman,,,,null,,,,
null,is touching,,html-keyboard-response,439,2756400,0.0-19.0-2.18,96221,List1A,white,woman,,,,null,,,,
6417,,,survey-text,440,2762821,0.0-19.0-3.18,96221,List1A,white,woman,,,,,"{""Q0"":""dave is touching mike""}","<img src=""stim_listA/touch5.gif""style=""height:400px;""></stim_listA>",is touching,
null,"<div style=""font-size:60px;"">+</div>",,html-keyboard-response,441,2763336,0.0-19.0-0.19,96221,List1A,white,woman,,,,null,,,,
null,"<img src=""stim_listA/touch6.gif""style=""height:400px;""></stim_listA>",,html-keyboard-response,442,2765343,0.0-19.0-1.19,96221,List1A,white,woman,,,,null,,,,
null,are touching each other,,html-keyboard-response,443,2767344,0.0-19.0-2.19,96221,List1A,white,woman,,,,null,,,,
7983,,,survey-text,444,2775331,0.0-19.0-3.19,96221,List1A,white,woman,,,,,"{""Q0"":""fred and luke are touching each other""}","<img src=""stim_listA/touch6.gif""style=""height:400px;""></stim_listA>",are touching each other,
2406,<p>Thank you for completing that task.</p><p>The final part of this session is a short questionnaire.</p><p>Press Continue.</p>,0,html-button-response,445,2777743,0.0-20.0,96221,List1A,white,woman,,,,,,,,
98549,,,survey-text,446,2877310,0.0-21.0,96221,List1A,white,woman,,,,,"{""Q0"":""20"",""Q1"":""English"",""Q2"":""English"",""Q3"":""Scotland"",""Q4"":""Scottish"",""Q5"":""Female""}",,,demographics
9613,,,survey-likert,447,2886932,0.0-22.0,96221,List1A,white,woman,,,,,"{""Q0"":4}",,,likert_ESS
7294,,,survey-likert,448,2894232,0.0-23.0,96221,List1A,white,woman,,,,,"{""Q0"":4}",,,likert_NSSAL_Q1
6308,,,survey-likert,449,2900543,0.0-24.0,96221,List1A,white,woman,,,,,"{""Q0"":4}",,,likert_NSSAL_Q2
6414,,,survey-likert,450,2906961,0.0-25.0,96221,List1A,white,woman,,,,,"{""Q0"":4}",,,likert_CGRS_Q1
4694,,,survey-likert,451,2911661,0.0-26.0,96221,List1A,white,woman,,,,,"{""Q0"":4}",,,likert_CGRS_Q2
11235,,,survey-likert,452,2922902,0.0-27.0,96221,List1A,white,woman,,,,,"{""Q0"":4}",,,likert_CGRS_Q3
63282,,,survey-text,453,2986190,0.0-28.0,96221,List1A,white,woman,,,,,"{""Q0"":""ccc""}",,,worker_id
5234,,,external-html,454,2992258,0.0-29.0,96221,List1A,white,woman,debrief.html,,,,,,,
