rt,stimulus,button_pressed,trial_type,trial_index,time_elapsed,internal_node_id,subject,list,ppt_race,ppt_gender,url,first_guess,correct,key_press,responses,image_type,phrase_type,test_part
3621,Welcome to the experiment. Press Continue to begin.,0,html-button-response,0,3624,0.0-0.0,96459,List1A,black,man,,,,,,,,
94924,,,external-html,1,99800,0.0-1.0,96459,List1A,black,man,consent.html,,,,,,,
14144,"<p>On the next page, you will see portraits of 8 people and their names.</p><p>Your first task is to take a few minutes to memorise the names of these people.</p><p>You will have to recall their names during the rest of the experiment, so it is</p><p>essential that you try to memorise these people and their names as best as you can.</p><br><p><strong>You will then be tested on your memory of these names and portraits.</strong></p><br><p>The experiment will start after you have completed this memory test.</p><br><p>Ready?</p>",0,html-button-response,2,113945,0.0-2.0,96459,List1A,black,man,,,,,,,,
318951,"<img src='img/portrait_matrix_list1.jpg' style='width:900px;height:500px;''></img><p>If you have memorised all the portraits and names and are ready to start, press Continue.</p><p><strong>Please note: Your memory of these faces will be tested 4 times during this experiment.</strong></p>",0,html-button-response,3,433899,0.0-3.0-0.0,96459,List1A,black,man,,,,,,,,
8280,"<img src=""portrait/BW1.jpg""style=""height:400px;""></img>",0,html-button-response,4,443182,0.0-3.0-1.0,96459,List1A,black,man,,TRUE,0,,,,,
null,CORRECT,,html-keyboard-response,5,444693,0.0-3.0-2.0-0.0,96459,List1A,black,man,,,,null,,,,
5962,"<img src=""portrait/BM2.jpg""style=""height:400px;""></img>",5,html-button-response,6,450657,0.0-3.0-4.0,96459,List1A,black,man,,TRUE,5,,,,,
null,CORRECT,,html-keyboard-response,7,452172,0.0-3.0-5.0-0.0,96459,List1A,black,man,,,,null,,,,
7232,"<img src=""portrait/WW1.jpg""style=""height:400px;""></img>",1,html-button-response,8,459405,0.0-3.0-7.0,96459,List1A,black,man,,TRUE,1,,,,,
null,CORRECT,,html-keyboard-response,9,460916,0.0-3.0-8.0-0.0,96459,List1A,black,man,,,,null,,,,
2250,"<img src=""portrait/BW2.jpg""style=""height:400px;""></img>",2,html-button-response,10,463167,0.0-3.0-10.0,96459,List1A,black,man,,TRUE,2,,,,,
null,CORRECT,,html-keyboard-response,11,464670,0.0-3.0-11.0-0.0,96459,List1A,black,man,,,,null,,,,
12737,"<img src=""portrait/BM1.jpg""style=""height:400px;""></img>",4,html-button-response,12,477408,0.0-3.0-13.0,96459,List1A,black,man,,TRUE,4,,,,,
null,CORRECT,,html-keyboard-response,13,478925,0.0-3.0-14.0-0.0,96459,List1A,black,man,,,,null,,,,
4280,"<img src=""portrait/WM1.jpg""style=""height:400px;""></img>",6,html-button-response,14,483206,0.0-3.0-16.0,96459,List1A,black,man,,TRUE,6,,,,,
null,CORRECT,,html-keyboard-response,15,484728,0.0-3.0-17.0-0.0,96459,List1A,black,man,,,,null,,,,
1999,"<img src=""portrait/WM2.jpg""style=""height:400px;""></img>",7,html-button-response,16,486728,0.0-3.0-19.0,96459,List1A,black,man,,TRUE,7,,,,,
null,CORRECT,,html-keyboard-response,17,488242,0.0-3.0-20.0-0.0,96459,List1A,black,man,,,,null,,,,
2433,"<img src=""portrait/WW2.jpg""style=""height:400px;""></img>",3,html-button-response,18,490676,0.0-3.0-22.0,96459,List1A,black,man,,TRUE,3,,,,,
null,CORRECT,,html-keyboard-response,19,492180,0.0-3.0-23.0-0.0,96459,List1A,black,man,,,,null,,,,
5325,<p>You got 8 out of 8 right first time. Press Continue.</p>,0,html-button-response,20,497507,0.0-3.0-25.0,96459,List1A,black,man,,,,,,,,
77486,"<p>In this experiment, you will view photographs of the people from the memory game interacting.</p><p>By using the <strong>exact</strong> phrase given <i>after</i> the photograph appears and recalling the correct names of the people in the photographs, form a sentence describing the interaction. You do not need to capitalise names.</p><p>Type your answer in the space provided. Please complete every sentence before moving onto the next trial.</p><p>You will only have a few seconds to memorise each given photograph and phrase before you can respond, so try your best to focus.</p><p>An example is given below. Press 'Continue' when you are ready.</p><img src='img/speaking_example.jpg' style='width:800px;height:460px;''></img>",0,html-button-response,21,575996,0.0-4.0,96459,List1A,black,man,,,,,,,,
4107,"<p>Before the experiment starts, you will watch two example trials. Press 'Continue'.</p>",0,html-button-response,22,581109,0.0-5.0,96459,List1A,black,man,,,,,,,,
null,<img src='img/meet_eg.gif' style='height:400px;''></img>,,html-keyboard-response,23,584115,0.0-6.0,96459,List1A,black,man,,,,null,,,,
null,<p>is meeting</p>,,html-keyboard-response,24,586126,0.0-7.0,96459,List1A,black,man,,,,null,,,,
8248,<p><b>Answer:</b> kate is meeting beth</p>,0,html-button-response,25,594376,0.0-8.0,96459,List1A,black,man,,,,,,,,
null,<img src='img/look_eg.gif' style='height:400px;''></img>,,html-keyboard-response,26,597379,0.0-9.0,96459,List1A,black,man,,,,null,,,,
null,<p>are looking at each other</p>,,html-keyboard-response,27,599381,0.0-10.0,96459,List1A,black,man,,,,null,,,,
6157,<p><b>Answer:</b> luke and dave are looking at each other</p>,0,html-button-response,28,605538,0.0-11.0,96459,List1A,black,man,,,,,,,,
17339,"<p>Ready to start the experiment?</p><br><p><strong>Remember to describe the picture using a full sentence,</strong></p><p><strong>that combines the names of the people with the <i>exact</i> phrase given.</strong></p><p><strong>To receive full payment you must do this correctly.</strong></p><p><strong> You do not need to capitalise names or use punctuation.</strong></p><br><p>Press 'Continue' to begin.</p>",0,html-button-response,29,623880,0.0-12.0,96459,List1A,black,man,,,,,,,,
null,"<div style=""font-size:60px;"">+</div>",,html-keyboard-response,30,625382,0.0-13.0-0.0,96459,List1A,black,man,,,,null,,,,
null,"<img src=""stim_listA/flirt3.gif""style=""height:400px;""></stim_listA>",,html-keyboard-response,31,627384,0.0-13.0-1.0,96459,List1A,black,man,,,,null,,,,
null,is flirting with,,html-keyboard-response,32,629386,0.0-13.0-2.0,96459,List1A,black,man,,,,null,,,,
29723,,,survey-text,33,659110,0.0-13.0-3.0,96459,List1A,black,man,,,,,"{""Q0"":""jane is flirting with luke""}","<img src=""stim_listA/flirt3.gif""style=""height:400px;""></stim_listA>",is flirting with,
null,"<div style=""font-size:60px;"">+</div>",,html-keyboard-response,34,659612,0.0-13.0-0.1,96459,List1A,black,man,,,,null,,,,
null,"<img src=""stim_listA/play3.gif""style=""height:400px;""></stim_listA>",,html-keyboard-response,35,661614,0.0-13.0-1.1,96459,List1A,black,man,,,,null,,,,
null,is playing with,,html-keyboard-response,36,663616,0.0-13.0-2.1,96459,List1A,black,man,,,,null,,,,
24776,,,survey-text,37,688393,0.0-13.0-3.1,96459,List1A,black,man,,,,,"{""Q0"":""Jane is playing with Dave""}","<img src=""stim_listA/play3.gif""style=""height:400px;""></stim_listA>",is playing with,
null,"<div style=""font-size:60px;"">+</div>",,html-keyboard-response,38,688909,0.0-13.0-0.2,96459,List1A,black,man,,,,null,,,,
null,"<img src=""stim_listA/fight7.gif""style=""height:400px;""></stim_listA>",,html-keyboard-response,39,690911,0.0-13.0-1.2,96459,List1A,black,man,,,,null,,,,
null,is fighting,,html-keyboard-response,40,692913,0.0-13.0-2.2,96459,List1A,black,man,,,,null,,,,
16201,,,survey-text,41,709114,0.0-13.0-3.2,96459,List1A,black,man,,,,,"{""Q0"":""Jane is fighting with kate""}","<img src=""stim_listA/fight7.gif""style=""height:400px;""></stim_listA>",is fighting,
null,"<div style=""font-size:60px;"">+</div>",,html-keyboard-response,42,709616,0.0-13.0-0.3,96459,List1A,black,man,,,,null,,,,
null,"<img src=""stim_listA/play7.gif""style=""height:400px;""></stim_listA>",,html-keyboard-response,43,711618,0.0-13.0-1.3,96459,List1A,black,man,,,,null,,,,
null,is playing with,,html-keyboard-response,44,713619,0.0-13.0-2.3,96459,List1A,black,man,,,,null,,,,
14282,,,survey-text,45,727902,0.0-13.0-3.3,96459,List1A,black,man,,,,,"{""Q0"":""Jane is playing with Kate""}","<img src=""stim_listA/play7.gif""style=""height:400px;""></stim_listA>",is playing with,
null,"<div style=""font-size:60px;"">+</div>",,html-keyboard-response,46,728403,0.0-13.0-0.4,96459,List1A,black,man,,,,null,,,,
null,"<img src=""stim_listA/kiss1.gif""style=""height:400px;""></stim_listA>",,html-keyboard-response,47,730405,0.0-13.0-1.4,96459,List1A,black,man,,,,null,,,,
null,is kissing,,html-keyboard-response,48,732406,0.0-13.0-2.4,96459,List1A,black,man,,,,null,,,,
13105,,,survey-text,49,745512,0.0-13.0-3.4,96459,List1A,black,man,,,,,"{""Q0"":""Dave is kissing Beth""}","<img src=""stim_listA/kiss1.gif""style=""height:400px;""></stim_listA>",is kissing,
null,"<div style=""font-size:60px;"">+</div>",,html-keyboard-response,50,746013,0.0-13.0-0.5,96459,List1A,black,man,,,,null,,,,
null,"<img src=""stim_listA/kiss3.gif""style=""height:400px;""></stim_listA>",,html-keyboard-response,51,748015,0.0-13.0-1.5,96459,List1A,black,man,,,,null,,,,
null,is kissing,,html-keyboard-response,52,750016,0.0-13.0-2.5,96459,List1A,black,man,,,,null,,,,
19626,,,survey-text,53,769643,0.0-13.0-3.5,96459,List1A,black,man,,,,,"{""Q0"":""luke is kissing ruth""}","<img src=""stim_listA/kiss3.gif""style=""height:400px;""></stim_listA>",is kissing,
null,"<div style=""font-size:60px;"">+</div>",,html-keyboard-response,54,770156,0.0-13.0-0.6,96459,List1A,black,man,,,,null,,,,
null,"<img src=""stim_listA/shout7.gif""style=""height:400px;""></stim_listA>",,html-keyboard-response,55,772158,0.0-13.0-1.6,96459,List1A,black,man,,,,null,,,,
null,is shouting at,,html-keyboard-response,56,774173,0.0-13.0-2.6,96459,List1A,black,man,,,,null,,,,
18765,,,survey-text,57,792939,0.0-13.0-3.6,96459,List1A,black,man,,,,,"{""Q0"":""ruth is shouting at Beth""}","<img src=""stim_listA/shout7.gif""style=""height:400px;""></stim_listA>",is shouting at,
null,"<div style=""font-size:60px;"">+</div>",,html-keyboard-response,58,793441,0.0-13.0-0.7,96459,List1A,black,man,,,,null,,,,
null,"<img src=""stim_listA/dance3.gif""style=""height:400px;""></stim_listA>",,html-keyboard-response,59,795443,0.0-13.0-1.7,96459,List1A,black,man,,,,null,,,,
null,is dancing with,,html-keyboard-response,60,797445,0.0-13.0-2.7,96459,List1A,black,man,,,,null,,,,
18756,,,survey-text,61,816201,0.0-13.0-3.7,96459,List1A,black,man,,,,,"{""Q0"":""Jane is dancing with luke""}","<img src=""stim_listA/dance3.gif""style=""height:400px;""></stim_listA>",is dancing with,
null,"<div style=""font-size:60px;"">+</div>",,html-keyboard-response,62,816703,0.0-13.0-0.8,96459,List1A,black,man,,,,null,,,,
null,"<img src=""stim_listA/flirt8.gif""style=""height:400px;""></stim_listA>",,html-keyboard-response,63,818704,0.0-13.0-1.8,96459,List1A,black,man,,,,null,,,,
null,are flirting with each other,,html-keyboard-response,64,820720,0.0-13.0-2.8,96459,List1A,black,man,,,,null,,,,
22977,,,survey-text,65,843699,0.0-13.0-3.8,96459,List1A,black,man,,,,,"{""Q0"":""Kate is meeting ruth""}","<img src=""stim_listA/flirt8.gif""style=""height:400px;""></stim_listA>",are flirting with each other,
null,"<div style=""font-size:60px;"">+</div>",,html-keyboard-response,66,844202,0.0-13.0-0.9,96459,List1A,black,man,,,,null,,,,
null,"<img src=""stim_listA/marry4.gif""style=""height:400px;""></stim_listA>",,html-keyboard-response,67,846204,0.0-13.0-1.9,96459,List1A,black,man,,,,null,,,,
null,are marrying each other,,html-keyboard-response,68,848204,0.0-13.0-2.9,96459,List1A,black,man,,,,null,,,,
32665,,,survey-text,69,880870,0.0-13.0-3.9,96459,List1A,black,man,,,,,"{""Q0"":""dave is marrying jane""}","<img src=""stim_listA/marry4.gif""style=""height:400px;""></stim_listA>",are marrying each other,
null,"<div style=""font-size:60px;"">+</div>",,html-keyboard-response,70,881377,0.0-13.0-0.10,96459,List1A,black,man,,,,null,,,,
null,"<img src=""stim_listA/dance2.gif""style=""height:400px;""></stim_listA>",,html-keyboard-response,71,883378,0.0-13.0-1.10,96459,List1A,black,man,,,,null,,,,
null,are dancing with each other,,html-keyboard-response,72,885379,0.0-13.0-2.10,96459,List1A,black,man,,,,null,,,,
19216,,,survey-text,73,904596,0.0-13.0-3.10,96459,List1A,black,man,,,,,"{""Q0"":""mike is dancing with Beth""}","<img src=""stim_listA/dance2.gif""style=""height:400px;""></stim_listA>",are dancing with each other,
null,"<div style=""font-size:60px;"">+</div>",,html-keyboard-response,74,905098,0.0-13.0-0.11,96459,List1A,black,man,,,,null,,,,
null,"<img src=""stim_listA/marry5.gif""style=""height:400px;""></stim_listA>",,html-keyboard-response,75,907100,0.0-13.0-1.11,96459,List1A,black,man,,,,null,,,,
null,is marrying,,html-keyboard-response,76,909100,0.0-13.0-2.11,96459,List1A,black,man,,,,null,,,,
19304,,,survey-text,77,928405,0.0-13.0-3.11,96459,List1A,black,man,,,,,"{""Q0"":""dave is marrying mike""}","<img src=""stim_listA/marry5.gif""style=""height:400px;""></stim_listA>",is marrying,
null,"<div style=""font-size:60px;"">+</div>",,html-keyboard-response,78,928908,0.0-13.0-0.12,96459,List1A,black,man,,,,null,,,,
null,"<img src=""stim_listA/argue3.gif""style=""height:400px;""></stim_listA>",,html-keyboard-response,79,930909,0.0-13.0-1.12,96459,List1A,black,man,,,,null,,,,
null,is arguing with,,html-keyboard-response,80,932911,0.0-13.0-2.12,96459,List1A,black,man,,,,null,,,,
22453,,,survey-text,81,955365,0.0-13.0-3.12,96459,List1A,black,man,,,,,"{""Q0"":""Dave is arguing with Ruth""}","<img src=""stim_listA/argue3.gif""style=""height:400px;""></stim_listA>",is arguing with,
null,"<div style=""font-size:60px;"">+</div>",,html-keyboard-response,82,955879,0.0-13.0-0.13,96459,List1A,black,man,,,,null,,,,
null,"<img src=""stim_listA/argue5.gif""style=""height:400px;""></stim_listA>",,html-keyboard-response,83,957881,0.0-13.0-1.13,96459,List1A,black,man,,,,null,,,,
null,is arguing with,,html-keyboard-response,84,959881,0.0-13.0-2.13,96459,List1A,black,man,,,,null,,,,
28322,,,survey-text,85,988204,0.0-13.0-3.13,96459,List1A,black,man,,,,,"{""Q0"":""mike is arguing with luke""}","<img src=""stim_listA/argue5.gif""style=""height:400px;""></stim_listA>",is arguing with,
null,"<div style=""font-size:60px;"">+</div>",,html-keyboard-response,86,988711,0.0-13.0-0.14,96459,List1A,black,man,,,,null,,,,
null,"<img src=""stim_listA/play2.gif""style=""height:400px;""></stim_listA>",,html-keyboard-response,87,990713,0.0-13.0-1.14,96459,List1A,black,man,,,,null,,,,
null,are playing with each other,,html-keyboard-response,88,992729,0.0-13.0-2.14,96459,List1A,black,man,,,,null,,,,
21387,,,survey-text,89,1014116,0.0-13.0-3.14,96459,List1A,black,man,,,,,"{""Q0"":""kevin are playing with beth""}","<img src=""stim_listA/play2.gif""style=""height:400px;""></stim_listA>",are playing with each other,
null,"<div style=""font-size:60px;"">+</div>",,html-keyboard-response,90,1014619,0.0-13.0-0.15,96459,List1A,black,man,,,,null,,,,
null,"<img src=""stim_listA/fight1.gif""style=""height:400px;""></stim_listA>",,html-keyboard-response,91,1016620,0.0-13.0-1.15,96459,List1A,black,man,,,,null,,,,
null,is fighting,,html-keyboard-response,92,1018621,0.0-13.0-2.15,96459,List1A,black,man,,,,null,,,,
21454,,,survey-text,93,1040076,0.0-13.0-3.15,96459,List1A,black,man,,,,,"{""Q0"":""kate is  fighting with mike""}","<img src=""stim_listA/fight1.gif""style=""height:400px;""></stim_listA>",is fighting,
null,"<div style=""font-size:60px;"">+</div>",,html-keyboard-response,94,1040586,0.0-13.0-0.16,96459,List1A,black,man,,,,null,,,,
null,"<img src=""stim_listA/kiss4.gif""style=""height:400px;""></stim_listA>",,html-keyboard-response,95,1042587,0.0-13.0-1.16,96459,List1A,black,man,,,,null,,,,
null,are kissing each other,,html-keyboard-response,96,1044597,0.0-13.0-2.16,96459,List1A,black,man,,,,null,,,,
22330,,,survey-text,97,1066927,0.0-13.0-3.16,96459,List1A,black,man,,,,,"{""Q0"":""dave and jane are kissing each other""}","<img src=""stim_listA/kiss4.gif""style=""height:400px;""></stim_listA>",are kissing each other,
null,"<div style=""font-size:60px;"">+</div>",,html-keyboard-response,98,1067429,0.0-13.0-0.17,96459,List1A,black,man,,,,null,,,,
null,"<img src=""stim_listA/marry3.gif""style=""height:400px;""></stim_listA>",,html-keyboard-response,99,1069431,0.0-13.0-1.17,96459,List1A,black,man,,,,null,,,,
null,is marrying,,html-keyboard-response,100,1071434,0.0-13.0-2.17,96459,List1A,black,man,,,,null,,,,
13104,,,survey-text,101,1084539,0.0-13.0-3.17,96459,List1A,black,man,,,,,"{""Q0"":""Dave is marring ruth""}","<img src=""stim_listA/marry3.gif""style=""height:400px;""></stim_listA>",is marrying,
null,"<div style=""font-size:60px;"">+</div>",,html-keyboard-response,102,1085041,0.0-13.0-0.18,96459,List1A,black,man,,,,null,,,,
null,"<img src=""stim_listA/play8.gif""style=""height:400px;""></stim_listA>",,html-keyboard-response,103,1087043,0.0-13.0-1.18,96459,List1A,black,man,,,,null,,,,
null,are playing with each other,,html-keyboard-response,104,1089044,0.0-13.0-2.18,96459,List1A,black,man,,,,null,,,,
27432,,,survey-text,105,1116477,0.0-13.0-3.18,96459,List1A,black,man,,,,,"{""Q0"":""kate  and beth are playing with each other""}","<img src=""stim_listA/play8.gif""style=""height:400px;""></stim_listA>",are playing with each other,
null,"<div style=""font-size:60px;"">+</div>",,html-keyboard-response,106,1116978,0.0-13.0-0.19,96459,List1A,black,man,,,,null,,,,
null,"<img src=""stim_listA/talk3.gif""style=""height:400px;""></stim_listA>",,html-keyboard-response,107,1118980,0.0-13.0-1.19,96459,List1A,black,man,,,,null,,,,
null,is talking to,,html-keyboard-response,108,1120981,0.0-13.0-2.19,96459,List1A,black,man,,,,null,,,,
10634,,,survey-text,109,1131615,0.0-13.0-3.19,96459,List1A,black,man,,,,,"{""Q0"":""mike is talking to jane""}","<img src=""stim_listA/talk3.gif""style=""height:400px;""></stim_listA>",is talking to,
74463,"<img src='img/portrait_matrix_list1.jpg' style='width:900px;height:500px;''></img><p>If you have memorised all the portraits and names and are ready to start, press Continue.</p><p><strong>Please note: Your memory of these faces will be tested 4 times during this experiment.</strong></p>",0,html-button-response,110,1206079,0.0-14.0-0.0,96459,List1A,black,man,,,,,,,,
4358,"<img src=""portrait/WW2.jpg""style=""height:400px;""></img>",3,html-button-response,111,1211440,0.0-14.0-1.0,96459,List1A,black,man,,TRUE,3,,,,,
null,CORRECT,,html-keyboard-response,112,1212948,0.0-14.0-2.0-0.0,96459,List1A,black,man,,,,null,,,,
3918,"<img src=""portrait/BW2.jpg""style=""height:400px;""></img>",2,html-button-response,113,1216866,0.0-14.0-4.0,96459,List1A,black,man,,TRUE,2,,,,,
null,CORRECT,,html-keyboard-response,114,1218377,0.0-14.0-5.0-0.0,96459,List1A,black,man,,,,null,,,,
3818,"<img src=""portrait/BM2.jpg""style=""height:400px;""></img>",5,html-button-response,115,1222197,0.0-14.0-7.0,96459,List1A,black,man,,TRUE,5,,,,,
null,CORRECT,,html-keyboard-response,116,1223701,0.0-14.0-8.0-0.0,96459,List1A,black,man,,,,null,,,,
1935,"<img src=""portrait/WM2.jpg""style=""height:400px;""></img>",7,html-button-response,117,1225637,0.0-14.0-10.0,96459,List1A,black,man,,TRUE,7,,,,,
null,CORRECT,,html-keyboard-response,118,1227152,0.0-14.0-11.0-0.0,96459,List1A,black,man,,,,null,,,,
2652,"<img src=""portrait/WM1.jpg""style=""height:400px;""></img>",6,html-button-response,119,1229805,0.0-14.0-13.0,96459,List1A,black,man,,TRUE,6,,,,,
null,CORRECT,,html-keyboard-response,120,1231307,0.0-14.0-14.0-0.0,96459,List1A,black,man,,,,null,,,,
6267,"<img src=""portrait/WW1.jpg""style=""height:400px;""></img>",1,html-button-response,121,1237575,0.0-14.0-16.0,96459,List1A,black,man,,TRUE,1,,,,,
null,CORRECT,,html-keyboard-response,122,1239093,0.0-14.0-17.0-0.0,96459,List1A,black,man,,,,null,,,,
3036,"<img src=""portrait/BW1.jpg""style=""height:400px;""></img>",0,html-button-response,123,1242130,0.0-14.0-19.0,96459,List1A,black,man,,TRUE,0,,,,,
null,CORRECT,,html-keyboard-response,124,1243632,0.0-14.0-20.0-0.0,96459,List1A,black,man,,,,null,,,,
2542,"<img src=""portrait/BM1.jpg""style=""height:400px;""></img>",4,html-button-response,125,1246176,0.0-14.0-22.0,96459,List1A,black,man,,TRUE,4,,,,,
null,CORRECT,,html-keyboard-response,126,1247680,0.0-14.0-23.0-0.0,96459,List1A,black,man,,,,null,,,,
2140,<p>You got 8 out of 8 right first time. Press Continue.</p>,0,html-button-response,127,1249820,0.0-14.0-25.0,96459,List1A,black,man,,,,,,,,
null,"<div style=""font-size:60px;"">+</div>",,html-keyboard-response,128,1251322,0.0-15.0-0.0,96459,List1A,black,man,,,,null,,,,
null,"<img src=""stim_listA/talk6.gif""style=""height:400px;""></stim_listA>",,html-keyboard-response,129,1253324,0.0-15.0-1.0,96459,List1A,black,man,,,,null,,,,
null,are talking to each other,,html-keyboard-response,130,1255326,0.0-15.0-2.0,96459,List1A,black,man,,,,null,,,,
27997,,,survey-text,131,1283324,0.0-15.0-3.0,96459,List1A,black,man,,,,,"{""Q0"":""mike and luke are talking to each other""}","<img src=""stim_listA/talk6.gif""style=""height:400px;""></stim_listA>",are talking to each other,
null,"<div style=""font-size:60px;"">+</div>",,html-keyboard-response,132,1283825,0.0-15.0-0.1,96459,List1A,black,man,,,,null,,,,
null,"<img src=""stim_listA/play6.gif""style=""height:400px;""></stim_listA>",,html-keyboard-response,133,1285827,0.0-15.0-1.1,96459,List1A,black,man,,,,null,,,,
null,are playing with each other,,html-keyboard-response,134,1287828,0.0-15.0-2.1,96459,List1A,black,man,,,,null,,,,
32486,,,survey-text,135,1320316,0.0-15.0-3.1,96459,List1A,black,man,,,,,"{""Q0"":""mike and kevin  are playing with each other""}","<img src=""stim_listA/play6.gif""style=""height:400px;""></stim_listA>",are playing with each other,
null,"<div style=""font-size:60px;"">+</div>",,html-keyboard-response,136,1320817,0.0-15.0-0.2,96459,List1A,black,man,,,,null,,,,
null,"<img src=""stim_listA/talk1.gif""style=""height:400px;""></stim_listA>",,html-keyboard-response,137,1322819,0.0-15.0-1.2,96459,List1A,black,man,,,,null,,,,
null,is talking to,,html-keyboard-response,138,1324831,0.0-15.0-2.2,96459,List1A,black,man,,,,null,,,,
14113,,,survey-text,139,1338945,0.0-15.0-3.2,96459,List1A,black,man,,,,,"{""Q0"":""kevin is talking to kate""}","<img src=""stim_listA/talk1.gif""style=""height:400px;""></stim_listA>",is talking to,
null,"<div style=""font-size:60px;"">+</div>",,html-keyboard-response,140,1339447,0.0-15.0-0.3,96459,List1A,black,man,,,,null,,,,
null,"<img src=""stim_listA/play1.gif""style=""height:400px;""></stim_listA>",,html-keyboard-response,141,1341449,0.0-15.0-1.3,96459,List1A,black,man,,,,null,,,,
null,is playing with,,html-keyboard-response,142,1343451,0.0-15.0-2.3,96459,List1A,black,man,,,,null,,,,
10945,,,survey-text,143,1354397,0.0-15.0-3.3,96459,List1A,black,man,,,,,"{""Q0"":""mike is playing with kate""}","<img src=""stim_listA/play1.gif""style=""height:400px;""></stim_listA>",is playing with,
null,"<div style=""font-size:60px;"">+</div>",,html-keyboard-response,144,1354911,0.0-15.0-0.4,96459,List1A,black,man,,,,null,,,,
null,"<img src=""stim_listA/marry6.gif""style=""height:400px;""></stim_listA>",,html-keyboard-response,145,1356913,0.0-15.0-1.4,96459,List1A,black,man,,,,null,,,,
null,are marrying each other,,html-keyboard-response,146,1358914,0.0-15.0-2.4,96459,List1A,black,man,,,,null,,,,
15728,,,survey-text,147,1374644,0.0-15.0-3.4,96459,List1A,black,man,,,,,"{""Q0"":""fred and dave are marrying each other""}","<img src=""stim_listA/marry6.gif""style=""height:400px;""></stim_listA>",are marrying each other,
null,"<div style=""font-size:60px;"">+</div>",,html-keyboard-response,148,1375145,0.0-15.0-0.5,96459,List1A,black,man,,,,null,,,,
null,"<img src=""stim_listA/kiss2.gif""style=""height:400px;""></stim_listA>",,html-keyboard-response,149,1377147,0.0-15.0-1.5,96459,List1A,black,man,,,,null,,,,
null,are kissing each other,,html-keyboard-response,150,1379148,0.0-15.0-2.5,96459,List1A,black,man,,,,null,,,,
21297,,,survey-text,151,1400446,0.0-15.0-3.5,96459,List1A,black,man,,,,,"{""Q0"":""kate and mike are kissing each other""}","<img src=""stim_listA/kiss2.gif""style=""height:400px;""></stim_listA>",are kissing each other,
null,"<div style=""font-size:60px;"">+</div>",,html-keyboard-response,152,1400949,0.0-15.0-0.6,96459,List1A,black,man,,,,null,,,,
null,"<img src=""stim_listA/dance4.gif""style=""height:400px;""></stim_listA>",,html-keyboard-response,153,1402950,0.0-15.0-1.6,96459,List1A,black,man,,,,null,,,,
null,are dancing with each other,,html-keyboard-response,154,1404951,0.0-15.0-2.6,96459,List1A,black,man,,,,null,,,,
18751,,,survey-text,155,1423703,0.0-15.0-3.6,96459,List1A,black,man,,,,,"{""Q0"":""fred and jane are dancing with each other""}","<img src=""stim_listA/dance4.gif""style=""height:400px;""></stim_listA>",are dancing with each other,
null,"<div style=""font-size:60px;"">+</div>",,html-keyboard-response,156,1424207,0.0-15.0-0.7,96459,List1A,black,man,,,,null,,,,
null,"<img src=""stim_listA/marry1.gif""style=""height:400px;""></stim_listA>",,html-keyboard-response,157,1426209,0.0-15.0-1.7,96459,List1A,black,man,,,,null,,,,
null,is marrying,,html-keyboard-response,158,1428210,0.0-15.0-2.7,96459,List1A,black,man,,,,null,,,,
15112,,,survey-text,159,1443323,0.0-15.0-3.7,96459,List1A,black,man,,,,,"{""Q0"":""mike and beth are marring each other""}","<img src=""stim_listA/marry1.gif""style=""height:400px;""></stim_listA>",is marrying,
null,"<div style=""font-size:60px;"">+</div>",,html-keyboard-response,160,1443835,0.0-15.0-0.8,96459,List1A,black,man,,,,null,,,,
null,"<img src=""stim_listA/touch7.gif""style=""height:400px;""></stim_listA>",,html-keyboard-response,161,1445837,0.0-15.0-1.8,96459,List1A,black,man,,,,null,,,,
null,is touching,,html-keyboard-response,162,1447846,0.0-15.0-2.8,96459,List1A,black,man,,,,null,,,,
17292,,,survey-text,163,1465138,0.0-15.0-3.8,96459,List1A,black,man,,,,,"{""Q0"":""kate is touching jane""}","<img src=""stim_listA/touch7.gif""style=""height:400px;""></stim_listA>",is touching,
null,"<div style=""font-size:60px;"">+</div>",,html-keyboard-response,164,1465640,0.0-15.0-0.9,96459,List1A,black,man,,,,null,,,,
null,"<img src=""stim_listA/fight6.gif""style=""height:400px;""></stim_listA>",,html-keyboard-response,165,1467641,0.0-15.0-1.9,96459,List1A,black,man,,,,null,,,,
null,are fighting each other,,html-keyboard-response,166,1469643,0.0-15.0-2.9,96459,List1A,black,man,,,,null,,,,
28281,,,survey-text,167,1497924,0.0-15.0-3.9,96459,List1A,black,man,,,,,"{""Q0"":""mike and kevin are fighting each other""}","<img src=""stim_listA/fight6.gif""style=""height:400px;""></stim_listA>",are fighting each other,
null,"<div style=""font-size:60px;"">+</div>",,html-keyboard-response,168,1498426,0.0-15.0-0.10,96459,List1A,black,man,,,,null,,,,
null,"<img src=""stim_listA/shout2.gif""style=""height:400px;""></stim_listA>",,html-keyboard-response,169,1500428,0.0-15.0-1.10,96459,List1A,black,man,,,,null,,,,
null,are shouting at each other,,html-keyboard-response,170,1502429,0.0-15.0-2.10,96459,List1A,black,man,,,,null,,,,
17086,,,survey-text,171,1519515,0.0-15.0-3.10,96459,List1A,black,man,,,,,"{""Q0"":""kate and mike are shouting at each other""}","<img src=""stim_listA/shout2.gif""style=""height:400px;""></stim_listA>",are shouting at each other,
null,"<div style=""font-size:60px;"">+</div>",,html-keyboard-response,172,1520017,0.0-15.0-0.11,96459,List1A,black,man,,,,null,,,,
null,"<img src=""stim_listA/dance5.gif""style=""height:400px;""></stim_listA>",,html-keyboard-response,173,1522018,0.0-15.0-1.11,96459,List1A,black,man,,,,null,,,,
null,is dancing with,,html-keyboard-response,174,1524024,0.0-15.0-2.11,96459,List1A,black,man,,,,null,,,,
22968,,,survey-text,175,1546993,0.0-15.0-3.11,96459,List1A,black,man,,,,,"{""Q0"":""kevin is dancing  wiith dave""}","<img src=""stim_listA/dance5.gif""style=""height:400px;""></stim_listA>",is dancing with,
null,"<div style=""font-size:60px;"">+</div>",,html-keyboard-response,176,1547498,0.0-15.0-0.12,96459,List1A,black,man,,,,null,,,,
null,"<img src=""stim_listA/talk2.gif""style=""height:400px;""></stim_listA>",,html-keyboard-response,177,1549500,0.0-15.0-1.12,96459,List1A,black,man,,,,null,,,,
null,are talking to each other,,html-keyboard-response,178,1551501,0.0-15.0-2.12,96459,List1A,black,man,,,,null,,,,
20583,,,survey-text,179,1572084,0.0-15.0-3.12,96459,List1A,black,man,,,,,"{""Q0"":""mike and  kate are talking to each other""}","<img src=""stim_listA/talk2.gif""style=""height:400px;""></stim_listA>",are talking to each other,
null,"<div style=""font-size:60px;"">+</div>",,html-keyboard-response,180,1572587,0.0-15.0-0.13,96459,List1A,black,man,,,,null,,,,
null,"<img src=""stim_listA/talk8.gif""style=""height:400px;""></stim_listA>",,html-keyboard-response,181,1574588,0.0-15.0-1.13,96459,List1A,black,man,,,,null,,,,
null,are talking to each other,,html-keyboard-response,182,1576589,0.0-15.0-2.13,96459,List1A,black,man,,,,null,,,,
19001,,,survey-text,183,1595592,0.0-15.0-3.13,96459,List1A,black,man,,,,,"{""Q0"":""kate and jane are talking to each other""}","<img src=""stim_listA/talk8.gif""style=""height:400px;""></stim_listA>",are talking to each other,
null,"<div style=""font-size:60px;"">+</div>",,html-keyboard-response,184,1596094,0.0-15.0-0.14,96459,List1A,black,man,,,,null,,,,
null,"<img src=""stim_listA/marry7.gif""style=""height:400px;""></stim_listA>",,html-keyboard-response,185,1598096,0.0-15.0-1.14,96459,List1A,black,man,,,,null,,,,
null,is marrying,,html-keyboard-response,186,1600101,0.0-15.0-2.14,96459,List1A,black,man,,,,null,,,,
34305,,,survey-text,187,1634407,0.0-15.0-3.14,96459,List1A,black,man,,,,,"{""Q0"":""kate and ruth are marrying each other""}","<img src=""stim_listA/marry7.gif""style=""height:400px;""></stim_listA>",is marrying,
null,"<div style=""font-size:60px;"">+</div>",,html-keyboard-response,188,1634916,0.0-15.0-0.15,96459,List1A,black,man,,,,null,,,,
null,"<img src=""stim_listA/talk4.gif""style=""height:400px;""></stim_listA>",,html-keyboard-response,189,1636917,0.0-15.0-1.15,96459,List1A,black,man,,,,null,,,,
null,are talking to each other,,html-keyboard-response,190,1638919,0.0-15.0-2.15,96459,List1A,black,man,,,,null,,,,
18283,,,survey-text,191,1657202,0.0-15.0-3.15,96459,List1A,black,man,,,,,"{""Q0"":""Dave and Jane are talking to each other""}","<img src=""stim_listA/talk4.gif""style=""height:400px;""></stim_listA>",are talking to each other,
null,"<div style=""font-size:60px;"">+</div>",,html-keyboard-response,192,1657703,0.0-15.0-0.16,96459,List1A,black,man,,,,null,,,,
null,"<img src=""stim_listA/argue8.gif""style=""height:400px;""></stim_listA>",,html-keyboard-response,193,1659705,0.0-15.0-1.16,96459,List1A,black,man,,,,null,,,,
null,are arguing with each other,,html-keyboard-response,194,1661706,0.0-15.0-2.16,96459,List1A,black,man,,,,null,,,,
21259,,,survey-text,195,1682966,0.0-15.0-3.16,96459,List1A,black,man,,,,,"{""Q0"":""jane and beth are arguing with each other""}","<img src=""stim_listA/argue8.gif""style=""height:400px;""></stim_listA>",are arguing with each other,
null,"<div style=""font-size:60px;"">+</div>",,html-keyboard-response,196,1683468,0.0-15.0-0.17,96459,List1A,black,man,,,,null,,,,
null,"<img src=""stim_listA/shout6.gif""style=""height:400px;""></stim_listA>",,html-keyboard-response,197,1685470,0.0-15.0-1.17,96459,List1A,black,man,,,,null,,,,
null,are shouting at each other,,html-keyboard-response,198,1687485,0.0-15.0-2.17,96459,List1A,black,man,,,,null,,,,
19642,,,survey-text,199,1707128,0.0-15.0-3.17,96459,List1A,black,man,,,,,"{""Q0"":""Dave and mike are shouting at each other""}","<img src=""stim_listA/shout6.gif""style=""height:400px;""></stim_listA>",are shouting at each other,
null,"<div style=""font-size:60px;"">+</div>",,html-keyboard-response,200,1707630,0.0-15.0-0.18,96459,List1A,black,man,,,,null,,,,
null,"<img src=""stim_listA/fight5.gif""style=""height:400px;""></stim_listA>",,html-keyboard-response,201,1709631,0.0-15.0-1.18,96459,List1A,black,man,,,,null,,,,
null,is fighting,,html-keyboard-response,202,1711633,0.0-15.0-2.18,96459,List1A,black,man,,,,null,,,,
17068,,,survey-text,203,1728701,0.0-15.0-3.18,96459,List1A,black,man,,,,,"{""Q0"":""mike and david is fighting each other""}","<img src=""stim_listA/fight5.gif""style=""height:400px;""></stim_listA>",is fighting,
null,"<div style=""font-size:60px;"">+</div>",,html-keyboard-response,204,1729203,0.0-15.0-0.19,96459,List1A,black,man,,,,null,,,,
null,"<img src=""stim_listA/kiss5.gif""style=""height:400px;""></stim_listA>",,html-keyboard-response,205,1731205,0.0-15.0-1.19,96459,List1A,black,man,,,,null,,,,
null,is kissing,,html-keyboard-response,206,1733221,0.0-15.0-2.19,96459,List1A,black,man,,,,null,,,,
15475,,,survey-text,207,1748696,0.0-15.0-3.19,96459,List1A,black,man,,,,,"{""Q0"":""kevin is kissing luke""}","<img src=""stim_listA/kiss5.gif""style=""height:400px;""></stim_listA>",is kissing,
41451,"<img src='img/portrait_matrix_list1.jpg' style='width:900px;height:500px;''></img><p>If you have memorised all the portraits and names and are ready to start, press Continue.</p><p><strong>Please note: Your memory of these faces will be tested 4 times during this experiment.</strong></p>",0,html-button-response,208,1790149,0.0-16.0-0.0,96459,List1A,black,man,,,,,,,,
2073,"<img src=""portrait/WM2.jpg""style=""height:400px;""></img>",7,html-button-response,209,1793223,0.0-16.0-1.0,96459,List1A,black,man,,TRUE,7,,,,,
null,CORRECT,,html-keyboard-response,210,1794738,0.0-16.0-2.0-0.0,96459,List1A,black,man,,,,null,,,,
2453,"<img src=""portrait/BW2.jpg""style=""height:400px;""></img>",2,html-button-response,211,1797191,0.0-16.0-4.0,96459,List1A,black,man,,TRUE,2,,,,,
null,CORRECT,,html-keyboard-response,212,1798707,0.0-16.0-5.0-0.0,96459,List1A,black,man,,,,null,,,,
5347,"<img src=""portrait/BM2.jpg""style=""height:400px;""></img>",5,html-button-response,213,1804056,0.0-16.0-7.0,96459,List1A,black,man,,TRUE,5,,,,,
null,CORRECT,,html-keyboard-response,214,1805563,0.0-16.0-8.0-0.0,96459,List1A,black,man,,,,null,,,,
1734,"<img src=""portrait/WM1.jpg""style=""height:400px;""></img>",6,html-button-response,215,1807298,0.0-16.0-10.0,96459,List1A,black,man,,TRUE,6,,,,,
null,CORRECT,,html-keyboard-response,216,1808801,0.0-16.0-11.0-0.0,96459,List1A,black,man,,,,null,,,,
4889,"<img src=""portrait/BM1.jpg""style=""height:400px;""></img>",4,html-button-response,217,1813690,0.0-16.0-13.0,96459,List1A,black,man,,TRUE,4,,,,,
null,CORRECT,,html-keyboard-response,218,1815203,0.0-16.0-14.0-0.0,96459,List1A,black,man,,,,null,,,,
1888,"<img src=""portrait/WW1.jpg""style=""height:400px;""></img>",3,html-button-response,219,1817093,0.0-16.0-16.0,96459,List1A,black,man,,TRUE,1,,,,,
10820,"<img src=""portrait/WW1.jpg""style=""height:400px;""></img>",1,html-button-response,220,1828917,0.0-16.0-18.0-0.0,96459,List1A,black,man,,FALSE,1,,,,,
null,CORRECT,,html-keyboard-response,221,1830421,0.0-16.0-18.0-1.0-0.0,96459,List1A,black,man,,,,null,,,,
3320,"<img src=""portrait/BW1.jpg""style=""height:400px;""></img>",0,html-button-response,222,1833742,0.0-16.0-19.0,96459,List1A,black,man,,TRUE,0,,,,,
null,CORRECT,,html-keyboard-response,223,1835244,0.0-16.0-20.0-0.0,96459,List1A,black,man,,,,null,,,,
1794,"<img src=""portrait/WW2.jpg""style=""height:400px;""></img>",3,html-button-response,224,1837040,0.0-16.0-22.0,96459,List1A,black,man,,TRUE,3,,,,,
null,CORRECT,,html-keyboard-response,225,1838544,0.0-16.0-23.0-0.0,96459,List1A,black,man,,,,null,,,,
9695,<p>You got 7 out of 8 right first time. Press Continue.</p>,0,html-button-response,226,1848241,0.0-16.0-25.0,96459,List1A,black,man,,,,,,,,
7610,"As you did not score 100%, the memory game will repeat. Press Continue.",0,html-button-response,227,1856853,0.0-16.0-26.0-0.0,96459,List1A,black,man,,,,,,,,
4908,"<img src='img/portrait_matrix_list1.jpg' style='width:900px;height:500px;''></img><p>If you have memorised all the portraits and names and are ready to start, press Continue.</p><p><strong>Please note: Your memory of these faces will be tested 4 times during this experiment.</strong></p>",0,html-button-response,228,1862771,0.0-16.1-0.1,96459,List1A,black,man,,,,,,,,
2855,"<img src=""portrait/WM2.jpg""style=""height:400px;""></img>",7,html-button-response,229,1866640,0.0-16.1-1.1,96459,List1A,black,man,,TRUE,7,,,,,
null,CORRECT,,html-keyboard-response,230,1868142,0.0-16.1-2.1-0.1,96459,List1A,black,man,,,,null,,,,
5163,"<img src=""portrait/BW2.jpg""style=""height:400px;""></img>",2,html-button-response,231,1873307,0.0-16.1-4.1,96459,List1A,black,man,,TRUE,2,,,,,
null,CORRECT,,html-keyboard-response,232,1874819,0.0-16.1-5.1-0.1,96459,List1A,black,man,,,,null,,,,
3739,"<img src=""portrait/BM2.jpg""style=""height:400px;""></img>",5,html-button-response,233,1878559,0.0-16.1-7.1,96459,List1A,black,man,,TRUE,5,,,,,
null,CORRECT,,html-keyboard-response,234,1880061,0.0-16.1-8.1-0.1,96459,List1A,black,man,,,,null,,,,
2643,"<img src=""portrait/WM1.jpg""style=""height:400px;""></img>",6,html-button-response,235,1882705,0.0-16.1-10.1,96459,List1A,black,man,,TRUE,6,,,,,
null,CORRECT,,html-keyboard-response,236,1884213,0.0-16.1-11.1-0.1,96459,List1A,black,man,,,,null,,,,
4209,"<img src=""portrait/BM1.jpg""style=""height:400px;""></img>",4,html-button-response,237,1888424,0.0-16.1-13.1,96459,List1A,black,man,,TRUE,4,,,,,
null,CORRECT,,html-keyboard-response,238,1889926,0.0-16.1-14.1-0.1,96459,List1A,black,man,,,,null,,,,
5143,"<img src=""portrait/WW1.jpg""style=""height:400px;""></img>",1,html-button-response,239,1895070,0.0-16.1-16.1,96459,List1A,black,man,,TRUE,1,,,,,
null,CORRECT,,html-keyboard-response,240,1896578,0.0-16.1-17.1-0.1,96459,List1A,black,man,,,,null,,,,
1943,"<img src=""portrait/BW1.jpg""style=""height:400px;""></img>",0,html-button-response,241,1898522,0.0-16.1-19.1,96459,List1A,black,man,,TRUE,0,,,,,
null,CORRECT,,html-keyboard-response,242,1900040,0.0-16.1-20.1-0.1,96459,List1A,black,man,,,,null,,,,
2761,"<img src=""portrait/WW2.jpg""style=""height:400px;""></img>",3,html-button-response,243,1902803,0.0-16.1-22.1,96459,List1A,black,man,,TRUE,3,,,,,
null,CORRECT,,html-keyboard-response,244,1904305,0.0-16.1-23.1-0.1,96459,List1A,black,man,,,,null,,,,
1837,<p>You got 8 out of 8 right first time. Press Continue.</p>,0,html-button-response,245,1906143,0.0-16.1-25.1,96459,List1A,black,man,,,,,,,,
null,"<div style=""font-size:60px;"">+</div>",,html-keyboard-response,246,1907646,0.0-17.0-0.0,96459,List1A,black,man,,,,null,,,,
null,"<img src=""stim_listA/shout8.gif""style=""height:400px;""></stim_listA>",,html-keyboard-response,247,1909648,0.0-17.0-1.0,96459,List1A,black,man,,,,null,,,,
null,are shouting at each other,,html-keyboard-response,248,1911655,0.0-17.0-2.0,96459,List1A,black,man,,,,null,,,,
20530,,,survey-text,249,1932187,0.0-17.0-3.0,96459,List1A,black,man,,,,,"{""Q0"":""beth and jane are shouting at each other""}","<img src=""stim_listA/shout8.gif""style=""height:400px;""></stim_listA>",are shouting at each other,
null,"<div style=""font-size:60px;"">+</div>",,html-keyboard-response,250,1932696,0.0-17.0-0.1,96459,List1A,black,man,,,,null,,,,
null,"<img src=""stim_listA/argue2.gif""style=""height:400px;""></stim_listA>",,html-keyboard-response,251,1934697,0.0-17.0-1.1,96459,List1A,black,man,,,,null,,,,
null,are arguing with each other,,html-keyboard-response,252,1936699,0.0-17.0-2.1,96459,List1A,black,man,,,,null,,,,
17213,,,survey-text,253,1953914,0.0-17.0-3.1,96459,List1A,black,man,,,,,"{""Q0"":""fred and kate are arguing with each other""}","<img src=""stim_listA/argue2.gif""style=""height:400px;""></stim_listA>",are arguing with each other,
null,"<div style=""font-size:60px;"">+</div>",,html-keyboard-response,254,1954415,0.0-17.0-0.2,96459,List1A,black,man,,,,null,,,,
null,"<img src=""stim_listA/dance7.gif""style=""height:400px;""></stim_listA>",,html-keyboard-response,255,1956417,0.0-17.0-1.2,96459,List1A,black,man,,,,null,,,,
null,is dancing with,,html-keyboard-response,256,1958428,0.0-17.0-2.2,96459,List1A,black,man,,,,null,,,,
10462,,,survey-text,257,1968891,0.0-17.0-3.2,96459,List1A,black,man,,,,,"{""Q0"":""jane is dancing with beth""}","<img src=""stim_listA/dance7.gif""style=""height:400px;""></stim_listA>",is dancing with,
null,"<div style=""font-size:60px;"">+</div>",,html-keyboard-response,258,1969393,0.0-17.0-0.3,96459,List1A,black,man,,,,null,,,,
null,"<img src=""stim_listA/fight3.gif""style=""height:400px;""></stim_listA>",,html-keyboard-response,259,1971395,0.0-17.0-1.3,96459,List1A,black,man,,,,null,,,,
null,is fighting,,html-keyboard-response,260,1973403,0.0-17.0-2.3,96459,List1A,black,man,,,,null,,,,
9949,,,survey-text,261,1983354,0.0-17.0-3.3,96459,List1A,black,man,,,,,"{""Q0"":""dave is fighting with jane""}","<img src=""stim_listA/fight3.gif""style=""height:400px;""></stim_listA>",is fighting,
null,"<div style=""font-size:60px;"">+</div>",,html-keyboard-response,262,1983861,0.0-17.0-0.4,96459,List1A,black,man,,,,null,,,,
null,"<img src=""stim_listA/argue1.gif""style=""height:400px;""></stim_listA>",,html-keyboard-response,263,1985863,0.0-17.0-1.4,96459,List1A,black,man,,,,null,,,,
null,is arguing with,,html-keyboard-response,264,1987864,0.0-17.0-2.4,96459,List1A,black,man,,,,null,,,,
21696,,,survey-text,265,2009561,0.0-17.0-3.4,96459,List1A,black,man,,,,,"{""Q0"":""mike is arguing with beth""}","<img src=""stim_listA/argue1.gif""style=""height:400px;""></stim_listA>",is arguing with,
null,"<div style=""font-size:60px;"">+</div>",,html-keyboard-response,266,2010066,0.0-17.0-0.5,96459,List1A,black,man,,,,null,,,,
null,"<img src=""stim_listA/fight2.gif""style=""height:400px;""></stim_listA>",,html-keyboard-response,267,2012068,0.0-17.0-1.5,96459,List1A,black,man,,,,null,,,,
null,are fighting each other,,html-keyboard-response,268,2014069,0.0-17.0-2.5,96459,List1A,black,man,,,,null,,,,
16898,,,survey-text,269,2030968,0.0-17.0-3.5,96459,List1A,black,man,,,,,"{""Q0"":""beth is fighting with fred""}","<img src=""stim_listA/fight2.gif""style=""height:400px;""></stim_listA>",are fighting each other,
null,"<div style=""font-size:60px;"">+</div>",,html-keyboard-response,270,2031482,0.0-17.0-0.6,96459,List1A,black,man,,,,null,,,,
null,"<img src=""stim_listA/play4.gif""style=""height:400px;""></stim_listA>",,html-keyboard-response,271,2033484,0.0-17.0-1.6,96459,List1A,black,man,,,,null,,,,
null,are playing with each other,,html-keyboard-response,272,2035486,0.0-17.0-2.6,96459,List1A,black,man,,,,null,,,,
17638,,,survey-text,273,2053124,0.0-17.0-3.6,96459,List1A,black,man,,,,,"{""Q0"":""luke and Jane are playing with each other""}","<img src=""stim_listA/play4.gif""style=""height:400px;""></stim_listA>",are playing with each other,
null,"<div style=""font-size:60px;"">+</div>",,html-keyboard-response,274,2053627,0.0-17.0-0.7,96459,List1A,black,man,,,,null,,,,
null,"<img src=""stim_listA/flirt1.gif""style=""height:400px;""></stim_listA>",,html-keyboard-response,275,2055628,0.0-17.0-1.7,96459,List1A,black,man,,,,null,,,,
null,is flirting with,,html-keyboard-response,276,2057630,0.0-17.0-2.7,96459,List1A,black,man,,,,null,,,,
14107,,,survey-text,277,2071738,0.0-17.0-3.7,96459,List1A,black,man,,,,,"{""Q0"":""kate is flirting with fred""}","<img src=""stim_listA/flirt1.gif""style=""height:400px;""></stim_listA>",is flirting with,
null,"<div style=""font-size:60px;"">+</div>",,html-keyboard-response,278,2072239,0.0-17.0-0.8,96459,List1A,black,man,,,,null,,,,
null,"<img src=""stim_listA/dance1.gif""style=""height:400px;""></stim_listA>",,html-keyboard-response,279,2074240,0.0-17.0-1.8,96459,List1A,black,man,,,,null,,,,
null,is dancing with,,html-keyboard-response,280,2076242,0.0-17.0-2.8,96459,List1A,black,man,,,,null,,,,
26605,,,survey-text,281,2102848,0.0-17.0-3.8,96459,List1A,black,man,,,,,"{""Q0"":""kate is dancing with fred""}","<img src=""stim_listA/dance1.gif""style=""height:400px;""></stim_listA>",is dancing with,
null,"<div style=""font-size:60px;"">+</div>",,html-keyboard-response,282,2103362,0.0-17.0-0.9,96459,List1A,black,man,,,,null,,,,
null,"<img src=""stim_listA/touch3.gif""style=""height:400px;""></stim_listA>",,html-keyboard-response,283,2105363,0.0-17.0-1.9,96459,List1A,black,man,,,,null,,,,
null,is touching,,html-keyboard-response,284,2107370,0.0-17.0-2.9,96459,List1A,black,man,,,,null,,,,
20507,,,survey-text,285,2127879,0.0-17.0-3.9,96459,List1A,black,man,,,,,"{""Q0"":""jane is touching dave""}","<img src=""stim_listA/touch3.gif""style=""height:400px;""></stim_listA>",is touching,
null,"<div style=""font-size:60px;"">+</div>",,html-keyboard-response,286,2128386,0.0-17.0-0.10,96459,List1A,black,man,,,,null,,,,
null,"<img src=""stim_listA/marry2.gif""style=""height:400px;""></stim_listA>",,html-keyboard-response,287,2130389,0.0-17.0-1.10,96459,List1A,black,man,,,,null,,,,
null,are marrying each other,,html-keyboard-response,288,2132390,0.0-17.0-2.10,96459,List1A,black,man,,,,null,,,,
26307,,,survey-text,289,2158699,0.0-17.0-3.10,96459,List1A,black,man,,,,,"{""Q0"":""fred and kate are marrying each other""}","<img src=""stim_listA/marry2.gif""style=""height:400px;""></stim_listA>",are marrying each other,
null,"<div style=""font-size:60px;"">+</div>",,html-keyboard-response,290,2159209,0.0-17.0-0.11,96459,List1A,black,man,,,,null,,,,
null,"<img src=""stim_listA/argue4.gif""style=""height:400px;""></stim_listA>",,html-keyboard-response,291,2161211,0.0-17.0-1.11,96459,List1A,black,man,,,,null,,,,
null,are arguing with each other,,html-keyboard-response,292,2163212,0.0-17.0-2.11,96459,List1A,black,man,,,,null,,,,
24251,,,survey-text,293,2187465,0.0-17.0-3.11,96459,List1A,black,man,,,,,"{""Q0"":""jane and luke are arguing with each other""}","<img src=""stim_listA/argue4.gif""style=""height:400px;""></stim_listA>",are arguing with each other,
null,"<div style=""font-size:60px;"">+</div>",,html-keyboard-response,294,2187967,0.0-17.0-0.12,96459,List1A,black,man,,,,null,,,,
null,"<img src=""stim_listA/flirt7.gif""style=""height:400px;""></stim_listA>",,html-keyboard-response,295,2189969,0.0-17.0-1.12,96459,List1A,black,man,,,,null,,,,
null,is flirting with,,html-keyboard-response,296,2191979,0.0-17.0-2.12,96459,List1A,black,man,,,,null,,,,
15911,,,survey-text,297,2207890,0.0-17.0-3.12,96459,List1A,black,man,,,,,"{""Q0"":""beth is flirting with jane""}","<img src=""stim_listA/flirt7.gif""style=""height:400px;""></stim_listA>",is flirting with,
null,"<div style=""font-size:60px;"">+</div>",,html-keyboard-response,298,2208402,0.0-17.0-0.13,96459,List1A,black,man,,,,null,,,,
null,"<img src=""stim_listA/touch5.gif""style=""height:400px;""></stim_listA>",,html-keyboard-response,299,2210404,0.0-17.0-1.13,96459,List1A,black,man,,,,null,,,,
null,is touching,,html-keyboard-response,300,2212405,0.0-17.0-2.13,96459,List1A,black,man,,,,null,,,,
16022,,,survey-text,301,2228428,0.0-17.0-3.13,96459,List1A,black,man,,,,,"{""Q0"":""Mike is touching Dave""}","<img src=""stim_listA/touch5.gif""style=""height:400px;""></stim_listA>",is touching,
null,"<div style=""font-size:60px;"">+</div>",,html-keyboard-response,302,2228929,0.0-17.0-0.14,96459,List1A,black,man,,,,null,,,,
null,"<img src=""stim_listA/dance6.gif""style=""height:400px;""></stim_listA>",,html-keyboard-response,303,2230930,0.0-17.0-1.14,96459,List1A,black,man,,,,null,,,,
null,are dancing with each other,,html-keyboard-response,304,2232932,0.0-17.0-2.14,96459,List1A,black,man,,,,null,,,,
51255,,,survey-text,305,2284187,0.0-17.0-3.14,96459,List1A,black,man,,,,,"{""Q0"":""Mike and luke are dancing with each other""}","<img src=""stim_listA/dance6.gif""style=""height:400px;""></stim_listA>",are dancing with each other,
null,"<div style=""font-size:60px;"">+</div>",,html-keyboard-response,306,2284688,0.0-17.0-0.15,96459,List1A,black,man,,,,null,,,,
null,"<img src=""stim_listA/touch6.gif""style=""height:400px;""></stim_listA>",,html-keyboard-response,307,2286690,0.0-17.0-1.15,96459,List1A,black,man,,,,null,,,,
null,are touching each other,,html-keyboard-response,308,2288692,0.0-17.0-2.15,96459,List1A,black,man,,,,null,,,,
24434,,,survey-text,309,2313126,0.0-17.0-3.15,96459,List1A,black,man,,,,,"{""Q0"":""luke and kevin are touching each other""}","<img src=""stim_listA/touch6.gif""style=""height:400px;""></stim_listA>",are touching each other,
null,"<div style=""font-size:60px;"">+</div>",,html-keyboard-response,310,2313627,0.0-17.0-0.16,96459,List1A,black,man,,,,null,,,,
null,"<img src=""stim_listA/dance8.gif""style=""height:400px;""></stim_listA>",,html-keyboard-response,311,2315629,0.0-17.0-1.16,96459,List1A,black,man,,,,null,,,,
null,are dancing with each other,,html-keyboard-response,312,2317630,0.0-17.0-2.16,96459,List1A,black,man,,,,null,,,,
24993,,,survey-text,313,2342624,0.0-17.0-3.16,96459,List1A,black,man,,,,,"{""Q0"":""beth and ruth are dancing with each other""}","<img src=""stim_listA/dance8.gif""style=""height:400px;""></stim_listA>",are dancing with each other,
null,"<div style=""font-size:60px;"">+</div>",,html-keyboard-response,314,2343129,0.0-17.0-0.17,96459,List1A,black,man,,,,null,,,,
null,"<img src=""stim_listA/marry8.gif""style=""height:400px;""></stim_listA>",,html-keyboard-response,315,2345131,0.0-17.0-1.17,96459,List1A,black,man,,,,null,,,,
null,are marrying each other,,html-keyboard-response,316,2347132,0.0-17.0-2.17,96459,List1A,black,man,,,,null,,,,
19043,,,survey-text,317,2366176,0.0-17.0-3.17,96459,List1A,black,man,,,,,"{""Q0"":""jane and beth are marrying each other""}","<img src=""stim_listA/marry8.gif""style=""height:400px;""></stim_listA>",are marrying each other,
null,"<div style=""font-size:60px;"">+</div>",,html-keyboard-response,318,2366683,0.0-17.0-0.18,96459,List1A,black,man,,,,null,,,,
null,"<img src=""stim_listA/talk7.gif""style=""height:400px;""></stim_listA>",,html-keyboard-response,319,2368685,0.0-17.0-1.18,96459,List1A,black,man,,,,null,,,,
null,is talking to,,html-keyboard-response,320,2370700,0.0-17.0-2.18,96459,List1A,black,man,,,,null,,,,
9348,,,survey-text,321,2380049,0.0-17.0-3.18,96459,List1A,black,man,,,,,"{""Q0"":""Beth is talking to jane""}","<img src=""stim_listA/talk7.gif""style=""height:400px;""></stim_listA>",is talking to,
null,"<div style=""font-size:60px;"">+</div>",,html-keyboard-response,322,2380551,0.0-17.0-0.19,96459,List1A,black,man,,,,null,,,,
null,"<img src=""stim_listA/flirt5.gif""style=""height:400px;""></stim_listA>",,html-keyboard-response,323,2382553,0.0-17.0-1.19,96459,List1A,black,man,,,,null,,,,
null,is flirting with,,html-keyboard-response,324,2384553,0.0-17.0-2.19,96459,List1A,black,man,,,,null,,,,
11528,,,survey-text,325,2396082,0.0-17.0-3.19,96459,List1A,black,man,,,,,"{""Q0"":""Fred is flirting with Dave""}","<img src=""stim_listA/flirt5.gif""style=""height:400px;""></stim_listA>",is flirting with,
36723,"<img src='img/portrait_matrix_list1.jpg' style='width:900px;height:500px;''></img><p>If you have memorised all the portraits and names and are ready to start, press Continue.</p><p><strong>Please note: Your memory of these faces will be tested 4 times during this experiment.</strong></p>",0,html-button-response,326,2432807,0.0-18.0-0.0,96459,List1A,black,man,,,,,,,,
3818,"<img src=""portrait/BW1.jpg""style=""height:400px;""></img>",0,html-button-response,327,2437635,0.0-18.0-1.0,96459,List1A,black,man,,TRUE,0,,,,,
null,CORRECT,,html-keyboard-response,328,2439137,0.0-18.0-2.0-0.0,96459,List1A,black,man,,,,null,,,,
2192,"<img src=""portrait/BW2.jpg""style=""height:400px;""></img>",2,html-button-response,329,2441330,0.0-18.0-4.0,96459,List1A,black,man,,TRUE,2,,,,,
null,CORRECT,,html-keyboard-response,330,2442848,0.0-18.0-5.0-0.0,96459,List1A,black,man,,,,null,,,,
3448,"<img src=""portrait/BM1.jpg""style=""height:400px;""></img>",4,html-button-response,331,2446298,0.0-18.0-7.0,96459,List1A,black,man,,TRUE,4,,,,,
null,CORRECT,,html-keyboard-response,332,2447800,0.0-18.0-8.0-0.0,96459,List1A,black,man,,,,null,,,,
1499,"<img src=""portrait/WM2.jpg""style=""height:400px;""></img>",7,html-button-response,333,2449300,0.0-18.0-10.0,96459,List1A,black,man,,TRUE,7,,,,,
null,CORRECT,,html-keyboard-response,334,2450818,0.0-18.0-11.0-0.0,96459,List1A,black,man,,,,null,,,,
4034,"<img src=""portrait/WM1.jpg""style=""height:400px;""></img>",6,html-button-response,335,2454852,0.0-18.0-13.0,96459,List1A,black,man,,TRUE,6,,,,,
null,CORRECT,,html-keyboard-response,336,2456370,0.0-18.0-14.0-0.0,96459,List1A,black,man,,,,null,,,,
5689,"<img src=""portrait/WW1.jpg""style=""height:400px;""></img>",1,html-button-response,337,2462061,0.0-18.0-16.0,96459,List1A,black,man,,TRUE,1,,,,,
null,CORRECT,,html-keyboard-response,338,2463563,0.0-18.0-17.0-0.0,96459,List1A,black,man,,,,null,,,,
2191,"<img src=""portrait/BM2.jpg""style=""height:400px;""></img>",5,html-button-response,339,2465755,0.0-18.0-19.0,96459,List1A,black,man,,TRUE,5,,,,,
null,CORRECT,,html-keyboard-response,340,2467259,0.0-18.0-20.0-0.0,96459,List1A,black,man,,,,null,,,,
1732,"<img src=""portrait/WW2.jpg""style=""height:400px;""></img>",3,html-button-response,341,2468991,0.0-18.0-22.0,96459,List1A,black,man,,TRUE,3,,,,,
null,CORRECT,,html-keyboard-response,342,2470514,0.0-18.0-23.0-0.0,96459,List1A,black,man,,,,null,,,,
1806,<p>You got 8 out of 8 right first time. Press Continue.</p>,0,html-button-response,343,2472321,0.0-18.0-25.0,96459,List1A,black,man,,,,,,,,
null,"<div style=""font-size:60px;"">+</div>",,html-keyboard-response,344,2473823,0.0-19.0-0.0,96459,List1A,black,man,,,,null,,,,
null,"<img src=""stim_listA/touch8.gif""style=""height:400px;""></stim_listA>",,html-keyboard-response,345,2475825,0.0-19.0-1.0,96459,List1A,black,man,,,,null,,,,
null,are touching each other,,html-keyboard-response,346,2477830,0.0-19.0-2.0,96459,List1A,black,man,,,,null,,,,
27319,,,survey-text,347,2505149,0.0-19.0-3.0,96459,List1A,black,man,,,,,"{""Q0"":""ruth  and beth are touching""}","<img src=""stim_listA/touch8.gif""style=""height:400px;""></stim_listA>",are touching each other,
null,"<div style=""font-size:60px;"">+</div>",,html-keyboard-response,348,2505651,0.0-19.0-0.1,96459,List1A,black,man,,,,null,,,,
null,"<img src=""stim_listA/shout4.gif""style=""height:400px;""></stim_listA>",,html-keyboard-response,349,2507653,0.0-19.0-1.1,96459,List1A,black,man,,,,null,,,,
null,are shouting at each other,,html-keyboard-response,350,2509657,0.0-19.0-2.1,96459,List1A,black,man,,,,null,,,,
23291,,,survey-text,351,2532949,0.0-19.0-3.1,96459,List1A,black,man,,,,,"{""Q0"":""mike and dave are shouting at each other""}","<img src=""stim_listA/shout4.gif""style=""height:400px;""></stim_listA>",are shouting at each other,
null,"<div style=""font-size:60px;"">+</div>",,html-keyboard-response,352,2533451,0.0-19.0-0.2,96459,List1A,black,man,,,,null,,,,
null,"<img src=""stim_listA/touch1.gif""style=""height:400px;""></stim_listA>",,html-keyboard-response,353,2535453,0.0-19.0-1.2,96459,List1A,black,man,,,,null,,,,
null,is touching,,html-keyboard-response,354,2537454,0.0-19.0-2.2,96459,List1A,black,man,,,,null,,,,
17798,,,survey-text,355,2555254,0.0-19.0-3.2,96459,List1A,black,man,,,,,"{""Q0"":""mike is touching kate""}","<img src=""stim_listA/touch1.gif""style=""height:400px;""></stim_listA>",is touching,
null,"<div style=""font-size:60px;"">+</div>",,html-keyboard-response,356,2555766,0.0-19.0-0.3,96459,List1A,black,man,,,,null,,,,
null,"<img src=""stim_listA/shout1.gif""style=""height:400px;""></stim_listA>",,html-keyboard-response,357,2557768,0.0-19.0-1.3,96459,List1A,black,man,,,,null,,,,
null,is shouting at,,html-keyboard-response,358,2559769,0.0-19.0-2.3,96459,List1A,black,man,,,,null,,,,
13118,,,survey-text,359,2572887,0.0-19.0-3.3,96459,List1A,black,man,,,,,"{""Q0"":""Dave is shouting at beth""}","<img src=""stim_listA/shout1.gif""style=""height:400px;""></stim_listA>",is shouting at,
null,"<div style=""font-size:60px;"">+</div>",,html-keyboard-response,360,2573389,0.0-19.0-0.4,96459,List1A,black,man,,,,null,,,,
null,"<img src=""stim_listA/touch2.gif""style=""height:400px;""></stim_listA>",,html-keyboard-response,361,2575390,0.0-19.0-1.4,96459,List1A,black,man,,,,null,,,,
null,are touching each other,,html-keyboard-response,362,2577391,0.0-19.0-2.4,96459,List1A,black,man,,,,null,,,,
22729,,,survey-text,363,2600121,0.0-19.0-3.4,96459,List1A,black,man,,,,,"{""Q0"":""Beth and dave are touching each other""}","<img src=""stim_listA/touch2.gif""style=""height:400px;""></stim_listA>",are touching each other,
null,"<div style=""font-size:60px;"">+</div>",,html-keyboard-response,364,2600622,0.0-19.0-0.5,96459,List1A,black,man,,,,null,,,,
null,"<img src=""stim_listA/flirt4.gif""style=""height:400px;""></stim_listA>",,html-keyboard-response,365,2602624,0.0-19.0-1.5,96459,List1A,black,man,,,,null,,,,
null,are flirting with each other,,html-keyboard-response,366,2604626,0.0-19.0-2.5,96459,List1A,black,man,,,,null,,,,
39079,,,survey-text,367,2643706,0.0-19.0-3.5,96459,List1A,black,man,,,,,"{""Q0"":""ruth and dave are flirting with each other""}","<img src=""stim_listA/flirt4.gif""style=""height:400px;""></stim_listA>",are flirting with each other,
null,"<div style=""font-size:60px;"">+</div>",,html-keyboard-response,368,2644213,0.0-19.0-0.6,96459,List1A,black,man,,,,null,,,,
null,"<img src=""stim_listA/kiss6.gif""style=""height:400px;""></stim_listA>",,html-keyboard-response,369,2646214,0.0-19.0-1.6,96459,List1A,black,man,,,,null,,,,
null,are kissing each other,,html-keyboard-response,370,2648227,0.0-19.0-2.6,96459,List1A,black,man,,,,null,,,,
18027,,,survey-text,371,2666256,0.0-19.0-3.6,96459,List1A,black,man,,,,,"{""Q0"":""mike and dave are kissing each other""}","<img src=""stim_listA/kiss6.gif""style=""height:400px;""></stim_listA>",are kissing each other,
null,"<div style=""font-size:60px;"">+</div>",,html-keyboard-response,372,2666757,0.0-19.0-0.7,96459,List1A,black,man,,,,null,,,,
null,"<img src=""stim_listA/kiss7.gif""style=""height:400px;""></stim_listA>",,html-keyboard-response,373,2668759,0.0-19.0-1.7,96459,List1A,black,man,,,,null,,,,
null,is kissing,,html-keyboard-response,374,2670764,0.0-19.0-2.7,96459,List1A,black,man,,,,null,,,,
10933,,,survey-text,375,2681697,0.0-19.0-3.7,96459,List1A,black,man,,,,,"{""Q0"":""ruth is kissing beth""}","<img src=""stim_listA/kiss7.gif""style=""height:400px;""></stim_listA>",is kissing,
null,"<div style=""font-size:60px;"">+</div>",,html-keyboard-response,376,2682212,0.0-19.0-0.8,96459,List1A,black,man,,,,null,,,,
null,"<img src=""stim_listA/shout3.gif""style=""height:400px;""></stim_listA>",,html-keyboard-response,377,2684214,0.0-19.0-1.8,96459,List1A,black,man,,,,null,,,,
null,is shouting at,,html-keyboard-response,378,2686222,0.0-19.0-2.8,96459,List1A,black,man,,,,null,,,,
19535,,,survey-text,379,2705758,0.0-19.0-3.8,96459,List1A,black,man,,,,,"{""Q0"":""luke is shouting at beth""}","<img src=""stim_listA/shout3.gif""style=""height:400px;""></stim_listA>",is shouting at,
null,"<div style=""font-size:60px;"">+</div>",,html-keyboard-response,380,2706260,0.0-19.0-0.9,96459,List1A,black,man,,,,null,,,,
null,"<img src=""stim_listA/touch4.gif""style=""height:400px;""></stim_listA>",,html-keyboard-response,381,2708263,0.0-19.0-1.9,96459,List1A,black,man,,,,null,,,,
null,are touching each other,,html-keyboard-response,382,2710264,0.0-19.0-2.9,96459,List1A,black,man,,,,null,,,,
31631,,,survey-text,383,2741895,0.0-19.0-3.9,96459,List1A,black,man,,,,,"{""Q0"":""luke and beth are touching each other""}","<img src=""stim_listA/touch4.gif""style=""height:400px;""></stim_listA>",are touching each other,
null,"<div style=""font-size:60px;"">+</div>",,html-keyboard-response,384,2742396,0.0-19.0-0.10,96459,List1A,black,man,,,,null,,,,
null,"<img src=""stim_listA/play5.gif""style=""height:400px;""></stim_listA>",,html-keyboard-response,385,2744398,0.0-19.0-1.10,96459,List1A,black,man,,,,null,,,,
null,is playing with,,html-keyboard-response,386,2746408,0.0-19.0-2.10,96459,List1A,black,man,,,,null,,,,
26664,,,survey-text,387,2773073,0.0-19.0-3.10,96459,List1A,black,man,,,,,"{""Q0"":""Dave is  playing with mike""}","<img src=""stim_listA/play5.gif""style=""height:400px;""></stim_listA>",is playing with,
null,"<div style=""font-size:60px;"">+</div>",,html-keyboard-response,388,2773575,0.0-19.0-0.11,96459,List1A,black,man,,,,null,,,,
null,"<img src=""stim_listA/talk5.gif""style=""height:400px;""></stim_listA>",,html-keyboard-response,389,2775576,0.0-19.0-1.11,96459,List1A,black,man,,,,null,,,,
null,is talking to,,html-keyboard-response,390,2777578,0.0-19.0-2.11,96459,List1A,black,man,,,,null,,,,
13312,,,survey-text,391,2790890,0.0-19.0-3.11,96459,List1A,black,man,,,,,"{""Q0"":""Dave is talking to kevin""}","<img src=""stim_listA/talk5.gif""style=""height:400px;""></stim_listA>",is talking to,
null,"<div style=""font-size:60px;"">+</div>",,html-keyboard-response,392,2791392,0.0-19.0-0.12,96459,List1A,black,man,,,,null,,,,
null,"<img src=""stim_listA/shout5.gif""style=""height:400px;""></stim_listA>",,html-keyboard-response,393,2793394,0.0-19.0-1.12,96459,List1A,black,man,,,,null,,,,
null,is shouting at,,html-keyboard-response,394,2795396,0.0-19.0-2.12,96459,List1A,black,man,,,,null,,,,
14609,,,survey-text,395,2810005,0.0-19.0-3.12,96459,List1A,black,man,,,,,"{""Q0"":""kevin is shouting at luke""}","<img src=""stim_listA/shout5.gif""style=""height:400px;""></stim_listA>",is shouting at,
null,"<div style=""font-size:60px;"">+</div>",,html-keyboard-response,396,2810513,0.0-19.0-0.13,96459,List1A,black,man,,,,null,,,,
null,"<img src=""stim_listA/argue7.gif""style=""height:400px;""></stim_listA>",,html-keyboard-response,397,2812515,0.0-19.0-1.13,96459,List1A,black,man,,,,null,,,,
null,is arguing with,,html-keyboard-response,398,2814519,0.0-19.0-2.13,96459,List1A,black,man,,,,null,,,,
18782,,,survey-text,399,2833303,0.0-19.0-3.13,96459,List1A,black,man,,,,,"{""Q0"":""kate is arguing with ruth""}","<img src=""stim_listA/argue7.gif""style=""height:400px;""></stim_listA>",is arguing with,
null,"<div style=""font-size:60px;"">+</div>",,html-keyboard-response,400,2833805,0.0-19.0-0.14,96459,List1A,black,man,,,,null,,,,
null,"<img src=""stim_listA/fight4.gif""style=""height:400px;""></stim_listA>",,html-keyboard-response,401,2835806,0.0-19.0-1.14,96459,List1A,black,man,,,,null,,,,
null,are fighting each other,,html-keyboard-response,402,2837814,0.0-19.0-2.14,96459,List1A,black,man,,,,null,,,,
18358,,,survey-text,403,2856173,0.0-19.0-3.14,96459,List1A,black,man,,,,,"{""Q0"":""luke and ruth are fighting each other""}","<img src=""stim_listA/fight4.gif""style=""height:400px;""></stim_listA>",are fighting each other,
null,"<div style=""font-size:60px;"">+</div>",,html-keyboard-response,404,2856681,0.0-19.0-0.15,96459,List1A,black,man,,,,null,,,,
null,"<img src=""stim_listA/flirt6.gif""style=""height:400px;""></stim_listA>",,html-keyboard-response,405,2858683,0.0-19.0-1.15,96459,List1A,black,man,,,,null,,,,
null,are flirting with each other,,html-keyboard-response,406,2860686,0.0-19.0-2.15,96459,List1A,black,man,,,,null,,,,
19408,,,survey-text,407,2880094,0.0-19.0-3.15,96459,List1A,black,man,,,,,"{""Q0"":""luke and mike are flirting with each other""}","<img src=""stim_listA/flirt6.gif""style=""height:400px;""></stim_listA>",are flirting with each other,
null,"<div style=""font-size:60px;"">+</div>",,html-keyboard-response,408,2880604,0.0-19.0-0.16,96459,List1A,black,man,,,,null,,,,
null,"<img src=""stim_listA/argue6.gif""style=""height:400px;""></stim_listA>",,html-keyboard-response,409,2882607,0.0-19.0-1.16,96459,List1A,black,man,,,,null,,,,
null,are arguing with each other,,html-keyboard-response,410,2884615,0.0-19.0-2.16,96459,List1A,black,man,,,,null,,,,
29586,,,survey-text,411,2914202,0.0-19.0-3.16,96459,List1A,black,man,,,,,"{""Q0"":""Kevin  and Dave are arguing with each other""}","<img src=""stim_listA/argue6.gif""style=""height:400px;""></stim_listA>",are arguing with each other,
null,"<div style=""font-size:60px;"">+</div>",,html-keyboard-response,412,2914709,0.0-19.0-0.17,96459,List1A,black,man,,,,null,,,,
null,"<img src=""stim_listA/kiss8.gif""style=""height:400px;""></stim_listA>",,html-keyboard-response,413,2916711,0.0-19.0-1.17,96459,List1A,black,man,,,,null,,,,
null,are kissing each other,,html-keyboard-response,414,2918719,0.0-19.0-2.17,96459,List1A,black,man,,,,null,,,,
17693,,,survey-text,415,2936413,0.0-19.0-3.17,96459,List1A,black,man,,,,,"{""Q0"":""jane and kate are  kissing each other""}","<img src=""stim_listA/kiss8.gif""style=""height:400px;""></stim_listA>",are kissing each other,
null,"<div style=""font-size:60px;"">+</div>",,html-keyboard-response,416,2936915,0.0-19.0-0.18,96459,List1A,black,man,,,,null,,,,
null,"<img src=""stim_listA/flirt2.gif""style=""height:400px;""></stim_listA>",,html-keyboard-response,417,2938917,0.0-19.0-1.18,96459,List1A,black,man,,,,null,,,,
null,are flirting with each other,,html-keyboard-response,418,2940925,0.0-19.0-2.18,96459,List1A,black,man,,,,null,,,,
16517,,,survey-text,419,2957442,0.0-19.0-3.18,96459,List1A,black,man,,,,,"{""Q0"":""beth and mike are flirting with each other""}","<img src=""stim_listA/flirt2.gif""style=""height:400px;""></stim_listA>",are flirting with each other,
null,"<div style=""font-size:60px;"">+</div>",,html-keyboard-response,420,2957944,0.0-19.0-0.19,96459,List1A,black,man,,,,null,,,,
null,"<img src=""stim_listA/fight8.gif""style=""height:400px;""></stim_listA>",,html-keyboard-response,421,2959946,0.0-19.0-1.19,96459,List1A,black,man,,,,null,,,,
null,are fighting each other,,html-keyboard-response,422,2961961,0.0-19.0-2.19,96459,List1A,black,man,,,,null,,,,
19821,,,survey-text,423,2981782,0.0-19.0-3.19,96459,List1A,black,man,,,,,"{""Q0"":""ruth and beth are fighting each other""}","<img src=""stim_listA/fight8.gif""style=""height:400px;""></stim_listA>",are fighting each other,
3057,<p>Thank you for completing that task.</p><p>The final part of this session is a short questionnaire.</p><p>Press Continue.</p>,0,html-button-response,424,2984840,0.0-20.0,96459,List1A,black,man,,,,,,,,
37873,,,survey-text,425,3023727,0.0-21.0,96459,List1A,black,man,,,,,"{""Q0"":""55"",""Q1"":""english"",""Q2"":""english"",""Q3"":""USA"",""Q4"":""African American"",""Q5"":""Male""}",,,demographics
10854,,,survey-likert,426,3034584,0.0-22.0,96459,List1A,black,man,,,,,"{""Q0"":3}",,,likert_ESS
23324,,,survey-likert,427,3057910,0.0-23.0,96459,List1A,black,man,,,,,"{""Q0"":5}",,,likert_NSSAL_Q1
3650,,,survey-likert,428,3061562,0.0-24.0,96459,List1A,black,man,,,,,"{""Q0"":5}",,,likert_NSSAL_Q2
12213,,,survey-likert,429,3073777,0.0-25.0,96459,List1A,black,man,,,,,"{""Q0"":3}",,,likert_CGRS_Q1
5018,,,survey-likert,430,3078797,0.0-26.0,96459,List1A,black,man,,,,,"{""Q0"":3}",,,likert_CGRS_Q2
4019,,,survey-likert,431,3082817,0.0-27.0,96459,List1A,black,man,,,,,"{""Q0"":3}",,,likert_CGRS_Q3
6563,,,survey-text,432,3089381,0.0-28.0,96459,List1A,black,man,,,,,"{""Q0"":""ccc""}",,,worker_id
29606,,,external-html,433,3119225,0.0-29.0,96459,List1A,black,man,debrief.html,,,,,,,
