rt,stimulus,button_pressed,trial_type,trial_index,time_elapsed,internal_node_id,subject,list,ppt_race,ppt_gender,url,first_guess,correct,key_press,responses,image_type,phrase_type,test_part
2653,Welcome to the experiment. Press Continue to begin.,0,html-button-response,0,2656,0.0-0.0,97921,List1A,white,woman,,,,,,,,
19330,,,external-html,1,23043,0.0-1.0,97921,List1A,white,woman,consent.html,,,,,,,
10895,"<p>On the next page, you will see portraits of 8 people and their names.</p><p>Your first task is to take a few minutes to memorise the names of these people.</p><p>You will have to recall their names during the rest of the experiment, so it is</p><p>essential that you try to memorise these people and their names as best as you can.</p><br><p><strong>You will then be tested on your memory of these names and portraits.</strong></p><br><p>The experiment will start after you have completed this memory test.</p><br><p>Ready?</p>",0,html-button-response,2,33940,0.0-2.0,97921,List1A,white,woman,,,,,,,,
34451,"<img src='img/portrait_matrix_list1.jpg' style='width:900px;height:500px;''></img><p>If you have memorised all the portraits and names and are ready to start, press Continue.</p><p><strong>Please note: Your memory of these faces will be tested 4 times during this experiment.</strong></p>",0,html-button-response,3,69397,0.0-3.0-0.0,97921,List1A,white,woman,,,,,,,,
4435,"<img src=""portrait/WW2.jpg""style=""height:400px;""></img>",3,html-button-response,4,74835,0.0-3.0-1.0,97921,List1A,white,woman,,TRUE,3,,,,,
null,CORRECT,,html-keyboard-response,5,76346,0.0-3.0-2.0-0.0,97921,List1A,white,woman,,,,null,,,,
2204,"<img src=""portrait/WM1.jpg""style=""height:400px;""></img>",6,html-button-response,6,78552,0.0-3.0-4.0,97921,List1A,white,woman,,TRUE,6,,,,,
null,CORRECT,,html-keyboard-response,7,80060,0.0-3.0-5.0-0.0,97921,List1A,white,woman,,,,null,,,,
4269,"<img src=""portrait/BW1.jpg""style=""height:400px;""></img>",0,html-button-response,8,84331,0.0-3.0-7.0,97921,List1A,white,woman,,TRUE,0,,,,,
null,CORRECT,,html-keyboard-response,9,85836,0.0-3.0-8.0-0.0,97921,List1A,white,woman,,,,null,,,,
3975,"<img src=""portrait/WW1.jpg""style=""height:400px;""></img>",1,html-button-response,10,89812,0.0-3.0-10.0,97921,List1A,white,woman,,TRUE,1,,,,,
null,CORRECT,,html-keyboard-response,11,91315,0.0-3.0-11.0-0.0,97921,List1A,white,woman,,,,null,,,,
1785,"<img src=""portrait/WM2.jpg""style=""height:400px;""></img>",7,html-button-response,12,93104,0.0-3.0-13.0,97921,List1A,white,woman,,TRUE,7,,,,,
null,CORRECT,,html-keyboard-response,13,94611,0.0-3.0-14.0-0.0,97921,List1A,white,woman,,,,null,,,,
3327,"<img src=""portrait/BW2.jpg""style=""height:400px;""></img>",2,html-button-response,14,97939,0.0-3.0-16.0,97921,List1A,white,woman,,TRUE,2,,,,,
null,CORRECT,,html-keyboard-response,15,99441,0.0-3.0-17.0-0.0,97921,List1A,white,woman,,,,null,,,,
2303,"<img src=""portrait/BM1.jpg""style=""height:400px;""></img>",5,html-button-response,16,101746,0.0-3.0-19.0,97921,List1A,white,woman,,TRUE,4,,,,,
3181,"<img src=""portrait/BM1.jpg""style=""height:400px;""></img>",4,html-button-response,17,105932,0.0-3.0-21.0-0.0,97921,List1A,white,woman,,FALSE,4,,,,,
null,CORRECT,,html-keyboard-response,18,107438,0.0-3.0-21.0-1.0-0.0,97921,List1A,white,woman,,,,null,,,,
2834,"<img src=""portrait/BM2.jpg""style=""height:400px;""></img>",5,html-button-response,19,110273,0.0-3.0-22.0,97921,List1A,white,woman,,TRUE,5,,,,,
null,CORRECT,,html-keyboard-response,20,111777,0.0-3.0-23.0-0.0,97921,List1A,white,woman,,,,null,,,,
1363,<p>You got 7 out of 8 right first time. Press Continue.</p>,0,html-button-response,21,113142,0.0-3.0-25.0,97921,List1A,white,woman,,,,,,,,
2628,"As you did not score 100%, the memory game will repeat. Press Continue.",0,html-button-response,22,116776,0.0-3.0-26.0-0.0,97921,List1A,white,woman,,,,,,,,
2698,"<img src='img/portrait_matrix_list1.jpg' style='width:900px;height:500px;''></img><p>If you have memorised all the portraits and names and are ready to start, press Continue.</p><p><strong>Please note: Your memory of these faces will be tested 4 times during this experiment.</strong></p>",0,html-button-response,23,120477,0.0-3.1-0.1,97921,List1A,white,woman,,,,,,,,
1721,"<img src=""portrait/WW2.jpg""style=""height:400px;""></img>",3,html-button-response,24,123204,0.0-3.1-1.1,97921,List1A,white,woman,,TRUE,3,,,,,
null,CORRECT,,html-keyboard-response,25,124710,0.0-3.1-2.1-0.1,97921,List1A,white,woman,,,,null,,,,
3356,"<img src=""portrait/WM1.jpg""style=""height:400px;""></img>",6,html-button-response,26,128067,0.0-3.1-4.1,97921,List1A,white,woman,,TRUE,6,,,,,
null,CORRECT,,html-keyboard-response,27,129572,0.0-3.1-5.1-0.1,97921,List1A,white,woman,,,,null,,,,
2646,"<img src=""portrait/BW1.jpg""style=""height:400px;""></img>",0,html-button-response,28,132220,0.0-3.1-7.1,97921,List1A,white,woman,,TRUE,0,,,,,
null,CORRECT,,html-keyboard-response,29,133724,0.0-3.1-8.1-0.1,97921,List1A,white,woman,,,,null,,,,
1662,"<img src=""portrait/WW1.jpg""style=""height:400px;""></img>",1,html-button-response,30,135388,0.0-3.1-10.1,97921,List1A,white,woman,,TRUE,1,,,,,
null,CORRECT,,html-keyboard-response,31,136891,0.0-3.1-11.1-0.1,97921,List1A,white,woman,,,,null,,,,
2454,"<img src=""portrait/WM2.jpg""style=""height:400px;""></img>",7,html-button-response,32,139347,0.0-3.1-13.1,97921,List1A,white,woman,,TRUE,7,,,,,
null,CORRECT,,html-keyboard-response,33,140849,0.0-3.1-14.1-0.1,97921,List1A,white,woman,,,,null,,,,
3186,"<img src=""portrait/BW2.jpg""style=""height:400px;""></img>",2,html-button-response,34,144037,0.0-3.1-16.1,97921,List1A,white,woman,,TRUE,2,,,,,
null,CORRECT,,html-keyboard-response,35,145548,0.0-3.1-17.1-0.1,97921,List1A,white,woman,,,,null,,,,
1528,"<img src=""portrait/BM1.jpg""style=""height:400px;""></img>",4,html-button-response,36,147077,0.0-3.1-19.1,97921,List1A,white,woman,,TRUE,4,,,,,
null,CORRECT,,html-keyboard-response,37,148584,0.0-3.1-20.1-0.1,97921,List1A,white,woman,,,,null,,,,
1864,"<img src=""portrait/BM2.jpg""style=""height:400px;""></img>",5,html-button-response,38,150452,0.0-3.1-22.1,97921,List1A,white,woman,,TRUE,5,,,,,
null,CORRECT,,html-keyboard-response,39,151963,0.0-3.1-23.1-0.1,97921,List1A,white,woman,,,,null,,,,
1313,<p>You got 8 out of 8 right first time. Press Continue.</p>,0,html-button-response,40,153277,0.0-3.1-25.1,97921,List1A,white,woman,,,,,,,,
11233,"<p>In this experiment, you will view photographs of the people from the memory game interacting.</p><p>By using the <strong>exact</strong> phrase given <i>after</i> the photograph appears and recalling the correct names of the people in the photographs, form a sentence describing the interaction. You do not need to capitalise names.</p><p>Type your answer in the space provided. Please complete every sentence before moving onto the next trial.</p><p>You will only have a few seconds to memorise each given photograph and phrase before you can respond, so try your best to focus.</p><p>An example is given below. Press 'Continue' when you are ready.</p><img src='img/speaking_example.jpg' style='width:800px;height:460px;''></img>",0,html-button-response,41,165518,0.0-4.0,97921,List1A,white,woman,,,,,,,,
1824,"<p>Before the experiment starts, you will watch two example trials. Press 'Continue'.</p>",0,html-button-response,42,168344,0.0-5.0,97921,List1A,white,woman,,,,,,,,
null,<img src='img/meet_eg.gif' style='height:400px;''></img>,,html-keyboard-response,43,171350,0.0-6.0,97921,List1A,white,woman,,,,null,,,,
null,<p>is meeting</p>,,html-keyboard-response,44,173354,0.0-7.0,97921,List1A,white,woman,,,,null,,,,
1778,<p><b>Answer:</b> kate is meeting beth</p>,0,html-button-response,45,175133,0.0-8.0,97921,List1A,white,woman,,,,,,,,
null,<img src='img/look_eg.gif' style='height:400px;''></img>,,html-keyboard-response,46,178140,0.0-9.0,97921,List1A,white,woman,,,,null,,,,
null,<p>are looking at each other</p>,,html-keyboard-response,47,180141,0.0-10.0,97921,List1A,white,woman,,,,null,,,,
1294,<p><b>Answer:</b> luke and dave are looking at each other</p>,0,html-button-response,48,181436,0.0-11.0,97921,List1A,white,woman,,,,,,,,
2674,"<p>Ready to start the experiment?</p><br><p><strong>Remember to describe the picture using a full sentence,</strong></p><p><strong>that combines the names of the people with the <i>exact</i> phrase given.</strong></p><p><strong>To receive full payment you must do this correctly.</strong></p><p><strong> You do not need to capitalise names or use punctuation.</strong></p><br><p>Press 'Continue' to begin.</p>",0,html-button-response,49,185114,0.0-12.0,97921,List1A,white,woman,,,,,,,,
null,"<div style=""font-size:60px;"">+</div>",,html-keyboard-response,50,186618,0.0-13.0-0.0,97921,List1A,white,woman,,,,null,,,,
null,"<img src=""stim_listA/fight1.gif""style=""height:400px;""></stim_listA>",,html-keyboard-response,51,188620,0.0-13.0-1.0,97921,List1A,white,woman,,,,null,,,,
null,is fighting,,html-keyboard-response,52,190621,0.0-13.0-2.0,97921,List1A,white,woman,,,,null,,,,
17722,,,survey-text,53,208345,0.0-13.0-3.0,97921,List1A,white,woman,,,,,"{""Q0"":""Kate is fighting with Mike""}","<img src=""stim_listA/fight1.gif""style=""height:400px;""></stim_listA>",is fighting,
null,"<div style=""font-size:60px;"">+</div>",,html-keyboard-response,54,208850,0.0-13.0-0.1,97921,List1A,white,woman,,,,null,,,,
null,"<img src=""stim_listA/touch1.gif""style=""height:400px;""></stim_listA>",,html-keyboard-response,55,210852,0.0-13.0-1.1,97921,List1A,white,woman,,,,null,,,,
null,is touching,,html-keyboard-response,56,212853,0.0-13.0-2.1,97921,List1A,white,woman,,,,null,,,,
6046,,,survey-text,57,218901,0.0-13.0-3.1,97921,List1A,white,woman,,,,,"{""Q0"":""Kate is touching mike""}","<img src=""stim_listA/touch1.gif""style=""height:400px;""></stim_listA>",is touching,
null,"<div style=""font-size:60px;"">+</div>",,html-keyboard-response,58,219402,0.0-13.0-0.2,97921,List1A,white,woman,,,,null,,,,
null,"<img src=""stim_listA/marry7.gif""style=""height:400px;""></stim_listA>",,html-keyboard-response,59,221408,0.0-13.0-1.2,97921,List1A,white,woman,,,,null,,,,
null,is marrying,,html-keyboard-response,60,223409,0.0-13.0-2.2,97921,List1A,white,woman,,,,null,,,,
7998,,,survey-text,61,231409,0.0-13.0-3.2,97921,List1A,white,woman,,,,,"{""Q0"":""Kate is marrying ruth""}","<img src=""stim_listA/marry7.gif""style=""height:400px;""></stim_listA>",is marrying,
null,"<div style=""font-size:60px;"">+</div>",,html-keyboard-response,62,231911,0.0-13.0-0.3,97921,List1A,white,woman,,,,null,,,,
null,"<img src=""stim_listA/marry8.gif""style=""height:400px;""></stim_listA>",,html-keyboard-response,63,233914,0.0-13.0-1.3,97921,List1A,white,woman,,,,null,,,,
null,are marrying each other,,html-keyboard-response,64,235917,0.0-13.0-2.3,97921,List1A,white,woman,,,,null,,,,
17084,,,survey-text,65,253002,0.0-13.0-3.3,97921,List1A,white,woman,,,,,"{""Q0"":""Beth and Jane are marrying each other""}","<img src=""stim_listA/marry8.gif""style=""height:400px;""></stim_listA>",are marrying each other,
null,"<div style=""font-size:60px;"">+</div>",,html-keyboard-response,66,253506,0.0-13.0-0.4,97921,List1A,white,woman,,,,null,,,,
null,"<img src=""stim_listA/flirt8.gif""style=""height:400px;""></stim_listA>",,html-keyboard-response,67,255508,0.0-13.0-1.4,97921,List1A,white,woman,,,,null,,,,
null,are flirting with each other,,html-keyboard-response,68,257512,0.0-13.0-2.4,97921,List1A,white,woman,,,,null,,,,
9587,,,survey-text,69,267099,0.0-13.0-3.4,97921,List1A,white,woman,,,,,"{""Q0"":""Ruth and Kate are flirting with each other""}","<img src=""stim_listA/flirt8.gif""style=""height:400px;""></stim_listA>",are flirting with each other,
null,"<div style=""font-size:60px;"">+</div>",,html-keyboard-response,70,267602,0.0-13.0-0.5,97921,List1A,white,woman,,,,null,,,,
null,"<img src=""stim_listA/play2.gif""style=""height:400px;""></stim_listA>",,html-keyboard-response,71,269604,0.0-13.0-1.5,97921,List1A,white,woman,,,,null,,,,
null,are playing with each other,,html-keyboard-response,72,271605,0.0-13.0-2.5,97921,List1A,white,woman,,,,null,,,,
8922,,,survey-text,73,280528,0.0-13.0-3.5,97921,List1A,white,woman,,,,,"{""Q0"":""Fred and beth are playing with each other""}","<img src=""stim_listA/play2.gif""style=""height:400px;""></stim_listA>",are playing with each other,
null,"<div style=""font-size:60px;"">+</div>",,html-keyboard-response,74,281029,0.0-13.0-0.6,97921,List1A,white,woman,,,,null,,,,
null,"<img src=""stim_listA/touch8.gif""style=""height:400px;""></stim_listA>",,html-keyboard-response,75,283032,0.0-13.0-1.6,97921,List1A,white,woman,,,,null,,,,
null,are touching each other,,html-keyboard-response,76,285033,0.0-13.0-2.6,97921,List1A,white,woman,,,,null,,,,
8188,,,survey-text,77,293222,0.0-13.0-3.6,97921,List1A,white,woman,,,,,"{""Q0"":""ruth and beth are touching each other""}","<img src=""stim_listA/touch8.gif""style=""height:400px;""></stim_listA>",are touching each other,
null,"<div style=""font-size:60px;"">+</div>",,html-keyboard-response,78,293724,0.0-13.0-0.7,97921,List1A,white,woman,,,,null,,,,
null,"<img src=""stim_listA/flirt3.gif""style=""height:400px;""></stim_listA>",,html-keyboard-response,79,295725,0.0-13.0-1.7,97921,List1A,white,woman,,,,null,,,,
null,is flirting with,,html-keyboard-response,80,297726,0.0-13.0-2.7,97921,List1A,white,woman,,,,null,,,,
3144,,,survey-text,81,300872,0.0-13.0-3.7,97921,List1A,white,woman,,,,,"{""Q0"":""""}","<img src=""stim_listA/flirt3.gif""style=""height:400px;""></stim_listA>",is flirting with,
null,"<div style=""font-size:60px;"">+</div>",,html-keyboard-response,82,301373,0.0-13.0-0.8,97921,List1A,white,woman,,,,null,,,,
null,"<img src=""stim_listA/dance4.gif""style=""height:400px;""></stim_listA>",,html-keyboard-response,83,303374,0.0-13.0-1.8,97921,List1A,white,woman,,,,null,,,,
null,are dancing with each other,,html-keyboard-response,84,305375,0.0-13.0-2.8,97921,List1A,white,woman,,,,null,,,,
9005,,,survey-text,85,314381,0.0-13.0-3.8,97921,List1A,white,woman,,,,,"{""Q0"":""Ruth and  Dave are dancing with each other""}","<img src=""stim_listA/dance4.gif""style=""height:400px;""></stim_listA>",are dancing with each other,
null,"<div style=""font-size:60px;"">+</div>",,html-keyboard-response,86,314886,0.0-13.0-0.9,97921,List1A,white,woman,,,,null,,,,
null,"<img src=""stim_listA/fight7.gif""style=""height:400px;""></stim_listA>",,html-keyboard-response,87,316888,0.0-13.0-1.9,97921,List1A,white,woman,,,,null,,,,
null,is fighting,,html-keyboard-response,88,318890,0.0-13.0-2.9,97921,List1A,white,woman,,,,null,,,,
6084,,,survey-text,89,324976,0.0-13.0-3.9,97921,List1A,white,woman,,,,,"{""Q0"":""Jane is fighting Kate""}","<img src=""stim_listA/fight7.gif""style=""height:400px;""></stim_listA>",is fighting,
null,"<div style=""font-size:60px;"">+</div>",,html-keyboard-response,90,325479,0.0-13.0-0.10,97921,List1A,white,woman,,,,null,,,,
null,"<img src=""stim_listA/talk5.gif""style=""height:400px;""></stim_listA>",,html-keyboard-response,91,327482,0.0-13.0-1.10,97921,List1A,white,woman,,,,null,,,,
null,is talking to,,html-keyboard-response,92,329483,0.0-13.0-2.10,97921,List1A,white,woman,,,,null,,,,
6125,,,survey-text,93,335609,0.0-13.0-3.10,97921,List1A,white,woman,,,,,"{""Q0"":""Dave is talking to fred""}","<img src=""stim_listA/talk5.gif""style=""height:400px;""></stim_listA>",is talking to,
null,"<div style=""font-size:60px;"">+</div>",,html-keyboard-response,94,336112,0.0-13.0-0.11,97921,List1A,white,woman,,,,null,,,,
null,"<img src=""stim_listA/dance3.gif""style=""height:400px;""></stim_listA>",,html-keyboard-response,95,338115,0.0-13.0-1.11,97921,List1A,white,woman,,,,null,,,,
null,is dancing with,,html-keyboard-response,96,340116,0.0-13.0-2.11,97921,List1A,white,woman,,,,null,,,,
4318,,,survey-text,97,344434,0.0-13.0-3.11,97921,List1A,white,woman,,,,,"{""Q0"":""Jane is dancing with Luke ""}","<img src=""stim_listA/dance3.gif""style=""height:400px;""></stim_listA>",is dancing with,
null,"<div style=""font-size:60px;"">+</div>",,html-keyboard-response,98,344938,0.0-13.0-0.12,97921,List1A,white,woman,,,,null,,,,
null,"<img src=""stim_listA/fight5.gif""style=""height:400px;""></stim_listA>",,html-keyboard-response,99,346940,0.0-13.0-1.12,97921,List1A,white,woman,,,,null,,,,
null,is fighting,,html-keyboard-response,100,348944,0.0-13.0-2.12,97921,List1A,white,woman,,,,null,,,,
4133,,,survey-text,101,353078,0.0-13.0-3.12,97921,List1A,white,woman,,,,,"{""Q0"":""Mike is fighting Dave""}","<img src=""stim_listA/fight5.gif""style=""height:400px;""></stim_listA>",is fighting,
null,"<div style=""font-size:60px;"">+</div>",,html-keyboard-response,102,353580,0.0-13.0-0.13,97921,List1A,white,woman,,,,null,,,,
null,"<img src=""stim_listA/argue1.gif""style=""height:400px;""></stim_listA>",,html-keyboard-response,103,355581,0.0-13.0-1.13,97921,List1A,white,woman,,,,null,,,,
null,is arguing with,,html-keyboard-response,104,357585,0.0-13.0-2.13,97921,List1A,white,woman,,,,null,,,,
8788,,,survey-text,105,366375,0.0-13.0-3.13,97921,List1A,white,woman,,,,,"{""Q0"":""Beth is arguing with mike""}","<img src=""stim_listA/argue1.gif""style=""height:400px;""></stim_listA>",is arguing with,
null,"<div style=""font-size:60px;"">+</div>",,html-keyboard-response,106,366880,0.0-13.0-0.14,97921,List1A,white,woman,,,,null,,,,
null,"<img src=""stim_listA/touch2.gif""style=""height:400px;""></stim_listA>",,html-keyboard-response,107,368881,0.0-13.0-1.14,97921,List1A,white,woman,,,,null,,,,
null,are touching each other,,html-keyboard-response,108,370882,0.0-13.0-2.14,97921,List1A,white,woman,,,,null,,,,
6751,,,survey-text,109,377634,0.0-13.0-3.14,97921,List1A,white,woman,,,,,"{""Q0"":""Fred and Beth are touching each other""}","<img src=""stim_listA/touch2.gif""style=""height:400px;""></stim_listA>",are touching each other,
null,"<div style=""font-size:60px;"">+</div>",,html-keyboard-response,110,378137,0.0-13.0-0.15,97921,List1A,white,woman,,,,null,,,,
null,"<img src=""stim_listA/talk2.gif""style=""height:400px;""></stim_listA>",,html-keyboard-response,111,380139,0.0-13.0-1.15,97921,List1A,white,woman,,,,null,,,,
null,are talking to each other,,html-keyboard-response,112,382140,0.0-13.0-2.15,97921,List1A,white,woman,,,,null,,,,
6769,,,survey-text,113,388910,0.0-13.0-3.15,97921,List1A,white,woman,,,,,"{""Q0"":""Mike and beth are touching each other""}","<img src=""stim_listA/talk2.gif""style=""height:400px;""></stim_listA>",are talking to each other,
null,"<div style=""font-size:60px;"">+</div>",,html-keyboard-response,114,389411,0.0-13.0-0.16,97921,List1A,white,woman,,,,null,,,,
null,"<img src=""stim_listA/argue3.gif""style=""height:400px;""></stim_listA>",,html-keyboard-response,115,391413,0.0-13.0-1.16,97921,List1A,white,woman,,,,null,,,,
null,is arguing with,,html-keyboard-response,116,393414,0.0-13.0-2.16,97921,List1A,white,woman,,,,null,,,,
5289,,,survey-text,117,398704,0.0-13.0-3.16,97921,List1A,white,woman,,,,,"{""Q0"":""Dave is arguing with ruth""}","<img src=""stim_listA/argue3.gif""style=""height:400px;""></stim_listA>",is arguing with,
null,"<div style=""font-size:60px;"">+</div>",,html-keyboard-response,118,399206,0.0-13.0-0.17,97921,List1A,white,woman,,,,null,,,,
null,"<img src=""stim_listA/talk6.gif""style=""height:400px;""></stim_listA>",,html-keyboard-response,119,401287,0.0-13.0-1.17,97921,List1A,white,woman,,,,null,,,,
null,are talking to each other,,html-keyboard-response,120,403292,0.0-13.0-2.17,97921,List1A,white,woman,,,,null,,,,
1768,,,survey-text,121,405060,0.0-13.0-3.17,97921,List1A,white,woman,,,,,"{""Q0"":""""}","<img src=""stim_listA/talk6.gif""style=""height:400px;""></stim_listA>",are talking to each other,
null,"<div style=""font-size:60px;"">+</div>",,html-keyboard-response,122,405567,0.0-13.0-0.18,97921,List1A,white,woman,,,,null,,,,
null,"<img src=""stim_listA/fight4.gif""style=""height:400px;""></stim_listA>",,html-keyboard-response,123,407570,0.0-13.0-1.18,97921,List1A,white,woman,,,,null,,,,
null,are fighting each other,,html-keyboard-response,124,409574,0.0-13.0-2.18,97921,List1A,white,woman,,,,null,,,,
8580,,,survey-text,125,418155,0.0-13.0-3.18,97921,List1A,white,woman,,,,,"{""Q0"":""Luke and Ruth are fighting with each other ""}","<img src=""stim_listA/fight4.gif""style=""height:400px;""></stim_listA>",are fighting each other,
null,"<div style=""font-size:60px;"">+</div>",,html-keyboard-response,126,418658,0.0-13.0-0.19,97921,List1A,white,woman,,,,null,,,,
null,"<img src=""stim_listA/play5.gif""style=""height:400px;""></stim_listA>",,html-keyboard-response,127,420661,0.0-13.0-1.19,97921,List1A,white,woman,,,,null,,,,
null,is playing with,,html-keyboard-response,128,422664,0.0-13.0-2.19,97921,List1A,white,woman,,,,null,,,,
8224,,,survey-text,129,430889,0.0-13.0-3.19,97921,List1A,white,woman,,,,,"{""Q0"":""Dave is playing with mike""}","<img src=""stim_listA/play5.gif""style=""height:400px;""></stim_listA>",is playing with,
5571,"<img src='img/portrait_matrix_list1.jpg' style='width:900px;height:500px;''></img><p>If you have memorised all the portraits and names and are ready to start, press Continue.</p><p><strong>Please note: Your memory of these faces will be tested 4 times during this experiment.</strong></p>",0,html-button-response,130,436462,0.0-14.0-0.0,97921,List1A,white,woman,,,,,,,,
3340,"<img src=""portrait/WM1.jpg""style=""height:400px;""></img>",6,html-button-response,131,440804,0.0-14.0-1.0,97921,List1A,white,woman,,TRUE,6,,,,,
null,CORRECT,,html-keyboard-response,132,442307,0.0-14.0-2.0-0.0,97921,List1A,white,woman,,,,null,,,,
2994,"<img src=""portrait/BM2.jpg""style=""height:400px;""></img>",5,html-button-response,133,445302,0.0-14.0-4.0,97921,List1A,white,woman,,TRUE,5,,,,,
null,CORRECT,,html-keyboard-response,134,446813,0.0-14.0-5.0-0.0,97921,List1A,white,woman,,,,null,,,,
2118,"<img src=""portrait/BW1.jpg""style=""height:400px;""></img>",0,html-button-response,135,448933,0.0-14.0-7.0,97921,List1A,white,woman,,TRUE,0,,,,,
null,CORRECT,,html-keyboard-response,136,450436,0.0-14.0-8.0-0.0,97921,List1A,white,woman,,,,null,,,,
1649,"<img src=""portrait/WW2.jpg""style=""height:400px;""></img>",3,html-button-response,137,452086,0.0-14.0-10.0,97921,List1A,white,woman,,TRUE,3,,,,,
null,CORRECT,,html-keyboard-response,138,453592,0.0-14.0-11.0-0.0,97921,List1A,white,woman,,,,null,,,,
1587,"<img src=""portrait/WW1.jpg""style=""height:400px;""></img>",1,html-button-response,139,455180,0.0-14.0-13.0,97921,List1A,white,woman,,TRUE,1,,,,,
null,CORRECT,,html-keyboard-response,140,456684,0.0-14.0-14.0-0.0,97921,List1A,white,woman,,,,null,,,,
4430,"<img src=""portrait/BW2.jpg""style=""height:400px;""></img>",2,html-button-response,141,461117,0.0-14.0-16.0,97921,List1A,white,woman,,TRUE,2,,,,,
null,CORRECT,,html-keyboard-response,142,462621,0.0-14.0-17.0-0.0,97921,List1A,white,woman,,,,null,,,,
4127,"<img src=""portrait/BM1.jpg""style=""height:400px;""></img>",4,html-button-response,143,466750,0.0-14.0-19.0,97921,List1A,white,woman,,TRUE,4,,,,,
null,CORRECT,,html-keyboard-response,144,468251,0.0-14.0-20.0-0.0,97921,List1A,white,woman,,,,null,,,,
1276,"<img src=""portrait/WM2.jpg""style=""height:400px;""></img>",7,html-button-response,145,469529,0.0-14.0-22.0,97921,List1A,white,woman,,TRUE,7,,,,,
null,CORRECT,,html-keyboard-response,146,471033,0.0-14.0-23.0-0.0,97921,List1A,white,woman,,,,null,,,,
1664,<p>You got 8 out of 8 right first time. Press Continue.</p>,0,html-button-response,147,472697,0.0-14.0-25.0,97921,List1A,white,woman,,,,,,,,
null,"<div style=""font-size:60px;"">+</div>",,html-keyboard-response,148,474203,0.0-15.0-0.0,97921,List1A,white,woman,,,,null,,,,
null,"<img src=""stim_listA/argue6.gif""style=""height:400px;""></stim_listA>",,html-keyboard-response,149,476206,0.0-15.0-1.0,97921,List1A,white,woman,,,,null,,,,
null,are arguing with each other,,html-keyboard-response,150,478209,0.0-15.0-2.0,97921,List1A,white,woman,,,,null,,,,
9089,,,survey-text,151,487300,0.0-15.0-3.0,97921,List1A,white,woman,,,,,"{""Q0"":""Fred and dave are fighting with each other ""}","<img src=""stim_listA/argue6.gif""style=""height:400px;""></stim_listA>",are arguing with each other,
null,"<div style=""font-size:60px;"">+</div>",,html-keyboard-response,152,487804,0.0-15.0-0.1,97921,List1A,white,woman,,,,null,,,,
null,"<img src=""stim_listA/kiss2.gif""style=""height:400px;""></stim_listA>",,html-keyboard-response,153,489807,0.0-15.0-1.1,97921,List1A,white,woman,,,,null,,,,
null,are kissing each other,,html-keyboard-response,154,491812,0.0-15.0-2.1,97921,List1A,white,woman,,,,null,,,,
6284,,,survey-text,155,498097,0.0-15.0-3.1,97921,List1A,white,woman,,,,,"{""Q0"":""Mike and kate are kissing each other ""}","<img src=""stim_listA/kiss2.gif""style=""height:400px;""></stim_listA>",are kissing each other,
null,"<div style=""font-size:60px;"">+</div>",,html-keyboard-response,156,498601,0.0-15.0-0.2,97921,List1A,white,woman,,,,null,,,,
null,"<img src=""stim_listA/shout6.gif""style=""height:400px;""></stim_listA>",,html-keyboard-response,157,500605,0.0-15.0-1.2,97921,List1A,white,woman,,,,null,,,,
null,are shouting at each other,,html-keyboard-response,158,502606,0.0-15.0-2.2,97921,List1A,white,woman,,,,null,,,,
6829,,,survey-text,159,509437,0.0-15.0-3.2,97921,List1A,white,woman,,,,,"{""Q0"":""Mike and dave are arguing with each other ""}","<img src=""stim_listA/shout6.gif""style=""height:400px;""></stim_listA>",are shouting at each other,
null,"<div style=""font-size:60px;"">+</div>",,html-keyboard-response,160,509942,0.0-15.0-0.3,97921,List1A,white,woman,,,,null,,,,
null,"<img src=""stim_listA/marry3.gif""style=""height:400px;""></stim_listA>",,html-keyboard-response,161,511944,0.0-15.0-1.3,97921,List1A,white,woman,,,,null,,,,
null,is marrying,,html-keyboard-response,162,513945,0.0-15.0-2.3,97921,List1A,white,woman,,,,null,,,,
6461,,,survey-text,163,520408,0.0-15.0-3.3,97921,List1A,white,woman,,,,,"{""Q0"":""Dave is marrying ruth""}","<img src=""stim_listA/marry3.gif""style=""height:400px;""></stim_listA>",is marrying,
null,"<div style=""font-size:60px;"">+</div>",,html-keyboard-response,164,520911,0.0-15.0-0.4,97921,List1A,white,woman,,,,null,,,,
null,"<img src=""stim_listA/play3.gif""style=""height:400px;""></stim_listA>",,html-keyboard-response,165,522913,0.0-15.0-1.4,97921,List1A,white,woman,,,,null,,,,
null,is playing with,,html-keyboard-response,166,524914,0.0-15.0-2.4,97921,List1A,white,woman,,,,null,,,,
4158,,,survey-text,167,529074,0.0-15.0-3.4,97921,List1A,white,woman,,,,,"{""Q0"":""Dave is playing with Jane""}","<img src=""stim_listA/play3.gif""style=""height:400px;""></stim_listA>",is playing with,
null,"<div style=""font-size:60px;"">+</div>",,html-keyboard-response,168,529580,0.0-15.0-0.5,97921,List1A,white,woman,,,,null,,,,
null,"<img src=""stim_listA/dance5.gif""style=""height:400px;""></stim_listA>",,html-keyboard-response,169,531583,0.0-15.0-1.5,97921,List1A,white,woman,,,,null,,,,
null,is dancing with,,html-keyboard-response,170,533583,0.0-15.0-2.5,97921,List1A,white,woman,,,,null,,,,
4826,,,survey-text,171,538410,0.0-15.0-3.5,97921,List1A,white,woman,,,,,"{""Q0"":""Dave is dancing with fred""}","<img src=""stim_listA/dance5.gif""style=""height:400px;""></stim_listA>",is dancing with,
null,"<div style=""font-size:60px;"">+</div>",,html-keyboard-response,172,538914,0.0-15.0-0.6,97921,List1A,white,woman,,,,null,,,,
null,"<img src=""stim_listA/kiss4.gif""style=""height:400px;""></stim_listA>",,html-keyboard-response,173,540919,0.0-15.0-1.6,97921,List1A,white,woman,,,,null,,,,
null,are kissing each other,,html-keyboard-response,174,542921,0.0-15.0-2.6,97921,List1A,white,woman,,,,null,,,,
8974,,,survey-text,175,551896,0.0-15.0-3.6,97921,List1A,white,woman,,,,,"{""Q0"":""Jane and Dave are kissing each other ""}","<img src=""stim_listA/kiss4.gif""style=""height:400px;""></stim_listA>",are kissing each other,
null,"<div style=""font-size:60px;"">+</div>",,html-keyboard-response,176,552399,0.0-15.0-0.7,97921,List1A,white,woman,,,,null,,,,
null,"<img src=""stim_listA/play1.gif""style=""height:400px;""></stim_listA>",,html-keyboard-response,177,554400,0.0-15.0-1.7,97921,List1A,white,woman,,,,null,,,,
null,is playing with,,html-keyboard-response,178,556404,0.0-15.0-2.7,97921,List1A,white,woman,,,,null,,,,
5873,,,survey-text,179,562278,0.0-15.0-3.7,97921,List1A,white,woman,,,,,"{""Q0"":""Kate is plating with Mike ""}","<img src=""stim_listA/play1.gif""style=""height:400px;""></stim_listA>",is playing with,
null,"<div style=""font-size:60px;"">+</div>",,html-keyboard-response,180,562782,0.0-15.0-0.8,97921,List1A,white,woman,,,,null,,,,
null,"<img src=""stim_listA/argue8.gif""style=""height:400px;""></stim_listA>",,html-keyboard-response,181,564785,0.0-15.0-1.8,97921,List1A,white,woman,,,,null,,,,
null,are arguing with each other,,html-keyboard-response,182,566787,0.0-15.0-2.8,97921,List1A,white,woman,,,,null,,,,
6408,,,survey-text,183,573196,0.0-15.0-3.8,97921,List1A,white,woman,,,,,"{""Q0"":""Beth and Jane are arguing with each other ""}","<img src=""stim_listA/argue8.gif""style=""height:400px;""></stim_listA>",are arguing with each other,
null,"<div style=""font-size:60px;"">+</div>",,html-keyboard-response,184,573697,0.0-15.0-0.9,97921,List1A,white,woman,,,,null,,,,
null,"<img src=""stim_listA/dance6.gif""style=""height:400px;""></stim_listA>",,html-keyboard-response,185,575699,0.0-15.0-1.9,97921,List1A,white,woman,,,,null,,,,
null,are dancing with each other,,html-keyboard-response,186,577701,0.0-15.0-2.9,97921,List1A,white,woman,,,,null,,,,
6073,,,survey-text,187,583776,0.0-15.0-3.9,97921,List1A,white,woman,,,,,"{""Q0"":""Luke and Mike are dancing with each other ""}","<img src=""stim_listA/dance6.gif""style=""height:400px;""></stim_listA>",are dancing with each other,
null,"<div style=""font-size:60px;"">+</div>",,html-keyboard-response,188,584281,0.0-15.0-0.10,97921,List1A,white,woman,,,,null,,,,
null,"<img src=""stim_listA/argue5.gif""style=""height:400px;""></stim_listA>",,html-keyboard-response,189,586284,0.0-15.0-1.10,97921,List1A,white,woman,,,,null,,,,
null,is arguing with,,html-keyboard-response,190,588285,0.0-15.0-2.10,97921,List1A,white,woman,,,,null,,,,
4854,,,survey-text,191,593140,0.0-15.0-3.10,97921,List1A,white,woman,,,,,"{""Q0"":""Mike is arguing with Luke""}","<img src=""stim_listA/argue5.gif""style=""height:400px;""></stim_listA>",is arguing with,
null,"<div style=""font-size:60px;"">+</div>",,html-keyboard-response,192,593644,0.0-15.0-0.11,97921,List1A,white,woman,,,,null,,,,
null,"<img src=""stim_listA/dance1.gif""style=""height:400px;""></stim_listA>",,html-keyboard-response,193,595646,0.0-15.0-1.11,97921,List1A,white,woman,,,,null,,,,
null,is dancing with,,html-keyboard-response,194,597648,0.0-15.0-2.11,97921,List1A,white,woman,,,,null,,,,
4656,,,survey-text,195,602304,0.0-15.0-3.11,97921,List1A,white,woman,,,,,"{""Q0"":""Kate is dancing with Fred""}","<img src=""stim_listA/dance1.gif""style=""height:400px;""></stim_listA>",is dancing with,
null,"<div style=""font-size:60px;"">+</div>",,html-keyboard-response,196,602810,0.0-15.0-0.12,97921,List1A,white,woman,,,,null,,,,
null,"<img src=""stim_listA/shout3.gif""style=""height:400px;""></stim_listA>",,html-keyboard-response,197,604812,0.0-15.0-1.12,97921,List1A,white,woman,,,,null,,,,
null,is shouting at,,html-keyboard-response,198,606813,0.0-15.0-2.12,97921,List1A,white,woman,,,,null,,,,
4855,,,survey-text,199,611670,0.0-15.0-3.12,97921,List1A,white,woman,,,,,"{""Q0"":""Luke is shouting at Ruth""}","<img src=""stim_listA/shout3.gif""style=""height:400px;""></stim_listA>",is shouting at,
null,"<div style=""font-size:60px;"">+</div>",,html-keyboard-response,200,612172,0.0-15.0-0.13,97921,List1A,white,woman,,,,null,,,,
null,"<img src=""stim_listA/talk3.gif""style=""height:400px;""></stim_listA>",,html-keyboard-response,201,614174,0.0-15.0-1.13,97921,List1A,white,woman,,,,null,,,,
null,is talking to,,html-keyboard-response,202,616176,0.0-15.0-2.13,97921,List1A,white,woman,,,,null,,,,
5836,,,survey-text,203,622014,0.0-15.0-3.13,97921,List1A,white,woman,,,,,"{""Q0"":""Luke is talking to Jane""}","<img src=""stim_listA/talk3.gif""style=""height:400px;""></stim_listA>",is talking to,
null,"<div style=""font-size:60px;"">+</div>",,html-keyboard-response,204,622517,0.0-15.0-0.14,97921,List1A,white,woman,,,,null,,,,
null,"<img src=""stim_listA/play8.gif""style=""height:400px;""></stim_listA>",,html-keyboard-response,205,624521,0.0-15.0-1.14,97921,List1A,white,woman,,,,null,,,,
null,are playing with each other,,html-keyboard-response,206,626522,0.0-15.0-2.14,97921,List1A,white,woman,,,,null,,,,
8149,,,survey-text,207,634673,0.0-15.0-3.14,97921,List1A,white,woman,,,,,"{""Q0"":""Beth and ruth are playing each other ""}","<img src=""stim_listA/play8.gif""style=""height:400px;""></stim_listA>",are playing with each other,
null,"<div style=""font-size:60px;"">+</div>",,html-keyboard-response,208,635175,0.0-15.0-0.15,97921,List1A,white,woman,,,,null,,,,
null,"<img src=""stim_listA/shout7.gif""style=""height:400px;""></stim_listA>",,html-keyboard-response,209,637176,0.0-15.0-1.15,97921,List1A,white,woman,,,,null,,,,
null,is shouting at,,html-keyboard-response,210,639178,0.0-15.0-2.15,97921,List1A,white,woman,,,,null,,,,
5016,,,survey-text,211,644196,0.0-15.0-3.15,97921,List1A,white,woman,,,,,"{""Q0"":""Beth is shouting at Ruth""}","<img src=""stim_listA/shout7.gif""style=""height:400px;""></stim_listA>",is shouting at,
null,"<div style=""font-size:60px;"">+</div>",,html-keyboard-response,212,644702,0.0-15.0-0.16,97921,List1A,white,woman,,,,null,,,,
null,"<img src=""stim_listA/shout5.gif""style=""height:400px;""></stim_listA>",,html-keyboard-response,213,646704,0.0-15.0-1.16,97921,List1A,white,woman,,,,null,,,,
null,is shouting at,,html-keyboard-response,214,648710,0.0-15.0-2.16,97921,List1A,white,woman,,,,null,,,,
6189,,,survey-text,215,654899,0.0-15.0-3.16,97921,List1A,white,woman,,,,,"{""Q0"":""Fred is shouting at Luke""}","<img src=""stim_listA/shout5.gif""style=""height:400px;""></stim_listA>",is shouting at,
null,"<div style=""font-size:60px;"">+</div>",,html-keyboard-response,216,655404,0.0-15.0-0.17,97921,List1A,white,woman,,,,null,,,,
null,"<img src=""stim_listA/flirt2.gif""style=""height:400px;""></stim_listA>",,html-keyboard-response,217,657406,0.0-15.0-1.17,97921,List1A,white,woman,,,,null,,,,
null,are flirting with each other,,html-keyboard-response,218,659408,0.0-15.0-2.17,97921,List1A,white,woman,,,,null,,,,
9696,,,survey-text,219,669106,0.0-15.0-3.17,97921,List1A,white,woman,,,,,"{""Q0"":""Mike and Beth are flirting with each other ""}","<img src=""stim_listA/flirt2.gif""style=""height:400px;""></stim_listA>",are flirting with each other,
null,"<div style=""font-size:60px;"">+</div>",,html-keyboard-response,220,669607,0.0-15.0-0.18,97921,List1A,white,woman,,,,null,,,,
null,"<img src=""stim_listA/argue7.gif""style=""height:400px;""></stim_listA>",,html-keyboard-response,221,671610,0.0-15.0-1.18,97921,List1A,white,woman,,,,null,,,,
null,is arguing with,,html-keyboard-response,222,673611,0.0-15.0-2.18,97921,List1A,white,woman,,,,null,,,,
4703,,,survey-text,223,678315,0.0-15.0-3.18,97921,List1A,white,woman,,,,,"{""Q0"":""Kate is arguing with ruth""}","<img src=""stim_listA/argue7.gif""style=""height:400px;""></stim_listA>",is arguing with,
null,"<div style=""font-size:60px;"">+</div>",,html-keyboard-response,224,678821,0.0-15.0-0.19,97921,List1A,white,woman,,,,null,,,,
null,"<img src=""stim_listA/talk4.gif""style=""height:400px;""></stim_listA>",,html-keyboard-response,225,680823,0.0-15.0-1.19,97921,List1A,white,woman,,,,null,,,,
null,are talking to each other,,html-keyboard-response,226,682824,0.0-15.0-2.19,97921,List1A,white,woman,,,,null,,,,
9727,,,survey-text,227,692553,0.0-15.0-3.19,97921,List1A,white,woman,,,,,"{""Q0"":""Ruth and Dave are talking to each other ""}","<img src=""stim_listA/talk4.gif""style=""height:400px;""></stim_listA>",are talking to each other,
1465,"<img src='img/portrait_matrix_list1.jpg' style='width:900px;height:500px;''></img><p>If you have memorised all the portraits and names and are ready to start, press Continue.</p><p><strong>Please note: Your memory of these faces will be tested 4 times during this experiment.</strong></p>",0,html-button-response,228,694018,0.0-16.0-0.0,97921,List1A,white,woman,,,,,,,,
2755,"<img src=""portrait/BW2.jpg""style=""height:400px;""></img>",2,html-button-response,229,697776,0.0-16.0-1.0,97921,List1A,white,woman,,TRUE,2,,,,,
null,CORRECT,,html-keyboard-response,230,699281,0.0-16.0-2.0-0.0,97921,List1A,white,woman,,,,null,,,,
1054,"<img src=""portrait/WW2.jpg""style=""height:400px;""></img>",3,html-button-response,231,700337,0.0-16.0-4.0,97921,List1A,white,woman,,TRUE,3,,,,,
null,CORRECT,,html-keyboard-response,232,701840,0.0-16.0-5.0-0.0,97921,List1A,white,woman,,,,null,,,,
1364,"<img src=""portrait/WM2.jpg""style=""height:400px;""></img>",7,html-button-response,233,703206,0.0-16.0-7.0,97921,List1A,white,woman,,TRUE,7,,,,,
null,CORRECT,,html-keyboard-response,234,704712,0.0-16.0-8.0-0.0,97921,List1A,white,woman,,,,null,,,,
1494,"<img src=""portrait/BM1.jpg""style=""height:400px;""></img>",4,html-button-response,235,706208,0.0-16.0-10.0,97921,List1A,white,woman,,TRUE,4,,,,,
null,CORRECT,,html-keyboard-response,236,707715,0.0-16.0-11.0-0.0,97921,List1A,white,woman,,,,null,,,,
2245,"<img src=""portrait/BW1.jpg""style=""height:400px;""></img>",0,html-button-response,237,709962,0.0-16.0-13.0,97921,List1A,white,woman,,TRUE,0,,,,,
null,CORRECT,,html-keyboard-response,238,711465,0.0-16.0-14.0-0.0,97921,List1A,white,woman,,,,null,,,,
2179,"<img src=""portrait/WM1.jpg""style=""height:400px;""></img>",6,html-button-response,239,713646,0.0-16.0-16.0,97921,List1A,white,woman,,TRUE,6,,,,,
null,CORRECT,,html-keyboard-response,240,715152,0.0-16.0-17.0-0.0,97921,List1A,white,woman,,,,null,,,,
1587,"<img src=""portrait/WW1.jpg""style=""height:400px;""></img>",1,html-button-response,241,716739,0.0-16.0-19.0,97921,List1A,white,woman,,TRUE,1,,,,,
null,CORRECT,,html-keyboard-response,242,718246,0.0-16.0-20.0-0.0,97921,List1A,white,woman,,,,null,,,,
1667,"<img src=""portrait/BM2.jpg""style=""height:400px;""></img>",5,html-button-response,243,719915,0.0-16.0-22.0,97921,List1A,white,woman,,TRUE,5,,,,,
null,CORRECT,,html-keyboard-response,244,721422,0.0-16.0-23.0-0.0,97921,List1A,white,woman,,,,null,,,,
1528,<p>You got 8 out of 8 right first time. Press Continue.</p>,0,html-button-response,245,722950,0.0-16.0-25.0,97921,List1A,white,woman,,,,,,,,
null,"<div style=""font-size:60px;"">+</div>",,html-keyboard-response,246,724452,0.0-17.0-0.0,97921,List1A,white,woman,,,,null,,,,
null,"<img src=""stim_listA/play6.gif""style=""height:400px;""></stim_listA>",,html-keyboard-response,247,726455,0.0-17.0-1.0,97921,List1A,white,woman,,,,null,,,,
null,are playing with each other,,html-keyboard-response,248,728457,0.0-17.0-2.0,97921,List1A,white,woman,,,,null,,,,
6617,,,survey-text,249,735075,0.0-17.0-3.0,97921,List1A,white,woman,,,,,"{""Q0"":""Fred and luke are playing with each other ""}","<img src=""stim_listA/play6.gif""style=""height:400px;""></stim_listA>",are playing with each other,
null,"<div style=""font-size:60px;"">+</div>",,html-keyboard-response,250,735581,0.0-17.0-0.1,97921,List1A,white,woman,,,,null,,,,
null,"<img src=""stim_listA/play4.gif""style=""height:400px;""></stim_listA>",,html-keyboard-response,251,737584,0.0-17.0-1.1,97921,List1A,white,woman,,,,null,,,,
null,are playing with each other,,html-keyboard-response,252,739584,0.0-17.0-2.1,97921,List1A,white,woman,,,,null,,,,
5656,,,survey-text,253,745242,0.0-17.0-3.1,97921,List1A,white,woman,,,,,"{""Q0"":""luke and ruth are playing with each other ""}","<img src=""stim_listA/play4.gif""style=""height:400px;""></stim_listA>",are playing with each other,
null,"<div style=""font-size:60px;"">+</div>",,html-keyboard-response,254,745743,0.0-17.0-0.2,97921,List1A,white,woman,,,,null,,,,
null,"<img src=""stim_listA/shout1.gif""style=""height:400px;""></stim_listA>",,html-keyboard-response,255,747745,0.0-17.0-1.2,97921,List1A,white,woman,,,,null,,,,
null,is shouting at,,html-keyboard-response,256,749747,0.0-17.0-2.2,97921,List1A,white,woman,,,,null,,,,
5281,,,survey-text,257,755029,0.0-17.0-3.2,97921,List1A,white,woman,,,,,"{""Q0"":""fred is shouting at beth""}","<img src=""stim_listA/shout1.gif""style=""height:400px;""></stim_listA>",is shouting at,
null,"<div style=""font-size:60px;"">+</div>",,html-keyboard-response,258,755532,0.0-17.0-0.3,97921,List1A,white,woman,,,,null,,,,
null,"<img src=""stim_listA/touch5.gif""style=""height:400px;""></stim_listA>",,html-keyboard-response,259,757536,0.0-17.0-1.3,97921,List1A,white,woman,,,,null,,,,
null,is touching,,html-keyboard-response,260,759540,0.0-17.0-2.3,97921,List1A,white,woman,,,,null,,,,
4756,,,survey-text,261,764296,0.0-17.0-3.3,97921,List1A,white,woman,,,,,"{""Q0"":""mike is touching dave""}","<img src=""stim_listA/touch5.gif""style=""height:400px;""></stim_listA>",is touching,
null,"<div style=""font-size:60px;"">+</div>",,html-keyboard-response,262,764804,0.0-17.0-0.4,97921,List1A,white,woman,,,,null,,,,
null,"<img src=""stim_listA/kiss6.gif""style=""height:400px;""></stim_listA>",,html-keyboard-response,263,766806,0.0-17.0-1.4,97921,List1A,white,woman,,,,null,,,,
null,are kissing each other,,html-keyboard-response,264,768810,0.0-17.0-2.4,97921,List1A,white,woman,,,,null,,,,
5726,,,survey-text,265,774537,0.0-17.0-3.4,97921,List1A,white,woman,,,,,"{""Q0"":""mike and dave are kissing each other ""}","<img src=""stim_listA/kiss6.gif""style=""height:400px;""></stim_listA>",are kissing each other,
null,"<div style=""font-size:60px;"">+</div>",,html-keyboard-response,266,775040,0.0-17.0-0.5,97921,List1A,white,woman,,,,null,,,,
null,"<img src=""stim_listA/dance2.gif""style=""height:400px;""></stim_listA>",,html-keyboard-response,267,777045,0.0-17.0-1.5,97921,List1A,white,woman,,,,null,,,,
null,are dancing with each other,,html-keyboard-response,268,779050,0.0-17.0-2.5,97921,List1A,white,woman,,,,null,,,,
9588,,,survey-text,269,788639,0.0-17.0-3.5,97921,List1A,white,woman,,,,,"{""Q0"":""beth and mike are dancing with each other ""}","<img src=""stim_listA/dance2.gif""style=""height:400px;""></stim_listA>",are dancing with each other,
null,"<div style=""font-size:60px;"">+</div>",,html-keyboard-response,270,789144,0.0-17.0-0.6,97921,List1A,white,woman,,,,null,,,,
null,"<img src=""stim_listA/touch4.gif""style=""height:400px;""></stim_listA>",,html-keyboard-response,271,791146,0.0-17.0-1.6,97921,List1A,white,woman,,,,null,,,,
null,are touching each other,,html-keyboard-response,272,793149,0.0-17.0-2.6,97921,List1A,white,woman,,,,null,,,,
6971,,,survey-text,273,800122,0.0-17.0-3.6,97921,List1A,white,woman,,,,,"{""Q0"":""ruth and luke are touching each other ""}","<img src=""stim_listA/touch4.gif""style=""height:400px;""></stim_listA>",are touching each other,
null,"<div style=""font-size:60px;"">+</div>",,html-keyboard-response,274,800628,0.0-17.0-0.7,97921,List1A,white,woman,,,,null,,,,
null,"<img src=""stim_listA/shout8.gif""style=""height:400px;""></stim_listA>",,html-keyboard-response,275,802630,0.0-17.0-1.7,97921,List1A,white,woman,,,,null,,,,
null,are shouting at each other,,html-keyboard-response,276,804632,0.0-17.0-2.7,97921,List1A,white,woman,,,,null,,,,
6484,,,survey-text,277,811117,0.0-17.0-3.7,97921,List1A,white,woman,,,,,"{""Q0"":""kate and jane are shouting at each other ""}","<img src=""stim_listA/shout8.gif""style=""height:400px;""></stim_listA>",are shouting at each other,
null,"<div style=""font-size:60px;"">+</div>",,html-keyboard-response,278,811623,0.0-17.0-0.8,97921,List1A,white,woman,,,,null,,,,
null,"<img src=""stim_listA/flirt1.gif""style=""height:400px;""></stim_listA>",,html-keyboard-response,279,813625,0.0-17.0-1.8,97921,List1A,white,woman,,,,null,,,,
null,is flirting with,,html-keyboard-response,280,815628,0.0-17.0-2.8,97921,List1A,white,woman,,,,null,,,,
5109,,,survey-text,281,820738,0.0-17.0-3.8,97921,List1A,white,woman,,,,,"{""Q0"":""fred is flirting with kate""}","<img src=""stim_listA/flirt1.gif""style=""height:400px;""></stim_listA>",is flirting with,
null,"<div style=""font-size:60px;"">+</div>",,html-keyboard-response,282,821239,0.0-17.0-0.9,97921,List1A,white,woman,,,,null,,,,
null,"<img src=""stim_listA/marry6.gif""style=""height:400px;""></stim_listA>",,html-keyboard-response,283,823243,0.0-17.0-1.9,97921,List1A,white,woman,,,,null,,,,
null,are marrying each other,,html-keyboard-response,284,825245,0.0-17.0-2.9,97921,List1A,white,woman,,,,null,,,,
6317,,,survey-text,285,831563,0.0-17.0-3.9,97921,List1A,white,woman,,,,,"{""Q0"":""fred and dave are marrying each other ""}","<img src=""stim_listA/marry6.gif""style=""height:400px;""></stim_listA>",are marrying each other,
null,"<div style=""font-size:60px;"">+</div>",,html-keyboard-response,286,832064,0.0-17.0-0.10,97921,List1A,white,woman,,,,null,,,,
null,"<img src=""stim_listA/touch7.gif""style=""height:400px;""></stim_listA>",,html-keyboard-response,287,834070,0.0-17.0-1.10,97921,List1A,white,woman,,,,null,,,,
null,is touching,,html-keyboard-response,288,836072,0.0-17.0-2.10,97921,List1A,white,woman,,,,null,,,,
3777,,,survey-text,289,839850,0.0-17.0-3.10,97921,List1A,white,woman,,,,,"{""Q0"":""jane is touching kate""}","<img src=""stim_listA/touch7.gif""style=""height:400px;""></stim_listA>",is touching,
null,"<div style=""font-size:60px;"">+</div>",,html-keyboard-response,290,840352,0.0-17.0-0.11,97921,List1A,white,woman,,,,null,,,,
null,"<img src=""stim_listA/marry2.gif""style=""height:400px;""></stim_listA>",,html-keyboard-response,291,842354,0.0-17.0-1.11,97921,List1A,white,woman,,,,null,,,,
null,are marrying each other,,html-keyboard-response,292,844356,0.0-17.0-2.11,97921,List1A,white,woman,,,,null,,,,
5952,,,survey-text,293,850309,0.0-17.0-3.11,97921,List1A,white,woman,,,,,"{""Q0"":""kate and fred are marrying each other ""}","<img src=""stim_listA/marry2.gif""style=""height:400px;""></stim_listA>",are marrying each other,
null,"<div style=""font-size:60px;"">+</div>",,html-keyboard-response,294,850813,0.0-17.0-0.12,97921,List1A,white,woman,,,,null,,,,
null,"<img src=""stim_listA/fight8.gif""style=""height:400px;""></stim_listA>",,html-keyboard-response,295,852815,0.0-17.0-1.12,97921,List1A,white,woman,,,,null,,,,
null,are fighting each other,,html-keyboard-response,296,854816,0.0-17.0-2.12,97921,List1A,white,woman,,,,null,,,,
4978,,,survey-text,297,859794,0.0-17.0-3.12,97921,List1A,white,woman,,,,,"{""Q0"":""beth and ruth are fighting each other ""}","<img src=""stim_listA/fight8.gif""style=""height:400px;""></stim_listA>",are fighting each other,
null,"<div style=""font-size:60px;"">+</div>",,html-keyboard-response,298,860297,0.0-17.0-0.13,97921,List1A,white,woman,,,,null,,,,
null,"<img src=""stim_listA/talk7.gif""style=""height:400px;""></stim_listA>",,html-keyboard-response,299,862300,0.0-17.0-1.13,97921,List1A,white,woman,,,,null,,,,
null,is talking to,,html-keyboard-response,300,864301,0.0-17.0-2.13,97921,List1A,white,woman,,,,null,,,,
9646,,,survey-text,301,873949,0.0-17.0-3.13,97921,List1A,white,woman,,,,,"{""Q0"":""beth is talking to jane""}","<img src=""stim_listA/talk7.gif""style=""height:400px;""></stim_listA>",is talking to,
null,"<div style=""font-size:60px;"">+</div>",,html-keyboard-response,302,874455,0.0-17.0-0.14,97921,List1A,white,woman,,,,null,,,,
null,"<img src=""stim_listA/flirt7.gif""style=""height:400px;""></stim_listA>",,html-keyboard-response,303,876457,0.0-17.0-1.14,97921,List1A,white,woman,,,,null,,,,
null,is flirting with,,html-keyboard-response,304,878458,0.0-17.0-2.14,97921,List1A,white,woman,,,,null,,,,
4952,,,survey-text,305,883410,0.0-17.0-3.14,97921,List1A,white,woman,,,,,"{""Q0"":""jane is flirting with beth""}","<img src=""stim_listA/flirt7.gif""style=""height:400px;""></stim_listA>",is flirting with,
null,"<div style=""font-size:60px;"">+</div>",,html-keyboard-response,306,883913,0.0-17.0-0.15,97921,List1A,white,woman,,,,null,,,,
null,"<img src=""stim_listA/kiss8.gif""style=""height:400px;""></stim_listA>",,html-keyboard-response,307,885918,0.0-17.0-1.15,97921,List1A,white,woman,,,,null,,,,
null,are kissing each other,,html-keyboard-response,308,887921,0.0-17.0-2.15,97921,List1A,white,woman,,,,null,,,,
7033,,,survey-text,309,894957,0.0-17.0-3.15,97921,List1A,white,woman,,,,,"{""Q0"":""kate and jane are kissing each other ""}","<img src=""stim_listA/kiss8.gif""style=""height:400px;""></stim_listA>",are kissing each other,
null,"<div style=""font-size:60px;"">+</div>",,html-keyboard-response,310,895459,0.0-17.0-0.16,97921,List1A,white,woman,,,,null,,,,
null,"<img src=""stim_listA/dance7.gif""style=""height:400px;""></stim_listA>",,html-keyboard-response,311,897461,0.0-17.0-1.16,97921,List1A,white,woman,,,,null,,,,
null,is dancing with,,html-keyboard-response,312,899463,0.0-17.0-2.16,97921,List1A,white,woman,,,,null,,,,
621,,,survey-text,313,900085,0.0-17.0-3.16,97921,List1A,white,woman,,,,,"{""Q0"":""""}","<img src=""stim_listA/dance7.gif""style=""height:400px;""></stim_listA>",is dancing with,
null,"<div style=""font-size:60px;"">+</div>",,html-keyboard-response,314,900591,0.0-17.0-0.17,97921,List1A,white,woman,,,,null,,,,
null,"<img src=""stim_listA/marry1.gif""style=""height:400px;""></stim_listA>",,html-keyboard-response,315,902595,0.0-17.0-1.17,97921,List1A,white,woman,,,,null,,,,
null,is marrying,,html-keyboard-response,316,904599,0.0-17.0-2.17,97921,List1A,white,woman,,,,null,,,,
8173,,,survey-text,317,912772,0.0-17.0-3.17,97921,List1A,white,woman,,,,,"{""Q0"":""mike is marrying beth""}","<img src=""stim_listA/marry1.gif""style=""height:400px;""></stim_listA>",is marrying,
null,"<div style=""font-size:60px;"">+</div>",,html-keyboard-response,318,913276,0.0-17.0-0.18,97921,List1A,white,woman,,,,null,,,,
null,"<img src=""stim_listA/flirt6.gif""style=""height:400px;""></stim_listA>",,html-keyboard-response,319,915278,0.0-17.0-1.18,97921,List1A,white,woman,,,,null,,,,
null,are flirting with each other,,html-keyboard-response,320,917280,0.0-17.0-2.18,97921,List1A,white,woman,,,,null,,,,
8839,,,survey-text,321,926120,0.0-17.0-3.18,97921,List1A,white,woman,,,,,"{""Q0"":""mike and luke are flirting with each other ""}","<img src=""stim_listA/flirt6.gif""style=""height:400px;""></stim_listA>",are flirting with each other,
null,"<div style=""font-size:60px;"">+</div>",,html-keyboard-response,322,926621,0.0-17.0-0.19,97921,List1A,white,woman,,,,null,,,,
null,"<img src=""stim_listA/talk1.gif""style=""height:400px;""></stim_listA>",,html-keyboard-response,323,928622,0.0-17.0-1.19,97921,List1A,white,woman,,,,null,,,,
null,is talking to,,html-keyboard-response,324,930625,0.0-17.0-2.19,97921,List1A,white,woman,,,,null,,,,
4111,,,survey-text,325,934737,0.0-17.0-3.19,97921,List1A,white,woman,,,,,"{""Q0"":""kate is talking to fred""}","<img src=""stim_listA/talk1.gif""style=""height:400px;""></stim_listA>",is talking to,
1473,"<img src='img/portrait_matrix_list1.jpg' style='width:900px;height:500px;''></img><p>If you have memorised all the portraits and names and are ready to start, press Continue.</p><p><strong>Please note: Your memory of these faces will be tested 4 times during this experiment.</strong></p>",0,html-button-response,326,936211,0.0-18.0-0.0,97921,List1A,white,woman,,,,,,,,
1697,"<img src=""portrait/WM1.jpg""style=""height:400px;""></img>",6,html-button-response,327,938915,0.0-18.0-1.0,97921,List1A,white,woman,,TRUE,6,,,,,
null,CORRECT,,html-keyboard-response,328,940418,0.0-18.0-2.0-0.0,97921,List1A,white,woman,,,,null,,,,
1490,"<img src=""portrait/WW1.jpg""style=""height:400px;""></img>",1,html-button-response,329,941911,0.0-18.0-4.0,97921,List1A,white,woman,,TRUE,1,,,,,
null,CORRECT,,html-keyboard-response,330,943418,0.0-18.0-5.0-0.0,97921,List1A,white,woman,,,,null,,,,
912,"<img src=""portrait/WW2.jpg""style=""height:400px;""></img>",3,html-button-response,331,944331,0.0-18.0-7.0,97921,List1A,white,woman,,TRUE,3,,,,,
null,CORRECT,,html-keyboard-response,332,945837,0.0-18.0-8.0-0.0,97921,List1A,white,woman,,,,null,,,,
1343,"<img src=""portrait/WM2.jpg""style=""height:400px;""></img>",7,html-button-response,333,947181,0.0-18.0-10.0,97921,List1A,white,woman,,TRUE,7,,,,,
null,CORRECT,,html-keyboard-response,334,948688,0.0-18.0-11.0-0.0,97921,List1A,white,woman,,,,null,,,,
1290,"<img src=""portrait/BM1.jpg""style=""height:400px;""></img>",4,html-button-response,335,949980,0.0-18.0-13.0,97921,List1A,white,woman,,TRUE,4,,,,,
null,CORRECT,,html-keyboard-response,336,951481,0.0-18.0-14.0-0.0,97921,List1A,white,woman,,,,null,,,,
1271,"<img src=""portrait/BW2.jpg""style=""height:400px;""></img>",2,html-button-response,337,952755,0.0-18.0-16.0,97921,List1A,white,woman,,TRUE,2,,,,,
null,CORRECT,,html-keyboard-response,338,954257,0.0-18.0-17.0-0.0,97921,List1A,white,woman,,,,null,,,,
1536,"<img src=""portrait/BM2.jpg""style=""height:400px;""></img>",5,html-button-response,339,955794,0.0-18.0-19.0,97921,List1A,white,woman,,TRUE,5,,,,,
null,CORRECT,,html-keyboard-response,340,957304,0.0-18.0-20.0-0.0,97921,List1A,white,woman,,,,null,,,,
1623,"<img src=""portrait/BW1.jpg""style=""height:400px;""></img>",0,html-button-response,341,958928,0.0-18.0-22.0,97921,List1A,white,woman,,TRUE,0,,,,,
null,CORRECT,,html-keyboard-response,342,960434,0.0-18.0-23.0-0.0,97921,List1A,white,woman,,,,null,,,,
1150,<p>You got 8 out of 8 right first time. Press Continue.</p>,0,html-button-response,343,961585,0.0-18.0-25.0,97921,List1A,white,woman,,,,,,,,
null,"<div style=""font-size:60px;"">+</div>",,html-keyboard-response,344,963090,0.0-19.0-0.0,97921,List1A,white,woman,,,,null,,,,
null,"<img src=""stim_listA/play7.gif""style=""height:400px;""></stim_listA>",,html-keyboard-response,345,965094,0.0-19.0-1.0,97921,List1A,white,woman,,,,null,,,,
null,is playing with,,html-keyboard-response,346,967095,0.0-19.0-2.0,97921,List1A,white,woman,,,,null,,,,
10555,,,survey-text,347,977651,0.0-19.0-3.0,97921,List1A,white,woman,,,,,"{""Q0"":""kate is playing with jane""}","<img src=""stim_listA/play7.gif""style=""height:400px;""></stim_listA>",is playing with,
null,"<div style=""font-size:60px;"">+</div>",,html-keyboard-response,348,978155,0.0-19.0-0.1,97921,List1A,white,woman,,,,null,,,,
null,"<img src=""stim_listA/fight6.gif""style=""height:400px;""></stim_listA>",,html-keyboard-response,349,980156,0.0-19.0-1.1,97921,List1A,white,woman,,,,null,,,,
null,are fighting each other,,html-keyboard-response,350,982157,0.0-19.0-2.1,97921,List1A,white,woman,,,,null,,,,
7553,,,survey-text,351,989711,0.0-19.0-3.1,97921,List1A,white,woman,,,,,"{""Q0"":""luke and fred are fighting with each other""}","<img src=""stim_listA/fight6.gif""style=""height:400px;""></stim_listA>",are fighting each other,
null,"<div style=""font-size:60px;"">+</div>",,html-keyboard-response,352,990217,0.0-19.0-0.2,97921,List1A,white,woman,,,,null,,,,
null,"<img src=""stim_listA/marry4.gif""style=""height:400px;""></stim_listA>",,html-keyboard-response,353,992219,0.0-19.0-1.2,97921,List1A,white,woman,,,,null,,,,
null,are marrying each other,,html-keyboard-response,354,994220,0.0-19.0-2.2,97921,List1A,white,woman,,,,null,,,,
8096,,,survey-text,355,1002316,0.0-19.0-3.2,97921,List1A,white,woman,,,,,"{""Q0"":""jane and luke are marrying each other ""}","<img src=""stim_listA/marry4.gif""style=""height:400px;""></stim_listA>",are marrying each other,
null,"<div style=""font-size:60px;"">+</div>",,html-keyboard-response,356,1002819,0.0-19.0-0.3,97921,List1A,white,woman,,,,null,,,,
null,"<img src=""stim_listA/fight3.gif""style=""height:400px;""></stim_listA>",,html-keyboard-response,357,1004821,0.0-19.0-1.3,97921,List1A,white,woman,,,,null,,,,
null,is fighting,,html-keyboard-response,358,1006822,0.0-19.0-2.3,97921,List1A,white,woman,,,,null,,,,
4294,,,survey-text,359,1011117,0.0-19.0-3.3,97921,List1A,white,woman,,,,,"{""Q0"":""dave is fighting jane""}","<img src=""stim_listA/fight3.gif""style=""height:400px;""></stim_listA>",is fighting,
null,"<div style=""font-size:60px;"">+</div>",,html-keyboard-response,360,1011619,0.0-19.0-0.4,97921,List1A,white,woman,,,,null,,,,
null,"<img src=""stim_listA/fight2.gif""style=""height:400px;""></stim_listA>",,html-keyboard-response,361,1013621,0.0-19.0-1.4,97921,List1A,white,woman,,,,null,,,,
null,are fighting each other,,html-keyboard-response,362,1015622,0.0-19.0-2.4,97921,List1A,white,woman,,,,null,,,,
6716,,,survey-text,363,1022340,0.0-19.0-3.4,97921,List1A,white,woman,,,,,"{""Q0"":""beth and fred are fighting each other ""}","<img src=""stim_listA/fight2.gif""style=""height:400px;""></stim_listA>",are fighting each other,
null,"<div style=""font-size:60px;"">+</div>",,html-keyboard-response,364,1022842,0.0-19.0-0.5,97921,List1A,white,woman,,,,null,,,,
null,"<img src=""stim_listA/kiss5.gif""style=""height:400px;""></stim_listA>",,html-keyboard-response,365,1024844,0.0-19.0-1.5,97921,List1A,white,woman,,,,null,,,,
null,is kissing,,html-keyboard-response,366,1026845,0.0-19.0-2.5,97921,List1A,white,woman,,,,null,,,,
4638,,,survey-text,367,1031484,0.0-19.0-3.5,97921,List1A,white,woman,,,,,"{""Q0"":""fred is kissing luke""}","<img src=""stim_listA/kiss5.gif""style=""height:400px;""></stim_listA>",is kissing,
null,"<div style=""font-size:60px;"">+</div>",,html-keyboard-response,368,1031986,0.0-19.0-0.6,97921,List1A,white,woman,,,,null,,,,
null,"<img src=""stim_listA/flirt4.gif""style=""height:400px;""></stim_listA>",,html-keyboard-response,369,1033989,0.0-19.0-1.6,97921,List1A,white,woman,,,,null,,,,
null,are flirting with each other,,html-keyboard-response,370,1035992,0.0-19.0-2.6,97921,List1A,white,woman,,,,null,,,,
12537,,,survey-text,371,1048530,0.0-19.0-3.6,97921,List1A,white,woman,,,,,"{""Q0"":""ruth and dave are flirting with each other ""}","<img src=""stim_listA/flirt4.gif""style=""height:400px;""></stim_listA>",are flirting with each other,
null,"<div style=""font-size:60px;"">+</div>",,html-keyboard-response,372,1049036,0.0-19.0-0.7,97921,List1A,white,woman,,,,null,,,,
null,"<img src=""stim_listA/kiss3.gif""style=""height:400px;""></stim_listA>",,html-keyboard-response,373,1051039,0.0-19.0-1.7,97921,List1A,white,woman,,,,null,,,,
null,is kissing,,html-keyboard-response,374,1053041,0.0-19.0-2.7,97921,List1A,white,woman,,,,null,,,,
4094,,,survey-text,375,1057137,0.0-19.0-3.7,97921,List1A,white,woman,,,,,"{""Q0"":""ruth is kissing luke""}","<img src=""stim_listA/kiss3.gif""style=""height:400px;""></stim_listA>",is kissing,
null,"<div style=""font-size:60px;"">+</div>",,html-keyboard-response,376,1057639,0.0-19.0-0.8,97921,List1A,white,woman,,,,null,,,,
null,"<img src=""stim_listA/kiss1.gif""style=""height:400px;""></stim_listA>",,html-keyboard-response,377,1059644,0.0-19.0-1.8,97921,List1A,white,woman,,,,null,,,,
null,is kissing,,html-keyboard-response,378,1061645,0.0-19.0-2.8,97921,List1A,white,woman,,,,null,,,,
2994,,,survey-text,379,1064639,0.0-19.0-3.8,97921,List1A,white,woman,,,,,"{""Q0"":""beth is kissing fred""}","<img src=""stim_listA/kiss1.gif""style=""height:400px;""></stim_listA>",is kissing,
null,"<div style=""font-size:60px;"">+</div>",,html-keyboard-response,380,1065145,0.0-19.0-0.9,97921,List1A,white,woman,,,,null,,,,
null,"<img src=""stim_listA/kiss7.gif""style=""height:400px;""></stim_listA>",,html-keyboard-response,381,1067146,0.0-19.0-1.9,97921,List1A,white,woman,,,,null,,,,
null,is kissing,,html-keyboard-response,382,1069148,0.0-19.0-2.9,97921,List1A,white,woman,,,,null,,,,
6948,,,survey-text,383,1076097,0.0-19.0-3.9,97921,List1A,white,woman,,,,,"{""Q0"":""beth is kissing ruth""}","<img src=""stim_listA/kiss7.gif""style=""height:400px;""></stim_listA>",is kissing,
null,"<div style=""font-size:60px;"">+</div>",,html-keyboard-response,384,1076600,0.0-19.0-0.10,97921,List1A,white,woman,,,,null,,,,
null,"<img src=""stim_listA/argue2.gif""style=""height:400px;""></stim_listA>",,html-keyboard-response,385,1078603,0.0-19.0-1.10,97921,List1A,white,woman,,,,null,,,,
null,are arguing with each other,,html-keyboard-response,386,1080605,0.0-19.0-2.10,97921,List1A,white,woman,,,,null,,,,
9106,,,survey-text,387,1089713,0.0-19.0-3.10,97921,List1A,white,woman,,,,,"{""Q0"":""kate and fred are arguing with each other ""}","<img src=""stim_listA/argue2.gif""style=""height:400px;""></stim_listA>",are arguing with each other,
null,"<div style=""font-size:60px;"">+</div>",,html-keyboard-response,388,1090218,0.0-19.0-0.11,97921,List1A,white,woman,,,,null,,,,
null,"<img src=""stim_listA/argue4.gif""style=""height:400px;""></stim_listA>",,html-keyboard-response,389,1092220,0.0-19.0-1.11,97921,List1A,white,woman,,,,null,,,,
null,are arguing with each other,,html-keyboard-response,390,1094222,0.0-19.0-2.11,97921,List1A,white,woman,,,,null,,,,
7089,,,survey-text,391,1101313,0.0-19.0-3.11,97921,List1A,white,woman,,,,,"{""Q0"":""jane and luke are talking to each other ""}","<img src=""stim_listA/argue4.gif""style=""height:400px;""></stim_listA>",are arguing with each other,
null,"<div style=""font-size:60px;"">+</div>",,html-keyboard-response,392,1101817,0.0-19.0-0.12,97921,List1A,white,woman,,,,null,,,,
null,"<img src=""stim_listA/shout2.gif""style=""height:400px;""></stim_listA>",,html-keyboard-response,393,1103823,0.0-19.0-1.12,97921,List1A,white,woman,,,,null,,,,
null,are shouting at each other,,html-keyboard-response,394,1105824,0.0-19.0-2.12,97921,List1A,white,woman,,,,null,,,,
7432,,,survey-text,395,1113257,0.0-19.0-3.12,97921,List1A,white,woman,,,,,"{""Q0"":""kate and mike are fighting with each other ""}","<img src=""stim_listA/shout2.gif""style=""height:400px;""></stim_listA>",are shouting at each other,
null,"<div style=""font-size:60px;"">+</div>",,html-keyboard-response,396,1113763,0.0-19.0-0.13,97921,List1A,white,woman,,,,null,,,,
null,"<img src=""stim_listA/flirt5.gif""style=""height:400px;""></stim_listA>",,html-keyboard-response,397,1115765,0.0-19.0-1.13,97921,List1A,white,woman,,,,null,,,,
null,is flirting with,,html-keyboard-response,398,1117766,0.0-19.0-2.13,97921,List1A,white,woman,,,,null,,,,
9865,,,survey-text,399,1127633,0.0-19.0-3.13,97921,List1A,white,woman,,,,,"{""Q0"":""fred is flirting with dave""}","<img src=""stim_listA/flirt5.gif""style=""height:400px;""></stim_listA>",is flirting with,
null,"<div style=""font-size:60px;"">+</div>",,html-keyboard-response,400,1128137,0.0-19.0-0.14,97921,List1A,white,woman,,,,null,,,,
null,"<img src=""stim_listA/marry5.gif""style=""height:400px;""></stim_listA>",,html-keyboard-response,401,1130139,0.0-19.0-1.14,97921,List1A,white,woman,,,,null,,,,
null,is marrying,,html-keyboard-response,402,1132140,0.0-19.0-2.14,97921,List1A,white,woman,,,,null,,,,
5406,,,survey-text,403,1137548,0.0-19.0-3.14,97921,List1A,white,woman,,,,,"{""Q0"":""mike is marrying luke""}","<img src=""stim_listA/marry5.gif""style=""height:400px;""></stim_listA>",is marrying,
null,"<div style=""font-size:60px;"">+</div>",,html-keyboard-response,404,1138052,0.0-19.0-0.15,97921,List1A,white,woman,,,,null,,,,
null,"<img src=""stim_listA/shout4.gif""style=""height:400px;""></stim_listA>",,html-keyboard-response,405,1140055,0.0-19.0-1.15,97921,List1A,white,woman,,,,null,,,,
null,are shouting at each other,,html-keyboard-response,406,1142060,0.0-19.0-2.15,97921,List1A,white,woman,,,,null,,,,
5580,,,survey-text,407,1147640,0.0-19.0-3.15,97921,List1A,white,woman,,,,,"{""Q0"":""dave and jane are shouting at each other ""}","<img src=""stim_listA/shout4.gif""style=""height:400px;""></stim_listA>",are shouting at each other,
null,"<div style=""font-size:60px;"">+</div>",,html-keyboard-response,408,1148143,0.0-19.0-0.16,97921,List1A,white,woman,,,,null,,,,
null,"<img src=""stim_listA/touch6.gif""style=""height:400px;""></stim_listA>",,html-keyboard-response,409,1150145,0.0-19.0-1.16,97921,List1A,white,woman,,,,null,,,,
null,are touching each other,,html-keyboard-response,410,1152147,0.0-19.0-2.16,97921,List1A,white,woman,,,,null,,,,
7936,,,survey-text,411,1160083,0.0-19.0-3.16,97921,List1A,white,woman,,,,,"{""Q0"":""fred and luke are touching each other ""}","<img src=""stim_listA/touch6.gif""style=""height:400px;""></stim_listA>",are touching each other,
null,"<div style=""font-size:60px;"">+</div>",,html-keyboard-response,412,1160588,0.0-19.0-0.17,97921,List1A,white,woman,,,,null,,,,
null,"<img src=""stim_listA/dance8.gif""style=""height:400px;""></stim_listA>",,html-keyboard-response,413,1162592,0.0-19.0-1.17,97921,List1A,white,woman,,,,null,,,,
null,are dancing with each other,,html-keyboard-response,414,1164594,0.0-19.0-2.17,97921,List1A,white,woman,,,,null,,,,
6443,,,survey-text,415,1171039,0.0-19.0-3.17,97921,List1A,white,woman,,,,,"{""Q0"":""kate and ruth are dancing with each other ""}","<img src=""stim_listA/dance8.gif""style=""height:400px;""></stim_listA>",are dancing with each other,
null,"<div style=""font-size:60px;"">+</div>",,html-keyboard-response,416,1171544,0.0-19.0-0.18,97921,List1A,white,woman,,,,null,,,,
null,"<img src=""stim_listA/touch3.gif""style=""height:400px;""></stim_listA>",,html-keyboard-response,417,1173545,0.0-19.0-1.18,97921,List1A,white,woman,,,,null,,,,
null,is touching,,html-keyboard-response,418,1175546,0.0-19.0-2.18,97921,List1A,white,woman,,,,null,,,,
4594,,,survey-text,419,1180141,0.0-19.0-3.18,97921,List1A,white,woman,,,,,"{""Q0"":""jane is touching luke""}","<img src=""stim_listA/touch3.gif""style=""height:400px;""></stim_listA>",is touching,
null,"<div style=""font-size:60px;"">+</div>",,html-keyboard-response,420,1180647,0.0-19.0-0.19,97921,List1A,white,woman,,,,null,,,,
null,"<img src=""stim_listA/talk8.gif""style=""height:400px;""></stim_listA>",,html-keyboard-response,421,1182651,0.0-19.0-1.19,97921,List1A,white,woman,,,,null,,,,
null,are talking to each other,,html-keyboard-response,422,1184652,0.0-19.0-2.19,97921,List1A,white,woman,,,,null,,,,
4765,,,survey-text,423,1189419,0.0-19.0-3.19,97921,List1A,white,woman,,,,,"{""Q0"":""jane is talking to ruth""}","<img src=""stim_listA/talk8.gif""style=""height:400px;""></stim_listA>",are talking to each other,
2567,<p>Thank you for completing that task.</p><p>The final part of this session is a short questionnaire.</p><p>Press Continue.</p>,0,html-button-response,424,1191986,0.0-20.0,97921,List1A,white,woman,,,,,,,,
16325,,,survey-text,425,1209317,0.0-21.0,97921,List1A,white,woman,,,,,"{""Q0"":""24"",""Q1"":""English"",""Q2"":""English"",""Q3"":""UK"",""Q4"":""White British"",""Q5"":""Female""}",,,demographics
12589,,,survey-likert,426,1221907,0.0-22.0,97921,List1A,white,woman,,,,,"{""Q0"":4}",,,likert_ESS
5018,,,survey-likert,427,1226939,0.0-23.0,97921,List1A,white,woman,,,,,"{""Q0"":4}",,,likert_NSSAL_Q1
2692,,,survey-likert,428,1229651,0.0-24.0,97921,List1A,white,woman,,,,,"{""Q0"":4}",,,likert_NSSAL_Q2
7309,,,survey-likert,429,1236974,0.0-25.0,97921,List1A,white,woman,,,,,"{""Q0"":4}",,,likert_CGRS_Q1
2222,,,survey-likert,430,1239210,0.0-26.0,97921,List1A,white,woman,,,,,"{""Q0"":4}",,,likert_CGRS_Q2
1815,,,survey-likert,431,1241039,0.0-27.0,97921,List1A,white,woman,,,,,"{""Q0"":4}",,,likert_CGRS_Q3
7543,,,survey-text,432,1248598,0.0-28.0,97921,List1A,white,woman,,,,,"{""Q0"":""ccc""}",,,worker_id
2590,,,external-html,433,1251321,0.0-29.0,97921,List1A,white,woman,debrief.html,,,,,,,
