rt,stimulus,button_pressed,trial_type,trial_index,time_elapsed,internal_node_id,subject,list,ppt_race,ppt_gender,url,first_guess,correct,key_press,responses,image_type,phrase_type,test_part
7386,Welcome to the experiment. Press Continue to begin.,0,html-button-response,0,7392,0.0-0.0,98645,List2A,white,woman,,,,,,,,
38936,,,external-html,1,47580,0.0-1.0,98645,List2A,white,woman,consent.html,,,,,,,
10409,"<p>On the next page, you will see portraits of 8 people and their names.</p><p>Your first task is to take a few minutes to memorise the names of these people.</p><p>You will have to recall their names during the rest of the experiment, so it is</p><p>essential that you try to memorise these people and their names as best as you can.</p><br><p><strong>You will then be tested on your memory of these names and portraits.</strong></p><br><p>The experiment will start after you have completed this memory test.</p><br><p>Ready?</p>",0,html-button-response,2,57993,0.0-2.0,98645,List2A,white,woman,,,,,,,,
50016,"<img src='img/portrait_matrix_list2.jpg' style='width:900px;height:500px;''></img><p>If you have memorised all the portraits and names and are ready to start, press Continue.</p><p><strong>Please note: Your memory of these faces will be tested 4 times during this experiment.</strong></p>",0,html-button-response,3,109033,0.0-3.0-0.0,98645,List2A,white,woman,,,,,,,,
19683,"<img src=""portrait/BM2.jpg""style=""height:400px;""></img>",5,html-button-response,4,129728,0.0-3.0-1.0,98645,List2A,white,woman,,TRUE,5,,,,,
null,CORRECT,,html-keyboard-response,5,131257,0.0-3.0-2.0-0.0,98645,List2A,white,woman,,,,null,,,,
12143,"<img src=""portrait/BW2.jpg""style=""height:400px;""></img>",2,html-button-response,6,143403,0.0-3.0-4.0,98645,List2A,white,woman,,TRUE,2,,,,,
null,CORRECT,,html-keyboard-response,7,144920,0.0-3.0-5.0-0.0,98645,List2A,white,woman,,,,null,,,,
8210,"<img src=""portrait/WW1.jpg""style=""height:400px;""></img>",1,html-button-response,8,153133,0.0-3.0-7.0,98645,List2A,white,woman,,TRUE,1,,,,,
null,CORRECT,,html-keyboard-response,9,154651,0.0-3.0-8.0-0.0,98645,List2A,white,woman,,,,null,,,,
12845,"<img src=""portrait/WM2.jpg""style=""height:400px;""></img>",7,html-button-response,10,167498,0.0-3.0-10.0,98645,List2A,white,woman,,TRUE,7,,,,,
null,CORRECT,,html-keyboard-response,11,169024,0.0-3.0-11.0-0.0,98645,List2A,white,woman,,,,null,,,,
4831,"<img src=""portrait/WW2.jpg""style=""height:400px;""></img>",3,html-button-response,12,173857,0.0-3.0-13.0,98645,List2A,white,woman,,TRUE,3,,,,,
null,CORRECT,,html-keyboard-response,13,175380,0.0-3.0-14.0-0.0,98645,List2A,white,woman,,,,null,,,,
7375,"<img src=""portrait/WM1.jpg""style=""height:400px;""></img>",6,html-button-response,14,182757,0.0-3.0-16.0,98645,List2A,white,woman,,TRUE,6,,,,,
null,CORRECT,,html-keyboard-response,15,184278,0.0-3.0-17.0-0.0,98645,List2A,white,woman,,,,null,,,,
10556,"<img src=""portrait/BM1.jpg""style=""height:400px;""></img>",4,html-button-response,16,194836,0.0-3.0-19.0,98645,List2A,white,woman,,TRUE,4,,,,,
null,CORRECT,,html-keyboard-response,17,196369,0.0-3.0-20.0-0.0,98645,List2A,white,woman,,,,null,,,,
9491,"<img src=""portrait/BW1.jpg""style=""height:400px;""></img>",0,html-button-response,18,205862,0.0-3.0-22.0,98645,List2A,white,woman,,TRUE,0,,,,,
null,CORRECT,,html-keyboard-response,19,207370,0.0-3.0-23.0-0.0,98645,List2A,white,woman,,,,null,,,,
2509,<p>You got 8 out of 8 right first time. Press Continue.</p>,0,html-button-response,20,209882,0.0-3.0-25.0,98645,List2A,white,woman,,,,,,,,
48157,"<p>In this experiment, you will view photographs of the people from the memory game interacting.</p><p>By using the <strong>exact</strong> phrase given <i>after</i> the photograph appears and recalling the correct names of the people in the photographs, form a sentence describing the interaction. You do not need to capitalise names.</p><p>Type your answer in the space provided. Please complete every sentence before moving onto the next trial.</p><p>You will only have a few seconds to memorise each given photograph and phrase before you can respond, so try your best to focus.</p><p>An example is given below. Press 'Continue' when you are ready.</p><img src='img/speaking_example.jpg' style='width:800px;height:460px;''></img>",0,html-button-response,21,259048,0.0-4.0,98645,List2A,white,woman,,,,,,,,
6415,"<p>Before the experiment starts, you will watch two example trials. Press 'Continue'.</p>",0,html-button-response,22,266483,0.0-5.0,98645,List2A,white,woman,,,,,,,,
null,<img src='img/meet_eg.gif' style='height:400px;''></img>,,html-keyboard-response,23,269498,0.0-6.0,98645,List2A,white,woman,,,,null,,,,
null,<p>is meeting</p>,,html-keyboard-response,24,271514,0.0-7.0,98645,List2A,white,woman,,,,null,,,,
3435,<p><b>Answer:</b> jane is meeting ruth</p>,0,html-button-response,25,274950,0.0-8.0,98645,List2A,white,woman,,,,,,,,
null,<img src='img/look_eg.gif' style='height:400px;''></img>,,html-keyboard-response,26,277963,0.0-9.0,98645,List2A,white,woman,,,,null,,,,
null,<p>are looking at each other</p>,,html-keyboard-response,27,279966,0.0-10.0,98645,List2A,white,woman,,,,null,,,,
3520,<p><b>Answer:</b> fred and mike are looking at each other</p>,0,html-button-response,28,283487,0.0-11.0,98645,List2A,white,woman,,,,,,,,
5266,"<p>Ready to start the experiment?</p><br><p><strong>Remember to describe the picture using a full sentence,</strong></p><p><strong>that combines the names of the people with the <i>exact</i> phrase given.</strong></p><p><strong>To receive full payment you must do this correctly.</strong></p><p><strong> You do not need to capitalise names or use punctuation.</strong></p><br><p>Press 'Continue' to begin.</p>",0,html-button-response,29,289766,0.0-12.0,98645,List2A,white,woman,,,,,,,,
null,"<div style=""font-size:60px;"">+</div>",,html-keyboard-response,30,291296,0.0-13.0-0.0,98645,List2A,white,woman,,,,null,,,,
null,"<img src=""stim_listA/flirt7.gif""style=""height:400px;""></stim_listA>",,html-keyboard-response,31,293302,0.0-13.0-1.0,98645,List2A,white,woman,,,,null,,,,
null,is flirting with,,html-keyboard-response,32,295308,0.0-13.0-2.0,98645,List2A,white,woman,,,,null,,,,
48376,,,survey-text,33,343688,0.0-13.0-3.0,98645,List2A,white,woman,,,,,"{""Q0"":""Jane is flirting with Ruth""}","<img src=""stim_listA/flirt7.gif""style=""height:400px;""></stim_listA>",is flirting with,
null,"<div style=""font-size:60px;"">+</div>",,html-keyboard-response,34,344200,0.0-13.0-0.1,98645,List2A,white,woman,,,,null,,,,
null,"<img src=""stim_listA/dance3.gif""style=""height:400px;""></stim_listA>",,html-keyboard-response,35,346206,0.0-13.0-1.1,98645,List2A,white,woman,,,,null,,,,
null,is dancing with,,html-keyboard-response,36,348219,0.0-13.0-2.1,98645,List2A,white,woman,,,,null,,,,
32192,,,survey-text,37,380413,0.0-13.0-3.1,98645,List2A,white,woman,,,,,"{""Q0"":""Fred is dancing with Kate""}","<img src=""stim_listA/dance3.gif""style=""height:400px;""></stim_listA>",is dancing with,
null,"<div style=""font-size:60px;"">+</div>",,html-keyboard-response,38,380923,0.0-13.0-0.2,98645,List2A,white,woman,,,,null,,,,
null,"<img src=""stim_listA/marry5.gif""style=""height:400px;""></stim_listA>",,html-keyboard-response,39,382935,0.0-13.0-1.2,98645,List2A,white,woman,,,,null,,,,
null,is marrying,,html-keyboard-response,40,384945,0.0-13.0-2.2,98645,List2A,white,woman,,,,null,,,,
23369,,,survey-text,41,408317,0.0-13.0-3.2,98645,List2A,white,woman,,,,,"{""Q0"":""Dave is marrying Fred""}","<img src=""stim_listA/marry5.gif""style=""height:400px;""></stim_listA>",is marrying,
null,"<div style=""font-size:60px;"">+</div>",,html-keyboard-response,42,408833,0.0-13.0-0.3,98645,List2A,white,woman,,,,null,,,,
null,"<img src=""stim_listA/argue5.gif""style=""height:400px;""></stim_listA>",,html-keyboard-response,43,410839,0.0-13.0-1.3,98645,List2A,white,woman,,,,null,,,,
null,is arguing with,,html-keyboard-response,44,412854,0.0-13.0-2.3,98645,List2A,white,woman,,,,null,,,,
10329,,,survey-text,45,423186,0.0-13.0-3.3,98645,List2A,white,woman,,,,,"{""Q0"":""Dave is arguing with Fred""}","<img src=""stim_listA/argue5.gif""style=""height:400px;""></stim_listA>",is arguing with,
null,"<div style=""font-size:60px;"">+</div>",,html-keyboard-response,46,423699,0.0-13.0-0.4,98645,List2A,white,woman,,,,null,,,,
null,"<img src=""stim_listA/kiss5.gif""style=""height:400px;""></stim_listA>",,html-keyboard-response,47,425716,0.0-13.0-1.4,98645,List2A,white,woman,,,,null,,,,
null,is kissing,,html-keyboard-response,48,427722,0.0-13.0-2.4,98645,List2A,white,woman,,,,null,,,,
21529,,,survey-text,49,449253,0.0-13.0-3.4,98645,List2A,white,woman,,,,,"{""Q0"":""Luke is kissing Beth""}","<img src=""stim_listA/kiss5.gif""style=""height:400px;""></stim_listA>",is kissing,
null,"<div style=""font-size:60px;"">+</div>",,html-keyboard-response,50,449786,0.0-13.0-0.5,98645,List2A,white,woman,,,,null,,,,
null,"<img src=""stim_listA/flirt1.gif""style=""height:400px;""></stim_listA>",,html-keyboard-response,51,451790,0.0-13.0-1.5,98645,List2A,white,woman,,,,null,,,,
null,is flirting with,,html-keyboard-response,52,453807,0.0-13.0-2.5,98645,List2A,white,woman,,,,null,,,,
19808,,,survey-text,53,473618,0.0-13.0-3.5,98645,List2A,white,woman,,,,,"{""Q0"":""Luke is kissing Jane""}","<img src=""stim_listA/flirt1.gif""style=""height:400px;""></stim_listA>",is flirting with,
null,"<div style=""font-size:60px;"">+</div>",,html-keyboard-response,54,474122,0.0-13.0-0.6,98645,List2A,white,woman,,,,null,,,,
null,"<img src=""stim_listA/argue7.gif""style=""height:400px;""></stim_listA>",,html-keyboard-response,55,476128,0.0-13.0-1.6,98645,List2A,white,woman,,,,null,,,,
null,is arguing with,,html-keyboard-response,56,478146,0.0-13.0-2.6,98645,List2A,white,woman,,,,null,,,,
20260,,,survey-text,57,498409,0.0-13.0-3.6,98645,List2A,white,woman,,,,,"{""Q0"":""Jane is arguing with Beth""}","<img src=""stim_listA/argue7.gif""style=""height:400px;""></stim_listA>",is arguing with,
null,"<div style=""font-size:60px;"">+</div>",,html-keyboard-response,58,498921,0.0-13.0-0.7,98645,List2A,white,woman,,,,null,,,,
null,"<img src=""stim_listA/talk7.gif""style=""height:400px;""></stim_listA>",,html-keyboard-response,59,500927,0.0-13.0-1.7,98645,List2A,white,woman,,,,null,,,,
null,is talking to,,html-keyboard-response,60,502944,0.0-13.0-2.7,98645,List2A,white,woman,,,,null,,,,
19378,,,survey-text,61,522325,0.0-13.0-3.7,98645,List2A,white,woman,,,,,"{""Q0"":""Ruth is talking to DAve""}","<img src=""stim_listA/talk7.gif""style=""height:400px;""></stim_listA>",is talking to,
null,"<div style=""font-size:60px;"">+</div>",,html-keyboard-response,62,522829,0.0-13.0-0.8,98645,List2A,white,woman,,,,null,,,,
null,"<img src=""stim_listA/marry3.gif""style=""height:400px;""></stim_listA>",,html-keyboard-response,63,524834,0.0-13.0-1.8,98645,List2A,white,woman,,,,null,,,,
null,is marrying,,html-keyboard-response,64,526857,0.0-13.0-2.8,98645,List2A,white,woman,,,,null,,,,
20311,,,survey-text,65,547170,0.0-13.0-3.8,98645,List2A,white,woman,,,,,"{""Q0"":""Luke is marrying Beth""}","<img src=""stim_listA/marry3.gif""style=""height:400px;""></stim_listA>",is marrying,
null,"<div style=""font-size:60px;"">+</div>",,html-keyboard-response,66,547686,0.0-13.0-0.9,98645,List2A,white,woman,,,,null,,,,
null,"<img src=""stim_listA/play7.gif""style=""height:400px;""></stim_listA>",,html-keyboard-response,67,549694,0.0-13.0-1.9,98645,List2A,white,woman,,,,null,,,,
null,is playing with,,html-keyboard-response,68,551697,0.0-13.0-2.9,98645,List2A,white,woman,,,,null,,,,
22626,,,survey-text,69,574325,0.0-13.0-3.9,98645,List2A,white,woman,,,,,"{""Q0"":""Jane is playing with Beth""}","<img src=""stim_listA/play7.gif""style=""height:400px;""></stim_listA>",is playing with,
null,"<div style=""font-size:60px;"">+</div>",,html-keyboard-response,70,574838,0.0-13.0-0.10,98645,List2A,white,woman,,,,null,,,,
null,"<img src=""stim_listA/touch6.gif""style=""height:400px;""></stim_listA>",,html-keyboard-response,71,576845,0.0-13.0-1.10,98645,List2A,white,woman,,,,null,,,,
null,are touching each other,,html-keyboard-response,72,578857,0.0-13.0-2.10,98645,List2A,white,woman,,,,null,,,,
25777,,,survey-text,73,604636,0.0-13.0-3.10,98645,List2A,white,woman,,,,,"{""Q0"":""Fred and Luke are touching each other""}","<img src=""stim_listA/touch6.gif""style=""height:400px;""></stim_listA>",are touching each other,
null,"<div style=""font-size:60px;"">+</div>",,html-keyboard-response,74,605141,0.0-13.0-0.11,98645,List2A,white,woman,,,,null,,,,
null,"<img src=""stim_listA/play2.gif""style=""height:400px;""></stim_listA>",,html-keyboard-response,75,607147,0.0-13.0-1.11,98645,List2A,white,woman,,,,null,,,,
null,are playing with each other,,html-keyboard-response,76,609160,0.0-13.0-2.11,98645,List2A,white,woman,,,,null,,,,
14053,,,survey-text,77,623215,0.0-13.0-3.11,98645,List2A,white,woman,,,,,"{""Q0"":""Luke and Ruth are playing with each other""}","<img src=""stim_listA/play2.gif""style=""height:400px;""></stim_listA>",are playing with each other,
null,"<div style=""font-size:60px;"">+</div>",,html-keyboard-response,78,623727,0.0-13.0-0.12,98645,List2A,white,woman,,,,null,,,,
null,"<img src=""stim_listA/fight1.gif""style=""height:400px;""></stim_listA>",,html-keyboard-response,79,625744,0.0-13.0-1.12,98645,List2A,white,woman,,,,null,,,,
null,is fighting,,html-keyboard-response,80,627761,0.0-13.0-2.12,98645,List2A,white,woman,,,,null,,,,
6026,,,survey-text,81,633789,0.0-13.0-3.12,98645,List2A,white,woman,,,,,"{""Q0"":""Fred is fighting Jane""}","<img src=""stim_listA/fight1.gif""style=""height:400px;""></stim_listA>",is fighting,
null,"<div style=""font-size:60px;"">+</div>",,html-keyboard-response,82,634297,0.0-13.0-0.13,98645,List2A,white,woman,,,,null,,,,
null,"<img src=""stim_listA/kiss2.gif""style=""height:400px;""></stim_listA>",,html-keyboard-response,83,636301,0.0-13.0-1.13,98645,List2A,white,woman,,,,null,,,,
null,are kissing each other,,html-keyboard-response,84,638314,0.0-13.0-2.13,98645,List2A,white,woman,,,,null,,,,
10493,,,survey-text,85,648808,0.0-13.0-3.13,98645,List2A,white,woman,,,,,"{""Q0"":""Dave and Jane are kissing each other""}","<img src=""stim_listA/kiss2.gif""style=""height:400px;""></stim_listA>",are kissing each other,
null,"<div style=""font-size:60px;"">+</div>",,html-keyboard-response,86,649325,0.0-13.0-0.14,98645,List2A,white,woman,,,,null,,,,
null,"<img src=""stim_listA/fight8.gif""style=""height:400px;""></stim_listA>",,html-keyboard-response,87,651331,0.0-13.0-1.14,98645,List2A,white,woman,,,,null,,,,
null,are fighting each other,,html-keyboard-response,88,653336,0.0-13.0-2.14,98645,List2A,white,woman,,,,null,,,,
31341,,,survey-text,89,684679,0.0-13.0-3.14,98645,List2A,white,woman,,,,,"{""Q0"":""Ruth and Kate are fighting each other""}","<img src=""stim_listA/fight8.gif""style=""height:400px;""></stim_listA>",are fighting each other,
null,"<div style=""font-size:60px;"">+</div>",,html-keyboard-response,90,685191,0.0-13.0-0.15,98645,List2A,white,woman,,,,null,,,,
null,"<img src=""stim_listA/fight7.gif""style=""height:400px;""></stim_listA>",,html-keyboard-response,91,687199,0.0-13.0-1.15,98645,List2A,white,woman,,,,null,,,,
null,is fighting,,html-keyboard-response,92,689215,0.0-13.0-2.15,98645,List2A,white,woman,,,,null,,,,
6297,,,survey-text,93,695514,0.0-13.0-3.15,98645,List2A,white,woman,,,,,"{""Q0"":""Ruth is fighting Kate""}","<img src=""stim_listA/fight7.gif""style=""height:400px;""></stim_listA>",is fighting,
null,"<div style=""font-size:60px;"">+</div>",,html-keyboard-response,94,696023,0.0-13.0-0.16,98645,List2A,white,woman,,,,null,,,,
null,"<img src=""stim_listA/fight4.gif""style=""height:400px;""></stim_listA>",,html-keyboard-response,95,698027,0.0-13.0-1.16,98645,List2A,white,woman,,,,null,,,,
null,are fighting each other,,html-keyboard-response,96,700036,0.0-13.0-2.16,98645,List2A,white,woman,,,,null,,,,
18929,,,survey-text,97,718967,0.0-13.0-3.16,98645,List2A,white,woman,,,,,"{""Q0"":""Dave and Kate are fighting each other""}","<img src=""stim_listA/fight4.gif""style=""height:400px;""></stim_listA>",are fighting each other,
null,"<div style=""font-size:60px;"">+</div>",,html-keyboard-response,98,719482,0.0-13.0-0.17,98645,List2A,white,woman,,,,null,,,,
null,"<img src=""stim_listA/dance5.gif""style=""height:400px;""></stim_listA>",,html-keyboard-response,99,721485,0.0-13.0-1.17,98645,List2A,white,woman,,,,null,,,,
null,is dancing with,,html-keyboard-response,100,723499,0.0-13.0-2.17,98645,List2A,white,woman,,,,null,,,,
22408,,,survey-text,101,745910,0.0-13.0-3.17,98645,List2A,white,woman,,,,,"{""Q0"":""Luke is dancing with Beth""}","<img src=""stim_listA/dance5.gif""style=""height:400px;""></stim_listA>",is dancing with,
null,"<div style=""font-size:60px;"">+</div>",,html-keyboard-response,102,746425,0.0-13.0-0.18,98645,List2A,white,woman,,,,null,,,,
null,"<img src=""stim_listA/marry2.gif""style=""height:400px;""></stim_listA>",,html-keyboard-response,103,748431,0.0-13.0-1.18,98645,List2A,white,woman,,,,null,,,,
null,are marrying each other,,html-keyboard-response,104,750440,0.0-13.0-2.18,98645,List2A,white,woman,,,,null,,,,
11348,,,survey-text,105,761791,0.0-13.0-3.18,98645,List2A,white,woman,,,,,"{""Q0"":""Jane and Luke are marrying each other""}","<img src=""stim_listA/marry2.gif""style=""height:400px;""></stim_listA>",are marrying each other,
null,"<div style=""font-size:60px;"">+</div>",,html-keyboard-response,106,762300,0.0-13.0-0.19,98645,List2A,white,woman,,,,null,,,,
null,"<img src=""stim_listA/flirt6.gif""style=""height:400px;""></stim_listA>",,html-keyboard-response,107,764307,0.0-13.0-1.19,98645,List2A,white,woman,,,,null,,,,
null,are flirting with each other,,html-keyboard-response,108,766317,0.0-13.0-2.19,98645,List2A,white,woman,,,,null,,,,
9695,,,survey-text,109,776014,0.0-13.0-3.19,98645,List2A,white,woman,,,,,"{""Q0"":""Mike and Fred are flirting with each other""}","<img src=""stim_listA/flirt6.gif""style=""height:400px;""></stim_listA>",are flirting with each other,
11091,"<img src='img/portrait_matrix_list2.jpg' style='width:900px;height:500px;''></img><p>If you have memorised all the portraits and names and are ready to start, press Continue.</p><p><strong>Please note: Your memory of these faces will be tested 4 times during this experiment.</strong></p>",0,html-button-response,110,787108,0.0-14.0-0.0,98645,List2A,white,woman,,,,,,,,
2715,"<img src=""portrait/WW1.jpg""style=""height:400px;""></img>",1,html-button-response,111,790843,0.0-14.0-1.0,98645,List2A,white,woman,,TRUE,1,,,,,
null,CORRECT,,html-keyboard-response,112,792395,0.0-14.0-2.0-0.0,98645,List2A,white,woman,,,,null,,,,
8863,"<img src=""portrait/BW1.jpg""style=""height:400px;""></img>",0,html-button-response,113,801261,0.0-14.0-4.0,98645,List2A,white,woman,,TRUE,0,,,,,
null,CORRECT,,html-keyboard-response,114,802776,0.0-14.0-5.0-0.0,98645,List2A,white,woman,,,,null,,,,
2713,"<img src=""portrait/WM1.jpg""style=""height:400px;""></img>",6,html-button-response,115,805492,0.0-14.0-7.0,98645,List2A,white,woman,,TRUE,6,,,,,
null,CORRECT,,html-keyboard-response,116,807008,0.0-14.0-8.0-0.0,98645,List2A,white,woman,,,,null,,,,
2070,"<img src=""portrait/WW2.jpg""style=""height:400px;""></img>",3,html-button-response,117,809081,0.0-14.0-10.0,98645,List2A,white,woman,,TRUE,3,,,,,
null,CORRECT,,html-keyboard-response,118,810622,0.0-14.0-11.0-0.0,98645,List2A,white,woman,,,,null,,,,
3845,"<img src=""portrait/BM2.jpg""style=""height:400px;""></img>",5,html-button-response,119,814469,0.0-14.0-13.0,98645,List2A,white,woman,,TRUE,5,,,,,
null,CORRECT,,html-keyboard-response,120,815989,0.0-14.0-14.0-0.0,98645,List2A,white,woman,,,,null,,,,
9281,"<img src=""portrait/WM2.jpg""style=""height:400px;""></img>",7,html-button-response,121,825275,0.0-14.0-16.0,98645,List2A,white,woman,,TRUE,7,,,,,
null,CORRECT,,html-keyboard-response,122,826797,0.0-14.0-17.0-0.0,98645,List2A,white,woman,,,,null,,,,
3932,"<img src=""portrait/BW2.jpg""style=""height:400px;""></img>",2,html-button-response,123,830731,0.0-14.0-19.0,98645,List2A,white,woman,,TRUE,2,,,,,
null,CORRECT,,html-keyboard-response,124,832255,0.0-14.0-20.0-0.0,98645,List2A,white,woman,,,,null,,,,
2215,"<img src=""portrait/BM1.jpg""style=""height:400px;""></img>",4,html-button-response,125,834472,0.0-14.0-22.0,98645,List2A,white,woman,,TRUE,4,,,,,
null,CORRECT,,html-keyboard-response,126,835996,0.0-14.0-23.0-0.0,98645,List2A,white,woman,,,,null,,,,
2077,<p>You got 8 out of 8 right first time. Press Continue.</p>,0,html-button-response,127,838076,0.0-14.0-25.0,98645,List2A,white,woman,,,,,,,,
null,"<div style=""font-size:60px;"">+</div>",,html-keyboard-response,128,839603,0.0-15.0-0.0,98645,List2A,white,woman,,,,null,,,,
null,"<img src=""stim_listA/play8.gif""style=""height:400px;""></stim_listA>",,html-keyboard-response,129,841608,0.0-15.0-1.0,98645,List2A,white,woman,,,,null,,,,
null,are playing with each other,,html-keyboard-response,130,843610,0.0-15.0-2.0,98645,List2A,white,woman,,,,null,,,,
15968,,,survey-text,131,859581,0.0-15.0-3.0,98645,List2A,white,woman,,,,,"{""Q0"":""Ruth and Beth are playing with each other""}","<img src=""stim_listA/play8.gif""style=""height:400px;""></stim_listA>",are playing with each other,
null,"<div style=""font-size:60px;"">+</div>",,html-keyboard-response,132,860090,0.0-15.0-0.1,98645,List2A,white,woman,,,,null,,,,
null,"<img src=""stim_listA/dance1.gif""style=""height:400px;""></stim_listA>",,html-keyboard-response,133,862094,0.0-15.0-1.1,98645,List2A,white,woman,,,,null,,,,
null,is dancing with,,html-keyboard-response,134,864097,0.0-15.0-2.1,98645,List2A,white,woman,,,,null,,,,
13207,,,survey-text,135,877306,0.0-15.0-3.1,98645,List2A,white,woman,,,,,"{""Q0"":""Luke is dancing with Jane""}","<img src=""stim_listA/dance1.gif""style=""height:400px;""></stim_listA>",is dancing with,
null,"<div style=""font-size:60px;"">+</div>",,html-keyboard-response,136,877820,0.0-15.0-0.2,98645,List2A,white,woman,,,,null,,,,
null,"<img src=""stim_listA/flirt3.gif""style=""height:400px;""></stim_listA>",,html-keyboard-response,137,879822,0.0-15.0-1.2,98645,List2A,white,woman,,,,null,,,,
null,is flirting with,,html-keyboard-response,138,881838,0.0-15.0-2.2,98645,List2A,white,woman,,,,null,,,,
11901,,,survey-text,139,893742,0.0-15.0-3.2,98645,List2A,white,woman,,,,,"{""Q0"":""Fred is flirting with KAte""}","<img src=""stim_listA/flirt3.gif""style=""height:400px;""></stim_listA>",is flirting with,
null,"<div style=""font-size:60px;"">+</div>",,html-keyboard-response,140,894262,0.0-15.0-0.3,98645,List2A,white,woman,,,,null,,,,
null,"<img src=""stim_listA/dance4.gif""style=""height:400px;""></stim_listA>",,html-keyboard-response,141,896267,0.0-15.0-1.3,98645,List2A,white,woman,,,,null,,,,
null,are dancing with each other,,html-keyboard-response,142,898272,0.0-15.0-2.3,98645,List2A,white,woman,,,,null,,,,
11509,,,survey-text,143,909783,0.0-15.0-3.3,98645,List2A,white,woman,,,,,"{""Q0"":""Mike and Beth are dancing with each other""}","<img src=""stim_listA/dance4.gif""style=""height:400px;""></stim_listA>",are dancing with each other,
null,"<div style=""font-size:60px;"">+</div>",,html-keyboard-response,144,910297,0.0-15.0-0.4,98645,List2A,white,woman,,,,null,,,,
null,"<img src=""stim_listA/flirt8.gif""style=""height:400px;""></stim_listA>",,html-keyboard-response,145,912302,0.0-15.0-1.4,98645,List2A,white,woman,,,,null,,,,
null,are flirting with each other,,html-keyboard-response,146,914311,0.0-15.0-2.4,98645,List2A,white,woman,,,,null,,,,
11361,,,survey-text,147,925675,0.0-15.0-3.4,98645,List2A,white,woman,,,,,"{""Q0"":""Jane and Beth are flirting with each other""}","<img src=""stim_listA/flirt8.gif""style=""height:400px;""></stim_listA>",are flirting with each other,
null,"<div style=""font-size:60px;"">+</div>",,html-keyboard-response,148,926178,0.0-15.0-0.5,98645,List2A,white,woman,,,,null,,,,
null,"<img src=""stim_listA/talk2.gif""style=""height:400px;""></stim_listA>",,html-keyboard-response,149,928196,0.0-15.0-1.5,98645,List2A,white,woman,,,,null,,,,
null,are talking to each other,,html-keyboard-response,150,930199,0.0-15.0-2.5,98645,List2A,white,woman,,,,null,,,,
10521,,,survey-text,151,940722,0.0-15.0-3.5,98645,List2A,white,woman,,,,,"{""Q0"":""Ruth and Dave are talking to each other""}","<img src=""stim_listA/talk2.gif""style=""height:400px;""></stim_listA>",are talking to each other,
null,"<div style=""font-size:60px;"">+</div>",,html-keyboard-response,152,941234,0.0-15.0-0.6,98645,List2A,white,woman,,,,null,,,,
null,"<img src=""stim_listA/argue2.gif""style=""height:400px;""></stim_listA>",,html-keyboard-response,153,943245,0.0-15.0-1.6,98645,List2A,white,woman,,,,null,,,,
null,are arguing with each other,,html-keyboard-response,154,945247,0.0-15.0-2.6,98645,List2A,white,woman,,,,null,,,,
10535,,,survey-text,155,955785,0.0-15.0-3.6,98645,List2A,white,woman,,,,,"{""Q0"":""Jane and Luke are arguing with each other""}","<img src=""stim_listA/argue2.gif""style=""height:400px;""></stim_listA>",are arguing with each other,
null,"<div style=""font-size:60px;"">+</div>",,html-keyboard-response,156,956288,0.0-15.0-0.7,98645,List2A,white,woman,,,,null,,,,
null,"<img src=""stim_listA/fight2.gif""style=""height:400px;""></stim_listA>",,html-keyboard-response,157,958304,0.0-15.0-1.7,98645,List2A,white,woman,,,,null,,,,
null,are fighting each other,,html-keyboard-response,158,960316,0.0-15.0-2.7,98645,List2A,white,woman,,,,null,,,,
9076,,,survey-text,159,969394,0.0-15.0-3.7,98645,List2A,white,woman,,,,,"{""Q0"":""Ruth and Luke is fighting each other""}","<img src=""stim_listA/fight2.gif""style=""height:400px;""></stim_listA>",are fighting each other,
null,"<div style=""font-size:60px;"">+</div>",,html-keyboard-response,160,969902,0.0-15.0-0.8,98645,List2A,white,woman,,,,null,,,,
null,"<img src=""stim_listA/talk1.gif""style=""height:400px;""></stim_listA>",,html-keyboard-response,161,971908,0.0-15.0-1.8,98645,List2A,white,woman,,,,null,,,,
null,is talking to,,html-keyboard-response,162,973918,0.0-15.0-2.8,98645,List2A,white,woman,,,,null,,,,
7021,,,survey-text,163,980942,0.0-15.0-3.8,98645,List2A,white,woman,,,,,"{""Q0"":""Luke is talking to Jane""}","<img src=""stim_listA/talk1.gif""style=""height:400px;""></stim_listA>",is talking to,
null,"<div style=""font-size:60px;"">+</div>",,html-keyboard-response,164,981446,0.0-15.0-0.9,98645,List2A,white,woman,,,,null,,,,
null,"<img src=""stim_listA/shout1.gif""style=""height:400px;""></stim_listA>",,html-keyboard-response,165,983452,0.0-15.0-1.9,98645,List2A,white,woman,,,,null,,,,
null,is shouting at,,html-keyboard-response,166,985473,0.0-15.0-2.9,98645,List2A,white,woman,,,,null,,,,
8807,,,survey-text,167,994283,0.0-15.0-3.9,98645,List2A,white,woman,,,,,"{""Q0"":""Luke is shouting at Ruth""}","<img src=""stim_listA/shout1.gif""style=""height:400px;""></stim_listA>",is shouting at,
null,"<div style=""font-size:60px;"">+</div>",,html-keyboard-response,168,994789,0.0-15.0-0.10,98645,List2A,white,woman,,,,null,,,,
null,"<img src=""stim_listA/dance7.gif""style=""height:400px;""></stim_listA>",,html-keyboard-response,169,996795,0.0-15.0-1.10,98645,List2A,white,woman,,,,null,,,,
null,is dancing with,,html-keyboard-response,170,998809,0.0-15.0-2.10,98645,List2A,white,woman,,,,null,,,,
12106,,,survey-text,171,1010918,0.0-15.0-3.10,98645,List2A,white,woman,,,,,"{""Q0"":""Ruth is dancing with Kate""}","<img src=""stim_listA/dance7.gif""style=""height:400px;""></stim_listA>",is dancing with,
null,"<div style=""font-size:60px;"">+</div>",,html-keyboard-response,172,1011421,0.0-15.0-0.11,98645,List2A,white,woman,,,,null,,,,
null,"<img src=""stim_listA/play3.gif""style=""height:400px;""></stim_listA>",,html-keyboard-response,173,1013429,0.0-15.0-1.11,98645,List2A,white,woman,,,,null,,,,
null,is playing with,,html-keyboard-response,174,1015439,0.0-15.0-2.11,98645,List2A,white,woman,,,,null,,,,
13779,,,survey-text,175,1029220,0.0-15.0-3.11,98645,List2A,white,woman,,,,,"{""Q0"":""Mike is playing with Kate""}","<img src=""stim_listA/play3.gif""style=""height:400px;""></stim_listA>",is playing with,
null,"<div style=""font-size:60px;"">+</div>",,html-keyboard-response,176,1029725,0.0-15.0-0.12,98645,List2A,white,woman,,,,null,,,,
null,"<img src=""stim_listA/marry1.gif""style=""height:400px;""></stim_listA>",,html-keyboard-response,177,1031729,0.0-15.0-1.12,98645,List2A,white,woman,,,,null,,,,
null,is marrying,,html-keyboard-response,178,1033733,0.0-15.0-2.12,98645,List2A,white,woman,,,,null,,,,
8945,,,survey-text,179,1042680,0.0-15.0-3.12,98645,List2A,white,woman,,,,,"{""Q0"":""Ruth is marrying Dave""}","<img src=""stim_listA/marry1.gif""style=""height:400px;""></stim_listA>",is marrying,
null,"<div style=""font-size:60px;"">+</div>",,html-keyboard-response,180,1043185,0.0-15.0-0.13,98645,List2A,white,woman,,,,null,,,,
null,"<img src=""stim_listA/shout6.gif""style=""height:400px;""></stim_listA>",,html-keyboard-response,181,1045192,0.0-15.0-1.13,98645,List2A,white,woman,,,,null,,,,
null,are shouting at each other,,html-keyboard-response,182,1047206,0.0-15.0-2.13,98645,List2A,white,woman,,,,null,,,,
8664,,,survey-text,183,1055872,0.0-15.0-3.13,98645,List2A,white,woman,,,,,"{""Q0"":""Mike and Dave are shouting at each other""}","<img src=""stim_listA/shout6.gif""style=""height:400px;""></stim_listA>",are shouting at each other,
null,"<div style=""font-size:60px;"">+</div>",,html-keyboard-response,184,1056389,0.0-15.0-0.14,98645,List2A,white,woman,,,,null,,,,
null,"<img src=""stim_listA/touch4.gif""style=""height:400px;""></stim_listA>",,html-keyboard-response,185,1058394,0.0-15.0-1.14,98645,List2A,white,woman,,,,null,,,,
null,are touching each other,,html-keyboard-response,186,1060399,0.0-15.0-2.14,98645,List2A,white,woman,,,,null,,,,
11155,,,survey-text,187,1071556,0.0-15.0-3.14,98645,List2A,white,woman,,,,,"{""Q0"":""Fred and Beth are touching each other""}","<img src=""stim_listA/touch4.gif""style=""height:400px;""></stim_listA>",are touching each other,
null,"<div style=""font-size:60px;"">+</div>",,html-keyboard-response,188,1072067,0.0-15.0-0.15,98645,List2A,white,woman,,,,null,,,,
null,"<img src=""stim_listA/kiss1.gif""style=""height:400px;""></stim_listA>",,html-keyboard-response,189,1074075,0.0-15.0-1.15,98645,List2A,white,woman,,,,null,,,,
null,is kissing,,html-keyboard-response,190,1076082,0.0-15.0-2.15,98645,List2A,white,woman,,,,null,,,,
9028,,,survey-text,191,1085113,0.0-15.0-3.15,98645,List2A,white,woman,,,,,"{""Q0"":""Ruth is kissing Mike""}","<img src=""stim_listA/kiss1.gif""style=""height:400px;""></stim_listA>",is kissing,
null,"<div style=""font-size:60px;"">+</div>",,html-keyboard-response,192,1085631,0.0-15.0-0.16,98645,List2A,white,woman,,,,null,,,,
null,"<img src=""stim_listA/fight6.gif""style=""height:400px;""></stim_listA>",,html-keyboard-response,193,1087639,0.0-15.0-1.16,98645,List2A,white,woman,,,,null,,,,
null,are fighting each other,,html-keyboard-response,194,1089648,0.0-15.0-2.16,98645,List2A,white,woman,,,,null,,,,
9168,,,survey-text,195,1098818,0.0-15.0-3.16,98645,List2A,white,woman,,,,,"{""Q0"":""Fred and Luke are fighting each other""}","<img src=""stim_listA/fight6.gif""style=""height:400px;""></stim_listA>",are fighting each other,
null,"<div style=""font-size:60px;"">+</div>",,html-keyboard-response,196,1099321,0.0-15.0-0.17,98645,List2A,white,woman,,,,null,,,,
null,"<img src=""stim_listA/shout7.gif""style=""height:400px;""></stim_listA>",,html-keyboard-response,197,1101330,0.0-15.0-1.17,98645,List2A,white,woman,,,,null,,,,
null,is shouting at,,html-keyboard-response,198,1103343,0.0-15.0-2.17,98645,List2A,white,woman,,,,null,,,,
10218,,,survey-text,199,1113563,0.0-15.0-3.17,98645,List2A,white,woman,,,,,"{""Q0"":""Ruth is shouting at Beth""}","<img src=""stim_listA/shout7.gif""style=""height:400px;""></stim_listA>",is shouting at,
null,"<div style=""font-size:60px;"">+</div>",,html-keyboard-response,200,1114079,0.0-15.0-0.18,98645,List2A,white,woman,,,,null,,,,
null,"<img src=""stim_listA/kiss8.gif""style=""height:400px;""></stim_listA>",,html-keyboard-response,201,1116083,0.0-15.0-1.18,98645,List2A,white,woman,,,,null,,,,
null,are kissing each other,,html-keyboard-response,202,1118101,0.0-15.0-2.18,98645,List2A,white,woman,,,,null,,,,
10732,,,survey-text,203,1128835,0.0-15.0-3.18,98645,List2A,white,woman,,,,,"{""Q0"":""Beth and Jane are kissing each other""}","<img src=""stim_listA/kiss8.gif""style=""height:400px;""></stim_listA>",are kissing each other,
null,"<div style=""font-size:60px;"">+</div>",,html-keyboard-response,204,1129347,0.0-15.0-0.19,98645,List2A,white,woman,,,,null,,,,
null,"<img src=""stim_listA/touch5.gif""style=""height:400px;""></stim_listA>",,html-keyboard-response,205,1131352,0.0-15.0-1.19,98645,List2A,white,woman,,,,null,,,,
null,is touching,,html-keyboard-response,206,1133373,0.0-15.0-2.19,98645,List2A,white,woman,,,,null,,,,
5865,,,survey-text,207,1139240,0.0-15.0-3.19,98645,List2A,white,woman,,,,,"{""Q0"":""Dave is touching Mike""}","<img src=""stim_listA/touch5.gif""style=""height:400px;""></stim_listA>",is touching,
8742,"<img src='img/portrait_matrix_list2.jpg' style='width:900px;height:500px;''></img><p>If you have memorised all the portraits and names and are ready to start, press Continue.</p><p><strong>Please note: Your memory of these faces will be tested 4 times during this experiment.</strong></p>",0,html-button-response,208,1147986,0.0-16.0-0.0,98645,List2A,white,woman,,,,,,,,
1683,"<img src=""portrait/WW2.jpg""style=""height:400px;""></img>",3,html-button-response,209,1150680,0.0-16.0-1.0,98645,List2A,white,woman,,TRUE,3,,,,,
null,CORRECT,,html-keyboard-response,210,1152206,0.0-16.0-2.0-0.0,98645,List2A,white,woman,,,,null,,,,
2942,"<img src=""portrait/WM1.jpg""style=""height:400px;""></img>",6,html-button-response,211,1155153,0.0-16.0-4.0,98645,List2A,white,woman,,TRUE,6,,,,,
null,CORRECT,,html-keyboard-response,212,1156671,0.0-16.0-5.0-0.0,98645,List2A,white,woman,,,,null,,,,
2621,"<img src=""portrait/BW1.jpg""style=""height:400px;""></img>",0,html-button-response,213,1159295,0.0-16.0-7.0,98645,List2A,white,woman,,TRUE,0,,,,,
null,CORRECT,,html-keyboard-response,214,1160804,0.0-16.0-8.0-0.0,98645,List2A,white,woman,,,,null,,,,
2107,"<img src=""portrait/BM1.jpg""style=""height:400px;""></img>",4,html-button-response,215,1162914,0.0-16.0-10.0,98645,List2A,white,woman,,TRUE,4,,,,,
null,CORRECT,,html-keyboard-response,216,1164445,0.0-16.0-11.0-0.0,98645,List2A,white,woman,,,,null,,,,
2800,"<img src=""portrait/BW2.jpg""style=""height:400px;""></img>",2,html-button-response,217,1167248,0.0-16.0-13.0,98645,List2A,white,woman,,TRUE,2,,,,,
null,CORRECT,,html-keyboard-response,218,1168768,0.0-16.0-14.0-0.0,98645,List2A,white,woman,,,,null,,,,
2205,"<img src=""portrait/BM2.jpg""style=""height:400px;""></img>",5,html-button-response,219,1170977,0.0-16.0-16.0,98645,List2A,white,woman,,TRUE,5,,,,,
null,CORRECT,,html-keyboard-response,220,1172494,0.0-16.0-17.0-0.0,98645,List2A,white,woman,,,,null,,,,
2525,"<img src=""portrait/WW1.jpg""style=""height:400px;""></img>",1,html-button-response,221,1175021,0.0-16.0-19.0,98645,List2A,white,woman,,TRUE,1,,,,,
null,CORRECT,,html-keyboard-response,222,1176534,0.0-16.0-20.0-0.0,98645,List2A,white,woman,,,,null,,,,
2488,"<img src=""portrait/WM2.jpg""style=""height:400px;""></img>",7,html-button-response,223,1179026,0.0-16.0-22.0,98645,List2A,white,woman,,TRUE,7,,,,,
null,CORRECT,,html-keyboard-response,224,1180548,0.0-16.0-23.0-0.0,98645,List2A,white,woman,,,,null,,,,
1713,<p>You got 8 out of 8 right first time. Press Continue.</p>,0,html-button-response,225,1182264,0.0-16.0-25.0,98645,List2A,white,woman,,,,,,,,
null,"<div style=""font-size:60px;"">+</div>",,html-keyboard-response,226,1183784,0.0-17.0-0.0,98645,List2A,white,woman,,,,null,,,,
null,"<img src=""stim_listA/shout3.gif""style=""height:400px;""></stim_listA>",,html-keyboard-response,227,1185791,0.0-17.0-1.0,98645,List2A,white,woman,,,,null,,,,
null,is shouting at,,html-keyboard-response,228,1187806,0.0-17.0-2.0,98645,List2A,white,woman,,,,null,,,,
7094,,,survey-text,229,1194902,0.0-17.0-3.0,98645,List2A,white,woman,,,,,"{""Q0"":""Fred is shouting at Beth""}","<img src=""stim_listA/shout3.gif""style=""height:400px;""></stim_listA>",is shouting at,
null,"<div style=""font-size:60px;"">+</div>",,html-keyboard-response,230,1195413,0.0-17.0-0.1,98645,List2A,white,woman,,,,null,,,,
null,"<img src=""stim_listA/touch3.gif""style=""height:400px;""></stim_listA>",,html-keyboard-response,231,1197422,0.0-17.0-1.1,98645,List2A,white,woman,,,,null,,,,
null,is touching,,html-keyboard-response,232,1199424,0.0-17.0-2.1,98645,List2A,white,woman,,,,null,,,,
8812,,,survey-text,233,1208238,0.0-17.0-3.1,98645,List2A,white,woman,,,,,"{""Q0"":""Mike is touching Kate""}","<img src=""stim_listA/touch3.gif""style=""height:400px;""></stim_listA>",is touching,
null,"<div style=""font-size:60px;"">+</div>",,html-keyboard-response,234,1208752,0.0-17.0-0.2,98645,List2A,white,woman,,,,null,,,,
null,"<img src=""stim_listA/marry7.gif""style=""height:400px;""></stim_listA>",,html-keyboard-response,235,1210762,0.0-17.0-1.2,98645,List2A,white,woman,,,,null,,,,
null,is marrying,,html-keyboard-response,236,1212768,0.0-17.0-2.2,98645,List2A,white,woman,,,,null,,,,
8291,,,survey-text,237,1221062,0.0-17.0-3.2,98645,List2A,white,woman,,,,,"{""Q0"":""Kate is marrying Beth""}","<img src=""stim_listA/marry7.gif""style=""height:400px;""></stim_listA>",is marrying,
null,"<div style=""font-size:60px;"">+</div>",,html-keyboard-response,238,1221577,0.0-17.0-0.3,98645,List2A,white,woman,,,,null,,,,
null,"<img src=""stim_listA/play5.gif""style=""height:400px;""></stim_listA>",,html-keyboard-response,239,1223580,0.0-17.0-1.3,98645,List2A,white,woman,,,,null,,,,
null,is playing with,,html-keyboard-response,240,1225583,0.0-17.0-2.3,98645,List2A,white,woman,,,,null,,,,
7213,,,survey-text,241,1232798,0.0-17.0-3.3,98645,List2A,white,woman,,,,,"{""Q0"":""Dave is playing with Mike""}","<img src=""stim_listA/play5.gif""style=""height:400px;""></stim_listA>",is playing with,
null,"<div style=""font-size:60px;"">+</div>",,html-keyboard-response,242,1233307,0.0-17.0-0.4,98645,List2A,white,woman,,,,null,,,,
null,"<img src=""stim_listA/argue8.gif""style=""height:400px;""></stim_listA>",,html-keyboard-response,243,1235310,0.0-17.0-1.4,98645,List2A,white,woman,,,,null,,,,
null,are arguing with each other,,html-keyboard-response,244,1237328,0.0-17.0-2.4,98645,List2A,white,woman,,,,null,,,,
10053,,,survey-text,245,1247384,0.0-17.0-3.4,98645,List2A,white,woman,,,,,"{""Q0"":""Kate and Ruth are arguing with each other""}","<img src=""stim_listA/argue8.gif""style=""height:400px;""></stim_listA>",are arguing with each other,
null,"<div style=""font-size:60px;"">+</div>",,html-keyboard-response,246,1247897,0.0-17.0-0.5,98645,List2A,white,woman,,,,null,,,,
null,"<img src=""stim_listA/flirt2.gif""style=""height:400px;""></stim_listA>",,html-keyboard-response,247,1249906,0.0-17.0-1.5,98645,List2A,white,woman,,,,null,,,,
null,are flirting with each other,,html-keyboard-response,248,1251917,0.0-17.0-2.5,98645,List2A,white,woman,,,,null,,,,
11090,,,survey-text,249,1263009,0.0-17.0-3.5,98645,List2A,white,woman,,,,,"{""Q0"":""Ruth and Mike are flirting with each other""}","<img src=""stim_listA/flirt2.gif""style=""height:400px;""></stim_listA>",are flirting with each other,
null,"<div style=""font-size:60px;"">+</div>",,html-keyboard-response,250,1263514,0.0-17.0-0.6,98645,List2A,white,woman,,,,null,,,,
null,"<img src=""stim_listA/play4.gif""style=""height:400px;""></stim_listA>",,html-keyboard-response,251,1265522,0.0-17.0-1.6,98645,List2A,white,woman,,,,null,,,,
null,are playing with each other,,html-keyboard-response,252,1267528,0.0-17.0-2.6,98645,List2A,white,woman,,,,null,,,,
11106,,,survey-text,253,1278636,0.0-17.0-3.6,98645,List2A,white,woman,,,,,"{""Q0"":""Fred and Beth are playing with each other""}","<img src=""stim_listA/play4.gif""style=""height:400px;""></stim_listA>",are playing with each other,
null,"<div style=""font-size:60px;"">+</div>",,html-keyboard-response,254,1279142,0.0-17.0-0.7,98645,List2A,white,woman,,,,null,,,,
null,"<img src=""stim_listA/argue3.gif""style=""height:400px;""></stim_listA>",,html-keyboard-response,255,1281153,0.0-17.0-1.7,98645,List2A,white,woman,,,,null,,,,
null,is arguing with,,html-keyboard-response,256,1283169,0.0-17.0-2.7,98645,List2A,white,woman,,,,null,,,,
7443,,,survey-text,257,1290614,0.0-17.0-3.7,98645,List2A,white,woman,,,,,"{""Q0"":""Mike is arguing with Beth""}","<img src=""stim_listA/argue3.gif""style=""height:400px;""></stim_listA>",is arguing with,
null,"<div style=""font-size:60px;"">+</div>",,html-keyboard-response,258,1291127,0.0-17.0-0.8,98645,List2A,white,woman,,,,null,,,,
null,"<img src=""stim_listA/dance6.gif""style=""height:400px;""></stim_listA>",,html-keyboard-response,259,1293134,0.0-17.0-1.8,98645,List2A,white,woman,,,,null,,,,
null,are dancing with each other,,html-keyboard-response,260,1295139,0.0-17.0-2.8,98645,List2A,white,woman,,,,null,,,,
8020,,,survey-text,261,1303162,0.0-17.0-3.8,98645,List2A,white,woman,,,,,"{""Q0"":""Fred and Dave are dancing with each other""}","<img src=""stim_listA/dance6.gif""style=""height:400px;""></stim_listA>",are dancing with each other,
null,"<div style=""font-size:60px;"">+</div>",,html-keyboard-response,262,1303681,0.0-17.0-0.9,98645,List2A,white,woman,,,,null,,,,
null,"<img src=""stim_listA/talk3.gif""style=""height:400px;""></stim_listA>",,html-keyboard-response,263,1305685,0.0-17.0-1.9,98645,List2A,white,woman,,,,null,,,,
null,is talking to,,html-keyboard-response,264,1307707,0.0-17.0-2.9,98645,List2A,white,woman,,,,null,,,,
11891,,,survey-text,265,1319600,0.0-17.0-3.9,98645,List2A,white,woman,,,,,"{""Q0"":""Fred is talking to Kate""}","<img src=""stim_listA/talk3.gif""style=""height:400px;""></stim_listA>",is talking to,
null,"<div style=""font-size:60px;"">+</div>",,html-keyboard-response,266,1320111,0.0-17.0-0.10,98645,List2A,white,woman,,,,null,,,,
null,"<img src=""stim_listA/kiss4.gif""style=""height:400px;""></stim_listA>",,html-keyboard-response,267,1322115,0.0-17.0-1.10,98645,List2A,white,woman,,,,null,,,,
null,are kissing each other,,html-keyboard-response,268,1324130,0.0-17.0-2.10,98645,List2A,white,woman,,,,null,,,,
10480,,,survey-text,269,1334612,0.0-17.0-3.10,98645,List2A,white,woman,,,,,"{""Q0"":""Kate and Mike are kissing each other""}","<img src=""stim_listA/kiss4.gif""style=""height:400px;""></stim_listA>",are kissing each other,
null,"<div style=""font-size:60px;"">+</div>",,html-keyboard-response,270,1335116,0.0-17.0-0.11,98645,List2A,white,woman,,,,null,,,,
null,"<img src=""stim_listA/argue4.gif""style=""height:400px;""></stim_listA>",,html-keyboard-response,271,1337121,0.0-17.0-1.11,98645,List2A,white,woman,,,,null,,,,
null,are arguing with each other,,html-keyboard-response,272,1339124,0.0-17.0-2.11,98645,List2A,white,woman,,,,null,,,,
7962,,,survey-text,273,1347089,0.0-17.0-3.11,98645,List2A,white,woman,,,,,"{""Q0"":""Kate and Fred are arguing with each other""}","<img src=""stim_listA/argue4.gif""style=""height:400px;""></stim_listA>",are arguing with each other,
null,"<div style=""font-size:60px;"">+</div>",,html-keyboard-response,274,1347604,0.0-17.0-0.12,98645,List2A,white,woman,,,,null,,,,
null,"<img src=""stim_listA/marry4.gif""style=""height:400px;""></stim_listA>",,html-keyboard-response,275,1349612,0.0-17.0-1.12,98645,List2A,white,woman,,,,null,,,,
null,are marrying each other,,html-keyboard-response,276,1351616,0.0-17.0-2.12,98645,List2A,white,woman,,,,null,,,,
9394,,,survey-text,277,1361014,0.0-17.0-3.12,98645,List2A,white,woman,,,,,"{""Q0"":""Fred and Kate are marrying each other""}","<img src=""stim_listA/marry4.gif""style=""height:400px;""></stim_listA>",are marrying each other,
null,"<div style=""font-size:60px;"">+</div>",,html-keyboard-response,278,1361525,0.0-17.0-0.13,98645,List2A,white,woman,,,,null,,,,
null,"<img src=""stim_listA/shout5.gif""style=""height:400px;""></stim_listA>",,html-keyboard-response,279,1363530,0.0-17.0-1.13,98645,List2A,white,woman,,,,null,,,,
null,is shouting at,,html-keyboard-response,280,1365532,0.0-17.0-2.13,98645,List2A,white,woman,,,,null,,,,
7510,,,survey-text,281,1373046,0.0-17.0-3.13,98645,List2A,white,woman,,,,,"{""Q0"":""Fred is shouting at Luke""}","<img src=""stim_listA/shout5.gif""style=""height:400px;""></stim_listA>",is shouting at,
null,"<div style=""font-size:60px;"">+</div>",,html-keyboard-response,282,1373549,0.0-17.0-0.14,98645,List2A,white,woman,,,,null,,,,
null,"<img src=""stim_listA/dance2.gif""style=""height:400px;""></stim_listA>",,html-keyboard-response,283,1375556,0.0-17.0-1.14,98645,List2A,white,woman,,,,null,,,,
null,are dancing with each other,,html-keyboard-response,284,1377557,0.0-17.0-2.14,98645,List2A,white,woman,,,,null,,,,
9246,,,survey-text,285,1386806,0.0-17.0-3.14,98645,List2A,white,woman,,,,,"{""Q0"":""Ruth and Dave are dancing with each other""}","<img src=""stim_listA/dance2.gif""style=""height:400px;""></stim_listA>",are dancing with each other,
null,"<div style=""font-size:60px;"">+</div>",,html-keyboard-response,286,1387315,0.0-17.0-0.15,98645,List2A,white,woman,,,,null,,,,
null,"<img src=""stim_listA/kiss7.gif""style=""height:400px;""></stim_listA>",,html-keyboard-response,287,1389328,0.0-17.0-1.15,98645,List2A,white,woman,,,,null,,,,
null,is kissing,,html-keyboard-response,288,1391331,0.0-17.0-2.15,98645,List2A,white,woman,,,,null,,,,
5862,,,survey-text,289,1397196,0.0-17.0-3.15,98645,List2A,white,woman,,,,,"{""Q0"":""Ruth is kissing Beth""}","<img src=""stim_listA/kiss7.gif""style=""height:400px;""></stim_listA>",is kissing,
null,"<div style=""font-size:60px;"">+</div>",,html-keyboard-response,290,1397709,0.0-17.0-0.16,98645,List2A,white,woman,,,,null,,,,
null,"<img src=""stim_listA/marry6.gif""style=""height:400px;""></stim_listA>",,html-keyboard-response,291,1399715,0.0-17.0-1.16,98645,List2A,white,woman,,,,null,,,,
null,are marrying each other,,html-keyboard-response,292,1401730,0.0-17.0-2.16,98645,List2A,white,woman,,,,null,,,,
11493,,,survey-text,293,1413226,0.0-17.0-3.16,98645,List2A,white,woman,,,,,"{""Q0"":""Mike and Luke are marrying each other""}","<img src=""stim_listA/marry6.gif""style=""height:400px;""></stim_listA>",are marrying each other,
null,"<div style=""font-size:60px;"">+</div>",,html-keyboard-response,294,1413739,0.0-17.0-0.17,98645,List2A,white,woman,,,,null,,,,
null,"<img src=""stim_listA/talk5.gif""style=""height:400px;""></stim_listA>",,html-keyboard-response,295,1415744,0.0-17.0-1.17,98645,List2A,white,woman,,,,null,,,,
null,is talking to,,html-keyboard-response,296,1417761,0.0-17.0-2.17,98645,List2A,white,woman,,,,null,,,,
5926,,,survey-text,297,1423691,0.0-17.0-3.17,98645,List2A,white,woman,,,,,"{""Q0"":""Mike is talking to Luke""}","<img src=""stim_listA/talk5.gif""style=""height:400px;""></stim_listA>",is talking to,
null,"<div style=""font-size:60px;"">+</div>",,html-keyboard-response,298,1424197,0.0-17.0-0.18,98645,List2A,white,woman,,,,null,,,,
null,"<img src=""stim_listA/shout4.gif""style=""height:400px;""></stim_listA>",,html-keyboard-response,299,1426204,0.0-17.0-1.18,98645,List2A,white,woman,,,,null,,,,
null,are shouting at each other,,html-keyboard-response,300,1428215,0.0-17.0-2.18,98645,List2A,white,woman,,,,null,,,,
9786,,,survey-text,301,1438003,0.0-17.0-3.18,98645,List2A,white,woman,,,,,"{""Q0"":""Kate and Mike are shouting at each other""}","<img src=""stim_listA/shout4.gif""style=""height:400px;""></stim_listA>",are shouting at each other,
null,"<div style=""font-size:60px;"">+</div>",,html-keyboard-response,302,1438512,0.0-17.0-0.19,98645,List2A,white,woman,,,,null,,,,
null,"<img src=""stim_listA/shout2.gif""style=""height:400px;""></stim_listA>",,html-keyboard-response,303,1440516,0.0-17.0-1.19,98645,List2A,white,woman,,,,null,,,,
null,are shouting at each other,,html-keyboard-response,304,1442522,0.0-17.0-2.19,98645,List2A,white,woman,,,,null,,,,
8744,,,survey-text,305,1451269,0.0-17.0-3.19,98645,List2A,white,woman,,,,,"{""Q0"":""Dave and Jane are shouting at each other""}","<img src=""stim_listA/shout2.gif""style=""height:400px;""></stim_listA>",are shouting at each other,
12083,"<img src='img/portrait_matrix_list2.jpg' style='width:900px;height:500px;''></img><p>If you have memorised all the portraits and names and are ready to start, press Continue.</p><p><strong>Please note: Your memory of these faces will be tested 4 times during this experiment.</strong></p>",0,html-button-response,306,1463355,0.0-18.0-0.0,98645,List2A,white,woman,,,,,,,,
1805,"<img src=""portrait/WW2.jpg""style=""height:400px;""></img>",3,html-button-response,307,1466169,0.0-18.0-1.0,98645,List2A,white,woman,,TRUE,3,,,,,
null,CORRECT,,html-keyboard-response,308,1467693,0.0-18.0-2.0-0.0,98645,List2A,white,woman,,,,null,,,,
2085,"<img src=""portrait/WW1.jpg""style=""height:400px;""></img>",1,html-button-response,309,1469782,0.0-18.0-4.0,98645,List2A,white,woman,,TRUE,1,,,,,
null,CORRECT,,html-keyboard-response,310,1471291,0.0-18.0-5.0-0.0,98645,List2A,white,woman,,,,null,,,,
1887,"<img src=""portrait/BM1.jpg""style=""height:400px;""></img>",4,html-button-response,311,1473181,0.0-18.0-7.0,98645,List2A,white,woman,,TRUE,4,,,,,
null,CORRECT,,html-keyboard-response,312,1474710,0.0-18.0-8.0-0.0,98645,List2A,white,woman,,,,null,,,,
2804,"<img src=""portrait/WM1.jpg""style=""height:400px;""></img>",6,html-button-response,313,1477517,0.0-18.0-10.0,98645,List2A,white,woman,,TRUE,6,,,,,
null,CORRECT,,html-keyboard-response,314,1479036,0.0-18.0-11.0-0.0,98645,List2A,white,woman,,,,null,,,,
2175,"<img src=""portrait/BM2.jpg""style=""height:400px;""></img>",5,html-button-response,315,1481214,0.0-18.0-13.0,98645,List2A,white,woman,,TRUE,5,,,,,
null,CORRECT,,html-keyboard-response,316,1482743,0.0-18.0-14.0-0.0,98645,List2A,white,woman,,,,null,,,,
4017,"<img src=""portrait/BW2.jpg""style=""height:400px;""></img>",2,html-button-response,317,1486764,0.0-18.0-16.0,98645,List2A,white,woman,,TRUE,2,,,,,
null,CORRECT,,html-keyboard-response,318,1488275,0.0-18.0-17.0-0.0,98645,List2A,white,woman,,,,null,,,,
2567,"<img src=""portrait/BW1.jpg""style=""height:400px;""></img>",0,html-button-response,319,1490844,0.0-18.0-19.0,98645,List2A,white,woman,,TRUE,0,,,,,
null,CORRECT,,html-keyboard-response,320,1492368,0.0-18.0-20.0-0.0,98645,List2A,white,woman,,,,null,,,,
2735,"<img src=""portrait/WM2.jpg""style=""height:400px;""></img>",7,html-button-response,321,1495106,0.0-18.0-22.0,98645,List2A,white,woman,,TRUE,7,,,,,
null,CORRECT,,html-keyboard-response,322,1496619,0.0-18.0-23.0-0.0,98645,List2A,white,woman,,,,null,,,,
1972,<p>You got 8 out of 8 right first time. Press Continue.</p>,0,html-button-response,323,1498595,0.0-18.0-25.0,98645,List2A,white,woman,,,,,,,,
null,"<div style=""font-size:60px;"">+</div>",,html-keyboard-response,324,1500109,0.0-19.0-0.0,98645,List2A,white,woman,,,,null,,,,
null,"<img src=""stim_listA/talk4.gif""style=""height:400px;""></stim_listA>",,html-keyboard-response,325,1502113,0.0-19.0-1.0,98645,List2A,white,woman,,,,null,,,,
null,are talking to each other,,html-keyboard-response,326,1504126,0.0-19.0-2.0,98645,List2A,white,woman,,,,null,,,,
10150,,,survey-text,327,1514278,0.0-19.0-3.0,98645,List2A,white,woman,,,,,"{""Q0"":""Beth and Mike are talking to each other""}","<img src=""stim_listA/talk4.gif""style=""height:400px;""></stim_listA>",are talking to each other,
null,"<div style=""font-size:60px;"">+</div>",,html-keyboard-response,328,1514797,0.0-19.0-0.1,98645,List2A,white,woman,,,,null,,,,
null,"<img src=""stim_listA/marry8.gif""style=""height:400px;""></stim_listA>",,html-keyboard-response,329,1516809,0.0-19.0-1.1,98645,List2A,white,woman,,,,null,,,,
null,are marrying each other,,html-keyboard-response,330,1518814,0.0-19.0-2.1,98645,List2A,white,woman,,,,null,,,,
8156,,,survey-text,331,1526973,0.0-19.0-3.1,98645,List2A,white,woman,,,,,"{""Q0"":""Kate and Ruth are marrying each other""}","<img src=""stim_listA/marry8.gif""style=""height:400px;""></stim_listA>",are marrying each other,
null,"<div style=""font-size:60px;"">+</div>",,html-keyboard-response,332,1527481,0.0-19.0-0.2,98645,List2A,white,woman,,,,null,,,,
null,"<img src=""stim_listA/play1.gif""style=""height:400px;""></stim_listA>",,html-keyboard-response,333,1529494,0.0-19.0-1.2,98645,List2A,white,woman,,,,null,,,,
null,is playing with,,html-keyboard-response,334,1531500,0.0-19.0-2.2,98645,List2A,white,woman,,,,null,,,,
7958,,,survey-text,335,1539460,0.0-19.0-3.2,98645,List2A,white,woman,,,,,"{""Q0"":""Dave is playing with Jane""}","<img src=""stim_listA/play1.gif""style=""height:400px;""></stim_listA>",is playing with,
null,"<div style=""font-size:60px;"">+</div>",,html-keyboard-response,336,1539969,0.0-19.0-0.3,98645,List2A,white,woman,,,,null,,,,
null,"<img src=""stim_listA/kiss6.gif""style=""height:400px;""></stim_listA>",,html-keyboard-response,337,1541987,0.0-19.0-1.3,98645,List2A,white,woman,,,,null,,,,
null,are kissing each other,,html-keyboard-response,338,1543999,0.0-19.0-2.3,98645,List2A,white,woman,,,,null,,,,
7642,,,survey-text,339,1551643,0.0-19.0-3.3,98645,List2A,white,woman,,,,,"{""Q0"":""Mike and Dave are kissing each other""}","<img src=""stim_listA/kiss6.gif""style=""height:400px;""></stim_listA>",are kissing each other,
null,"<div style=""font-size:60px;"">+</div>",,html-keyboard-response,340,1552149,0.0-19.0-0.4,98645,List2A,white,woman,,,,null,,,,
null,"<img src=""stim_listA/touch8.gif""style=""height:400px;""></stim_listA>",,html-keyboard-response,341,1554155,0.0-19.0-1.4,98645,List2A,white,woman,,,,null,,,,
null,are touching each other,,html-keyboard-response,342,1556157,0.0-19.0-2.4,98645,List2A,white,woman,,,,null,,,,
11513,,,survey-text,343,1567672,0.0-19.0-3.4,98645,List2A,white,woman,,,,,"{""Q0"":""Beth and Ruth are touching each other""}","<img src=""stim_listA/touch8.gif""style=""height:400px;""></stim_listA>",are touching each other,
null,"<div style=""font-size:60px;"">+</div>",,html-keyboard-response,344,1568186,0.0-19.0-0.5,98645,List2A,white,woman,,,,null,,,,
null,"<img src=""stim_listA/flirt4.gif""style=""height:400px;""></stim_listA>",,html-keyboard-response,345,1570192,0.0-19.0-1.5,98645,List2A,white,woman,,,,null,,,,
null,are flirting with each other,,html-keyboard-response,346,1572205,0.0-19.0-2.5,98645,List2A,white,woman,,,,null,,,,
9896,,,survey-text,347,1582103,0.0-19.0-3.5,98645,List2A,white,woman,,,,,"{""Q0"":""Beth and Mike are flirting with each other""}","<img src=""stim_listA/flirt4.gif""style=""height:400px;""></stim_listA>",are flirting with each other,
null,"<div style=""font-size:60px;"">+</div>",,html-keyboard-response,348,1582613,0.0-19.0-0.6,98645,List2A,white,woman,,,,null,,,,
null,"<img src=""stim_listA/fight3.gif""style=""height:400px;""></stim_listA>",,html-keyboard-response,349,1584618,0.0-19.0-1.6,98645,List2A,white,woman,,,,null,,,,
null,is fighting,,html-keyboard-response,350,1586636,0.0-19.0-2.6,98645,List2A,white,woman,,,,null,,,,
6468,,,survey-text,351,1593106,0.0-19.0-3.6,98645,List2A,white,woman,,,,,"{""Q0"":""Mike is fighting Kate""}","<img src=""stim_listA/fight3.gif""style=""height:400px;""></stim_listA>",is fighting,
null,"<div style=""font-size:60px;"">+</div>",,html-keyboard-response,352,1593621,0.0-19.0-0.7,98645,List2A,white,woman,,,,null,,,,
null,"<img src=""stim_listA/flirt5.gif""style=""height:400px;""></stim_listA>",,html-keyboard-response,353,1595627,0.0-19.0-1.7,98645,List2A,white,woman,,,,null,,,,
null,is flirting with,,html-keyboard-response,354,1597639,0.0-19.0-2.7,98645,List2A,white,woman,,,,null,,,,
8679,,,survey-text,355,1606321,0.0-19.0-3.7,98645,List2A,white,woman,,,,,"{""Q0"":""Luke is flirting with Mike""}","<img src=""stim_listA/flirt5.gif""style=""height:400px;""></stim_listA>",is flirting with,
null,"<div style=""font-size:60px;"">+</div>",,html-keyboard-response,356,1606828,0.0-19.0-0.8,98645,List2A,white,woman,,,,null,,,,
null,"<img src=""stim_listA/play6.gif""style=""height:400px;""></stim_listA>",,html-keyboard-response,357,1608835,0.0-19.0-1.8,98645,List2A,white,woman,,,,null,,,,
null,are playing with each other,,html-keyboard-response,358,1610844,0.0-19.0-2.8,98645,List2A,white,woman,,,,null,,,,
9118,,,survey-text,359,1619964,0.0-19.0-3.8,98645,List2A,white,woman,,,,,"{""Q0"":""Fred and Luke are playing with each other""}","<img src=""stim_listA/play6.gif""style=""height:400px;""></stim_listA>",are playing with each other,
null,"<div style=""font-size:60px;"">+</div>",,html-keyboard-response,360,1620473,0.0-19.0-0.9,98645,List2A,white,woman,,,,null,,,,
null,"<img src=""stim_listA/touch7.gif""style=""height:400px;""></stim_listA>",,html-keyboard-response,361,1622479,0.0-19.0-1.9,98645,List2A,white,woman,,,,null,,,,
null,is touching,,html-keyboard-response,362,1624492,0.0-19.0-2.9,98645,List2A,white,woman,,,,null,,,,
7286,,,survey-text,363,1631780,0.0-19.0-3.9,98645,List2A,white,woman,,,,,"{""Q0"":""Jane is touching Kate""}","<img src=""stim_listA/touch7.gif""style=""height:400px;""></stim_listA>",is touching,
null,"<div style=""font-size:60px;"">+</div>",,html-keyboard-response,364,1632286,0.0-19.0-0.10,98645,List2A,white,woman,,,,null,,,,
null,"<img src=""stim_listA/kiss3.gif""style=""height:400px;""></stim_listA>",,html-keyboard-response,365,1634302,0.0-19.0-1.10,98645,List2A,white,woman,,,,null,,,,
null,is kissing,,html-keyboard-response,366,1636306,0.0-19.0-2.10,98645,List2A,white,woman,,,,null,,,,
5676,,,survey-text,367,1641984,0.0-19.0-3.10,98645,List2A,white,woman,,,,,"{""Q0"":""Fred is kissing Beth""}","<img src=""stim_listA/kiss3.gif""style=""height:400px;""></stim_listA>",is kissing,
null,"<div style=""font-size:60px;"">+</div>",,html-keyboard-response,368,1642496,0.0-19.0-0.11,98645,List2A,white,woman,,,,null,,,,
null,"<img src=""stim_listA/talk6.gif""style=""height:400px;""></stim_listA>",,html-keyboard-response,369,1644500,0.0-19.0-1.11,98645,List2A,white,woman,,,,null,,,,
null,are talking to each other,,html-keyboard-response,370,1646521,0.0-19.0-2.11,98645,List2A,white,woman,,,,null,,,,
7944,,,survey-text,371,1654467,0.0-19.0-3.11,98645,List2A,white,woman,,,,,"{""Q0"":""Fred and Dave are talking to each other""}","<img src=""stim_listA/talk6.gif""style=""height:400px;""></stim_listA>",are talking to each other,
null,"<div style=""font-size:60px;"">+</div>",,html-keyboard-response,372,1654972,0.0-19.0-0.12,98645,List2A,white,woman,,,,null,,,,
null,"<img src=""stim_listA/shout8.gif""style=""height:400px;""></stim_listA>",,html-keyboard-response,373,1656979,0.0-19.0-1.12,98645,List2A,white,woman,,,,null,,,,
null,are shouting at each other,,html-keyboard-response,374,1658990,0.0-19.0-2.12,98645,List2A,white,woman,,,,null,,,,
10780,,,survey-text,375,1669773,0.0-19.0-3.12,98645,List2A,white,woman,,,,,"{""Q0"":""Jane and Kate are shouting at each other""}","<img src=""stim_listA/shout8.gif""style=""height:400px;""></stim_listA>",are shouting at each other,
null,"<div style=""font-size:60px;"">+</div>",,html-keyboard-response,376,1670284,0.0-19.0-0.13,98645,List2A,white,woman,,,,null,,,,
null,"<img src=""stim_listA/dance8.gif""style=""height:400px;""></stim_listA>",,html-keyboard-response,377,1672290,0.0-19.0-1.13,98645,List2A,white,woman,,,,null,,,,
null,are dancing with each other,,html-keyboard-response,378,1674307,0.0-19.0-2.13,98645,List2A,white,woman,,,,null,,,,
8573,,,survey-text,379,1682882,0.0-19.0-3.13,98645,List2A,white,woman,,,,,"{""Q0"":""Jane and Beth are dancing with each other""}","<img src=""stim_listA/dance8.gif""style=""height:400px;""></stim_listA>",are dancing with each other,
null,"<div style=""font-size:60px;"">+</div>",,html-keyboard-response,380,1683391,0.0-19.0-0.14,98645,List2A,white,woman,,,,null,,,,
null,"<img src=""stim_listA/touch2.gif""style=""height:400px;""></stim_listA>",,html-keyboard-response,381,1685394,0.0-19.0-1.14,98645,List2A,white,woman,,,,null,,,,
null,are touching each other,,html-keyboard-response,382,1687399,0.0-19.0-2.14,98645,List2A,white,woman,,,,null,,,,
10752,,,survey-text,383,1698153,0.0-19.0-3.14,98645,List2A,white,woman,,,,,"{""Q0"":""Ruth and Luke are touching each other""}","<img src=""stim_listA/touch2.gif""style=""height:400px;""></stim_listA>",are touching each other,
null,"<div style=""font-size:60px;"">+</div>",,html-keyboard-response,384,1698666,0.0-19.0-0.15,98645,List2A,white,woman,,,,null,,,,
null,"<img src=""stim_listA/argue6.gif""style=""height:400px;""></stim_listA>",,html-keyboard-response,385,1700672,0.0-19.0-1.15,98645,List2A,white,woman,,,,null,,,,
null,are arguing with each other,,html-keyboard-response,386,1702687,0.0-19.0-2.15,98645,List2A,white,woman,,,,null,,,,
11128,,,survey-text,387,1713817,0.0-19.0-3.15,98645,List2A,white,woman,,,,,"{""Q0"":""Mike and Luke are arguing with each other""}","<img src=""stim_listA/argue6.gif""style=""height:400px;""></stim_listA>",are arguing with each other,
null,"<div style=""font-size:60px;"">+</div>",,html-keyboard-response,388,1714325,0.0-19.0-0.16,98645,List2A,white,woman,,,,null,,,,
null,"<img src=""stim_listA/talk8.gif""style=""height:400px;""></stim_listA>",,html-keyboard-response,389,1716330,0.0-19.0-1.16,98645,List2A,white,woman,,,,null,,,,
null,are talking to each other,,html-keyboard-response,390,1718336,0.0-19.0-2.16,98645,List2A,white,woman,,,,null,,,,
9423,,,survey-text,391,1727762,0.0-19.0-3.16,98645,List2A,white,woman,,,,,"{""Q0"":""Beth and Jane are talking to each other""}","<img src=""stim_listA/talk8.gif""style=""height:400px;""></stim_listA>",are talking to each other,
null,"<div style=""font-size:60px;"">+</div>",,html-keyboard-response,392,1728273,0.0-19.0-0.17,98645,List2A,white,woman,,,,null,,,,
null,"<img src=""stim_listA/touch1.gif""style=""height:400px;""></stim_listA>",,html-keyboard-response,393,1730295,0.0-19.0-1.17,98645,List2A,white,woman,,,,null,,,,
null,is touching,,html-keyboard-response,394,1732304,0.0-19.0-2.17,98645,List2A,white,woman,,,,null,,,,
9270,,,survey-text,395,1741576,0.0-19.0-3.17,98645,List2A,white,woman,,,,,"{""Q0"":""Dave is touching Jane""}","<img src=""stim_listA/touch1.gif""style=""height:400px;""></stim_listA>",is touching,
null,"<div style=""font-size:60px;"">+</div>",,html-keyboard-response,396,1742089,0.0-19.0-0.18,98645,List2A,white,woman,,,,null,,,,
null,"<img src=""stim_listA/fight5.gif""style=""height:400px;""></stim_listA>",,html-keyboard-response,397,1744092,0.0-19.0-1.18,98645,List2A,white,woman,,,,null,,,,
null,is fighting,,html-keyboard-response,398,1746106,0.0-19.0-2.18,98645,List2A,white,woman,,,,null,,,,
5828,,,survey-text,399,1751936,0.0-19.0-3.18,98645,List2A,white,woman,,,,,"{""Q0"":""Dave is fighting Mike""}","<img src=""stim_listA/fight5.gif""style=""height:400px;""></stim_listA>",is fighting,
null,"<div style=""font-size:60px;"">+</div>",,html-keyboard-response,400,1752449,0.0-19.0-0.19,98645,List2A,white,woman,,,,null,,,,
null,"<img src=""stim_listA/argue1.gif""style=""height:400px;""></stim_listA>",,html-keyboard-response,401,1754452,0.0-19.0-1.19,98645,List2A,white,woman,,,,null,,,,
null,is arguing with,,html-keyboard-response,402,1756470,0.0-19.0-2.19,98645,List2A,white,woman,,,,null,,,,
9141,,,survey-text,403,1765614,0.0-19.0-3.19,98645,List2A,white,woman,,,,,"{""Q0"":""Dave is arguing with Ruth""}","<img src=""stim_listA/argue1.gif""style=""height:400px;""></stim_listA>",is arguing with,
1411,<p>Thank you for completing that task.</p><p>The final part of this session is a short questionnaire.</p><p>Press Continue.</p>,0,html-button-response,404,1767029,0.0-20.0,98645,List2A,white,woman,,,,,,,,
22578,,,survey-text,405,1790622,0.0-21.0,98645,List2A,white,woman,,,,,"{""Q0"":"""",""Q1"":""English"",""Q2"":""English"",""Q3"":""UK"",""Q4"":""White British"",""Q5"":""Female""}",,,demographics
6607,,,survey-likert,406,1797240,0.0-22.0,98645,List2A,white,woman,,,,,"{""Q0"":3}",,,likert_ESS
16694,,,survey-likert,407,1813939,0.0-23.0,98645,List2A,white,woman,,,,,"{""Q0"":5}",,,likert_NSSAL_Q1
5470,,,survey-likert,408,1819413,0.0-24.0,98645,List2A,white,woman,,,,,"{""Q0"":5}",,,likert_NSSAL_Q2
4106,,,survey-likert,409,1823523,0.0-25.0,98645,List2A,white,woman,,,,,"{""Q0"":4}",,,likert_CGRS_Q1
3938,,,survey-likert,410,1827467,0.0-26.0,98645,List2A,white,woman,,,,,"{""Q0"":3}",,,likert_CGRS_Q2
4055,,,survey-likert,411,1831527,0.0-27.0,98645,List2A,white,woman,,,,,"{""Q0"":3}",,,likert_CGRS_Q3
6530,,,survey-text,412,1838062,0.0-28.0,98645,List2A,white,woman,,,,,"{""Q0"":""ccc""}",,,worker_id
19768,,,external-html,413,1858515,0.0-29.0,98645,List2A,white,woman,debrief.html,,,,,,,
