rt,stimulus,button_pressed,trial_type,trial_index,time_elapsed,internal_node_id,subject,list,ppt_race,ppt_gender,url,first_guess,correct,key_press,responses,image_type,phrase_type,test_part
5621,Welcome to the experiment. Press Continue to begin.,0,html-button-response,0,5629,0.0-0.0,98695,List2A,black,man,,,,,,,,
227444,,,external-html,1,234161,0.0-1.0,98695,List2A,black,man,consent.html,,,,,,,
14662,"<p>On the next page, you will see portraits of 8 people and their names.</p><p>Your first task is to take a few minutes to memorise the names of these people.</p><p>You will have to recall their names during the rest of the experiment, so it is</p><p>essential that you try to memorise these people and their names as best as you can.</p><br><p><strong>You will then be tested on your memory of these names and portraits.</strong></p><br><p>The experiment will start after you have completed this memory test.</p><br><p>Ready?</p>",0,html-button-response,2,248831,0.0-2.0,98695,List2A,black,man,,,,,,,,
117801,"<img src='img/portrait_matrix_list2.jpg' style='width:900px;height:500px;''></img><p>If you have memorised all the portraits and names and are ready to start, press Continue.</p><p><strong>Please note: Your memory of these faces will be tested 4 times during this experiment.</strong></p>",0,html-button-response,3,367646,0.0-3.0-0.0,98695,List2A,black,man,,,,,,,,
8270,"<img src=""portrait/BW2.jpg""style=""height:400px;""></img>",2,html-button-response,4,376922,0.0-3.0-1.0,98695,List2A,black,man,,TRUE,2,,,,,
null,CORRECT,,html-keyboard-response,5,378431,0.0-3.0-2.0-0.0,98695,List2A,black,man,,,,null,,,,
6091,"<img src=""portrait/BM1.jpg""style=""height:400px;""></img>",4,html-button-response,6,384530,0.0-3.0-4.0,98695,List2A,black,man,,TRUE,4,,,,,
null,CORRECT,,html-keyboard-response,7,386035,0.0-3.0-5.0-0.0,98695,List2A,black,man,,,,null,,,,
7371,"<img src=""portrait/WW1.jpg""style=""height:400px;""></img>",1,html-button-response,8,393410,0.0-3.0-7.0,98695,List2A,black,man,,TRUE,1,,,,,
null,CORRECT,,html-keyboard-response,9,394917,0.0-3.0-8.0-0.0,98695,List2A,black,man,,,,null,,,,
5227,"<img src=""portrait/WW2.jpg""style=""height:400px;""></img>",3,html-button-response,10,400150,0.0-3.0-10.0,98695,List2A,black,man,,TRUE,3,,,,,
null,CORRECT,,html-keyboard-response,11,401655,0.0-3.0-11.0-0.0,98695,List2A,black,man,,,,null,,,,
7355,"<img src=""portrait/BM2.jpg""style=""height:400px;""></img>",5,html-button-response,12,409015,0.0-3.0-13.0,98695,List2A,black,man,,TRUE,5,,,,,
null,CORRECT,,html-keyboard-response,13,410519,0.0-3.0-14.0-0.0,98695,List2A,black,man,,,,null,,,,
11440,"<img src=""portrait/BW1.jpg""style=""height:400px;""></img>",0,html-button-response,14,421963,0.0-3.0-16.0,98695,List2A,black,man,,TRUE,0,,,,,
null,CORRECT,,html-keyboard-response,15,423468,0.0-3.0-17.0-0.0,98695,List2A,black,man,,,,null,,,,
3755,"<img src=""portrait/WM1.jpg""style=""height:400px;""></img>",5,html-button-response,16,427227,0.0-3.0-19.0,98695,List2A,black,man,,TRUE,6,,,,,
8285,"<img src=""portrait/WM1.jpg""style=""height:400px;""></img>",6,html-button-response,17,436521,0.0-3.0-21.0-0.0,98695,List2A,black,man,,FALSE,6,,,,,
null,CORRECT,,html-keyboard-response,18,438025,0.0-3.0-21.0-1.0-0.0,98695,List2A,black,man,,,,null,,,,
6973,"<img src=""portrait/WM2.jpg""style=""height:400px;""></img>",7,html-button-response,19,445005,0.0-3.0-22.0,98695,List2A,black,man,,TRUE,7,,,,,
null,CORRECT,,html-keyboard-response,20,446510,0.0-3.0-23.0-0.0,98695,List2A,black,man,,,,null,,,,
3167,<p>You got 7 out of 8 right first time. Press Continue.</p>,0,html-button-response,21,449683,0.0-3.0-25.0,98695,List2A,black,man,,,,,,,,
4602,"As you did not score 100%, the memory game will repeat. Press Continue.",0,html-button-response,22,455292,0.0-3.0-26.0-0.0,98695,List2A,black,man,,,,,,,,
4486,"<img src='img/portrait_matrix_list2.jpg' style='width:900px;height:500px;''></img><p>If you have memorised all the portraits and names and are ready to start, press Continue.</p><p><strong>Please note: Your memory of these faces will be tested 4 times during this experiment.</strong></p>",0,html-button-response,23,460786,0.0-3.1-0.1,98695,List2A,black,man,,,,,,,,
6937,"<img src=""portrait/BW2.jpg""style=""height:400px;""></img>",2,html-button-response,24,468733,0.0-3.1-1.1,98695,List2A,black,man,,TRUE,2,,,,,
null,CORRECT,,html-keyboard-response,25,470237,0.0-3.1-2.1-0.1,98695,List2A,black,man,,,,null,,,,
8011,"<img src=""portrait/BM1.jpg""style=""height:400px;""></img>",4,html-button-response,26,478253,0.0-3.1-4.1,98695,List2A,black,man,,TRUE,4,,,,,
null,CORRECT,,html-keyboard-response,27,479757,0.0-3.1-5.1-0.1,98695,List2A,black,man,,,,null,,,,
12793,"<img src=""portrait/WW1.jpg""style=""height:400px;""></img>",1,html-button-response,28,492556,0.0-3.1-7.1,98695,List2A,black,man,,TRUE,1,,,,,
null,CORRECT,,html-keyboard-response,29,494062,0.0-3.1-8.1-0.1,98695,List2A,black,man,,,,null,,,,
6655,"<img src=""portrait/WW2.jpg""style=""height:400px;""></img>",3,html-button-response,30,500723,0.0-3.1-10.1,98695,List2A,black,man,,TRUE,3,,,,,
null,CORRECT,,html-keyboard-response,31,502227,0.0-3.1-11.1-0.1,98695,List2A,black,man,,,,null,,,,
5943,"<img src=""portrait/BM2.jpg""style=""height:400px;""></img>",5,html-button-response,32,508176,0.0-3.1-13.1,98695,List2A,black,man,,TRUE,5,,,,,
null,CORRECT,,html-keyboard-response,33,509688,0.0-3.1-14.1-0.1,98695,List2A,black,man,,,,null,,,,
5590,"<img src=""portrait/BW1.jpg""style=""height:400px;""></img>",0,html-button-response,34,515283,0.0-3.1-16.1,98695,List2A,black,man,,TRUE,0,,,,,
null,CORRECT,,html-keyboard-response,35,516811,0.0-3.1-17.1-0.1,98695,List2A,black,man,,,,null,,,,
6982,"<img src=""portrait/WM1.jpg""style=""height:400px;""></img>",6,html-button-response,36,523798,0.0-3.1-19.1,98695,List2A,black,man,,TRUE,6,,,,,
null,CORRECT,,html-keyboard-response,37,525303,0.0-3.1-20.1-0.1,98695,List2A,black,man,,,,null,,,,
6484,"<img src=""portrait/WM2.jpg""style=""height:400px;""></img>",7,html-button-response,38,531794,0.0-3.1-22.1,98695,List2A,black,man,,TRUE,7,,,,,
null,CORRECT,,html-keyboard-response,39,533300,0.0-3.1-23.1-0.1,98695,List2A,black,man,,,,null,,,,
3049,<p>You got 8 out of 8 right first time. Press Continue.</p>,0,html-button-response,40,536353,0.0-3.1-25.1,98695,List2A,black,man,,,,,,,,
52066,"<p>In this experiment, you will view photographs of the people from the memory game interacting.</p><p>By using the <strong>exact</strong> phrase given <i>after</i> the photograph appears and recalling the correct names of the people in the photographs, form a sentence describing the interaction. You do not need to capitalise names.</p><p>Type your answer in the space provided. Please complete every sentence before moving onto the next trial.</p><p>You will only have a few seconds to memorise each given photograph and phrase before you can respond, so try your best to focus.</p><p>An example is given below. Press 'Continue' when you are ready.</p><img src='img/speaking_example.jpg' style='width:800px;height:460px;''></img>",0,html-button-response,41,589426,0.0-4.0,98695,List2A,black,man,,,,,,,,
5276,"<p>Before the experiment starts, you will watch two example trials. Press 'Continue'.</p>",0,html-button-response,42,595707,0.0-5.0,98695,List2A,black,man,,,,,,,,
null,<img src='img/meet_eg.gif' style='height:400px;''></img>,,html-keyboard-response,43,598713,0.0-6.0,98695,List2A,black,man,,,,null,,,,
null,<p>is meeting</p>,,html-keyboard-response,44,600715,0.0-7.0,98695,List2A,black,man,,,,null,,,,
8053,<p><b>Answer:</b> jane is meeting ruth</p>,0,html-button-response,45,608771,0.0-8.0,98695,List2A,black,man,,,,,,,,
null,<img src='img/look_eg.gif' style='height:400px;''></img>,,html-keyboard-response,46,611776,0.0-9.0,98695,List2A,black,man,,,,null,,,,
null,<p>are looking at each other</p>,,html-keyboard-response,47,613778,0.0-10.0,98695,List2A,black,man,,,,null,,,,
6800,<p><b>Answer:</b> fred and mike are looking at each other</p>,0,html-button-response,48,620582,0.0-11.0,98695,List2A,black,man,,,,,,,,
13229,"<p>Ready to start the experiment?</p><br><p><strong>Remember to describe the picture using a full sentence,</strong></p><p><strong>that combines the names of the people with the <i>exact</i> phrase given.</strong></p><p><strong>To receive full payment you must do this correctly.</strong></p><p><strong> You do not need to capitalise names or use punctuation.</strong></p><br><p>Press 'Continue' to begin.</p>",0,html-button-response,49,634818,0.0-12.0,98695,List2A,black,man,,,,,,,,
null,"<div style=""font-size:60px;"">+</div>",,html-keyboard-response,50,636323,0.0-13.0-0.0,98695,List2A,black,man,,,,null,,,,
null,"<img src=""stim_listA/marry3.gif""style=""height:400px;""></stim_listA>",,html-keyboard-response,51,638326,0.0-13.0-1.0,98695,List2A,black,man,,,,null,,,,
null,is marrying,,html-keyboard-response,52,640328,0.0-13.0-2.0,98695,List2A,black,man,,,,null,,,,
23465,,,survey-text,53,663797,0.0-13.0-3.0,98695,List2A,black,man,,,,,"{""Q0"":""mike and beth is marrying""}","<img src=""stim_listA/marry3.gif""style=""height:400px;""></stim_listA>",is marrying,
null,"<div style=""font-size:60px;"">+</div>",,html-keyboard-response,54,664302,0.0-13.0-0.1,98695,List2A,black,man,,,,null,,,,
null,"<img src=""stim_listA/flirt2.gif""style=""height:400px;""></stim_listA>",,html-keyboard-response,55,666304,0.0-13.0-1.1,98695,List2A,black,man,,,,null,,,,
null,are flirting with each other,,html-keyboard-response,56,668307,0.0-13.0-2.1,98695,List2A,black,man,,,,null,,,,
25280,,,survey-text,57,693589,0.0-13.0-3.1,98695,List2A,black,man,,,,,"{""Q0"":""luke and ruth are flirting with each other""}","<img src=""stim_listA/flirt2.gif""style=""height:400px;""></stim_listA>",are flirting with each other,
null,"<div style=""font-size:60px;"">+</div>",,html-keyboard-response,58,694092,0.0-13.0-0.2,98695,List2A,black,man,,,,null,,,,
null,"<img src=""stim_listA/dance7.gif""style=""height:400px;""></stim_listA>",,html-keyboard-response,59,696102,0.0-13.0-1.2,98695,List2A,black,man,,,,null,,,,
null,is dancing with,,html-keyboard-response,60,698105,0.0-13.0-2.2,98695,List2A,black,man,,,,null,,,,
37241,,,survey-text,61,735350,0.0-13.0-3.2,98695,List2A,black,man,,,,,"{""Q0"":""ruth is dancing with kate""}","<img src=""stim_listA/dance7.gif""style=""height:400px;""></stim_listA>",is dancing with,
null,"<div style=""font-size:60px;"">+</div>",,html-keyboard-response,62,735854,0.0-13.0-0.3,98695,List2A,black,man,,,,null,,,,
null,"<img src=""stim_listA/play5.gif""style=""height:400px;""></stim_listA>",,html-keyboard-response,63,737857,0.0-13.0-1.3,98695,List2A,black,man,,,,null,,,,
null,is playing with,,html-keyboard-response,64,739861,0.0-13.0-2.3,98695,List2A,black,man,,,,null,,,,
26244,,,survey-text,65,766108,0.0-13.0-3.3,98695,List2A,black,man,,,,,"{""Q0"":""dave is playing with mike""}","<img src=""stim_listA/play5.gif""style=""height:400px;""></stim_listA>",is playing with,
null,"<div style=""font-size:60px;"">+</div>",,html-keyboard-response,66,766612,0.0-13.0-0.4,98695,List2A,black,man,,,,null,,,,
null,"<img src=""stim_listA/dance3.gif""style=""height:400px;""></stim_listA>",,html-keyboard-response,67,768615,0.0-13.0-1.4,98695,List2A,black,man,,,,null,,,,
null,is dancing with,,html-keyboard-response,68,770618,0.0-13.0-2.4,98695,List2A,black,man,,,,null,,,,
19053,,,survey-text,69,789673,0.0-13.0-3.4,98695,List2A,black,man,,,,,"{""Q0"":""fred is dancing with kate""}","<img src=""stim_listA/dance3.gif""style=""height:400px;""></stim_listA>",is dancing with,
null,"<div style=""font-size:60px;"">+</div>",,html-keyboard-response,70,790176,0.0-13.0-0.5,98695,List2A,black,man,,,,null,,,,
null,"<img src=""stim_listA/kiss5.gif""style=""height:400px;""></stim_listA>",,html-keyboard-response,71,792180,0.0-13.0-1.5,98695,List2A,black,man,,,,null,,,,
null,is kissing,,html-keyboard-response,72,794181,0.0-13.0-2.5,98695,List2A,black,man,,,,null,,,,
27051,,,survey-text,73,821236,0.0-13.0-3.5,98695,List2A,black,man,,,,,"{""Q0"":""luke is kissing fred""}","<img src=""stim_listA/kiss5.gif""style=""height:400px;""></stim_listA>",is kissing,
null,"<div style=""font-size:60px;"">+</div>",,html-keyboard-response,74,821739,0.0-13.0-0.6,98695,List2A,black,man,,,,null,,,,
null,"<img src=""stim_listA/kiss6.gif""style=""height:400px;""></stim_listA>",,html-keyboard-response,75,823742,0.0-13.0-1.6,98695,List2A,black,man,,,,null,,,,
null,are kissing each other,,html-keyboard-response,76,825746,0.0-13.0-2.6,98695,List2A,black,man,,,,null,,,,
26844,,,survey-text,77,852593,0.0-13.0-3.6,98695,List2A,black,man,,,,,"{""Q0"":""luke and mike are kissing each other""}","<img src=""stim_listA/kiss6.gif""style=""height:400px;""></stim_listA>",are kissing each other,
null,"<div style=""font-size:60px;"">+</div>",,html-keyboard-response,78,853096,0.0-13.0-0.7,98695,List2A,black,man,,,,null,,,,
null,"<img src=""stim_listA/dance5.gif""style=""height:400px;""></stim_listA>",,html-keyboard-response,79,855100,0.0-13.0-1.7,98695,List2A,black,man,,,,null,,,,
null,is dancing with,,html-keyboard-response,80,857103,0.0-13.0-2.7,98695,List2A,black,man,,,,null,,,,
46565,,,survey-text,81,903671,0.0-13.0-3.7,98695,List2A,black,man,,,,,"{""Q0"":""luke and dave are dancing with each other""}","<img src=""stim_listA/dance5.gif""style=""height:400px;""></stim_listA>",is dancing with,
null,"<div style=""font-size:60px;"">+</div>",,html-keyboard-response,82,904174,0.0-13.0-0.8,98695,List2A,black,man,,,,null,,,,
null,"<img src=""stim_listA/play6.gif""style=""height:400px;""></stim_listA>",,html-keyboard-response,83,906178,0.0-13.0-1.8,98695,List2A,black,man,,,,null,,,,
null,are playing with each other,,html-keyboard-response,84,908180,0.0-13.0-2.8,98695,List2A,black,man,,,,null,,,,
17064,,,survey-text,85,925246,0.0-13.0-3.8,98695,List2A,black,man,,,,,"{""Q0"":""luke and fred are playing""}","<img src=""stim_listA/play6.gif""style=""height:400px;""></stim_listA>",are playing with each other,
null,"<div style=""font-size:60px;"">+</div>",,html-keyboard-response,86,925750,0.0-13.0-0.9,98695,List2A,black,man,,,,null,,,,
null,"<img src=""stim_listA/touch8.gif""style=""height:400px;""></stim_listA>",,html-keyboard-response,87,927754,0.0-13.0-1.9,98695,List2A,black,man,,,,null,,,,
null,are touching each other,,html-keyboard-response,88,929757,0.0-13.0-2.9,98695,List2A,black,man,,,,null,,,,
24120,,,survey-text,89,953880,0.0-13.0-3.9,98695,List2A,black,man,,,,,"{""Q0"":""beth and ruth are touching each other""}","<img src=""stim_listA/touch8.gif""style=""height:400px;""></stim_listA>",are touching each other,
null,"<div style=""font-size:60px;"">+</div>",,html-keyboard-response,90,954383,0.0-13.0-0.10,98695,List2A,black,man,,,,null,,,,
null,"<img src=""stim_listA/touch6.gif""style=""height:400px;""></stim_listA>",,html-keyboard-response,91,956387,0.0-13.0-1.10,98695,List2A,black,man,,,,null,,,,
null,are touching each other,,html-keyboard-response,92,958389,0.0-13.0-2.10,98695,List2A,black,man,,,,null,,,,
22046,,,survey-text,93,980440,0.0-13.0-3.10,98695,List2A,black,man,,,,,"{""Q0"":""luke and fred are touching each other""}","<img src=""stim_listA/touch6.gif""style=""height:400px;""></stim_listA>",are touching each other,
null,"<div style=""font-size:60px;"">+</div>",,html-keyboard-response,94,980945,0.0-13.0-0.11,98695,List2A,black,man,,,,null,,,,
null,"<img src=""stim_listA/argue7.gif""style=""height:400px;""></stim_listA>",,html-keyboard-response,95,982949,0.0-13.0-1.11,98695,List2A,black,man,,,,null,,,,
null,is arguing with,,html-keyboard-response,96,984953,0.0-13.0-2.11,98695,List2A,black,man,,,,null,,,,
19602,,,survey-text,97,1004558,0.0-13.0-3.11,98695,List2A,black,man,,,,,"{""Q0"":""jane and beth are arguing""}","<img src=""stim_listA/argue7.gif""style=""height:400px;""></stim_listA>",is arguing with,
null,"<div style=""font-size:60px;"">+</div>",,html-keyboard-response,98,1005064,0.0-13.0-0.12,98695,List2A,black,man,,,,null,,,,
null,"<img src=""stim_listA/talk5.gif""style=""height:400px;""></stim_listA>",,html-keyboard-response,99,1007067,0.0-13.0-1.12,98695,List2A,black,man,,,,null,,,,
null,is talking to,,html-keyboard-response,100,1009071,0.0-13.0-2.12,98695,List2A,black,man,,,,null,,,,
36063,,,survey-text,101,1045136,0.0-13.0-3.12,98695,List2A,black,man,,,,,"{""Q0"":""luke and fred are talking""}","<img src=""stim_listA/talk5.gif""style=""height:400px;""></stim_listA>",is talking to,
null,"<div style=""font-size:60px;"">+</div>",,html-keyboard-response,102,1045640,0.0-13.0-0.13,98695,List2A,black,man,,,,null,,,,
null,"<img src=""stim_listA/play8.gif""style=""height:400px;""></stim_listA>",,html-keyboard-response,103,1047644,0.0-13.0-1.13,98695,List2A,black,man,,,,null,,,,
null,are playing with each other,,html-keyboard-response,104,1049647,0.0-13.0-2.13,98695,List2A,black,man,,,,null,,,,
24041,,,survey-text,105,1073690,0.0-13.0-3.13,98695,List2A,black,man,,,,,"{""Q0"":""ruth and  beth are playing""}","<img src=""stim_listA/play8.gif""style=""height:400px;""></stim_listA>",are playing with each other,
null,"<div style=""font-size:60px;"">+</div>",,html-keyboard-response,106,1074194,0.0-13.0-0.14,98695,List2A,black,man,,,,null,,,,
null,"<img src=""stim_listA/shout5.gif""style=""height:400px;""></stim_listA>",,html-keyboard-response,107,1076198,0.0-13.0-1.14,98695,List2A,black,man,,,,null,,,,
null,is shouting at,,html-keyboard-response,108,1078201,0.0-13.0-2.14,98695,List2A,black,man,,,,null,,,,
19072,,,survey-text,109,1097276,0.0-13.0-3.14,98695,List2A,black,man,,,,,"{""Q0"":""fred is shouting at luke""}","<img src=""stim_listA/shout5.gif""style=""height:400px;""></stim_listA>",is shouting at,
null,"<div style=""font-size:60px;"">+</div>",,html-keyboard-response,110,1097781,0.0-13.0-0.15,98695,List2A,black,man,,,,null,,,,
null,"<img src=""stim_listA/marry4.gif""style=""height:400px;""></stim_listA>",,html-keyboard-response,111,1099785,0.0-13.0-1.15,98695,List2A,black,man,,,,null,,,,
null,are marrying each other,,html-keyboard-response,112,1101788,0.0-13.0-2.15,98695,List2A,black,man,,,,null,,,,
29944,,,survey-text,113,1131735,0.0-13.0-3.15,98695,List2A,black,man,,,,,"{""Q0"":""kate and fred are marrying""}","<img src=""stim_listA/marry4.gif""style=""height:400px;""></stim_listA>",are marrying each other,
null,"<div style=""font-size:60px;"">+</div>",,html-keyboard-response,114,1132238,0.0-13.0-0.16,98695,List2A,black,man,,,,null,,,,
null,"<img src=""stim_listA/marry2.gif""style=""height:400px;""></stim_listA>",,html-keyboard-response,115,1134242,0.0-13.0-1.16,98695,List2A,black,man,,,,null,,,,
null,are marrying each other,,html-keyboard-response,116,1136245,0.0-13.0-2.16,98695,List2A,black,man,,,,null,,,,
29191,,,survey-text,117,1165438,0.0-13.0-3.16,98695,List2A,black,man,,,,,"{""Q0"":""jane and luke are marrying each other""}","<img src=""stim_listA/marry2.gif""style=""height:400px;""></stim_listA>",are marrying each other,
null,"<div style=""font-size:60px;"">+</div>",,html-keyboard-response,118,1165941,0.0-13.0-0.17,98695,List2A,black,man,,,,null,,,,
null,"<img src=""stim_listA/marry7.gif""style=""height:400px;""></stim_listA>",,html-keyboard-response,119,1167946,0.0-13.0-1.17,98695,List2A,black,man,,,,null,,,,
null,is marrying,,html-keyboard-response,120,1169949,0.0-13.0-2.17,98695,List2A,black,man,,,,null,,,,
34501,,,survey-text,121,1204453,0.0-13.0-3.17,98695,List2A,black,man,,,,,"{""Q0"":""beth and jane are marrying each other""}","<img src=""stim_listA/marry7.gif""style=""height:400px;""></stim_listA>",is marrying,
null,"<div style=""font-size:60px;"">+</div>",,html-keyboard-response,122,1204957,0.0-13.0-0.18,98695,List2A,black,man,,,,null,,,,
null,"<img src=""stim_listA/touch3.gif""style=""height:400px;""></stim_listA>",,html-keyboard-response,123,1206961,0.0-13.0-1.18,98695,List2A,black,man,,,,null,,,,
null,is touching,,html-keyboard-response,124,1208965,0.0-13.0-2.18,98695,List2A,black,man,,,,null,,,,
22081,,,survey-text,125,1231051,0.0-13.0-3.18,98695,List2A,black,man,,,,,"{""Q0"":""kate is touching mike""}","<img src=""stim_listA/touch3.gif""style=""height:400px;""></stim_listA>",is touching,
null,"<div style=""font-size:60px;"">+</div>",,html-keyboard-response,126,1231554,0.0-13.0-0.19,98695,List2A,black,man,,,,null,,,,
null,"<img src=""stim_listA/flirt1.gif""style=""height:400px;""></stim_listA>",,html-keyboard-response,127,1233557,0.0-13.0-1.19,98695,List2A,black,man,,,,null,,,,
null,is flirting with,,html-keyboard-response,128,1235560,0.0-13.0-2.19,98695,List2A,black,man,,,,null,,,,
25998,,,survey-text,129,1261561,0.0-13.0-3.19,98695,List2A,black,man,,,,,"{""Q0"":""luke is flirting with ruth""}","<img src=""stim_listA/flirt1.gif""style=""height:400px;""></stim_listA>",is flirting with,
10844,"<img src='img/portrait_matrix_list2.jpg' style='width:900px;height:500px;''></img><p>If you have memorised all the portraits and names and are ready to start, press Continue.</p><p><strong>Please note: Your memory of these faces will be tested 4 times during this experiment.</strong></p>",0,html-button-response,130,1272411,0.0-14.0-0.0,98695,List2A,black,man,,,,,,,,
12815,"<img src=""portrait/BW1.jpg""style=""height:400px;""></img>",0,html-button-response,131,1286240,0.0-14.0-1.0,98695,List2A,black,man,,TRUE,0,,,,,
null,CORRECT,,html-keyboard-response,132,1287744,0.0-14.0-2.0-0.0,98695,List2A,black,man,,,,null,,,,
10372,"<img src=""portrait/BW2.jpg""style=""height:400px;""></img>",2,html-button-response,133,1298123,0.0-14.0-4.0,98695,List2A,black,man,,TRUE,2,,,,,
null,CORRECT,,html-keyboard-response,134,1299626,0.0-14.0-5.0-0.0,98695,List2A,black,man,,,,null,,,,
9578,"<img src=""portrait/BM1.jpg""style=""height:400px;""></img>",4,html-button-response,135,1309208,0.0-14.0-7.0,98695,List2A,black,man,,TRUE,4,,,,,
null,CORRECT,,html-keyboard-response,136,1310713,0.0-14.0-8.0-0.0,98695,List2A,black,man,,,,null,,,,
10726,"<img src=""portrait/WW1.jpg""style=""height:400px;""></img>",1,html-button-response,137,1321445,0.0-14.0-10.0,98695,List2A,black,man,,TRUE,1,,,,,
null,CORRECT,,html-keyboard-response,138,1322950,0.0-14.0-11.0-0.0,98695,List2A,black,man,,,,null,,,,
7326,"<img src=""portrait/WW2.jpg""style=""height:400px;""></img>",3,html-button-response,139,1330281,0.0-14.0-13.0,98695,List2A,black,man,,TRUE,3,,,,,
null,CORRECT,,html-keyboard-response,140,1331786,0.0-14.0-14.0-0.0,98695,List2A,black,man,,,,null,,,,
3041,"<img src=""portrait/BM2.jpg""style=""height:400px;""></img>",5,html-button-response,141,1334832,0.0-14.0-16.0,98695,List2A,black,man,,TRUE,5,,,,,
null,CORRECT,,html-keyboard-response,142,1336337,0.0-14.0-17.0-0.0,98695,List2A,black,man,,,,null,,,,
8817,"<img src=""portrait/WM2.jpg""style=""height:400px;""></img>",7,html-button-response,143,1345160,0.0-14.0-19.0,98695,List2A,black,man,,TRUE,7,,,,,
null,CORRECT,,html-keyboard-response,144,1346687,0.0-14.0-20.0-0.0,98695,List2A,black,man,,,,null,,,,
5634,"<img src=""portrait/WM1.jpg""style=""height:400px;""></img>",6,html-button-response,145,1352328,0.0-14.0-22.0,98695,List2A,black,man,,TRUE,6,,,,,
null,CORRECT,,html-keyboard-response,146,1353832,0.0-14.0-23.0-0.0,98695,List2A,black,man,,,,null,,,,
5571,<p>You got 8 out of 8 right first time. Press Continue.</p>,0,html-button-response,147,1359406,0.0-14.0-25.0,98695,List2A,black,man,,,,,,,,
null,"<div style=""font-size:60px;"">+</div>",,html-keyboard-response,148,1360922,0.0-15.0-0.0,98695,List2A,black,man,,,,null,,,,
null,"<img src=""stim_listA/touch1.gif""style=""height:400px;""></stim_listA>",,html-keyboard-response,149,1362925,0.0-15.0-1.0,98695,List2A,black,man,,,,null,,,,
null,is touching,,html-keyboard-response,150,1364928,0.0-15.0-2.0,98695,List2A,black,man,,,,null,,,,
25359,,,survey-text,151,1390291,0.0-15.0-3.0,98695,List2A,black,man,,,,,"{""Q0"":""dave is touching jane""}","<img src=""stim_listA/touch1.gif""style=""height:400px;""></stim_listA>",is touching,
null,"<div style=""font-size:60px;"">+</div>",,html-keyboard-response,152,1390795,0.0-15.0-0.1,98695,List2A,black,man,,,,null,,,,
null,"<img src=""stim_listA/flirt3.gif""style=""height:400px;""></stim_listA>",,html-keyboard-response,153,1392798,0.0-15.0-1.1,98695,List2A,black,man,,,,null,,,,
null,is flirting with,,html-keyboard-response,154,1394800,0.0-15.0-2.1,98695,List2A,black,man,,,,null,,,,
22675,,,survey-text,155,1417477,0.0-15.0-3.1,98695,List2A,black,man,,,,,"{""Q0"":""fred is flirting with kate""}","<img src=""stim_listA/flirt3.gif""style=""height:400px;""></stim_listA>",is flirting with,
null,"<div style=""font-size:60px;"">+</div>",,html-keyboard-response,156,1417982,0.0-15.0-0.2,98695,List2A,black,man,,,,null,,,,
null,"<img src=""stim_listA/touch7.gif""style=""height:400px;""></stim_listA>",,html-keyboard-response,157,1419986,0.0-15.0-1.2,98695,List2A,black,man,,,,null,,,,
null,is touching,,html-keyboard-response,158,1421988,0.0-15.0-2.2,98695,List2A,black,man,,,,null,,,,
47464,,,survey-text,159,1469456,0.0-15.0-3.2,98695,List2A,black,man,,,,,"{""Q0"":""jane is touching kate""}","<img src=""stim_listA/touch7.gif""style=""height:400px;""></stim_listA>",is touching,
null,"<div style=""font-size:60px;"">+</div>",,html-keyboard-response,160,1469959,0.0-15.0-0.3,98695,List2A,black,man,,,,null,,,,
null,"<img src=""stim_listA/fight1.gif""style=""height:400px;""></stim_listA>",,html-keyboard-response,161,1471963,0.0-15.0-1.3,98695,List2A,black,man,,,,null,,,,
null,is fighting,,html-keyboard-response,162,1473965,0.0-15.0-2.3,98695,List2A,black,man,,,,null,,,,
23076,,,survey-text,163,1497044,0.0-15.0-3.3,98695,List2A,black,man,,,,,"{""Q0"":""dave is fighting jane""}","<img src=""stim_listA/fight1.gif""style=""height:400px;""></stim_listA>",is fighting,
null,"<div style=""font-size:60px;"">+</div>",,html-keyboard-response,164,1497548,0.0-15.0-0.4,98695,List2A,black,man,,,,null,,,,
null,"<img src=""stim_listA/marry1.gif""style=""height:400px;""></stim_listA>",,html-keyboard-response,165,1499552,0.0-15.0-1.4,98695,List2A,black,man,,,,null,,,,
null,is marrying,,html-keyboard-response,166,1501554,0.0-15.0-2.4,98695,List2A,black,man,,,,null,,,,
24349,,,survey-text,167,1525905,0.0-15.0-3.4,98695,List2A,black,man,,,,,"{""Q0"":""dave is marrying ruth""}","<img src=""stim_listA/marry1.gif""style=""height:400px;""></stim_listA>",is marrying,
null,"<div style=""font-size:60px;"">+</div>",,html-keyboard-response,168,1526410,0.0-15.0-0.5,98695,List2A,black,man,,,,null,,,,
null,"<img src=""stim_listA/talk8.gif""style=""height:400px;""></stim_listA>",,html-keyboard-response,169,1528414,0.0-15.0-1.5,98695,List2A,black,man,,,,null,,,,
null,are talking to each other,,html-keyboard-response,170,1530416,0.0-15.0-2.5,98695,List2A,black,man,,,,null,,,,
31031,,,survey-text,171,1561450,0.0-15.0-3.5,98695,List2A,black,man,,,,,"{""Q0"":""beth and jane are talking to each other""}","<img src=""stim_listA/talk8.gif""style=""height:400px;""></stim_listA>",are talking to each other,
null,"<div style=""font-size:60px;"">+</div>",,html-keyboard-response,172,1561959,0.0-15.0-0.6,98695,List2A,black,man,,,,null,,,,
null,"<img src=""stim_listA/argue5.gif""style=""height:400px;""></stim_listA>",,html-keyboard-response,173,1563964,0.0-15.0-1.6,98695,List2A,black,man,,,,null,,,,
null,is arguing with,,html-keyboard-response,174,1565967,0.0-15.0-2.6,98695,List2A,black,man,,,,null,,,,
31082,,,survey-text,175,1597051,0.0-15.0-3.6,98695,List2A,black,man,,,,,"{""Q0"":""fred is arguing with dave""}","<img src=""stim_listA/argue5.gif""style=""height:400px;""></stim_listA>",is arguing with,
null,"<div style=""font-size:60px;"">+</div>",,html-keyboard-response,176,1597556,0.0-15.0-0.7,98695,List2A,black,man,,,,null,,,,
null,"<img src=""stim_listA/kiss7.gif""style=""height:400px;""></stim_listA>",,html-keyboard-response,177,1599562,0.0-15.0-1.7,98695,List2A,black,man,,,,null,,,,
null,is kissing,,html-keyboard-response,178,1601564,0.0-15.0-2.7,98695,List2A,black,man,,,,null,,,,
31249,,,survey-text,179,1632815,0.0-15.0-3.7,98695,List2A,black,man,,,,,"{""Q0"":""beth is kissing ruth""}","<img src=""stim_listA/kiss7.gif""style=""height:400px;""></stim_listA>",is kissing,
null,"<div style=""font-size:60px;"">+</div>",,html-keyboard-response,180,1633319,0.0-15.0-0.8,98695,List2A,black,man,,,,null,,,,
null,"<img src=""stim_listA/play7.gif""style=""height:400px;""></stim_listA>",,html-keyboard-response,181,1635327,0.0-15.0-1.8,98695,List2A,black,man,,,,null,,,,
null,is playing with,,html-keyboard-response,182,1637330,0.0-15.0-2.8,98695,List2A,black,man,,,,null,,,,
22037,,,survey-text,183,1659371,0.0-15.0-3.8,98695,List2A,black,man,,,,,"{""Q0"":""jane is playing with kate""}","<img src=""stim_listA/play7.gif""style=""height:400px;""></stim_listA>",is playing with,
null,"<div style=""font-size:60px;"">+</div>",,html-keyboard-response,184,1659876,0.0-15.0-0.9,98695,List2A,black,man,,,,null,,,,
null,"<img src=""stim_listA/shout3.gif""style=""height:400px;""></stim_listA>",,html-keyboard-response,185,1661879,0.0-15.0-1.9,98695,List2A,black,man,,,,null,,,,
null,is shouting at,,html-keyboard-response,186,1663882,0.0-15.0-2.9,98695,List2A,black,man,,,,null,,,,
25489,,,survey-text,187,1689375,0.0-15.0-3.9,98695,List2A,black,man,,,,,"{""Q0"":""beth is shouting at fred""}","<img src=""stim_listA/shout3.gif""style=""height:400px;""></stim_listA>",is shouting at,
null,"<div style=""font-size:60px;"">+</div>",,html-keyboard-response,188,1689879,0.0-15.0-0.10,98695,List2A,black,man,,,,null,,,,
null,"<img src=""stim_listA/argue6.gif""style=""height:400px;""></stim_listA>",,html-keyboard-response,189,1691883,0.0-15.0-1.10,98695,List2A,black,man,,,,null,,,,
null,are arguing with each other,,html-keyboard-response,190,1693885,0.0-15.0-2.10,98695,List2A,black,man,,,,null,,,,
25492,,,survey-text,191,1719382,0.0-15.0-3.10,98695,List2A,black,man,,,,,"{""Q0"":""luke and mike are arguing with each other""}","<img src=""stim_listA/argue6.gif""style=""height:400px;""></stim_listA>",are arguing with each other,
null,"<div style=""font-size:60px;"">+</div>",,html-keyboard-response,192,1719886,0.0-15.0-0.11,98695,List2A,black,man,,,,null,,,,
null,"<img src=""stim_listA/shout7.gif""style=""height:400px;""></stim_listA>",,html-keyboard-response,193,1721890,0.0-15.0-1.11,98695,List2A,black,man,,,,null,,,,
null,is shouting at,,html-keyboard-response,194,1723893,0.0-15.0-2.11,98695,List2A,black,man,,,,null,,,,
26457,,,survey-text,195,1750353,0.0-15.0-3.11,98695,List2A,black,man,,,,,"{""Q0"":""ruth is shouting at beth""}","<img src=""stim_listA/shout7.gif""style=""height:400px;""></stim_listA>",is shouting at,
null,"<div style=""font-size:60px;"">+</div>",,html-keyboard-response,196,1750857,0.0-15.0-0.12,98695,List2A,black,man,,,,null,,,,
null,"<img src=""stim_listA/talk7.gif""style=""height:400px;""></stim_listA>",,html-keyboard-response,197,1752860,0.0-15.0-1.12,98695,List2A,black,man,,,,null,,,,
null,is talking to,,html-keyboard-response,198,1754864,0.0-15.0-2.12,98695,List2A,black,man,,,,null,,,,
25336,,,survey-text,199,1780204,0.0-15.0-3.12,98695,List2A,black,man,,,,,"{""Q0"":""ruth is talking to kate""}","<img src=""stim_listA/talk7.gif""style=""height:400px;""></stim_listA>",is talking to,
null,"<div style=""font-size:60px;"">+</div>",,html-keyboard-response,200,1780709,0.0-15.0-0.13,98695,List2A,black,man,,,,null,,,,
null,"<img src=""stim_listA/argue4.gif""style=""height:400px;""></stim_listA>",,html-keyboard-response,201,1782713,0.0-15.0-1.13,98695,List2A,black,man,,,,null,,,,
null,are arguing with each other,,html-keyboard-response,202,1784716,0.0-15.0-2.13,98695,List2A,black,man,,,,null,,,,
24771,,,survey-text,203,1809490,0.0-15.0-3.13,98695,List2A,black,man,,,,,"{""Q0"":""kate and fred are arguing with each other""}","<img src=""stim_listA/argue4.gif""style=""height:400px;""></stim_listA>",are arguing with each other,
null,"<div style=""font-size:60px;"">+</div>",,html-keyboard-response,204,1809993,0.0-15.0-0.14,98695,List2A,black,man,,,,null,,,,
null,"<img src=""stim_listA/talk3.gif""style=""height:400px;""></stim_listA>",,html-keyboard-response,205,1811997,0.0-15.0-1.14,98695,List2A,black,man,,,,null,,,,
null,is talking to,,html-keyboard-response,206,1814000,0.0-15.0-2.14,98695,List2A,black,man,,,,null,,,,
126440,,,survey-text,207,1940444,0.0-15.0-3.14,98695,List2A,black,man,,,,,"{""Q0"":""kate is talking to fred""}","<img src=""stim_listA/talk3.gif""style=""height:400px;""></stim_listA>",is talking to,
null,"<div style=""font-size:60px;"">+</div>",,html-keyboard-response,208,1940948,0.0-15.0-0.15,98695,List2A,black,man,,,,null,,,,
null,"<img src=""stim_listA/touch2.gif""style=""height:400px;""></stim_listA>",,html-keyboard-response,209,1942953,0.0-15.0-1.15,98695,List2A,black,man,,,,null,,,,
null,are touching each other,,html-keyboard-response,210,1944956,0.0-15.0-2.15,98695,List2A,black,man,,,,null,,,,
25604,,,survey-text,211,1970563,0.0-15.0-3.15,98695,List2A,black,man,,,,,"{""Q0"":""luke and ruth are touching each other""}","<img src=""stim_listA/touch2.gif""style=""height:400px;""></stim_listA>",are touching each other,
null,"<div style=""font-size:60px;"">+</div>",,html-keyboard-response,212,1971067,0.0-15.0-0.16,98695,List2A,black,man,,,,null,,,,
null,"<img src=""stim_listA/play4.gif""style=""height:400px;""></stim_listA>",,html-keyboard-response,213,1973074,0.0-15.0-1.16,98695,List2A,black,man,,,,null,,,,
null,are playing with each other,,html-keyboard-response,214,1975078,0.0-15.0-2.16,98695,List2A,black,man,,,,null,,,,
30148,,,survey-text,215,2005228,0.0-15.0-3.16,98695,List2A,black,man,,,,,"{""Q0"":""beth and fred are playing with each other""}","<img src=""stim_listA/play4.gif""style=""height:400px;""></stim_listA>",are playing with each other,
null,"<div style=""font-size:60px;"">+</div>",,html-keyboard-response,216,2005732,0.0-15.0-0.17,98695,List2A,black,man,,,,null,,,,
null,"<img src=""stim_listA/fight8.gif""style=""height:400px;""></stim_listA>",,html-keyboard-response,217,2007737,0.0-15.0-1.17,98695,List2A,black,man,,,,null,,,,
null,are fighting each other,,html-keyboard-response,218,2009740,0.0-15.0-2.17,98695,List2A,black,man,,,,null,,,,
23447,,,survey-text,219,2033190,0.0-15.0-3.17,98695,List2A,black,man,,,,,"{""Q0"":""beth and ruth are fighting each other""}","<img src=""stim_listA/fight8.gif""style=""height:400px;""></stim_listA>",are fighting each other,
null,"<div style=""font-size:60px;"">+</div>",,html-keyboard-response,220,2033693,0.0-15.0-0.18,98695,List2A,black,man,,,,null,,,,
null,"<img src=""stim_listA/argue2.gif""style=""height:400px;""></stim_listA>",,html-keyboard-response,221,2035696,0.0-15.0-1.18,98695,List2A,black,man,,,,null,,,,
null,are arguing with each other,,html-keyboard-response,222,2037699,0.0-15.0-2.18,98695,List2A,black,man,,,,null,,,,
27769,,,survey-text,223,2065471,0.0-15.0-3.18,98695,List2A,black,man,,,,,"{""Q0"":""jane is arguing with luke""}","<img src=""stim_listA/argue2.gif""style=""height:400px;""></stim_listA>",are arguing with each other,
null,"<div style=""font-size:60px;"">+</div>",,html-keyboard-response,224,2065975,0.0-15.0-0.19,98695,List2A,black,man,,,,null,,,,
null,"<img src=""stim_listA/kiss8.gif""style=""height:400px;""></stim_listA>",,html-keyboard-response,225,2067979,0.0-15.0-1.19,98695,List2A,black,man,,,,null,,,,
null,are kissing each other,,html-keyboard-response,226,2069982,0.0-15.0-2.19,98695,List2A,black,man,,,,null,,,,
31992,,,survey-text,227,2101979,0.0-15.0-3.19,98695,List2A,black,man,,,,,"{""Q0"":""kate and jane are kissing each other""}","<img src=""stim_listA/kiss8.gif""style=""height:400px;""></stim_listA>",are kissing each other,
5481,"<img src='img/portrait_matrix_list2.jpg' style='width:900px;height:500px;''></img><p>If you have memorised all the portraits and names and are ready to start, press Continue.</p><p><strong>Please note: Your memory of these faces will be tested 4 times during this experiment.</strong></p>",0,html-button-response,228,2107465,0.0-16.0-0.0,98695,List2A,black,man,,,,,,,,
9595,"<img src=""portrait/BM2.jpg""style=""height:400px;""></img>",5,html-button-response,229,2118068,0.0-16.0-1.0,98695,List2A,black,man,,TRUE,5,,,,,
null,CORRECT,,html-keyboard-response,230,2119573,0.0-16.0-2.0-0.0,98695,List2A,black,man,,,,null,,,,
6339,"<img src=""portrait/BM1.jpg""style=""height:400px;""></img>",4,html-button-response,231,2125917,0.0-16.0-4.0,98695,List2A,black,man,,TRUE,4,,,,,
null,CORRECT,,html-keyboard-response,232,2127422,0.0-16.0-5.0-0.0,98695,List2A,black,man,,,,null,,,,
7018,"<img src=""portrait/BW2.jpg""style=""height:400px;""></img>",2,html-button-response,233,2134446,0.0-16.0-7.0,98695,List2A,black,man,,TRUE,2,,,,,
null,CORRECT,,html-keyboard-response,234,2135951,0.0-16.0-8.0-0.0,98695,List2A,black,man,,,,null,,,,
2663,"<img src=""portrait/WM2.jpg""style=""height:400px;""></img>",7,html-button-response,235,2138618,0.0-16.0-10.0,98695,List2A,black,man,,TRUE,7,,,,,
null,CORRECT,,html-keyboard-response,236,2140122,0.0-16.0-11.0-0.0,98695,List2A,black,man,,,,null,,,,
8441,"<img src=""portrait/BW1.jpg""style=""height:400px;""></img>",0,html-button-response,237,2148569,0.0-16.0-13.0,98695,List2A,black,man,,TRUE,0,,,,,
null,CORRECT,,html-keyboard-response,238,2150073,0.0-16.0-14.0-0.0,98695,List2A,black,man,,,,null,,,,
8406,"<img src=""portrait/WW2.jpg""style=""height:400px;""></img>",3,html-button-response,239,2158485,0.0-16.0-16.0,98695,List2A,black,man,,TRUE,3,,,,,
null,CORRECT,,html-keyboard-response,240,2159989,0.0-16.0-17.0-0.0,98695,List2A,black,man,,,,null,,,,
2870,"<img src=""portrait/WW1.jpg""style=""height:400px;""></img>",1,html-button-response,241,2162865,0.0-16.0-19.0,98695,List2A,black,man,,TRUE,1,,,,,
null,CORRECT,,html-keyboard-response,242,2164368,0.0-16.0-20.0-0.0,98695,List2A,black,man,,,,null,,,,
10508,"<img src=""portrait/WM1.jpg""style=""height:400px;""></img>",6,html-button-response,243,2174887,0.0-16.0-22.0,98695,List2A,black,man,,TRUE,6,,,,,
null,CORRECT,,html-keyboard-response,244,2176396,0.0-16.0-23.0-0.0,98695,List2A,black,man,,,,null,,,,
46401,<p>You got 8 out of 8 right first time. Press Continue.</p>,0,html-button-response,245,2222801,0.0-16.0-25.0,98695,List2A,black,man,,,,,,,,
null,"<div style=""font-size:60px;"">+</div>",,html-keyboard-response,246,2224307,0.0-17.0-0.0,98695,List2A,black,man,,,,null,,,,
null,"<img src=""stim_listA/flirt6.gif""style=""height:400px;""></stim_listA>",,html-keyboard-response,247,2226312,0.0-17.0-1.0,98695,List2A,black,man,,,,null,,,,
null,are flirting with each other,,html-keyboard-response,248,2228314,0.0-17.0-2.0,98695,List2A,black,man,,,,null,,,,
24359,,,survey-text,249,2252676,0.0-17.0-3.0,98695,List2A,black,man,,,,,"{""Q0"":""dave and fred are flirting with each other""}","<img src=""stim_listA/flirt6.gif""style=""height:400px;""></stim_listA>",are flirting with each other,
null,"<div style=""font-size:60px;"">+</div>",,html-keyboard-response,250,2253179,0.0-17.0-0.1,98695,List2A,black,man,,,,null,,,,
null,"<img src=""stim_listA/fight4.gif""style=""height:400px;""></stim_listA>",,html-keyboard-response,251,2255183,0.0-17.0-1.1,98695,List2A,black,man,,,,null,,,,
null,are fighting each other,,html-keyboard-response,252,2257185,0.0-17.0-2.1,98695,List2A,black,man,,,,null,,,,
26962,,,survey-text,253,2284150,0.0-17.0-3.1,98695,List2A,black,man,,,,,"{""Q0"":""beth and fred are fighting each other""}","<img src=""stim_listA/fight4.gif""style=""height:400px;""></stim_listA>",are fighting each other,
null,"<div style=""font-size:60px;"">+</div>",,html-keyboard-response,254,2284665,0.0-17.0-0.2,98695,List2A,black,man,,,,null,,,,
null,"<img src=""stim_listA/talk6.gif""style=""height:400px;""></stim_listA>",,html-keyboard-response,255,2286667,0.0-17.0-1.2,98695,List2A,black,man,,,,null,,,,
null,are talking to each other,,html-keyboard-response,256,2288671,0.0-17.0-2.2,98695,List2A,black,man,,,,null,,,,
22403,,,survey-text,257,2311077,0.0-17.0-3.2,98695,List2A,black,man,,,,,"{""Q0"":""fred and dave are talking to each other""}","<img src=""stim_listA/talk6.gif""style=""height:400px;""></stim_listA>",are talking to each other,
null,"<div style=""font-size:60px;"">+</div>",,html-keyboard-response,258,2311582,0.0-17.0-0.3,98695,List2A,black,man,,,,null,,,,
null,"<img src=""stim_listA/marry5.gif""style=""height:400px;""></stim_listA>",,html-keyboard-response,259,2313585,0.0-17.0-1.3,98695,List2A,black,man,,,,null,,,,
null,is marrying,,html-keyboard-response,260,2315588,0.0-17.0-2.3,98695,List2A,black,man,,,,null,,,,
27231,,,survey-text,261,2342822,0.0-17.0-3.3,98695,List2A,black,man,,,,,"{""Q0"":""fred is marrying dave""}","<img src=""stim_listA/marry5.gif""style=""height:400px;""></stim_listA>",is marrying,
null,"<div style=""font-size:60px;"">+</div>",,html-keyboard-response,262,2343326,0.0-17.0-0.4,98695,List2A,black,man,,,,null,,,,
null,"<img src=""stim_listA/fight7.gif""style=""height:400px;""></stim_listA>",,html-keyboard-response,263,2345343,0.0-17.0-1.4,98695,List2A,black,man,,,,null,,,,
null,is fighting,,html-keyboard-response,264,2347346,0.0-17.0-2.4,98695,List2A,black,man,,,,null,,,,
21415,,,survey-text,265,2368765,0.0-17.0-3.4,98695,List2A,black,man,,,,,"{""Q0"":""jane is fighting kate""}","<img src=""stim_listA/fight7.gif""style=""height:400px;""></stim_listA>",is fighting,
null,"<div style=""font-size:60px;"">+</div>",,html-keyboard-response,266,2369269,0.0-17.0-0.5,98695,List2A,black,man,,,,null,,,,
null,"<img src=""stim_listA/flirt8.gif""style=""height:400px;""></stim_listA>",,html-keyboard-response,267,2371272,0.0-17.0-1.5,98695,List2A,black,man,,,,null,,,,
null,are flirting with each other,,html-keyboard-response,268,2373274,0.0-17.0-2.5,98695,List2A,black,man,,,,null,,,,
23960,,,survey-text,269,2397237,0.0-17.0-3.5,98695,List2A,black,man,,,,,"{""Q0"":""beth and jane are flirting with each other""}","<img src=""stim_listA/flirt8.gif""style=""height:400px;""></stim_listA>",are flirting with each other,
null,"<div style=""font-size:60px;"">+</div>",,html-keyboard-response,270,2397740,0.0-17.0-0.6,98695,List2A,black,man,,,,null,,,,
null,"<img src=""stim_listA/fight5.gif""style=""height:400px;""></stim_listA>",,html-keyboard-response,271,2399743,0.0-17.0-1.6,98695,List2A,black,man,,,,null,,,,
null,is fighting,,html-keyboard-response,272,2401746,0.0-17.0-2.6,98695,List2A,black,man,,,,null,,,,
19137,,,survey-text,273,2420886,0.0-17.0-3.6,98695,List2A,black,man,,,,,"{""Q0"":""mike is fighting dave""}","<img src=""stim_listA/fight5.gif""style=""height:400px;""></stim_listA>",is fighting,
null,"<div style=""font-size:60px;"">+</div>",,html-keyboard-response,274,2421390,0.0-17.0-0.7,98695,List2A,black,man,,,,null,,,,
null,"<img src=""stim_listA/fight2.gif""style=""height:400px;""></stim_listA>",,html-keyboard-response,275,2423393,0.0-17.0-1.7,98695,List2A,black,man,,,,null,,,,
null,are fighting each other,,html-keyboard-response,276,2425396,0.0-17.0-2.7,98695,List2A,black,man,,,,null,,,,
33264,,,survey-text,277,2458664,0.0-17.0-3.7,98695,List2A,black,man,,,,,"{""Q0"":""luke and ruth are fighting each other""}","<img src=""stim_listA/fight2.gif""style=""height:400px;""></stim_listA>",are fighting each other,
null,"<div style=""font-size:60px;"">+</div>",,html-keyboard-response,278,2459167,0.0-17.0-0.8,98695,List2A,black,man,,,,null,,,,
null,"<img src=""stim_listA/marry8.gif""style=""height:400px;""></stim_listA>",,html-keyboard-response,279,2461171,0.0-17.0-1.8,98695,List2A,black,man,,,,null,,,,
null,are marrying each other,,html-keyboard-response,280,2463174,0.0-17.0-2.8,98695,List2A,black,man,,,,null,,,,
22349,,,survey-text,281,2485526,0.0-17.0-3.8,98695,List2A,black,man,,,,,"{""Q0"":""ruth and kate are marrying each other""}","<img src=""stim_listA/marry8.gif""style=""height:400px;""></stim_listA>",are marrying each other,
null,"<div style=""font-size:60px;"">+</div>",,html-keyboard-response,282,2486029,0.0-17.0-0.9,98695,List2A,black,man,,,,null,,,,
null,"<img src=""stim_listA/dance1.gif""style=""height:400px;""></stim_listA>",,html-keyboard-response,283,2488032,0.0-17.0-1.9,98695,List2A,black,man,,,,null,,,,
null,is dancing with,,html-keyboard-response,284,2490035,0.0-17.0-2.9,98695,List2A,black,man,,,,null,,,,
23186,,,survey-text,285,2513224,0.0-17.0-3.9,98695,List2A,black,man,,,,,"{""Q0"":""luke is dancing with jane""}","<img src=""stim_listA/dance1.gif""style=""height:400px;""></stim_listA>",is dancing with,
null,"<div style=""font-size:60px;"">+</div>",,html-keyboard-response,286,2513727,0.0-17.0-0.10,98695,List2A,black,man,,,,null,,,,
null,"<img src=""stim_listA/dance2.gif""style=""height:400px;""></stim_listA>",,html-keyboard-response,287,2515732,0.0-17.0-1.10,98695,List2A,black,man,,,,null,,,,
null,are dancing with each other,,html-keyboard-response,288,2517735,0.0-17.0-2.10,98695,List2A,black,man,,,,null,,,,
29907,,,survey-text,289,2547646,0.0-17.0-3.10,98695,List2A,black,man,,,,,"{""Q0"":""dave and ruth are dancing with each other""}","<img src=""stim_listA/dance2.gif""style=""height:400px;""></stim_listA>",are dancing with each other,
null,"<div style=""font-size:60px;"">+</div>",,html-keyboard-response,290,2548149,0.0-17.0-0.11,98695,List2A,black,man,,,,null,,,,
null,"<img src=""stim_listA/flirt7.gif""style=""height:400px;""></stim_listA>",,html-keyboard-response,291,2550153,0.0-17.0-1.11,98695,List2A,black,man,,,,null,,,,
null,is flirting with,,html-keyboard-response,292,2552156,0.0-17.0-2.11,98695,List2A,black,man,,,,null,,,,
16222,,,survey-text,293,2568381,0.0-17.0-3.11,98695,List2A,black,man,,,,,"{""Q0"":""jane is flirting with kate""}","<img src=""stim_listA/flirt7.gif""style=""height:400px;""></stim_listA>",is flirting with,
null,"<div style=""font-size:60px;"">+</div>",,html-keyboard-response,294,2568885,0.0-17.0-0.12,98695,List2A,black,man,,,,null,,,,
null,"<img src=""stim_listA/fight3.gif""style=""height:400px;""></stim_listA>",,html-keyboard-response,295,2570888,0.0-17.0-1.12,98695,List2A,black,man,,,,null,,,,
null,is fighting,,html-keyboard-response,296,2572891,0.0-17.0-2.12,98695,List2A,black,man,,,,null,,,,
16975,,,survey-text,297,2589869,0.0-17.0-3.12,98695,List2A,black,man,,,,,"{""Q0"":""mike is fighting with kate""}","<img src=""stim_listA/fight3.gif""style=""height:400px;""></stim_listA>",is fighting,
null,"<div style=""font-size:60px;"">+</div>",,html-keyboard-response,298,2590375,0.0-17.0-0.13,98695,List2A,black,man,,,,null,,,,
null,"<img src=""stim_listA/flirt5.gif""style=""height:400px;""></stim_listA>",,html-keyboard-response,299,2592378,0.0-17.0-1.13,98695,List2A,black,man,,,,null,,,,
null,is flirting with,,html-keyboard-response,300,2594382,0.0-17.0-2.13,98695,List2A,black,man,,,,null,,,,
17476,,,survey-text,301,2611861,0.0-17.0-3.13,98695,List2A,black,man,,,,,"{""Q0"":""luke is flirting with mike""}","<img src=""stim_listA/flirt5.gif""style=""height:400px;""></stim_listA>",is flirting with,
null,"<div style=""font-size:60px;"">+</div>",,html-keyboard-response,302,2612365,0.0-17.0-0.14,98695,List2A,black,man,,,,null,,,,
null,"<img src=""stim_listA/kiss4.gif""style=""height:400px;""></stim_listA>",,html-keyboard-response,303,2614368,0.0-17.0-1.14,98695,List2A,black,man,,,,null,,,,
null,are kissing each other,,html-keyboard-response,304,2616371,0.0-17.0-2.14,98695,List2A,black,man,,,,null,,,,
20360,,,survey-text,305,2636734,0.0-17.0-3.14,98695,List2A,black,man,,,,,"{""Q0"":""mike and kate are kissing each other""}","<img src=""stim_listA/kiss4.gif""style=""height:400px;""></stim_listA>",are kissing each other,
null,"<div style=""font-size:60px;"">+</div>",,html-keyboard-response,306,2637240,0.0-17.0-0.15,98695,List2A,black,man,,,,null,,,,
null,"<img src=""stim_listA/play1.gif""style=""height:400px;""></stim_listA>",,html-keyboard-response,307,2639243,0.0-17.0-1.15,98695,List2A,black,man,,,,null,,,,
null,is playing with,,html-keyboard-response,308,2641246,0.0-17.0-2.15,98695,List2A,black,man,,,,null,,,,
19215,,,survey-text,309,2660464,0.0-17.0-3.15,98695,List2A,black,man,,,,,"{""Q0"":""dave is playing with jane""}","<img src=""stim_listA/play1.gif""style=""height:400px;""></stim_listA>",is playing with,
null,"<div style=""font-size:60px;"">+</div>",,html-keyboard-response,310,2660968,0.0-17.0-0.16,98695,List2A,black,man,,,,null,,,,
null,"<img src=""stim_listA/argue1.gif""style=""height:400px;""></stim_listA>",,html-keyboard-response,311,2662971,0.0-17.0-1.16,98695,List2A,black,man,,,,null,,,,
null,is arguing with,,html-keyboard-response,312,2664975,0.0-17.0-2.16,98695,List2A,black,man,,,,null,,,,
22159,,,survey-text,313,2687136,0.0-17.0-3.16,98695,List2A,black,man,,,,,"{""Q0"":""ruth is arguing with dave""}","<img src=""stim_listA/argue1.gif""style=""height:400px;""></stim_listA>",is arguing with,
null,"<div style=""font-size:60px;"">+</div>",,html-keyboard-response,314,2687639,0.0-17.0-0.17,98695,List2A,black,man,,,,null,,,,
null,"<img src=""stim_listA/talk2.gif""style=""height:400px;""></stim_listA>",,html-keyboard-response,315,2689643,0.0-17.0-1.17,98695,List2A,black,man,,,,null,,,,
null,are talking to each other,,html-keyboard-response,316,2691646,0.0-17.0-2.17,98695,List2A,black,man,,,,null,,,,
26375,,,survey-text,317,2718023,0.0-17.0-3.17,98695,List2A,black,man,,,,,"{""Q0"":""dave and ruth are talking to each other""}","<img src=""stim_listA/talk2.gif""style=""height:400px;""></stim_listA>",are talking to each other,
null,"<div style=""font-size:60px;"">+</div>",,html-keyboard-response,318,2718526,0.0-17.0-0.18,98695,List2A,black,man,,,,null,,,,
null,"<img src=""stim_listA/kiss2.gif""style=""height:400px;""></stim_listA>",,html-keyboard-response,319,2720529,0.0-17.0-1.18,98695,List2A,black,man,,,,null,,,,
null,are kissing each other,,html-keyboard-response,320,2722532,0.0-17.0-2.18,98695,List2A,black,man,,,,null,,,,
22752,,,survey-text,321,2745287,0.0-17.0-3.18,98695,List2A,black,man,,,,,"{""Q0"":""dave and jane are kissing each other""}","<img src=""stim_listA/kiss2.gif""style=""height:400px;""></stim_listA>",are kissing each other,
null,"<div style=""font-size:60px;"">+</div>",,html-keyboard-response,322,2745792,0.0-17.0-0.19,98695,List2A,black,man,,,,null,,,,
null,"<img src=""stim_listA/dance4.gif""style=""height:400px;""></stim_listA>",,html-keyboard-response,323,2747796,0.0-17.0-1.19,98695,List2A,black,man,,,,null,,,,
null,are dancing with each other,,html-keyboard-response,324,2749800,0.0-17.0-2.19,98695,List2A,black,man,,,,null,,,,
22029,,,survey-text,325,2771832,0.0-17.0-3.19,98695,List2A,black,man,,,,,"{""Q0"":""mike and beth are talking to each other""}","<img src=""stim_listA/dance4.gif""style=""height:400px;""></stim_listA>",are dancing with each other,
7319,"<img src='img/portrait_matrix_list2.jpg' style='width:900px;height:500px;''></img><p>If you have memorised all the portraits and names and are ready to start, press Continue.</p><p><strong>Please note: Your memory of these faces will be tested 4 times during this experiment.</strong></p>",0,html-button-response,326,2779158,0.0-18.0-0.0,98695,List2A,black,man,,,,,,,,
3918,"<img src=""portrait/WM2.jpg""style=""height:400px;""></img>",7,html-button-response,327,2784085,0.0-18.0-1.0,98695,List2A,black,man,,TRUE,7,,,,,
null,CORRECT,,html-keyboard-response,328,2785590,0.0-18.0-2.0-0.0,98695,List2A,black,man,,,,null,,,,
2361,"<img src=""portrait/BM2.jpg""style=""height:400px;""></img>",5,html-button-response,329,2787956,0.0-18.0-4.0,98695,List2A,black,man,,TRUE,5,,,,,
null,CORRECT,,html-keyboard-response,330,2789460,0.0-18.0-5.0-0.0,98695,List2A,black,man,,,,null,,,,
2676,"<img src=""portrait/WW1.jpg""style=""height:400px;""></img>",1,html-button-response,331,2792142,0.0-18.0-7.0,98695,List2A,black,man,,TRUE,1,,,,,
null,CORRECT,,html-keyboard-response,332,2793647,0.0-18.0-8.0-0.0,98695,List2A,black,man,,,,null,,,,
2481,"<img src=""portrait/BW1.jpg""style=""height:400px;""></img>",0,html-button-response,333,2796132,0.0-18.0-10.0,98695,List2A,black,man,,TRUE,0,,,,,
null,CORRECT,,html-keyboard-response,334,2797638,0.0-18.0-11.0-0.0,98695,List2A,black,man,,,,null,,,,
2321,"<img src=""portrait/BW2.jpg""style=""height:400px;""></img>",3,html-button-response,335,2799964,0.0-18.0-13.0,98695,List2A,black,man,,TRUE,2,,,,,
4139,"<img src=""portrait/BW2.jpg""style=""height:400px;""></img>",2,html-button-response,336,2805108,0.0-18.0-15.0-0.0,98695,List2A,black,man,,FALSE,2,,,,,
null,CORRECT,,html-keyboard-response,337,2806617,0.0-18.0-15.0-1.0-0.0,98695,List2A,black,man,,,,null,,,,
4119,"<img src=""portrait/WM1.jpg""style=""height:400px;""></img>",6,html-button-response,338,2810741,0.0-18.0-16.0,98695,List2A,black,man,,TRUE,6,,,,,
null,CORRECT,,html-keyboard-response,339,2812245,0.0-18.0-17.0-0.0,98695,List2A,black,man,,,,null,,,,
8374,"<img src=""portrait/WW2.jpg""style=""height:400px;""></img>",3,html-button-response,340,2820625,0.0-18.0-19.0,98695,List2A,black,man,,TRUE,3,,,,,
null,CORRECT,,html-keyboard-response,341,2822130,0.0-18.0-20.0-0.0,98695,List2A,black,man,,,,null,,,,
7266,"<img src=""portrait/BM1.jpg""style=""height:400px;""></img>",4,html-button-response,342,2829402,0.0-18.0-22.0,98695,List2A,black,man,,TRUE,4,,,,,
null,CORRECT,,html-keyboard-response,343,2830906,0.0-18.0-23.0-0.0,98695,List2A,black,man,,,,null,,,,
2098,<p>You got 7 out of 8 right first time. Press Continue.</p>,0,html-button-response,344,2833008,0.0-18.0-25.0,98695,List2A,black,man,,,,,,,,
5757,"As you did not score 100%, the memory game will repeat. Press Continue.",0,html-button-response,345,2839771,0.0-18.0-26.0-0.0,98695,List2A,black,man,,,,,,,,
2636,"<img src='img/portrait_matrix_list2.jpg' style='width:900px;height:500px;''></img><p>If you have memorised all the portraits and names and are ready to start, press Continue.</p><p><strong>Please note: Your memory of these faces will be tested 4 times during this experiment.</strong></p>",0,html-button-response,346,2843417,0.0-18.1-0.1,98695,List2A,black,man,,,,,,,,
2505,"<img src=""portrait/WM2.jpg""style=""height:400px;""></img>",7,html-button-response,347,2846936,0.0-18.1-1.1,98695,List2A,black,man,,TRUE,7,,,,,
null,CORRECT,,html-keyboard-response,348,2848441,0.0-18.1-2.1-0.1,98695,List2A,black,man,,,,null,,,,
3171,"<img src=""portrait/BM2.jpg""style=""height:400px;""></img>",5,html-button-response,349,2851616,0.0-18.1-4.1,98695,List2A,black,man,,TRUE,5,,,,,
null,CORRECT,,html-keyboard-response,350,2853121,0.0-18.1-5.1-0.1,98695,List2A,black,man,,,,null,,,,
2375,"<img src=""portrait/WW1.jpg""style=""height:400px;""></img>",1,html-button-response,351,2855501,0.0-18.1-7.1,98695,List2A,black,man,,TRUE,1,,,,,
null,CORRECT,,html-keyboard-response,352,2857005,0.0-18.1-8.1-0.1,98695,List2A,black,man,,,,null,,,,
2526,"<img src=""portrait/BW1.jpg""style=""height:400px;""></img>",0,html-button-response,353,2859535,0.0-18.1-10.1,98695,List2A,black,man,,TRUE,0,,,,,
null,CORRECT,,html-keyboard-response,354,2861039,0.0-18.1-11.1-0.1,98695,List2A,black,man,,,,null,,,,
8178,"<img src=""portrait/BW2.jpg""style=""height:400px;""></img>",2,html-button-response,355,2869225,0.0-18.1-13.1,98695,List2A,black,man,,TRUE,2,,,,,
null,CORRECT,,html-keyboard-response,356,2870730,0.0-18.1-14.1-0.1,98695,List2A,black,man,,,,null,,,,
9665,"<img src=""portrait/WM1.jpg""style=""height:400px;""></img>",6,html-button-response,357,2880401,0.0-18.1-16.1,98695,List2A,black,man,,TRUE,6,,,,,
null,CORRECT,,html-keyboard-response,358,2881905,0.0-18.1-17.1-0.1,98695,List2A,black,man,,,,null,,,,
6822,"<img src=""portrait/WW2.jpg""style=""height:400px;""></img>",3,html-button-response,359,2888733,0.0-18.1-19.1,98695,List2A,black,man,,TRUE,3,,,,,
null,CORRECT,,html-keyboard-response,360,2890241,0.0-18.1-20.1-0.1,98695,List2A,black,man,,,,null,,,,
7241,"<img src=""portrait/BM1.jpg""style=""height:400px;""></img>",4,html-button-response,361,2897487,0.0-18.1-22.1,98695,List2A,black,man,,TRUE,4,,,,,
null,CORRECT,,html-keyboard-response,362,2898994,0.0-18.1-23.1-0.1,98695,List2A,black,man,,,,null,,,,
1950,<p>You got 8 out of 8 right first time. Press Continue.</p>,0,html-button-response,363,2900948,0.0-18.1-25.1,98695,List2A,black,man,,,,,,,,
null,"<div style=""font-size:60px;"">+</div>",,html-keyboard-response,364,2902453,0.0-19.0-0.0,98695,List2A,black,man,,,,null,,,,
null,"<img src=""stim_listA/touch5.gif""style=""height:400px;""></stim_listA>",,html-keyboard-response,365,2904456,0.0-19.0-1.0,98695,List2A,black,man,,,,null,,,,
null,is touching,,html-keyboard-response,366,2906458,0.0-19.0-2.0,98695,List2A,black,man,,,,null,,,,
22799,,,survey-text,367,2929260,0.0-19.0-3.0,98695,List2A,black,man,,,,,"{""Q0"":""mike is touching dave""}","<img src=""stim_listA/touch5.gif""style=""height:400px;""></stim_listA>",is touching,
null,"<div style=""font-size:60px;"">+</div>",,html-keyboard-response,368,2929763,0.0-19.0-0.1,98695,List2A,black,man,,,,null,,,,
null,"<img src=""stim_listA/shout2.gif""style=""height:400px;""></stim_listA>",,html-keyboard-response,369,2931766,0.0-19.0-1.1,98695,List2A,black,man,,,,null,,,,
null,are shouting at each other,,html-keyboard-response,370,2933769,0.0-19.0-2.1,98695,List2A,black,man,,,,null,,,,
25679,,,survey-text,371,2959451,0.0-19.0-3.1,98695,List2A,black,man,,,,,"{""Q0"":""jane and dave are shouting at each other""}","<img src=""stim_listA/shout2.gif""style=""height:400px;""></stim_listA>",are shouting at each other,
null,"<div style=""font-size:60px;"">+</div>",,html-keyboard-response,372,2959960,0.0-19.0-0.2,98695,List2A,black,man,,,,null,,,,
null,"<img src=""stim_listA/argue8.gif""style=""height:400px;""></stim_listA>",,html-keyboard-response,373,2961964,0.0-19.0-1.2,98695,List2A,black,man,,,,null,,,,
null,are arguing with each other,,html-keyboard-response,374,2963967,0.0-19.0-2.2,98695,List2A,black,man,,,,null,,,,
34657,,,survey-text,375,2998626,0.0-19.0-3.2,98695,List2A,black,man,,,,,"{""Q0"":""ruth and kate are arguing with each other""}","<img src=""stim_listA/argue8.gif""style=""height:400px;""></stim_listA>",are arguing with each other,
null,"<div style=""font-size:60px;"">+</div>",,html-keyboard-response,376,2999131,0.0-19.0-0.3,98695,List2A,black,man,,,,null,,,,
null,"<img src=""stim_listA/touch4.gif""style=""height:400px;""></stim_listA>",,html-keyboard-response,377,3001134,0.0-19.0-1.3,98695,List2A,black,man,,,,null,,,,
null,are touching each other,,html-keyboard-response,378,3003137,0.0-19.0-2.3,98695,List2A,black,man,,,,null,,,,
16988,,,survey-text,379,3020127,0.0-19.0-3.3,98695,List2A,black,man,,,,,"{""Q0"":""fred and beth are touching each other""}","<img src=""stim_listA/touch4.gif""style=""height:400px;""></stim_listA>",are touching each other,
null,"<div style=""font-size:60px;"">+</div>",,html-keyboard-response,380,3020631,0.0-19.0-0.4,98695,List2A,black,man,,,,null,,,,
null,"<img src=""stim_listA/play2.gif""style=""height:400px;""></stim_listA>",,html-keyboard-response,381,3022635,0.0-19.0-1.4,98695,List2A,black,man,,,,null,,,,
null,are playing with each other,,html-keyboard-response,382,3024637,0.0-19.0-2.4,98695,List2A,black,man,,,,null,,,,
19210,,,survey-text,383,3043851,0.0-19.0-3.4,98695,List2A,black,man,,,,,"{""Q0"":""luke and ruth are playing with each other""}","<img src=""stim_listA/play2.gif""style=""height:400px;""></stim_listA>",are playing with each other,
null,"<div style=""font-size:60px;"">+</div>",,html-keyboard-response,384,3044357,0.0-19.0-0.5,98695,List2A,black,man,,,,null,,,,
null,"<img src=""stim_listA/argue3.gif""style=""height:400px;""></stim_listA>",,html-keyboard-response,385,3046360,0.0-19.0-1.5,98695,List2A,black,man,,,,null,,,,
null,is arguing with,,html-keyboard-response,386,3048362,0.0-19.0-2.5,98695,List2A,black,man,,,,null,,,,
12004,,,survey-text,387,3060369,0.0-19.0-3.5,98695,List2A,black,man,,,,,"{""Q0"":""beth is arguing with mike""}","<img src=""stim_listA/argue3.gif""style=""height:400px;""></stim_listA>",is arguing with,
null,"<div style=""font-size:60px;"">+</div>",,html-keyboard-response,388,3060874,0.0-19.0-0.6,98695,List2A,black,man,,,,null,,,,
null,"<img src=""stim_listA/dance6.gif""style=""height:400px;""></stim_listA>",,html-keyboard-response,389,3062877,0.0-19.0-1.6,98695,List2A,black,man,,,,null,,,,
null,are dancing with each other,,html-keyboard-response,390,3064880,0.0-19.0-2.6,98695,List2A,black,man,,,,null,,,,
16488,,,survey-text,391,3081371,0.0-19.0-3.6,98695,List2A,black,man,,,,,"{""Q0"":""dave and fred are dancing with each other""}","<img src=""stim_listA/dance6.gif""style=""height:400px;""></stim_listA>",are dancing with each other,
null,"<div style=""font-size:60px;"">+</div>",,html-keyboard-response,392,3081875,0.0-19.0-0.7,98695,List2A,black,man,,,,null,,,,
null,"<img src=""stim_listA/kiss1.gif""style=""height:400px;""></stim_listA>",,html-keyboard-response,393,3083879,0.0-19.0-1.7,98695,List2A,black,man,,,,null,,,,
null,is kissing,,html-keyboard-response,394,3085883,0.0-19.0-2.7,98695,List2A,black,man,,,,null,,,,
10991,,,survey-text,395,3096876,0.0-19.0-3.7,98695,List2A,black,man,,,,,"{""Q0"":""luke is kissing ruth""}","<img src=""stim_listA/kiss1.gif""style=""height:400px;""></stim_listA>",is kissing,
null,"<div style=""font-size:60px;"">+</div>",,html-keyboard-response,396,3097382,0.0-19.0-0.8,98695,List2A,black,man,,,,null,,,,
null,"<img src=""stim_listA/marry6.gif""style=""height:400px;""></stim_listA>",,html-keyboard-response,397,3099386,0.0-19.0-1.8,98695,List2A,black,man,,,,null,,,,
null,are marrying each other,,html-keyboard-response,398,3101389,0.0-19.0-2.8,98695,List2A,black,man,,,,null,,,,
17241,,,survey-text,399,3118634,0.0-19.0-3.8,98695,List2A,black,man,,,,,"{""Q0"":""mike and luke are marrying each other""}","<img src=""stim_listA/marry6.gif""style=""height:400px;""></stim_listA>",are marrying each other,
null,"<div style=""font-size:60px;"">+</div>",,html-keyboard-response,400,3119138,0.0-19.0-0.9,98695,List2A,black,man,,,,null,,,,
null,"<img src=""stim_listA/shout4.gif""style=""height:400px;""></stim_listA>",,html-keyboard-response,401,3121142,0.0-19.0-1.9,98695,List2A,black,man,,,,null,,,,
null,are shouting at each other,,html-keyboard-response,402,3123150,0.0-19.0-2.9,98695,List2A,black,man,,,,null,,,,
25454,,,survey-text,403,3148607,0.0-19.0-3.9,98695,List2A,black,man,,,,,"{""Q0"":""mike andkate are shouting at each other""}","<img src=""stim_listA/shout4.gif""style=""height:400px;""></stim_listA>",are shouting at each other,
null,"<div style=""font-size:60px;"">+</div>",,html-keyboard-response,404,3149111,0.0-19.0-0.10,98695,List2A,black,man,,,,null,,,,
null,"<img src=""stim_listA/flirt4.gif""style=""height:400px;""></stim_listA>",,html-keyboard-response,405,3151115,0.0-19.0-1.10,98695,List2A,black,man,,,,null,,,,
null,are flirting with each other,,html-keyboard-response,406,3153117,0.0-19.0-2.10,98695,List2A,black,man,,,,null,,,,
16649,,,survey-text,407,3169769,0.0-19.0-3.10,98695,List2A,black,man,,,,,"{""Q0"":""mike and beth are flirting with each other""}","<img src=""stim_listA/flirt4.gif""style=""height:400px;""></stim_listA>",are flirting with each other,
null,"<div style=""font-size:60px;"">+</div>",,html-keyboard-response,408,3170274,0.0-19.0-0.11,98695,List2A,black,man,,,,null,,,,
null,"<img src=""stim_listA/shout6.gif""style=""height:400px;""></stim_listA>",,html-keyboard-response,409,3172277,0.0-19.0-1.11,98695,List2A,black,man,,,,null,,,,
null,are shouting at each other,,html-keyboard-response,410,3174280,0.0-19.0-2.11,98695,List2A,black,man,,,,null,,,,
17969,,,survey-text,411,3192251,0.0-19.0-3.11,98695,List2A,black,man,,,,,"{""Q0"":""dave and mike are shouting at each other""}","<img src=""stim_listA/shout6.gif""style=""height:400px;""></stim_listA>",are shouting at each other,
null,"<div style=""font-size:60px;"">+</div>",,html-keyboard-response,412,3192755,0.0-19.0-0.12,98695,List2A,black,man,,,,null,,,,
null,"<img src=""stim_listA/play3.gif""style=""height:400px;""></stim_listA>",,html-keyboard-response,413,3194759,0.0-19.0-1.12,98695,List2A,black,man,,,,null,,,,
null,is playing with,,html-keyboard-response,414,3196761,0.0-19.0-2.12,98695,List2A,black,man,,,,null,,,,
16423,,,survey-text,415,3213188,0.0-19.0-3.12,98695,List2A,black,man,,,,,"{""Q0"":""mike is playing with kate""}","<img src=""stim_listA/play3.gif""style=""height:400px;""></stim_listA>",is playing with,
null,"<div style=""font-size:60px;"">+</div>",,html-keyboard-response,416,3213692,0.0-19.0-0.13,98695,List2A,black,man,,,,null,,,,
null,"<img src=""stim_listA/talk4.gif""style=""height:400px;""></stim_listA>",,html-keyboard-response,417,3215696,0.0-19.0-1.13,98695,List2A,black,man,,,,null,,,,
null,are talking to each other,,html-keyboard-response,418,3217700,0.0-19.0-2.13,98695,List2A,black,man,,,,null,,,,
15656,,,survey-text,419,3233360,0.0-19.0-3.13,98695,List2A,black,man,,,,,"{""Q0"":""beth and mike are talking to each other""}","<img src=""stim_listA/talk4.gif""style=""height:400px;""></stim_listA>",are talking to each other,
null,"<div style=""font-size:60px;"">+</div>",,html-keyboard-response,420,3233864,0.0-19.0-0.14,98695,List2A,black,man,,,,null,,,,
null,"<img src=""stim_listA/fight6.gif""style=""height:400px;""></stim_listA>",,html-keyboard-response,421,3235869,0.0-19.0-1.14,98695,List2A,black,man,,,,null,,,,
null,are fighting each other,,html-keyboard-response,422,3237871,0.0-19.0-2.14,98695,List2A,black,man,,,,null,,,,
18788,,,survey-text,423,3256663,0.0-19.0-3.14,98695,List2A,black,man,,,,,"{""Q0"":""luke and fred are fighting each other""}","<img src=""stim_listA/fight6.gif""style=""height:400px;""></stim_listA>",are fighting each other,
null,"<div style=""font-size:60px;"">+</div>",,html-keyboard-response,424,3257167,0.0-19.0-0.15,98695,List2A,black,man,,,,null,,,,
null,"<img src=""stim_listA/kiss3.gif""style=""height:400px;""></stim_listA>",,html-keyboard-response,425,3259171,0.0-19.0-1.15,98695,List2A,black,man,,,,null,,,,
null,is kissing,,html-keyboard-response,426,3261174,0.0-19.0-2.15,98695,List2A,black,man,,,,null,,,,
16788,,,survey-text,427,3277965,0.0-19.0-3.15,98695,List2A,black,man,,,,,"{""Q0"":""beth is kissing fred""}","<img src=""stim_listA/kiss3.gif""style=""height:400px;""></stim_listA>",is kissing,
null,"<div style=""font-size:60px;"">+</div>",,html-keyboard-response,428,3278468,0.0-19.0-0.16,98695,List2A,black,man,,,,null,,,,
null,"<img src=""stim_listA/shout8.gif""style=""height:400px;""></stim_listA>",,html-keyboard-response,429,3280472,0.0-19.0-1.16,98695,List2A,black,man,,,,null,,,,
null,are shouting at each other,,html-keyboard-response,430,3282474,0.0-19.0-2.16,98695,List2A,black,man,,,,null,,,,
17986,,,survey-text,431,3300462,0.0-19.0-3.16,98695,List2A,black,man,,,,,"{""Q0"":""jane and kate are shouting at each other""}","<img src=""stim_listA/shout8.gif""style=""height:400px;""></stim_listA>",are shouting at each other,
null,"<div style=""font-size:60px;"">+</div>",,html-keyboard-response,432,3300967,0.0-19.0-0.17,98695,List2A,black,man,,,,null,,,,
null,"<img src=""stim_listA/shout1.gif""style=""height:400px;""></stim_listA>",,html-keyboard-response,433,3302971,0.0-19.0-1.17,98695,List2A,black,man,,,,null,,,,
null,is shouting at,,html-keyboard-response,434,3304974,0.0-19.0-2.17,98695,List2A,black,man,,,,null,,,,
14962,,,survey-text,435,3319940,0.0-19.0-3.17,98695,List2A,black,man,,,,,"{""Q0"":""ruth is shouting at luke""}","<img src=""stim_listA/shout1.gif""style=""height:400px;""></stim_listA>",is shouting at,
null,"<div style=""font-size:60px;"">+</div>",,html-keyboard-response,436,3320443,0.0-19.0-0.18,98695,List2A,black,man,,,,null,,,,
null,"<img src=""stim_listA/dance8.gif""style=""height:400px;""></stim_listA>",,html-keyboard-response,437,3322447,0.0-19.0-1.18,98695,List2A,black,man,,,,null,,,,
null,are dancing with each other,,html-keyboard-response,438,3324449,0.0-19.0-2.18,98695,List2A,black,man,,,,null,,,,
21359,,,survey-text,439,3345810,0.0-19.0-3.18,98695,List2A,black,man,,,,,"{""Q0"":""beth and jane are dancing with each other""}","<img src=""stim_listA/dance8.gif""style=""height:400px;""></stim_listA>",are dancing with each other,
null,"<div style=""font-size:60px;"">+</div>",,html-keyboard-response,440,3346316,0.0-19.0-0.19,98695,List2A,black,man,,,,null,,,,
null,"<img src=""stim_listA/talk1.gif""style=""height:400px;""></stim_listA>",,html-keyboard-response,441,3348318,0.0-19.0-1.19,98695,List2A,black,man,,,,null,,,,
null,is talking to,,html-keyboard-response,442,3350321,0.0-19.0-2.19,98695,List2A,black,man,,,,null,,,,
9479,,,survey-text,443,3359802,0.0-19.0-3.19,98695,List2A,black,man,,,,,"{""Q0"":""luke is talking to jane""}","<img src=""stim_listA/talk1.gif""style=""height:400px;""></stim_listA>",is talking to,
4696,<p>Thank you for completing that task.</p><p>The final part of this session is a short questionnaire.</p><p>Press Continue.</p>,0,html-button-response,444,3364505,0.0-20.0,98695,List2A,black,man,,,,,,,,
40321,,,survey-text,445,3405835,0.0-21.0,98695,List2A,black,man,,,,,"{""Q0"":""38"",""Q1"":""english"",""Q2"":""english"",""Q3"":""united kingdom"",""Q4"":""black"",""Q5"":""male""}",,,demographics
9152,,,survey-likert,446,3415002,0.0-22.0,98695,List2A,black,man,,,,,"{""Q0"":0}",,,likert_ESS
8894,,,survey-likert,447,3423908,0.0-23.0,98695,List2A,black,man,,,,,"{""Q0"":4}",,,likert_NSSAL_Q1
7116,,,survey-likert,448,3431035,0.0-24.0,98695,List2A,black,man,,,,,"{""Q0"":4}",,,likert_NSSAL_Q2
6073,,,survey-likert,449,3437116,0.0-25.0,98695,List2A,black,man,,,,,"{""Q0"":4}",,,likert_CGRS_Q1
6354,,,survey-likert,450,3443478,0.0-26.0,98695,List2A,black,man,,,,,"{""Q0"":3}",,,likert_CGRS_Q2
6845,,,survey-likert,451,3450333,0.0-27.0,98695,List2A,black,man,,,,,"{""Q0"":2}",,,likert_CGRS_Q3
22486,,,survey-text,452,3472827,0.0-28.0,98695,List2A,black,man,,,,,"{""Q0"":""ccc""}",,,worker_id
50908,,,external-html,453,3523832,0.0-29.0,98695,List2A,black,man,debrief.html,,,,,,,
