rt,stimulus,button_pressed,trial_type,trial_index,time_elapsed,internal_node_id,subject,list,ppt_race,ppt_gender,url,first_guess,correct,key_press,responses,image_type,phrase_type,test_part
2117,Welcome to the experiment. Press Continue to begin.,0,html-button-response,0,2122,0.0-0.0,98787,List2A,black,man,,,,,,,,
40120,,,external-html,1,43366,0.0-1.0,98787,List2A,black,man,consent.html,,,,,,,
12513,"<p>On the next page, you will see portraits of 8 people and their names.</p><p>Your first task is to take a few minutes to memorise the names of these people.</p><p>You will have to recall their names during the rest of the experiment, so it is</p><p>essential that you try to memorise these people and their names as best as you can.</p><br><p><strong>You will then be tested on your memory of these names and portraits.</strong></p><br><p>The experiment will start after you have completed this memory test.</p><br><p>Ready?</p>",0,html-button-response,2,55882,0.0-2.0,98787,List2A,black,man,,,,,,,,
189544,"<img src='img/portrait_matrix_list2.jpg' style='width:900px;height:500px;''></img><p>If you have memorised all the portraits and names and are ready to start, press Continue.</p><p><strong>Please note: Your memory of these faces will be tested 4 times during this experiment.</strong></p>",0,html-button-response,3,246429,0.0-3.0-0.0,98787,List2A,black,man,,,,,,,,
5416,"<img src=""portrait/BM2.jpg""style=""height:400px;""></img>",5,html-button-response,4,252849,0.0-3.0-1.0,98787,List2A,black,man,,TRUE,5,,,,,
null,CORRECT,,html-keyboard-response,5,254355,0.0-3.0-2.0-0.0,98787,List2A,black,man,,,,null,,,,
3050,"<img src=""portrait/BW1.jpg""style=""height:400px;""></img>",0,html-button-response,6,257409,0.0-3.0-4.0,98787,List2A,black,man,,TRUE,0,,,,,
null,CORRECT,,html-keyboard-response,7,258912,0.0-3.0-5.0-0.0,98787,List2A,black,man,,,,null,,,,
2290,"<img src=""portrait/BM1.jpg""style=""height:400px;""></img>",4,html-button-response,8,261204,0.0-3.0-7.0,98787,List2A,black,man,,TRUE,4,,,,,
null,CORRECT,,html-keyboard-response,9,262706,0.0-3.0-8.0-0.0,98787,List2A,black,man,,,,null,,,,
4536,"<img src=""portrait/WM2.jpg""style=""height:400px;""></img>",7,html-button-response,10,267244,0.0-3.0-10.0,98787,List2A,black,man,,TRUE,7,,,,,
null,CORRECT,,html-keyboard-response,11,268746,0.0-3.0-11.0-0.0,98787,List2A,black,man,,,,null,,,,
3378,"<img src=""portrait/WW2.jpg""style=""height:400px;""></img>",3,html-button-response,12,272127,0.0-3.0-13.0,98787,List2A,black,man,,TRUE,3,,,,,
null,CORRECT,,html-keyboard-response,13,273629,0.0-3.0-14.0-0.0,98787,List2A,black,man,,,,null,,,,
10825,"<img src=""portrait/WW1.jpg""style=""height:400px;""></img>",1,html-button-response,14,284456,0.0-3.0-16.0,98787,List2A,black,man,,TRUE,1,,,,,
null,CORRECT,,html-keyboard-response,15,285958,0.0-3.0-17.0-0.0,98787,List2A,black,man,,,,null,,,,
6842,"<img src=""portrait/BW2.jpg""style=""height:400px;""></img>",2,html-button-response,16,292803,0.0-3.0-19.0,98787,List2A,black,man,,TRUE,2,,,,,
null,CORRECT,,html-keyboard-response,17,294305,0.0-3.0-20.0-0.0,98787,List2A,black,man,,,,null,,,,
4947,"<img src=""portrait/WM1.jpg""style=""height:400px;""></img>",6,html-button-response,18,299255,0.0-3.0-22.0,98787,List2A,black,man,,TRUE,6,,,,,
null,CORRECT,,html-keyboard-response,19,300757,0.0-3.0-23.0-0.0,98787,List2A,black,man,,,,null,,,,
2086,<p>You got 8 out of 8 right first time. Press Continue.</p>,0,html-button-response,20,302845,0.0-3.0-25.0,98787,List2A,black,man,,,,,,,,
56174,"<p>In this experiment, you will view photographs of the people from the memory game interacting.</p><p>By using the <strong>exact</strong> phrase given <i>after</i> the photograph appears and recalling the correct names of the people in the photographs, form a sentence describing the interaction. You do not need to capitalise names.</p><p>Type your answer in the space provided. Please complete every sentence before moving onto the next trial.</p><p>You will only have a few seconds to memorise each given photograph and phrase before you can respond, so try your best to focus.</p><p>An example is given below. Press 'Continue' when you are ready.</p><img src='img/speaking_example.jpg' style='width:800px;height:460px;''></img>",0,html-button-response,21,360023,0.0-4.0,98787,List2A,black,man,,,,,,,,
4366,"<p>Before the experiment starts, you will watch two example trials. Press 'Continue'.</p>",0,html-button-response,22,365391,0.0-5.0,98787,List2A,black,man,,,,,,,,
null,<img src='img/meet_eg.gif' style='height:400px;''></img>,,html-keyboard-response,23,368394,0.0-6.0,98787,List2A,black,man,,,,null,,,,
null,<p>is meeting</p>,,html-keyboard-response,24,370396,0.0-7.0,98787,List2A,black,man,,,,null,,,,
8559,<p><b>Answer:</b> jane is meeting ruth</p>,0,html-button-response,25,378956,0.0-8.0,98787,List2A,black,man,,,,,,,,
null,<img src='img/look_eg.gif' style='height:400px;''></img>,,html-keyboard-response,26,381959,0.0-9.0,98787,List2A,black,man,,,,null,,,,
null,<p>are looking at each other</p>,,html-keyboard-response,27,383961,0.0-10.0,98787,List2A,black,man,,,,null,,,,
9817,<p><b>Answer:</b> fred and mike are looking at each other</p>,0,html-button-response,28,393778,0.0-11.0,98787,List2A,black,man,,,,,,,,
10236,"<p>Ready to start the experiment?</p><br><p><strong>Remember to describe the picture using a full sentence,</strong></p><p><strong>that combines the names of the people with the <i>exact</i> phrase given.</strong></p><p><strong>To receive full payment you must do this correctly.</strong></p><p><strong> You do not need to capitalise names or use punctuation.</strong></p><br><p>Press 'Continue' to begin.</p>",0,html-button-response,29,405017,0.0-12.0,98787,List2A,black,man,,,,,,,,
null,"<div style=""font-size:60px;"">+</div>",,html-keyboard-response,30,406520,0.0-13.0-0.0,98787,List2A,black,man,,,,null,,,,
null,"<img src=""stim_listA/marry5.gif""style=""height:400px;""></stim_listA>",,html-keyboard-response,31,408522,0.0-13.0-1.0,98787,List2A,black,man,,,,null,,,,
null,is marrying,,html-keyboard-response,32,410524,0.0-13.0-2.0,98787,List2A,black,man,,,,null,,,,
25180,,,survey-text,33,435707,0.0-13.0-3.0,98787,List2A,black,man,,,,,"{""Q0"":""Dave is marrying Fred""}","<img src=""stim_listA/marry5.gif""style=""height:400px;""></stim_listA>",is marrying,
null,"<div style=""font-size:60px;"">+</div>",,html-keyboard-response,34,436211,0.0-13.0-0.1,98787,List2A,black,man,,,,null,,,,
null,"<img src=""stim_listA/marry4.gif""style=""height:400px;""></stim_listA>",,html-keyboard-response,35,438213,0.0-13.0-1.1,98787,List2A,black,man,,,,null,,,,
null,are marrying each other,,html-keyboard-response,36,440214,0.0-13.0-2.1,98787,List2A,black,man,,,,null,,,,
26761,,,survey-text,37,466977,0.0-13.0-3.1,98787,List2A,black,man,,,,,"{""Q0"":""Fred and Kate are marrying each other.""}","<img src=""stim_listA/marry4.gif""style=""height:400px;""></stim_listA>",are marrying each other,
null,"<div style=""font-size:60px;"">+</div>",,html-keyboard-response,38,467479,0.0-13.0-0.2,98787,List2A,black,man,,,,null,,,,
null,"<img src=""stim_listA/talk5.gif""style=""height:400px;""></stim_listA>",,html-keyboard-response,39,469481,0.0-13.0-1.2,98787,List2A,black,man,,,,null,,,,
null,is talking to,,html-keyboard-response,40,471482,0.0-13.0-2.2,98787,List2A,black,man,,,,null,,,,
20508,,,survey-text,41,491992,0.0-13.0-3.2,98787,List2A,black,man,,,,,"{""Q0"":""Luke and Mike are talking to each other.""}","<img src=""stim_listA/talk5.gif""style=""height:400px;""></stim_listA>",is talking to,
null,"<div style=""font-size:60px;"">+</div>",,html-keyboard-response,42,492494,0.0-13.0-0.3,98787,List2A,black,man,,,,null,,,,
null,"<img src=""stim_listA/argue6.gif""style=""height:400px;""></stim_listA>",,html-keyboard-response,43,494496,0.0-13.0-1.3,98787,List2A,black,man,,,,null,,,,
null,are arguing with each other,,html-keyboard-response,44,496497,0.0-13.0-2.3,98787,List2A,black,man,,,,null,,,,
14770,,,survey-text,45,511270,0.0-13.0-3.3,98787,List2A,black,man,,,,,"{""Q0"":""Luke and Mike are arguing with each other.""}","<img src=""stim_listA/argue6.gif""style=""height:400px;""></stim_listA>",are arguing with each other,
null,"<div style=""font-size:60px;"">+</div>",,html-keyboard-response,46,511773,0.0-13.0-0.4,98787,List2A,black,man,,,,null,,,,
null,"<img src=""stim_listA/fight7.gif""style=""height:400px;""></stim_listA>",,html-keyboard-response,47,513774,0.0-13.0-1.4,98787,List2A,black,man,,,,null,,,,
null,is fighting,,html-keyboard-response,48,515776,0.0-13.0-2.4,98787,List2A,black,man,,,,null,,,,
11957,,,survey-text,49,527734,0.0-13.0-3.4,98787,List2A,black,man,,,,,"{""Q0"":""Kate is fighting Jane""}","<img src=""stim_listA/fight7.gif""style=""height:400px;""></stim_listA>",is fighting,
null,"<div style=""font-size:60px;"">+</div>",,html-keyboard-response,50,528236,0.0-13.0-0.5,98787,List2A,black,man,,,,null,,,,
null,"<img src=""stim_listA/kiss3.gif""style=""height:400px;""></stim_listA>",,html-keyboard-response,51,530238,0.0-13.0-1.5,98787,List2A,black,man,,,,null,,,,
null,is kissing,,html-keyboard-response,52,532239,0.0-13.0-2.5,98787,List2A,black,man,,,,null,,,,
16939,,,survey-text,53,549180,0.0-13.0-3.5,98787,List2A,black,man,,,,,"{""Q0"":""Beth is kissing Fred""}","<img src=""stim_listA/kiss3.gif""style=""height:400px;""></stim_listA>",is kissing,
null,"<div style=""font-size:60px;"">+</div>",,html-keyboard-response,54,549682,0.0-13.0-0.6,98787,List2A,black,man,,,,null,,,,
null,"<img src=""stim_listA/dance5.gif""style=""height:400px;""></stim_listA>",,html-keyboard-response,55,551683,0.0-13.0-1.6,98787,List2A,black,man,,,,null,,,,
null,is dancing with,,html-keyboard-response,56,553684,0.0-13.0-2.6,98787,List2A,black,man,,,,null,,,,
9197,,,survey-text,57,562883,0.0-13.0-3.6,98787,List2A,black,man,,,,,"{""Q0"":""Mike is dancing with Mike""}","<img src=""stim_listA/dance5.gif""style=""height:400px;""></stim_listA>",is dancing with,
null,"<div style=""font-size:60px;"">+</div>",,html-keyboard-response,58,563385,0.0-13.0-0.7,98787,List2A,black,man,,,,null,,,,
null,"<img src=""stim_listA/flirt6.gif""style=""height:400px;""></stim_listA>",,html-keyboard-response,59,565387,0.0-13.0-1.7,98787,List2A,black,man,,,,null,,,,
null,are flirting with each other,,html-keyboard-response,60,567388,0.0-13.0-2.7,98787,List2A,black,man,,,,null,,,,
15453,,,survey-text,61,582842,0.0-13.0-3.7,98787,List2A,black,man,,,,,"{""Q0"":""Dave is flirting with Fred""}","<img src=""stim_listA/flirt6.gif""style=""height:400px;""></stim_listA>",are flirting with each other,
null,"<div style=""font-size:60px;"">+</div>",,html-keyboard-response,62,583345,0.0-13.0-0.8,98787,List2A,black,man,,,,null,,,,
null,"<img src=""stim_listA/flirt8.gif""style=""height:400px;""></stim_listA>",,html-keyboard-response,63,585347,0.0-13.0-1.8,98787,List2A,black,man,,,,null,,,,
null,are flirting with each other,,html-keyboard-response,64,587349,0.0-13.0-2.8,98787,List2A,black,man,,,,null,,,,
17503,,,survey-text,65,604854,0.0-13.0-3.8,98787,List2A,black,man,,,,,"{""Q0"":""Beth and Jane are flirting with each other""}","<img src=""stim_listA/flirt8.gif""style=""height:400px;""></stim_listA>",are flirting with each other,
null,"<div style=""font-size:60px;"">+</div>",,html-keyboard-response,66,605356,0.0-13.0-0.9,98787,List2A,black,man,,,,null,,,,
null,"<img src=""stim_listA/kiss6.gif""style=""height:400px;""></stim_listA>",,html-keyboard-response,67,607358,0.0-13.0-1.9,98787,List2A,black,man,,,,null,,,,
null,are kissing each other,,html-keyboard-response,68,609359,0.0-13.0-2.9,98787,List2A,black,man,,,,null,,,,
16740,,,survey-text,69,626101,0.0-13.0-3.9,98787,List2A,black,man,,,,,"{""Q0"":""Dave is kissing Mike""}","<img src=""stim_listA/kiss6.gif""style=""height:400px;""></stim_listA>",are kissing each other,
null,"<div style=""font-size:60px;"">+</div>",,html-keyboard-response,70,626603,0.0-13.0-0.10,98787,List2A,black,man,,,,null,,,,
null,"<img src=""stim_listA/touch3.gif""style=""height:400px;""></stim_listA>",,html-keyboard-response,71,628605,0.0-13.0-1.10,98787,List2A,black,man,,,,null,,,,
null,is touching,,html-keyboard-response,72,630606,0.0-13.0-2.10,98787,List2A,black,man,,,,null,,,,
12958,,,survey-text,73,643566,0.0-13.0-3.10,98787,List2A,black,man,,,,,"{""Q0"":""Kate is touching Mike ""}","<img src=""stim_listA/touch3.gif""style=""height:400px;""></stim_listA>",is touching,
null,"<div style=""font-size:60px;"">+</div>",,html-keyboard-response,74,644068,0.0-13.0-0.11,98787,List2A,black,man,,,,null,,,,
null,"<img src=""stim_listA/play5.gif""style=""height:400px;""></stim_listA>",,html-keyboard-response,75,646070,0.0-13.0-1.11,98787,List2A,black,man,,,,null,,,,
null,is playing with,,html-keyboard-response,76,648072,0.0-13.0-2.11,98787,List2A,black,man,,,,null,,,,
51765,,,survey-text,77,699838,0.0-13.0-3.11,98787,List2A,black,man,,,,,"{""Q0"":""Mike is playing with Dave""}","<img src=""stim_listA/play5.gif""style=""height:400px;""></stim_listA>",is playing with,
null,"<div style=""font-size:60px;"">+</div>",,html-keyboard-response,78,700341,0.0-13.0-0.12,98787,List2A,black,man,,,,null,,,,
null,"<img src=""stim_listA/marry7.gif""style=""height:400px;""></stim_listA>",,html-keyboard-response,79,702343,0.0-13.0-1.12,98787,List2A,black,man,,,,null,,,,
null,is marrying,,html-keyboard-response,80,704345,0.0-13.0-2.12,98787,List2A,black,man,,,,null,,,,
8973,,,survey-text,81,713320,0.0-13.0-3.12,98787,List2A,black,man,,,,,"{""Q0"":""Beth is marrying Jane""}","<img src=""stim_listA/marry7.gif""style=""height:400px;""></stim_listA>",is marrying,
null,"<div style=""font-size:60px;"">+</div>",,html-keyboard-response,82,713823,0.0-13.0-0.13,98787,List2A,black,man,,,,null,,,,
null,"<img src=""stim_listA/kiss7.gif""style=""height:400px;""></stim_listA>",,html-keyboard-response,83,715825,0.0-13.0-1.13,98787,List2A,black,man,,,,null,,,,
null,is kissing,,html-keyboard-response,84,717826,0.0-13.0-2.13,98787,List2A,black,man,,,,null,,,,
46848,,,survey-text,85,764676,0.0-13.0-3.13,98787,List2A,black,man,,,,,"{""Q0"":""Beth is kissing Judy""}","<img src=""stim_listA/kiss7.gif""style=""height:400px;""></stim_listA>",is kissing,
null,"<div style=""font-size:60px;"">+</div>",,html-keyboard-response,86,765178,0.0-13.0-0.14,98787,List2A,black,man,,,,null,,,,
null,"<img src=""stim_listA/fight4.gif""style=""height:400px;""></stim_listA>",,html-keyboard-response,87,767181,0.0-13.0-1.14,98787,List2A,black,man,,,,null,,,,
null,are fighting each other,,html-keyboard-response,88,769182,0.0-13.0-2.14,98787,List2A,black,man,,,,null,,,,
19291,,,survey-text,89,788475,0.0-13.0-3.14,98787,List2A,black,man,,,,,"{""Q0"":""Beth and Fred are fighting each other""}","<img src=""stim_listA/fight4.gif""style=""height:400px;""></stim_listA>",are fighting each other,
null,"<div style=""font-size:60px;"">+</div>",,html-keyboard-response,90,788976,0.0-13.0-0.15,98787,List2A,black,man,,,,null,,,,
null,"<img src=""stim_listA/touch8.gif""style=""height:400px;""></stim_listA>",,html-keyboard-response,91,790978,0.0-13.0-1.15,98787,List2A,black,man,,,,null,,,,
null,are touching each other,,html-keyboard-response,92,792979,0.0-13.0-2.15,98787,List2A,black,man,,,,null,,,,
18199,,,survey-text,93,811179,0.0-13.0-3.15,98787,List2A,black,man,,,,,"{""Q0"":""Beth and Judy are touching each other""}","<img src=""stim_listA/touch8.gif""style=""height:400px;""></stim_listA>",are touching each other,
null,"<div style=""font-size:60px;"">+</div>",,html-keyboard-response,94,811681,0.0-13.0-0.16,98787,List2A,black,man,,,,null,,,,
null,"<img src=""stim_listA/kiss8.gif""style=""height:400px;""></stim_listA>",,html-keyboard-response,95,813683,0.0-13.0-1.16,98787,List2A,black,man,,,,null,,,,
null,are kissing each other,,html-keyboard-response,96,815685,0.0-13.0-2.16,98787,List2A,black,man,,,,null,,,,
13616,,,survey-text,97,829303,0.0-13.0-3.16,98787,List2A,black,man,,,,,"{""Q0"":""Kate and Jane are kissing each other""}","<img src=""stim_listA/kiss8.gif""style=""height:400px;""></stim_listA>",are kissing each other,
null,"<div style=""font-size:60px;"">+</div>",,html-keyboard-response,98,829805,0.0-13.0-0.17,98787,List2A,black,man,,,,null,,,,
null,"<img src=""stim_listA/argue5.gif""style=""height:400px;""></stim_listA>",,html-keyboard-response,99,831807,0.0-13.0-1.17,98787,List2A,black,man,,,,null,,,,
null,is arguing with,,html-keyboard-response,100,833809,0.0-13.0-2.17,98787,List2A,black,man,,,,null,,,,
12463,,,survey-text,101,846273,0.0-13.0-3.17,98787,List2A,black,man,,,,,"{""Q0"":""Fred is arguing with Dave""}","<img src=""stim_listA/argue5.gif""style=""height:400px;""></stim_listA>",is arguing with,
null,"<div style=""font-size:60px;"">+</div>",,html-keyboard-response,102,846774,0.0-13.0-0.18,98787,List2A,black,man,,,,null,,,,
null,"<img src=""stim_listA/fight2.gif""style=""height:400px;""></stim_listA>",,html-keyboard-response,103,848776,0.0-13.0-1.18,98787,List2A,black,man,,,,null,,,,
null,are fighting each other,,html-keyboard-response,104,850777,0.0-13.0-2.18,98787,List2A,black,man,,,,null,,,,
14415,,,survey-text,105,865193,0.0-13.0-3.18,98787,List2A,black,man,,,,,"{""Q0"":""Mike and Judy are fighting each other""}","<img src=""stim_listA/fight2.gif""style=""height:400px;""></stim_listA>",are fighting each other,
null,"<div style=""font-size:60px;"">+</div>",,html-keyboard-response,106,865695,0.0-13.0-0.19,98787,List2A,black,man,,,,null,,,,
null,"<img src=""stim_listA/play6.gif""style=""height:400px;""></stim_listA>",,html-keyboard-response,107,867697,0.0-13.0-1.19,98787,List2A,black,man,,,,null,,,,
null,are playing with each other,,html-keyboard-response,108,869699,0.0-13.0-2.19,98787,List2A,black,man,,,,null,,,,
15731,,,survey-text,109,885431,0.0-13.0-3.19,98787,List2A,black,man,,,,,"{""Q0"":""Mike and Fred are playing with each other""}","<img src=""stim_listA/play6.gif""style=""height:400px;""></stim_listA>",are playing with each other,
60491,"<img src='img/portrait_matrix_list2.jpg' style='width:900px;height:500px;''></img><p>If you have memorised all the portraits and names and are ready to start, press Continue.</p><p><strong>Please note: Your memory of these faces will be tested 4 times during this experiment.</strong></p>",0,html-button-response,110,945924,0.0-14.0-0.0,98787,List2A,black,man,,,,,,,,
3257,"<img src=""portrait/WM1.jpg""style=""height:400px;""></img>",5,html-button-response,111,950185,0.0-14.0-1.0,98787,List2A,black,man,,TRUE,6,,,,,
14683,"<img src=""portrait/WM1.jpg""style=""height:400px;""></img>",6,html-button-response,112,965872,0.0-14.0-3.0-0.0,98787,List2A,black,man,,FALSE,6,,,,,
null,CORRECT,,html-keyboard-response,113,967375,0.0-14.0-3.0-1.0-0.0,98787,List2A,black,man,,,,null,,,,
5500,"<img src=""portrait/BW1.jpg""style=""height:400px;""></img>",0,html-button-response,114,972879,0.0-14.0-4.0,98787,List2A,black,man,,TRUE,0,,,,,
null,CORRECT,,html-keyboard-response,115,974381,0.0-14.0-5.0-0.0,98787,List2A,black,man,,,,null,,,,
2849,"<img src=""portrait/WW2.jpg""style=""height:400px;""></img>",3,html-button-response,116,977232,0.0-14.0-7.0,98787,List2A,black,man,,TRUE,3,,,,,
null,CORRECT,,html-keyboard-response,117,978735,0.0-14.0-8.0-0.0,98787,List2A,black,man,,,,null,,,,
2763,"<img src=""portrait/BM1.jpg""style=""height:400px;""></img>",4,html-button-response,118,981501,0.0-14.0-10.0,98787,List2A,black,man,,TRUE,4,,,,,
null,CORRECT,,html-keyboard-response,119,983003,0.0-14.0-11.0-0.0,98787,List2A,black,man,,,,null,,,,
3632,"<img src=""portrait/WM2.jpg""style=""height:400px;""></img>",7,html-button-response,120,986637,0.0-14.0-13.0,98787,List2A,black,man,,TRUE,7,,,,,
null,CORRECT,,html-keyboard-response,121,988140,0.0-14.0-14.0-0.0,98787,List2A,black,man,,,,null,,,,
1735,"<img src=""portrait/BM2.jpg""style=""height:400px;""></img>",5,html-button-response,122,989877,0.0-14.0-16.0,98787,List2A,black,man,,TRUE,5,,,,,
null,CORRECT,,html-keyboard-response,123,991380,0.0-14.0-17.0-0.0,98787,List2A,black,man,,,,null,,,,
3672,"<img src=""portrait/WW1.jpg""style=""height:400px;""></img>",1,html-button-response,124,995055,0.0-14.0-19.0,98787,List2A,black,man,,TRUE,1,,,,,
null,CORRECT,,html-keyboard-response,125,996557,0.0-14.0-20.0-0.0,98787,List2A,black,man,,,,null,,,,
3083,"<img src=""portrait/BW2.jpg""style=""height:400px;""></img>",2,html-button-response,126,999642,0.0-14.0-22.0,98787,List2A,black,man,,TRUE,2,,,,,
null,CORRECT,,html-keyboard-response,127,1001145,0.0-14.0-23.0-0.0,98787,List2A,black,man,,,,null,,,,
3615,<p>You got 7 out of 8 right first time. Press Continue.</p>,0,html-button-response,128,1004762,0.0-14.0-25.0,98787,List2A,black,man,,,,,,,,
2885,"As you did not score 100%, the memory game will repeat. Press Continue.",0,html-button-response,129,1008650,0.0-14.0-26.0-0.0,98787,List2A,black,man,,,,,,,,
24874,"<img src='img/portrait_matrix_list2.jpg' style='width:900px;height:500px;''></img><p>If you have memorised all the portraits and names and are ready to start, press Continue.</p><p><strong>Please note: Your memory of these faces will be tested 4 times during this experiment.</strong></p>",0,html-button-response,130,1034528,0.0-14.1-0.1,98787,List2A,black,man,,,,,,,,
5129,"<img src=""portrait/WM1.jpg""style=""height:400px;""></img>",6,html-button-response,131,1040662,0.0-14.1-1.1,98787,List2A,black,man,,TRUE,6,,,,,
null,CORRECT,,html-keyboard-response,132,1042165,0.0-14.1-2.1-0.1,98787,List2A,black,man,,,,null,,,,
3123,"<img src=""portrait/BW1.jpg""style=""height:400px;""></img>",0,html-button-response,133,1045290,0.0-14.1-4.1,98787,List2A,black,man,,TRUE,0,,,,,
null,CORRECT,,html-keyboard-response,134,1046792,0.0-14.1-5.1-0.1,98787,List2A,black,man,,,,null,,,,
1914,"<img src=""portrait/WW2.jpg""style=""height:400px;""></img>",3,html-button-response,135,1048709,0.0-14.1-7.1,98787,List2A,black,man,,TRUE,3,,,,,
null,CORRECT,,html-keyboard-response,136,1050212,0.0-14.1-8.1-0.1,98787,List2A,black,man,,,,null,,,,
1458,"<img src=""portrait/BM1.jpg""style=""height:400px;""></img>",4,html-button-response,137,1051673,0.0-14.1-10.1,98787,List2A,black,man,,TRUE,4,,,,,
null,CORRECT,,html-keyboard-response,138,1053176,0.0-14.1-11.1-0.1,98787,List2A,black,man,,,,null,,,,
2766,"<img src=""portrait/WM2.jpg""style=""height:400px;""></img>",7,html-button-response,139,1055944,0.0-14.1-13.1,98787,List2A,black,man,,TRUE,7,,,,,
null,CORRECT,,html-keyboard-response,140,1057447,0.0-14.1-14.1-0.1,98787,List2A,black,man,,,,null,,,,
1631,"<img src=""portrait/BM2.jpg""style=""height:400px;""></img>",5,html-button-response,141,1059081,0.0-14.1-16.1,98787,List2A,black,man,,TRUE,5,,,,,
null,CORRECT,,html-keyboard-response,142,1060583,0.0-14.1-17.1-0.1,98787,List2A,black,man,,,,null,,,,
2857,"<img src=""portrait/WW1.jpg""style=""height:400px;""></img>",1,html-button-response,143,1063443,0.0-14.1-19.1,98787,List2A,black,man,,TRUE,1,,,,,
null,CORRECT,,html-keyboard-response,144,1064946,0.0-14.1-20.1-0.1,98787,List2A,black,man,,,,null,,,,
2046,"<img src=""portrait/BW2.jpg""style=""height:400px;""></img>",2,html-button-response,145,1066994,0.0-14.1-22.1,98787,List2A,black,man,,TRUE,2,,,,,
null,CORRECT,,html-keyboard-response,146,1068498,0.0-14.1-23.1-0.1,98787,List2A,black,man,,,,null,,,,
1660,<p>You got 8 out of 8 right first time. Press Continue.</p>,0,html-button-response,147,1070160,0.0-14.1-25.1,98787,List2A,black,man,,,,,,,,
null,"<div style=""font-size:60px;"">+</div>",,html-keyboard-response,148,1071663,0.0-15.0-0.0,98787,List2A,black,man,,,,null,,,,
null,"<img src=""stim_listA/flirt3.gif""style=""height:400px;""></stim_listA>",,html-keyboard-response,149,1073665,0.0-15.0-1.0,98787,List2A,black,man,,,,null,,,,
null,is flirting with,,html-keyboard-response,150,1075666,0.0-15.0-2.0,98787,List2A,black,man,,,,null,,,,
13937,,,survey-text,151,1089605,0.0-15.0-3.0,98787,List2A,black,man,,,,,"{""Q0"":""Fred and Kate are flirting with each other""}","<img src=""stim_listA/flirt3.gif""style=""height:400px;""></stim_listA>",is flirting with,
null,"<div style=""font-size:60px;"">+</div>",,html-keyboard-response,152,1090107,0.0-15.0-0.1,98787,List2A,black,man,,,,null,,,,
null,"<img src=""stim_listA/fight6.gif""style=""height:400px;""></stim_listA>",,html-keyboard-response,153,1092108,0.0-15.0-1.1,98787,List2A,black,man,,,,null,,,,
null,are fighting each other,,html-keyboard-response,154,1094110,0.0-15.0-2.1,98787,List2A,black,man,,,,null,,,,
14391,,,survey-text,155,1108503,0.0-15.0-3.1,98787,List2A,black,man,,,,,"{""Q0"":""Luke and Fred are fighting each other""}","<img src=""stim_listA/fight6.gif""style=""height:400px;""></stim_listA>",are fighting each other,
null,"<div style=""font-size:60px;"">+</div>",,html-keyboard-response,156,1109005,0.0-15.0-0.2,98787,List2A,black,man,,,,null,,,,
null,"<img src=""stim_listA/play1.gif""style=""height:400px;""></stim_listA>",,html-keyboard-response,157,1111006,0.0-15.0-1.2,98787,List2A,black,man,,,,null,,,,
null,is playing with,,html-keyboard-response,158,1113008,0.0-15.0-2.2,98787,List2A,black,man,,,,null,,,,
11642,,,survey-text,159,1124652,0.0-15.0-3.2,98787,List2A,black,man,,,,,"{""Q0"":""Dave is playing with Jane""}","<img src=""stim_listA/play1.gif""style=""height:400px;""></stim_listA>",is playing with,
null,"<div style=""font-size:60px;"">+</div>",,html-keyboard-response,160,1125154,0.0-15.0-0.3,98787,List2A,black,man,,,,null,,,,
null,"<img src=""stim_listA/talk1.gif""style=""height:400px;""></stim_listA>",,html-keyboard-response,161,1127156,0.0-15.0-1.3,98787,List2A,black,man,,,,null,,,,
null,is talking to,,html-keyboard-response,162,1129157,0.0-15.0-2.3,98787,List2A,black,man,,,,null,,,,
8208,,,survey-text,163,1137367,0.0-15.0-3.3,98787,List2A,black,man,,,,,"{""Q0"":""Mike is talking to Jane""}","<img src=""stim_listA/talk1.gif""style=""height:400px;""></stim_listA>",is talking to,
null,"<div style=""font-size:60px;"">+</div>",,html-keyboard-response,164,1137870,0.0-15.0-0.4,98787,List2A,black,man,,,,null,,,,
null,"<img src=""stim_listA/dance4.gif""style=""height:400px;""></stim_listA>",,html-keyboard-response,165,1139872,0.0-15.0-1.4,98787,List2A,black,man,,,,null,,,,
null,are dancing with each other,,html-keyboard-response,166,1141873,0.0-15.0-2.4,98787,List2A,black,man,,,,null,,,,
9663,,,survey-text,167,1151538,0.0-15.0-3.4,98787,List2A,black,man,,,,,"{""Q0"":""Mike and Beth are dancing with each other""}","<img src=""stim_listA/dance4.gif""style=""height:400px;""></stim_listA>",are dancing with each other,
null,"<div style=""font-size:60px;"">+</div>",,html-keyboard-response,168,1152040,0.0-15.0-0.5,98787,List2A,black,man,,,,null,,,,
null,"<img src=""stim_listA/argue1.gif""style=""height:400px;""></stim_listA>",,html-keyboard-response,169,1154041,0.0-15.0-1.5,98787,List2A,black,man,,,,null,,,,
null,is arguing with,,html-keyboard-response,170,1156043,0.0-15.0-2.5,98787,List2A,black,man,,,,null,,,,
11303,,,survey-text,171,1167347,0.0-15.0-3.5,98787,List2A,black,man,,,,,"{""Q0"":""Dave is arguing with Ruth""}","<img src=""stim_listA/argue1.gif""style=""height:400px;""></stim_listA>",is arguing with,
null,"<div style=""font-size:60px;"">+</div>",,html-keyboard-response,172,1167849,0.0-15.0-0.6,98787,List2A,black,man,,,,null,,,,
null,"<img src=""stim_listA/argue4.gif""style=""height:400px;""></stim_listA>",,html-keyboard-response,173,1169851,0.0-15.0-1.6,98787,List2A,black,man,,,,null,,,,
null,are arguing with each other,,html-keyboard-response,174,1171853,0.0-15.0-2.6,98787,List2A,black,man,,,,null,,,,
13835,,,survey-text,175,1185690,0.0-15.0-3.6,98787,List2A,black,man,,,,,"{""Q0"":""Fred and Kate are arguing with each other""}","<img src=""stim_listA/argue4.gif""style=""height:400px;""></stim_listA>",are arguing with each other,
null,"<div style=""font-size:60px;"">+</div>",,html-keyboard-response,176,1186192,0.0-15.0-0.7,98787,List2A,black,man,,,,null,,,,
null,"<img src=""stim_listA/marry1.gif""style=""height:400px;""></stim_listA>",,html-keyboard-response,177,1188193,0.0-15.0-1.7,98787,List2A,black,man,,,,null,,,,
null,is marrying,,html-keyboard-response,178,1190195,0.0-15.0-2.7,98787,List2A,black,man,,,,null,,,,
24589,,,survey-text,179,1214786,0.0-15.0-3.7,98787,List2A,black,man,,,,,"{""Q0"":""Ruth is marrying Dave""}","<img src=""stim_listA/marry1.gif""style=""height:400px;""></stim_listA>",is marrying,
null,"<div style=""font-size:60px;"">+</div>",,html-keyboard-response,180,1215288,0.0-15.0-0.8,98787,List2A,black,man,,,,null,,,,
null,"<img src=""stim_listA/shout7.gif""style=""height:400px;""></stim_listA>",,html-keyboard-response,181,1217290,0.0-15.0-1.8,98787,List2A,black,man,,,,null,,,,
null,is shouting at,,html-keyboard-response,182,1219291,0.0-15.0-2.8,98787,List2A,black,man,,,,null,,,,
7968,,,survey-text,183,1227260,0.0-15.0-3.8,98787,List2A,black,man,,,,,"{""Q0"":""Ruth is shouting at Beth""}","<img src=""stim_listA/shout7.gif""style=""height:400px;""></stim_listA>",is shouting at,
null,"<div style=""font-size:60px;"">+</div>",,html-keyboard-response,184,1227763,0.0-15.0-0.9,98787,List2A,black,man,,,,null,,,,
null,"<img src=""stim_listA/flirt1.gif""style=""height:400px;""></stim_listA>",,html-keyboard-response,185,1229765,0.0-15.0-1.9,98787,List2A,black,man,,,,null,,,,
null,is flirting with,,html-keyboard-response,186,1231766,0.0-15.0-2.9,98787,List2A,black,man,,,,null,,,,
7335,,,survey-text,187,1239103,0.0-15.0-3.9,98787,List2A,black,man,,,,,"{""Q0"":""Jane is flirting with Luke""}","<img src=""stim_listA/flirt1.gif""style=""height:400px;""></stim_listA>",is flirting with,
null,"<div style=""font-size:60px;"">+</div>",,html-keyboard-response,188,1239605,0.0-15.0-0.10,98787,List2A,black,man,,,,null,,,,
null,"<img src=""stim_listA/touch2.gif""style=""height:400px;""></stim_listA>",,html-keyboard-response,189,1241607,0.0-15.0-1.10,98787,List2A,black,man,,,,null,,,,
null,are touching each other,,html-keyboard-response,190,1243608,0.0-15.0-2.10,98787,List2A,black,man,,,,null,,,,
12012,,,survey-text,191,1255622,0.0-15.0-3.10,98787,List2A,black,man,,,,,"{""Q0"":""Luke and Ruth are touching each other""}","<img src=""stim_listA/touch2.gif""style=""height:400px;""></stim_listA>",are touching each other,
null,"<div style=""font-size:60px;"">+</div>",,html-keyboard-response,192,1256123,0.0-15.0-0.11,98787,List2A,black,man,,,,null,,,,
null,"<img src=""stim_listA/marry2.gif""style=""height:400px;""></stim_listA>",,html-keyboard-response,193,1258125,0.0-15.0-1.11,98787,List2A,black,man,,,,null,,,,
null,are marrying each other,,html-keyboard-response,194,1260128,0.0-15.0-2.11,98787,List2A,black,man,,,,null,,,,
14037,,,survey-text,195,1274167,0.0-15.0-3.11,98787,List2A,black,man,,,,,"{""Q0"":""Jane and Luke are marrying each other""}","<img src=""stim_listA/marry2.gif""style=""height:400px;""></stim_listA>",are marrying each other,
null,"<div style=""font-size:60px;"">+</div>",,html-keyboard-response,196,1274670,0.0-15.0-0.12,98787,List2A,black,man,,,,null,,,,
null,"<img src=""stim_listA/argue8.gif""style=""height:400px;""></stim_listA>",,html-keyboard-response,197,1276672,0.0-15.0-1.12,98787,List2A,black,man,,,,null,,,,
null,are arguing with each other,,html-keyboard-response,198,1278673,0.0-15.0-2.12,98787,List2A,black,man,,,,null,,,,
13554,,,survey-text,199,1292229,0.0-15.0-3.12,98787,List2A,black,man,,,,,"{""Q0"":""Ruth and Kate are arguing with each other""}","<img src=""stim_listA/argue8.gif""style=""height:400px;""></stim_listA>",are arguing with each other,
null,"<div style=""font-size:60px;"">+</div>",,html-keyboard-response,200,1292731,0.0-15.0-0.13,98787,List2A,black,man,,,,null,,,,
null,"<img src=""stim_listA/shout4.gif""style=""height:400px;""></stim_listA>",,html-keyboard-response,201,1294733,0.0-15.0-1.13,98787,List2A,black,man,,,,null,,,,
null,are shouting at each other,,html-keyboard-response,202,1296734,0.0-15.0-2.13,98787,List2A,black,man,,,,null,,,,
15805,,,survey-text,203,1312542,0.0-15.0-3.13,98787,List2A,black,man,,,,,"{""Q0"":""Mike and Kate are yelling at each other""}","<img src=""stim_listA/shout4.gif""style=""height:400px;""></stim_listA>",are shouting at each other,
null,"<div style=""font-size:60px;"">+</div>",,html-keyboard-response,204,1313044,0.0-15.0-0.14,98787,List2A,black,man,,,,null,,,,
null,"<img src=""stim_listA/dance1.gif""style=""height:400px;""></stim_listA>",,html-keyboard-response,205,1315046,0.0-15.0-1.14,98787,List2A,black,man,,,,null,,,,
null,is dancing with,,html-keyboard-response,206,1317048,0.0-15.0-2.14,98787,List2A,black,man,,,,null,,,,
7743,,,survey-text,207,1324793,0.0-15.0-3.14,98787,List2A,black,man,,,,,"{""Q0"":""Jane is dancing with Luke""}","<img src=""stim_listA/dance1.gif""style=""height:400px;""></stim_listA>",is dancing with,
null,"<div style=""font-size:60px;"">+</div>",,html-keyboard-response,208,1325295,0.0-15.0-0.15,98787,List2A,black,man,,,,null,,,,
null,"<img src=""stim_listA/touch7.gif""style=""height:400px;""></stim_listA>",,html-keyboard-response,209,1327297,0.0-15.0-1.15,98787,List2A,black,man,,,,null,,,,
null,is touching,,html-keyboard-response,210,1329298,0.0-15.0-2.15,98787,List2A,black,man,,,,null,,,,
9896,,,survey-text,211,1339196,0.0-15.0-3.15,98787,List2A,black,man,,,,,"{""Q0"":""Jane is touching Kate""}","<img src=""stim_listA/touch7.gif""style=""height:400px;""></stim_listA>",is touching,
null,"<div style=""font-size:60px;"">+</div>",,html-keyboard-response,212,1339698,0.0-15.0-0.16,98787,List2A,black,man,,,,null,,,,
null,"<img src=""stim_listA/play2.gif""style=""height:400px;""></stim_listA>",,html-keyboard-response,213,1341700,0.0-15.0-1.16,98787,List2A,black,man,,,,null,,,,
null,are playing with each other,,html-keyboard-response,214,1343703,0.0-15.0-2.16,98787,List2A,black,man,,,,null,,,,
13788,,,survey-text,215,1357492,0.0-15.0-3.16,98787,List2A,black,man,,,,,"{""Q0"":""Ruth and Luke are playing each other""}","<img src=""stim_listA/play2.gif""style=""height:400px;""></stim_listA>",are playing with each other,
null,"<div style=""font-size:60px;"">+</div>",,html-keyboard-response,216,1357994,0.0-15.0-0.17,98787,List2A,black,man,,,,null,,,,
null,"<img src=""stim_listA/marry6.gif""style=""height:400px;""></stim_listA>",,html-keyboard-response,217,1359996,0.0-15.0-1.17,98787,List2A,black,man,,,,null,,,,
null,are marrying each other,,html-keyboard-response,218,1361997,0.0-15.0-2.17,98787,List2A,black,man,,,,null,,,,
20172,,,survey-text,219,1382171,0.0-15.0-3.17,98787,List2A,black,man,,,,,"{""Q0"":""Mike and Luke are marrying each other""}","<img src=""stim_listA/marry6.gif""style=""height:400px;""></stim_listA>",are marrying each other,
null,"<div style=""font-size:60px;"">+</div>",,html-keyboard-response,220,1382672,0.0-15.0-0.18,98787,List2A,black,man,,,,null,,,,
null,"<img src=""stim_listA/shout8.gif""style=""height:400px;""></stim_listA>",,html-keyboard-response,221,1384674,0.0-15.0-1.18,98787,List2A,black,man,,,,null,,,,
null,are shouting at each other,,html-keyboard-response,222,1386676,0.0-15.0-2.18,98787,List2A,black,man,,,,null,,,,
16952,,,survey-text,223,1403629,0.0-15.0-3.18,98787,List2A,black,man,,,,,"{""Q0"":""Kate and Jane are shouting at each other""}","<img src=""stim_listA/shout8.gif""style=""height:400px;""></stim_listA>",are shouting at each other,
null,"<div style=""font-size:60px;"">+</div>",,html-keyboard-response,224,1404132,0.0-15.0-0.19,98787,List2A,black,man,,,,null,,,,
null,"<img src=""stim_listA/kiss5.gif""style=""height:400px;""></stim_listA>",,html-keyboard-response,225,1406135,0.0-15.0-1.19,98787,List2A,black,man,,,,null,,,,
null,is kissing,,html-keyboard-response,226,1408136,0.0-15.0-2.19,98787,List2A,black,man,,,,null,,,,
11588,,,survey-text,227,1419726,0.0-15.0-3.19,98787,List2A,black,man,,,,,"{""Q0"":""Luke is kissing Fred""}","<img src=""stim_listA/kiss5.gif""style=""height:400px;""></stim_listA>",is kissing,
16741,"<img src='img/portrait_matrix_list2.jpg' style='width:900px;height:500px;''></img><p>If you have memorised all the portraits and names and are ready to start, press Continue.</p><p><strong>Please note: Your memory of these faces will be tested 4 times during this experiment.</strong></p>",0,html-button-response,228,1436469,0.0-16.0-0.0,98787,List2A,black,man,,,,,,,,
3570,"<img src=""portrait/WM1.jpg""style=""height:400px;""></img>",6,html-button-response,229,1441042,0.0-16.0-1.0,98787,List2A,black,man,,TRUE,6,,,,,
null,CORRECT,,html-keyboard-response,230,1442545,0.0-16.0-2.0-0.0,98787,List2A,black,man,,,,null,,,,
2696,"<img src=""portrait/BW1.jpg""style=""height:400px;""></img>",0,html-button-response,231,1445244,0.0-16.0-4.0,98787,List2A,black,man,,TRUE,0,,,,,
null,CORRECT,,html-keyboard-response,232,1446747,0.0-16.0-5.0-0.0,98787,List2A,black,man,,,,null,,,,
2152,"<img src=""portrait/WW2.jpg""style=""height:400px;""></img>",3,html-button-response,233,1448901,0.0-16.0-7.0,98787,List2A,black,man,,TRUE,3,,,,,
null,CORRECT,,html-keyboard-response,234,1450403,0.0-16.0-8.0-0.0,98787,List2A,black,man,,,,null,,,,
2330,"<img src=""portrait/BW2.jpg""style=""height:400px;""></img>",2,html-button-response,235,1452736,0.0-16.0-10.0,98787,List2A,black,man,,TRUE,2,,,,,
null,CORRECT,,html-keyboard-response,236,1454239,0.0-16.0-11.0-0.0,98787,List2A,black,man,,,,null,,,,
4665,"<img src=""portrait/WM2.jpg""style=""height:400px;""></img>",7,html-button-response,237,1458907,0.0-16.0-13.0,98787,List2A,black,man,,TRUE,7,,,,,
null,CORRECT,,html-keyboard-response,238,1460409,0.0-16.0-14.0-0.0,98787,List2A,black,man,,,,null,,,,
1738,"<img src=""portrait/BM2.jpg""style=""height:400px;""></img>",5,html-button-response,239,1462150,0.0-16.0-16.0,98787,List2A,black,man,,TRUE,5,,,,,
null,CORRECT,,html-keyboard-response,240,1463653,0.0-16.0-17.0-0.0,98787,List2A,black,man,,,,null,,,,
1671,"<img src=""portrait/BM1.jpg""style=""height:400px;""></img>",4,html-button-response,241,1465326,0.0-16.0-19.0,98787,List2A,black,man,,TRUE,4,,,,,
null,CORRECT,,html-keyboard-response,242,1466829,0.0-16.0-20.0-0.0,98787,List2A,black,man,,,,null,,,,
2485,"<img src=""portrait/WW1.jpg""style=""height:400px;""></img>",1,html-button-response,243,1469317,0.0-16.0-22.0,98787,List2A,black,man,,TRUE,1,,,,,
null,CORRECT,,html-keyboard-response,244,1470819,0.0-16.0-23.0-0.0,98787,List2A,black,man,,,,null,,,,
2021,<p>You got 8 out of 8 right first time. Press Continue.</p>,0,html-button-response,245,1472842,0.0-16.0-25.0,98787,List2A,black,man,,,,,,,,
null,"<div style=""font-size:60px;"">+</div>",,html-keyboard-response,246,1474346,0.0-17.0-0.0,98787,List2A,black,man,,,,null,,,,
null,"<img src=""stim_listA/kiss1.gif""style=""height:400px;""></stim_listA>",,html-keyboard-response,247,1476348,0.0-17.0-1.0,98787,List2A,black,man,,,,null,,,,
null,is kissing,,html-keyboard-response,248,1478350,0.0-17.0-2.0,98787,List2A,black,man,,,,null,,,,
14743,,,survey-text,249,1493095,0.0-17.0-3.0,98787,List2A,black,man,,,,,"{""Q0"":""Ruth is kissing Luke""}","<img src=""stim_listA/kiss1.gif""style=""height:400px;""></stim_listA>",is kissing,
null,"<div style=""font-size:60px;"">+</div>",,html-keyboard-response,250,1493597,0.0-17.0-0.1,98787,List2A,black,man,,,,null,,,,
null,"<img src=""stim_listA/flirt2.gif""style=""height:400px;""></stim_listA>",,html-keyboard-response,251,1495598,0.0-17.0-1.1,98787,List2A,black,man,,,,null,,,,
null,are flirting with each other,,html-keyboard-response,252,1497599,0.0-17.0-2.1,98787,List2A,black,man,,,,null,,,,
17094,,,survey-text,253,1514696,0.0-17.0-3.1,98787,List2A,black,man,,,,,"{""Q0"":""Ruth and Dave are flirting with each other""}","<img src=""stim_listA/flirt2.gif""style=""height:400px;""></stim_listA>",are flirting with each other,
null,"<div style=""font-size:60px;"">+</div>",,html-keyboard-response,254,1515199,0.0-17.0-0.2,98787,List2A,black,man,,,,null,,,,
null,"<img src=""stim_listA/play3.gif""style=""height:400px;""></stim_listA>",,html-keyboard-response,255,1517201,0.0-17.0-1.2,98787,List2A,black,man,,,,null,,,,
null,is playing with,,html-keyboard-response,256,1519203,0.0-17.0-2.2,98787,List2A,black,man,,,,null,,,,
8479,,,survey-text,257,1527683,0.0-17.0-3.2,98787,List2A,black,man,,,,,"{""Q0"":""Mike is playing with Kate""}","<img src=""stim_listA/play3.gif""style=""height:400px;""></stim_listA>",is playing with,
null,"<div style=""font-size:60px;"">+</div>",,html-keyboard-response,258,1528185,0.0-17.0-0.3,98787,List2A,black,man,,,,null,,,,
null,"<img src=""stim_listA/dance7.gif""style=""height:400px;""></stim_listA>",,html-keyboard-response,259,1530187,0.0-17.0-1.3,98787,List2A,black,man,,,,null,,,,
null,is dancing with,,html-keyboard-response,260,1532189,0.0-17.0-2.3,98787,List2A,black,man,,,,null,,,,
6703,,,survey-text,261,1538892,0.0-17.0-3.3,98787,List2A,black,man,,,,,"{""Q0"":""Kate is dancing with Ruth""}","<img src=""stim_listA/dance7.gif""style=""height:400px;""></stim_listA>",is dancing with,
null,"<div style=""font-size:60px;"">+</div>",,html-keyboard-response,262,1539395,0.0-17.0-0.4,98787,List2A,black,man,,,,null,,,,
null,"<img src=""stim_listA/play8.gif""style=""height:400px;""></stim_listA>",,html-keyboard-response,263,1541398,0.0-17.0-1.4,98787,List2A,black,man,,,,null,,,,
null,are playing with each other,,html-keyboard-response,264,1543399,0.0-17.0-2.4,98787,List2A,black,man,,,,null,,,,
12167,,,survey-text,265,1555568,0.0-17.0-3.4,98787,List2A,black,man,,,,,"{""Q0"":""Ruth and Beth are playing each other""}","<img src=""stim_listA/play8.gif""style=""height:400px;""></stim_listA>",are playing with each other,
null,"<div style=""font-size:60px;"">+</div>",,html-keyboard-response,266,1556070,0.0-17.0-0.5,98787,List2A,black,man,,,,null,,,,
null,"<img src=""stim_listA/talk8.gif""style=""height:400px;""></stim_listA>",,html-keyboard-response,267,1558072,0.0-17.0-1.5,98787,List2A,black,man,,,,null,,,,
null,are talking to each other,,html-keyboard-response,268,1560073,0.0-17.0-2.5,98787,List2A,black,man,,,,null,,,,
9726,,,survey-text,269,1569801,0.0-17.0-3.5,98787,List2A,black,man,,,,,"{""Q0"":""Beth and Jane are talking to each other""}","<img src=""stim_listA/talk8.gif""style=""height:400px;""></stim_listA>",are talking to each other,
null,"<div style=""font-size:60px;"">+</div>",,html-keyboard-response,270,1570303,0.0-17.0-0.6,98787,List2A,black,man,,,,null,,,,
null,"<img src=""stim_listA/shout5.gif""style=""height:400px;""></stim_listA>",,html-keyboard-response,271,1572305,0.0-17.0-1.6,98787,List2A,black,man,,,,null,,,,
null,is shouting at,,html-keyboard-response,272,1574306,0.0-17.0-2.6,98787,List2A,black,man,,,,null,,,,
13234,,,survey-text,273,1587543,0.0-17.0-3.6,98787,List2A,black,man,,,,,"{""Q0"":""Fred is shouting at Luke""}","<img src=""stim_listA/shout5.gif""style=""height:400px;""></stim_listA>",is shouting at,
null,"<div style=""font-size:60px;"">+</div>",,html-keyboard-response,274,1588045,0.0-17.0-0.7,98787,List2A,black,man,,,,null,,,,
null,"<img src=""stim_listA/argue2.gif""style=""height:400px;""></stim_listA>",,html-keyboard-response,275,1590046,0.0-17.0-1.7,98787,List2A,black,man,,,,null,,,,
null,are arguing with each other,,html-keyboard-response,276,1592048,0.0-17.0-2.7,98787,List2A,black,man,,,,null,,,,
14550,,,survey-text,277,1606600,0.0-17.0-3.7,98787,List2A,black,man,,,,,"{""Q0"":""Luke and Jane are shouting at each other""}","<img src=""stim_listA/argue2.gif""style=""height:400px;""></stim_listA>",are arguing with each other,
null,"<div style=""font-size:60px;"">+</div>",,html-keyboard-response,278,1607102,0.0-17.0-0.8,98787,List2A,black,man,,,,null,,,,
null,"<img src=""stim_listA/fight3.gif""style=""height:400px;""></stim_listA>",,html-keyboard-response,279,1609104,0.0-17.0-1.8,98787,List2A,black,man,,,,null,,,,
null,is fighting,,html-keyboard-response,280,1611106,0.0-17.0-2.8,98787,List2A,black,man,,,,null,,,,
6364,,,survey-text,281,1617471,0.0-17.0-3.8,98787,List2A,black,man,,,,,"{""Q0"":""Kate is fighting Mike""}","<img src=""stim_listA/fight3.gif""style=""height:400px;""></stim_listA>",is fighting,
null,"<div style=""font-size:60px;"">+</div>",,html-keyboard-response,282,1617974,0.0-17.0-0.9,98787,List2A,black,man,,,,null,,,,
null,"<img src=""stim_listA/dance6.gif""style=""height:400px;""></stim_listA>",,html-keyboard-response,283,1619976,0.0-17.0-1.9,98787,List2A,black,man,,,,null,,,,
null,are dancing with each other,,html-keyboard-response,284,1621977,0.0-17.0-2.9,98787,List2A,black,man,,,,null,,,,
19443,,,survey-text,285,1641422,0.0-17.0-3.9,98787,List2A,black,man,,,,,"{""Q0"":""Fred and Dave are dancing with each other""}","<img src=""stim_listA/dance6.gif""style=""height:400px;""></stim_listA>",are dancing with each other,
null,"<div style=""font-size:60px;"">+</div>",,html-keyboard-response,286,1641924,0.0-17.0-0.10,98787,List2A,black,man,,,,null,,,,
null,"<img src=""stim_listA/marry3.gif""style=""height:400px;""></stim_listA>",,html-keyboard-response,287,1643927,0.0-17.0-1.10,98787,List2A,black,man,,,,null,,,,
null,is marrying,,html-keyboard-response,288,1645928,0.0-17.0-2.10,98787,List2A,black,man,,,,null,,,,
11170,,,survey-text,289,1657100,0.0-17.0-3.10,98787,List2A,black,man,,,,,"{""Q0"":""Beth is marrying Mike""}","<img src=""stim_listA/marry3.gif""style=""height:400px;""></stim_listA>",is marrying,
null,"<div style=""font-size:60px;"">+</div>",,html-keyboard-response,290,1657601,0.0-17.0-0.11,98787,List2A,black,man,,,,null,,,,
null,"<img src=""stim_listA/marry8.gif""style=""height:400px;""></stim_listA>",,html-keyboard-response,291,1659603,0.0-17.0-1.11,98787,List2A,black,man,,,,null,,,,
null,are marrying each other,,html-keyboard-response,292,1661604,0.0-17.0-2.11,98787,List2A,black,man,,,,null,,,,
13672,,,survey-text,293,1675277,0.0-17.0-3.11,98787,List2A,black,man,,,,,"{""Q0"":""Ruth and Kate are marrying each other""}","<img src=""stim_listA/marry8.gif""style=""height:400px;""></stim_listA>",are marrying each other,
null,"<div style=""font-size:60px;"">+</div>",,html-keyboard-response,294,1675780,0.0-17.0-0.12,98787,List2A,black,man,,,,null,,,,
null,"<img src=""stim_listA/dance8.gif""style=""height:400px;""></stim_listA>",,html-keyboard-response,295,1677781,0.0-17.0-1.12,98787,List2A,black,man,,,,null,,,,
null,are dancing with each other,,html-keyboard-response,296,1679783,0.0-17.0-2.12,98787,List2A,black,man,,,,null,,,,
8654,,,survey-text,297,1688439,0.0-17.0-3.12,98787,List2A,black,man,,,,,"{""Q0"":""Beth and Jane are dancing with each other""}","<img src=""stim_listA/dance8.gif""style=""height:400px;""></stim_listA>",are dancing with each other,
null,"<div style=""font-size:60px;"">+</div>",,html-keyboard-response,298,1688941,0.0-17.0-0.13,98787,List2A,black,man,,,,null,,,,
null,"<img src=""stim_listA/argue7.gif""style=""height:400px;""></stim_listA>",,html-keyboard-response,299,1690943,0.0-17.0-1.13,98787,List2A,black,man,,,,null,,,,
null,is arguing with,,html-keyboard-response,300,1692945,0.0-17.0-2.13,98787,List2A,black,man,,,,null,,,,
12242,,,survey-text,301,1705188,0.0-17.0-3.13,98787,List2A,black,man,,,,,"{""Q0"":""Jane is arguing with Beth""}","<img src=""stim_listA/argue7.gif""style=""height:400px;""></stim_listA>",is arguing with,
null,"<div style=""font-size:60px;"">+</div>",,html-keyboard-response,302,1705690,0.0-17.0-0.14,98787,List2A,black,man,,,,null,,,,
null,"<img src=""stim_listA/touch5.gif""style=""height:400px;""></stim_listA>",,html-keyboard-response,303,1707692,0.0-17.0-1.14,98787,List2A,black,man,,,,null,,,,
null,is touching,,html-keyboard-response,304,1709694,0.0-17.0-2.14,98787,List2A,black,man,,,,null,,,,
15213,,,survey-text,305,1724910,0.0-17.0-3.14,98787,List2A,black,man,,,,,"{""Q0"":""Dave is touching Mike ""}","<img src=""stim_listA/touch5.gif""style=""height:400px;""></stim_listA>",is touching,
null,"<div style=""font-size:60px;"">+</div>",,html-keyboard-response,306,1725412,0.0-17.0-0.15,98787,List2A,black,man,,,,null,,,,
null,"<img src=""stim_listA/shout2.gif""style=""height:400px;""></stim_listA>",,html-keyboard-response,307,1727414,0.0-17.0-1.15,98787,List2A,black,man,,,,null,,,,
null,are shouting at each other,,html-keyboard-response,308,1729416,0.0-17.0-2.15,98787,List2A,black,man,,,,null,,,,
13025,,,survey-text,309,1742443,0.0-17.0-3.15,98787,List2A,black,man,,,,,"{""Q0"":""Dave and Jane are shouting at each other""}","<img src=""stim_listA/shout2.gif""style=""height:400px;""></stim_listA>",are shouting at each other,
null,"<div style=""font-size:60px;"">+</div>",,html-keyboard-response,310,1742945,0.0-17.0-0.16,98787,List2A,black,man,,,,null,,,,
null,"<img src=""stim_listA/talk2.gif""style=""height:400px;""></stim_listA>",,html-keyboard-response,311,1744947,0.0-17.0-1.16,98787,List2A,black,man,,,,null,,,,
null,are talking to each other,,html-keyboard-response,312,1746948,0.0-17.0-2.16,98787,List2A,black,man,,,,null,,,,
9284,,,survey-text,313,1756234,0.0-17.0-3.16,98787,List2A,black,man,,,,,"{""Q0"":""Dave and Ruth are talking to each other""}","<img src=""stim_listA/talk2.gif""style=""height:400px;""></stim_listA>",are talking to each other,
null,"<div style=""font-size:60px;"">+</div>",,html-keyboard-response,314,1756736,0.0-17.0-0.17,98787,List2A,black,man,,,,null,,,,
null,"<img src=""stim_listA/play7.gif""style=""height:400px;""></stim_listA>",,html-keyboard-response,315,1758738,0.0-17.0-1.17,98787,List2A,black,man,,,,null,,,,
null,is playing with,,html-keyboard-response,316,1760740,0.0-17.0-2.17,98787,List2A,black,man,,,,null,,,,
8222,,,survey-text,317,1768964,0.0-17.0-3.17,98787,List2A,black,man,,,,,"{""Q0"":""Jane is playing with Kate""}","<img src=""stim_listA/play7.gif""style=""height:400px;""></stim_listA>",is playing with,
null,"<div style=""font-size:60px;"">+</div>",,html-keyboard-response,318,1769466,0.0-17.0-0.18,98787,List2A,black,man,,,,null,,,,
null,"<img src=""stim_listA/fight1.gif""style=""height:400px;""></stim_listA>",,html-keyboard-response,319,1771468,0.0-17.0-1.18,98787,List2A,black,man,,,,null,,,,
null,is fighting,,html-keyboard-response,320,1773470,0.0-17.0-2.18,98787,List2A,black,man,,,,null,,,,
5945,,,survey-text,321,1779417,0.0-17.0-3.18,98787,List2A,black,man,,,,,"{""Q0"":""Jane is fighting Dave""}","<img src=""stim_listA/fight1.gif""style=""height:400px;""></stim_listA>",is fighting,
null,"<div style=""font-size:60px;"">+</div>",,html-keyboard-response,322,1779920,0.0-17.0-0.19,98787,List2A,black,man,,,,null,,,,
null,"<img src=""stim_listA/dance2.gif""style=""height:400px;""></stim_listA>",,html-keyboard-response,323,1781921,0.0-17.0-1.19,98787,List2A,black,man,,,,null,,,,
null,are dancing with each other,,html-keyboard-response,324,1783923,0.0-17.0-2.19,98787,List2A,black,man,,,,null,,,,
11018,,,survey-text,325,1794943,0.0-17.0-3.19,98787,List2A,black,man,,,,,"{""Q0"":""Dave and Ruth are dancing with each other""}","<img src=""stim_listA/dance2.gif""style=""height:400px;""></stim_listA>",are dancing with each other,
12467,"<img src='img/portrait_matrix_list2.jpg' style='width:900px;height:500px;''></img><p>If you have memorised all the portraits and names and are ready to start, press Continue.</p><p><strong>Please note: Your memory of these faces will be tested 4 times during this experiment.</strong></p>",0,html-button-response,326,1807413,0.0-18.0-0.0,98787,List2A,black,man,,,,,,,,
3556,"<img src=""portrait/WW1.jpg""style=""height:400px;""></img>",1,html-button-response,327,1811973,0.0-18.0-1.0,98787,List2A,black,man,,TRUE,1,,,,,
null,CORRECT,,html-keyboard-response,328,1813475,0.0-18.0-2.0-0.0,98787,List2A,black,man,,,,null,,,,
2198,"<img src=""portrait/BM2.jpg""style=""height:400px;""></img>",5,html-button-response,329,1815676,0.0-18.0-4.0,98787,List2A,black,man,,TRUE,5,,,,,
null,CORRECT,,html-keyboard-response,330,1817180,0.0-18.0-5.0-0.0,98787,List2A,black,man,,,,null,,,,
2246,"<img src=""portrait/BW2.jpg""style=""height:400px;""></img>",2,html-button-response,331,1819429,0.0-18.0-7.0,98787,List2A,black,man,,TRUE,2,,,,,
null,CORRECT,,html-keyboard-response,332,1820931,0.0-18.0-8.0-0.0,98787,List2A,black,man,,,,null,,,,
1810,"<img src=""portrait/BW1.jpg""style=""height:400px;""></img>",0,html-button-response,333,1822745,0.0-18.0-10.0,98787,List2A,black,man,,TRUE,0,,,,,
null,CORRECT,,html-keyboard-response,334,1824247,0.0-18.0-11.0-0.0,98787,List2A,black,man,,,,null,,,,
3011,"<img src=""portrait/WM2.jpg""style=""height:400px;""></img>",7,html-button-response,335,1827261,0.0-18.0-13.0,98787,List2A,black,man,,TRUE,7,,,,,
null,CORRECT,,html-keyboard-response,336,1828764,0.0-18.0-14.0-0.0,98787,List2A,black,man,,,,null,,,,
9375,"<img src=""portrait/WW2.jpg""style=""height:400px;""></img>",3,html-button-response,337,1838143,0.0-18.0-16.0,98787,List2A,black,man,,TRUE,3,,,,,
null,CORRECT,,html-keyboard-response,338,1839646,0.0-18.0-17.0-0.0,98787,List2A,black,man,,,,null,,,,
1598,"<img src=""portrait/BM1.jpg""style=""height:400px;""></img>",4,html-button-response,339,1841247,0.0-18.0-19.0,98787,List2A,black,man,,TRUE,4,,,,,
null,CORRECT,,html-keyboard-response,340,1842749,0.0-18.0-20.0-0.0,98787,List2A,black,man,,,,null,,,,
1914,"<img src=""portrait/WM1.jpg""style=""height:400px;""></img>",6,html-button-response,341,1844667,0.0-18.0-22.0,98787,List2A,black,man,,TRUE,6,,,,,
null,CORRECT,,html-keyboard-response,342,1846170,0.0-18.0-23.0-0.0,98787,List2A,black,man,,,,null,,,,
1849,<p>You got 8 out of 8 right first time. Press Continue.</p>,0,html-button-response,343,1848022,0.0-18.0-25.0,98787,List2A,black,man,,,,,,,,
null,"<div style=""font-size:60px;"">+</div>",,html-keyboard-response,344,1849526,0.0-19.0-0.0,98787,List2A,black,man,,,,null,,,,
null,"<img src=""stim_listA/touch1.gif""style=""height:400px;""></stim_listA>",,html-keyboard-response,345,1851527,0.0-19.0-1.0,98787,List2A,black,man,,,,null,,,,
null,is touching,,html-keyboard-response,346,1853529,0.0-19.0-2.0,98787,List2A,black,man,,,,null,,,,
9802,,,survey-text,347,1863333,0.0-19.0-3.0,98787,List2A,black,man,,,,,"{""Q0"":""Dave is touching Jane""}","<img src=""stim_listA/touch1.gif""style=""height:400px;""></stim_listA>",is touching,
null,"<div style=""font-size:60px;"">+</div>",,html-keyboard-response,348,1863835,0.0-19.0-0.1,98787,List2A,black,man,,,,null,,,,
null,"<img src=""stim_listA/flirt5.gif""style=""height:400px;""></stim_listA>",,html-keyboard-response,349,1865837,0.0-19.0-1.1,98787,List2A,black,man,,,,null,,,,
null,is flirting with,,html-keyboard-response,350,1867839,0.0-19.0-2.1,98787,List2A,black,man,,,,null,,,,
6526,,,survey-text,351,1874367,0.0-19.0-3.1,98787,List2A,black,man,,,,,"{""Q0"":""Mike is flirting with Luke""}","<img src=""stim_listA/flirt5.gif""style=""height:400px;""></stim_listA>",is flirting with,
null,"<div style=""font-size:60px;"">+</div>",,html-keyboard-response,352,1874869,0.0-19.0-0.2,98787,List2A,black,man,,,,null,,,,
null,"<img src=""stim_listA/dance3.gif""style=""height:400px;""></stim_listA>",,html-keyboard-response,353,1876871,0.0-19.0-1.2,98787,List2A,black,man,,,,null,,,,
null,is dancing with,,html-keyboard-response,354,1878873,0.0-19.0-2.2,98787,List2A,black,man,,,,null,,,,
6262,,,survey-text,355,1885136,0.0-19.0-3.2,98787,List2A,black,man,,,,,"{""Q0"":""Fred is dancing with Kate""}","<img src=""stim_listA/dance3.gif""style=""height:400px;""></stim_listA>",is dancing with,
null,"<div style=""font-size:60px;"">+</div>",,html-keyboard-response,356,1885639,0.0-19.0-0.3,98787,List2A,black,man,,,,null,,,,
null,"<img src=""stim_listA/kiss4.gif""style=""height:400px;""></stim_listA>",,html-keyboard-response,357,1887640,0.0-19.0-1.3,98787,List2A,black,man,,,,null,,,,
null,are kissing each other,,html-keyboard-response,358,1889642,0.0-19.0-2.3,98787,List2A,black,man,,,,null,,,,
13954,,,survey-text,359,1903598,0.0-19.0-3.3,98787,List2A,black,man,,,,,"{""Q0"":""Mike and Kate are kissing each other""}","<img src=""stim_listA/kiss4.gif""style=""height:400px;""></stim_listA>",are kissing each other,
null,"<div style=""font-size:60px;"">+</div>",,html-keyboard-response,360,1904100,0.0-19.0-0.4,98787,List2A,black,man,,,,null,,,,
null,"<img src=""stim_listA/shout1.gif""style=""height:400px;""></stim_listA>",,html-keyboard-response,361,1906102,0.0-19.0-1.4,98787,List2A,black,man,,,,null,,,,
null,is shouting at,,html-keyboard-response,362,1908104,0.0-19.0-2.4,98787,List2A,black,man,,,,null,,,,
11685,,,survey-text,363,1919791,0.0-19.0-3.4,98787,List2A,black,man,,,,,"{""Q0"":""Ruth is shouting at Luke""}","<img src=""stim_listA/shout1.gif""style=""height:400px;""></stim_listA>",is shouting at,
null,"<div style=""font-size:60px;"">+</div>",,html-keyboard-response,364,1920293,0.0-19.0-0.5,98787,List2A,black,man,,,,null,,,,
null,"<img src=""stim_listA/touch4.gif""style=""height:400px;""></stim_listA>",,html-keyboard-response,365,1922295,0.0-19.0-1.5,98787,List2A,black,man,,,,null,,,,
null,are touching each other,,html-keyboard-response,366,1924296,0.0-19.0-2.5,98787,List2A,black,man,,,,null,,,,
10457,,,survey-text,367,1934755,0.0-19.0-3.5,98787,List2A,black,man,,,,,"{""Q0"":""Beth and Fred are touching each other""}","<img src=""stim_listA/touch4.gif""style=""height:400px;""></stim_listA>",are touching each other,
null,"<div style=""font-size:60px;"">+</div>",,html-keyboard-response,368,1935258,0.0-19.0-0.6,98787,List2A,black,man,,,,null,,,,
null,"<img src=""stim_listA/flirt4.gif""style=""height:400px;""></stim_listA>",,html-keyboard-response,369,1937260,0.0-19.0-1.6,98787,List2A,black,man,,,,null,,,,
null,are flirting with each other,,html-keyboard-response,370,1939261,0.0-19.0-2.6,98787,List2A,black,man,,,,null,,,,
9512,,,survey-text,371,1948774,0.0-19.0-3.6,98787,List2A,black,man,,,,,"{""Q0"":""Beth and Mike are flirting with each other""}","<img src=""stim_listA/flirt4.gif""style=""height:400px;""></stim_listA>",are flirting with each other,
null,"<div style=""font-size:60px;"">+</div>",,html-keyboard-response,372,1949277,0.0-19.0-0.7,98787,List2A,black,man,,,,null,,,,
null,"<img src=""stim_listA/talk4.gif""style=""height:400px;""></stim_listA>",,html-keyboard-response,373,1951279,0.0-19.0-1.7,98787,List2A,black,man,,,,null,,,,
null,are talking to each other,,html-keyboard-response,374,1953280,0.0-19.0-2.7,98787,List2A,black,man,,,,null,,,,
8354,,,survey-text,375,1961636,0.0-19.0-3.7,98787,List2A,black,man,,,,,"{""Q0"":""Mike and Beth are talking to each other""}","<img src=""stim_listA/talk4.gif""style=""height:400px;""></stim_listA>",are talking to each other,
null,"<div style=""font-size:60px;"">+</div>",,html-keyboard-response,376,1962137,0.0-19.0-0.8,98787,List2A,black,man,,,,null,,,,
null,"<img src=""stim_listA/fight5.gif""style=""height:400px;""></stim_listA>",,html-keyboard-response,377,1964139,0.0-19.0-1.8,98787,List2A,black,man,,,,null,,,,
null,is fighting,,html-keyboard-response,378,1966141,0.0-19.0-2.8,98787,List2A,black,man,,,,null,,,,
8858,,,survey-text,379,1975001,0.0-19.0-3.8,98787,List2A,black,man,,,,,"{""Q0"":""Mike is fighting Dave""}","<img src=""stim_listA/fight5.gif""style=""height:400px;""></stim_listA>",is fighting,
null,"<div style=""font-size:60px;"">+</div>",,html-keyboard-response,380,1975504,0.0-19.0-0.9,98787,List2A,black,man,,,,null,,,,
null,"<img src=""stim_listA/argue3.gif""style=""height:400px;""></stim_listA>",,html-keyboard-response,381,1977505,0.0-19.0-1.9,98787,List2A,black,man,,,,null,,,,
null,is arguing with,,html-keyboard-response,382,1979507,0.0-19.0-2.9,98787,List2A,black,man,,,,null,,,,
15170,,,survey-text,383,1994678,0.0-19.0-3.9,98787,List2A,black,man,,,,,"{""Q0"":""Dave is arguing with Beth""}","<img src=""stim_listA/argue3.gif""style=""height:400px;""></stim_listA>",is arguing with,
null,"<div style=""font-size:60px;"">+</div>",,html-keyboard-response,384,1995181,0.0-19.0-0.10,98787,List2A,black,man,,,,null,,,,
null,"<img src=""stim_listA/shout3.gif""style=""height:400px;""></stim_listA>",,html-keyboard-response,385,1997183,0.0-19.0-1.10,98787,List2A,black,man,,,,null,,,,
null,is shouting at,,html-keyboard-response,386,1999184,0.0-19.0-2.10,98787,List2A,black,man,,,,null,,,,
10140,,,survey-text,387,2009326,0.0-19.0-3.10,98787,List2A,black,man,,,,,"{""Q0"":""Beth is shouting at Fred""}","<img src=""stim_listA/shout3.gif""style=""height:400px;""></stim_listA>",is shouting at,
null,"<div style=""font-size:60px;"">+</div>",,html-keyboard-response,388,2009828,0.0-19.0-0.11,98787,List2A,black,man,,,,null,,,,
null,"<img src=""stim_listA/fight8.gif""style=""height:400px;""></stim_listA>",,html-keyboard-response,389,2011831,0.0-19.0-1.11,98787,List2A,black,man,,,,null,,,,
null,are fighting each other,,html-keyboard-response,390,2013832,0.0-19.0-2.11,98787,List2A,black,man,,,,null,,,,
12543,,,survey-text,391,2026377,0.0-19.0-3.11,98787,List2A,black,man,,,,,"{""Q0"":""Beth and Ruth are fighting each other""}","<img src=""stim_listA/fight8.gif""style=""height:400px;""></stim_listA>",are fighting each other,
null,"<div style=""font-size:60px;"">+</div>",,html-keyboard-response,392,2026879,0.0-19.0-0.12,98787,List2A,black,man,,,,null,,,,
null,"<img src=""stim_listA/talk7.gif""style=""height:400px;""></stim_listA>",,html-keyboard-response,393,2028883,0.0-19.0-1.12,98787,List2A,black,man,,,,null,,,,
null,is talking to,,html-keyboard-response,394,2030885,0.0-19.0-2.12,98787,List2A,black,man,,,,null,,,,
6744,,,survey-text,395,2037631,0.0-19.0-3.12,98787,List2A,black,man,,,,,"{""Q0"":""Ruth is talking to Kate""}","<img src=""stim_listA/talk7.gif""style=""height:400px;""></stim_listA>",is talking to,
null,"<div style=""font-size:60px;"">+</div>",,html-keyboard-response,396,2038133,0.0-19.0-0.13,98787,List2A,black,man,,,,null,,,,
null,"<img src=""stim_listA/shout6.gif""style=""height:400px;""></stim_listA>",,html-keyboard-response,397,2040135,0.0-19.0-1.13,98787,List2A,black,man,,,,null,,,,
null,are shouting at each other,,html-keyboard-response,398,2042136,0.0-19.0-2.13,98787,List2A,black,man,,,,null,,,,
17986,,,survey-text,399,2060124,0.0-19.0-3.13,98787,List2A,black,man,,,,,"{""Q0"":""Dave and Mike are shouting at each other""}","<img src=""stim_listA/shout6.gif""style=""height:400px;""></stim_listA>",are shouting at each other,
null,"<div style=""font-size:60px;"">+</div>",,html-keyboard-response,400,2060626,0.0-19.0-0.14,98787,List2A,black,man,,,,null,,,,
null,"<img src=""stim_listA/kiss2.gif""style=""height:400px;""></stim_listA>",,html-keyboard-response,401,2062629,0.0-19.0-1.14,98787,List2A,black,man,,,,null,,,,
null,are kissing each other,,html-keyboard-response,402,2064631,0.0-19.0-2.14,98787,List2A,black,man,,,,null,,,,
17552,,,survey-text,403,2082184,0.0-19.0-3.14,98787,List2A,black,man,,,,,"{""Q0"":""Jane and Dave are kissing each other""}","<img src=""stim_listA/kiss2.gif""style=""height:400px;""></stim_listA>",are kissing each other,
null,"<div style=""font-size:60px;"">+</div>",,html-keyboard-response,404,2082686,0.0-19.0-0.15,98787,List2A,black,man,,,,null,,,,
null,"<img src=""stim_listA/play4.gif""style=""height:400px;""></stim_listA>",,html-keyboard-response,405,2084688,0.0-19.0-1.15,98787,List2A,black,man,,,,null,,,,
null,are playing with each other,,html-keyboard-response,406,2086690,0.0-19.0-2.15,98787,List2A,black,man,,,,null,,,,
13990,,,survey-text,407,2100682,0.0-19.0-3.15,98787,List2A,black,man,,,,,"{""Q0"":""Beth and Fred are playing each other""}","<img src=""stim_listA/play4.gif""style=""height:400px;""></stim_listA>",are playing with each other,
null,"<div style=""font-size:60px;"">+</div>",,html-keyboard-response,408,2101184,0.0-19.0-0.16,98787,List2A,black,man,,,,null,,,,
null,"<img src=""stim_listA/flirt7.gif""style=""height:400px;""></stim_listA>",,html-keyboard-response,409,2103186,0.0-19.0-1.16,98787,List2A,black,man,,,,null,,,,
null,is flirting with,,html-keyboard-response,410,2105188,0.0-19.0-2.16,98787,List2A,black,man,,,,null,,,,
11032,,,survey-text,411,2116221,0.0-19.0-3.16,98787,List2A,black,man,,,,,"{""Q0"":""Ruth is flirting with Kate""}","<img src=""stim_listA/flirt7.gif""style=""height:400px;""></stim_listA>",is flirting with,
null,"<div style=""font-size:60px;"">+</div>",,html-keyboard-response,412,2116723,0.0-19.0-0.17,98787,List2A,black,man,,,,null,,,,
null,"<img src=""stim_listA/talk3.gif""style=""height:400px;""></stim_listA>",,html-keyboard-response,413,2118725,0.0-19.0-1.17,98787,List2A,black,man,,,,null,,,,
null,is talking to,,html-keyboard-response,414,2120726,0.0-19.0-2.17,98787,List2A,black,man,,,,null,,,,
7539,,,survey-text,415,2128267,0.0-19.0-3.17,98787,List2A,black,man,,,,,"{""Q0"":""Fred is talking to Kate""}","<img src=""stim_listA/talk3.gif""style=""height:400px;""></stim_listA>",is talking to,
null,"<div style=""font-size:60px;"">+</div>",,html-keyboard-response,416,2128769,0.0-19.0-0.18,98787,List2A,black,man,,,,null,,,,
null,"<img src=""stim_listA/touch6.gif""style=""height:400px;""></stim_listA>",,html-keyboard-response,417,2130770,0.0-19.0-1.18,98787,List2A,black,man,,,,null,,,,
null,are touching each other,,html-keyboard-response,418,2132772,0.0-19.0-2.18,98787,List2A,black,man,,,,null,,,,
11713,,,survey-text,419,2144487,0.0-19.0-3.18,98787,List2A,black,man,,,,,"{""Q0"":""Fred and Luke are touching each other""}","<img src=""stim_listA/touch6.gif""style=""height:400px;""></stim_listA>",are touching each other,
null,"<div style=""font-size:60px;"">+</div>",,html-keyboard-response,420,2144990,0.0-19.0-0.19,98787,List2A,black,man,,,,null,,,,
null,"<img src=""stim_listA/talk6.gif""style=""height:400px;""></stim_listA>",,html-keyboard-response,421,2146992,0.0-19.0-1.19,98787,List2A,black,man,,,,null,,,,
null,are talking to each other,,html-keyboard-response,422,2148993,0.0-19.0-2.19,98787,List2A,black,man,,,,null,,,,
10139,,,survey-text,423,2159134,0.0-19.0-3.19,98787,List2A,black,man,,,,,"{""Q0"":""Fred and Dave are talking to each other""}","<img src=""stim_listA/talk6.gif""style=""height:400px;""></stim_listA>",are talking to each other,
4743,<p>Thank you for completing that task.</p><p>The final part of this session is a short questionnaire.</p><p>Press Continue.</p>,0,html-button-response,424,2163880,0.0-20.0,98787,List2A,black,man,,,,,,,,
24779,,,survey-text,425,2189664,0.0-21.0,98787,List2A,black,man,,,,,"{""Q0"":""34"",""Q1"":""English"",""Q2"":""English"",""Q3"":""Canada"",""Q4"":""Black"",""Q5"":""Male""}",,,demographics
10662,,,survey-likert,426,2200352,0.0-22.0,98787,List2A,black,man,,,,,"{""Q0"":4}",,,likert_ESS
8672,,,survey-likert,427,2209029,0.0-23.0,98787,List2A,black,man,,,,,"{""Q0"":4}",,,likert_NSSAL_Q1
4815,,,survey-likert,428,2213848,0.0-24.0,98787,List2A,black,man,,,,,"{""Q0"":4}",,,likert_NSSAL_Q2
5280,,,survey-likert,429,2219133,0.0-25.0,98787,List2A,black,man,,,,,"{""Q0"":4}",,,likert_CGRS_Q1
4712,,,survey-likert,430,2223848,0.0-26.0,98787,List2A,black,man,,,,,"{""Q0"":4}",,,likert_CGRS_Q2
4940,,,survey-likert,431,2228792,0.0-27.0,98787,List2A,black,man,,,,,"{""Q0"":4}",,,likert_CGRS_Q3
16012,,,survey-text,432,2244808,0.0-28.0,98787,List2A,black,man,,,,,"{""Q0"":""ccc""}",,,worker_id
154349,,,external-html,433,2399417,0.0-29.0,98787,List2A,black,man,debrief.html,,,,,,,
