rt,stimulus,button_pressed,trial_type,trial_index,time_elapsed,internal_node_id,subject,list,ppt_race,ppt_gender,url,first_guess,correct,key_press,responses,image_type,phrase_type,test_part
4404,Welcome to the experiment. Press Continue to begin.,0,html-button-response,0,4408,0.0-0.0,99047,List2A,black,woman,,,,,,,,
53009,,,external-html,1,58512,0.0-1.0,99047,List2A,black,woman,consent.html,,,,,,,
22368,"<p>On the next page, you will see portraits of 8 people and their names.</p><p>Your first task is to take a few minutes to memorise the names of these people.</p><p>You will have to recall their names during the rest of the experiment, so it is</p><p>essential that you try to memorise these people and their names as best as you can.</p><br><p><strong>You will then be tested on your memory of these names and portraits.</strong></p><br><p>The experiment will start after you have completed this memory test.</p><br><p>Ready?</p>",0,html-button-response,2,80882,0.0-2.0,99047,List2A,black,woman,,,,,,,,
41960,"<img src='img/portrait_matrix_list2.jpg' style='width:900px;height:500px;''></img><p>If you have memorised all the portraits and names and are ready to start, press Continue.</p><p><strong>Please note: Your memory of these faces will be tested 4 times during this experiment.</strong></p>",0,html-button-response,3,123847,0.0-3.0-0.0,99047,List2A,black,woman,,,,,,,,
5425,"<img src=""portrait/BW1.jpg""style=""height:400px;""></img>",0,html-button-response,4,130276,0.0-3.0-1.0,99047,List2A,black,woman,,TRUE,0,,,,,
null,CORRECT,,html-keyboard-response,5,131782,0.0-3.0-2.0-0.0,99047,List2A,black,woman,,,,null,,,,
3102,"<img src=""portrait/BM2.jpg""style=""height:400px;""></img>",5,html-button-response,6,134886,0.0-3.0-4.0,99047,List2A,black,woman,,TRUE,5,,,,,
null,CORRECT,,html-keyboard-response,7,136410,0.0-3.0-5.0-0.0,99047,List2A,black,woman,,,,null,,,,
1984,"<img src=""portrait/BW2.jpg""style=""height:400px;""></img>",3,html-button-response,8,138397,0.0-3.0-7.0,99047,List2A,black,woman,,TRUE,2,,,,,
5179,"<img src=""portrait/BW2.jpg""style=""height:400px;""></img>",2,html-button-response,9,144581,0.0-3.0-9.0-0.0,99047,List2A,black,woman,,FALSE,2,,,,,
null,CORRECT,,html-keyboard-response,10,146086,0.0-3.0-9.0-1.0-0.0,99047,List2A,black,woman,,,,null,,,,
2578,"<img src=""portrait/WW1.jpg""style=""height:400px;""></img>",3,html-button-response,11,148667,0.0-3.0-10.0,99047,List2A,black,woman,,TRUE,1,,,,,
2549,"<img src=""portrait/WW1.jpg""style=""height:400px;""></img>",1,html-button-response,12,152220,0.0-3.0-12.0-0.0,99047,List2A,black,woman,,FALSE,1,,,,,
null,CORRECT,,html-keyboard-response,13,153723,0.0-3.0-12.0-1.0-0.0,99047,List2A,black,woman,,,,null,,,,
7289,"<img src=""portrait/WW2.jpg""style=""height:400px;""></img>",3,html-button-response,14,161015,0.0-3.0-13.0,99047,List2A,black,woman,,TRUE,3,,,,,
null,CORRECT,,html-keyboard-response,15,162518,0.0-3.0-14.0-0.0,99047,List2A,black,woman,,,,null,,,,
5122,"<img src=""portrait/WM2.jpg""style=""height:400px;""></img>",7,html-button-response,16,167643,0.0-3.0-16.0,99047,List2A,black,woman,,TRUE,7,,,,,
null,CORRECT,,html-keyboard-response,17,169146,0.0-3.0-17.0-0.0,99047,List2A,black,woman,,,,null,,,,
6861,"<img src=""portrait/WM1.jpg""style=""height:400px;""></img>",6,html-button-response,18,176011,0.0-3.0-19.0,99047,List2A,black,woman,,TRUE,6,,,,,
null,CORRECT,,html-keyboard-response,19,177516,0.0-3.0-20.0-0.0,99047,List2A,black,woman,,,,null,,,,
7280,"<img src=""portrait/BM1.jpg""style=""height:400px;""></img>",5,html-button-response,20,184798,0.0-3.0-22.0,99047,List2A,black,woman,,TRUE,4,,,,,
1452,"<img src=""portrait/BM1.jpg""style=""height:400px;""></img>",4,html-button-response,21,187253,0.0-3.0-24.0-0.0,99047,List2A,black,woman,,FALSE,4,,,,,
null,CORRECT,,html-keyboard-response,22,188758,0.0-3.0-24.0-1.0-0.0,99047,List2A,black,woman,,,,null,,,,
2303,<p>You got 5 out of 8 right first time. Press Continue.</p>,0,html-button-response,23,191064,0.0-3.0-25.0,99047,List2A,black,woman,,,,,,,,
3231,"As you did not score 100%, the memory game will repeat. Press Continue.",0,html-button-response,24,195297,0.0-3.0-26.0-0.0,99047,List2A,black,woman,,,,,,,,
14148,"<img src='img/portrait_matrix_list2.jpg' style='width:900px;height:500px;''></img><p>If you have memorised all the portraits and names and are ready to start, press Continue.</p><p><strong>Please note: Your memory of these faces will be tested 4 times during this experiment.</strong></p>",0,html-button-response,25,210452,0.0-3.1-0.1,99047,List2A,black,woman,,,,,,,,
4076,"<img src=""portrait/BW1.jpg""style=""height:400px;""></img>",0,html-button-response,26,215531,0.0-3.1-1.1,99047,List2A,black,woman,,TRUE,0,,,,,
null,CORRECT,,html-keyboard-response,27,217035,0.0-3.1-2.1-0.1,99047,List2A,black,woman,,,,null,,,,
3108,"<img src=""portrait/BM2.jpg""style=""height:400px;""></img>",5,html-button-response,28,220146,0.0-3.1-4.1,99047,List2A,black,woman,,TRUE,5,,,,,
null,CORRECT,,html-keyboard-response,29,221650,0.0-3.1-5.1-0.1,99047,List2A,black,woman,,,,null,,,,
3490,"<img src=""portrait/BW2.jpg""style=""height:400px;""></img>",2,html-button-response,30,225143,0.0-3.1-7.1,99047,List2A,black,woman,,TRUE,2,,,,,
null,CORRECT,,html-keyboard-response,31,226648,0.0-3.1-8.1-0.1,99047,List2A,black,woman,,,,null,,,,
9109,"<img src=""portrait/WW1.jpg""style=""height:400px;""></img>",1,html-button-response,32,235760,0.0-3.1-10.1,99047,List2A,black,woman,,TRUE,1,,,,,
null,CORRECT,,html-keyboard-response,33,237264,0.0-3.1-11.1-0.1,99047,List2A,black,woman,,,,null,,,,
3026,"<img src=""portrait/WW2.jpg""style=""height:400px;""></img>",3,html-button-response,34,240292,0.0-3.1-13.1,99047,List2A,black,woman,,TRUE,3,,,,,
null,CORRECT,,html-keyboard-response,35,241796,0.0-3.1-14.1-0.1,99047,List2A,black,woman,,,,null,,,,
2608,"<img src=""portrait/WM2.jpg""style=""height:400px;""></img>",7,html-button-response,36,244405,0.0-3.1-16.1,99047,List2A,black,woman,,TRUE,7,,,,,
null,CORRECT,,html-keyboard-response,37,246048,0.0-3.1-17.1-0.1,99047,List2A,black,woman,,,,null,,,,
4797,"<img src=""portrait/WM1.jpg""style=""height:400px;""></img>",6,html-button-response,38,250848,0.0-3.1-19.1,99047,List2A,black,woman,,TRUE,6,,,,,
null,CORRECT,,html-keyboard-response,39,252354,0.0-3.1-20.1-0.1,99047,List2A,black,woman,,,,null,,,,
2802,"<img src=""portrait/BM1.jpg""style=""height:400px;""></img>",4,html-button-response,40,255160,0.0-3.1-22.1,99047,List2A,black,woman,,TRUE,4,,,,,
null,CORRECT,,html-keyboard-response,41,256665,0.0-3.1-23.1-0.1,99047,List2A,black,woman,,,,null,,,,
2043,<p>You got 8 out of 8 right first time. Press Continue.</p>,0,html-button-response,42,258711,0.0-3.1-25.1,99047,List2A,black,woman,,,,,,,,
28957,"<p>In this experiment, you will view photographs of the people from the memory game interacting.</p><p>By using the <strong>exact</strong> phrase given <i>after</i> the photograph appears and recalling the correct names of the people in the photographs, form a sentence describing the interaction. You do not need to capitalise names.</p><p>Type your answer in the space provided. Please complete every sentence before moving onto the next trial.</p><p>You will only have a few seconds to memorise each given photograph and phrase before you can respond, so try your best to focus.</p><p>An example is given below. Press 'Continue' when you are ready.</p><img src='img/speaking_example.jpg' style='width:800px;height:460px;''></img>",0,html-button-response,43,288671,0.0-4.0,99047,List2A,black,woman,,,,,,,,
4541,"<p>Before the experiment starts, you will watch two example trials. Press 'Continue'.</p>",0,html-button-response,44,294214,0.0-5.0,99047,List2A,black,woman,,,,,,,,
null,<img src='img/meet_eg.gif' style='height:400px;''></img>,,html-keyboard-response,45,297219,0.0-6.0,99047,List2A,black,woman,,,,null,,,,
null,<p>is meeting</p>,,html-keyboard-response,46,299221,0.0-7.0,99047,List2A,black,woman,,,,null,,,,
3896,<p><b>Answer:</b> jane is meeting ruth</p>,0,html-button-response,47,303119,0.0-8.0,99047,List2A,black,woman,,,,,,,,
null,<img src='img/look_eg.gif' style='height:400px;''></img>,,html-keyboard-response,48,306263,0.0-9.0,99047,List2A,black,woman,,,,null,,,,
null,<p>are looking at each other</p>,,html-keyboard-response,49,308264,0.0-10.0,99047,List2A,black,woman,,,,null,,,,
3809,<p><b>Answer:</b> fred and mike are looking at each other</p>,0,html-button-response,50,312074,0.0-11.0,99047,List2A,black,woman,,,,,,,,
11048,"<p>Ready to start the experiment?</p><br><p><strong>Remember to describe the picture using a full sentence,</strong></p><p><strong>that combines the names of the people with the <i>exact</i> phrase given.</strong></p><p><strong>To receive full payment you must do this correctly.</strong></p><p><strong> You do not need to capitalise names or use punctuation.</strong></p><br><p>Press 'Continue' to begin.</p>",0,html-button-response,51,324124,0.0-12.0,99047,List2A,black,woman,,,,,,,,
null,"<div style=""font-size:60px;"">+</div>",,html-keyboard-response,52,325627,0.0-13.0-0.0,99047,List2A,black,woman,,,,null,,,,
null,"<img src=""stim_listA/talk4.gif""style=""height:400px;""></stim_listA>",,html-keyboard-response,53,327629,0.0-13.0-1.0,99047,List2A,black,woman,,,,null,,,,
null,are talking to each other,,html-keyboard-response,54,329631,0.0-13.0-2.0,99047,List2A,black,woman,,,,null,,,,
18862,,,survey-text,55,348493,0.0-13.0-3.0,99047,List2A,black,woman,,,,,"{""Q0"":""beth is talking to mike""}","<img src=""stim_listA/talk4.gif""style=""height:400px;""></stim_listA>",are talking to each other,
null,"<div style=""font-size:60px;"">+</div>",,html-keyboard-response,56,348996,0.0-13.0-0.1,99047,List2A,black,woman,,,,null,,,,
null,"<img src=""stim_listA/play7.gif""style=""height:400px;""></stim_listA>",,html-keyboard-response,57,350998,0.0-13.0-1.1,99047,List2A,black,woman,,,,null,,,,
null,is playing with,,html-keyboard-response,58,353000,0.0-13.0-2.1,99047,List2A,black,woman,,,,null,,,,
14647,,,survey-text,59,367649,0.0-13.0-3.1,99047,List2A,black,woman,,,,,"{""Q0"":""jane is playing with kate""}","<img src=""stim_listA/play7.gif""style=""height:400px;""></stim_listA>",is playing with,
null,"<div style=""font-size:60px;"">+</div>",,html-keyboard-response,60,368151,0.0-13.0-0.2,99047,List2A,black,woman,,,,null,,,,
null,"<img src=""stim_listA/dance1.gif""style=""height:400px;""></stim_listA>",,html-keyboard-response,61,370154,0.0-13.0-1.2,99047,List2A,black,woman,,,,null,,,,
null,is dancing with,,html-keyboard-response,62,372155,0.0-13.0-2.2,99047,List2A,black,woman,,,,null,,,,
18004,,,survey-text,63,390161,0.0-13.0-3.2,99047,List2A,black,woman,,,,,"{""Q0"":""luke is dancing with jane""}","<img src=""stim_listA/dance1.gif""style=""height:400px;""></stim_listA>",is dancing with,
null,"<div style=""font-size:60px;"">+</div>",,html-keyboard-response,64,390663,0.0-13.0-0.3,99047,List2A,black,woman,,,,null,,,,
null,"<img src=""stim_listA/dance2.gif""style=""height:400px;""></stim_listA>",,html-keyboard-response,65,392664,0.0-13.0-1.3,99047,List2A,black,woman,,,,null,,,,
null,are dancing with each other,,html-keyboard-response,66,394667,0.0-13.0-2.3,99047,List2A,black,woman,,,,null,,,,
18465,,,survey-text,67,413134,0.0-13.0-3.3,99047,List2A,black,woman,,,,,"{""Q0"":""dave is dancing with ruth""}","<img src=""stim_listA/dance2.gif""style=""height:400px;""></stim_listA>",are dancing with each other,
null,"<div style=""font-size:60px;"">+</div>",,html-keyboard-response,68,413637,0.0-13.0-0.4,99047,List2A,black,woman,,,,null,,,,
null,"<img src=""stim_listA/shout7.gif""style=""height:400px;""></stim_listA>",,html-keyboard-response,69,415638,0.0-13.0-1.4,99047,List2A,black,woman,,,,null,,,,
null,is shouting at,,html-keyboard-response,70,417639,0.0-13.0-2.4,99047,List2A,black,woman,,,,null,,,,
8452,,,survey-text,71,426093,0.0-13.0-3.4,99047,List2A,black,woman,,,,,"{""Q0"":""ruth is shouting at beth""}","<img src=""stim_listA/shout7.gif""style=""height:400px;""></stim_listA>",is shouting at,
null,"<div style=""font-size:60px;"">+</div>",,html-keyboard-response,72,426595,0.0-13.0-0.5,99047,List2A,black,woman,,,,null,,,,
null,"<img src=""stim_listA/marry6.gif""style=""height:400px;""></stim_listA>",,html-keyboard-response,73,428629,0.0-13.0-1.5,99047,List2A,black,woman,,,,null,,,,
null,are marrying each other,,html-keyboard-response,74,430631,0.0-13.0-2.5,99047,List2A,black,woman,,,,null,,,,
22982,,,survey-text,75,453614,0.0-13.0-3.5,99047,List2A,black,woman,,,,,"{""Q0"":""luke and mike are marrying each other""}","<img src=""stim_listA/marry6.gif""style=""height:400px;""></stim_listA>",are marrying each other,
null,"<div style=""font-size:60px;"">+</div>",,html-keyboard-response,76,454117,0.0-13.0-0.6,99047,List2A,black,woman,,,,null,,,,
null,"<img src=""stim_listA/talk5.gif""style=""height:400px;""></stim_listA>",,html-keyboard-response,77,456120,0.0-13.0-1.6,99047,List2A,black,woman,,,,null,,,,
null,is talking to,,html-keyboard-response,78,458122,0.0-13.0-2.6,99047,List2A,black,woman,,,,null,,,,
13818,,,survey-text,79,471942,0.0-13.0-3.6,99047,List2A,black,woman,,,,,"{""Q0"":""luke is talking to mike""}","<img src=""stim_listA/talk5.gif""style=""height:400px;""></stim_listA>",is talking to,
null,"<div style=""font-size:60px;"">+</div>",,html-keyboard-response,80,472443,0.0-13.0-0.7,99047,List2A,black,woman,,,,null,,,,
null,"<img src=""stim_listA/flirt2.gif""style=""height:400px;""></stim_listA>",,html-keyboard-response,81,474446,0.0-13.0-1.7,99047,List2A,black,woman,,,,null,,,,
null,are flirting with each other,,html-keyboard-response,82,476448,0.0-13.0-2.7,99047,List2A,black,woman,,,,null,,,,
16459,,,survey-text,83,492909,0.0-13.0-3.7,99047,List2A,black,woman,,,,,"{""Q0"":""ruth and dave are flirting with each other""}","<img src=""stim_listA/flirt2.gif""style=""height:400px;""></stim_listA>",are flirting with each other,
null,"<div style=""font-size:60px;"">+</div>",,html-keyboard-response,84,493411,0.0-13.0-0.8,99047,List2A,black,woman,,,,null,,,,
null,"<img src=""stim_listA/marry1.gif""style=""height:400px;""></stim_listA>",,html-keyboard-response,85,495415,0.0-13.0-1.8,99047,List2A,black,woman,,,,null,,,,
null,is marrying,,html-keyboard-response,86,497415,0.0-13.0-2.8,99047,List2A,black,woman,,,,null,,,,
6801,,,survey-text,87,504218,0.0-13.0-3.8,99047,List2A,black,woman,,,,,"{""Q0"":""ruth is marrying dave""}","<img src=""stim_listA/marry1.gif""style=""height:400px;""></stim_listA>",is marrying,
null,"<div style=""font-size:60px;"">+</div>",,html-keyboard-response,88,504719,0.0-13.0-0.9,99047,List2A,black,woman,,,,null,,,,
null,"<img src=""stim_listA/dance8.gif""style=""height:400px;""></stim_listA>",,html-keyboard-response,89,506721,0.0-13.0-1.9,99047,List2A,black,woman,,,,null,,,,
null,are dancing with each other,,html-keyboard-response,90,508723,0.0-13.0-2.9,99047,List2A,black,woman,,,,null,,,,
14439,,,survey-text,91,523164,0.0-13.0-3.9,99047,List2A,black,woman,,,,,"{""Q0"":""beth and jane are dancing with each other""}","<img src=""stim_listA/dance8.gif""style=""height:400px;""></stim_listA>",are dancing with each other,
null,"<div style=""font-size:60px;"">+</div>",,html-keyboard-response,92,523666,0.0-13.0-0.10,99047,List2A,black,woman,,,,null,,,,
null,"<img src=""stim_listA/shout5.gif""style=""height:400px;""></stim_listA>",,html-keyboard-response,93,525670,0.0-13.0-1.10,99047,List2A,black,woman,,,,null,,,,
null,is shouting at,,html-keyboard-response,94,527673,0.0-13.0-2.10,99047,List2A,black,woman,,,,null,,,,
19655,,,survey-text,95,547329,0.0-13.0-3.10,99047,List2A,black,woman,,,,,"{""Q0"":""fred is shouting at luke""}","<img src=""stim_listA/shout5.gif""style=""height:400px;""></stim_listA>",is shouting at,
null,"<div style=""font-size:60px;"">+</div>",,html-keyboard-response,96,547831,0.0-13.0-0.11,99047,List2A,black,woman,,,,null,,,,
null,"<img src=""stim_listA/flirt7.gif""style=""height:400px;""></stim_listA>",,html-keyboard-response,97,549833,0.0-13.0-1.11,99047,List2A,black,woman,,,,null,,,,
null,is flirting with,,html-keyboard-response,98,551835,0.0-13.0-2.11,99047,List2A,black,woman,,,,null,,,,
12266,,,survey-text,99,564101,0.0-13.0-3.11,99047,List2A,black,woman,,,,,"{""Q0"":""ruth is flirting with jane""}","<img src=""stim_listA/flirt7.gif""style=""height:400px;""></stim_listA>",is flirting with,
null,"<div style=""font-size:60px;"">+</div>",,html-keyboard-response,100,564603,0.0-13.0-0.12,99047,List2A,black,woman,,,,null,,,,
null,"<img src=""stim_listA/fight8.gif""style=""height:400px;""></stim_listA>",,html-keyboard-response,101,566606,0.0-13.0-1.12,99047,List2A,black,woman,,,,null,,,,
null,are fighting each other,,html-keyboard-response,102,568608,0.0-13.0-2.12,99047,List2A,black,woman,,,,null,,,,
29263,,,survey-text,103,597872,0.0-13.0-3.12,99047,List2A,black,woman,,,,,"{""Q0"":""ruth and kate are fighting each other""}","<img src=""stim_listA/fight8.gif""style=""height:400px;""></stim_listA>",are fighting each other,
null,"<div style=""font-size:60px;"">+</div>",,html-keyboard-response,104,598374,0.0-13.0-0.13,99047,List2A,black,woman,,,,null,,,,
null,"<img src=""stim_listA/talk8.gif""style=""height:400px;""></stim_listA>",,html-keyboard-response,105,600375,0.0-13.0-1.13,99047,List2A,black,woman,,,,null,,,,
null,are talking to each other,,html-keyboard-response,106,602377,0.0-13.0-2.13,99047,List2A,black,woman,,,,null,,,,
12136,,,survey-text,107,614514,0.0-13.0-3.13,99047,List2A,black,woman,,,,,"{""Q0"":""beth and jane are talking to each other""}","<img src=""stim_listA/talk8.gif""style=""height:400px;""></stim_listA>",are talking to each other,
null,"<div style=""font-size:60px;"">+</div>",,html-keyboard-response,108,615017,0.0-13.0-0.14,99047,List2A,black,woman,,,,null,,,,
null,"<img src=""stim_listA/talk2.gif""style=""height:400px;""></stim_listA>",,html-keyboard-response,109,617020,0.0-13.0-1.14,99047,List2A,black,woman,,,,null,,,,
null,are talking to each other,,html-keyboard-response,110,619022,0.0-13.0-2.14,99047,List2A,black,woman,,,,null,,,,
20582,,,survey-text,111,639606,0.0-13.0-3.14,99047,List2A,black,woman,,,,,"{""Q0"":""ruth and dave are talking to each over""}","<img src=""stim_listA/talk2.gif""style=""height:400px;""></stim_listA>",are talking to each other,
null,"<div style=""font-size:60px;"">+</div>",,html-keyboard-response,112,640109,0.0-13.0-0.15,99047,List2A,black,woman,,,,null,,,,
null,"<img src=""stim_listA/fight4.gif""style=""height:400px;""></stim_listA>",,html-keyboard-response,113,642114,0.0-13.0-1.15,99047,List2A,black,woman,,,,null,,,,
null,are fighting each other,,html-keyboard-response,114,644118,0.0-13.0-2.15,99047,List2A,black,woman,,,,null,,,,
13165,,,survey-text,115,657285,0.0-13.0-3.15,99047,List2A,black,woman,,,,,"{""Q0"":""fred and beth are fighting each other""}","<img src=""stim_listA/fight4.gif""style=""height:400px;""></stim_listA>",are fighting each other,
null,"<div style=""font-size:60px;"">+</div>",,html-keyboard-response,116,657788,0.0-13.0-0.16,99047,List2A,black,woman,,,,null,,,,
null,"<img src=""stim_listA/argue5.gif""style=""height:400px;""></stim_listA>",,html-keyboard-response,117,659791,0.0-13.0-1.16,99047,List2A,black,woman,,,,null,,,,
null,is arguing with,,html-keyboard-response,118,661793,0.0-13.0-2.16,99047,List2A,black,woman,,,,null,,,,
13542,,,survey-text,119,675337,0.0-13.0-3.16,99047,List2A,black,woman,,,,,"{""Q0"":""dave is arguing with fred""}","<img src=""stim_listA/argue5.gif""style=""height:400px;""></stim_listA>",is arguing with,
null,"<div style=""font-size:60px;"">+</div>",,html-keyboard-response,120,675839,0.0-13.0-0.17,99047,List2A,black,woman,,,,null,,,,
null,"<img src=""stim_listA/argue4.gif""style=""height:400px;""></stim_listA>",,html-keyboard-response,121,677842,0.0-13.0-1.17,99047,List2A,black,woman,,,,null,,,,
null,are arguing with each other,,html-keyboard-response,122,679844,0.0-13.0-2.17,99047,List2A,black,woman,,,,null,,,,
17088,,,survey-text,123,696934,0.0-13.0-3.17,99047,List2A,black,woman,,,,,"{""Q0"":""jane and fred are arguing wit each other""}","<img src=""stim_listA/argue4.gif""style=""height:400px;""></stim_listA>",are arguing with each other,
null,"<div style=""font-size:60px;"">+</div>",,html-keyboard-response,124,697436,0.0-13.0-0.18,99047,List2A,black,woman,,,,null,,,,
null,"<img src=""stim_listA/dance6.gif""style=""height:400px;""></stim_listA>",,html-keyboard-response,125,699439,0.0-13.0-1.18,99047,List2A,black,woman,,,,null,,,,
null,are dancing with each other,,html-keyboard-response,126,701440,0.0-13.0-2.18,99047,List2A,black,woman,,,,null,,,,
13494,,,survey-text,127,714936,0.0-13.0-3.18,99047,List2A,black,woman,,,,,"{""Q0"":""fred and dave are dancing with each other""}","<img src=""stim_listA/dance6.gif""style=""height:400px;""></stim_listA>",are dancing with each other,
null,"<div style=""font-size:60px;"">+</div>",,html-keyboard-response,128,715438,0.0-13.0-0.19,99047,List2A,black,woman,,,,null,,,,
null,"<img src=""stim_listA/dance3.gif""style=""height:400px;""></stim_listA>",,html-keyboard-response,129,717440,0.0-13.0-1.19,99047,List2A,black,woman,,,,null,,,,
null,is dancing with,,html-keyboard-response,130,719443,0.0-13.0-2.19,99047,List2A,black,woman,,,,null,,,,
11186,,,survey-text,131,730631,0.0-13.0-3.19,99047,List2A,black,woman,,,,,"{""Q0"":""kate is dancing with fred""}","<img src=""stim_listA/dance3.gif""style=""height:400px;""></stim_listA>",is dancing with,
5011,"<img src='img/portrait_matrix_list2.jpg' style='width:900px;height:500px;''></img><p>If you have memorised all the portraits and names and are ready to start, press Continue.</p><p><strong>Please note: Your memory of these faces will be tested 4 times during this experiment.</strong></p>",0,html-button-response,132,735643,0.0-14.0-0.0,99047,List2A,black,woman,,,,,,,,
3174,"<img src=""portrait/WM2.jpg""style=""height:400px;""></img>",7,html-button-response,133,739821,0.0-14.0-1.0,99047,List2A,black,woman,,TRUE,7,,,,,
null,CORRECT,,html-keyboard-response,134,741326,0.0-14.0-2.0-0.0,99047,List2A,black,woman,,,,null,,,,
3355,"<img src=""portrait/BW2.jpg""style=""height:400px;""></img>",2,html-button-response,135,744684,0.0-14.0-4.0,99047,List2A,black,woman,,TRUE,2,,,,,
null,CORRECT,,html-keyboard-response,136,746189,0.0-14.0-5.0-0.0,99047,List2A,black,woman,,,,null,,,,
2619,"<img src=""portrait/BM2.jpg""style=""height:400px;""></img>",5,html-button-response,137,748811,0.0-14.0-7.0,99047,List2A,black,woman,,TRUE,5,,,,,
null,CORRECT,,html-keyboard-response,138,750316,0.0-14.0-8.0-0.0,99047,List2A,black,woman,,,,null,,,,
1933,"<img src=""portrait/WW2.jpg""style=""height:400px;""></img>",3,html-button-response,139,752252,0.0-14.0-10.0,99047,List2A,black,woman,,TRUE,3,,,,,
null,CORRECT,,html-keyboard-response,140,753757,0.0-14.0-11.0-0.0,99047,List2A,black,woman,,,,null,,,,
2139,"<img src=""portrait/WW1.jpg""style=""height:400px;""></img>",1,html-button-response,141,755899,0.0-14.0-13.0,99047,List2A,black,woman,,TRUE,1,,,,,
null,CORRECT,,html-keyboard-response,142,757402,0.0-14.0-14.0-0.0,99047,List2A,black,woman,,,,null,,,,
4641,"<img src=""portrait/WM1.jpg""style=""height:400px;""></img>",6,html-button-response,143,762044,0.0-14.0-16.0,99047,List2A,black,woman,,TRUE,6,,,,,
null,CORRECT,,html-keyboard-response,144,763547,0.0-14.0-17.0-0.0,99047,List2A,black,woman,,,,null,,,,
4900,"<img src=""portrait/BW1.jpg""style=""height:400px;""></img>",0,html-button-response,145,768450,0.0-14.0-19.0,99047,List2A,black,woman,,TRUE,0,,,,,
null,CORRECT,,html-keyboard-response,146,769953,0.0-14.0-20.0-0.0,99047,List2A,black,woman,,,,null,,,,
4411,"<img src=""portrait/BM1.jpg""style=""height:400px;""></img>",4,html-button-response,147,774367,0.0-14.0-22.0,99047,List2A,black,woman,,TRUE,4,,,,,
null,CORRECT,,html-keyboard-response,148,775870,0.0-14.0-23.0-0.0,99047,List2A,black,woman,,,,null,,,,
1575,<p>You got 8 out of 8 right first time. Press Continue.</p>,0,html-button-response,149,777447,0.0-14.0-25.0,99047,List2A,black,woman,,,,,,,,
null,"<div style=""font-size:60px;"">+</div>",,html-keyboard-response,150,778951,0.0-15.0-0.0,99047,List2A,black,woman,,,,null,,,,
null,"<img src=""stim_listA/touch8.gif""style=""height:400px;""></stim_listA>",,html-keyboard-response,151,780954,0.0-15.0-1.0,99047,List2A,black,woman,,,,null,,,,
null,are touching each other,,html-keyboard-response,152,782957,0.0-15.0-2.0,99047,List2A,black,woman,,,,null,,,,
16233,,,survey-text,153,799191,0.0-15.0-3.0,99047,List2A,black,woman,,,,,"{""Q0"":""ruth and beth are touching each other""}","<img src=""stim_listA/touch8.gif""style=""height:400px;""></stim_listA>",are touching each other,
null,"<div style=""font-size:60px;"">+</div>",,html-keyboard-response,154,799695,0.0-15.0-0.1,99047,List2A,black,woman,,,,null,,,,
null,"<img src=""stim_listA/dance7.gif""style=""height:400px;""></stim_listA>",,html-keyboard-response,155,801698,0.0-15.0-1.1,99047,List2A,black,woman,,,,null,,,,
null,is dancing with,,html-keyboard-response,156,803700,0.0-15.0-2.1,99047,List2A,black,woman,,,,null,,,,
9093,,,survey-text,157,812795,0.0-15.0-3.1,99047,List2A,black,woman,,,,,"{""Q0"":""jane is dancing with ruth""}","<img src=""stim_listA/dance7.gif""style=""height:400px;""></stim_listA>",is dancing with,
null,"<div style=""font-size:60px;"">+</div>",,html-keyboard-response,158,813299,0.0-15.0-0.2,99047,List2A,black,woman,,,,null,,,,
null,"<img src=""stim_listA/touch7.gif""style=""height:400px;""></stim_listA>",,html-keyboard-response,159,815302,0.0-15.0-1.2,99047,List2A,black,woman,,,,null,,,,
null,is touching,,html-keyboard-response,160,817304,0.0-15.0-2.2,99047,List2A,black,woman,,,,null,,,,
12428,,,survey-text,161,829734,0.0-15.0-3.2,99047,List2A,black,woman,,,,,"{""Q0"":""jane is touching kate""}","<img src=""stim_listA/touch7.gif""style=""height:400px;""></stim_listA>",is touching,
null,"<div style=""font-size:60px;"">+</div>",,html-keyboard-response,162,830237,0.0-15.0-0.3,99047,List2A,black,woman,,,,null,,,,
null,"<img src=""stim_listA/touch5.gif""style=""height:400px;""></stim_listA>",,html-keyboard-response,163,832241,0.0-15.0-1.3,99047,List2A,black,woman,,,,null,,,,
null,is touching,,html-keyboard-response,164,834243,0.0-15.0-2.3,99047,List2A,black,woman,,,,null,,,,
6874,,,survey-text,165,841120,0.0-15.0-3.3,99047,List2A,black,woman,,,,,"{""Q0"":""dave is touching mike""}","<img src=""stim_listA/touch5.gif""style=""height:400px;""></stim_listA>",is touching,
null,"<div style=""font-size:60px;"">+</div>",,html-keyboard-response,166,841622,0.0-15.0-0.4,99047,List2A,black,woman,,,,null,,,,
null,"<img src=""stim_listA/argue1.gif""style=""height:400px;""></stim_listA>",,html-keyboard-response,167,843624,0.0-15.0-1.4,99047,List2A,black,woman,,,,null,,,,
null,is arguing with,,html-keyboard-response,168,845627,0.0-15.0-2.4,99047,List2A,black,woman,,,,null,,,,
11100,,,survey-text,169,856730,0.0-15.0-3.4,99047,List2A,black,woman,,,,,"{""Q0"":""ruthis arguing with dave""}","<img src=""stim_listA/argue1.gif""style=""height:400px;""></stim_listA>",is arguing with,
null,"<div style=""font-size:60px;"">+</div>",,html-keyboard-response,170,857234,0.0-15.0-0.5,99047,List2A,black,woman,,,,null,,,,
null,"<img src=""stim_listA/fight6.gif""style=""height:400px;""></stim_listA>",,html-keyboard-response,171,859237,0.0-15.0-1.5,99047,List2A,black,woman,,,,null,,,,
null,are fighting each other,,html-keyboard-response,172,861240,0.0-15.0-2.5,99047,List2A,black,woman,,,,null,,,,
16104,,,survey-text,173,877347,0.0-15.0-3.5,99047,List2A,black,woman,,,,,"{""Q0"":""fred and luke are fighting each other""}","<img src=""stim_listA/fight6.gif""style=""height:400px;""></stim_listA>",are fighting each other,
null,"<div style=""font-size:60px;"">+</div>",,html-keyboard-response,174,877850,0.0-15.0-0.6,99047,List2A,black,woman,,,,null,,,,
null,"<img src=""stim_listA/shout8.gif""style=""height:400px;""></stim_listA>",,html-keyboard-response,175,879853,0.0-15.0-1.6,99047,List2A,black,woman,,,,null,,,,
null,are shouting at each other,,html-keyboard-response,176,881856,0.0-15.0-2.6,99047,List2A,black,woman,,,,null,,,,
17160,,,survey-text,177,899017,0.0-15.0-3.6,99047,List2A,black,woman,,,,,"{""Q0"":""jane and kate are shouting at eachother""}","<img src=""stim_listA/shout8.gif""style=""height:400px;""></stim_listA>",are shouting at each other,
null,"<div style=""font-size:60px;"">+</div>",,html-keyboard-response,178,899521,0.0-15.0-0.7,99047,List2A,black,woman,,,,null,,,,
null,"<img src=""stim_listA/touch6.gif""style=""height:400px;""></stim_listA>",,html-keyboard-response,179,901524,0.0-15.0-1.7,99047,List2A,black,woman,,,,null,,,,
null,are touching each other,,html-keyboard-response,180,903527,0.0-15.0-2.7,99047,List2A,black,woman,,,,null,,,,
15114,,,survey-text,181,918643,0.0-15.0-3.7,99047,List2A,black,woman,,,,,"{""Q0"":""fred and luke are touching each other""}","<img src=""stim_listA/touch6.gif""style=""height:400px;""></stim_listA>",are touching each other,
null,"<div style=""font-size:60px;"">+</div>",,html-keyboard-response,182,919145,0.0-15.0-0.8,99047,List2A,black,woman,,,,null,,,,
null,"<img src=""stim_listA/touch3.gif""style=""height:400px;""></stim_listA>",,html-keyboard-response,183,921148,0.0-15.0-1.8,99047,List2A,black,woman,,,,null,,,,
null,is touching,,html-keyboard-response,184,923151,0.0-15.0-2.8,99047,List2A,black,woman,,,,null,,,,
11370,,,survey-text,185,934522,0.0-15.0-3.8,99047,List2A,black,woman,,,,,"{""Q0"":""mike and kate are touching eah other""}","<img src=""stim_listA/touch3.gif""style=""height:400px;""></stim_listA>",is touching,
null,"<div style=""font-size:60px;"">+</div>",,html-keyboard-response,186,935025,0.0-15.0-0.9,99047,List2A,black,woman,,,,null,,,,
null,"<img src=""stim_listA/marry2.gif""style=""height:400px;""></stim_listA>",,html-keyboard-response,187,937029,0.0-15.0-1.9,99047,List2A,black,woman,,,,null,,,,
null,are marrying each other,,html-keyboard-response,188,939032,0.0-15.0-2.9,99047,List2A,black,woman,,,,null,,,,
156149,,,survey-text,189,1095183,0.0-15.0-3.9,99047,List2A,black,woman,,,,,"{""Q0"":""luke and jane are marrying each other""}","<img src=""stim_listA/marry2.gif""style=""height:400px;""></stim_listA>",are marrying each other,
null,"<div style=""font-size:60px;"">+</div>",,html-keyboard-response,190,1095684,0.0-15.0-0.10,99047,List2A,black,woman,,,,null,,,,
null,"<img src=""stim_listA/play5.gif""style=""height:400px;""></stim_listA>",,html-keyboard-response,191,1097686,0.0-15.0-1.10,99047,List2A,black,woman,,,,null,,,,
null,is playing with,,html-keyboard-response,192,1099689,0.0-15.0-2.10,99047,List2A,black,woman,,,,null,,,,
14689,,,survey-text,193,1114380,0.0-15.0-3.10,99047,List2A,black,woman,,,,,"{""Q0"":""mike is playing with dave""}","<img src=""stim_listA/play5.gif""style=""height:400px;""></stim_listA>",is playing with,
null,"<div style=""font-size:60px;"">+</div>",,html-keyboard-response,194,1114882,0.0-15.0-0.11,99047,List2A,black,woman,,,,null,,,,
null,"<img src=""stim_listA/kiss2.gif""style=""height:400px;""></stim_listA>",,html-keyboard-response,195,1116885,0.0-15.0-1.11,99047,List2A,black,woman,,,,null,,,,
null,are kissing each other,,html-keyboard-response,196,1118885,0.0-15.0-2.11,99047,List2A,black,woman,,,,null,,,,
19243,,,survey-text,197,1138130,0.0-15.0-3.11,99047,List2A,black,woman,,,,,"{""Q0"":""""}","<img src=""stim_listA/kiss2.gif""style=""height:400px;""></stim_listA>",are kissing each other,
null,"<div style=""font-size:60px;"">+</div>",,html-keyboard-response,198,1138633,0.0-15.0-0.12,99047,List2A,black,woman,,,,null,,,,
null,"<img src=""stim_listA/play1.gif""style=""height:400px;""></stim_listA>",,html-keyboard-response,199,1140637,0.0-15.0-1.12,99047,List2A,black,woman,,,,null,,,,
null,is playing with,,html-keyboard-response,200,1142640,0.0-15.0-2.12,99047,List2A,black,woman,,,,null,,,,
11142,,,survey-text,201,1153785,0.0-15.0-3.12,99047,List2A,black,woman,,,,,"{""Q0"":""jane is playing with dave""}","<img src=""stim_listA/play1.gif""style=""height:400px;""></stim_listA>",is playing with,
null,"<div style=""font-size:60px;"">+</div>",,html-keyboard-response,202,1154289,0.0-15.0-0.13,99047,List2A,black,woman,,,,null,,,,
null,"<img src=""stim_listA/marry7.gif""style=""height:400px;""></stim_listA>",,html-keyboard-response,203,1156293,0.0-15.0-1.13,99047,List2A,black,woman,,,,null,,,,
null,is marrying,,html-keyboard-response,204,1158294,0.0-15.0-2.13,99047,List2A,black,woman,,,,null,,,,
13621,,,survey-text,205,1171916,0.0-15.0-3.13,99047,List2A,black,woman,,,,,"{""Q0"":""jane is marrying beth""}","<img src=""stim_listA/marry7.gif""style=""height:400px;""></stim_listA>",is marrying,
null,"<div style=""font-size:60px;"">+</div>",,html-keyboard-response,206,1172419,0.0-15.0-0.14,99047,List2A,black,woman,,,,null,,,,
null,"<img src=""stim_listA/talk7.gif""style=""height:400px;""></stim_listA>",,html-keyboard-response,207,1174423,0.0-15.0-1.14,99047,List2A,black,woman,,,,null,,,,
null,is talking to,,html-keyboard-response,208,1176426,0.0-15.0-2.14,99047,List2A,black,woman,,,,null,,,,
9345,,,survey-text,209,1185772,0.0-15.0-3.14,99047,List2A,black,woman,,,,,"{""Q0"":""ruth is talking to kate""}","<img src=""stim_listA/talk7.gif""style=""height:400px;""></stim_listA>",is talking to,
null,"<div style=""font-size:60px;"">+</div>",,html-keyboard-response,210,1186275,0.0-15.0-0.15,99047,List2A,black,woman,,,,null,,,,
null,"<img src=""stim_listA/fight1.gif""style=""height:400px;""></stim_listA>",,html-keyboard-response,211,1188277,0.0-15.0-1.15,99047,List2A,black,woman,,,,null,,,,
null,is fighting,,html-keyboard-response,212,1190279,0.0-15.0-2.15,99047,List2A,black,woman,,,,null,,,,
6434,,,survey-text,213,1196714,0.0-15.0-3.15,99047,List2A,black,woman,,,,,"{""Q0"":""jane is fighting dave""}","<img src=""stim_listA/fight1.gif""style=""height:400px;""></stim_listA>",is fighting,
null,"<div style=""font-size:60px;"">+</div>",,html-keyboard-response,214,1197217,0.0-15.0-0.16,99047,List2A,black,woman,,,,null,,,,
null,"<img src=""stim_listA/shout6.gif""style=""height:400px;""></stim_listA>",,html-keyboard-response,215,1199221,0.0-15.0-1.16,99047,List2A,black,woman,,,,null,,,,
null,are shouting at each other,,html-keyboard-response,216,1201224,0.0-15.0-2.16,99047,List2A,black,woman,,,,null,,,,
15285,,,survey-text,217,1216510,0.0-15.0-3.16,99047,List2A,black,woman,,,,,"{""Q0"":""mike and dave are shotuing at each other""}","<img src=""stim_listA/shout6.gif""style=""height:400px;""></stim_listA>",are shouting at each other,
null,"<div style=""font-size:60px;"">+</div>",,html-keyboard-response,218,1217013,0.0-15.0-0.17,99047,List2A,black,woman,,,,null,,,,
null,"<img src=""stim_listA/marry5.gif""style=""height:400px;""></stim_listA>",,html-keyboard-response,219,1219017,0.0-15.0-1.17,99047,List2A,black,woman,,,,null,,,,
null,is marrying,,html-keyboard-response,220,1221020,0.0-15.0-2.17,99047,List2A,black,woman,,,,null,,,,
11358,,,survey-text,221,1232379,0.0-15.0-3.17,99047,List2A,black,woman,,,,,"{""Q0"":""dave is marrying fred""}","<img src=""stim_listA/marry5.gif""style=""height:400px;""></stim_listA>",is marrying,
null,"<div style=""font-size:60px;"">+</div>",,html-keyboard-response,222,1232881,0.0-15.0-0.18,99047,List2A,black,woman,,,,null,,,,
null,"<img src=""stim_listA/flirt8.gif""style=""height:400px;""></stim_listA>",,html-keyboard-response,223,1234883,0.0-15.0-1.18,99047,List2A,black,woman,,,,null,,,,
null,are flirting with each other,,html-keyboard-response,224,1236887,0.0-15.0-2.18,99047,List2A,black,woman,,,,null,,,,
12686,,,survey-text,225,1249575,0.0-15.0-3.18,99047,List2A,black,woman,,,,,"{""Q0"":""beth and jane are flirting with each other""}","<img src=""stim_listA/flirt8.gif""style=""height:400px;""></stim_listA>",are flirting with each other,
null,"<div style=""font-size:60px;"">+</div>",,html-keyboard-response,226,1250078,0.0-15.0-0.19,99047,List2A,black,woman,,,,null,,,,
null,"<img src=""stim_listA/argue2.gif""style=""height:400px;""></stim_listA>",,html-keyboard-response,227,1252080,0.0-15.0-1.19,99047,List2A,black,woman,,,,null,,,,
null,are arguing with each other,,html-keyboard-response,228,1254081,0.0-15.0-2.19,99047,List2A,black,woman,,,,null,,,,
24970,,,survey-text,229,1279055,0.0-15.0-3.19,99047,List2A,black,woman,,,,,"{""Q0"":""jane and luke are arguing with each other""}","<img src=""stim_listA/argue2.gif""style=""height:400px;""></stim_listA>",are arguing with each other,
16167,"<img src='img/portrait_matrix_list2.jpg' style='width:900px;height:500px;''></img><p>If you have memorised all the portraits and names and are ready to start, press Continue.</p><p><strong>Please note: Your memory of these faces will be tested 4 times during this experiment.</strong></p>",0,html-button-response,230,1295224,0.0-16.0-0.0,99047,List2A,black,woman,,,,,,,,
6533,"<img src=""portrait/WM1.jpg""style=""height:400px;""></img>",6,html-button-response,231,1302762,0.0-16.0-1.0,99047,List2A,black,woman,,TRUE,6,,,,,
null,CORRECT,,html-keyboard-response,232,1304266,0.0-16.0-2.0-0.0,99047,List2A,black,woman,,,,null,,,,
1676,"<img src=""portrait/WM2.jpg""style=""height:400px;""></img>",7,html-button-response,233,1305945,0.0-16.0-4.0,99047,List2A,black,woman,,TRUE,7,,,,,
null,CORRECT,,html-keyboard-response,234,1307450,0.0-16.0-5.0-0.0,99047,List2A,black,woman,,,,null,,,,
2240,"<img src=""portrait/BM1.jpg""style=""height:400px;""></img>",4,html-button-response,235,1309693,0.0-16.0-7.0,99047,List2A,black,woman,,TRUE,4,,,,,
null,CORRECT,,html-keyboard-response,236,1311198,0.0-16.0-8.0-0.0,99047,List2A,black,woman,,,,null,,,,
5517,"<img src=""portrait/BW2.jpg""style=""height:400px;""></img>",2,html-button-response,237,1316719,0.0-16.0-10.0,99047,List2A,black,woman,,TRUE,2,,,,,
null,CORRECT,,html-keyboard-response,238,1318223,0.0-16.0-11.0-0.0,99047,List2A,black,woman,,,,null,,,,
2842,"<img src=""portrait/WW1.jpg""style=""height:400px;""></img>",1,html-button-response,239,1321068,0.0-16.0-13.0,99047,List2A,black,woman,,TRUE,1,,,,,
null,CORRECT,,html-keyboard-response,240,1322571,0.0-16.0-14.0-0.0,99047,List2A,black,woman,,,,null,,,,
1806,"<img src=""portrait/BW1.jpg""style=""height:400px;""></img>",0,html-button-response,241,1324379,0.0-16.0-16.0,99047,List2A,black,woman,,TRUE,0,,,,,
null,CORRECT,,html-keyboard-response,242,1325884,0.0-16.0-17.0-0.0,99047,List2A,black,woman,,,,null,,,,
1817,"<img src=""portrait/WW2.jpg""style=""height:400px;""></img>",3,html-button-response,243,1327703,0.0-16.0-19.0,99047,List2A,black,woman,,TRUE,3,,,,,
null,CORRECT,,html-keyboard-response,244,1329210,0.0-16.0-20.0-0.0,99047,List2A,black,woman,,,,null,,,,
1699,"<img src=""portrait/BM2.jpg""style=""height:400px;""></img>",5,html-button-response,245,1330912,0.0-16.0-22.0,99047,List2A,black,woman,,TRUE,5,,,,,
null,CORRECT,,html-keyboard-response,246,1332416,0.0-16.0-23.0-0.0,99047,List2A,black,woman,,,,null,,,,
1728,<p>You got 8 out of 8 right first time. Press Continue.</p>,0,html-button-response,247,1334147,0.0-16.0-25.0,99047,List2A,black,woman,,,,,,,,
null,"<div style=""font-size:60px;"">+</div>",,html-keyboard-response,248,1335652,0.0-17.0-0.0,99047,List2A,black,woman,,,,null,,,,
null,"<img src=""stim_listA/marry4.gif""style=""height:400px;""></stim_listA>",,html-keyboard-response,249,1337656,0.0-17.0-1.0,99047,List2A,black,woman,,,,null,,,,
null,are marrying each other,,html-keyboard-response,250,1339658,0.0-17.0-2.0,99047,List2A,black,woman,,,,null,,,,
13762,,,survey-text,251,1353422,0.0-17.0-3.0,99047,List2A,black,woman,,,,,"{""Q0"":""fred and kate are marrying each other""}","<img src=""stim_listA/marry4.gif""style=""height:400px;""></stim_listA>",are marrying each other,
null,"<div style=""font-size:60px;"">+</div>",,html-keyboard-response,252,1353925,0.0-17.0-0.1,99047,List2A,black,woman,,,,null,,,,
null,"<img src=""stim_listA/kiss4.gif""style=""height:400px;""></stim_listA>",,html-keyboard-response,253,1355928,0.0-17.0-1.1,99047,List2A,black,woman,,,,null,,,,
null,are kissing each other,,html-keyboard-response,254,1357929,0.0-17.0-2.1,99047,List2A,black,woman,,,,null,,,,
15685,,,survey-text,255,1373616,0.0-17.0-3.1,99047,List2A,black,woman,,,,,"{""Q0"":""mike and kate are kissing each other""}","<img src=""stim_listA/kiss4.gif""style=""height:400px;""></stim_listA>",are kissing each other,
null,"<div style=""font-size:60px;"">+</div>",,html-keyboard-response,256,1374119,0.0-17.0-0.2,99047,List2A,black,woman,,,,null,,,,
null,"<img src=""stim_listA/kiss6.gif""style=""height:400px;""></stim_listA>",,html-keyboard-response,257,1376122,0.0-17.0-1.2,99047,List2A,black,woman,,,,null,,,,
null,are kissing each other,,html-keyboard-response,258,1378125,0.0-17.0-2.2,99047,List2A,black,woman,,,,null,,,,
9588,,,survey-text,259,1387715,0.0-17.0-3.2,99047,List2A,black,woman,,,,,"{""Q0"":""mike and dave are kissing each other""}","<img src=""stim_listA/kiss6.gif""style=""height:400px;""></stim_listA>",are kissing each other,
null,"<div style=""font-size:60px;"">+</div>",,html-keyboard-response,260,1388217,0.0-17.0-0.3,99047,List2A,black,woman,,,,null,,,,
null,"<img src=""stim_listA/marry3.gif""style=""height:400px;""></stim_listA>",,html-keyboard-response,261,1390221,0.0-17.0-1.3,99047,List2A,black,woman,,,,null,,,,
null,is marrying,,html-keyboard-response,262,1392223,0.0-17.0-2.3,99047,List2A,black,woman,,,,null,,,,
7147,,,survey-text,263,1399371,0.0-17.0-3.3,99047,List2A,black,woman,,,,,"{""Q0"":""mike is marrying beth""}","<img src=""stim_listA/marry3.gif""style=""height:400px;""></stim_listA>",is marrying,
null,"<div style=""font-size:60px;"">+</div>",,html-keyboard-response,264,1399874,0.0-17.0-0.4,99047,List2A,black,woman,,,,null,,,,
null,"<img src=""stim_listA/play2.gif""style=""height:400px;""></stim_listA>",,html-keyboard-response,265,1401878,0.0-17.0-1.4,99047,List2A,black,woman,,,,null,,,,
null,are playing with each other,,html-keyboard-response,266,1403881,0.0-17.0-2.4,99047,List2A,black,woman,,,,null,,,,
15780,,,survey-text,267,1419663,0.0-17.0-3.4,99047,List2A,black,woman,,,,,"{""Q0"":""luke and ruth are playing each other""}","<img src=""stim_listA/play2.gif""style=""height:400px;""></stim_listA>",are playing with each other,
null,"<div style=""font-size:60px;"">+</div>",,html-keyboard-response,268,1420166,0.0-17.0-0.5,99047,List2A,black,woman,,,,null,,,,
null,"<img src=""stim_listA/flirt5.gif""style=""height:400px;""></stim_listA>",,html-keyboard-response,269,1422169,0.0-17.0-1.5,99047,List2A,black,woman,,,,null,,,,
null,is flirting with,,html-keyboard-response,270,1424172,0.0-17.0-2.5,99047,List2A,black,woman,,,,null,,,,
10591,,,survey-text,271,1434765,0.0-17.0-3.5,99047,List2A,black,woman,,,,,"{""Q0"":""luke is flirting with mike""}","<img src=""stim_listA/flirt5.gif""style=""height:400px;""></stim_listA>",is flirting with,
null,"<div style=""font-size:60px;"">+</div>",,html-keyboard-response,272,1435268,0.0-17.0-0.6,99047,List2A,black,woman,,,,null,,,,
null,"<img src=""stim_listA/shout3.gif""style=""height:400px;""></stim_listA>",,html-keyboard-response,273,1437272,0.0-17.0-1.6,99047,List2A,black,woman,,,,null,,,,
null,is shouting at,,html-keyboard-response,274,1439274,0.0-17.0-2.6,99047,List2A,black,woman,,,,null,,,,
9602,,,survey-text,275,1448877,0.0-17.0-3.6,99047,List2A,black,woman,,,,,"{""Q0"":""beth is shouting at fred""}","<img src=""stim_listA/shout3.gif""style=""height:400px;""></stim_listA>",is shouting at,
null,"<div style=""font-size:60px;"">+</div>",,html-keyboard-response,276,1449379,0.0-17.0-0.7,99047,List2A,black,woman,,,,null,,,,
null,"<img src=""stim_listA/touch4.gif""style=""height:400px;""></stim_listA>",,html-keyboard-response,277,1451383,0.0-17.0-1.7,99047,List2A,black,woman,,,,null,,,,
null,are touching each other,,html-keyboard-response,278,1453385,0.0-17.0-2.7,99047,List2A,black,woman,,,,null,,,,
13136,,,survey-text,279,1466524,0.0-17.0-3.7,99047,List2A,black,woman,,,,,"{""Q0"":""beth and fred are touching each other""}","<img src=""stim_listA/touch4.gif""style=""height:400px;""></stim_listA>",are touching each other,
null,"<div style=""font-size:60px;"">+</div>",,html-keyboard-response,280,1467025,0.0-17.0-0.8,99047,List2A,black,woman,,,,null,,,,
null,"<img src=""stim_listA/talk1.gif""style=""height:400px;""></stim_listA>",,html-keyboard-response,281,1469028,0.0-17.0-1.8,99047,List2A,black,woman,,,,null,,,,
null,is talking to,,html-keyboard-response,282,1471030,0.0-17.0-2.8,99047,List2A,black,woman,,,,null,,,,
6913,,,survey-text,283,1477945,0.0-17.0-3.8,99047,List2A,black,woman,,,,,"{""Q0"":""luke is talking to jane""}","<img src=""stim_listA/talk1.gif""style=""height:400px;""></stim_listA>",is talking to,
null,"<div style=""font-size:60px;"">+</div>",,html-keyboard-response,284,1478447,0.0-17.0-0.9,99047,List2A,black,woman,,,,null,,,,
null,"<img src=""stim_listA/kiss8.gif""style=""height:400px;""></stim_listA>",,html-keyboard-response,285,1480450,0.0-17.0-1.9,99047,List2A,black,woman,,,,null,,,,
null,are kissing each other,,html-keyboard-response,286,1482454,0.0-17.0-2.9,99047,List2A,black,woman,,,,null,,,,
11732,,,survey-text,287,1494188,0.0-17.0-3.9,99047,List2A,black,woman,,,,,"{""Q0"":""jane and kate are kising each other""}","<img src=""stim_listA/kiss8.gif""style=""height:400px;""></stim_listA>",are kissing each other,
null,"<div style=""font-size:60px;"">+</div>",,html-keyboard-response,288,1494691,0.0-17.0-0.10,99047,List2A,black,woman,,,,null,,,,
null,"<img src=""stim_listA/play6.gif""style=""height:400px;""></stim_listA>",,html-keyboard-response,289,1496695,0.0-17.0-1.10,99047,List2A,black,woman,,,,null,,,,
null,are playing with each other,,html-keyboard-response,290,1498697,0.0-17.0-2.10,99047,List2A,black,woman,,,,null,,,,
10555,,,survey-text,291,1509254,0.0-17.0-3.10,99047,List2A,black,woman,,,,,"{""Q0"":""luke and fred are playing each other""}","<img src=""stim_listA/play6.gif""style=""height:400px;""></stim_listA>",are playing with each other,
null,"<div style=""font-size:60px;"">+</div>",,html-keyboard-response,292,1509757,0.0-17.0-0.11,99047,List2A,black,woman,,,,null,,,,
null,"<img src=""stim_listA/play8.gif""style=""height:400px;""></stim_listA>",,html-keyboard-response,293,1511759,0.0-17.0-1.11,99047,List2A,black,woman,,,,null,,,,
null,are playing with each other,,html-keyboard-response,294,1513762,0.0-17.0-2.11,99047,List2A,black,woman,,,,null,,,,
22285,,,survey-text,295,1536049,0.0-17.0-3.11,99047,List2A,black,woman,,,,,"{""Q0"":""ruth and kate are playing each other""}","<img src=""stim_listA/play8.gif""style=""height:400px;""></stim_listA>",are playing with each other,
null,"<div style=""font-size:60px;"">+</div>",,html-keyboard-response,296,1536553,0.0-17.0-0.12,99047,List2A,black,woman,,,,null,,,,
null,"<img src=""stim_listA/kiss1.gif""style=""height:400px;""></stim_listA>",,html-keyboard-response,297,1538556,0.0-17.0-1.12,99047,List2A,black,woman,,,,null,,,,
null,is kissing,,html-keyboard-response,298,1540559,0.0-17.0-2.12,99047,List2A,black,woman,,,,null,,,,
9764,,,survey-text,299,1550324,0.0-17.0-3.12,99047,List2A,black,woman,,,,,"{""Q0"":""ruth is kissing luke""}","<img src=""stim_listA/kiss1.gif""style=""height:400px;""></stim_listA>",is kissing,
null,"<div style=""font-size:60px;"">+</div>",,html-keyboard-response,300,1550827,0.0-17.0-0.13,99047,List2A,black,woman,,,,null,,,,
null,"<img src=""stim_listA/argue3.gif""style=""height:400px;""></stim_listA>",,html-keyboard-response,301,1552832,0.0-17.0-1.13,99047,List2A,black,woman,,,,null,,,,
null,is arguing with,,html-keyboard-response,302,1554835,0.0-17.0-2.13,99047,List2A,black,woman,,,,null,,,,
10079,,,survey-text,303,1564916,0.0-17.0-3.13,99047,List2A,black,woman,,,,,"{""Q0"":""mike is arguing with beth""}","<img src=""stim_listA/argue3.gif""style=""height:400px;""></stim_listA>",is arguing with,
null,"<div style=""font-size:60px;"">+</div>",,html-keyboard-response,304,1565419,0.0-17.0-0.14,99047,List2A,black,woman,,,,null,,,,
null,"<img src=""stim_listA/shout1.gif""style=""height:400px;""></stim_listA>",,html-keyboard-response,305,1567422,0.0-17.0-1.14,99047,List2A,black,woman,,,,null,,,,
null,is shouting at,,html-keyboard-response,306,1569425,0.0-17.0-2.14,99047,List2A,black,woman,,,,null,,,,
10891,,,survey-text,307,1580317,0.0-17.0-3.14,99047,List2A,black,woman,,,,,"{""Q0"":""ruth is shouting at luke""}","<img src=""stim_listA/shout1.gif""style=""height:400px;""></stim_listA>",is shouting at,
null,"<div style=""font-size:60px;"">+</div>",,html-keyboard-response,308,1580820,0.0-17.0-0.15,99047,List2A,black,woman,,,,null,,,,
null,"<img src=""stim_listA/marry8.gif""style=""height:400px;""></stim_listA>",,html-keyboard-response,309,1582824,0.0-17.0-1.15,99047,List2A,black,woman,,,,null,,,,
null,are marrying each other,,html-keyboard-response,310,1584826,0.0-17.0-2.15,99047,List2A,black,woman,,,,null,,,,
10741,,,survey-text,311,1595568,0.0-17.0-3.15,99047,List2A,black,woman,,,,,"{""Q0"":""ruth and kate are marrying each other""}","<img src=""stim_listA/marry8.gif""style=""height:400px;""></stim_listA>",are marrying each other,
null,"<div style=""font-size:60px;"">+</div>",,html-keyboard-response,312,1596071,0.0-17.0-0.16,99047,List2A,black,woman,,,,null,,,,
null,"<img src=""stim_listA/talk6.gif""style=""height:400px;""></stim_listA>",,html-keyboard-response,313,1598075,0.0-17.0-1.16,99047,List2A,black,woman,,,,null,,,,
null,are talking to each other,,html-keyboard-response,314,1600078,0.0-17.0-2.16,99047,List2A,black,woman,,,,null,,,,
15954,,,survey-text,315,1616036,0.0-17.0-3.16,99047,List2A,black,woman,,,,,"{""Q0"":""fred and dave are talking to each other""}","<img src=""stim_listA/talk6.gif""style=""height:400px;""></stim_listA>",are talking to each other,
null,"<div style=""font-size:60px;"">+</div>",,html-keyboard-response,316,1616538,0.0-17.0-0.17,99047,List2A,black,woman,,,,null,,,,
null,"<img src=""stim_listA/fight5.gif""style=""height:400px;""></stim_listA>",,html-keyboard-response,317,1618541,0.0-17.0-1.17,99047,List2A,black,woman,,,,null,,,,
null,is fighting,,html-keyboard-response,318,1620545,0.0-17.0-2.17,99047,List2A,black,woman,,,,null,,,,
17750,,,survey-text,319,1638297,0.0-17.0-3.17,99047,List2A,black,woman,,,,,"{""Q0"":""mike is figthting dve""}","<img src=""stim_listA/fight5.gif""style=""height:400px;""></stim_listA>",is fighting,
null,"<div style=""font-size:60px;"">+</div>",,html-keyboard-response,320,1638800,0.0-17.0-0.18,99047,List2A,black,woman,,,,null,,,,
null,"<img src=""stim_listA/play3.gif""style=""height:400px;""></stim_listA>",,html-keyboard-response,321,1640805,0.0-17.0-1.18,99047,List2A,black,woman,,,,null,,,,
null,is playing with,,html-keyboard-response,322,1642807,0.0-17.0-2.18,99047,List2A,black,woman,,,,null,,,,
9658,,,survey-text,323,1652468,0.0-17.0-3.18,99047,List2A,black,woman,,,,,"{""Q0"":""mike is playing with kate""}","<img src=""stim_listA/play3.gif""style=""height:400px;""></stim_listA>",is playing with,
null,"<div style=""font-size:60px;"">+</div>",,html-keyboard-response,324,1652972,0.0-17.0-0.19,99047,List2A,black,woman,,,,null,,,,
null,"<img src=""stim_listA/flirt1.gif""style=""height:400px;""></stim_listA>",,html-keyboard-response,325,1654976,0.0-17.0-1.19,99047,List2A,black,woman,,,,null,,,,
null,is flirting with,,html-keyboard-response,326,1656979,0.0-17.0-2.19,99047,List2A,black,woman,,,,null,,,,
8346,,,survey-text,327,1665327,0.0-17.0-3.19,99047,List2A,black,woman,,,,,"{""Q0"":""jane is flirting with luke""}","<img src=""stim_listA/flirt1.gif""style=""height:400px;""></stim_listA>",is flirting with,
3876,"<img src='img/portrait_matrix_list2.jpg' style='width:900px;height:500px;''></img><p>If you have memorised all the portraits and names and are ready to start, press Continue.</p><p><strong>Please note: Your memory of these faces will be tested 4 times during this experiment.</strong></p>",0,html-button-response,328,1669205,0.0-18.0-0.0,99047,List2A,black,woman,,,,,,,,
3263,"<img src=""portrait/WM1.jpg""style=""height:400px;""></img>",6,html-button-response,329,1673475,0.0-18.0-1.0,99047,List2A,black,woman,,TRUE,6,,,,,
null,CORRECT,,html-keyboard-response,330,1674978,0.0-18.0-2.0-0.0,99047,List2A,black,woman,,,,null,,,,
1650,"<img src=""portrait/WM2.jpg""style=""height:400px;""></img>",7,html-button-response,331,1676629,0.0-18.0-4.0,99047,List2A,black,woman,,TRUE,7,,,,,
null,CORRECT,,html-keyboard-response,332,1678134,0.0-18.0-5.0-0.0,99047,List2A,black,woman,,,,null,,,,
1615,"<img src=""portrait/BM1.jpg""style=""height:400px;""></img>",4,html-button-response,333,1679750,0.0-18.0-7.0,99047,List2A,black,woman,,TRUE,4,,,,,
null,CORRECT,,html-keyboard-response,334,1681254,0.0-18.0-8.0-0.0,99047,List2A,black,woman,,,,null,,,,
2032,"<img src=""portrait/BW1.jpg""style=""height:400px;""></img>",0,html-button-response,335,1683289,0.0-18.0-10.0,99047,List2A,black,woman,,TRUE,0,,,,,
null,CORRECT,,html-keyboard-response,336,1684794,0.0-18.0-11.0-0.0,99047,List2A,black,woman,,,,null,,,,
1602,"<img src=""portrait/BW2.jpg""style=""height:400px;""></img>",2,html-button-response,337,1686398,0.0-18.0-13.0,99047,List2A,black,woman,,TRUE,2,,,,,
null,CORRECT,,html-keyboard-response,338,1687902,0.0-18.0-14.0-0.0,99047,List2A,black,woman,,,,null,,,,
1681,"<img src=""portrait/WW1.jpg""style=""height:400px;""></img>",1,html-button-response,339,1689586,0.0-18.0-16.0,99047,List2A,black,woman,,TRUE,1,,,,,
null,CORRECT,,html-keyboard-response,340,1691090,0.0-18.0-17.0-0.0,99047,List2A,black,woman,,,,null,,,,
1700,"<img src=""portrait/WW2.jpg""style=""height:400px;""></img>",3,html-button-response,341,1692793,0.0-18.0-19.0,99047,List2A,black,woman,,TRUE,3,,,,,
null,CORRECT,,html-keyboard-response,342,1694297,0.0-18.0-20.0-0.0,99047,List2A,black,woman,,,,null,,,,
1515,"<img src=""portrait/BM2.jpg""style=""height:400px;""></img>",5,html-button-response,343,1695815,0.0-18.0-22.0,99047,List2A,black,woman,,TRUE,5,,,,,
null,CORRECT,,html-keyboard-response,344,1697320,0.0-18.0-23.0-0.0,99047,List2A,black,woman,,,,null,,,,
1640,<p>You got 8 out of 8 right first time. Press Continue.</p>,0,html-button-response,345,1698963,0.0-18.0-25.0,99047,List2A,black,woman,,,,,,,,
null,"<div style=""font-size:60px;"">+</div>",,html-keyboard-response,346,1700469,0.0-19.0-0.0,99047,List2A,black,woman,,,,null,,,,
null,"<img src=""stim_listA/shout4.gif""style=""height:400px;""></stim_listA>",,html-keyboard-response,347,1702473,0.0-19.0-1.0,99047,List2A,black,woman,,,,null,,,,
null,are shouting at each other,,html-keyboard-response,348,1704477,0.0-19.0-2.0,99047,List2A,black,woman,,,,null,,,,
9721,,,survey-text,349,1714200,0.0-19.0-3.0,99047,List2A,black,woman,,,,,"{""Q0"":""mike and kate are shouting at each other""}","<img src=""stim_listA/shout4.gif""style=""height:400px;""></stim_listA>",are shouting at each other,
null,"<div style=""font-size:60px;"">+</div>",,html-keyboard-response,350,1714703,0.0-19.0-0.1,99047,List2A,black,woman,,,,null,,,,
null,"<img src=""stim_listA/argue8.gif""style=""height:400px;""></stim_listA>",,html-keyboard-response,351,1716707,0.0-19.0-1.1,99047,List2A,black,woman,,,,null,,,,
null,are arguing with each other,,html-keyboard-response,352,1718709,0.0-19.0-2.1,99047,List2A,black,woman,,,,null,,,,
10685,,,survey-text,353,1729396,0.0-19.0-3.1,99047,List2A,black,woman,,,,,"{""Q0"":""ruth and kate are arguing with each other""}","<img src=""stim_listA/argue8.gif""style=""height:400px;""></stim_listA>",are arguing with each other,
null,"<div style=""font-size:60px;"">+</div>",,html-keyboard-response,354,1729897,0.0-19.0-0.2,99047,List2A,black,woman,,,,null,,,,
null,"<img src=""stim_listA/kiss5.gif""style=""height:400px;""></stim_listA>",,html-keyboard-response,355,1731900,0.0-19.0-1.2,99047,List2A,black,woman,,,,null,,,,
null,is kissing,,html-keyboard-response,356,1733903,0.0-19.0-2.2,99047,List2A,black,woman,,,,null,,,,
6847,,,survey-text,357,1740752,0.0-19.0-3.2,99047,List2A,black,woman,,,,,"{""Q0"":""luke is kissing fred""}","<img src=""stim_listA/kiss5.gif""style=""height:400px;""></stim_listA>",is kissing,
null,"<div style=""font-size:60px;"">+</div>",,html-keyboard-response,358,1741255,0.0-19.0-0.3,99047,List2A,black,woman,,,,null,,,,
null,"<img src=""stim_listA/touch2.gif""style=""height:400px;""></stim_listA>",,html-keyboard-response,359,1743259,0.0-19.0-1.3,99047,List2A,black,woman,,,,null,,,,
null,are touching each other,,html-keyboard-response,360,1745261,0.0-19.0-2.3,99047,List2A,black,woman,,,,null,,,,
10399,,,survey-text,361,1755662,0.0-19.0-3.3,99047,List2A,black,woman,,,,,"{""Q0"":""ruth and luke are touching each other""}","<img src=""stim_listA/touch2.gif""style=""height:400px;""></stim_listA>",are touching each other,
null,"<div style=""font-size:60px;"">+</div>",,html-keyboard-response,362,1756164,0.0-19.0-0.4,99047,List2A,black,woman,,,,null,,,,
null,"<img src=""stim_listA/argue6.gif""style=""height:400px;""></stim_listA>",,html-keyboard-response,363,1758167,0.0-19.0-1.4,99047,List2A,black,woman,,,,null,,,,
null,are arguing with each other,,html-keyboard-response,364,1760170,0.0-19.0-2.4,99047,List2A,black,woman,,,,null,,,,
10524,,,survey-text,365,1770696,0.0-19.0-3.4,99047,List2A,black,woman,,,,,"{""Q0"":""mike and luke are arguing with each other""}","<img src=""stim_listA/argue6.gif""style=""height:400px;""></stim_listA>",are arguing with each other,
null,"<div style=""font-size:60px;"">+</div>",,html-keyboard-response,366,1771198,0.0-19.0-0.5,99047,List2A,black,woman,,,,null,,,,
null,"<img src=""stim_listA/flirt4.gif""style=""height:400px;""></stim_listA>",,html-keyboard-response,367,1773202,0.0-19.0-1.5,99047,List2A,black,woman,,,,null,,,,
null,are flirting with each other,,html-keyboard-response,368,1775206,0.0-19.0-2.5,99047,List2A,black,woman,,,,null,,,,
10588,,,survey-text,369,1785796,0.0-19.0-3.5,99047,List2A,black,woman,,,,,"{""Q0"":""beth and mike are flirting with each other""}","<img src=""stim_listA/flirt4.gif""style=""height:400px;""></stim_listA>",are flirting with each other,
null,"<div style=""font-size:60px;"">+</div>",,html-keyboard-response,370,1786300,0.0-19.0-0.6,99047,List2A,black,woman,,,,null,,,,
null,"<img src=""stim_listA/argue7.gif""style=""height:400px;""></stim_listA>",,html-keyboard-response,371,1788303,0.0-19.0-1.6,99047,List2A,black,woman,,,,null,,,,
null,is arguing with,,html-keyboard-response,372,1790306,0.0-19.0-2.6,99047,List2A,black,woman,,,,null,,,,
13308,,,survey-text,373,1803616,0.0-19.0-3.6,99047,List2A,black,woman,,,,,"{""Q0"":""jane is arguing with beth""}","<img src=""stim_listA/argue7.gif""style=""height:400px;""></stim_listA>",is arguing with,
null,"<div style=""font-size:60px;"">+</div>",,html-keyboard-response,374,1804120,0.0-19.0-0.7,99047,List2A,black,woman,,,,null,,,,
null,"<img src=""stim_listA/dance5.gif""style=""height:400px;""></stim_listA>",,html-keyboard-response,375,1806121,0.0-19.0-1.7,99047,List2A,black,woman,,,,null,,,,
null,is dancing with,,html-keyboard-response,376,1808123,0.0-19.0-2.7,99047,List2A,black,woman,,,,null,,,,
7870,,,survey-text,377,1815995,0.0-19.0-3.7,99047,List2A,black,woman,,,,,"{""Q0"":""mike is dancing with luke""}","<img src=""stim_listA/dance5.gif""style=""height:400px;""></stim_listA>",is dancing with,
null,"<div style=""font-size:60px;"">+</div>",,html-keyboard-response,378,1816498,0.0-19.0-0.8,99047,List2A,black,woman,,,,null,,,,
null,"<img src=""stim_listA/play4.gif""style=""height:400px;""></stim_listA>",,html-keyboard-response,379,1818501,0.0-19.0-1.8,99047,List2A,black,woman,,,,null,,,,
null,are playing with each other,,html-keyboard-response,380,1820505,0.0-19.0-2.8,99047,List2A,black,woman,,,,null,,,,
8842,,,survey-text,381,1829349,0.0-19.0-3.8,99047,List2A,black,woman,,,,,"{""Q0"":""beth and fred re playing each other""}","<img src=""stim_listA/play4.gif""style=""height:400px;""></stim_listA>",are playing with each other,
null,"<div style=""font-size:60px;"">+</div>",,html-keyboard-response,382,1829852,0.0-19.0-0.9,99047,List2A,black,woman,,,,null,,,,
null,"<img src=""stim_listA/kiss3.gif""style=""height:400px;""></stim_listA>",,html-keyboard-response,383,1831858,0.0-19.0-1.9,99047,List2A,black,woman,,,,null,,,,
null,is kissing,,html-keyboard-response,384,1833859,0.0-19.0-2.9,99047,List2A,black,woman,,,,null,,,,
6277,,,survey-text,385,1840138,0.0-19.0-3.9,99047,List2A,black,woman,,,,,"{""Q0"":""beth is kissing fred""}","<img src=""stim_listA/kiss3.gif""style=""height:400px;""></stim_listA>",is kissing,
null,"<div style=""font-size:60px;"">+</div>",,html-keyboard-response,386,1840641,0.0-19.0-0.10,99047,List2A,black,woman,,,,null,,,,
null,"<img src=""stim_listA/kiss7.gif""style=""height:400px;""></stim_listA>",,html-keyboard-response,387,1842644,0.0-19.0-1.10,99047,List2A,black,woman,,,,null,,,,
null,is kissing,,html-keyboard-response,388,1844646,0.0-19.0-2.10,99047,List2A,black,woman,,,,null,,,,
7160,,,survey-text,389,1851808,0.0-19.0-3.10,99047,List2A,black,woman,,,,,"{""Q0"":""ruth is jkisiign beth""}","<img src=""stim_listA/kiss7.gif""style=""height:400px;""></stim_listA>",is kissing,
null,"<div style=""font-size:60px;"">+</div>",,html-keyboard-response,390,1852311,0.0-19.0-0.11,99047,List2A,black,woman,,,,null,,,,
null,"<img src=""stim_listA/touch1.gif""style=""height:400px;""></stim_listA>",,html-keyboard-response,391,1854315,0.0-19.0-1.11,99047,List2A,black,woman,,,,null,,,,
null,is touching,,html-keyboard-response,392,1856317,0.0-19.0-2.11,99047,List2A,black,woman,,,,null,,,,
7315,,,survey-text,393,1863635,0.0-19.0-3.11,99047,List2A,black,woman,,,,,"{""Q0"":""dave is touching jane""}","<img src=""stim_listA/touch1.gif""style=""height:400px;""></stim_listA>",is touching,
null,"<div style=""font-size:60px;"">+</div>",,html-keyboard-response,394,1864138,0.0-19.0-0.12,99047,List2A,black,woman,,,,null,,,,
null,"<img src=""stim_listA/fight7.gif""style=""height:400px;""></stim_listA>",,html-keyboard-response,395,1866140,0.0-19.0-1.12,99047,List2A,black,woman,,,,null,,,,
null,is fighting,,html-keyboard-response,396,1868142,0.0-19.0-2.12,99047,List2A,black,woman,,,,null,,,,
8257,,,survey-text,397,1876401,0.0-19.0-3.12,99047,List2A,black,woman,,,,,"{""Q0"":""jane is fighting kate""}","<img src=""stim_listA/fight7.gif""style=""height:400px;""></stim_listA>",is fighting,
null,"<div style=""font-size:60px;"">+</div>",,html-keyboard-response,398,1876904,0.0-19.0-0.13,99047,List2A,black,woman,,,,null,,,,
null,"<img src=""stim_listA/fight3.gif""style=""height:400px;""></stim_listA>",,html-keyboard-response,399,1878908,0.0-19.0-1.13,99047,List2A,black,woman,,,,null,,,,
null,is fighting,,html-keyboard-response,400,1880911,0.0-19.0-2.13,99047,List2A,black,woman,,,,null,,,,
14004,,,survey-text,401,1894916,0.0-19.0-3.13,99047,List2A,black,woman,,,,,"{""Q0"":""mike is fighting kate""}","<img src=""stim_listA/fight3.gif""style=""height:400px;""></stim_listA>",is fighting,
null,"<div style=""font-size:60px;"">+</div>",,html-keyboard-response,402,1895419,0.0-19.0-0.14,99047,List2A,black,woman,,,,null,,,,
null,"<img src=""stim_listA/flirt6.gif""style=""height:400px;""></stim_listA>",,html-keyboard-response,403,1897423,0.0-19.0-1.14,99047,List2A,black,woman,,,,null,,,,
null,are flirting with each other,,html-keyboard-response,404,1899426,0.0-19.0-2.14,99047,List2A,black,woman,,,,null,,,,
18321,,,survey-text,405,1917750,0.0-19.0-3.14,99047,List2A,black,woman,,,,,"{""Q0"":""fred and dave are flirting with each other""}","<img src=""stim_listA/flirt6.gif""style=""height:400px;""></stim_listA>",are flirting with each other,
null,"<div style=""font-size:60px;"">+</div>",,html-keyboard-response,406,1918253,0.0-19.0-0.15,99047,List2A,black,woman,,,,null,,,,
null,"<img src=""stim_listA/fight2.gif""style=""height:400px;""></stim_listA>",,html-keyboard-response,407,1920257,0.0-19.0-1.15,99047,List2A,black,woman,,,,null,,,,
null,are fighting each other,,html-keyboard-response,408,1922260,0.0-19.0-2.15,99047,List2A,black,woman,,,,null,,,,
14217,,,survey-text,409,1936479,0.0-19.0-3.15,99047,List2A,black,woman,,,,,"{""Q0"":""ruth and luke are fighting each other""}","<img src=""stim_listA/fight2.gif""style=""height:400px;""></stim_listA>",are fighting each other,
null,"<div style=""font-size:60px;"">+</div>",,html-keyboard-response,410,1936982,0.0-19.0-0.16,99047,List2A,black,woman,,,,null,,,,
null,"<img src=""stim_listA/flirt3.gif""style=""height:400px;""></stim_listA>",,html-keyboard-response,411,1938986,0.0-19.0-1.16,99047,List2A,black,woman,,,,null,,,,
null,is flirting with,,html-keyboard-response,412,1940989,0.0-19.0-2.16,99047,List2A,black,woman,,,,null,,,,
8256,,,survey-text,413,1949247,0.0-19.0-3.16,99047,List2A,black,woman,,,,,"{""Q0"":""kate is flirting with dave""}","<img src=""stim_listA/flirt3.gif""style=""height:400px;""></stim_listA>",is flirting with,
null,"<div style=""font-size:60px;"">+</div>",,html-keyboard-response,414,1949749,0.0-19.0-0.17,99047,List2A,black,woman,,,,null,,,,
null,"<img src=""stim_listA/shout2.gif""style=""height:400px;""></stim_listA>",,html-keyboard-response,415,1951753,0.0-19.0-1.17,99047,List2A,black,woman,,,,null,,,,
null,are shouting at each other,,html-keyboard-response,416,1953755,0.0-19.0-2.17,99047,List2A,black,woman,,,,null,,,,
12789,,,survey-text,417,1966546,0.0-19.0-3.17,99047,List2A,black,woman,,,,,"{""Q0"":""jane and dave are shouting at eachother""}","<img src=""stim_listA/shout2.gif""style=""height:400px;""></stim_listA>",are shouting at each other,
null,"<div style=""font-size:60px;"">+</div>",,html-keyboard-response,418,1967049,0.0-19.0-0.18,99047,List2A,black,woman,,,,null,,,,
null,"<img src=""stim_listA/dance4.gif""style=""height:400px;""></stim_listA>",,html-keyboard-response,419,1969052,0.0-19.0-1.18,99047,List2A,black,woman,,,,null,,,,
null,are dancing with each other,,html-keyboard-response,420,1971055,0.0-19.0-2.18,99047,List2A,black,woman,,,,null,,,,
12730,,,survey-text,421,1983786,0.0-19.0-3.18,99047,List2A,black,woman,,,,,"{""Q0"":""mike and beth are dancing withe each other""}","<img src=""stim_listA/dance4.gif""style=""height:400px;""></stim_listA>",are dancing with each other,
null,"<div style=""font-size:60px;"">+</div>",,html-keyboard-response,422,1984289,0.0-19.0-0.19,99047,List2A,black,woman,,,,null,,,,
null,"<img src=""stim_listA/talk3.gif""style=""height:400px;""></stim_listA>",,html-keyboard-response,423,1986294,0.0-19.0-1.19,99047,List2A,black,woman,,,,null,,,,
null,is talking to,,html-keyboard-response,424,1988296,0.0-19.0-2.19,99047,List2A,black,woman,,,,null,,,,
8702,,,survey-text,425,1997000,0.0-19.0-3.19,99047,List2A,black,woman,,,,,"{""Q0"":""fred is talking to kkate""}","<img src=""stim_listA/talk3.gif""style=""height:400px;""></stim_listA>",is talking to,
3560,<p>Thank you for completing that task.</p><p>The final part of this session is a short questionnaire.</p><p>Press Continue.</p>,0,html-button-response,426,2000561,0.0-20.0,99047,List2A,black,woman,,,,,,,,
22294,,,survey-text,427,2023859,0.0-21.0,99047,List2A,black,woman,,,,,"{""Q0"":""34"",""Q1"":""english"",""Q2"":""english"",""Q3"":""uk"",""Q4"":""black"",""Q5"":""female""}",,,demographics
12311,,,survey-likert,428,2036175,0.0-22.0,99047,List2A,black,woman,,,,,"{""Q0"":2}",,,likert_ESS
8711,,,survey-likert,429,2044890,0.0-23.0,99047,List2A,black,woman,,,,,"{""Q0"":0}",,,likert_NSSAL_Q1
6942,,,survey-likert,430,2051837,0.0-24.0,99047,List2A,black,woman,,,,,"{""Q0"":0}",,,likert_NSSAL_Q2
7944,,,survey-likert,431,2059785,0.0-25.0,99047,List2A,black,woman,,,,,"{""Q0"":4}",,,likert_CGRS_Q1
5432,,,survey-likert,432,2065220,0.0-26.0,99047,List2A,black,woman,,,,,"{""Q0"":4}",,,likert_CGRS_Q2
5745,,,survey-likert,433,2070969,0.0-27.0,99047,List2A,black,woman,,,,,"{""Q0"":4}",,,likert_CGRS_Q3
5333,,,survey-text,434,2076304,0.0-28.0,99047,List2A,black,woman,,,,,"{""Q0"":""ccc""}",,,worker_id
11055,,,external-html,435,2087471,0.0-29.0,99047,List2A,black,woman,debrief.html,,,,,,,
