"rt","stimulus","button_pressed","trial_type","trial_index","time_elapsed","internal_node_id","subject","list","ppt_race","ppt_gender","url","first_guess","correct","key_press","responses","image_type","phrase_type","test_part"
"5032","Welcome to the experiment. Press Continue to begin.","0","html-button-response","0","5072","0.0-0.0","9925","List1A","black","woman","","","","","","","",""
"4894","","","external-html","1","10975","0.0-1.0","9925","List1A","black","woman","consent.html","","","","","","",""
"3069","<p>On the next page, you will see portraits of 8 people and their names.</p><p>Your first task is to take a few minutes to memorise the names of these people.</p><p>You will have to recall their names during the rest of the experiment, so it is</p><p>essential that you try to memorise these people and their names as best as you can.</p><br><p><strong>You will then be tested on your memory of these names and portraits.</strong></p><br><p>The experiment will start after you have completed this memory test.</p><br><p>Ready?</p>","0","html-button-response","2","14047","0.0-2.0","9925","List1A","black","woman","","","","","","","",""
"4844","<img src='img/portrait_matrix_list1.jpg' style='width:900px;height:500px;''></img><p>If you have memorised all the portraits and names and are ready to start, press Continue.</p><p><strong>Please note: Your memory of these faces will be tested 4 times during this experiment.</strong></p>","0","html-button-response","3","19894","0.0-3.0-0.0","9925","List1A","black","woman","","","","","","","",""
"12884","<img src=""portrait/BW2.jpg""style=""height:400px;""></img>","2","html-button-response","4","33783","0.0-3.0-1.0","9925","List1A","black","woman","","true","2","","","","",""
"null","CORRECT","","html-keyboard-response","5","35288","0.0-3.0-2.0-0.0","9925","List1A","black","woman","","","","null","","","",""
"9100","<img src=""portrait/WM2.jpg""style=""height:400px;""></img>","7","html-button-response","6","44391","0.0-3.0-4.0","9925","List1A","black","woman","","true","7","","","","",""
"null","CORRECT","","html-keyboard-response","7","45894","0.0-3.0-5.0-0.0","9925","List1A","black","woman","","","","null","","","",""
"7174","<img src=""portrait/WW2.jpg""style=""height:400px;""></img>","3","html-button-response","8","53070","0.0-3.0-7.0","9925","List1A","black","woman","","true","3","","","","",""
"null","CORRECT","","html-keyboard-response","9","54579","0.0-3.0-8.0-0.0","9925","List1A","black","woman","","","","null","","","",""
"6385","<img src=""portrait/BW1.jpg""style=""height:400px;""></img>","0","html-button-response","10","60966","0.0-3.0-10.0","9925","List1A","black","woman","","true","0","","","","",""
"null","CORRECT","","html-keyboard-response","11","62469","0.0-3.0-11.0-0.0","9925","List1A","black","woman","","","","null","","","",""
"6487","<img src=""portrait/WM1.jpg""style=""height:400px;""></img>","6","html-button-response","12","68958","0.0-3.0-13.0","9925","List1A","black","woman","","true","6","","","","",""
"null","CORRECT","","html-keyboard-response","13","70460","0.0-3.0-14.0-0.0","9925","List1A","black","woman","","","","null","","","",""
"7415","<img src=""portrait/WW1.jpg""style=""height:400px;""></img>","1","html-button-response","14","77877","0.0-3.0-16.0","9925","List1A","black","woman","","true","1","","","","",""
"null","CORRECT","","html-keyboard-response","15","79381","0.0-3.0-17.0-0.0","9925","List1A","black","woman","","","","null","","","",""
"5822","<img src=""portrait/BM1.jpg""style=""height:400px;""></img>","4","html-button-response","16","85205","0.0-3.0-19.0","9925","List1A","black","woman","","true","4","","","","",""
"null","CORRECT","","html-keyboard-response","17","86708","0.0-3.0-20.0-0.0","9925","List1A","black","woman","","","","null","","","",""
"3863","<img src=""portrait/BM2.jpg""style=""height:400px;""></img>","5","html-button-response","18","90573","0.0-3.0-22.0","9925","List1A","black","woman","","true","5","","","","",""
"null","CORRECT","","html-keyboard-response","19","92077","0.0-3.0-23.0-0.0","9925","List1A","black","woman","","","","null","","","",""
"1526","<p>You got 8 out of 8 right first time. Press Continue.</p>","0","html-button-response","20","93605","0.0-3.0-25.0","9925","List1A","black","woman","","","","","","","",""
"18956","<p>In this experiment, you will view photographs of the people from the memory game interacting.</p><p>By using the <strong>exact</strong> phrase given <i>after</i> the photograph appears and recalling the correct names of the people in the photographs, form a sentence describing the interaction. You do not need to capitalise names.</p><p>Type your answer in the space provided. Please complete every sentence before moving onto the next trial.</p><p>You will only have a few seconds to memorise each given photograph and phrase before you can respond, so try your best to focus.</p><p>An example is given below. Press 'Continue' when you are ready.</p><img src='img/speaking_example.jpg' style='width:800px;height:460px;''></img>","0","html-button-response","21","113565","0.0-4.0","9925","List1A","black","woman","","","","","","","",""
"2174","<p>Before the experiment starts, you will watch two example trials. Press 'Continue'.</p>","0","html-button-response","22","116741","0.0-5.0","9925","List1A","black","woman","","","","","","","",""
"null","<img src='img/meet_eg.gif' style='height:400px;''></img>","","html-keyboard-response","23","119744","0.0-6.0","9925","List1A","black","woman","","","","null","","","",""
"null","<p>is meeting</p>","","html-keyboard-response","24","121746","0.0-7.0","9925","List1A","black","woman","","","","null","","","",""
"1707","<p><b>Answer:</b> kate is meeting beth</p>","0","html-button-response","25","123453","0.0-8.0","9925","List1A","black","woman","","","","","","","",""
"null","<img src='img/look_eg.gif' style='height:400px;''></img>","","html-keyboard-response","26","126458","0.0-9.0","9925","List1A","black","woman","","","","null","","","",""
"null","<p>are looking at each other</p>","","html-keyboard-response","27","128460","0.0-10.0","9925","List1A","black","woman","","","","null","","","",""
"5152","<p><b>Answer:</b> luke and dave are looking at each other</p>","0","html-button-response","28","133613","0.0-11.0","9925","List1A","black","woman","","","","","","","",""
"16053","<p>Ready to start the experiment?</p><br><p><strong>Remember to describe the picture using a full sentence,</strong></p><p><strong>that combines the names of the people with the <i>exact</i> phrase given.</strong></p><p><strong>To receive full payment you must do this correctly.</strong></p><p><strong> You do not need to capitalise names or use punctuation.</strong></p><br><p>Press 'Continue' to begin.</p>","0","html-button-response","29","150669","0.0-12.0","9925","List1A","black","woman","","","","","","","",""
"null","<div style=""font-size:60px;"">+</div>","","html-keyboard-response","30","152172","0.0-13.0-0.0","9925","List1A","black","woman","","","","null","","","",""
"null","<img src=""stim_listA/kiss2.gif""style=""height:400px;""></stim_listA>","","html-keyboard-response","31","154176","0.0-13.0-1.0","9925","List1A","black","woman","","","","null","","","",""
"null","are kissing each other","","html-keyboard-response","32","156178","0.0-13.0-2.0","9925","List1A","black","woman","","","","null","","","",""
"47840","","","survey-text","33","204020","0.0-13.0-3.0","9925","List1A","black","woman","","","","","{""Q0"":""mike and kate are kissing each other""}","<img src=""stim_listA/kiss2.gif""style=""height:400px;""></stim_listA>","are kissing each other",""
"null","<div style=""font-size:60px;"">+</div>","","html-keyboard-response","34","204523","0.0-13.0-0.1","9925","List1A","black","woman","","","","null","","","",""
"null","<img src=""stim_listA/fight4.gif""style=""height:400px;""></stim_listA>","","html-keyboard-response","35","206526","0.0-13.0-1.1","9925","List1A","black","woman","","","","null","","","",""
"null","are fighting each other","","html-keyboard-response","36","208529","0.0-13.0-2.1","9925","List1A","black","woman","","","","null","","","",""
"43714","","","survey-text","37","252244","0.0-13.0-3.1","9925","List1A","black","woman","","","","","{""Q0"":""luke and ruth are fighting each other""}","<img src=""stim_listA/fight4.gif""style=""height:400px;""></stim_listA>","are fighting each other",""
"null","<div style=""font-size:60px;"">+</div>","","html-keyboard-response","38","252746","0.0-13.0-0.2","9925","List1A","black","woman","","","","null","","","",""
"null","<img src=""stim_listA/shout8.gif""style=""height:400px;""></stim_listA>","","html-keyboard-response","39","254749","0.0-13.0-1.2","9925","List1A","black","woman","","","","null","","","",""
"null","are shouting at each other","","html-keyboard-response","40","256750","0.0-13.0-2.2","9925","List1A","black","woman","","","","null","","","",""
"52605","","","survey-text","41","309356","0.0-13.0-3.2","9925","List1A","black","woman","","","","","{""Q0"":""kate and jane are shouting at each other""}","<img src=""stim_listA/shout8.gif""style=""height:400px;""></stim_listA>","are shouting at each other",""
"null","<div style=""font-size:60px;"">+</div>","","html-keyboard-response","42","309858","0.0-13.0-0.3","9925","List1A","black","woman","","","","null","","","",""
"null","<img src=""stim_listA/fight7.gif""style=""height:400px;""></stim_listA>","","html-keyboard-response","43","311861","0.0-13.0-1.3","9925","List1A","black","woman","","","","null","","","",""
"null","is fighting","","html-keyboard-response","44","313863","0.0-13.0-2.3","9925","List1A","black","woman","","","","null","","","",""
"29044","","","survey-text","45","342907","0.0-13.0-3.3","9925","List1A","black","woman","","","","","{""Q0"":""kate is fighting jane""}","<img src=""stim_listA/fight7.gif""style=""height:400px;""></stim_listA>","is fighting",""
"null","<div style=""font-size:60px;"">+</div>","","html-keyboard-response","46","343409","0.0-13.0-0.4","9925","List1A","black","woman","","","","null","","","",""
"null","<img src=""stim_listA/argue4.gif""style=""height:400px;""></stim_listA>","","html-keyboard-response","47","345413","0.0-13.0-1.4","9925","List1A","black","woman","","","","null","","","",""
"null","are arguing with each other","","html-keyboard-response","48","347414","0.0-13.0-2.4","9925","List1A","black","woman","","","","null","","","",""
"79394","","","survey-text","49","426810","0.0-13.0-3.4","9925","List1A","black","woman","","","","","{""Q0"":""Jane and Luke are arguing with each other""}","<img src=""stim_listA/argue4.gif""style=""height:400px;""></stim_listA>","are arguing with each other",""
"null","<div style=""font-size:60px;"">+</div>","","html-keyboard-response","50","427313","0.0-13.0-0.5","9925","List1A","black","woman","","","","null","","","",""
"null","<img src=""stim_listA/shout3.gif""style=""height:400px;""></stim_listA>","","html-keyboard-response","51","429316","0.0-13.0-1.5","9925","List1A","black","woman","","","","null","","","",""
"null","is shouting at","","html-keyboard-response","52","431318","0.0-13.0-2.5","9925","List1A","black","woman","","","","null","","","",""
"37498","","","survey-text","53","468818","0.0-13.0-3.5","9925","List1A","black","woman","","","","","{""Q0"":""luke is shouting at ruth""}","<img src=""stim_listA/shout3.gif""style=""height:400px;""></stim_listA>","is shouting at",""
"null","<div style=""font-size:60px;"">+</div>","","html-keyboard-response","54","469320","0.0-13.0-0.6","9925","List1A","black","woman","","","","null","","","",""
"null","<img src=""stim_listA/fight2.gif""style=""height:400px;""></stim_listA>","","html-keyboard-response","55","471323","0.0-13.0-1.6","9925","List1A","black","woman","","","","null","","","",""
"null","are fighting each other","","html-keyboard-response","56","473325","0.0-13.0-2.6","9925","List1A","black","woman","","","","null","","","",""
"39323","","","survey-text","57","512649","0.0-13.0-3.6","9925","List1A","black","woman","","","","","{""Q0"":""beth and fred are fighting each other""}","<img src=""stim_listA/fight2.gif""style=""height:400px;""></stim_listA>","are fighting each other",""
"null","<div style=""font-size:60px;"">+</div>","","html-keyboard-response","58","513152","0.0-13.0-0.7","9925","List1A","black","woman","","","","null","","","",""
"null","<img src=""stim_listA/dance5.gif""style=""height:400px;""></stim_listA>","","html-keyboard-response","59","515155","0.0-13.0-1.7","9925","List1A","black","woman","","","","null","","","",""
"null","is dancing with","","html-keyboard-response","60","517157","0.0-13.0-2.7","9925","List1A","black","woman","","","","null","","","",""
"28099","","","survey-text","61","545257","0.0-13.0-3.7","9925","List1A","black","woman","","","","","{""Q0"":""fred is dancing with dave""}","<img src=""stim_listA/dance5.gif""style=""height:400px;""></stim_listA>","is dancing with",""
"null","<div style=""font-size:60px;"">+</div>","","html-keyboard-response","62","545759","0.0-13.0-0.8","9925","List1A","black","woman","","","","null","","","",""
"null","<img src=""stim_listA/flirt6.gif""style=""height:400px;""></stim_listA>","","html-keyboard-response","63","547761","0.0-13.0-1.8","9925","List1A","black","woman","","","","null","","","",""
"null","are flirting with each other","","html-keyboard-response","64","549762","0.0-13.0-2.8","9925","List1A","black","woman","","","","null","","","",""
"44693","","","survey-text","65","594456","0.0-13.0-3.8","9925","List1A","black","woman","","","","","{""Q0"":""luke and mike are flirting with each other""}","<img src=""stim_listA/flirt6.gif""style=""height:400px;""></stim_listA>","are flirting with each other",""
"null","<div style=""font-size:60px;"">+</div>","","html-keyboard-response","66","594963","0.0-13.0-0.9","9925","List1A","black","woman","","","","null","","","",""
"null","<img src=""stim_listA/kiss3.gif""style=""height:400px;""></stim_listA>","","html-keyboard-response","67","596967","0.0-13.0-1.9","9925","List1A","black","woman","","","","null","","","",""
"null","is kissing","","html-keyboard-response","68","598969","0.0-13.0-2.9","9925","List1A","black","woman","","","","null","","","",""
"28094","","","survey-text","69","627064","0.0-13.0-3.9","9925","List1A","black","woman","","","","","{""Q0"":""luke is kissing ruth""}","<img src=""stim_listA/kiss3.gif""style=""height:400px;""></stim_listA>","is kissing",""
"null","<div style=""font-size:60px;"">+</div>","","html-keyboard-response","70","627566","0.0-13.0-0.10","9925","List1A","black","woman","","","","null","","","",""
"null","<img src=""stim_listA/talk3.gif""style=""height:400px;""></stim_listA>","","html-keyboard-response","71","629569","0.0-13.0-1.10","9925","List1A","black","woman","","","","null","","","",""
"null","is talking to","","html-keyboard-response","72","631571","0.0-13.0-2.10","9925","List1A","black","woman","","","","null","","","",""
"125978","","","survey-text","73","757550","0.0-13.0-3.10","9925","List1A","black","woman","","","","","{""Q0"":""luke is talking to jane""}","<img src=""stim_listA/talk3.gif""style=""height:400px;""></stim_listA>","is talking to",""
"null","<div style=""font-size:60px;"">+</div>","","html-keyboard-response","74","758052","0.0-13.0-0.11","9925","List1A","black","woman","","","","null","","","",""
"null","<img src=""stim_listA/touch1.gif""style=""height:400px;""></stim_listA>","","html-keyboard-response","75","760054","0.0-13.0-1.11","9925","List1A","black","woman","","","","null","","","",""
"null","is touching","","html-keyboard-response","76","762057","0.0-13.0-2.11","9925","List1A","black","woman","","","","null","","","",""
"27611","","","survey-text","77","789670","0.0-13.0-3.11","9925","List1A","black","woman","","","","","{""Q0"":""mike is touching kate""}","<img src=""stim_listA/touch1.gif""style=""height:400px;""></stim_listA>","is touching",""
"null","<div style=""font-size:60px;"">+</div>","","html-keyboard-response","78","790172","0.0-13.0-0.12","9925","List1A","black","woman","","","","null","","","",""
"null","<img src=""stim_listA/fight8.gif""style=""height:400px;""></stim_listA>","","html-keyboard-response","79","792175","0.0-13.0-1.12","9925","List1A","black","woman","","","","null","","","",""
"null","are fighting each other","","html-keyboard-response","80","794178","0.0-13.0-2.12","9925","List1A","black","woman","","","","null","","","",""
"38411","","","survey-text","81","832589","0.0-13.0-3.12","9925","List1A","black","woman","","","","","{""Q0"":""ruth and beth are fighting each other""}","<img src=""stim_listA/fight8.gif""style=""height:400px;""></stim_listA>","are fighting each other",""
"null","<div style=""font-size:60px;"">+</div>","","html-keyboard-response","82","833092","0.0-13.0-0.13","9925","List1A","black","woman","","","","null","","","",""
"null","<img src=""stim_listA/play7.gif""style=""height:400px;""></stim_listA>","","html-keyboard-response","83","835096","0.0-13.0-1.13","9925","List1A","black","woman","","","","null","","","",""
"null","is playing with","","html-keyboard-response","84","837098","0.0-13.0-2.13","9925","List1A","black","woman","","","","null","","","",""
"35857","","","survey-text","85","872957","0.0-13.0-3.13","9925","List1A","black","woman","","","","","{""Q0"":""jane is playing with kate""}","<img src=""stim_listA/play7.gif""style=""height:400px;""></stim_listA>","is playing with",""
"null","<div style=""font-size:60px;"">+</div>","","html-keyboard-response","86","873459","0.0-13.0-0.14","9925","List1A","black","woman","","","","null","","","",""
"null","<img src=""stim_listA/talk4.gif""style=""height:400px;""></stim_listA>","","html-keyboard-response","87","875462","0.0-13.0-1.14","9925","List1A","black","woman","","","","null","","","",""
"null","are talking to each other","","html-keyboard-response","88","877464","0.0-13.0-2.14","9925","List1A","black","woman","","","","null","","","",""
"43380","","","survey-text","89","920845","0.0-13.0-3.14","9925","List1A","black","woman","","","","","{""Q0"":""ruth and dave are talking to each other""}","<img src=""stim_listA/talk4.gif""style=""height:400px;""></stim_listA>","are talking to each other",""
"null","<div style=""font-size:60px;"">+</div>","","html-keyboard-response","90","921347","0.0-13.0-0.15","9925","List1A","black","woman","","","","null","","","",""
"null","<img src=""stim_listA/flirt1.gif""style=""height:400px;""></stim_listA>","","html-keyboard-response","91","923350","0.0-13.0-1.15","9925","List1A","black","woman","","","","null","","","",""
"null","is flirting with","","html-keyboard-response","92","925351","0.0-13.0-2.15","9925","List1A","black","woman","","","","null","","","",""
"90867","","","survey-text","93","1016220","0.0-13.0-3.15","9925","List1A","black","woman","","","","","{""Q0"":""beth is flirting with mike""}","<img src=""stim_listA/flirt1.gif""style=""height:400px;""></stim_listA>","is flirting with",""
"null","<div style=""font-size:60px;"">+</div>","","html-keyboard-response","94","1016722","0.0-13.0-0.16","9925","List1A","black","woman","","","","null","","","",""
"null","<img src=""stim_listA/talk8.gif""style=""height:400px;""></stim_listA>","","html-keyboard-response","95","1018725","0.0-13.0-1.16","9925","List1A","black","woman","","","","null","","","",""
"null","are talking to each other","","html-keyboard-response","96","1020727","0.0-13.0-2.16","9925","List1A","black","woman","","","","null","","","",""
"36356","","","survey-text","97","1057084","0.0-13.0-3.16","9925","List1A","black","woman","","","","","{""Q0"":""ruth is fighting with kate""}","<img src=""stim_listA/talk8.gif""style=""height:400px;""></stim_listA>","are talking to each other",""
"null","<div style=""font-size:60px;"">+</div>","","html-keyboard-response","98","1057586","0.0-13.0-0.17","9925","List1A","black","woman","","","","null","","","",""
"null","<img src=""stim_listA/talk7.gif""style=""height:400px;""></stim_listA>","","html-keyboard-response","99","1059588","0.0-13.0-1.17","9925","List1A","black","woman","","","","null","","","",""
"null","is talking to","","html-keyboard-response","100","1061591","0.0-13.0-2.17","9925","List1A","black","woman","","","","null","","","",""
"39179","","","survey-text","101","1100771","0.0-13.0-3.17","9925","List1A","black","woman","","","","","{""Q0"":""beth is talking with jane""}","<img src=""stim_listA/talk7.gif""style=""height:400px;""></stim_listA>","is talking to",""
"null","<div style=""font-size:60px;"">+</div>","","html-keyboard-response","102","1101274","0.0-13.0-0.18","9925","List1A","black","woman","","","","null","","","",""
"null","<img src=""stim_listA/argue6.gif""style=""height:400px;""></stim_listA>","","html-keyboard-response","103","1103275","0.0-13.0-1.18","9925","List1A","black","woman","","","","null","","","",""
"null","are arguing with each other","","html-keyboard-response","104","1105277","0.0-13.0-2.18","9925","List1A","black","woman","","","","null","","","",""
"36436","","","survey-text","105","1141715","0.0-13.0-3.18","9925","List1A","black","woman","","","","","{""Q0"":""fred and dave are arguing with each other""}","<img src=""stim_listA/argue6.gif""style=""height:400px;""></stim_listA>","are arguing with each other",""
"null","<div style=""font-size:60px;"">+</div>","","html-keyboard-response","106","1142217","0.0-13.0-0.19","9925","List1A","black","woman","","","","null","","","",""
"null","<img src=""stim_listA/touch2.gif""style=""height:400px;""></stim_listA>","","html-keyboard-response","107","1144219","0.0-13.0-1.19","9925","List1A","black","woman","","","","null","","","",""
"null","are touching each other","","html-keyboard-response","108","1146221","0.0-13.0-2.19","9925","List1A","black","woman","","","","null","","","",""
"36133","","","survey-text","109","1182354","0.0-13.0-3.19","9925","List1A","black","woman","","","","","{""Q0"":""beth and fred are touching each other""}","<img src=""stim_listA/touch2.gif""style=""height:400px;""></stim_listA>","are touching each other",""
"8934","<img src='img/portrait_matrix_list1.jpg' style='width:900px;height:500px;''></img><p>If you have memorised all the portraits and names and are ready to start, press Continue.</p><p><strong>Please note: Your memory of these faces will be tested 4 times during this experiment.</strong></p>","0","html-button-response","110","1191289","0.0-14.0-0.0","9925","List1A","black","woman","","","","","","","",""
"13333","<img src=""portrait/BW1.jpg""style=""height:400px;""></img>","0","html-button-response","111","1205625","0.0-14.0-1.0","9925","List1A","black","woman","","true","0","","","","",""
"null","CORRECT","","html-keyboard-response","112","1207128","0.0-14.0-2.0-0.0","9925","List1A","black","woman","","","","null","","","",""
"9439","<img src=""portrait/BM1.jpg""style=""height:400px;""></img>","4","html-button-response","113","1216569","0.0-14.0-4.0","9925","List1A","black","woman","","true","4","","","","",""
"null","CORRECT","","html-keyboard-response","114","1218073","0.0-14.0-5.0-0.0","9925","List1A","black","woman","","","","null","","","",""
"5966","<img src=""portrait/WW2.jpg""style=""height:400px;""></img>","3","html-button-response","115","1224041","0.0-14.0-7.0","9925","List1A","black","woman","","true","3","","","","",""
"null","CORRECT","","html-keyboard-response","116","1225549","0.0-14.0-8.0-0.0","9925","List1A","black","woman","","","","null","","","",""
"5947","<img src=""portrait/WM2.jpg""style=""height:400px;""></img>","7","html-button-response","117","1231497","0.0-14.0-10.0","9925","List1A","black","woman","","true","7","","","","",""
"null","CORRECT","","html-keyboard-response","118","1233000","0.0-14.0-11.0-0.0","9925","List1A","black","woman","","","","null","","","",""
"5031","<img src=""portrait/BM2.jpg""style=""height:400px;""></img>","5","html-button-response","119","1238033","0.0-14.0-13.0","9925","List1A","black","woman","","true","5","","","","",""
"null","CORRECT","","html-keyboard-response","120","1239538","0.0-14.0-14.0-0.0","9925","List1A","black","woman","","","","null","","","",""
"6509","<img src=""portrait/WW1.jpg""style=""height:400px;""></img>","1","html-button-response","121","1246049","0.0-14.0-16.0","9925","List1A","black","woman","","true","1","","","","",""
"null","CORRECT","","html-keyboard-response","122","1247551","0.0-14.0-17.0-0.0","9925","List1A","black","woman","","","","null","","","",""
"4304","<img src=""portrait/BW2.jpg""style=""height:400px;""></img>","2","html-button-response","123","1251857","0.0-14.0-19.0","9925","List1A","black","woman","","true","2","","","","",""
"null","CORRECT","","html-keyboard-response","124","1253360","0.0-14.0-20.0-0.0","9925","List1A","black","woman","","","","null","","","",""
"4855","<img src=""portrait/WM1.jpg""style=""height:400px;""></img>","6","html-button-response","125","1258217","0.0-14.0-22.0","9925","List1A","black","woman","","true","6","","","","",""
"null","CORRECT","","html-keyboard-response","126","1259721","0.0-14.0-23.0-0.0","9925","List1A","black","woman","","","","null","","","",""
"1326","<p>You got 8 out of 8 right first time. Press Continue.</p>","0","html-button-response","127","1261049","0.0-14.0-25.0","9925","List1A","black","woman","","","","","","","",""
"null","<div style=""font-size:60px;"">+</div>","","html-keyboard-response","128","1262553","0.0-15.0-0.0","9925","List1A","black","woman","","","","null","","","",""
"null","<img src=""stim_listA/dance1.gif""style=""height:400px;""></stim_listA>","","html-keyboard-response","129","1264555","0.0-15.0-1.0","9925","List1A","black","woman","","","","null","","","",""
"null","is dancing with","","html-keyboard-response","130","1266557","0.0-15.0-2.0","9925","List1A","black","woman","","","","null","","","",""
"34634","","","survey-text","131","1301193","0.0-15.0-3.0","9925","List1A","black","woman","","","","","{""Q0"":""fred is dancing with kate""}","<img src=""stim_listA/dance1.gif""style=""height:400px;""></stim_listA>","is dancing with",""
"null","<div style=""font-size:60px;"">+</div>","","html-keyboard-response","132","1301695","0.0-15.0-0.1","9925","List1A","black","woman","","","","null","","","",""
"null","<img src=""stim_listA/kiss8.gif""style=""height:400px;""></stim_listA>","","html-keyboard-response","133","1303697","0.0-15.0-1.1","9925","List1A","black","woman","","","","null","","","",""
"null","are kissing each other","","html-keyboard-response","134","1305699","0.0-15.0-2.1","9925","List1A","black","woman","","","","null","","","",""
"25476","","","survey-text","135","1331176","0.0-15.0-3.1","9925","List1A","black","woman","","","","","{""Q0"":""jane and kate are kissing each other""}","<img src=""stim_listA/kiss8.gif""style=""height:400px;""></stim_listA>","are kissing each other",""
"null","<div style=""font-size:60px;"">+</div>","","html-keyboard-response","136","1331677","0.0-15.0-0.2","9925","List1A","black","woman","","","","null","","","",""
"null","<img src=""stim_listA/fight1.gif""style=""height:400px;""></stim_listA>","","html-keyboard-response","137","1333680","0.0-15.0-1.2","9925","List1A","black","woman","","","","null","","","",""
"null","is fighting","","html-keyboard-response","138","1335681","0.0-15.0-2.2","9925","List1A","black","woman","","","","null","","","",""
"27805","","","survey-text","139","1363488","0.0-15.0-3.2","9925","List1A","black","woman","","","","","{""Q0"":""kate is fighting mike""}","<img src=""stim_listA/fight1.gif""style=""height:400px;""></stim_listA>","is fighting",""
"null","<div style=""font-size:60px;"">+</div>","","html-keyboard-response","140","1363989","0.0-15.0-0.3","9925","List1A","black","woman","","","","null","","","",""
"null","<img src=""stim_listA/touch4.gif""style=""height:400px;""></stim_listA>","","html-keyboard-response","141","1365992","0.0-15.0-1.3","9925","List1A","black","woman","","","","null","","","",""
"null","are touching each other","","html-keyboard-response","142","1367994","0.0-15.0-2.3","9925","List1A","black","woman","","","","null","","","",""
"24004","","","survey-text","143","1391999","0.0-15.0-3.3","9925","List1A","black","woman","","","","","{""Q0"":""ruth and luke are touching each other""}","<img src=""stim_listA/touch4.gif""style=""height:400px;""></stim_listA>","are touching each other",""
"null","<div style=""font-size:60px;"">+</div>","","html-keyboard-response","144","1392502","0.0-15.0-0.4","9925","List1A","black","woman","","","","null","","","",""
"null","<img src=""stim_listA/flirt4.gif""style=""height:400px;""></stim_listA>","","html-keyboard-response","145","1394504","0.0-15.0-1.4","9925","List1A","black","woman","","","","null","","","",""
"null","are flirting with each other","","html-keyboard-response","146","1396505","0.0-15.0-2.4","9925","List1A","black","woman","","","","null","","","",""
"58852","","","survey-text","147","1455359","0.0-15.0-3.4","9925","List1A","black","woman","","","","","{""Q0"":""dave and ruth are flirting with each other""}","<img src=""stim_listA/flirt4.gif""style=""height:400px;""></stim_listA>","are flirting with each other",""
"null","<div style=""font-size:60px;"">+</div>","","html-keyboard-response","148","1455863","0.0-15.0-0.5","9925","List1A","black","woman","","","","null","","","",""
"null","<img src=""stim_listA/kiss4.gif""style=""height:400px;""></stim_listA>","","html-keyboard-response","149","1457866","0.0-15.0-1.5","9925","List1A","black","woman","","","","null","","","",""
"null","are kissing each other","","html-keyboard-response","150","1459867","0.0-15.0-2.5","9925","List1A","black","woman","","","","null","","","",""
"34010","","","survey-text","151","1493878","0.0-15.0-3.5","9925","List1A","black","woman","","","","","{""Q0"":""dave and jane are kissing each other""}","<img src=""stim_listA/kiss4.gif""style=""height:400px;""></stim_listA>","are kissing each other",""
"null","<div style=""font-size:60px;"">+</div>","","html-keyboard-response","152","1494382","0.0-15.0-0.6","9925","List1A","black","woman","","","","null","","","",""
"null","<img src=""stim_listA/shout7.gif""style=""height:400px;""></stim_listA>","","html-keyboard-response","153","1496384","0.0-15.0-1.6","9925","List1A","black","woman","","","","null","","","",""
"null","is shouting at","","html-keyboard-response","154","1498386","0.0-15.0-2.6","9925","List1A","black","woman","","","","null","","","",""
"51019","","","survey-text","155","1549406","0.0-15.0-3.6","9925","List1A","black","woman","","","","","{""Q0"":""beth is shouting at ruth""}","<img src=""stim_listA/shout7.gif""style=""height:400px;""></stim_listA>","is shouting at",""
"null","<div style=""font-size:60px;"">+</div>","","html-keyboard-response","156","1549908","0.0-15.0-0.7","9925","List1A","black","woman","","","","null","","","",""
"null","<img src=""stim_listA/touch6.gif""style=""height:400px;""></stim_listA>","","html-keyboard-response","157","1551912","0.0-15.0-1.7","9925","List1A","black","woman","","","","null","","","",""
"null","are touching each other","","html-keyboard-response","158","1553914","0.0-15.0-2.7","9925","List1A","black","woman","","","","null","","","",""
"41587","","","survey-text","159","1595502","0.0-15.0-3.7","9925","List1A","black","woman","","","","","{""Q0"":""fred and luke are touching each other""}","<img src=""stim_listA/touch6.gif""style=""height:400px;""></stim_listA>","are touching each other",""
"null","<div style=""font-size:60px;"">+</div>","","html-keyboard-response","160","1596003","0.0-15.0-0.8","9925","List1A","black","woman","","","","null","","","",""
"null","<img src=""stim_listA/talk1.gif""style=""height:400px;""></stim_listA>","","html-keyboard-response","161","1598006","0.0-15.0-1.8","9925","List1A","black","woman","","","","null","","","",""
"null","is talking to","","html-keyboard-response","162","1600006","0.0-15.0-2.8","9925","List1A","black","woman","","","","null","","","",""
"32102","","","survey-text","163","1632109","0.0-15.0-3.8","9925","List1A","black","woman","","","","","{""Q0"":""mike is talking to beth""}","<img src=""stim_listA/talk1.gif""style=""height:400px;""></stim_listA>","is talking to",""
"null","<div style=""font-size:60px;"">+</div>","","html-keyboard-response","164","1632612","0.0-15.0-0.9","9925","List1A","black","woman","","","","null","","","",""
"null","<img src=""stim_listA/marry5.gif""style=""height:400px;""></stim_listA>","","html-keyboard-response","165","1634615","0.0-15.0-1.9","9925","List1A","black","woman","","","","null","","","",""
"null","is marrying","","html-keyboard-response","166","1636617","0.0-15.0-2.9","9925","List1A","black","woman","","","","null","","","",""
"55355","","","survey-text","167","1691972","0.0-15.0-3.9","9925","List1A","black","woman","","","","","{""Q0"":""mike is marrying luke""}","<img src=""stim_listA/marry5.gif""style=""height:400px;""></stim_listA>","is marrying",""
"null","<div style=""font-size:60px;"">+</div>","","html-keyboard-response","168","1692474","0.0-15.0-0.10","9925","List1A","black","woman","","","","null","","","",""
"null","<img src=""stim_listA/fight3.gif""style=""height:400px;""></stim_listA>","","html-keyboard-response","169","1694476","0.0-15.0-1.10","9925","List1A","black","woman","","","","null","","","",""
"null","is fighting","","html-keyboard-response","170","1696479","0.0-15.0-2.10","9925","List1A","black","woman","","","","null","","","",""
"28741","","","survey-text","171","1725220","0.0-15.0-3.10","9925","List1A","black","woman","","","","","{""Q0"":""dave is fighting jane""}","<img src=""stim_listA/fight3.gif""style=""height:400px;""></stim_listA>","is fighting",""
"null","<div style=""font-size:60px;"">+</div>","","html-keyboard-response","172","1725722","0.0-15.0-0.11","9925","List1A","black","woman","","","","null","","","",""
"null","<img src=""stim_listA/dance6.gif""style=""height:400px;""></stim_listA>","","html-keyboard-response","173","1727726","0.0-15.0-1.11","9925","List1A","black","woman","","","","null","","","",""
"null","are dancing with each other","","html-keyboard-response","174","1729727","0.0-15.0-2.11","9925","List1A","black","woman","","","","null","","","",""
"62651","","","survey-text","175","1792380","0.0-15.0-3.11","9925","List1A","black","woman","","","","","{""Q0"":""luke and mike are dancing with each other""}","<img src=""stim_listA/dance6.gif""style=""height:400px;""></stim_listA>","are dancing with each other",""
"null","<div style=""font-size:60px;"">+</div>","","html-keyboard-response","176","1792881","0.0-15.0-0.12","9925","List1A","black","woman","","","","null","","","",""
"null","<img src=""stim_listA/argue7.gif""style=""height:400px;""></stim_listA>","","html-keyboard-response","177","1794887","0.0-15.0-1.12","9925","List1A","black","woman","","","","null","","","",""
"null","is arguing with","","html-keyboard-response","178","1796889","0.0-15.0-2.12","9925","List1A","black","woman","","","","null","","","",""
"31369","","","survey-text","179","1828259","0.0-15.0-3.12","9925","List1A","black","woman","","","","","{""Q0"":""ruth is arguing with kate""}","<img src=""stim_listA/argue7.gif""style=""height:400px;""></stim_listA>","is arguing with",""
"null","<div style=""font-size:60px;"">+</div>","","html-keyboard-response","180","1828761","0.0-15.0-0.13","9925","List1A","black","woman","","","","null","","","",""
"null","<img src=""stim_listA/flirt2.gif""style=""height:400px;""></stim_listA>","","html-keyboard-response","181","1830763","0.0-15.0-1.13","9925","List1A","black","woman","","","","null","","","",""
"null","are flirting with each other","","html-keyboard-response","182","1832764","0.0-15.0-2.13","9925","List1A","black","woman","","","","null","","","",""
"44245","","","survey-text","183","1877010","0.0-15.0-3.13","9925","List1A","black","woman","","","","","{""Q0"":""mike and beth are flirting with each other""}","<img src=""stim_listA/flirt2.gif""style=""height:400px;""></stim_listA>","are flirting with each other",""
"null","<div style=""font-size:60px;"">+</div>","","html-keyboard-response","184","1877512","0.0-15.0-0.14","9925","List1A","black","woman","","","","null","","","",""
"null","<img src=""stim_listA/marry6.gif""style=""height:400px;""></stim_listA>","","html-keyboard-response","185","1879515","0.0-15.0-1.14","9925","List1A","black","woman","","","","null","","","",""
"null","are marrying each other","","html-keyboard-response","186","1881517","0.0-15.0-2.14","9925","List1A","black","woman","","","","null","","","",""
"29645","","","survey-text","187","1911162","0.0-15.0-3.14","9925","List1A","black","woman","","","","","{""Q0"":""dave and fred are marrying each other""}","<img src=""stim_listA/marry6.gif""style=""height:400px;""></stim_listA>","are marrying each other",""
"null","<div style=""font-size:60px;"">+</div>","","html-keyboard-response","188","1911664","0.0-15.0-0.15","9925","List1A","black","woman","","","","null","","","",""
"null","<img src=""stim_listA/play8.gif""style=""height:400px;""></stim_listA>","","html-keyboard-response","189","1913668","0.0-15.0-1.15","9925","List1A","black","woman","","","","null","","","",""
"null","are playing with each other","","html-keyboard-response","190","1915671","0.0-15.0-2.15","9925","List1A","black","woman","","","","null","","","",""
"35810","","","survey-text","191","1951482","0.0-15.0-3.15","9925","List1A","black","woman","","","","","{""Q0"":""ruth and beth are playing with each other""}","<img src=""stim_listA/play8.gif""style=""height:400px;""></stim_listA>","are playing with each other",""
"null","<div style=""font-size:60px;"">+</div>","","html-keyboard-response","192","1951984","0.0-15.0-0.16","9925","List1A","black","woman","","","","null","","","",""
"null","<img src=""stim_listA/play6.gif""style=""height:400px;""></stim_listA>","","html-keyboard-response","193","1953987","0.0-15.0-1.16","9925","List1A","black","woman","","","","null","","","",""
"null","are playing with each other","","html-keyboard-response","194","1955989","0.0-15.0-2.16","9925","List1A","black","woman","","","","null","","","",""
"24091","","","survey-text","195","1980082","0.0-15.0-3.16","9925","List1A","black","woman","","","","","{""Q0"":""luke and fred are playing with each other""}","<img src=""stim_listA/play6.gif""style=""height:400px;""></stim_listA>","are playing with each other",""
"null","<div style=""font-size:60px;"">+</div>","","html-keyboard-response","196","1980584","0.0-15.0-0.17","9925","List1A","black","woman","","","","null","","","",""
"null","<img src=""stim_listA/play5.gif""style=""height:400px;""></stim_listA>","","html-keyboard-response","197","1982586","0.0-15.0-1.17","9925","List1A","black","woman","","","","null","","","",""
"null","is playing with","","html-keyboard-response","198","1984589","0.0-15.0-2.17","9925","List1A","black","woman","","","","null","","","",""
"30691","","","survey-text","199","2015281","0.0-15.0-3.17","9925","List1A","black","woman","","","","","{""Q0"":""dave is playing with mike""}","<img src=""stim_listA/play5.gif""style=""height:400px;""></stim_listA>","is playing with",""
"null","<div style=""font-size:60px;"">+</div>","","html-keyboard-response","200","2015783","0.0-15.0-0.18","9925","List1A","black","woman","","","","null","","","",""
"null","<img src=""stim_listA/argue3.gif""style=""height:400px;""></stim_listA>","","html-keyboard-response","201","2017785","0.0-15.0-1.18","9925","List1A","black","woman","","","","null","","","",""
"null","is arguing with","","html-keyboard-response","202","2019787","0.0-15.0-2.18","9925","List1A","black","woman","","","","null","","","",""
"30381","","","survey-text","203","2050168","0.0-15.0-3.18","9925","List1A","black","woman","","","","","{""Q0"":""dave is arguing with ruth""}","<img src=""stim_listA/argue3.gif""style=""height:400px;""></stim_listA>","is arguing with",""
"null","<div style=""font-size:60px;"">+</div>","","html-keyboard-response","204","2050670","0.0-15.0-0.19","9925","List1A","black","woman","","","","null","","","",""
"null","<img src=""stim_listA/kiss6.gif""style=""height:400px;""></stim_listA>","","html-keyboard-response","205","2052673","0.0-15.0-1.19","9925","List1A","black","woman","","","","null","","","",""
"null","are kissing each other","","html-keyboard-response","206","2054675","0.0-15.0-2.19","9925","List1A","black","woman","","","","null","","","",""
"23731","","","survey-text","207","2078408","0.0-15.0-3.19","9925","List1A","black","woman","","","","","{""Q0"":""dave and mike are kissing each other""}","<img src=""stim_listA/kiss6.gif""style=""height:400px;""></stim_listA>","are kissing each other",""
"3334","<img src='img/portrait_matrix_list1.jpg' style='width:900px;height:500px;''></img><p>If you have memorised all the portraits and names and are ready to start, press Continue.</p><p><strong>Please note: Your memory of these faces will be tested 4 times during this experiment.</strong></p>","0","html-button-response","208","2081744","0.0-16.0-0.0","9925","List1A","black","woman","","","","","","","",""
"12230","<img src=""portrait/WW1.jpg""style=""height:400px;""></img>","1","html-button-response","209","2094976","0.0-16.0-1.0","9925","List1A","black","woman","","true","1","","","","",""
"null","CORRECT","","html-keyboard-response","210","2096480","0.0-16.0-2.0-0.0","9925","List1A","black","woman","","","","null","","","",""
"3958","<img src=""portrait/BW2.jpg""style=""height:400px;""></img>","2","html-button-response","211","2100440","0.0-16.0-4.0","9925","List1A","black","woman","","true","2","","","","",""
"null","CORRECT","","html-keyboard-response","212","2101943","0.0-16.0-5.0-0.0","9925","List1A","black","woman","","","","null","","","",""
"8991","<img src=""portrait/BW1.jpg""style=""height:400px;""></img>","0","html-button-response","213","2110936","0.0-16.0-7.0","9925","List1A","black","woman","","true","0","","","","",""
"null","CORRECT","","html-keyboard-response","214","2112439","0.0-16.0-8.0-0.0","9925","List1A","black","woman","","","","null","","","",""
"4455","<img src=""portrait/WM1.jpg""style=""height:400px;""></img>","6","html-button-response","215","2116896","0.0-16.0-10.0","9925","List1A","black","woman","","true","6","","","","",""
"null","CORRECT","","html-keyboard-response","216","2118399","0.0-16.0-11.0-0.0","9925","List1A","black","woman","","","","null","","","",""
"4791","<img src=""portrait/WM2.jpg""style=""height:400px;""></img>","7","html-button-response","217","2123192","0.0-16.0-13.0","9925","List1A","black","woman","","true","7","","","","",""
"null","CORRECT","","html-keyboard-response","218","2124695","0.0-16.0-14.0-0.0","9925","List1A","black","woman","","","","null","","","",""
"6055","<img src=""portrait/WW2.jpg""style=""height:400px;""></img>","3","html-button-response","219","2130752","0.0-16.0-16.0","9925","List1A","black","woman","","true","3","","","","",""
"null","CORRECT","","html-keyboard-response","220","2132254","0.0-16.0-17.0-0.0","9925","List1A","black","woman","","","","null","","","",""
"4560","<img src=""portrait/BM2.jpg""style=""height:400px;""></img>","5","html-button-response","221","2136816","0.0-16.0-19.0","9925","List1A","black","woman","","true","5","","","","",""
"null","CORRECT","","html-keyboard-response","222","2138319","0.0-16.0-20.0-0.0","9925","List1A","black","woman","","","","null","","","",""
"6607","<img src=""portrait/BM1.jpg""style=""height:400px;""></img>","4","html-button-response","223","2144928","0.0-16.0-22.0","9925","List1A","black","woman","","true","4","","","","",""
"null","CORRECT","","html-keyboard-response","224","2146432","0.0-16.0-23.0-0.0","9925","List1A","black","woman","","","","null","","","",""
"4198","<p>You got 8 out of 8 right first time. Press Continue.</p>","0","html-button-response","225","2150631","0.0-16.0-25.0","9925","List1A","black","woman","","","","","","","",""
"null","<div style=""font-size:60px;"">+</div>","","html-keyboard-response","226","2152136","0.0-17.0-0.0","9925","List1A","black","woman","","","","null","","","",""
"null","<img src=""stim_listA/play3.gif""style=""height:400px;""></stim_listA>","","html-keyboard-response","227","2154138","0.0-17.0-1.0","9925","List1A","black","woman","","","","null","","","",""
"null","is playing with","","html-keyboard-response","228","2156140","0.0-17.0-2.0","9925","List1A","black","woman","","","","null","","","",""
"28258","","","survey-text","229","2184399","0.0-17.0-3.0","9925","List1A","black","woman","","","","","{""Q0"":""dave is playing with jane""}","<img src=""stim_listA/play3.gif""style=""height:400px;""></stim_listA>","is playing with",""
"null","<div style=""font-size:60px;"">+</div>","","html-keyboard-response","230","2184901","0.0-17.0-0.1","9925","List1A","black","woman","","","","null","","","",""
"null","<img src=""stim_listA/shout2.gif""style=""height:400px;""></stim_listA>","","html-keyboard-response","231","2186903","0.0-17.0-1.1","9925","List1A","black","woman","","","","null","","","",""
"null","are shouting at each other","","html-keyboard-response","232","2188905","0.0-17.0-2.1","9925","List1A","black","woman","","","","null","","","",""
"22468","","","survey-text","233","2211374","0.0-17.0-3.1","9925","List1A","black","woman","","","","","{""Q0"":""kate and mike are shouting at each other""}","<img src=""stim_listA/shout2.gif""style=""height:400px;""></stim_listA>","are shouting at each other",""
"null","<div style=""font-size:60px;"">+</div>","","html-keyboard-response","234","2211876","0.0-17.0-0.2","9925","List1A","black","woman","","","","null","","","",""
"null","<img src=""stim_listA/marry8.gif""style=""height:400px;""></stim_listA>","","html-keyboard-response","235","2213879","0.0-17.0-1.2","9925","List1A","black","woman","","","","null","","","",""
"null","are marrying each other","","html-keyboard-response","236","2215880","0.0-17.0-2.2","9925","List1A","black","woman","","","","null","","","",""
"39989","","","survey-text","237","2255870","0.0-17.0-3.2","9925","List1A","black","woman","","","","","{""Q0"":""beth and jane are marrying each other""}","<img src=""stim_listA/marry8.gif""style=""height:400px;""></stim_listA>","are marrying each other",""
"null","<div style=""font-size:60px;"">+</div>","","html-keyboard-response","238","2256371","0.0-17.0-0.3","9925","List1A","black","woman","","","","null","","","",""
"null","<img src=""stim_listA/argue5.gif""style=""height:400px;""></stim_listA>","","html-keyboard-response","239","2258374","0.0-17.0-1.3","9925","List1A","black","woman","","","","null","","","",""
"null","is arguing with","","html-keyboard-response","240","2260376","0.0-17.0-2.3","9925","List1A","black","woman","","","","null","","","",""
"29892","","","survey-text","241","2290270","0.0-17.0-3.3","9925","List1A","black","woman","","","","","{""Q0"":""mike is arguing with luke""}","<img src=""stim_listA/argue5.gif""style=""height:400px;""></stim_listA>","is arguing with",""
"null","<div style=""font-size:60px;"">+</div>","","html-keyboard-response","242","2290772","0.0-17.0-0.4","9925","List1A","black","woman","","","","null","","","",""
"null","<img src=""stim_listA/marry3.gif""style=""height:400px;""></stim_listA>","","html-keyboard-response","243","2292773","0.0-17.0-1.4","9925","List1A","black","woman","","","","null","","","",""
"null","is marrying","","html-keyboard-response","244","2294775","0.0-17.0-2.4","9925","List1A","black","woman","","","","null","","","",""
"24853","","","survey-text","245","2319630","0.0-17.0-3.4","9925","List1A","black","woman","","","","","{""Q0"":""dave is marrying ruth""}","<img src=""stim_listA/marry3.gif""style=""height:400px;""></stim_listA>","is marrying",""
"null","<div style=""font-size:60px;"">+</div>","","html-keyboard-response","246","2320131","0.0-17.0-0.5","9925","List1A","black","woman","","","","null","","","",""
"null","<img src=""stim_listA/marry2.gif""style=""height:400px;""></stim_listA>","","html-keyboard-response","247","2322133","0.0-17.0-1.5","9925","List1A","black","woman","","","","null","","","",""
"null","are marrying each other","","html-keyboard-response","248","2324135","0.0-17.0-2.5","9925","List1A","black","woman","","","","null","","","",""
"27437","","","survey-text","249","2351573","0.0-17.0-3.5","9925","List1A","black","woman","","","","","{""Q0"":""fred and kate are marrying each other""}","<img src=""stim_listA/marry2.gif""style=""height:400px;""></stim_listA>","are marrying each other",""
"null","<div style=""font-size:60px;"">+</div>","","html-keyboard-response","250","2352075","0.0-17.0-0.6","9925","List1A","black","woman","","","","null","","","",""
"null","<img src=""stim_listA/flirt3.gif""style=""height:400px;""></stim_listA>","","html-keyboard-response","251","2354078","0.0-17.0-1.6","9925","List1A","black","woman","","","","null","","","",""
"null","is flirting with","","html-keyboard-response","252","2356080","0.0-17.0-2.6","9925","List1A","black","woman","","","","null","","","",""
"25132","","","survey-text","253","2381213","0.0-17.0-3.6","9925","List1A","black","woman","","","","","{""Q0"":""jane is flirting with luke""}","<img src=""stim_listA/flirt3.gif""style=""height:400px;""></stim_listA>","is flirting with",""
"null","<div style=""font-size:60px;"">+</div>","","html-keyboard-response","254","2381716","0.0-17.0-0.7","9925","List1A","black","woman","","","","null","","","",""
"null","<img src=""stim_listA/flirt8.gif""style=""height:400px;""></stim_listA>","","html-keyboard-response","255","2383718","0.0-17.0-1.7","9925","List1A","black","woman","","","","null","","","",""
"null","are flirting with each other","","html-keyboard-response","256","2385720","0.0-17.0-2.7","9925","List1A","black","woman","","","","null","","","",""
"27083","","","survey-text","257","2412805","0.0-17.0-3.7","9925","List1A","black","woman","","","","","{""Q0"":""kate and ruth are flirting with each other""}","<img src=""stim_listA/flirt8.gif""style=""height:400px;""></stim_listA>","are flirting with each other",""
"null","<div style=""font-size:60px;"">+</div>","","html-keyboard-response","258","2413307","0.0-17.0-0.8","9925","List1A","black","woman","","","","null","","","",""
"null","<img src=""stim_listA/shout6.gif""style=""height:400px;""></stim_listA>","","html-keyboard-response","259","2415309","0.0-17.0-1.8","9925","List1A","black","woman","","","","null","","","",""
"null","are shouting at each other","","html-keyboard-response","260","2417311","0.0-17.0-2.8","9925","List1A","black","woman","","","","null","","","",""
"25692","","","survey-text","261","2443005","0.0-17.0-3.8","9925","List1A","black","woman","","","","","{""Q0"":""dave and mike are shouting at each other""}","<img src=""stim_listA/shout6.gif""style=""height:400px;""></stim_listA>","are shouting at each other",""
"null","<div style=""font-size:60px;"">+</div>","","html-keyboard-response","262","2443507","0.0-17.0-0.9","9925","List1A","black","woman","","","","null","","","",""
"null","<img src=""stim_listA/dance2.gif""style=""height:400px;""></stim_listA>","","html-keyboard-response","263","2445510","0.0-17.0-1.9","9925","List1A","black","woman","","","","null","","","",""
"null","are dancing with each other","","html-keyboard-response","264","2447512","0.0-17.0-2.9","9925","List1A","black","woman","","","","null","","","",""
"18020","","","survey-text","265","2465532","0.0-17.0-3.9","9925","List1A","black","woman","","","","","{""Q0"":""beth and mike are dancing with each other""}","<img src=""stim_listA/dance2.gif""style=""height:400px;""></stim_listA>","are dancing with each other",""
"null","<div style=""font-size:60px;"">+</div>","","html-keyboard-response","266","2466034","0.0-17.0-0.10","9925","List1A","black","woman","","","","null","","","",""
"null","<img src=""stim_listA/kiss1.gif""style=""height:400px;""></stim_listA>","","html-keyboard-response","267","2468036","0.0-17.0-1.10","9925","List1A","black","woman","","","","null","","","",""
"null","is kissing","","html-keyboard-response","268","2470037","0.0-17.0-2.10","9925","List1A","black","woman","","","","null","","","",""
"10317","","","survey-text","269","2480356","0.0-17.0-3.10","9925","List1A","black","woman","","","","","{""Q0"":""fred is kissing beth""}","<img src=""stim_listA/kiss1.gif""style=""height:400px;""></stim_listA>","is kissing",""
"null","<div style=""font-size:60px;"">+</div>","","html-keyboard-response","270","2480857","0.0-17.0-0.11","9925","List1A","black","woman","","","","null","","","",""
"null","<img src=""stim_listA/marry7.gif""style=""height:400px;""></stim_listA>","","html-keyboard-response","271","2482860","0.0-17.0-1.11","9925","List1A","black","woman","","","","null","","","",""
"null","is marrying","","html-keyboard-response","272","2484862","0.0-17.0-2.11","9925","List1A","black","woman","","","","null","","","",""
"23348","","","survey-text","273","2508211","0.0-17.0-3.11","9925","List1A","black","woman","","","","","{""Q0"":""kate is kissing ruth""}","<img src=""stim_listA/marry7.gif""style=""height:400px;""></stim_listA>","is marrying",""
"null","<div style=""font-size:60px;"">+</div>","","html-keyboard-response","274","2508713","0.0-17.0-0.12","9925","List1A","black","woman","","","","null","","","",""
"null","<img src=""stim_listA/dance3.gif""style=""height:400px;""></stim_listA>","","html-keyboard-response","275","2510715","0.0-17.0-1.12","9925","List1A","black","woman","","","","null","","","",""
"null","is dancing with","","html-keyboard-response","276","2512717","0.0-17.0-2.12","9925","List1A","black","woman","","","","null","","","",""
"29316","","","survey-text","277","2542035","0.0-17.0-3.12","9925","List1A","black","woman","","","","","{""Q0"":""luke is dancing with jane""}","<img src=""stim_listA/dance3.gif""style=""height:400px;""></stim_listA>","is dancing with",""
"null","<div style=""font-size:60px;"">+</div>","","html-keyboard-response","278","2542538","0.0-17.0-0.13","9925","List1A","black","woman","","","","null","","","",""
"null","<img src=""stim_listA/talk6.gif""style=""height:400px;""></stim_listA>","","html-keyboard-response","279","2544542","0.0-17.0-1.13","9925","List1A","black","woman","","","","null","","","",""
"null","are talking to each other","","html-keyboard-response","280","2546545","0.0-17.0-2.13","9925","List1A","black","woman","","","","null","","","",""
"20842","","","survey-text","281","2567388","0.0-17.0-3.13","9925","List1A","black","woman","","","","","{""Q0"":""luke and mike are talking to each other""}","<img src=""stim_listA/talk6.gif""style=""height:400px;""></stim_listA>","are talking to each other",""
"null","<div style=""font-size:60px;"">+</div>","","html-keyboard-response","282","2567891","0.0-17.0-0.14","9925","List1A","black","woman","","","","null","","","",""
"null","<img src=""stim_listA/fight5.gif""style=""height:400px;""></stim_listA>","","html-keyboard-response","283","2569894","0.0-17.0-1.14","9925","List1A","black","woman","","","","null","","","",""
"null","is fighting","","html-keyboard-response","284","2571895","0.0-17.0-2.14","9925","List1A","black","woman","","","","null","","","",""
"9355","","","survey-text","285","2581251","0.0-17.0-3.14","9925","List1A","black","woman","","","","","{""Q0"":""dave is fighting mike""}","<img src=""stim_listA/fight5.gif""style=""height:400px;""></stim_listA>","is fighting",""
"null","<div style=""font-size:60px;"">+</div>","","html-keyboard-response","286","2581753","0.0-17.0-0.15","9925","List1A","black","woman","","","","null","","","",""
"null","<img src=""stim_listA/touch3.gif""style=""height:400px;""></stim_listA>","","html-keyboard-response","287","2583755","0.0-17.0-1.15","9925","List1A","black","woman","","","","null","","","",""
"null","is touching","","html-keyboard-response","288","2585757","0.0-17.0-2.15","9925","List1A","black","woman","","","","null","","","",""
"15205","","","survey-text","289","2600963","0.0-17.0-3.15","9925","List1A","black","woman","","","","","{""Q0"":""dave is touching jane""}","<img src=""stim_listA/touch3.gif""style=""height:400px;""></stim_listA>","is touching",""
"null","<div style=""font-size:60px;"">+</div>","","html-keyboard-response","290","2601465","0.0-17.0-0.16","9925","List1A","black","woman","","","","null","","","",""
"null","<img src=""stim_listA/marry1.gif""style=""height:400px;""></stim_listA>","","html-keyboard-response","291","2603468","0.0-17.0-1.16","9925","List1A","black","woman","","","","null","","","",""
"null","is marrying","","html-keyboard-response","292","2605471","0.0-17.0-2.16","9925","List1A","black","woman","","","","null","","","",""
"19091","","","survey-text","293","2624563","0.0-17.0-3.16","9925","List1A","black","woman","","","","","{""Q0"":""mike is marrying beth""}","<img src=""stim_listA/marry1.gif""style=""height:400px;""></stim_listA>","is marrying",""
"null","<div style=""font-size:60px;"">+</div>","","html-keyboard-response","294","2625064","0.0-17.0-0.17","9925","List1A","black","woman","","","","null","","","",""
"null","<img src=""stim_listA/dance4.gif""style=""height:400px;""></stim_listA>","","html-keyboard-response","295","2627067","0.0-17.0-1.17","9925","List1A","black","woman","","","","null","","","",""
"null","are dancing with each other","","html-keyboard-response","296","2629069","0.0-17.0-2.17","9925","List1A","black","woman","","","","null","","","",""
"14884","","","survey-text","297","2643954","0.0-17.0-3.17","9925","List1A","black","woman","","","","","{""Q0"":""dave and ruth are dancing with each other""}","<img src=""stim_listA/dance4.gif""style=""height:400px;""></stim_listA>","are dancing with each other",""
"null","<div style=""font-size:60px;"">+</div>","","html-keyboard-response","298","2644456","0.0-17.0-0.18","9925","List1A","black","woman","","","","null","","","",""
"null","<img src=""stim_listA/kiss7.gif""style=""height:400px;""></stim_listA>","","html-keyboard-response","299","2646460","0.0-17.0-1.18","9925","List1A","black","woman","","","","null","","","",""
"null","is kissing","","html-keyboard-response","300","2648463","0.0-17.0-2.18","9925","List1A","black","woman","","","","null","","","",""
"15914","","","survey-text","301","2664378","0.0-17.0-3.18","9925","List1A","black","woman","","","","","{""Q0"":""beth is kissing ruth""}","<img src=""stim_listA/kiss7.gif""style=""height:400px;""></stim_listA>","is kissing",""
"null","<div style=""font-size:60px;"">+</div>","","html-keyboard-response","302","2664880","0.0-17.0-0.19","9925","List1A","black","woman","","","","null","","","",""
"null","<img src=""stim_listA/play4.gif""style=""height:400px;""></stim_listA>","","html-keyboard-response","303","2666882","0.0-17.0-1.19","9925","List1A","black","woman","","","","null","","","",""
"null","are playing with each other","","html-keyboard-response","304","2668884","0.0-17.0-2.19","9925","List1A","black","woman","","","","null","","","",""
"17557","","","survey-text","305","2686442","0.0-17.0-3.19","9925","List1A","black","woman","","","","","{""Q0"":""ruth and luke are playing with each other""}","<img src=""stim_listA/play4.gif""style=""height:400px;""></stim_listA>","are playing with each other",""
"2270","<img src='img/portrait_matrix_list1.jpg' style='width:900px;height:500px;''></img><p>If you have memorised all the portraits and names and are ready to start, press Continue.</p><p><strong>Please note: Your memory of these faces will be tested 4 times during this experiment.</strong></p>","0","html-button-response","306","2688714","0.0-18.0-0.0","9925","List1A","black","woman","","","","","","","",""
"5901","<img src=""portrait/WW1.jpg""style=""height:400px;""></img>","1","html-button-response","307","2695618","0.0-18.0-1.0","9925","List1A","black","woman","","true","1","","","","",""
"null","CORRECT","","html-keyboard-response","308","2697121","0.0-18.0-2.0-0.0","9925","List1A","black","woman","","","","null","","","",""
"3150","<img src=""portrait/BM2.jpg""style=""height:400px;""></img>","5","html-button-response","309","2700274","0.0-18.0-4.0","9925","List1A","black","woman","","true","5","","","","",""
"null","CORRECT","","html-keyboard-response","310","2701778","0.0-18.0-5.0-0.0","9925","List1A","black","woman","","","","null","","","",""
"3158","<img src=""portrait/WM1.jpg""style=""height:400px;""></img>","6","html-button-response","311","2704938","0.0-18.0-7.0","9925","List1A","black","woman","","true","6","","","","",""
"null","CORRECT","","html-keyboard-response","312","2706442","0.0-18.0-8.0-0.0","9925","List1A","black","woman","","","","null","","","",""
"7038","<img src=""portrait/BW1.jpg""style=""height:400px;""></img>","0","html-button-response","313","2713482","0.0-18.0-10.0","9925","List1A","black","woman","","true","0","","","","",""
"null","CORRECT","","html-keyboard-response","314","2714986","0.0-18.0-11.0-0.0","9925","List1A","black","woman","","","","null","","","",""
"4110","<img src=""portrait/BM1.jpg""style=""height:400px;""></img>","4","html-button-response","315","2719098","0.0-18.0-13.0","9925","List1A","black","woman","","true","4","","","","",""
"null","CORRECT","","html-keyboard-response","316","2720671","0.0-18.0-14.0-0.0","9925","List1A","black","woman","","","","null","","","",""
"10329","<img src=""portrait/WW2.jpg""style=""height:400px;""></img>","3","html-button-response","317","2731002","0.0-18.0-16.0","9925","List1A","black","woman","","true","3","","","","",""
"null","CORRECT","","html-keyboard-response","318","2732505","0.0-18.0-17.0-0.0","9925","List1A","black","woman","","","","null","","","",""
"3655","<img src=""portrait/WM2.jpg""style=""height:400px;""></img>","7","html-button-response","319","2736162","0.0-18.0-19.0","9925","List1A","black","woman","","true","7","","","","",""
"null","CORRECT","","html-keyboard-response","320","2737687","0.0-18.0-20.0-0.0","9925","List1A","black","woman","","","","null","","","",""
"5655","<img src=""portrait/BW2.jpg""style=""height:400px;""></img>","2","html-button-response","321","2743345","0.0-18.0-22.0","9925","List1A","black","woman","","true","2","","","","",""
"null","CORRECT","","html-keyboard-response","322","2744848","0.0-18.0-23.0-0.0","9925","List1A","black","woman","","","","null","","","",""
"5366","<p>You got 8 out of 8 right first time. Press Continue.</p>","0","html-button-response","323","2750217","0.0-18.0-25.0","9925","List1A","black","woman","","","","","","","",""
"null","<div style=""font-size:60px;"">+</div>","","html-keyboard-response","324","2751720","0.0-19.0-0.0","9925","List1A","black","woman","","","","null","","","",""
"null","<img src=""stim_listA/flirt5.gif""style=""height:400px;""></stim_listA>","","html-keyboard-response","325","2753724","0.0-19.0-1.0","9925","List1A","black","woman","","","","null","","","",""
"null","is flirting with","","html-keyboard-response","326","2755726","0.0-19.0-2.0","9925","List1A","black","woman","","","","null","","","",""
"11786","","","survey-text","327","2767513","0.0-19.0-3.0","9925","List1A","black","woman","","","","","{""Q0"":""fred is flirting with dave""}","<img src=""stim_listA/flirt5.gif""style=""height:400px;""></stim_listA>","is flirting with",""
"null","<div style=""font-size:60px;"">+</div>","","html-keyboard-response","328","2768015","0.0-19.0-0.1","9925","List1A","black","woman","","","","null","","","",""
"null","<img src=""stim_listA/argue1.gif""style=""height:400px;""></stim_listA>","","html-keyboard-response","329","2770017","0.0-19.0-1.1","9925","List1A","black","woman","","","","null","","","",""
"null","is arguing with","","html-keyboard-response","330","2772019","0.0-19.0-2.1","9925","List1A","black","woman","","","","null","","","",""
"13413","","","survey-text","331","2785432","0.0-19.0-3.1","9925","List1A","black","woman","","","","","{""Q0"":""beth is fighting with mike""}","<img src=""stim_listA/argue1.gif""style=""height:400px;""></stim_listA>","is arguing with",""
"null","<div style=""font-size:60px;"">+</div>","","html-keyboard-response","332","2785934","0.0-19.0-0.2","9925","List1A","black","woman","","","","null","","","",""
"null","<img src=""stim_listA/touch7.gif""style=""height:400px;""></stim_listA>","","html-keyboard-response","333","2787936","0.0-19.0-1.2","9925","List1A","black","woman","","","","null","","","",""
"null","is touching","","html-keyboard-response","334","2789937","0.0-19.0-2.2","9925","List1A","black","woman","","","","null","","","",""
"11767","","","survey-text","335","2801704","0.0-19.0-3.2","9925","List1A","black","woman","","","","","{""Q0"":""kate is touching jane""}","<img src=""stim_listA/touch7.gif""style=""height:400px;""></stim_listA>","is touching",""
"null","<div style=""font-size:60px;"">+</div>","","html-keyboard-response","336","2802206","0.0-19.0-0.3","9925","List1A","black","woman","","","","null","","","",""
"null","<img src=""stim_listA/dance8.gif""style=""height:400px;""></stim_listA>","","html-keyboard-response","337","2804209","0.0-19.0-1.3","9925","List1A","black","woman","","","","null","","","",""
"null","are dancing with each other","","html-keyboard-response","338","2806214","0.0-19.0-2.3","9925","List1A","black","woman","","","","null","","","",""
"21112","","","survey-text","339","2827328","0.0-19.0-3.3","9925","List1A","black","woman","","","","","{""Q0"":""ruth and kate are dancing with each other""}","<img src=""stim_listA/dance8.gif""style=""height:400px;""></stim_listA>","are dancing with each other",""
"null","<div style=""font-size:60px;"">+</div>","","html-keyboard-response","340","2827830","0.0-19.0-0.4","9925","List1A","black","woman","","","","null","","","",""
"null","<img src=""stim_listA/shout4.gif""style=""height:400px;""></stim_listA>","","html-keyboard-response","341","2829833","0.0-19.0-1.4","9925","List1A","black","woman","","","","null","","","",""
"null","are shouting at each other","","html-keyboard-response","342","2831834","0.0-19.0-2.4","9925","List1A","black","woman","","","","null","","","",""
"13141","","","survey-text","343","2844976","0.0-19.0-3.4","9925","List1A","black","woman","","","","","{""Q0"":""dave and jane are shouting at each other""}","<img src=""stim_listA/shout4.gif""style=""height:400px;""></stim_listA>","are shouting at each other",""
"null","<div style=""font-size:60px;"">+</div>","","html-keyboard-response","344","2845478","0.0-19.0-0.5","9925","List1A","black","woman","","","","null","","","",""
"null","<img src=""stim_listA/flirt7.gif""style=""height:400px;""></stim_listA>","","html-keyboard-response","345","2847482","0.0-19.0-1.5","9925","List1A","black","woman","","","","null","","","",""
"null","is flirting with","","html-keyboard-response","346","2849483","0.0-19.0-2.5","9925","List1A","black","woman","","","","null","","","",""
"12932","","","survey-text","347","2862416","0.0-19.0-3.5","9925","List1A","black","woman","","","","","{""Q0"":""beth is flirting with jane""}","<img src=""stim_listA/flirt7.gif""style=""height:400px;""></stim_listA>","is flirting with",""
"null","<div style=""font-size:60px;"">+</div>","","html-keyboard-response","348","2862919","0.0-19.0-0.6","9925","List1A","black","woman","","","","null","","","",""
"null","<img src=""stim_listA/talk5.gif""style=""height:400px;""></stim_listA>","","html-keyboard-response","349","2864922","0.0-19.0-1.6","9925","List1A","black","woman","","","","null","","","",""
"null","is talking to","","html-keyboard-response","350","2866925","0.0-19.0-2.6","9925","List1A","black","woman","","","","null","","","",""
"7769","","","survey-text","351","2874696","0.0-19.0-3.6","9925","List1A","black","woman","","","","","{""Q0"":""fred is talking to dave""}","<img src=""stim_listA/talk5.gif""style=""height:400px;""></stim_listA>","is talking to",""
"null","<div style=""font-size:60px;"">+</div>","","html-keyboard-response","352","2875198","0.0-19.0-0.7","9925","List1A","black","woman","","","","null","","","",""
"null","<img src=""stim_listA/play1.gif""style=""height:400px;""></stim_listA>","","html-keyboard-response","353","2877201","0.0-19.0-1.7","9925","List1A","black","woman","","","","null","","","",""
"null","is playing with","","html-keyboard-response","354","2879203","0.0-19.0-2.7","9925","List1A","black","woman","","","","null","","","",""
"8730","","","survey-text","355","2887934","0.0-19.0-3.7","9925","List1A","black","woman","","","","","{""Q0"":""kate is playing with mike""}","<img src=""stim_listA/play1.gif""style=""height:400px;""></stim_listA>","is playing with",""
"null","<div style=""font-size:60px;"">+</div>","","html-keyboard-response","356","2888437","0.0-19.0-0.8","9925","List1A","black","woman","","","","null","","","",""
"null","<img src=""stim_listA/argue2.gif""style=""height:400px;""></stim_listA>","","html-keyboard-response","357","2890439","0.0-19.0-1.8","9925","List1A","black","woman","","","","null","","","",""
"null","are arguing with each other","","html-keyboard-response","358","2892440","0.0-19.0-2.8","9925","List1A","black","woman","","","","null","","","",""
"17326","","","survey-text","359","2909767","0.0-19.0-3.8","9925","List1A","black","woman","","","","","{""Q0"":""fred and kate are arguing with each other""}","<img src=""stim_listA/argue2.gif""style=""height:400px;""></stim_listA>","are arguing with each other",""
"null","<div style=""font-size:60px;"">+</div>","","html-keyboard-response","360","2910270","0.0-19.0-0.9","9925","List1A","black","woman","","","","null","","","",""
"null","<img src=""stim_listA/fight6.gif""style=""height:400px;""></stim_listA>","","html-keyboard-response","361","2912273","0.0-19.0-1.9","9925","List1A","black","woman","","","","null","","","",""
"null","are fighting each other","","html-keyboard-response","362","2914275","0.0-19.0-2.9","9925","List1A","black","woman","","","","null","","","",""
"12771","","","survey-text","363","2927047","0.0-19.0-3.9","9925","List1A","black","woman","","","","","{""Q0"":""fred and luke are fighting each other""}","<img src=""stim_listA/fight6.gif""style=""height:400px;""></stim_listA>","are fighting each other",""
"null","<div style=""font-size:60px;"">+</div>","","html-keyboard-response","364","2927549","0.0-19.0-0.10","9925","List1A","black","woman","","","","null","","","",""
"null","<img src=""stim_listA/shout1.gif""style=""height:400px;""></stim_listA>","","html-keyboard-response","365","2929552","0.0-19.0-1.10","9925","List1A","black","woman","","","","null","","","",""
"null","is shouting at","","html-keyboard-response","366","2931554","0.0-19.0-2.10","9925","List1A","black","woman","","","","null","","","",""
"9835","","","survey-text","367","2941391","0.0-19.0-3.10","9925","List1A","black","woman","","","","","{""Q0"":""fred is shouting at beth""}","<img src=""stim_listA/shout1.gif""style=""height:400px;""></stim_listA>","is shouting at",""
"null","<div style=""font-size:60px;"">+</div>","","html-keyboard-response","368","2941892","0.0-19.0-0.11","9925","List1A","black","woman","","","","null","","","",""
"null","<img src=""stim_listA/marry4.gif""style=""height:400px;""></stim_listA>","","html-keyboard-response","369","2943894","0.0-19.0-1.11","9925","List1A","black","woman","","","","null","","","",""
"null","are marrying each other","","html-keyboard-response","370","2945897","0.0-19.0-2.11","9925","List1A","black","woman","","","","null","","","",""
"28036","","","survey-text","371","2973934","0.0-19.0-3.11","9925","List1A","black","woman","","","","","{""Q0"":""luke and jane are marrying each other""}","<img src=""stim_listA/marry4.gif""style=""height:400px;""></stim_listA>","are marrying each other",""
"null","<div style=""font-size:60px;"">+</div>","","html-keyboard-response","372","2974436","0.0-19.0-0.12","9925","List1A","black","woman","","","","null","","","",""
"null","<img src=""stim_listA/kiss5.gif""style=""height:400px;""></stim_listA>","","html-keyboard-response","373","2976439","0.0-19.0-1.12","9925","List1A","black","woman","","","","null","","","",""
"null","is kissing","","html-keyboard-response","374","2978441","0.0-19.0-2.12","9925","List1A","black","woman","","","","null","","","",""
"11925","","","survey-text","375","2990366","0.0-19.0-3.12","9925","List1A","black","woman","","","","","{""Q0"":""fred is kissing luke""}","<img src=""stim_listA/kiss5.gif""style=""height:400px;""></stim_listA>","is kissing",""
"null","<div style=""font-size:60px;"">+</div>","","html-keyboard-response","376","2990868","0.0-19.0-0.13","9925","List1A","black","woman","","","","null","","","",""
"null","<img src=""stim_listA/dance7.gif""style=""height:400px;""></stim_listA>","","html-keyboard-response","377","2992870","0.0-19.0-1.13","9925","List1A","black","woman","","","","null","","","",""
"null","is dancing with","","html-keyboard-response","378","2994872","0.0-19.0-2.13","9925","List1A","black","woman","","","","null","","","",""
"11965","","","survey-text","379","3006838","0.0-19.0-3.13","9925","List1A","black","woman","","","","","{""Q0"":""beth is dancing with jane""}","<img src=""stim_listA/dance7.gif""style=""height:400px;""></stim_listA>","is dancing with",""
"null","<div style=""font-size:60px;"">+</div>","","html-keyboard-response","380","3007340","0.0-19.0-0.14","9925","List1A","black","woman","","","","null","","","",""
"null","<img src=""stim_listA/talk2.gif""style=""height:400px;""></stim_listA>","","html-keyboard-response","381","3009343","0.0-19.0-1.14","9925","List1A","black","woman","","","","null","","","",""
"null","are talking to each other","","html-keyboard-response","382","3011345","0.0-19.0-2.14","9925","List1A","black","woman","","","","null","","","",""
"16555","","","survey-text","383","3027902","0.0-19.0-3.14","9925","List1A","black","woman","","","","","{""Q0"":""mike and beth are talking to each other""}","<img src=""stim_listA/talk2.gif""style=""height:400px;""></stim_listA>","are talking to each other",""
"null","<div style=""font-size:60px;"">+</div>","","html-keyboard-response","384","3028404","0.0-19.0-0.15","9925","List1A","black","woman","","","","null","","","",""
"null","<img src=""stim_listA/touch5.gif""style=""height:400px;""></stim_listA>","","html-keyboard-response","385","3030407","0.0-19.0-1.15","9925","List1A","black","woman","","","","null","","","",""
"null","is touching","","html-keyboard-response","386","3032409","0.0-19.0-2.15","9925","List1A","black","woman","","","","null","","","",""
"12804","","","survey-text","387","3045214","0.0-19.0-3.15","9925","List1A","black","woman","","","","","{""Q0"":""dave is touching mike""}","<img src=""stim_listA/touch5.gif""style=""height:400px;""></stim_listA>","is touching",""
"null","<div style=""font-size:60px;"">+</div>","","html-keyboard-response","388","3045716","0.0-19.0-0.16","9925","List1A","black","woman","","","","null","","","",""
"null","<img src=""stim_listA/argue8.gif""style=""height:400px;""></stim_listA>","","html-keyboard-response","389","3047718","0.0-19.0-1.16","9925","List1A","black","woman","","","","null","","","",""
"null","are arguing with each other","","html-keyboard-response","390","3049720","0.0-19.0-2.16","9925","List1A","black","woman","","","","null","","","",""
"12308","","","survey-text","391","3062030","0.0-19.0-3.16","9925","List1A","black","woman","","","","","{""Q0"":""beth and jane are arguing with each other""}","<img src=""stim_listA/argue8.gif""style=""height:400px;""></stim_listA>","are arguing with each other",""
"null","<div style=""font-size:60px;"">+</div>","","html-keyboard-response","392","3062532","0.0-19.0-0.17","9925","List1A","black","woman","","","","null","","","",""
"null","<img src=""stim_listA/play2.gif""style=""height:400px;""></stim_listA>","","html-keyboard-response","393","3064535","0.0-19.0-1.17","9925","List1A","black","woman","","","","null","","","",""
"null","are playing with each other","","html-keyboard-response","394","3066538","0.0-19.0-2.17","9925","List1A","black","woman","","","","null","","","",""
"19811","","","survey-text","395","3086349","0.0-19.0-3.17","9925","List1A","black","woman","","","","","{""Q0"":""beth and fred are playing with each other""}","<img src=""stim_listA/play2.gif""style=""height:400px;""></stim_listA>","are playing with each other",""
"null","<div style=""font-size:60px;"">+</div>","","html-keyboard-response","396","3086851","0.0-19.0-0.18","9925","List1A","black","woman","","","","null","","","",""
"null","<img src=""stim_listA/touch8.gif""style=""height:400px;""></stim_listA>","","html-keyboard-response","397","3088853","0.0-19.0-1.18","9925","List1A","black","woman","","","","null","","","",""
"null","are touching each other","","html-keyboard-response","398","3090854","0.0-19.0-2.18","9925","List1A","black","woman","","","","null","","","",""
"16159","","","survey-text","399","3107014","0.0-19.0-3.18","9925","List1A","black","woman","","","","","{""Q0"":""beth and ruth are touching each other""}","<img src=""stim_listA/touch8.gif""style=""height:400px;""></stim_listA>","are touching each other",""
"null","<div style=""font-size:60px;"">+</div>","","html-keyboard-response","400","3107516","0.0-19.0-0.19","9925","List1A","black","woman","","","","null","","","",""
"null","<img src=""stim_listA/shout5.gif""style=""height:400px;""></stim_listA>","","html-keyboard-response","401","3109519","0.0-19.0-1.19","9925","List1A","black","woman","","","","null","","","",""
"null","is shouting at","","html-keyboard-response","402","3111521","0.0-19.0-2.19","9925","List1A","black","woman","","","","null","","","",""
"11123","","","survey-text","403","3122645","0.0-19.0-3.19","9925","List1A","black","woman","","","","","{""Q0"":""fred is shouting at luke""}","<img src=""stim_listA/shout5.gif""style=""height:400px;""></stim_listA>","is shouting at",""
"2071","<p>Thank you for completing that task.</p><p>The final part of this session is a short questionnaire.</p><p>Press Continue.</p>","0","html-button-response","404","3124718","0.0-20.0","9925","List1A","black","woman","","","","","","","",""
"43532","","","survey-text","405","3169253","0.0-21.0","9925","List1A","black","woman","","","","","{""Q0"":""27"",""Q1"":""English"",""Q2"":""English"",""Q3"":""United kingdom"",""Q4"":""African American"",""Q5"":""Female""}","","","demographics"
"7448","","","survey-likert","406","3176733","0.0-22.0","9925","List1A","black","woman","","","","","{""Q0"":4}","","","likert_ESS"
"9405","","","survey-likert","407","3186173","0.0-23.0","9925","List1A","black","woman","","","","","{""Q0"":4}","","","likert_NSSAL_Q1"
"4230","","","survey-likert","408","3190437","0.0-24.0","9925","List1A","black","woman","","","","","{""Q0"":4}","","","likert_NSSAL_Q2"
"3860","","","survey-likert","409","3194333","0.0-25.0","9925","List1A","black","woman","","","","","{""Q0"":4}","","","likert_CGRS_Q1"
"4767","","","survey-likert","410","3199133","0.0-26.0","9925","List1A","black","woman","","","","","{""Q0"":4}","","","likert_CGRS_Q2"
"2901","","","survey-likert","411","3202068","0.0-27.0","9925","List1A","black","woman","","","","","{""Q0"":4}","","","likert_CGRS_Q3"
"6259","","","survey-text","412","3208364","0.0-28.0","9925","List1A","black","woman","","","","","{""Q0"":""5e398f67586bd31a4d3edbf4""}","","","worker_id"
"31479","","","external-html","413","3240804","0.0-29.0","9925","List1A","black","woman","debrief.html","","","","","","",""
