rt,stimulus,button_pressed,trial_type,trial_index,time_elapsed,internal_node_id,subject,list,ppt_race,ppt_gender,url,first_guess,correct,key_press,responses,image_type,phrase_type,test_part
4801,Welcome to the experiment. Press Continue to begin.,0,html-button-response,0,4804,0.0-0.0,99431,List1A,white,woman,,,,,,,,
35847,,,external-html,1,41709,0.0-1.0,99431,List1A,white,woman,consent.html,,,,,,,
10785,"<p>On the next page, you will see portraits of 8 people and their names.</p><p>Your first task is to take a few minutes to memorise the names of these people.</p><p>You will have to recall their names during the rest of the experiment, so it is</p><p>essential that you try to memorise these people and their names as best as you can.</p><br><p><strong>You will then be tested on your memory of these names and portraits.</strong></p><br><p>The experiment will start after you have completed this memory test.</p><br><p>Ready?</p>",0,html-button-response,2,52498,0.0-2.0,99431,List1A,white,woman,,,,,,,,
61346,"<img src='img/portrait_matrix_list1.jpg' style='width:900px;height:500px;''></img><p>If you have memorised all the portraits and names and are ready to start, press Continue.</p><p><strong>Please note: Your memory of these faces will be tested 4 times during this experiment.</strong></p>",0,html-button-response,3,114848,0.0-3.0-0.0,99431,List1A,white,woman,,,,,,,,
3457,"<img src=""portrait/BM2.jpg""style=""height:400px;""></img>",5,html-button-response,4,119312,0.0-3.0-1.0,99431,List1A,white,woman,,TRUE,5,,,,,
null,CORRECT,,html-keyboard-response,5,120825,0.0-3.0-2.0-0.0,99431,List1A,white,woman,,,,null,,,,
3294,"<img src=""portrait/WM1.jpg""style=""height:400px;""></img>",6,html-button-response,6,124121,0.0-3.0-4.0,99431,List1A,white,woman,,TRUE,6,,,,,
null,CORRECT,,html-keyboard-response,7,125635,0.0-3.0-5.0-0.0,99431,List1A,white,woman,,,,null,,,,
6411,"<img src=""portrait/WW1.jpg""style=""height:400px;""></img>",1,html-button-response,8,132047,0.0-3.0-7.0,99431,List1A,white,woman,,TRUE,1,,,,,
null,CORRECT,,html-keyboard-response,9,133559,0.0-3.0-8.0-0.0,99431,List1A,white,woman,,,,null,,,,
2874,"<img src=""portrait/BW1.jpg""style=""height:400px;""></img>",0,html-button-response,10,136434,0.0-3.0-10.0,99431,List1A,white,woman,,TRUE,0,,,,,
null,CORRECT,,html-keyboard-response,11,137944,0.0-3.0-11.0-0.0,99431,List1A,white,woman,,,,null,,,,
8334,"<img src=""portrait/WW2.jpg""style=""height:400px;""></img>",3,html-button-response,12,146281,0.0-3.0-13.0,99431,List1A,white,woman,,TRUE,3,,,,,
null,CORRECT,,html-keyboard-response,13,147789,0.0-3.0-14.0-0.0,99431,List1A,white,woman,,,,null,,,,
1547,"<img src=""portrait/BM1.jpg""style=""height:400px;""></img>",4,html-button-response,14,149338,0.0-3.0-16.0,99431,List1A,white,woman,,TRUE,4,,,,,
null,CORRECT,,html-keyboard-response,15,150848,0.0-3.0-17.0-0.0,99431,List1A,white,woman,,,,null,,,,
2098,"<img src=""portrait/WM2.jpg""style=""height:400px;""></img>",7,html-button-response,16,152948,0.0-3.0-19.0,99431,List1A,white,woman,,TRUE,7,,,,,
null,CORRECT,,html-keyboard-response,17,154450,0.0-3.0-20.0-0.0,99431,List1A,white,woman,,,,null,,,,
3040,"<img src=""portrait/BW2.jpg""style=""height:400px;""></img>",2,html-button-response,18,157492,0.0-3.0-22.0,99431,List1A,white,woman,,TRUE,2,,,,,
null,CORRECT,,html-keyboard-response,19,158999,0.0-3.0-23.0-0.0,99431,List1A,white,woman,,,,null,,,,
1416,<p>You got 8 out of 8 right first time. Press Continue.</p>,0,html-button-response,20,160416,0.0-3.0-25.0,99431,List1A,white,woman,,,,,,,,
32350,"<p>In this experiment, you will view photographs of the people from the memory game interacting.</p><p>By using the <strong>exact</strong> phrase given <i>after</i> the photograph appears and recalling the correct names of the people in the photographs, form a sentence describing the interaction. You do not need to capitalise names.</p><p>Type your answer in the space provided. Please complete every sentence before moving onto the next trial.</p><p>You will only have a few seconds to memorise each given photograph and phrase before you can respond, so try your best to focus.</p><p>An example is given below. Press 'Continue' when you are ready.</p><img src='img/speaking_example.jpg' style='width:800px;height:460px;''></img>",0,html-button-response,21,193772,0.0-4.0,99431,List1A,white,woman,,,,,,,,
1723,"<p>Before the experiment starts, you will watch two example trials. Press 'Continue'.</p>",0,html-button-response,22,196498,0.0-5.0,99431,List1A,white,woman,,,,,,,,
null,<img src='img/meet_eg.gif' style='height:400px;''></img>,,html-keyboard-response,23,199501,0.0-6.0,99431,List1A,white,woman,,,,null,,,,
null,<p>is meeting</p>,,html-keyboard-response,24,201507,0.0-7.0,99431,List1A,white,woman,,,,null,,,,
1975,<p><b>Answer:</b> kate is meeting beth</p>,0,html-button-response,25,203483,0.0-8.0,99431,List1A,white,woman,,,,,,,,
null,<img src='img/look_eg.gif' style='height:400px;''></img>,,html-keyboard-response,26,206492,0.0-9.0,99431,List1A,white,woman,,,,null,,,,
null,<p>are looking at each other</p>,,html-keyboard-response,27,208498,0.0-10.0,99431,List1A,white,woman,,,,null,,,,
1404,<p><b>Answer:</b> luke and dave are looking at each other</p>,0,html-button-response,28,209904,0.0-11.0,99431,List1A,white,woman,,,,,,,,
4934,"<p>Ready to start the experiment?</p><br><p><strong>Remember to describe the picture using a full sentence,</strong></p><p><strong>that combines the names of the people with the <i>exact</i> phrase given.</strong></p><p><strong>To receive full payment you must do this correctly.</strong></p><p><strong> You do not need to capitalise names or use punctuation.</strong></p><br><p>Press 'Continue' to begin.</p>",0,html-button-response,29,215845,0.0-12.0,99431,List1A,white,woman,,,,,,,,
null,"<div style=""font-size:60px;"">+</div>",,html-keyboard-response,30,217356,0.0-13.0-0.0,99431,List1A,white,woman,,,,null,,,,
null,"<img src=""stim_listA/flirt1.gif""style=""height:400px;""></stim_listA>",,html-keyboard-response,31,219358,0.0-13.0-1.0,99431,List1A,white,woman,,,,null,,,,
null,is flirting with,,html-keyboard-response,32,221364,0.0-13.0-2.0,99431,List1A,white,woman,,,,null,,,,
8829,,,survey-text,33,230195,0.0-13.0-3.0,99431,List1A,white,woman,,,,,"{""Q0"":""Fred is flirting with beth""}","<img src=""stim_listA/flirt1.gif""style=""height:400px;""></stim_listA>",is flirting with,
null,"<div style=""font-size:60px;"">+</div>",,html-keyboard-response,34,230697,0.0-13.0-0.1,99431,List1A,white,woman,,,,null,,,,
null,"<img src=""stim_listA/argue4.gif""style=""height:400px;""></stim_listA>",,html-keyboard-response,35,232698,0.0-13.0-1.1,99431,List1A,white,woman,,,,null,,,,
null,are arguing with each other,,html-keyboard-response,36,234703,0.0-13.0-2.1,99431,List1A,white,woman,,,,null,,,,
9947,,,survey-text,37,244651,0.0-13.0-3.1,99431,List1A,white,woman,,,,,"{""Q0"":""Jane is arguing with luke""}","<img src=""stim_listA/argue4.gif""style=""height:400px;""></stim_listA>",are arguing with each other,
null,"<div style=""font-size:60px;"">+</div>",,html-keyboard-response,38,245153,0.0-13.0-0.2,99431,List1A,white,woman,,,,null,,,,
null,"<img src=""stim_listA/touch4.gif""style=""height:400px;""></stim_listA>",,html-keyboard-response,39,247155,0.0-13.0-1.2,99431,List1A,white,woman,,,,null,,,,
null,are touching each other,,html-keyboard-response,40,249156,0.0-13.0-2.2,99431,List1A,white,woman,,,,null,,,,
14552,,,survey-text,41,263708,0.0-13.0-3.2,99431,List1A,white,woman,,,,,"{""Q0"":""Ruth and luke are touching each other""}","<img src=""stim_listA/touch4.gif""style=""height:400px;""></stim_listA>",are touching each other,
null,"<div style=""font-size:60px;"">+</div>",,html-keyboard-response,42,264213,0.0-13.0-0.3,99431,List1A,white,woman,,,,null,,,,
null,"<img src=""stim_listA/touch5.gif""style=""height:400px;""></stim_listA>",,html-keyboard-response,43,266214,0.0-13.0-1.3,99431,List1A,white,woman,,,,null,,,,
null,is touching,,html-keyboard-response,44,268217,0.0-13.0-2.3,99431,List1A,white,woman,,,,null,,,,
5840,,,survey-text,45,274058,0.0-13.0-3.3,99431,List1A,white,woman,,,,,"{""Q0"":""Mike is touching dave""}","<img src=""stim_listA/touch5.gif""style=""height:400px;""></stim_listA>",is touching,
null,"<div style=""font-size:60px;"">+</div>",,html-keyboard-response,46,274560,0.0-13.0-0.4,99431,List1A,white,woman,,,,null,,,,
null,"<img src=""stim_listA/dance3.gif""style=""height:400px;""></stim_listA>",,html-keyboard-response,47,276562,0.0-13.0-1.4,99431,List1A,white,woman,,,,null,,,,
null,is dancing with,,html-keyboard-response,48,278567,0.0-13.0-2.4,99431,List1A,white,woman,,,,null,,,,
7353,,,survey-text,49,285921,0.0-13.0-3.4,99431,List1A,white,woman,,,,,"{""Q0"":""Ruth is dancing with Luke""}","<img src=""stim_listA/dance3.gif""style=""height:400px;""></stim_listA>",is dancing with,
null,"<div style=""font-size:60px;"">+</div>",,html-keyboard-response,50,286423,0.0-13.0-0.5,99431,List1A,white,woman,,,,null,,,,
null,"<img src=""stim_listA/touch1.gif""style=""height:400px;""></stim_listA>",,html-keyboard-response,51,288425,0.0-13.0-1.5,99431,List1A,white,woman,,,,null,,,,
null,is touching,,html-keyboard-response,52,290427,0.0-13.0-2.5,99431,List1A,white,woman,,,,null,,,,
5943,,,survey-text,53,296372,0.0-13.0-3.5,99431,List1A,white,woman,,,,,"{""Q0"":""Mike is touching beth""}","<img src=""stim_listA/touch1.gif""style=""height:400px;""></stim_listA>",is touching,
null,"<div style=""font-size:60px;"">+</div>",,html-keyboard-response,54,296873,0.0-13.0-0.6,99431,List1A,white,woman,,,,null,,,,
null,"<img src=""stim_listA/shout1.gif""style=""height:400px;""></stim_listA>",,html-keyboard-response,55,298875,0.0-13.0-1.6,99431,List1A,white,woman,,,,null,,,,
null,is shouting at,,html-keyboard-response,56,300875,0.0-13.0-2.6,99431,List1A,white,woman,,,,null,,,,
18152,,,survey-text,57,319028,0.0-13.0-3.6,99431,List1A,white,woman,,,,,"{""Q0"":""Fred is shouting at Beth""}","<img src=""stim_listA/shout1.gif""style=""height:400px;""></stim_listA>",is shouting at,
null,"<div style=""font-size:60px;"">+</div>",,html-keyboard-response,58,319531,0.0-13.0-0.7,99431,List1A,white,woman,,,,null,,,,
null,"<img src=""stim_listA/marry2.gif""style=""height:400px;""></stim_listA>",,html-keyboard-response,59,321532,0.0-13.0-1.7,99431,List1A,white,woman,,,,null,,,,
null,are marrying each other,,html-keyboard-response,60,323533,0.0-13.0-2.7,99431,List1A,white,woman,,,,null,,,,
8519,,,survey-text,61,332053,0.0-13.0-3.7,99431,List1A,white,woman,,,,,"{""Q0"":""Beth and fred are marrying each other""}","<img src=""stim_listA/marry2.gif""style=""height:400px;""></stim_listA>",are marrying each other,
null,"<div style=""font-size:60px;"">+</div>",,html-keyboard-response,62,332555,0.0-13.0-0.8,99431,List1A,white,woman,,,,null,,,,
null,"<img src=""stim_listA/dance5.gif""style=""height:400px;""></stim_listA>",,html-keyboard-response,63,334556,0.0-13.0-1.8,99431,List1A,white,woman,,,,null,,,,
null,is dancing with,,html-keyboard-response,64,336557,0.0-13.0-2.8,99431,List1A,white,woman,,,,null,,,,
5622,,,survey-text,65,342180,0.0-13.0-3.8,99431,List1A,white,woman,,,,,"{""Q0"":""Dave is dancing with fred""}","<img src=""stim_listA/dance5.gif""style=""height:400px;""></stim_listA>",is dancing with,
null,"<div style=""font-size:60px;"">+</div>",,html-keyboard-response,66,342684,0.0-13.0-0.9,99431,List1A,white,woman,,,,null,,,,
null,"<img src=""stim_listA/kiss8.gif""style=""height:400px;""></stim_listA>",,html-keyboard-response,67,344685,0.0-13.0-1.9,99431,List1A,white,woman,,,,null,,,,
null,are kissing each other,,html-keyboard-response,68,346687,0.0-13.0-2.9,99431,List1A,white,woman,,,,null,,,,
7452,,,survey-text,69,354139,0.0-13.0-3.9,99431,List1A,white,woman,,,,,"{""Q0"":""Ruth and beth are kissing each other""}","<img src=""stim_listA/kiss8.gif""style=""height:400px;""></stim_listA>",are kissing each other,
null,"<div style=""font-size:60px;"">+</div>",,html-keyboard-response,70,354641,0.0-13.0-0.10,99431,List1A,white,woman,,,,null,,,,
null,"<img src=""stim_listA/play5.gif""style=""height:400px;""></stim_listA>",,html-keyboard-response,71,356645,0.0-13.0-1.10,99431,List1A,white,woman,,,,null,,,,
null,is playing with,,html-keyboard-response,72,358650,0.0-13.0-2.10,99431,List1A,white,woman,,,,null,,,,
5052,,,survey-text,73,363703,0.0-13.0-3.10,99431,List1A,white,woman,,,,,"{""Q0"":""Dave is playing with mike""}","<img src=""stim_listA/play5.gif""style=""height:400px;""></stim_listA>",is playing with,
null,"<div style=""font-size:60px;"">+</div>",,html-keyboard-response,74,364205,0.0-13.0-0.11,99431,List1A,white,woman,,,,null,,,,
null,"<img src=""stim_listA/fight7.gif""style=""height:400px;""></stim_listA>",,html-keyboard-response,75,366210,0.0-13.0-1.11,99431,List1A,white,woman,,,,null,,,,
null,is fighting,,html-keyboard-response,76,368211,0.0-13.0-2.11,99431,List1A,white,woman,,,,null,,,,
8192,,,survey-text,77,376405,0.0-13.0-3.11,99431,List1A,white,woman,,,,,"{""Q0"":""Beth is fighting with jane""}","<img src=""stim_listA/fight7.gif""style=""height:400px;""></stim_listA>",is fighting,
null,"<div style=""font-size:60px;"">+</div>",,html-keyboard-response,78,376906,0.0-13.0-0.12,99431,List1A,white,woman,,,,null,,,,
null,"<img src=""stim_listA/argue2.gif""style=""height:400px;""></stim_listA>",,html-keyboard-response,79,378909,0.0-13.0-1.12,99431,List1A,white,woman,,,,null,,,,
null,are arguing with each other,,html-keyboard-response,80,380913,0.0-13.0-2.12,99431,List1A,white,woman,,,,null,,,,
10160,,,survey-text,81,391075,0.0-13.0-3.12,99431,List1A,white,woman,,,,,"{""Q0"":""Beth and fred are arguing with each other""}","<img src=""stim_listA/argue2.gif""style=""height:400px;""></stim_listA>",are arguing with each other,
null,"<div style=""font-size:60px;"">+</div>",,html-keyboard-response,82,391577,0.0-13.0-0.13,99431,List1A,white,woman,,,,null,,,,
null,"<img src=""stim_listA/flirt5.gif""style=""height:400px;""></stim_listA>",,html-keyboard-response,83,393579,0.0-13.0-1.13,99431,List1A,white,woman,,,,null,,,,
null,is flirting with,,html-keyboard-response,84,395581,0.0-13.0-2.13,99431,List1A,white,woman,,,,null,,,,
6103,,,survey-text,85,401685,0.0-13.0-3.13,99431,List1A,white,woman,,,,,"{""Q0"":""Dave is flirting with fred""}","<img src=""stim_listA/flirt5.gif""style=""height:400px;""></stim_listA>",is flirting with,
null,"<div style=""font-size:60px;"">+</div>",,html-keyboard-response,86,402187,0.0-13.0-0.14,99431,List1A,white,woman,,,,null,,,,
null,"<img src=""stim_listA/kiss4.gif""style=""height:400px;""></stim_listA>",,html-keyboard-response,87,404189,0.0-13.0-1.14,99431,List1A,white,woman,,,,null,,,,
null,are kissing each other,,html-keyboard-response,88,406190,0.0-13.0-2.14,99431,List1A,white,woman,,,,null,,,,
7148,,,survey-text,89,413340,0.0-13.0-3.14,99431,List1A,white,woman,,,,,"{""Q0"":""Ruth and dave are kissing each other""}","<img src=""stim_listA/kiss4.gif""style=""height:400px;""></stim_listA>",are kissing each other,
null,"<div style=""font-size:60px;"">+</div>",,html-keyboard-response,90,413840,0.0-13.0-0.15,99431,List1A,white,woman,,,,null,,,,
null,"<img src=""stim_listA/talk2.gif""style=""height:400px;""></stim_listA>",,html-keyboard-response,91,415842,0.0-13.0-1.15,99431,List1A,white,woman,,,,null,,,,
null,are talking to each other,,html-keyboard-response,92,417843,0.0-13.0-2.15,99431,List1A,white,woman,,,,null,,,,
8574,,,survey-text,93,426418,0.0-13.0-3.15,99431,List1A,white,woman,,,,,"{""Q0"":""Beth and Mike are talking to each other""}","<img src=""stim_listA/talk2.gif""style=""height:400px;""></stim_listA>",are talking to each other,
null,"<div style=""font-size:60px;"">+</div>",,html-keyboard-response,94,426921,0.0-13.0-0.16,99431,List1A,white,woman,,,,null,,,,
null,"<img src=""stim_listA/fight1.gif""style=""height:400px;""></stim_listA>",,html-keyboard-response,95,428923,0.0-13.0-1.16,99431,List1A,white,woman,,,,null,,,,
null,is fighting,,html-keyboard-response,96,430928,0.0-13.0-2.16,99431,List1A,white,woman,,,,null,,,,
4565,,,survey-text,97,435495,0.0-13.0-3.16,99431,List1A,white,woman,,,,,"{""Q0"":""Beth is fighting mike""}","<img src=""stim_listA/fight1.gif""style=""height:400px;""></stim_listA>",is fighting,
null,"<div style=""font-size:60px;"">+</div>",,html-keyboard-response,98,435996,0.0-13.0-0.17,99431,List1A,white,woman,,,,null,,,,
null,"<img src=""stim_listA/flirt2.gif""style=""height:400px;""></stim_listA>",,html-keyboard-response,99,437999,0.0-13.0-1.17,99431,List1A,white,woman,,,,null,,,,
null,are flirting with each other,,html-keyboard-response,100,440005,0.0-13.0-2.17,99431,List1A,white,woman,,,,null,,,,
7943,,,survey-text,101,447949,0.0-13.0-3.17,99431,List1A,white,woman,,,,,"{""Q0"":""Beth and Mike are flirting with each other""}","<img src=""stim_listA/flirt2.gif""style=""height:400px;""></stim_listA>",are flirting with each other,
null,"<div style=""font-size:60px;"">+</div>",,html-keyboard-response,102,448450,0.0-13.0-0.18,99431,List1A,white,woman,,,,null,,,,
null,"<img src=""stim_listA/talk4.gif""style=""height:400px;""></stim_listA>",,html-keyboard-response,103,450451,0.0-13.0-1.18,99431,List1A,white,woman,,,,null,,,,
null,are talking to each other,,html-keyboard-response,104,452452,0.0-13.0-2.18,99431,List1A,white,woman,,,,null,,,,
7256,,,survey-text,105,459709,0.0-13.0-3.18,99431,List1A,white,woman,,,,,"{""Q0"":""Ruth and Mike are talking to each other""}","<img src=""stim_listA/talk4.gif""style=""height:400px;""></stim_listA>",are talking to each other,
null,"<div style=""font-size:60px;"">+</div>",,html-keyboard-response,106,460211,0.0-13.0-0.19,99431,List1A,white,woman,,,,null,,,,
null,"<img src=""stim_listA/kiss7.gif""style=""height:400px;""></stim_listA>",,html-keyboard-response,107,462212,0.0-13.0-1.19,99431,List1A,white,woman,,,,null,,,,
null,is kissing,,html-keyboard-response,108,464216,0.0-13.0-2.19,99431,List1A,white,woman,,,,null,,,,
4883,,,survey-text,109,469101,0.0-13.0-3.19,99431,List1A,white,woman,,,,,"{""Q0"":""Ruth is kissing Beth""}","<img src=""stim_listA/kiss7.gif""style=""height:400px;""></stim_listA>",is kissing,
18806,"<img src='img/portrait_matrix_list1.jpg' style='width:900px;height:500px;''></img><p>If you have memorised all the portraits and names and are ready to start, press Continue.</p><p><strong>Please note: Your memory of these faces will be tested 4 times during this experiment.</strong></p>",0,html-button-response,110,487908,0.0-14.0-0.0,99431,List1A,white,woman,,,,,,,,
4428,"<img src=""portrait/WW1.jpg""style=""height:400px;""></img>",1,html-button-response,111,493343,0.0-14.0-1.0,99431,List1A,white,woman,,TRUE,1,,,,,
null,CORRECT,,html-keyboard-response,112,494850,0.0-14.0-2.0-0.0,99431,List1A,white,woman,,,,null,,,,
2300,"<img src=""portrait/BM2.jpg""style=""height:400px;""></img>",5,html-button-response,113,497152,0.0-14.0-4.0,99431,List1A,white,woman,,TRUE,5,,,,,
null,CORRECT,,html-keyboard-response,114,498655,0.0-14.0-5.0-0.0,99431,List1A,white,woman,,,,null,,,,
1760,"<img src=""portrait/BW2.jpg""style=""height:400px;""></img>",2,html-button-response,115,500416,0.0-14.0-7.0,99431,List1A,white,woman,,TRUE,2,,,,,
null,CORRECT,,html-keyboard-response,116,501924,0.0-14.0-8.0-0.0,99431,List1A,white,woman,,,,null,,,,
2047,"<img src=""portrait/BW1.jpg""style=""height:400px;""></img>",0,html-button-response,117,503972,0.0-14.0-10.0,99431,List1A,white,woman,,TRUE,0,,,,,
null,CORRECT,,html-keyboard-response,118,505483,0.0-14.0-11.0-0.0,99431,List1A,white,woman,,,,null,,,,
1756,"<img src=""portrait/BM1.jpg""style=""height:400px;""></img>",4,html-button-response,119,507240,0.0-14.0-13.0,99431,List1A,white,woman,,TRUE,4,,,,,
null,CORRECT,,html-keyboard-response,120,508751,0.0-14.0-14.0-0.0,99431,List1A,white,woman,,,,null,,,,
1620,"<img src=""portrait/WM2.jpg""style=""height:400px;""></img>",7,html-button-response,121,510373,0.0-14.0-16.0,99431,List1A,white,woman,,TRUE,7,,,,,
null,CORRECT,,html-keyboard-response,122,511880,0.0-14.0-17.0-0.0,99431,List1A,white,woman,,,,null,,,,
1863,"<img src=""portrait/WM1.jpg""style=""height:400px;""></img>",6,html-button-response,123,513744,0.0-14.0-19.0,99431,List1A,white,woman,,TRUE,6,,,,,
null,CORRECT,,html-keyboard-response,124,515255,0.0-14.0-20.0-0.0,99431,List1A,white,woman,,,,null,,,,
1714,"<img src=""portrait/WW2.jpg""style=""height:400px;""></img>",3,html-button-response,125,516971,0.0-14.0-22.0,99431,List1A,white,woman,,TRUE,3,,,,,
null,CORRECT,,html-keyboard-response,126,518482,0.0-14.0-23.0-0.0,99431,List1A,white,woman,,,,null,,,,
1811,<p>You got 8 out of 8 right first time. Press Continue.</p>,0,html-button-response,127,520295,0.0-14.0-25.0,99431,List1A,white,woman,,,,,,,,
null,"<div style=""font-size:60px;"">+</div>",,html-keyboard-response,128,521806,0.0-15.0-0.0,99431,List1A,white,woman,,,,null,,,,
null,"<img src=""stim_listA/touch3.gif""style=""height:400px;""></stim_listA>",,html-keyboard-response,129,523810,0.0-15.0-1.0,99431,List1A,white,woman,,,,null,,,,
null,is touching,,html-keyboard-response,130,525813,0.0-15.0-2.0,99431,List1A,white,woman,,,,null,,,,
4679,,,survey-text,131,530493,0.0-15.0-3.0,99431,List1A,white,woman,,,,,"{""Q0"":""Jane is touching dave""}","<img src=""stim_listA/touch3.gif""style=""height:400px;""></stim_listA>",is touching,
null,"<div style=""font-size:60px;"">+</div>",,html-keyboard-response,132,530994,0.0-15.0-0.1,99431,List1A,white,woman,,,,null,,,,
null,"<img src=""stim_listA/fight8.gif""style=""height:400px;""></stim_listA>",,html-keyboard-response,133,532995,0.0-15.0-1.1,99431,List1A,white,woman,,,,null,,,,
null,are fighting each other,,html-keyboard-response,134,534999,0.0-15.0-2.1,99431,List1A,white,woman,,,,null,,,,
7307,,,survey-text,135,542307,0.0-15.0-3.1,99431,List1A,white,woman,,,,,"{""Q0"":""Beth and ruth are fighting each other""}","<img src=""stim_listA/fight8.gif""style=""height:400px;""></stim_listA>",are fighting each other,
null,"<div style=""font-size:60px;"">+</div>",,html-keyboard-response,136,542808,0.0-15.0-0.2,99431,List1A,white,woman,,,,null,,,,
null,"<img src=""stim_listA/kiss5.gif""style=""height:400px;""></stim_listA>",,html-keyboard-response,137,544810,0.0-15.0-1.2,99431,List1A,white,woman,,,,null,,,,
null,is kissing,,html-keyboard-response,138,546814,0.0-15.0-2.2,99431,List1A,white,woman,,,,null,,,,
5111,,,survey-text,139,551926,0.0-15.0-3.2,99431,List1A,white,woman,,,,,"{""Q0"":""fred is kissing luke""}","<img src=""stim_listA/kiss5.gif""style=""height:400px;""></stim_listA>",is kissing,
null,"<div style=""font-size:60px;"">+</div>",,html-keyboard-response,140,552428,0.0-15.0-0.3,99431,List1A,white,woman,,,,null,,,,
null,"<img src=""stim_listA/shout6.gif""style=""height:400px;""></stim_listA>",,html-keyboard-response,141,554430,0.0-15.0-1.3,99431,List1A,white,woman,,,,null,,,,
null,are shouting at each other,,html-keyboard-response,142,556436,0.0-15.0-2.3,99431,List1A,white,woman,,,,null,,,,
8316,,,survey-text,143,564753,0.0-15.0-3.3,99431,List1A,white,woman,,,,,"{""Q0"":""Dave and mike are shouting at each other""}","<img src=""stim_listA/shout6.gif""style=""height:400px;""></stim_listA>",are shouting at each other,
null,"<div style=""font-size:60px;"">+</div>",,html-keyboard-response,144,565254,0.0-15.0-0.4,99431,List1A,white,woman,,,,null,,,,
null,"<img src=""stim_listA/argue7.gif""style=""height:400px;""></stim_listA>",,html-keyboard-response,145,567256,0.0-15.0-1.4,99431,List1A,white,woman,,,,null,,,,
null,is arguing with,,html-keyboard-response,146,569260,0.0-15.0-2.4,99431,List1A,white,woman,,,,null,,,,
5934,,,survey-text,147,575195,0.0-15.0-3.4,99431,List1A,white,woman,,,,,"{""Q0"":""Kate is arguing with ruth""}","<img src=""stim_listA/argue7.gif""style=""height:400px;""></stim_listA>",is arguing with,
null,"<div style=""font-size:60px;"">+</div>",,html-keyboard-response,148,575696,0.0-15.0-0.5,99431,List1A,white,woman,,,,null,,,,
null,"<img src=""stim_listA/play7.gif""style=""height:400px;""></stim_listA>",,html-keyboard-response,149,577698,0.0-15.0-1.5,99431,List1A,white,woman,,,,null,,,,
null,is playing with,,html-keyboard-response,150,579699,0.0-15.0-2.5,99431,List1A,white,woman,,,,null,,,,
5538,,,survey-text,151,585239,0.0-15.0-3.5,99431,List1A,white,woman,,,,,"{""Q0"":""Jane is playing with kate""}","<img src=""stim_listA/play7.gif""style=""height:400px;""></stim_listA>",is playing with,
null,"<div style=""font-size:60px;"">+</div>",,html-keyboard-response,152,585741,0.0-15.0-0.6,99431,List1A,white,woman,,,,null,,,,
null,"<img src=""stim_listA/talk6.gif""style=""height:400px;""></stim_listA>",,html-keyboard-response,153,587745,0.0-15.0-1.6,99431,List1A,white,woman,,,,null,,,,
null,are talking to each other,,html-keyboard-response,154,589746,0.0-15.0-2.6,99431,List1A,white,woman,,,,null,,,,
6816,,,survey-text,155,596563,0.0-15.0-3.6,99431,List1A,white,woman,,,,,"{""Q0"":""Luke and mike are talking to each other""}","<img src=""stim_listA/talk6.gif""style=""height:400px;""></stim_listA>",are talking to each other,
null,"<div style=""font-size:60px;"">+</div>",,html-keyboard-response,156,597066,0.0-15.0-0.7,99431,List1A,white,woman,,,,null,,,,
null,"<img src=""stim_listA/flirt7.gif""style=""height:400px;""></stim_listA>",,html-keyboard-response,157,599068,0.0-15.0-1.7,99431,List1A,white,woman,,,,null,,,,
null,is flirting with,,html-keyboard-response,158,601070,0.0-15.0-2.7,99431,List1A,white,woman,,,,null,,,,
5803,,,survey-text,159,606875,0.0-15.0-3.7,99431,List1A,white,woman,,,,,"{""Q0"":""Beth is flirting with jane""}","<img src=""stim_listA/flirt7.gif""style=""height:400px;""></stim_listA>",is flirting with,
null,"<div style=""font-size:60px;"">+</div>",,html-keyboard-response,160,607377,0.0-15.0-0.8,99431,List1A,white,woman,,,,null,,,,
null,"<img src=""stim_listA/touch2.gif""style=""height:400px;""></stim_listA>",,html-keyboard-response,161,609378,0.0-15.0-1.8,99431,List1A,white,woman,,,,null,,,,
null,are touching each other,,html-keyboard-response,162,611383,0.0-15.0-2.8,99431,List1A,white,woman,,,,null,,,,
6659,,,survey-text,163,618043,0.0-15.0-3.8,99431,List1A,white,woman,,,,,"{""Q0"":""Beth and fred are touching each other""}","<img src=""stim_listA/touch2.gif""style=""height:400px;""></stim_listA>",are touching each other,
null,"<div style=""font-size:60px;"">+</div>",,html-keyboard-response,164,618545,0.0-15.0-0.9,99431,List1A,white,woman,,,,null,,,,
null,"<img src=""stim_listA/talk7.gif""style=""height:400px;""></stim_listA>",,html-keyboard-response,165,620548,0.0-15.0-1.9,99431,List1A,white,woman,,,,null,,,,
null,is talking to,,html-keyboard-response,166,622551,0.0-15.0-2.9,99431,List1A,white,woman,,,,null,,,,
5985,,,survey-text,167,628538,0.0-15.0-3.9,99431,List1A,white,woman,,,,,"{""Q0"":""beth is talking to jane""}","<img src=""stim_listA/talk7.gif""style=""height:400px;""></stim_listA>",is talking to,
null,"<div style=""font-size:60px;"">+</div>",,html-keyboard-response,168,629039,0.0-15.0-0.10,99431,List1A,white,woman,,,,null,,,,
null,"<img src=""stim_listA/play3.gif""style=""height:400px;""></stim_listA>",,html-keyboard-response,169,631041,0.0-15.0-1.10,99431,List1A,white,woman,,,,null,,,,
null,is playing with,,html-keyboard-response,170,633044,0.0-15.0-2.10,99431,List1A,white,woman,,,,null,,,,
6805,,,survey-text,171,639851,0.0-15.0-3.10,99431,List1A,white,woman,,,,,"{""Q0"":""jane is playing with dave""}","<img src=""stim_listA/play3.gif""style=""height:400px;""></stim_listA>",is playing with,
null,"<div style=""font-size:60px;"">+</div>",,html-keyboard-response,172,640352,0.0-15.0-0.11,99431,List1A,white,woman,,,,null,,,,
null,"<img src=""stim_listA/dance6.gif""style=""height:400px;""></stim_listA>",,html-keyboard-response,173,642356,0.0-15.0-1.11,99431,List1A,white,woman,,,,null,,,,
null,are dancing with each other,,html-keyboard-response,174,644357,0.0-15.0-2.11,99431,List1A,white,woman,,,,null,,,,
6821,,,survey-text,175,651179,0.0-15.0-3.11,99431,List1A,white,woman,,,,,"{""Q0"":""Mike are luke are dancing with each other""}","<img src=""stim_listA/dance6.gif""style=""height:400px;""></stim_listA>",are dancing with each other,
null,"<div style=""font-size:60px;"">+</div>",,html-keyboard-response,176,651681,0.0-15.0-0.12,99431,List1A,white,woman,,,,null,,,,
null,"<img src=""stim_listA/touch7.gif""style=""height:400px;""></stim_listA>",,html-keyboard-response,177,653683,0.0-15.0-1.12,99431,List1A,white,woman,,,,null,,,,
null,is touching,,html-keyboard-response,178,655688,0.0-15.0-2.12,99431,List1A,white,woman,,,,null,,,,
3741,,,survey-text,179,659429,0.0-15.0-3.12,99431,List1A,white,woman,,,,,"{""Q0"":""kate is touching jane""}","<img src=""stim_listA/touch7.gif""style=""height:400px;""></stim_listA>",is touching,
null,"<div style=""font-size:60px;"">+</div>",,html-keyboard-response,180,659931,0.0-15.0-0.13,99431,List1A,white,woman,,,,null,,,,
null,"<img src=""stim_listA/flirt3.gif""style=""height:400px;""></stim_listA>",,html-keyboard-response,181,661933,0.0-15.0-1.13,99431,List1A,white,woman,,,,null,,,,
null,is flirting with,,html-keyboard-response,182,663935,0.0-15.0-2.13,99431,List1A,white,woman,,,,null,,,,
5849,,,survey-text,183,669786,0.0-15.0-3.13,99431,List1A,white,woman,,,,,"{""Q0"":""luke is flirting with jane""}","<img src=""stim_listA/flirt3.gif""style=""height:400px;""></stim_listA>",is flirting with,
null,"<div style=""font-size:60px;"">+</div>",,html-keyboard-response,184,670288,0.0-15.0-0.14,99431,List1A,white,woman,,,,null,,,,
null,"<img src=""stim_listA/marry4.gif""style=""height:400px;""></stim_listA>",,html-keyboard-response,185,672290,0.0-15.0-1.14,99431,List1A,white,woman,,,,null,,,,
null,are marrying each other,,html-keyboard-response,186,674291,0.0-15.0-2.14,99431,List1A,white,woman,,,,null,,,,
6383,,,survey-text,187,680676,0.0-15.0-3.14,99431,List1A,white,woman,,,,,"{""Q0"":""Jane and luke are marrying each other""}","<img src=""stim_listA/marry4.gif""style=""height:400px;""></stim_listA>",are marrying each other,
null,"<div style=""font-size:60px;"">+</div>",,html-keyboard-response,188,681178,0.0-15.0-0.15,99431,List1A,white,woman,,,,null,,,,
null,"<img src=""stim_listA/play1.gif""style=""height:400px;""></stim_listA>",,html-keyboard-response,189,683183,0.0-15.0-1.15,99431,List1A,white,woman,,,,null,,,,
null,is playing with,,html-keyboard-response,190,685183,0.0-15.0-2.15,99431,List1A,white,woman,,,,null,,,,
5013,,,survey-text,191,690198,0.0-15.0-3.15,99431,List1A,white,woman,,,,,"{""Q0"":""kate is playing with mike""}","<img src=""stim_listA/play1.gif""style=""height:400px;""></stim_listA>",is playing with,
null,"<div style=""font-size:60px;"">+</div>",,html-keyboard-response,192,690700,0.0-15.0-0.16,99431,List1A,white,woman,,,,null,,,,
null,"<img src=""stim_listA/fight5.gif""style=""height:400px;""></stim_listA>",,html-keyboard-response,193,692704,0.0-15.0-1.16,99431,List1A,white,woman,,,,null,,,,
null,is fighting,,html-keyboard-response,194,694707,0.0-15.0-2.16,99431,List1A,white,woman,,,,null,,,,
5319,,,survey-text,195,700028,0.0-15.0-3.16,99431,List1A,white,woman,,,,,"{""Q0"":""mike is fighting dave""}","<img src=""stim_listA/fight5.gif""style=""height:400px;""></stim_listA>",is fighting,
null,"<div style=""font-size:60px;"">+</div>",,html-keyboard-response,196,700529,0.0-15.0-0.17,99431,List1A,white,woman,,,,null,,,,
null,"<img src=""stim_listA/touch8.gif""style=""height:400px;""></stim_listA>",,html-keyboard-response,197,702531,0.0-15.0-1.17,99431,List1A,white,woman,,,,null,,,,
null,are touching each other,,html-keyboard-response,198,704535,0.0-15.0-2.17,99431,List1A,white,woman,,,,null,,,,
9647,,,survey-text,199,714183,0.0-15.0-3.17,99431,List1A,white,woman,,,,,"{""Q0"":""Ruth and beth are touching each other""}","<img src=""stim_listA/touch8.gif""style=""height:400px;""></stim_listA>",are touching each other,
null,"<div style=""font-size:60px;"">+</div>",,html-keyboard-response,200,714686,0.0-15.0-0.18,99431,List1A,white,woman,,,,null,,,,
null,"<img src=""stim_listA/fight3.gif""style=""height:400px;""></stim_listA>",,html-keyboard-response,201,716687,0.0-15.0-1.18,99431,List1A,white,woman,,,,null,,,,
null,is fighting,,html-keyboard-response,202,718689,0.0-15.0-2.18,99431,List1A,white,woman,,,,null,,,,
4383,,,survey-text,203,723073,0.0-15.0-3.18,99431,List1A,white,woman,,,,,"{""Q0"":""Dave is fighting jane""}","<img src=""stim_listA/fight3.gif""style=""height:400px;""></stim_listA>",is fighting,
null,"<div style=""font-size:60px;"">+</div>",,html-keyboard-response,204,723579,0.0-15.0-0.19,99431,List1A,white,woman,,,,null,,,,
null,"<img src=""stim_listA/play8.gif""style=""height:400px;""></stim_listA>",,html-keyboard-response,205,725582,0.0-15.0-1.19,99431,List1A,white,woman,,,,null,,,,
null,are playing with each other,,html-keyboard-response,206,727584,0.0-15.0-2.19,99431,List1A,white,woman,,,,null,,,,
10567,,,survey-text,207,738152,0.0-15.0-3.19,99431,List1A,white,woman,,,,,"{""Q0"":""Ruth and beth are playing each other""}","<img src=""stim_listA/play8.gif""style=""height:400px;""></stim_listA>",are playing with each other,
3235,"<img src='img/portrait_matrix_list1.jpg' style='width:900px;height:500px;''></img><p>If you have memorised all the portraits and names and are ready to start, press Continue.</p><p><strong>Please note: Your memory of these faces will be tested 4 times during this experiment.</strong></p>",0,html-button-response,208,741388,0.0-16.0-0.0,99431,List1A,white,woman,,,,,,,,
1737,"<img src=""portrait/BM1.jpg""style=""height:400px;""></img>",4,html-button-response,209,744133,0.0-16.0-1.0,99431,List1A,white,woman,,TRUE,4,,,,,
null,CORRECT,,html-keyboard-response,210,745644,0.0-16.0-2.0-0.0,99431,List1A,white,woman,,,,null,,,,
1874,"<img src=""portrait/BW2.jpg""style=""height:400px;""></img>",2,html-button-response,211,747520,0.0-16.0-4.0,99431,List1A,white,woman,,TRUE,2,,,,,
null,CORRECT,,html-keyboard-response,212,749030,0.0-16.0-5.0-0.0,99431,List1A,white,woman,,,,null,,,,
2447,"<img src=""portrait/BM2.jpg""style=""height:400px;""></img>",5,html-button-response,213,751478,0.0-16.0-7.0,99431,List1A,white,woman,,TRUE,5,,,,,
null,CORRECT,,html-keyboard-response,214,752990,0.0-16.0-8.0-0.0,99431,List1A,white,woman,,,,null,,,,
2566,"<img src=""portrait/BW1.jpg""style=""height:400px;""></img>",0,html-button-response,215,755556,0.0-16.0-10.0,99431,List1A,white,woman,,TRUE,0,,,,,
null,CORRECT,,html-keyboard-response,216,757065,0.0-16.0-11.0-0.0,99431,List1A,white,woman,,,,null,,,,
1606,"<img src=""portrait/WW2.jpg""style=""height:400px;""></img>",3,html-button-response,217,758673,0.0-16.0-13.0,99431,List1A,white,woman,,TRUE,3,,,,,
null,CORRECT,,html-keyboard-response,218,760184,0.0-16.0-14.0-0.0,99431,List1A,white,woman,,,,null,,,,
1736,"<img src=""portrait/WW1.jpg""style=""height:400px;""></img>",1,html-button-response,219,761922,0.0-16.0-16.0,99431,List1A,white,woman,,TRUE,1,,,,,
null,CORRECT,,html-keyboard-response,220,763430,0.0-16.0-17.0-0.0,99431,List1A,white,woman,,,,null,,,,
2963,"<img src=""portrait/WM2.jpg""style=""height:400px;""></img>",7,html-button-response,221,766395,0.0-16.0-19.0,99431,List1A,white,woman,,TRUE,7,,,,,
null,CORRECT,,html-keyboard-response,222,767906,0.0-16.0-20.0-0.0,99431,List1A,white,woman,,,,null,,,,
1398,"<img src=""portrait/WM1.jpg""style=""height:400px;""></img>",6,html-button-response,223,769305,0.0-16.0-22.0,99431,List1A,white,woman,,TRUE,6,,,,,
null,CORRECT,,html-keyboard-response,224,770815,0.0-16.0-23.0-0.0,99431,List1A,white,woman,,,,null,,,,
1349,<p>You got 8 out of 8 right first time. Press Continue.</p>,0,html-button-response,225,772165,0.0-16.0-25.0,99431,List1A,white,woman,,,,,,,,
null,"<div style=""font-size:60px;"">+</div>",,html-keyboard-response,226,773675,0.0-17.0-0.0,99431,List1A,white,woman,,,,null,,,,
null,"<img src=""stim_listA/shout2.gif""style=""height:400px;""></stim_listA>",,html-keyboard-response,227,775678,0.0-17.0-1.0,99431,List1A,white,woman,,,,null,,,,
null,are shouting at each other,,html-keyboard-response,228,777681,0.0-17.0-2.0,99431,List1A,white,woman,,,,null,,,,
7510,,,survey-text,229,785192,0.0-17.0-3.0,99431,List1A,white,woman,,,,,"{""Q0"":""kate and mike are shouting at each other""}","<img src=""stim_listA/shout2.gif""style=""height:400px;""></stim_listA>",are shouting at each other,
null,"<div style=""font-size:60px;"">+</div>",,html-keyboard-response,230,785694,0.0-17.0-0.1,99431,List1A,white,woman,,,,null,,,,
null,"<img src=""stim_listA/shout4.gif""style=""height:400px;""></stim_listA>",,html-keyboard-response,231,787695,0.0-17.0-1.1,99431,List1A,white,woman,,,,null,,,,
null,are shouting at each other,,html-keyboard-response,232,789700,0.0-17.0-2.1,99431,List1A,white,woman,,,,null,,,,
10282,,,survey-text,233,799983,0.0-17.0-3.1,99431,List1A,white,woman,,,,,"{""Q0"":""jane and dave are shouting at each other""}","<img src=""stim_listA/shout4.gif""style=""height:400px;""></stim_listA>",are shouting at each other,
null,"<div style=""font-size:60px;"">+</div>",,html-keyboard-response,234,800485,0.0-17.0-0.2,99431,List1A,white,woman,,,,null,,,,
null,"<img src=""stim_listA/shout3.gif""style=""height:400px;""></stim_listA>",,html-keyboard-response,235,802489,0.0-17.0-1.2,99431,List1A,white,woman,,,,null,,,,
null,is shouting at,,html-keyboard-response,236,804495,0.0-17.0-2.2,99431,List1A,white,woman,,,,null,,,,
6505,,,survey-text,237,811000,0.0-17.0-3.2,99431,List1A,white,woman,,,,,"{""Q0"":""luke is shouting at ruth""}","<img src=""stim_listA/shout3.gif""style=""height:400px;""></stim_listA>",is shouting at,
null,"<div style=""font-size:60px;"">+</div>",,html-keyboard-response,238,811503,0.0-17.0-0.3,99431,List1A,white,woman,,,,null,,,,
null,"<img src=""stim_listA/dance8.gif""style=""height:400px;""></stim_listA>",,html-keyboard-response,239,813505,0.0-17.0-1.3,99431,List1A,white,woman,,,,null,,,,
null,are dancing with each other,,html-keyboard-response,240,815510,0.0-17.0-2.3,99431,List1A,white,woman,,,,null,,,,
7322,,,survey-text,241,822834,0.0-17.0-3.3,99431,List1A,white,woman,,,,,"{""Q0"":""ruth and kate are dancing with each other""}","<img src=""stim_listA/dance8.gif""style=""height:400px;""></stim_listA>",are dancing with each other,
null,"<div style=""font-size:60px;"">+</div>",,html-keyboard-response,242,823335,0.0-17.0-0.4,99431,List1A,white,woman,,,,null,,,,
null,"<img src=""stim_listA/marry6.gif""style=""height:400px;""></stim_listA>",,html-keyboard-response,243,825338,0.0-17.0-1.4,99431,List1A,white,woman,,,,null,,,,
null,are marrying each other,,html-keyboard-response,244,827339,0.0-17.0-2.4,99431,List1A,white,woman,,,,null,,,,
7909,,,survey-text,245,835249,0.0-17.0-3.4,99431,List1A,white,woman,,,,,"{""Q0"":""dave and fred are marrying each other""}","<img src=""stim_listA/marry6.gif""style=""height:400px;""></stim_listA>",are marrying each other,
null,"<div style=""font-size:60px;"">+</div>",,html-keyboard-response,246,835751,0.0-17.0-0.5,99431,List1A,white,woman,,,,null,,,,
null,"<img src=""stim_listA/kiss6.gif""style=""height:400px;""></stim_listA>",,html-keyboard-response,247,837753,0.0-17.0-1.5,99431,List1A,white,woman,,,,null,,,,
null,are kissing each other,,html-keyboard-response,248,839755,0.0-17.0-2.5,99431,List1A,white,woman,,,,null,,,,
6406,,,survey-text,249,846161,0.0-17.0-3.5,99431,List1A,white,woman,,,,,"{""Q0"":""dave and mike are kissing each other""}","<img src=""stim_listA/kiss6.gif""style=""height:400px;""></stim_listA>",are kissing each other,
null,"<div style=""font-size:60px;"">+</div>",,html-keyboard-response,250,846664,0.0-17.0-0.6,99431,List1A,white,woman,,,,null,,,,
null,"<img src=""stim_listA/argue1.gif""style=""height:400px;""></stim_listA>",,html-keyboard-response,251,848666,0.0-17.0-1.6,99431,List1A,white,woman,,,,null,,,,
null,is arguing with,,html-keyboard-response,252,850667,0.0-17.0-2.6,99431,List1A,white,woman,,,,null,,,,
4544,,,survey-text,253,855211,0.0-17.0-3.6,99431,List1A,white,woman,,,,,"{""Q0"":""mike is arguing with beth""}","<img src=""stim_listA/argue1.gif""style=""height:400px;""></stim_listA>",is arguing with,
null,"<div style=""font-size:60px;"">+</div>",,html-keyboard-response,254,855713,0.0-17.0-0.7,99431,List1A,white,woman,,,,null,,,,
null,"<img src=""stim_listA/argue6.gif""style=""height:400px;""></stim_listA>",,html-keyboard-response,255,857717,0.0-17.0-1.7,99431,List1A,white,woman,,,,null,,,,
null,are arguing with each other,,html-keyboard-response,256,859720,0.0-17.0-2.7,99431,List1A,white,woman,,,,null,,,,
9671,,,survey-text,257,869392,0.0-17.0-3.7,99431,List1A,white,woman,,,,,"{""Q0"":""fred and dave are arguing with each other""}","<img src=""stim_listA/argue6.gif""style=""height:400px;""></stim_listA>",are arguing with each other,
null,"<div style=""font-size:60px;"">+</div>",,html-keyboard-response,258,869893,0.0-17.0-0.8,99431,List1A,white,woman,,,,null,,,,
null,"<img src=""stim_listA/marry8.gif""style=""height:400px;""></stim_listA>",,html-keyboard-response,259,871896,0.0-17.0-1.8,99431,List1A,white,woman,,,,null,,,,
null,are marrying each other,,html-keyboard-response,260,873897,0.0-17.0-2.8,99431,List1A,white,woman,,,,null,,,,
6481,,,survey-text,261,880378,0.0-17.0-3.8,99431,List1A,white,woman,,,,,"{""Q0"":""jane and beth are marrying each other""}","<img src=""stim_listA/marry8.gif""style=""height:400px;""></stim_listA>",are marrying each other,
null,"<div style=""font-size:60px;"">+</div>",,html-keyboard-response,262,880879,0.0-17.0-0.9,99431,List1A,white,woman,,,,null,,,,
null,"<img src=""stim_listA/marry3.gif""style=""height:400px;""></stim_listA>",,html-keyboard-response,263,882883,0.0-17.0-1.9,99431,List1A,white,woman,,,,null,,,,
null,is marrying,,html-keyboard-response,264,884884,0.0-17.0-2.9,99431,List1A,white,woman,,,,null,,,,
3887,,,survey-text,265,888773,0.0-17.0-3.9,99431,List1A,white,woman,,,,,"{""Q0"":""ruth is marrying dave""}","<img src=""stim_listA/marry3.gif""style=""height:400px;""></stim_listA>",is marrying,
null,"<div style=""font-size:60px;"">+</div>",,html-keyboard-response,266,889275,0.0-17.0-0.10,99431,List1A,white,woman,,,,null,,,,
null,"<img src=""stim_listA/talk1.gif""style=""height:400px;""></stim_listA>",,html-keyboard-response,267,891278,0.0-17.0-1.10,99431,List1A,white,woman,,,,null,,,,
null,is talking to,,html-keyboard-response,268,893279,0.0-17.0-2.10,99431,List1A,white,woman,,,,null,,,,
7217,,,survey-text,269,900497,0.0-17.0-3.10,99431,List1A,white,woman,,,,,"{""Q0"":""fred is talking to kate""}","<img src=""stim_listA/talk1.gif""style=""height:400px;""></stim_listA>",is talking to,
null,"<div style=""font-size:60px;"">+</div>",,html-keyboard-response,270,900999,0.0-17.0-0.11,99431,List1A,white,woman,,,,null,,,,
null,"<img src=""stim_listA/touch6.gif""style=""height:400px;""></stim_listA>",,html-keyboard-response,271,903003,0.0-17.0-1.11,99431,List1A,white,woman,,,,null,,,,
null,are touching each other,,html-keyboard-response,272,905005,0.0-17.0-2.11,99431,List1A,white,woman,,,,null,,,,
8185,,,survey-text,273,913192,0.0-17.0-3.11,99431,List1A,white,woman,,,,,"{""Q0"":""luke and fred are touching each other""}","<img src=""stim_listA/touch6.gif""style=""height:400px;""></stim_listA>",are touching each other,
null,"<div style=""font-size:60px;"">+</div>",,html-keyboard-response,274,913695,0.0-17.0-0.12,99431,List1A,white,woman,,,,null,,,,
null,"<img src=""stim_listA/flirt6.gif""style=""height:400px;""></stim_listA>",,html-keyboard-response,275,915700,0.0-17.0-1.12,99431,List1A,white,woman,,,,null,,,,
null,are flirting with each other,,html-keyboard-response,276,917700,0.0-17.0-2.12,99431,List1A,white,woman,,,,null,,,,
8534,,,survey-text,277,926235,0.0-17.0-3.12,99431,List1A,white,woman,,,,,"{""Q0"":""luke and mike are flirting with each other""}","<img src=""stim_listA/flirt6.gif""style=""height:400px;""></stim_listA>",are flirting with each other,
null,"<div style=""font-size:60px;"">+</div>",,html-keyboard-response,278,926737,0.0-17.0-0.13,99431,List1A,white,woman,,,,null,,,,
null,"<img src=""stim_listA/fight6.gif""style=""height:400px;""></stim_listA>",,html-keyboard-response,279,928739,0.0-17.0-1.13,99431,List1A,white,woman,,,,null,,,,
null,are fighting each other,,html-keyboard-response,280,930740,0.0-17.0-2.13,99431,List1A,white,woman,,,,null,,,,
7037,,,survey-text,281,937778,0.0-17.0-3.13,99431,List1A,white,woman,,,,,"{""Q0"":""luke and fred are fighting each other""}","<img src=""stim_listA/fight6.gif""style=""height:400px;""></stim_listA>",are fighting each other,
null,"<div style=""font-size:60px;"">+</div>",,html-keyboard-response,282,938280,0.0-17.0-0.14,99431,List1A,white,woman,,,,null,,,,
null,"<img src=""stim_listA/dance7.gif""style=""height:400px;""></stim_listA>",,html-keyboard-response,283,940282,0.0-17.0-1.14,99431,List1A,white,woman,,,,null,,,,
null,is dancing with,,html-keyboard-response,284,942283,0.0-17.0-2.14,99431,List1A,white,woman,,,,null,,,,
4988,,,survey-text,285,947272,0.0-17.0-3.14,99431,List1A,white,woman,,,,,"{""Q0"":""ruth is dancing with jane""}","<img src=""stim_listA/dance7.gif""style=""height:400px;""></stim_listA>",is dancing with,
null,"<div style=""font-size:60px;"">+</div>",,html-keyboard-response,286,947773,0.0-17.0-0.15,99431,List1A,white,woman,,,,null,,,,
null,"<img src=""stim_listA/dance2.gif""style=""height:400px;""></stim_listA>",,html-keyboard-response,287,949778,0.0-17.0-1.15,99431,List1A,white,woman,,,,null,,,,
null,are dancing with each other,,html-keyboard-response,288,951781,0.0-17.0-2.15,99431,List1A,white,woman,,,,null,,,,
8591,,,survey-text,289,960373,0.0-17.0-3.15,99431,List1A,white,woman,,,,,"{""Q0"":""ruth and mike are dancing with each other""}","<img src=""stim_listA/dance2.gif""style=""height:400px;""></stim_listA>",are dancing with each other,
null,"<div style=""font-size:60px;"">+</div>",,html-keyboard-response,290,960875,0.0-17.0-0.16,99431,List1A,white,woman,,,,null,,,,
null,"<img src=""stim_listA/flirt4.gif""style=""height:400px;""></stim_listA>",,html-keyboard-response,291,962877,0.0-17.0-1.16,99431,List1A,white,woman,,,,null,,,,
null,are flirting with each other,,html-keyboard-response,292,964882,0.0-17.0-2.16,99431,List1A,white,woman,,,,null,,,,
7177,,,survey-text,293,972060,0.0-17.0-3.16,99431,List1A,white,woman,,,,,"{""Q0"":""ruth and dave are flirting with each other""}","<img src=""stim_listA/flirt4.gif""style=""height:400px;""></stim_listA>",are flirting with each other,
null,"<div style=""font-size:60px;"">+</div>",,html-keyboard-response,294,972562,0.0-17.0-0.17,99431,List1A,white,woman,,,,null,,,,
null,"<img src=""stim_listA/kiss2.gif""style=""height:400px;""></stim_listA>",,html-keyboard-response,295,974563,0.0-17.0-1.17,99431,List1A,white,woman,,,,null,,,,
null,are kissing each other,,html-keyboard-response,296,976568,0.0-17.0-2.17,99431,List1A,white,woman,,,,null,,,,
7176,,,survey-text,297,983746,0.0-17.0-3.17,99431,List1A,white,woman,,,,,"{""Q0"":""kate and mike are kissing each other""}","<img src=""stim_listA/kiss2.gif""style=""height:400px;""></stim_listA>",are kissing each other,
null,"<div style=""font-size:60px;"">+</div>",,html-keyboard-response,298,984247,0.0-17.0-0.18,99431,List1A,white,woman,,,,null,,,,
null,"<img src=""stim_listA/dance1.gif""style=""height:400px;""></stim_listA>",,html-keyboard-response,299,986249,0.0-17.0-1.18,99431,List1A,white,woman,,,,null,,,,
null,is dancing with,,html-keyboard-response,300,988250,0.0-17.0-2.18,99431,List1A,white,woman,,,,null,,,,
5582,,,survey-text,301,993834,0.0-17.0-3.18,99431,List1A,white,woman,,,,,"{""Q0"":""fred is dancing with kate""}","<img src=""stim_listA/dance1.gif""style=""height:400px;""></stim_listA>",is dancing with,
null,"<div style=""font-size:60px;"">+</div>",,html-keyboard-response,302,994336,0.0-17.0-0.19,99431,List1A,white,woman,,,,null,,,,
null,"<img src=""stim_listA/marry7.gif""style=""height:400px;""></stim_listA>",,html-keyboard-response,303,996339,0.0-17.0-1.19,99431,List1A,white,woman,,,,null,,,,
null,is marrying,,html-keyboard-response,304,998340,0.0-17.0-2.19,99431,List1A,white,woman,,,,null,,,,
4223,,,survey-text,305,1002565,0.0-17.0-3.19,99431,List1A,white,woman,,,,,"{""Q0"":""ruth is marrying kate""}","<img src=""stim_listA/marry7.gif""style=""height:400px;""></stim_listA>",is marrying,
20601,"<img src='img/portrait_matrix_list1.jpg' style='width:900px;height:500px;''></img><p>If you have memorised all the portraits and names and are ready to start, press Continue.</p><p><strong>Please note: Your memory of these faces will be tested 4 times during this experiment.</strong></p>",0,html-button-response,306,1023167,0.0-18.0-0.0,99431,List1A,white,woman,,,,,,,,
2111,"<img src=""portrait/WM1.jpg""style=""height:400px;""></img>",6,html-button-response,307,1026283,0.0-18.0-1.0,99431,List1A,white,woman,,TRUE,6,,,,,
null,CORRECT,,html-keyboard-response,308,1027792,0.0-18.0-2.0-0.0,99431,List1A,white,woman,,,,null,,,,
1570,"<img src=""portrait/WW2.jpg""style=""height:400px;""></img>",3,html-button-response,309,1029364,0.0-18.0-4.0,99431,List1A,white,woman,,TRUE,3,,,,,
null,CORRECT,,html-keyboard-response,310,1030871,0.0-18.0-5.0-0.0,99431,List1A,white,woman,,,,null,,,,
1823,"<img src=""portrait/WM2.jpg""style=""height:400px;""></img>",7,html-button-response,311,1032695,0.0-18.0-7.0,99431,List1A,white,woman,,TRUE,7,,,,,
null,CORRECT,,html-keyboard-response,312,1034204,0.0-18.0-8.0-0.0,99431,List1A,white,woman,,,,null,,,,
2110,"<img src=""portrait/BM2.jpg""style=""height:400px;""></img>",5,html-button-response,313,1036316,0.0-18.0-10.0,99431,List1A,white,woman,,TRUE,5,,,,,
null,CORRECT,,html-keyboard-response,314,1037822,0.0-18.0-11.0-0.0,99431,List1A,white,woman,,,,null,,,,
1552,"<img src=""portrait/BW2.jpg""style=""height:400px;""></img>",3,html-button-response,315,1039375,0.0-18.0-13.0,99431,List1A,white,woman,,TRUE,2,,,,,
2503,"<img src=""portrait/BW2.jpg""style=""height:400px;""></img>",2,html-button-response,316,1042886,0.0-18.0-15.0-0.0,99431,List1A,white,woman,,FALSE,2,,,,,
null,CORRECT,,html-keyboard-response,317,1044389,0.0-18.0-15.0-1.0-0.0,99431,List1A,white,woman,,,,null,,,,
1443,"<img src=""portrait/BM1.jpg""style=""height:400px;""></img>",4,html-button-response,318,1045834,0.0-18.0-16.0,99431,List1A,white,woman,,TRUE,4,,,,,
null,CORRECT,,html-keyboard-response,319,1047345,0.0-18.0-17.0-0.0,99431,List1A,white,woman,,,,null,,,,
1707,"<img src=""portrait/BW1.jpg""style=""height:400px;""></img>",0,html-button-response,320,1049054,0.0-18.0-19.0,99431,List1A,white,woman,,TRUE,0,,,,,
null,CORRECT,,html-keyboard-response,321,1050565,0.0-18.0-20.0-0.0,99431,List1A,white,woman,,,,null,,,,
1417,"<img src=""portrait/WW1.jpg""style=""height:400px;""></img>",1,html-button-response,322,1051984,0.0-18.0-22.0,99431,List1A,white,woman,,TRUE,1,,,,,
null,CORRECT,,html-keyboard-response,323,1053494,0.0-18.0-23.0-0.0,99431,List1A,white,woman,,,,null,,,,
1245,<p>You got 7 out of 8 right first time. Press Continue.</p>,0,html-button-response,324,1054740,0.0-18.0-25.0,99431,List1A,white,woman,,,,,,,,
2560,"As you did not score 100%, the memory game will repeat. Press Continue.",0,html-button-response,325,1058306,0.0-18.0-26.0-0.0,99431,List1A,white,woman,,,,,,,,
2286,"<img src='img/portrait_matrix_list1.jpg' style='width:900px;height:500px;''></img><p>If you have memorised all the portraits and names and are ready to start, press Continue.</p><p><strong>Please note: Your memory of these faces will be tested 4 times during this experiment.</strong></p>",0,html-button-response,326,1061598,0.0-18.1-0.1,99431,List1A,white,woman,,,,,,,,
2009,"<img src=""portrait/WM1.jpg""style=""height:400px;""></img>",6,html-button-response,327,1064614,0.0-18.1-1.1,99431,List1A,white,woman,,TRUE,6,,,,,
null,CORRECT,,html-keyboard-response,328,1066123,0.0-18.1-2.1-0.1,99431,List1A,white,woman,,,,null,,,,
2335,"<img src=""portrait/WW2.jpg""style=""height:400px;""></img>",3,html-button-response,329,1068460,0.0-18.1-4.1,99431,List1A,white,woman,,TRUE,3,,,,,
null,CORRECT,,html-keyboard-response,330,1069968,0.0-18.1-5.1-0.1,99431,List1A,white,woman,,,,null,,,,
2041,"<img src=""portrait/WM2.jpg""style=""height:400px;""></img>",7,html-button-response,331,1072010,0.0-18.1-7.1,99431,List1A,white,woman,,TRUE,7,,,,,
null,CORRECT,,html-keyboard-response,332,1073522,0.0-18.1-8.1-0.1,99431,List1A,white,woman,,,,null,,,,
1297,"<img src=""portrait/BM2.jpg""style=""height:400px;""></img>",5,html-button-response,333,1074820,0.0-18.1-10.1,99431,List1A,white,woman,,TRUE,5,,,,,
null,CORRECT,,html-keyboard-response,334,1076330,0.0-18.1-11.1-0.1,99431,List1A,white,woman,,,,null,,,,
1458,"<img src=""portrait/BW2.jpg""style=""height:400px;""></img>",2,html-button-response,335,1077789,0.0-18.1-13.1,99431,List1A,white,woman,,TRUE,2,,,,,
null,CORRECT,,html-keyboard-response,336,1079300,0.0-18.1-14.1-0.1,99431,List1A,white,woman,,,,null,,,,
1531,"<img src=""portrait/BM1.jpg""style=""height:400px;""></img>",4,html-button-response,337,1080832,0.0-18.1-16.1,99431,List1A,white,woman,,TRUE,4,,,,,
null,CORRECT,,html-keyboard-response,338,1082344,0.0-18.1-17.1-0.1,99431,List1A,white,woman,,,,null,,,,
1732,"<img src=""portrait/BW1.jpg""style=""height:400px;""></img>",0,html-button-response,339,1084079,0.0-18.1-19.1,99431,List1A,white,woman,,TRUE,0,,,,,
null,CORRECT,,html-keyboard-response,340,1085581,0.0-18.1-20.1-0.1,99431,List1A,white,woman,,,,null,,,,
1434,"<img src=""portrait/WW1.jpg""style=""height:400px;""></img>",1,html-button-response,341,1087017,0.0-18.1-22.1,99431,List1A,white,woman,,TRUE,1,,,,,
null,CORRECT,,html-keyboard-response,342,1088523,0.0-18.1-23.1-0.1,99431,List1A,white,woman,,,,null,,,,
1045,<p>You got 8 out of 8 right first time. Press Continue.</p>,0,html-button-response,343,1089569,0.0-18.1-25.1,99431,List1A,white,woman,,,,,,,,
null,"<div style=""font-size:60px;"">+</div>",,html-keyboard-response,344,1091076,0.0-19.0-0.0,99431,List1A,white,woman,,,,null,,,,
null,"<img src=""stim_listA/argue5.gif""style=""height:400px;""></stim_listA>",,html-keyboard-response,345,1093080,0.0-19.0-1.0,99431,List1A,white,woman,,,,null,,,,
null,is arguing with,,html-keyboard-response,346,1095081,0.0-19.0-2.0,99431,List1A,white,woman,,,,null,,,,
6520,,,survey-text,347,1101603,0.0-19.0-3.0,99431,List1A,white,woman,,,,,"{""Q0"":""mike is arguing with luke""}","<img src=""stim_listA/argue5.gif""style=""height:400px;""></stim_listA>",is arguing with,
null,"<div style=""font-size:60px;"">+</div>",,html-keyboard-response,348,1102104,0.0-19.0-0.1,99431,List1A,white,woman,,,,null,,,,
null,"<img src=""stim_listA/flirt8.gif""style=""height:400px;""></stim_listA>",,html-keyboard-response,349,1104107,0.0-19.0-1.1,99431,List1A,white,woman,,,,null,,,,
null,are flirting with each other,,html-keyboard-response,350,1106113,0.0-19.0-2.1,99431,List1A,white,woman,,,,null,,,,
7204,,,survey-text,351,1113318,0.0-19.0-3.1,99431,List1A,white,woman,,,,,"{""Q0"":""ruth and kate are flirting with each other""}","<img src=""stim_listA/flirt8.gif""style=""height:400px;""></stim_listA>",are flirting with each other,
null,"<div style=""font-size:60px;"">+</div>",,html-keyboard-response,352,1113820,0.0-19.0-0.2,99431,List1A,white,woman,,,,null,,,,
null,"<img src=""stim_listA/shout7.gif""style=""height:400px;""></stim_listA>",,html-keyboard-response,353,1115822,0.0-19.0-1.2,99431,List1A,white,woman,,,,null,,,,
null,is shouting at,,html-keyboard-response,354,1117823,0.0-19.0-2.2,99431,List1A,white,woman,,,,null,,,,
5083,,,survey-text,355,1122907,0.0-19.0-3.2,99431,List1A,white,woman,,,,,"{""Q0"":""ruth is shouting at beth""}","<img src=""stim_listA/shout7.gif""style=""height:400px;""></stim_listA>",is shouting at,
null,"<div style=""font-size:60px;"">+</div>",,html-keyboard-response,356,1123410,0.0-19.0-0.3,99431,List1A,white,woman,,,,null,,,,
null,"<img src=""stim_listA/fight4.gif""style=""height:400px;""></stim_listA>",,html-keyboard-response,357,1125412,0.0-19.0-1.3,99431,List1A,white,woman,,,,null,,,,
null,are fighting each other,,html-keyboard-response,358,1127418,0.0-19.0-2.3,99431,List1A,white,woman,,,,null,,,,
7746,,,survey-text,359,1135165,0.0-19.0-3.3,99431,List1A,white,woman,,,,,"{""Q0"":""ruth and luke are fighting each other""}","<img src=""stim_listA/fight4.gif""style=""height:400px;""></stim_listA>",are fighting each other,
null,"<div style=""font-size:60px;"">+</div>",,html-keyboard-response,360,1135667,0.0-19.0-0.4,99431,List1A,white,woman,,,,null,,,,
null,"<img src=""stim_listA/talk5.gif""style=""height:400px;""></stim_listA>",,html-keyboard-response,361,1137669,0.0-19.0-1.4,99431,List1A,white,woman,,,,null,,,,
null,is talking to,,html-keyboard-response,362,1139674,0.0-19.0-2.4,99431,List1A,white,woman,,,,null,,,,
5188,,,survey-text,363,1144863,0.0-19.0-3.4,99431,List1A,white,woman,,,,,"{""Q0"":""fred is talking to dave""}","<img src=""stim_listA/talk5.gif""style=""height:400px;""></stim_listA>",is talking to,
null,"<div style=""font-size:60px;"">+</div>",,html-keyboard-response,364,1145366,0.0-19.0-0.5,99431,List1A,white,woman,,,,null,,,,
null,"<img src=""stim_listA/play2.gif""style=""height:400px;""></stim_listA>",,html-keyboard-response,365,1147368,0.0-19.0-1.5,99431,List1A,white,woman,,,,null,,,,
null,are playing with each other,,html-keyboard-response,366,1149373,0.0-19.0-2.5,99431,List1A,white,woman,,,,null,,,,
7426,,,survey-text,367,1156801,0.0-19.0-3.5,99431,List1A,white,woman,,,,,"{""Q0"":""beth and fred are playing with each other""}","<img src=""stim_listA/play2.gif""style=""height:400px;""></stim_listA>",are playing with each other,
null,"<div style=""font-size:60px;"">+</div>",,html-keyboard-response,368,1157302,0.0-19.0-0.6,99431,List1A,white,woman,,,,null,,,,
null,"<img src=""stim_listA/argue8.gif""style=""height:400px;""></stim_listA>",,html-keyboard-response,369,1159304,0.0-19.0-1.6,99431,List1A,white,woman,,,,null,,,,
null,are arguing with each other,,html-keyboard-response,370,1161305,0.0-19.0-2.6,99431,List1A,white,woman,,,,null,,,,
7358,,,survey-text,371,1168664,0.0-19.0-3.6,99431,List1A,white,woman,,,,,"{""Q0"":""jane and beth are arguing with each other""}","<img src=""stim_listA/argue8.gif""style=""height:400px;""></stim_listA>",are arguing with each other,
null,"<div style=""font-size:60px;"">+</div>",,html-keyboard-response,372,1169165,0.0-19.0-0.7,99431,List1A,white,woman,,,,null,,,,
null,"<img src=""stim_listA/shout5.gif""style=""height:400px;""></stim_listA>",,html-keyboard-response,373,1171169,0.0-19.0-1.7,99431,List1A,white,woman,,,,null,,,,
null,is shouting at,,html-keyboard-response,374,1173170,0.0-19.0-2.7,99431,List1A,white,woman,,,,null,,,,
5695,,,survey-text,375,1178866,0.0-19.0-3.7,99431,List1A,white,woman,,,,,"{""Q0"":""fred is shouting at luke""}","<img src=""stim_listA/shout5.gif""style=""height:400px;""></stim_listA>",is shouting at,
null,"<div style=""font-size:60px;"">+</div>",,html-keyboard-response,376,1179369,0.0-19.0-0.8,99431,List1A,white,woman,,,,null,,,,
null,"<img src=""stim_listA/talk3.gif""style=""height:400px;""></stim_listA>",,html-keyboard-response,377,1181372,0.0-19.0-1.8,99431,List1A,white,woman,,,,null,,,,
null,is talking to,,html-keyboard-response,378,1183377,0.0-19.0-2.8,99431,List1A,white,woman,,,,null,,,,
5949,,,survey-text,379,1189327,0.0-19.0-3.8,99431,List1A,white,woman,,,,,"{""Q0"":""luke is talking to jane""}","<img src=""stim_listA/talk3.gif""style=""height:400px;""></stim_listA>",is talking to,
null,"<div style=""font-size:60px;"">+</div>",,html-keyboard-response,380,1189829,0.0-19.0-0.9,99431,List1A,white,woman,,,,null,,,,
null,"<img src=""stim_listA/talk8.gif""style=""height:400px;""></stim_listA>",,html-keyboard-response,381,1191831,0.0-19.0-1.9,99431,List1A,white,woman,,,,null,,,,
null,are talking to each other,,html-keyboard-response,382,1193833,0.0-19.0-2.9,99431,List1A,white,woman,,,,null,,,,
6379,,,survey-text,383,1200213,0.0-19.0-3.9,99431,List1A,white,woman,,,,,"{""Q0"":""ruth and kate are talking to each other""}","<img src=""stim_listA/talk8.gif""style=""height:400px;""></stim_listA>",are talking to each other,
null,"<div style=""font-size:60px;"">+</div>",,html-keyboard-response,384,1200715,0.0-19.0-0.10,99431,List1A,white,woman,,,,null,,,,
null,"<img src=""stim_listA/argue3.gif""style=""height:400px;""></stim_listA>",,html-keyboard-response,385,1202716,0.0-19.0-1.10,99431,List1A,white,woman,,,,null,,,,
null,is arguing with,,html-keyboard-response,386,1204721,0.0-19.0-2.10,99431,List1A,white,woman,,,,null,,,,
4787,,,survey-text,387,1209509,0.0-19.0-3.10,99431,List1A,white,woman,,,,,"{""Q0"":""ruth is arguing with dave""}","<img src=""stim_listA/argue3.gif""style=""height:400px;""></stim_listA>",is arguing with,
null,"<div style=""font-size:60px;"">+</div>",,html-keyboard-response,388,1210011,0.0-19.0-0.11,99431,List1A,white,woman,,,,null,,,,
null,"<img src=""stim_listA/play6.gif""style=""height:400px;""></stim_listA>",,html-keyboard-response,389,1212014,0.0-19.0-1.11,99431,List1A,white,woman,,,,null,,,,
null,are playing with each other,,html-keyboard-response,390,1214015,0.0-19.0-2.11,99431,List1A,white,woman,,,,null,,,,
7825,,,survey-text,391,1221841,0.0-19.0-3.11,99431,List1A,white,woman,,,,,"{""Q0"":""luke and fred are playing with each other""}","<img src=""stim_listA/play6.gif""style=""height:400px;""></stim_listA>",are playing with each other,
null,"<div style=""font-size:60px;"">+</div>",,html-keyboard-response,392,1222343,0.0-19.0-0.12,99431,List1A,white,woman,,,,null,,,,
null,"<img src=""stim_listA/fight2.gif""style=""height:400px;""></stim_listA>",,html-keyboard-response,393,1224347,0.0-19.0-1.12,99431,List1A,white,woman,,,,null,,,,
null,are fighting each other,,html-keyboard-response,394,1226350,0.0-19.0-2.12,99431,List1A,white,woman,,,,null,,,,
7349,,,survey-text,395,1233700,0.0-19.0-3.12,99431,List1A,white,woman,,,,,"{""Q0"":""beth and fred are fighting each other""}","<img src=""stim_listA/fight2.gif""style=""height:400px;""></stim_listA>",are fighting each other,
null,"<div style=""font-size:60px;"">+</div>",,html-keyboard-response,396,1234203,0.0-19.0-0.13,99431,List1A,white,woman,,,,null,,,,
null,"<img src=""stim_listA/dance4.gif""style=""height:400px;""></stim_listA>",,html-keyboard-response,397,1236204,0.0-19.0-1.13,99431,List1A,white,woman,,,,null,,,,
null,are dancing with each other,,html-keyboard-response,398,1238209,0.0-19.0-2.13,99431,List1A,white,woman,,,,null,,,,
7111,,,survey-text,399,1245322,0.0-19.0-3.13,99431,List1A,white,woman,,,,,"{""Q0"":""dave and ruth are dancing with each other""}","<img src=""stim_listA/dance4.gif""style=""height:400px;""></stim_listA>",are dancing with each other,
null,"<div style=""font-size:60px;"">+</div>",,html-keyboard-response,400,1245825,0.0-19.0-0.14,99431,List1A,white,woman,,,,null,,,,
null,"<img src=""stim_listA/kiss1.gif""style=""height:400px;""></stim_listA>",,html-keyboard-response,401,1247827,0.0-19.0-1.14,99431,List1A,white,woman,,,,null,,,,
null,is kissing,,html-keyboard-response,402,1249830,0.0-19.0-2.14,99431,List1A,white,woman,,,,null,,,,
4690,,,survey-text,403,1254522,0.0-19.0-3.14,99431,List1A,white,woman,,,,,"{""Q0"":""beth is kissing fred""}","<img src=""stim_listA/kiss1.gif""style=""height:400px;""></stim_listA>",is kissing,
null,"<div style=""font-size:60px;"">+</div>",,html-keyboard-response,404,1255023,0.0-19.0-0.15,99431,List1A,white,woman,,,,null,,,,
null,"<img src=""stim_listA/play4.gif""style=""height:400px;""></stim_listA>",,html-keyboard-response,405,1257026,0.0-19.0-1.15,99431,List1A,white,woman,,,,null,,,,
null,are playing with each other,,html-keyboard-response,406,1259028,0.0-19.0-2.15,99431,List1A,white,woman,,,,null,,,,
7311,,,survey-text,407,1266340,0.0-19.0-3.15,99431,List1A,white,woman,,,,,"{""Q0"":""ruth and luke are playing with each other""}","<img src=""stim_listA/play4.gif""style=""height:400px;""></stim_listA>",are playing with each other,
null,"<div style=""font-size:60px;"">+</div>",,html-keyboard-response,408,1266843,0.0-19.0-0.16,99431,List1A,white,woman,,,,null,,,,
null,"<img src=""stim_listA/marry5.gif""style=""height:400px;""></stim_listA>",,html-keyboard-response,409,1268844,0.0-19.0-1.16,99431,List1A,white,woman,,,,null,,,,
null,is marrying,,html-keyboard-response,410,1270847,0.0-19.0-2.16,99431,List1A,white,woman,,,,null,,,,
4218,,,survey-text,411,1275065,0.0-19.0-3.16,99431,List1A,white,woman,,,,,"{""Q0"":""mike is marrying luke""}","<img src=""stim_listA/marry5.gif""style=""height:400px;""></stim_listA>",is marrying,
null,"<div style=""font-size:60px;"">+</div>",,html-keyboard-response,412,1275567,0.0-19.0-0.17,99431,List1A,white,woman,,,,null,,,,
null,"<img src=""stim_listA/shout8.gif""style=""height:400px;""></stim_listA>",,html-keyboard-response,413,1277570,0.0-19.0-1.17,99431,List1A,white,woman,,,,null,,,,
null,are shouting at each other,,html-keyboard-response,414,1279573,0.0-19.0-2.17,99431,List1A,white,woman,,,,null,,,,
8721,,,survey-text,415,1288296,0.0-19.0-3.17,99431,List1A,white,woman,,,,,"{""Q0"":""kate and jane are shouting at each other""}","<img src=""stim_listA/shout8.gif""style=""height:400px;""></stim_listA>",are shouting at each other,
null,"<div style=""font-size:60px;"">+</div>",,html-keyboard-response,416,1288798,0.0-19.0-0.18,99431,List1A,white,woman,,,,null,,,,
null,"<img src=""stim_listA/marry1.gif""style=""height:400px;""></stim_listA>",,html-keyboard-response,417,1290800,0.0-19.0-1.18,99431,List1A,white,woman,,,,null,,,,
null,is marrying,,html-keyboard-response,418,1292801,0.0-19.0-2.18,99431,List1A,white,woman,,,,null,,,,
4114,,,survey-text,419,1296917,0.0-19.0-3.18,99431,List1A,white,woman,,,,,"{""Q0"":""mike is marrying beth""}","<img src=""stim_listA/marry1.gif""style=""height:400px;""></stim_listA>",is marrying,
null,"<div style=""font-size:60px;"">+</div>",,html-keyboard-response,420,1297418,0.0-19.0-0.19,99431,List1A,white,woman,,,,null,,,,
null,"<img src=""stim_listA/kiss3.gif""style=""height:400px;""></stim_listA>",,html-keyboard-response,421,1299420,0.0-19.0-1.19,99431,List1A,white,woman,,,,null,,,,
null,is kissing,,html-keyboard-response,422,1301421,0.0-19.0-2.19,99431,List1A,white,woman,,,,null,,,,
4607,,,survey-text,423,1306030,0.0-19.0-3.19,99431,List1A,white,woman,,,,,"{""Q0"":""luke is kissing ruth""}","<img src=""stim_listA/kiss3.gif""style=""height:400px;""></stim_listA>",is kissing,
1675,<p>Thank you for completing that task.</p><p>The final part of this session is a short questionnaire.</p><p>Press Continue.</p>,0,html-button-response,424,1307706,0.0-20.0,99431,List1A,white,woman,,,,,,,,
12516,,,survey-text,425,1321224,0.0-21.0,99431,List1A,white,woman,,,,,"{""Q0"":""31"",""Q1"":""english"",""Q2"":""english"",""Q3"":""england"",""Q4"":""white"",""Q5"":""female""}",,,demographics
6157,,,survey-likert,426,1327384,0.0-22.0,99431,List1A,white,woman,,,,,"{""Q0"":4}",,,likert_ESS
5081,,,survey-likert,427,1332470,0.0-23.0,99431,List1A,white,woman,,,,,"{""Q0"":4}",,,likert_NSSAL_Q1
3304,,,survey-likert,428,1335781,0.0-24.0,99431,List1A,white,woman,,,,,"{""Q0"":4}",,,likert_NSSAL_Q2
3071,,,survey-likert,429,1338856,0.0-25.0,99431,List1A,white,woman,,,,,"{""Q0"":4}",,,likert_CGRS_Q1
2496,,,survey-likert,430,1341356,0.0-26.0,99431,List1A,white,woman,,,,,"{""Q0"":4}",,,likert_CGRS_Q2
1986,,,survey-likert,431,1343346,0.0-27.0,99431,List1A,white,woman,,,,,"{""Q0"":4}",,,likert_CGRS_Q3
14074,,,survey-text,432,1357424,0.0-28.0,99431,List1A,white,woman,,,,,"{""Q0"":""ccc""}",,,worker_id
18387,,,external-html,433,1375896,0.0-29.0,99431,List1A,white,woman,debrief.html,,,,,,,
