rt,stimulus,button_pressed,trial_type,trial_index,time_elapsed,internal_node_id,subject,list,ppt_race,ppt_gender,url,first_guess,correct,key_press,responses,image_type,phrase_type,test_part
783,Welcome to the experiment. Press Continue to begin.,0,html-button-response,0,789,0.0-0.0,99474,List2A,white,man,,,,,,,,
44018,,,external-html,1,45884,0.0-1.0,99474,List2A,white,man,consent.html,,,,,,,
4308,"<p>On the next page, you will see portraits of 8 people and their names.</p><p>Your first task is to take a few minutes to memorise the names of these people.</p><p>You will have to recall their names during the rest of the experiment, so it is</p><p>essential that you try to memorise these people and their names as best as you can.</p><br><p><strong>You will then be tested on your memory of these names and portraits.</strong></p><br><p>The experiment will start after you have completed this memory test.</p><br><p>Ready?</p>",0,html-button-response,2,50194,0.0-2.0,99474,List2A,white,man,,,,,,,,
43382,"<img src='img/portrait_matrix_list2.jpg' style='width:900px;height:500px;''></img><p>If you have memorised all the portraits and names and are ready to start, press Continue.</p><p><strong>Please note: Your memory of these faces will be tested 4 times during this experiment.</strong></p>",0,html-button-response,3,94579,0.0-3.0-0.0,99474,List2A,white,man,,,,,,,,
3477,"<img src=""portrait/WM2.jpg""style=""height:400px;""></img>",7,html-button-response,4,99060,0.0-3.0-1.0,99474,List2A,white,man,,TRUE,7,,,,,
null,CORRECT,,html-keyboard-response,5,100565,0.0-3.0-2.0-0.0,99474,List2A,white,man,,,,null,,,,
4396,"<img src=""portrait/BW1.jpg""style=""height:400px;""></img>",0,html-button-response,6,104964,0.0-3.0-4.0,99474,List2A,white,man,,TRUE,0,,,,,
null,CORRECT,,html-keyboard-response,7,106468,0.0-3.0-5.0-0.0,99474,List2A,white,man,,,,null,,,,
4629,"<img src=""portrait/WW2.jpg""style=""height:400px;""></img>",3,html-button-response,8,111099,0.0-3.0-7.0,99474,List2A,white,man,,TRUE,3,,,,,
null,CORRECT,,html-keyboard-response,9,112603,0.0-3.0-8.0-0.0,99474,List2A,white,man,,,,null,,,,
2774,"<img src=""portrait/BM2.jpg""style=""height:400px;""></img>",5,html-button-response,10,115379,0.0-3.0-10.0,99474,List2A,white,man,,TRUE,5,,,,,
null,CORRECT,,html-keyboard-response,11,116881,0.0-3.0-11.0-0.0,99474,List2A,white,man,,,,null,,,,
2344,"<img src=""portrait/BW2.jpg""style=""height:400px;""></img>",2,html-button-response,12,119227,0.0-3.0-13.0,99474,List2A,white,man,,TRUE,2,,,,,
null,CORRECT,,html-keyboard-response,13,120729,0.0-3.0-14.0-0.0,99474,List2A,white,man,,,,null,,,,
1664,"<img src=""portrait/BM1.jpg""style=""height:400px;""></img>",4,html-button-response,14,122395,0.0-3.0-16.0,99474,List2A,white,man,,TRUE,4,,,,,
null,CORRECT,,html-keyboard-response,15,123897,0.0-3.0-17.0-0.0,99474,List2A,white,man,,,,null,,,,
3112,"<img src=""portrait/WM1.jpg""style=""height:400px;""></img>",6,html-button-response,16,127012,0.0-3.0-19.0,99474,List2A,white,man,,TRUE,6,,,,,
null,CORRECT,,html-keyboard-response,17,128514,0.0-3.0-20.0-0.0,99474,List2A,white,man,,,,null,,,,
1999,"<img src=""portrait/WW1.jpg""style=""height:400px;""></img>",1,html-button-response,18,130515,0.0-3.0-22.0,99474,List2A,white,man,,TRUE,1,,,,,
null,CORRECT,,html-keyboard-response,19,132018,0.0-3.0-23.0-0.0,99474,List2A,white,man,,,,null,,,,
1351,<p>You got 8 out of 8 right first time. Press Continue.</p>,0,html-button-response,20,133371,0.0-3.0-25.0,99474,List2A,white,man,,,,,,,,
23036,"<p>In this experiment, you will view photographs of the people from the memory game interacting.</p><p>By using the <strong>exact</strong> phrase given <i>after</i> the photograph appears and recalling the correct names of the people in the photographs, form a sentence describing the interaction. You do not need to capitalise names.</p><p>Type your answer in the space provided. Please complete every sentence before moving onto the next trial.</p><p>You will only have a few seconds to memorise each given photograph and phrase before you can respond, so try your best to focus.</p><p>An example is given below. Press 'Continue' when you are ready.</p><img src='img/speaking_example.jpg' style='width:800px;height:460px;''></img>",0,html-button-response,21,157411,0.0-4.0,99474,List2A,white,man,,,,,,,,
2102,"<p>Before the experiment starts, you will watch two example trials. Press 'Continue'.</p>",0,html-button-response,22,160515,0.0-5.0,99474,List2A,white,man,,,,,,,,
null,<img src='img/meet_eg.gif' style='height:400px;''></img>,,html-keyboard-response,23,163530,0.0-6.0,99474,List2A,white,man,,,,null,,,,
null,<p>is meeting</p>,,html-keyboard-response,24,165531,0.0-7.0,99474,List2A,white,man,,,,null,,,,
3926,<p><b>Answer:</b> jane is meeting ruth</p>,0,html-button-response,25,169459,0.0-8.0,99474,List2A,white,man,,,,,,,,
null,<img src='img/look_eg.gif' style='height:400px;''></img>,,html-keyboard-response,26,172462,0.0-9.0,99474,List2A,white,man,,,,null,,,,
null,<p>are looking at each other</p>,,html-keyboard-response,27,174464,0.0-10.0,99474,List2A,white,man,,,,null,,,,
46248,<p><b>Answer:</b> fred and mike are looking at each other</p>,0,html-button-response,28,220712,0.0-11.0,99474,List2A,white,man,,,,,,,,
2421,"<p>Ready to start the experiment?</p><br><p><strong>Remember to describe the picture using a full sentence,</strong></p><p><strong>that combines the names of the people with the <i>exact</i> phrase given.</strong></p><p><strong>To receive full payment you must do this correctly.</strong></p><p><strong> You do not need to capitalise names or use punctuation.</strong></p><br><p>Press 'Continue' to begin.</p>",0,html-button-response,29,224136,0.0-12.0,99474,List2A,white,man,,,,,,,,
null,"<div style=""font-size:60px;"">+</div>",,html-keyboard-response,30,225639,0.0-13.0-0.0,99474,List2A,white,man,,,,null,,,,
null,"<img src=""stim_listA/marry4.gif""style=""height:400px;""></stim_listA>",,html-keyboard-response,31,227642,0.0-13.0-1.0,99474,List2A,white,man,,,,null,,,,
null,are marrying each other,,html-keyboard-response,32,229643,0.0-13.0-2.0,99474,List2A,white,man,,,,null,,,,
20123,,,survey-text,33,249768,0.0-13.0-3.0,99474,List2A,white,man,,,,,"{""Q0"":""fred and kate are marrying eachother""}","<img src=""stim_listA/marry4.gif""style=""height:400px;""></stim_listA>",are marrying each other,
null,"<div style=""font-size:60px;"">+</div>",,html-keyboard-response,34,250271,0.0-13.0-0.1,99474,List2A,white,man,,,,null,,,,
null,"<img src=""stim_listA/argue8.gif""style=""height:400px;""></stim_listA>",,html-keyboard-response,35,252273,0.0-13.0-1.1,99474,List2A,white,man,,,,null,,,,
null,are arguing with each other,,html-keyboard-response,36,254274,0.0-13.0-2.1,99474,List2A,white,man,,,,null,,,,
16035,,,survey-text,37,270311,0.0-13.0-3.1,99474,List2A,white,man,,,,,"{""Q0"":""kate and ruth are arguing with each other""}","<img src=""stim_listA/argue8.gif""style=""height:400px;""></stim_listA>",are arguing with each other,
null,"<div style=""font-size:60px;"">+</div>",,html-keyboard-response,38,270813,0.0-13.0-0.2,99474,List2A,white,man,,,,null,,,,
null,"<img src=""stim_listA/kiss1.gif""style=""height:400px;""></stim_listA>",,html-keyboard-response,39,272815,0.0-13.0-1.2,99474,List2A,white,man,,,,null,,,,
null,is kissing,,html-keyboard-response,40,274818,0.0-13.0-2.2,99474,List2A,white,man,,,,null,,,,
7319,,,survey-text,41,282138,0.0-13.0-3.2,99474,List2A,white,man,,,,,"{""Q0"":""luke is kissing ruth""}","<img src=""stim_listA/kiss1.gif""style=""height:400px;""></stim_listA>",is kissing,
null,"<div style=""font-size:60px;"">+</div>",,html-keyboard-response,42,282640,0.0-13.0-0.3,99474,List2A,white,man,,,,null,,,,
null,"<img src=""stim_listA/touch8.gif""style=""height:400px;""></stim_listA>",,html-keyboard-response,43,284643,0.0-13.0-1.3,99474,List2A,white,man,,,,null,,,,
null,are touching each other,,html-keyboard-response,44,286645,0.0-13.0-2.3,99474,List2A,white,man,,,,null,,,,
11436,,,survey-text,45,298082,0.0-13.0-3.3,99474,List2A,white,man,,,,,"{""Q0"":""ruth and beth are touching eachother""}","<img src=""stim_listA/touch8.gif""style=""height:400px;""></stim_listA>",are touching each other,
null,"<div style=""font-size:60px;"">+</div>",,html-keyboard-response,46,298584,0.0-13.0-0.4,99474,List2A,white,man,,,,null,,,,
null,"<img src=""stim_listA/play6.gif""style=""height:400px;""></stim_listA>",,html-keyboard-response,47,300586,0.0-13.0-1.4,99474,List2A,white,man,,,,null,,,,
null,are playing with each other,,html-keyboard-response,48,302588,0.0-13.0-2.4,99474,List2A,white,man,,,,null,,,,
10540,,,survey-text,49,313129,0.0-13.0-3.4,99474,List2A,white,man,,,,,"{""Q0"":""luke and fred are playing with eachother""}","<img src=""stim_listA/play6.gif""style=""height:400px;""></stim_listA>",are playing with each other,
null,"<div style=""font-size:60px;"">+</div>",,html-keyboard-response,50,313631,0.0-13.0-0.5,99474,List2A,white,man,,,,null,,,,
null,"<img src=""stim_listA/touch2.gif""style=""height:400px;""></stim_listA>",,html-keyboard-response,51,315633,0.0-13.0-1.5,99474,List2A,white,man,,,,null,,,,
null,are touching each other,,html-keyboard-response,52,317634,0.0-13.0-2.5,99474,List2A,white,man,,,,null,,,,
7782,,,survey-text,53,325417,0.0-13.0-3.5,99474,List2A,white,man,,,,,"{""Q0"":""luke and ruth are touching eachother""}","<img src=""stim_listA/touch2.gif""style=""height:400px;""></stim_listA>",are touching each other,
null,"<div style=""font-size:60px;"">+</div>",,html-keyboard-response,54,325920,0.0-13.0-0.6,99474,List2A,white,man,,,,null,,,,
null,"<img src=""stim_listA/argue7.gif""style=""height:400px;""></stim_listA>",,html-keyboard-response,55,327922,0.0-13.0-1.6,99474,List2A,white,man,,,,null,,,,
null,is arguing with,,html-keyboard-response,56,329923,0.0-13.0-2.6,99474,List2A,white,man,,,,null,,,,
14103,,,survey-text,57,344027,0.0-13.0-3.6,99474,List2A,white,man,,,,,"{""Q0"":""beth and jane are arguing ""}","<img src=""stim_listA/argue7.gif""style=""height:400px;""></stim_listA>",is arguing with,
null,"<div style=""font-size:60px;"">+</div>",,html-keyboard-response,58,344529,0.0-13.0-0.7,99474,List2A,white,man,,,,null,,,,
null,"<img src=""stim_listA/fight2.gif""style=""height:400px;""></stim_listA>",,html-keyboard-response,59,346531,0.0-13.0-1.7,99474,List2A,white,man,,,,null,,,,
null,are fighting each other,,html-keyboard-response,60,348532,0.0-13.0-2.7,99474,List2A,white,man,,,,null,,,,
9966,,,survey-text,61,358499,0.0-13.0-3.7,99474,List2A,white,man,,,,,"{""Q0"":""ruth and luke are fighting eachother""}","<img src=""stim_listA/fight2.gif""style=""height:400px;""></stim_listA>",are fighting each other,
null,"<div style=""font-size:60px;"">+</div>",,html-keyboard-response,62,359001,0.0-13.0-0.8,99474,List2A,white,man,,,,null,,,,
null,"<img src=""stim_listA/talk2.gif""style=""height:400px;""></stim_listA>",,html-keyboard-response,63,361004,0.0-13.0-1.8,99474,List2A,white,man,,,,null,,,,
null,are talking to each other,,html-keyboard-response,64,363006,0.0-13.0-2.8,99474,List2A,white,man,,,,null,,,,
14811,,,survey-text,65,377819,0.0-13.0-3.8,99474,List2A,white,man,,,,,"{""Q0"":""dave and ruth are talking to eachother""}","<img src=""stim_listA/talk2.gif""style=""height:400px;""></stim_listA>",are talking to each other,
null,"<div style=""font-size:60px;"">+</div>",,html-keyboard-response,66,378323,0.0-13.0-0.9,99474,List2A,white,man,,,,null,,,,
null,"<img src=""stim_listA/play5.gif""style=""height:400px;""></stim_listA>",,html-keyboard-response,67,380327,0.0-13.0-1.9,99474,List2A,white,man,,,,null,,,,
null,is playing with,,html-keyboard-response,68,382329,0.0-13.0-2.9,99474,List2A,white,man,,,,null,,,,
6392,,,survey-text,69,388723,0.0-13.0-3.9,99474,List2A,white,man,,,,,"{""Q0"":""mike is playing with dave""}","<img src=""stim_listA/play5.gif""style=""height:400px;""></stim_listA>",is playing with,
null,"<div style=""font-size:60px;"">+</div>",,html-keyboard-response,70,389225,0.0-13.0-0.10,99474,List2A,white,man,,,,null,,,,
null,"<img src=""stim_listA/talk3.gif""style=""height:400px;""></stim_listA>",,html-keyboard-response,71,391227,0.0-13.0-1.10,99474,List2A,white,man,,,,null,,,,
null,is talking to,,html-keyboard-response,72,393228,0.0-13.0-2.10,99474,List2A,white,man,,,,null,,,,
5908,,,survey-text,73,399138,0.0-13.0-3.10,99474,List2A,white,man,,,,,"{""Q0"":""fred is talking to kate""}","<img src=""stim_listA/talk3.gif""style=""height:400px;""></stim_listA>",is talking to,
null,"<div style=""font-size:60px;"">+</div>",,html-keyboard-response,74,399640,0.0-13.0-0.11,99474,List2A,white,man,,,,null,,,,
null,"<img src=""stim_listA/marry5.gif""style=""height:400px;""></stim_listA>",,html-keyboard-response,75,401621,0.0-13.0-1.11,99474,List2A,white,man,,,,null,,,,
null,is marrying,,html-keyboard-response,76,403623,0.0-13.0-2.11,99474,List2A,white,man,,,,null,,,,
4660,,,survey-text,77,408284,0.0-13.0-3.11,99474,List2A,white,man,,,,,"{""Q0"":""fred is marrying dave""}","<img src=""stim_listA/marry5.gif""style=""height:400px;""></stim_listA>",is marrying,
null,"<div style=""font-size:60px;"">+</div>",,html-keyboard-response,78,408786,0.0-13.0-0.12,99474,List2A,white,man,,,,null,,,,
null,"<img src=""stim_listA/dance7.gif""style=""height:400px;""></stim_listA>",,html-keyboard-response,79,410789,0.0-13.0-1.12,99474,List2A,white,man,,,,null,,,,
null,is dancing with,,html-keyboard-response,80,412791,0.0-13.0-2.12,99474,List2A,white,man,,,,null,,,,
16731,,,survey-text,81,429524,0.0-13.0-3.12,99474,List2A,white,man,,,,,"{""Q0"":""ruth is dancing with kate""}","<img src=""stim_listA/dance7.gif""style=""height:400px;""></stim_listA>",is dancing with,
null,"<div style=""font-size:60px;"">+</div>",,html-keyboard-response,82,430026,0.0-13.0-0.13,99474,List2A,white,man,,,,null,,,,
null,"<img src=""stim_listA/flirt3.gif""style=""height:400px;""></stim_listA>",,html-keyboard-response,83,432028,0.0-13.0-1.13,99474,List2A,white,man,,,,null,,,,
null,is flirting with,,html-keyboard-response,84,434029,0.0-13.0-2.13,99474,List2A,white,man,,,,null,,,,
19805,,,survey-text,85,453835,0.0-13.0-3.13,99474,List2A,white,man,,,,,"{""Q0"":""fred is flirting with kate""}","<img src=""stim_listA/flirt3.gif""style=""height:400px;""></stim_listA>",is flirting with,
null,"<div style=""font-size:60px;"">+</div>",,html-keyboard-response,86,454337,0.0-13.0-0.14,99474,List2A,white,man,,,,null,,,,
null,"<img src=""stim_listA/touch5.gif""style=""height:400px;""></stim_listA>",,html-keyboard-response,87,456339,0.0-13.0-1.14,99474,List2A,white,man,,,,null,,,,
null,is touching,,html-keyboard-response,88,458339,0.0-13.0-2.14,99474,List2A,white,man,,,,null,,,,
6064,,,survey-text,89,464405,0.0-13.0-3.14,99474,List2A,white,man,,,,,"{""Q0"":""dave is touching mike""}","<img src=""stim_listA/touch5.gif""style=""height:400px;""></stim_listA>",is touching,
null,"<div style=""font-size:60px;"">+</div>",,html-keyboard-response,90,464906,0.0-13.0-0.15,99474,List2A,white,man,,,,null,,,,
null,"<img src=""stim_listA/marry3.gif""style=""height:400px;""></stim_listA>",,html-keyboard-response,91,466908,0.0-13.0-1.15,99474,List2A,white,man,,,,null,,,,
null,is marrying,,html-keyboard-response,92,468910,0.0-13.0-2.15,99474,List2A,white,man,,,,null,,,,
5525,,,survey-text,93,474437,0.0-13.0-3.15,99474,List2A,white,man,,,,,"{""Q0"":""mike is marrying beth""}","<img src=""stim_listA/marry3.gif""style=""height:400px;""></stim_listA>",is marrying,
null,"<div style=""font-size:60px;"">+</div>",,html-keyboard-response,94,474938,0.0-13.0-0.16,99474,List2A,white,man,,,,null,,,,
null,"<img src=""stim_listA/play1.gif""style=""height:400px;""></stim_listA>",,html-keyboard-response,95,476940,0.0-13.0-1.16,99474,List2A,white,man,,,,null,,,,
null,is playing with,,html-keyboard-response,96,478941,0.0-13.0-2.16,99474,List2A,white,man,,,,null,,,,
7094,,,survey-text,97,486036,0.0-13.0-3.16,99474,List2A,white,man,,,,,"{""Q0"":""dave is playing with jane""}","<img src=""stim_listA/play1.gif""style=""height:400px;""></stim_listA>",is playing with,
null,"<div style=""font-size:60px;"">+</div>",,html-keyboard-response,98,486538,0.0-13.0-0.17,99474,List2A,white,man,,,,null,,,,
null,"<img src=""stim_listA/dance5.gif""style=""height:400px;""></stim_listA>",,html-keyboard-response,99,488542,0.0-13.0-1.17,99474,List2A,white,man,,,,null,,,,
null,is dancing with,,html-keyboard-response,100,490544,0.0-13.0-2.17,99474,List2A,white,man,,,,null,,,,
5028,,,survey-text,101,495572,0.0-13.0-3.17,99474,List2A,white,man,,,,,"{""Q0"":""luke is dancing with mike""}","<img src=""stim_listA/dance5.gif""style=""height:400px;""></stim_listA>",is dancing with,
null,"<div style=""font-size:60px;"">+</div>",,html-keyboard-response,102,496074,0.0-13.0-0.18,99474,List2A,white,man,,,,null,,,,
null,"<img src=""stim_listA/talk1.gif""style=""height:400px;""></stim_listA>",,html-keyboard-response,103,498076,0.0-13.0-1.18,99474,List2A,white,man,,,,null,,,,
null,is talking to,,html-keyboard-response,104,500078,0.0-13.0-2.18,99474,List2A,white,man,,,,null,,,,
4441,,,survey-text,105,504519,0.0-13.0-3.18,99474,List2A,white,man,,,,,"{""Q0"":""jane is talking to luke""}","<img src=""stim_listA/talk1.gif""style=""height:400px;""></stim_listA>",is talking to,
null,"<div style=""font-size:60px;"">+</div>",,html-keyboard-response,106,505021,0.0-13.0-0.19,99474,List2A,white,man,,,,null,,,,
null,"<img src=""stim_listA/fight1.gif""style=""height:400px;""></stim_listA>",,html-keyboard-response,107,507023,0.0-13.0-1.19,99474,List2A,white,man,,,,null,,,,
null,is fighting,,html-keyboard-response,108,509024,0.0-13.0-2.19,99474,List2A,white,man,,,,null,,,,
8802,,,survey-text,109,517828,0.0-13.0-3.19,99474,List2A,white,man,,,,,"{""Q0"":""dave is fighting with jane""}","<img src=""stim_listA/fight1.gif""style=""height:400px;""></stim_listA>",is fighting,
11250,"<img src='img/portrait_matrix_list2.jpg' style='width:900px;height:500px;''></img><p>If you have memorised all the portraits and names and are ready to start, press Continue.</p><p><strong>Please note: Your memory of these faces will be tested 4 times during this experiment.</strong></p>",0,html-button-response,110,529079,0.0-14.0-0.0,99474,List2A,white,man,,,,,,,,
2861,"<img src=""portrait/BW2.jpg""style=""height:400px;""></img>",2,html-button-response,111,532943,0.0-14.0-1.0,99474,List2A,white,man,,TRUE,2,,,,,
null,CORRECT,,html-keyboard-response,112,534445,0.0-14.0-2.0-0.0,99474,List2A,white,man,,,,null,,,,
1360,"<img src=""portrait/WM2.jpg""style=""height:400px;""></img>",7,html-button-response,113,535807,0.0-14.0-4.0,99474,List2A,white,man,,TRUE,7,,,,,
null,CORRECT,,html-keyboard-response,114,537310,0.0-14.0-5.0-0.0,99474,List2A,white,man,,,,null,,,,
1816,"<img src=""portrait/BW1.jpg""style=""height:400px;""></img>",0,html-button-response,115,539127,0.0-14.0-7.0,99474,List2A,white,man,,TRUE,0,,,,,
null,CORRECT,,html-keyboard-response,116,540629,0.0-14.0-8.0-0.0,99474,List2A,white,man,,,,null,,,,
1880,"<img src=""portrait/WM1.jpg""style=""height:400px;""></img>",6,html-button-response,117,542511,0.0-14.0-10.0,99474,List2A,white,man,,TRUE,6,,,,,
null,CORRECT,,html-keyboard-response,118,544014,0.0-14.0-11.0-0.0,99474,List2A,white,man,,,,null,,,,
1719,"<img src=""portrait/WW1.jpg""style=""height:400px;""></img>",1,html-button-response,119,545735,0.0-14.0-13.0,99474,List2A,white,man,,TRUE,1,,,,,
null,CORRECT,,html-keyboard-response,120,547237,0.0-14.0-14.0-0.0,99474,List2A,white,man,,,,null,,,,
1512,"<img src=""portrait/BM2.jpg""style=""height:400px;""></img>",5,html-button-response,121,548751,0.0-14.0-16.0,99474,List2A,white,man,,TRUE,5,,,,,
null,CORRECT,,html-keyboard-response,122,550253,0.0-14.0-17.0-0.0,99474,List2A,white,man,,,,null,,,,
2424,"<img src=""portrait/WW2.jpg""style=""height:400px;""></img>",3,html-button-response,123,552679,0.0-14.0-19.0,99474,List2A,white,man,,TRUE,3,,,,,
null,CORRECT,,html-keyboard-response,124,554181,0.0-14.0-20.0-0.0,99474,List2A,white,man,,,,null,,,,
1168,"<img src=""portrait/BM1.jpg""style=""height:400px;""></img>",4,html-button-response,125,555351,0.0-14.0-22.0,99474,List2A,white,man,,TRUE,4,,,,,
null,CORRECT,,html-keyboard-response,126,556854,0.0-14.0-23.0-0.0,99474,List2A,white,man,,,,null,,,,
895,<p>You got 8 out of 8 right first time. Press Continue.</p>,0,html-button-response,127,557750,0.0-14.0-25.0,99474,List2A,white,man,,,,,,,,
null,"<div style=""font-size:60px;"">+</div>",,html-keyboard-response,128,559254,0.0-15.0-0.0,99474,List2A,white,man,,,,null,,,,
null,"<img src=""stim_listA/play7.gif""style=""height:400px;""></stim_listA>",,html-keyboard-response,129,561256,0.0-15.0-1.0,99474,List2A,white,man,,,,null,,,,
null,is playing with,,html-keyboard-response,130,563257,0.0-15.0-2.0,99474,List2A,white,man,,,,null,,,,
10061,,,survey-text,131,573319,0.0-15.0-3.0,99474,List2A,white,man,,,,,"{""Q0"":""jane is playing with kate""}","<img src=""stim_listA/play7.gif""style=""height:400px;""></stim_listA>",is playing with,
null,"<div style=""font-size:60px;"">+</div>",,html-keyboard-response,132,573821,0.0-15.0-0.1,99474,List2A,white,man,,,,null,,,,
null,"<img src=""stim_listA/dance8.gif""style=""height:400px;""></stim_listA>",,html-keyboard-response,133,575824,0.0-15.0-1.1,99474,List2A,white,man,,,,null,,,,
null,are dancing with each other,,html-keyboard-response,134,577826,0.0-15.0-2.1,99474,List2A,white,man,,,,null,,,,
7827,,,survey-text,135,585654,0.0-15.0-3.1,99474,List2A,white,man,,,,,"{""Q0"":""beth and jane are dancing with eachother""}","<img src=""stim_listA/dance8.gif""style=""height:400px;""></stim_listA>",are dancing with each other,
null,"<div style=""font-size:60px;"">+</div>",,html-keyboard-response,136,586157,0.0-15.0-0.2,99474,List2A,white,man,,,,null,,,,
null,"<img src=""stim_listA/marry6.gif""style=""height:400px;""></stim_listA>",,html-keyboard-response,137,588160,0.0-15.0-1.2,99474,List2A,white,man,,,,null,,,,
null,are marrying each other,,html-keyboard-response,138,590154,0.0-15.0-2.2,99474,List2A,white,man,,,,null,,,,
9530,,,survey-text,139,599686,0.0-15.0-3.2,99474,List2A,white,man,,,,,"{""Q0"":""mike and luke are marrying eachother""}","<img src=""stim_listA/marry6.gif""style=""height:400px;""></stim_listA>",are marrying each other,
null,"<div style=""font-size:60px;"">+</div>",,html-keyboard-response,140,600188,0.0-15.0-0.3,99474,List2A,white,man,,,,null,,,,
null,"<img src=""stim_listA/touch4.gif""style=""height:400px;""></stim_listA>",,html-keyboard-response,141,602190,0.0-15.0-1.3,99474,List2A,white,man,,,,null,,,,
null,are touching each other,,html-keyboard-response,142,604191,0.0-15.0-2.3,99474,List2A,white,man,,,,null,,,,
21757,,,survey-text,143,625949,0.0-15.0-3.3,99474,List2A,white,man,,,,,"{""Q0"":""beth and fred are touching eachother""}","<img src=""stim_listA/touch4.gif""style=""height:400px;""></stim_listA>",are touching each other,
null,"<div style=""font-size:60px;"">+</div>",,html-keyboard-response,144,626451,0.0-15.0-0.4,99474,List2A,white,man,,,,null,,,,
null,"<img src=""stim_listA/argue3.gif""style=""height:400px;""></stim_listA>",,html-keyboard-response,145,628453,0.0-15.0-1.4,99474,List2A,white,man,,,,null,,,,
null,is arguing with,,html-keyboard-response,146,630455,0.0-15.0-2.4,99474,List2A,white,man,,,,null,,,,
7029,,,survey-text,147,637485,0.0-15.0-3.4,99474,List2A,white,man,,,,,"{""Q0"":""mike is arguing with beth""}","<img src=""stim_listA/argue3.gif""style=""height:400px;""></stim_listA>",is arguing with,
null,"<div style=""font-size:60px;"">+</div>",,html-keyboard-response,148,637986,0.0-15.0-0.5,99474,List2A,white,man,,,,null,,,,
null,"<img src=""stim_listA/talk4.gif""style=""height:400px;""></stim_listA>",,html-keyboard-response,149,639989,0.0-15.0-1.5,99474,List2A,white,man,,,,null,,,,
null,are talking to each other,,html-keyboard-response,150,641991,0.0-15.0-2.5,99474,List2A,white,man,,,,null,,,,
9682,,,survey-text,151,651674,0.0-15.0-3.5,99474,List2A,white,man,,,,,"{""Q0"":""mike and beth are talking to eachother""}","<img src=""stim_listA/talk4.gif""style=""height:400px;""></stim_listA>",are talking to each other,
null,"<div style=""font-size:60px;"">+</div>",,html-keyboard-response,152,652176,0.0-15.0-0.6,99474,List2A,white,man,,,,null,,,,
null,"<img src=""stim_listA/touch6.gif""style=""height:400px;""></stim_listA>",,html-keyboard-response,153,654178,0.0-15.0-1.6,99474,List2A,white,man,,,,null,,,,
null,are touching each other,,html-keyboard-response,154,656179,0.0-15.0-2.6,99474,List2A,white,man,,,,null,,,,
8270,,,survey-text,155,664450,0.0-15.0-3.6,99474,List2A,white,man,,,,,"{""Q0"":""fred and luke are touching eachother""}","<img src=""stim_listA/touch6.gif""style=""height:400px;""></stim_listA>",are touching each other,
null,"<div style=""font-size:60px;"">+</div>",,html-keyboard-response,156,664952,0.0-15.0-0.7,99474,List2A,white,man,,,,null,,,,
null,"<img src=""stim_listA/flirt2.gif""style=""height:400px;""></stim_listA>",,html-keyboard-response,157,666954,0.0-15.0-1.7,99474,List2A,white,man,,,,null,,,,
null,are flirting with each other,,html-keyboard-response,158,668957,0.0-15.0-2.7,99474,List2A,white,man,,,,null,,,,
11771,,,survey-text,159,680730,0.0-15.0-3.7,99474,List2A,white,man,,,,,"{""Q0"":""ruth and dave are flirting with eachother""}","<img src=""stim_listA/flirt2.gif""style=""height:400px;""></stim_listA>",are flirting with each other,
null,"<div style=""font-size:60px;"">+</div>",,html-keyboard-response,160,681232,0.0-15.0-0.8,99474,List2A,white,man,,,,null,,,,
null,"<img src=""stim_listA/fight6.gif""style=""height:400px;""></stim_listA>",,html-keyboard-response,161,683234,0.0-15.0-1.8,99474,List2A,white,man,,,,null,,,,
null,are fighting each other,,html-keyboard-response,162,685236,0.0-15.0-2.8,99474,List2A,white,man,,,,null,,,,
6764,,,survey-text,163,692002,0.0-15.0-3.8,99474,List2A,white,man,,,,,"{""Q0"":""fred and dave are fighing eachother""}","<img src=""stim_listA/fight6.gif""style=""height:400px;""></stim_listA>",are fighting each other,
null,"<div style=""font-size:60px;"">+</div>",,html-keyboard-response,164,692505,0.0-15.0-0.9,99474,List2A,white,man,,,,null,,,,
null,"<img src=""stim_listA/shout7.gif""style=""height:400px;""></stim_listA>",,html-keyboard-response,165,694507,0.0-15.0-1.9,99474,List2A,white,man,,,,null,,,,
null,is shouting at,,html-keyboard-response,166,696507,0.0-15.0-2.9,99474,List2A,white,man,,,,null,,,,
10533,,,survey-text,167,707041,0.0-15.0-3.9,99474,List2A,white,man,,,,,"{""Q0"":""beth is shouting at ruth""}","<img src=""stim_listA/shout7.gif""style=""height:400px;""></stim_listA>",is shouting at,
null,"<div style=""font-size:60px;"">+</div>",,html-keyboard-response,168,707542,0.0-15.0-0.10,99474,List2A,white,man,,,,null,,,,
null,"<img src=""stim_listA/fight8.gif""style=""height:400px;""></stim_listA>",,html-keyboard-response,169,709546,0.0-15.0-1.10,99474,List2A,white,man,,,,null,,,,
null,are fighting each other,,html-keyboard-response,170,711539,0.0-15.0-2.10,99474,List2A,white,man,,,,null,,,,
7411,,,survey-text,171,718951,0.0-15.0-3.10,99474,List2A,white,man,,,,,"{""Q0"":""beth and ruth are fighting eachother""}","<img src=""stim_listA/fight8.gif""style=""height:400px;""></stim_listA>",are fighting each other,
null,"<div style=""font-size:60px;"">+</div>",,html-keyboard-response,172,719453,0.0-15.0-0.11,99474,List2A,white,man,,,,null,,,,
null,"<img src=""stim_listA/fight7.gif""style=""height:400px;""></stim_listA>",,html-keyboard-response,173,721456,0.0-15.0-1.11,99474,List2A,white,man,,,,null,,,,
null,is fighting,,html-keyboard-response,174,723459,0.0-15.0-2.11,99474,List2A,white,man,,,,null,,,,
6716,,,survey-text,175,730175,0.0-15.0-3.11,99474,List2A,white,man,,,,,"{""Q0"":""jane is fighing kate""}","<img src=""stim_listA/fight7.gif""style=""height:400px;""></stim_listA>",is fighting,
null,"<div style=""font-size:60px;"">+</div>",,html-keyboard-response,176,730676,0.0-15.0-0.12,99474,List2A,white,man,,,,null,,,,
null,"<img src=""stim_listA/play3.gif""style=""height:400px;""></stim_listA>",,html-keyboard-response,177,732679,0.0-15.0-1.12,99474,List2A,white,man,,,,null,,,,
null,is playing with,,html-keyboard-response,178,734681,0.0-15.0-2.12,99474,List2A,white,man,,,,null,,,,
5805,,,survey-text,179,740487,0.0-15.0-3.12,99474,List2A,white,man,,,,,"{""Q0"":""kate is playing with mike""}","<img src=""stim_listA/play3.gif""style=""height:400px;""></stim_listA>",is playing with,
null,"<div style=""font-size:60px;"">+</div>",,html-keyboard-response,180,740989,0.0-15.0-0.13,99474,List2A,white,man,,,,null,,,,
null,"<img src=""stim_listA/kiss7.gif""style=""height:400px;""></stim_listA>",,html-keyboard-response,181,742991,0.0-15.0-1.13,99474,List2A,white,man,,,,null,,,,
null,is kissing,,html-keyboard-response,182,744992,0.0-15.0-2.13,99474,List2A,white,man,,,,null,,,,
4038,,,survey-text,183,749031,0.0-15.0-3.13,99474,List2A,white,man,,,,,"{""Q0"":""beth is kissing jane""}","<img src=""stim_listA/kiss7.gif""style=""height:400px;""></stim_listA>",is kissing,
null,"<div style=""font-size:60px;"">+</div>",,html-keyboard-response,184,749533,0.0-15.0-0.14,99474,List2A,white,man,,,,null,,,,
null,"<img src=""stim_listA/play2.gif""style=""height:400px;""></stim_listA>",,html-keyboard-response,185,751535,0.0-15.0-1.14,99474,List2A,white,man,,,,null,,,,
null,are playing with each other,,html-keyboard-response,186,753537,0.0-15.0-2.14,99474,List2A,white,man,,,,null,,,,
7236,,,survey-text,187,760775,0.0-15.0-3.14,99474,List2A,white,man,,,,,"{""Q0"":""ruth is playing with luke""}","<img src=""stim_listA/play2.gif""style=""height:400px;""></stim_listA>",are playing with each other,
null,"<div style=""font-size:60px;"">+</div>",,html-keyboard-response,188,761278,0.0-15.0-0.15,99474,List2A,white,man,,,,null,,,,
null,"<img src=""stim_listA/argue6.gif""style=""height:400px;""></stim_listA>",,html-keyboard-response,189,763279,0.0-15.0-1.15,99474,List2A,white,man,,,,null,,,,
null,are arguing with each other,,html-keyboard-response,190,765281,0.0-15.0-2.15,99474,List2A,white,man,,,,null,,,,
9971,,,survey-text,191,775254,0.0-15.0-3.15,99474,List2A,white,man,,,,,"{""Q0"":""mike and luke are arguing with eachother""}","<img src=""stim_listA/argue6.gif""style=""height:400px;""></stim_listA>",are arguing with each other,
null,"<div style=""font-size:60px;"">+</div>",,html-keyboard-response,192,775756,0.0-15.0-0.16,99474,List2A,white,man,,,,null,,,,
null,"<img src=""stim_listA/flirt1.gif""style=""height:400px;""></stim_listA>",,html-keyboard-response,193,777758,0.0-15.0-1.16,99474,List2A,white,man,,,,null,,,,
null,is flirting with,,html-keyboard-response,194,779760,0.0-15.0-2.16,99474,List2A,white,man,,,,null,,,,
6011,,,survey-text,195,785774,0.0-15.0-3.16,99474,List2A,white,man,,,,,"{""Q0"":""luke is flirting with jane""}","<img src=""stim_listA/flirt1.gif""style=""height:400px;""></stim_listA>",is flirting with,
null,"<div style=""font-size:60px;"">+</div>",,html-keyboard-response,196,786276,0.0-15.0-0.17,99474,List2A,white,man,,,,null,,,,
null,"<img src=""stim_listA/argue4.gif""style=""height:400px;""></stim_listA>",,html-keyboard-response,197,788279,0.0-15.0-1.17,99474,List2A,white,man,,,,null,,,,
null,are arguing with each other,,html-keyboard-response,198,790281,0.0-15.0-2.17,99474,List2A,white,man,,,,null,,,,
8475,,,survey-text,199,798757,0.0-15.0-3.17,99474,List2A,white,man,,,,,"{""Q0"":""kate and fred are arguing with eachother""}","<img src=""stim_listA/argue4.gif""style=""height:400px;""></stim_listA>",are arguing with each other,
null,"<div style=""font-size:60px;"">+</div>",,html-keyboard-response,200,799259,0.0-15.0-0.18,99474,List2A,white,man,,,,null,,,,
null,"<img src=""stim_listA/touch7.gif""style=""height:400px;""></stim_listA>",,html-keyboard-response,201,801262,0.0-15.0-1.18,99474,List2A,white,man,,,,null,,,,
null,is touching,,html-keyboard-response,202,803263,0.0-15.0-2.18,99474,List2A,white,man,,,,null,,,,
5068,,,survey-text,203,808333,0.0-15.0-3.18,99474,List2A,white,man,,,,,"{""Q0"":""jane is touching kate""}","<img src=""stim_listA/touch7.gif""style=""height:400px;""></stim_listA>",is touching,
null,"<div style=""font-size:60px;"">+</div>",,html-keyboard-response,204,808834,0.0-15.0-0.19,99474,List2A,white,man,,,,null,,,,
null,"<img src=""stim_listA/kiss5.gif""style=""height:400px;""></stim_listA>",,html-keyboard-response,205,810836,0.0-15.0-1.19,99474,List2A,white,man,,,,null,,,,
null,is kissing,,html-keyboard-response,206,812837,0.0-15.0-2.19,99474,List2A,white,man,,,,null,,,,
5070,,,survey-text,207,817908,0.0-15.0-3.19,99474,List2A,white,man,,,,,"{""Q0"":""fred is kissing luke""}","<img src=""stim_listA/kiss5.gif""style=""height:400px;""></stim_listA>",is kissing,
1462,"<img src='img/portrait_matrix_list2.jpg' style='width:900px;height:500px;''></img><p>If you have memorised all the portraits and names and are ready to start, press Continue.</p><p><strong>Please note: Your memory of these faces will be tested 4 times during this experiment.</strong></p>",0,html-button-response,208,819372,0.0-16.0-0.0,99474,List2A,white,man,,,,,,,,
1671,"<img src=""portrait/BM2.jpg""style=""height:400px;""></img>",5,html-button-response,209,822045,0.0-16.0-1.0,99474,List2A,white,man,,TRUE,5,,,,,
null,CORRECT,,html-keyboard-response,210,823546,0.0-16.0-2.0-0.0,99474,List2A,white,man,,,,null,,,,
1249,"<img src=""portrait/WW2.jpg""style=""height:400px;""></img>",3,html-button-response,211,824797,0.0-16.0-4.0,99474,List2A,white,man,,TRUE,3,,,,,
null,CORRECT,,html-keyboard-response,212,826300,0.0-16.0-5.0-0.0,99474,List2A,white,man,,,,null,,,,
1943,"<img src=""portrait/WM1.jpg""style=""height:400px;""></img>",6,html-button-response,213,828245,0.0-16.0-7.0,99474,List2A,white,man,,TRUE,6,,,,,
null,CORRECT,,html-keyboard-response,214,829747,0.0-16.0-8.0-0.0,99474,List2A,white,man,,,,null,,,,
1464,"<img src=""portrait/WW1.jpg""style=""height:400px;""></img>",3,html-button-response,215,831212,0.0-16.0-10.0,99474,List2A,white,man,,TRUE,1,,,,,
2845,"<img src=""portrait/WW1.jpg""style=""height:400px;""></img>",1,html-button-response,216,835051,0.0-16.0-12.0-0.0,99474,List2A,white,man,,FALSE,1,,,,,
null,CORRECT,,html-keyboard-response,217,836554,0.0-16.0-12.0-1.0-0.0,99474,List2A,white,man,,,,null,,,,
1935,"<img src=""portrait/BW1.jpg""style=""height:400px;""></img>",0,html-button-response,218,838491,0.0-16.0-13.0,99474,List2A,white,man,,TRUE,0,,,,,
null,CORRECT,,html-keyboard-response,219,839993,0.0-16.0-14.0-0.0,99474,List2A,white,man,,,,null,,,,
2048,"<img src=""portrait/BW2.jpg""style=""height:400px;""></img>",2,html-button-response,220,842042,0.0-16.0-16.0,99474,List2A,white,man,,TRUE,2,,,,,
null,CORRECT,,html-keyboard-response,221,843545,0.0-16.0-17.0-0.0,99474,List2A,white,man,,,,null,,,,
1080,"<img src=""portrait/BM1.jpg""style=""height:400px;""></img>",4,html-button-response,222,844627,0.0-16.0-19.0,99474,List2A,white,man,,TRUE,4,,,,,
null,CORRECT,,html-keyboard-response,223,846129,0.0-16.0-20.0-0.0,99474,List2A,white,man,,,,null,,,,
1160,"<img src=""portrait/WM2.jpg""style=""height:400px;""></img>",7,html-button-response,224,847291,0.0-16.0-22.0,99474,List2A,white,man,,TRUE,7,,,,,
null,CORRECT,,html-keyboard-response,225,848793,0.0-16.0-23.0-0.0,99474,List2A,white,man,,,,null,,,,
1232,<p>You got 7 out of 8 right first time. Press Continue.</p>,0,html-button-response,226,850026,0.0-16.0-25.0,99474,List2A,white,man,,,,,,,,
6508,"As you did not score 100%, the memory game will repeat. Press Continue.",0,html-button-response,227,857538,0.0-16.0-26.0-0.0,99474,List2A,white,man,,,,,,,,
1981,"<img src='img/portrait_matrix_list2.jpg' style='width:900px;height:500px;''></img><p>If you have memorised all the portraits and names and are ready to start, press Continue.</p><p><strong>Please note: Your memory of these faces will be tested 4 times during this experiment.</strong></p>",0,html-button-response,228,860522,0.0-16.1-0.1,99474,List2A,white,man,,,,,,,,
1413,"<img src=""portrait/BM2.jpg""style=""height:400px;""></img>",5,html-button-response,229,862938,0.0-16.1-1.1,99474,List2A,white,man,,TRUE,5,,,,,
null,CORRECT,,html-keyboard-response,230,864441,0.0-16.1-2.1-0.1,99474,List2A,white,man,,,,null,,,,
2486,"<img src=""portrait/WW2.jpg""style=""height:400px;""></img>",3,html-button-response,231,866930,0.0-16.1-4.1,99474,List2A,white,man,,TRUE,3,,,,,
null,CORRECT,,html-keyboard-response,232,868432,0.0-16.1-5.1-0.1,99474,List2A,white,man,,,,null,,,,
1368,"<img src=""portrait/WM1.jpg""style=""height:400px;""></img>",6,html-button-response,233,869802,0.0-16.1-7.1,99474,List2A,white,man,,TRUE,6,,,,,
null,CORRECT,,html-keyboard-response,234,871306,0.0-16.1-8.1-0.1,99474,List2A,white,man,,,,null,,,,
1414,"<img src=""portrait/WW1.jpg""style=""height:400px;""></img>",1,html-button-response,235,872722,0.0-16.1-10.1,99474,List2A,white,man,,TRUE,1,,,,,
null,CORRECT,,html-keyboard-response,236,874223,0.0-16.1-11.1-0.1,99474,List2A,white,man,,,,null,,,,
873,"<img src=""portrait/BW1.jpg""style=""height:400px;""></img>",0,html-button-response,237,875099,0.0-16.1-13.1,99474,List2A,white,man,,TRUE,0,,,,,
null,CORRECT,,html-keyboard-response,238,876600,0.0-16.1-14.1-0.1,99474,List2A,white,man,,,,null,,,,
1279,"<img src=""portrait/BW2.jpg""style=""height:400px;""></img>",2,html-button-response,239,877882,0.0-16.1-16.1,99474,List2A,white,man,,TRUE,2,,,,,
null,CORRECT,,html-keyboard-response,240,879386,0.0-16.1-17.1-0.1,99474,List2A,white,man,,,,null,,,,
1494,"<img src=""portrait/BM1.jpg""style=""height:400px;""></img>",4,html-button-response,241,880882,0.0-16.1-19.1,99474,List2A,white,man,,TRUE,4,,,,,
null,CORRECT,,html-keyboard-response,242,882385,0.0-16.1-20.1-0.1,99474,List2A,white,man,,,,null,,,,
1159,"<img src=""portrait/WM2.jpg""style=""height:400px;""></img>",7,html-button-response,243,883546,0.0-16.1-22.1,99474,List2A,white,man,,TRUE,7,,,,,
null,CORRECT,,html-keyboard-response,244,885048,0.0-16.1-23.1-0.1,99474,List2A,white,man,,,,null,,,,
912,<p>You got 8 out of 8 right first time. Press Continue.</p>,0,html-button-response,245,885961,0.0-16.1-25.1,99474,List2A,white,man,,,,,,,,
null,"<div style=""font-size:60px;"">+</div>",,html-keyboard-response,246,887463,0.0-17.0-0.0,99474,List2A,white,man,,,,null,,,,
null,"<img src=""stim_listA/shout5.gif""style=""height:400px;""></stim_listA>",,html-keyboard-response,247,889466,0.0-17.0-1.0,99474,List2A,white,man,,,,null,,,,
null,is shouting at,,html-keyboard-response,248,891468,0.0-17.0-2.0,99474,List2A,white,man,,,,null,,,,
4997,,,survey-text,249,896467,0.0-17.0-3.0,99474,List2A,white,man,,,,,"{""Q0"":""fred is shouting at luke""}","<img src=""stim_listA/shout5.gif""style=""height:400px;""></stim_listA>",is shouting at,
null,"<div style=""font-size:60px;"">+</div>",,html-keyboard-response,250,896970,0.0-17.0-0.1,99474,List2A,white,man,,,,null,,,,
null,"<img src=""stim_listA/kiss3.gif""style=""height:400px;""></stim_listA>",,html-keyboard-response,251,898972,0.0-17.0-1.1,99474,List2A,white,man,,,,null,,,,
null,is kissing,,html-keyboard-response,252,900972,0.0-17.0-2.1,99474,List2A,white,man,,,,null,,,,
6477,,,survey-text,253,907451,0.0-17.0-3.1,99474,List2A,white,man,,,,,"{""Q0"":""fred is kissing beth""}","<img src=""stim_listA/kiss3.gif""style=""height:400px;""></stim_listA>",is kissing,
null,"<div style=""font-size:60px;"">+</div>",,html-keyboard-response,254,907953,0.0-17.0-0.2,99474,List2A,white,man,,,,null,,,,
null,"<img src=""stim_listA/marry7.gif""style=""height:400px;""></stim_listA>",,html-keyboard-response,255,909955,0.0-17.0-1.2,99474,List2A,white,man,,,,null,,,,
null,is marrying,,html-keyboard-response,256,911956,0.0-17.0-2.2,99474,List2A,white,man,,,,null,,,,
5102,,,survey-text,257,917058,0.0-17.0-3.2,99474,List2A,white,man,,,,,"{""Q0"":""beth is marrying jane""}","<img src=""stim_listA/marry7.gif""style=""height:400px;""></stim_listA>",is marrying,
null,"<div style=""font-size:60px;"">+</div>",,html-keyboard-response,258,917561,0.0-17.0-0.3,99474,List2A,white,man,,,,null,,,,
null,"<img src=""stim_listA/fight4.gif""style=""height:400px;""></stim_listA>",,html-keyboard-response,259,919563,0.0-17.0-1.3,99474,List2A,white,man,,,,null,,,,
null,are fighting each other,,html-keyboard-response,260,921565,0.0-17.0-2.3,99474,List2A,white,man,,,,null,,,,
10124,,,survey-text,261,931690,0.0-17.0-3.3,99474,List2A,white,man,,,,,"{""Q0"":""fred and beth are fighting eachother""}","<img src=""stim_listA/fight4.gif""style=""height:400px;""></stim_listA>",are fighting each other,
null,"<div style=""font-size:60px;"">+</div>",,html-keyboard-response,262,932192,0.0-17.0-0.4,99474,List2A,white,man,,,,null,,,,
null,"<img src=""stim_listA/talk5.gif""style=""height:400px;""></stim_listA>",,html-keyboard-response,263,934194,0.0-17.0-1.4,99474,List2A,white,man,,,,null,,,,
null,is talking to,,html-keyboard-response,264,936195,0.0-17.0-2.4,99474,List2A,white,man,,,,null,,,,
5381,,,survey-text,265,941578,0.0-17.0-3.4,99474,List2A,white,man,,,,,"{""Q0"":""mike is talking to luke""}","<img src=""stim_listA/talk5.gif""style=""height:400px;""></stim_listA>",is talking to,
null,"<div style=""font-size:60px;"">+</div>",,html-keyboard-response,266,942080,0.0-17.0-0.5,99474,List2A,white,man,,,,null,,,,
null,"<img src=""stim_listA/shout3.gif""style=""height:400px;""></stim_listA>",,html-keyboard-response,267,944083,0.0-17.0-1.5,99474,List2A,white,man,,,,null,,,,
null,is shouting at,,html-keyboard-response,268,946084,0.0-17.0-2.5,99474,List2A,white,man,,,,null,,,,
5012,,,survey-text,269,951098,0.0-17.0-3.5,99474,List2A,white,man,,,,,"{""Q0"":""fred is shouting at beth""}","<img src=""stim_listA/shout3.gif""style=""height:400px;""></stim_listA>",is shouting at,
null,"<div style=""font-size:60px;"">+</div>",,html-keyboard-response,270,951600,0.0-17.0-0.6,99474,List2A,white,man,,,,null,,,,
null,"<img src=""stim_listA/argue1.gif""style=""height:400px;""></stim_listA>",,html-keyboard-response,271,953568,0.0-17.0-1.6,99474,List2A,white,man,,,,null,,,,
null,is arguing with,,html-keyboard-response,272,955570,0.0-17.0-2.6,99474,List2A,white,man,,,,null,,,,
6459,,,survey-text,273,962031,0.0-17.0-3.6,99474,List2A,white,man,,,,,"{""Q0"":""dave is arguing with ruth""}","<img src=""stim_listA/argue1.gif""style=""height:400px;""></stim_listA>",is arguing with,
null,"<div style=""font-size:60px;"">+</div>",,html-keyboard-response,274,962533,0.0-17.0-0.7,99474,List2A,white,man,,,,null,,,,
null,"<img src=""stim_listA/dance3.gif""style=""height:400px;""></stim_listA>",,html-keyboard-response,275,964536,0.0-17.0-1.7,99474,List2A,white,man,,,,null,,,,
null,is dancing with,,html-keyboard-response,276,966537,0.0-17.0-2.7,99474,List2A,white,man,,,,null,,,,
7140,,,survey-text,277,973678,0.0-17.0-3.7,99474,List2A,white,man,,,,,"{""Q0"":""kate is dancing with fred""}","<img src=""stim_listA/dance3.gif""style=""height:400px;""></stim_listA>",is dancing with,
null,"<div style=""font-size:60px;"">+</div>",,html-keyboard-response,278,974180,0.0-17.0-0.8,99474,List2A,white,man,,,,null,,,,
null,"<img src=""stim_listA/kiss8.gif""style=""height:400px;""></stim_listA>",,html-keyboard-response,279,976182,0.0-17.0-1.8,99474,List2A,white,man,,,,null,,,,
null,are kissing each other,,html-keyboard-response,280,978183,0.0-17.0-2.8,99474,List2A,white,man,,,,null,,,,
7678,,,survey-text,281,985862,0.0-17.0-3.8,99474,List2A,white,man,,,,,"{""Q0"":""kate and jane are kissing each other""}","<img src=""stim_listA/kiss8.gif""style=""height:400px;""></stim_listA>",are kissing each other,
null,"<div style=""font-size:60px;"">+</div>",,html-keyboard-response,282,986364,0.0-17.0-0.9,99474,List2A,white,man,,,,null,,,,
null,"<img src=""stim_listA/dance6.gif""style=""height:400px;""></stim_listA>",,html-keyboard-response,283,988366,0.0-17.0-1.9,99474,List2A,white,man,,,,null,,,,
null,are dancing with each other,,html-keyboard-response,284,990369,0.0-17.0-2.9,99474,List2A,white,man,,,,null,,,,
7667,,,survey-text,285,998038,0.0-17.0-3.9,99474,List2A,white,man,,,,,"{""Q0"":""dave and fred are dancing with each other""}","<img src=""stim_listA/dance6.gif""style=""height:400px;""></stim_listA>",are dancing with each other,
null,"<div style=""font-size:60px;"">+</div>",,html-keyboard-response,286,998539,0.0-17.0-0.10,99474,List2A,white,man,,,,null,,,,
null,"<img src=""stim_listA/talk7.gif""style=""height:400px;""></stim_listA>",,html-keyboard-response,287,1000541,0.0-17.0-1.10,99474,List2A,white,man,,,,null,,,,
null,is talking to,,html-keyboard-response,288,1002542,0.0-17.0-2.10,99474,List2A,white,man,,,,null,,,,
4726,,,survey-text,289,1007270,0.0-17.0-3.10,99474,List2A,white,man,,,,,"{""Q0"":""kate is talking to ruth""}","<img src=""stim_listA/talk7.gif""style=""height:400px;""></stim_listA>",is talking to,
null,"<div style=""font-size:60px;"">+</div>",,html-keyboard-response,290,1007771,0.0-17.0-0.11,99474,List2A,white,man,,,,null,,,,
null,"<img src=""stim_listA/flirt7.gif""style=""height:400px;""></stim_listA>",,html-keyboard-response,291,1009773,0.0-17.0-1.11,99474,List2A,white,man,,,,null,,,,
null,is flirting with,,html-keyboard-response,292,1011775,0.0-17.0-2.11,99474,List2A,white,man,,,,null,,,,
5308,,,survey-text,293,1017084,0.0-17.0-3.11,99474,List2A,white,man,,,,,"{""Q0"":""ruth is flirting with kate""}","<img src=""stim_listA/flirt7.gif""style=""height:400px;""></stim_listA>",is flirting with,
null,"<div style=""font-size:60px;"">+</div>",,html-keyboard-response,294,1017586,0.0-17.0-0.12,99474,List2A,white,man,,,,null,,,,
null,"<img src=""stim_listA/argue2.gif""style=""height:400px;""></stim_listA>",,html-keyboard-response,295,1019589,0.0-17.0-1.12,99474,List2A,white,man,,,,null,,,,
null,are arguing with each other,,html-keyboard-response,296,1021590,0.0-17.0-2.12,99474,List2A,white,man,,,,null,,,,
8700,,,survey-text,297,1030292,0.0-17.0-3.12,99474,List2A,white,man,,,,,"{""Q0"":""jane and luke are arguing with each other""}","<img src=""stim_listA/argue2.gif""style=""height:400px;""></stim_listA>",are arguing with each other,
null,"<div style=""font-size:60px;"">+</div>",,html-keyboard-response,298,1030793,0.0-17.0-0.13,99474,List2A,white,man,,,,null,,,,
null,"<img src=""stim_listA/shout1.gif""style=""height:400px;""></stim_listA>",,html-keyboard-response,299,1032795,0.0-17.0-1.13,99474,List2A,white,man,,,,null,,,,
null,is shouting at,,html-keyboard-response,300,1034797,0.0-17.0-2.13,99474,List2A,white,man,,,,null,,,,
5582,,,survey-text,301,1040380,0.0-17.0-3.13,99474,List2A,white,man,,,,,"{""Q0"":""luke is shouting at ruth""}","<img src=""stim_listA/shout1.gif""style=""height:400px;""></stim_listA>",is shouting at,
null,"<div style=""font-size:60px;"">+</div>",,html-keyboard-response,302,1040883,0.0-17.0-0.14,99474,List2A,white,man,,,,null,,,,
null,"<img src=""stim_listA/marry1.gif""style=""height:400px;""></stim_listA>",,html-keyboard-response,303,1042885,0.0-17.0-1.14,99474,List2A,white,man,,,,null,,,,
null,is marrying,,html-keyboard-response,304,1044885,0.0-17.0-2.14,99474,List2A,white,man,,,,null,,,,
6005,,,survey-text,305,1050891,0.0-17.0-3.14,99474,List2A,white,man,,,,,"{""Q0"":""dave is marrying ruth""}","<img src=""stim_listA/marry1.gif""style=""height:400px;""></stim_listA>",is marrying,
null,"<div style=""font-size:60px;"">+</div>",,html-keyboard-response,306,1051393,0.0-17.0-0.15,99474,List2A,white,man,,,,null,,,,
null,"<img src=""stim_listA/dance4.gif""style=""height:400px;""></stim_listA>",,html-keyboard-response,307,1053396,0.0-17.0-1.15,99474,List2A,white,man,,,,null,,,,
null,are dancing with each other,,html-keyboard-response,308,1055399,0.0-17.0-2.15,99474,List2A,white,man,,,,null,,,,
9370,,,survey-text,309,1064771,0.0-17.0-3.15,99474,List2A,white,man,,,,,"{""Q0"":""mike and beth are dancing with each other""}","<img src=""stim_listA/dance4.gif""style=""height:400px;""></stim_listA>",are dancing with each other,
null,"<div style=""font-size:60px;"">+</div>",,html-keyboard-response,310,1065274,0.0-17.0-0.16,99474,List2A,white,man,,,,null,,,,
null,"<img src=""stim_listA/dance2.gif""style=""height:400px;""></stim_listA>",,html-keyboard-response,311,1067275,0.0-17.0-1.16,99474,List2A,white,man,,,,null,,,,
null,are dancing with each other,,html-keyboard-response,312,1069277,0.0-17.0-2.16,99474,List2A,white,man,,,,null,,,,
7482,,,survey-text,313,1076761,0.0-17.0-3.16,99474,List2A,white,man,,,,,"{""Q0"":""ruth and dave are dancing with each other""}","<img src=""stim_listA/dance2.gif""style=""height:400px;""></stim_listA>",are dancing with each other,
null,"<div style=""font-size:60px;"">+</div>",,html-keyboard-response,314,1077263,0.0-17.0-0.17,99474,List2A,white,man,,,,null,,,,
null,"<img src=""stim_listA/marry8.gif""style=""height:400px;""></stim_listA>",,html-keyboard-response,315,1079265,0.0-17.0-1.17,99474,List2A,white,man,,,,null,,,,
null,are marrying each other,,html-keyboard-response,316,1081266,0.0-17.0-2.17,99474,List2A,white,man,,,,null,,,,
8397,,,survey-text,317,1089664,0.0-17.0-3.17,99474,List2A,white,man,,,,,"{""Q0"":""kate and ruth are marrying each other""}","<img src=""stim_listA/marry8.gif""style=""height:400px;""></stim_listA>",are marrying each other,
null,"<div style=""font-size:60px;"">+</div>",,html-keyboard-response,318,1090166,0.0-17.0-0.18,99474,List2A,white,man,,,,null,,,,
null,"<img src=""stim_listA/argue5.gif""style=""height:400px;""></stim_listA>",,html-keyboard-response,319,1092168,0.0-17.0-1.18,99474,List2A,white,man,,,,null,,,,
null,is arguing with,,html-keyboard-response,320,1094170,0.0-17.0-2.18,99474,List2A,white,man,,,,null,,,,
5869,,,survey-text,321,1100040,0.0-17.0-3.18,99474,List2A,white,man,,,,,"{""Q0"":""dave is arguing with fred""}","<img src=""stim_listA/argue5.gif""style=""height:400px;""></stim_listA>",is arguing with,
null,"<div style=""font-size:60px;"">+</div>",,html-keyboard-response,322,1100541,0.0-17.0-0.19,99474,List2A,white,man,,,,null,,,,
null,"<img src=""stim_listA/play4.gif""style=""height:400px;""></stim_listA>",,html-keyboard-response,323,1102543,0.0-17.0-1.19,99474,List2A,white,man,,,,null,,,,
null,are playing with each other,,html-keyboard-response,324,1104545,0.0-17.0-2.19,99474,List2A,white,man,,,,null,,,,
9213,,,survey-text,325,1113760,0.0-17.0-3.19,99474,List2A,white,man,,,,,"{""Q0"":""beth and fred are playing with eachother""}","<img src=""stim_listA/play4.gif""style=""height:400px;""></stim_listA>",are playing with each other,
1351,"<img src='img/portrait_matrix_list2.jpg' style='width:900px;height:500px;''></img><p>If you have memorised all the portraits and names and are ready to start, press Continue.</p><p><strong>Please note: Your memory of these faces will be tested 4 times during this experiment.</strong></p>",0,html-button-response,326,1115112,0.0-18.0-0.0,99474,List2A,white,man,,,,,,,,
1158,"<img src=""portrait/BM1.jpg""style=""height:400px;""></img>",4,html-button-response,327,1117272,0.0-18.0-1.0,99474,List2A,white,man,,TRUE,4,,,,,
null,CORRECT,,html-keyboard-response,328,1118774,0.0-18.0-2.0-0.0,99474,List2A,white,man,,,,null,,,,
1736,"<img src=""portrait/WM1.jpg""style=""height:400px;""></img>",6,html-button-response,329,1120512,0.0-18.0-4.0,99474,List2A,white,man,,TRUE,6,,,,,
null,CORRECT,,html-keyboard-response,330,1122015,0.0-18.0-5.0-0.0,99474,List2A,white,man,,,,null,,,,
1159,"<img src=""portrait/WW2.jpg""style=""height:400px;""></img>",3,html-button-response,331,1123176,0.0-18.0-7.0,99474,List2A,white,man,,TRUE,3,,,,,
null,CORRECT,,html-keyboard-response,332,1124679,0.0-18.0-8.0-0.0,99474,List2A,white,man,,,,null,,,,
1391,"<img src=""portrait/WM2.jpg""style=""height:400px;""></img>",7,html-button-response,333,1126072,0.0-18.0-10.0,99474,List2A,white,man,,TRUE,7,,,,,
null,CORRECT,,html-keyboard-response,334,1127574,0.0-18.0-11.0-0.0,99474,List2A,white,man,,,,null,,,,
1800,"<img src=""portrait/BM2.jpg""style=""height:400px;""></img>",5,html-button-response,335,1129376,0.0-18.0-13.0,99474,List2A,white,man,,TRUE,5,,,,,
null,CORRECT,,html-keyboard-response,336,1130878,0.0-18.0-14.0-0.0,99474,List2A,white,man,,,,null,,,,
1224,"<img src=""portrait/BW1.jpg""style=""height:400px;""></img>",0,html-button-response,337,1132104,0.0-18.0-16.0,99474,List2A,white,man,,TRUE,0,,,,,
null,CORRECT,,html-keyboard-response,338,1133572,0.0-18.0-17.0-0.0,99474,List2A,white,man,,,,null,,,,
1457,"<img src=""portrait/WW1.jpg""style=""height:400px;""></img>",1,html-button-response,339,1135031,0.0-18.0-19.0,99474,List2A,white,man,,TRUE,1,,,,,
null,CORRECT,,html-keyboard-response,340,1136534,0.0-18.0-20.0-0.0,99474,List2A,white,man,,,,null,,,,
1678,"<img src=""portrait/BW2.jpg""style=""height:400px;""></img>",2,html-button-response,341,1138214,0.0-18.0-22.0,99474,List2A,white,man,,TRUE,2,,,,,
null,CORRECT,,html-keyboard-response,342,1139716,0.0-18.0-23.0-0.0,99474,List2A,white,man,,,,null,,,,
1064,<p>You got 8 out of 8 right first time. Press Continue.</p>,0,html-button-response,343,1140782,0.0-18.0-25.0,99474,List2A,white,man,,,,,,,,
null,"<div style=""font-size:60px;"">+</div>",,html-keyboard-response,344,1142284,0.0-19.0-0.0,99474,List2A,white,man,,,,null,,,,
null,"<img src=""stim_listA/shout6.gif""style=""height:400px;""></stim_listA>",,html-keyboard-response,345,1144287,0.0-19.0-1.0,99474,List2A,white,man,,,,null,,,,
null,are shouting at each other,,html-keyboard-response,346,1146289,0.0-19.0-2.0,99474,List2A,white,man,,,,null,,,,
10243,,,survey-text,347,1156533,0.0-19.0-3.0,99474,List2A,white,man,,,,,"{""Q0"":""mike and dave are shouting at each other""}","<img src=""stim_listA/shout6.gif""style=""height:400px;""></stim_listA>",are shouting at each other,
null,"<div style=""font-size:60px;"">+</div>",,html-keyboard-response,348,1157035,0.0-19.0-0.1,99474,List2A,white,man,,,,null,,,,
null,"<img src=""stim_listA/shout8.gif""style=""height:400px;""></stim_listA>",,html-keyboard-response,349,1159037,0.0-19.0-1.1,99474,List2A,white,man,,,,null,,,,
null,are shouting at each other,,html-keyboard-response,350,1161038,0.0-19.0-2.1,99474,List2A,white,man,,,,null,,,,
7141,,,survey-text,351,1168181,0.0-19.0-3.1,99474,List2A,white,man,,,,,"{""Q0"":""kate and jane are shouting at each other""}","<img src=""stim_listA/shout8.gif""style=""height:400px;""></stim_listA>",are shouting at each other,
null,"<div style=""font-size:60px;"">+</div>",,html-keyboard-response,352,1168683,0.0-19.0-0.2,99474,List2A,white,man,,,,null,,,,
null,"<img src=""stim_listA/touch1.gif""style=""height:400px;""></stim_listA>",,html-keyboard-response,353,1170685,0.0-19.0-1.2,99474,List2A,white,man,,,,null,,,,
null,is touching,,html-keyboard-response,354,1172686,0.0-19.0-2.2,99474,List2A,white,man,,,,null,,,,
9093,,,survey-text,355,1181781,0.0-19.0-3.2,99474,List2A,white,man,,,,,"{""Q0"":""dave and jane are touching""}","<img src=""stim_listA/touch1.gif""style=""height:400px;""></stim_listA>",is touching,
null,"<div style=""font-size:60px;"">+</div>",,html-keyboard-response,356,1182283,0.0-19.0-0.3,99474,List2A,white,man,,,,null,,,,
null,"<img src=""stim_listA/play8.gif""style=""height:400px;""></stim_listA>",,html-keyboard-response,357,1184285,0.0-19.0-1.3,99474,List2A,white,man,,,,null,,,,
null,are playing with each other,,html-keyboard-response,358,1186286,0.0-19.0-2.3,99474,List2A,white,man,,,,null,,,,
7895,,,survey-text,359,1194183,0.0-19.0-3.3,99474,List2A,white,man,,,,,"{""Q0"":""beth and ruth are playing with each other""}","<img src=""stim_listA/play8.gif""style=""height:400px;""></stim_listA>",are playing with each other,
null,"<div style=""font-size:60px;"">+</div>",,html-keyboard-response,360,1194684,0.0-19.0-0.4,99474,List2A,white,man,,,,null,,,,
null,"<img src=""stim_listA/kiss4.gif""style=""height:400px;""></stim_listA>",,html-keyboard-response,361,1196686,0.0-19.0-1.4,99474,List2A,white,man,,,,null,,,,
null,are kissing each other,,html-keyboard-response,362,1198687,0.0-19.0-2.4,99474,List2A,white,man,,,,null,,,,
12415,,,survey-text,363,1211102,0.0-19.0-3.4,99474,List2A,white,man,,,,,"{""Q0"":""kate and mike are kissing each other""}","<img src=""stim_listA/kiss4.gif""style=""height:400px;""></stim_listA>",are kissing each other,
null,"<div style=""font-size:60px;"">+</div>",,html-keyboard-response,364,1211604,0.0-19.0-0.5,99474,List2A,white,man,,,,null,,,,
null,"<img src=""stim_listA/flirt8.gif""style=""height:400px;""></stim_listA>",,html-keyboard-response,365,1213606,0.0-19.0-1.5,99474,List2A,white,man,,,,null,,,,
null,are flirting with each other,,html-keyboard-response,366,1215607,0.0-19.0-2.5,99474,List2A,white,man,,,,null,,,,
11285,,,survey-text,367,1226894,0.0-19.0-3.5,99474,List2A,white,man,,,,,"{""Q0"":""beth and jane are flirting with each other""}","<img src=""stim_listA/flirt8.gif""style=""height:400px;""></stim_listA>",are flirting with each other,
null,"<div style=""font-size:60px;"">+</div>",,html-keyboard-response,368,1227396,0.0-19.0-0.6,99474,List2A,white,man,,,,null,,,,
null,"<img src=""stim_listA/fight5.gif""style=""height:400px;""></stim_listA>",,html-keyboard-response,369,1229399,0.0-19.0-1.6,99474,List2A,white,man,,,,null,,,,
null,is fighting,,html-keyboard-response,370,1231401,0.0-19.0-2.6,99474,List2A,white,man,,,,null,,,,
6867,,,survey-text,371,1238270,0.0-19.0-3.6,99474,List2A,white,man,,,,,"{""Q0"":""mike is fighting dave""}","<img src=""stim_listA/fight5.gif""style=""height:400px;""></stim_listA>",is fighting,
null,"<div style=""font-size:60px;"">+</div>",,html-keyboard-response,372,1238772,0.0-19.0-0.7,99474,List2A,white,man,,,,null,,,,
null,"<img src=""stim_listA/flirt4.gif""style=""height:400px;""></stim_listA>",,html-keyboard-response,373,1240774,0.0-19.0-1.7,99474,List2A,white,man,,,,null,,,,
null,are flirting with each other,,html-keyboard-response,374,1242775,0.0-19.0-2.7,99474,List2A,white,man,,,,null,,,,
15710,,,survey-text,375,1258487,0.0-19.0-3.7,99474,List2A,white,man,,,,,"{""Q0"":""mike and beth are flirting with each other""}","<img src=""stim_listA/flirt4.gif""style=""height:400px;""></stim_listA>",are flirting with each other,
null,"<div style=""font-size:60px;"">+</div>",,html-keyboard-response,376,1258988,0.0-19.0-0.8,99474,List2A,white,man,,,,null,,,,
null,"<img src=""stim_listA/talk6.gif""style=""height:400px;""></stim_listA>",,html-keyboard-response,377,1260990,0.0-19.0-1.8,99474,List2A,white,man,,,,null,,,,
null,are talking to each other,,html-keyboard-response,378,1262991,0.0-19.0-2.8,99474,List2A,white,man,,,,null,,,,
7814,,,survey-text,379,1270806,0.0-19.0-3.8,99474,List2A,white,man,,,,,"{""Q0"":""fred and dave are talking to each other""}","<img src=""stim_listA/talk6.gif""style=""height:400px;""></stim_listA>",are talking to each other,
null,"<div style=""font-size:60px;"">+</div>",,html-keyboard-response,380,1271307,0.0-19.0-0.9,99474,List2A,white,man,,,,null,,,,
null,"<img src=""stim_listA/shout4.gif""style=""height:400px;""></stim_listA>",,html-keyboard-response,381,1273310,0.0-19.0-1.9,99474,List2A,white,man,,,,null,,,,
null,are shouting at each other,,html-keyboard-response,382,1275312,0.0-19.0-2.9,99474,List2A,white,man,,,,null,,,,
7660,,,survey-text,383,1282974,0.0-19.0-3.9,99474,List2A,white,man,,,,,"{""Q0"":""kate and mike are shouting at each other""}","<img src=""stim_listA/shout4.gif""style=""height:400px;""></stim_listA>",are shouting at each other,
null,"<div style=""font-size:60px;"">+</div>",,html-keyboard-response,384,1283476,0.0-19.0-0.10,99474,List2A,white,man,,,,null,,,,
null,"<img src=""stim_listA/flirt5.gif""style=""height:400px;""></stim_listA>",,html-keyboard-response,385,1285479,0.0-19.0-1.10,99474,List2A,white,man,,,,null,,,,
null,is flirting with,,html-keyboard-response,386,1287480,0.0-19.0-2.10,99474,List2A,white,man,,,,null,,,,
7876,,,survey-text,387,1295358,0.0-19.0-3.10,99474,List2A,white,man,,,,,"{""Q0"":""luke is flirting with mike""}","<img src=""stim_listA/flirt5.gif""style=""height:400px;""></stim_listA>",is flirting with,
null,"<div style=""font-size:60px;"">+</div>",,html-keyboard-response,388,1295859,0.0-19.0-0.11,99474,List2A,white,man,,,,null,,,,
null,"<img src=""stim_listA/kiss6.gif""style=""height:400px;""></stim_listA>",,html-keyboard-response,389,1297861,0.0-19.0-1.11,99474,List2A,white,man,,,,null,,,,
null,are kissing each other,,html-keyboard-response,390,1299863,0.0-19.0-2.11,99474,List2A,white,man,,,,null,,,,
8238,,,survey-text,391,1308101,0.0-19.0-3.11,99474,List2A,white,man,,,,,"{""Q0"":""mike and dave are kissing each other""}","<img src=""stim_listA/kiss6.gif""style=""height:400px;""></stim_listA>",are kissing each other,
null,"<div style=""font-size:60px;"">+</div>",,html-keyboard-response,392,1308603,0.0-19.0-0.12,99474,List2A,white,man,,,,null,,,,
null,"<img src=""stim_listA/fight3.gif""style=""height:400px;""></stim_listA>",,html-keyboard-response,393,1310605,0.0-19.0-1.12,99474,List2A,white,man,,,,null,,,,
null,is fighting,,html-keyboard-response,394,1312608,0.0-19.0-2.12,99474,List2A,white,man,,,,null,,,,
4725,,,survey-text,395,1317333,0.0-19.0-3.12,99474,List2A,white,man,,,,,"{""Q0"":""mike is fighting kate""}","<img src=""stim_listA/fight3.gif""style=""height:400px;""></stim_listA>",is fighting,
null,"<div style=""font-size:60px;"">+</div>",,html-keyboard-response,396,1317836,0.0-19.0-0.13,99474,List2A,white,man,,,,null,,,,
null,"<img src=""stim_listA/flirt6.gif""style=""height:400px;""></stim_listA>",,html-keyboard-response,397,1319838,0.0-19.0-1.13,99474,List2A,white,man,,,,null,,,,
null,are flirting with each other,,html-keyboard-response,398,1321839,0.0-19.0-2.13,99474,List2A,white,man,,,,null,,,,
13108,,,survey-text,399,1334949,0.0-19.0-3.13,99474,List2A,white,man,,,,,"{""Q0"":""fred and dave are flirting with each other""}","<img src=""stim_listA/flirt6.gif""style=""height:400px;""></stim_listA>",are flirting with each other,
null,"<div style=""font-size:60px;"">+</div>",,html-keyboard-response,400,1335451,0.0-19.0-0.14,99474,List2A,white,man,,,,null,,,,
null,"<img src=""stim_listA/shout2.gif""style=""height:400px;""></stim_listA>",,html-keyboard-response,401,1337453,0.0-19.0-1.14,99474,List2A,white,man,,,,null,,,,
null,are shouting at each other,,html-keyboard-response,402,1339454,0.0-19.0-2.14,99474,List2A,white,man,,,,null,,,,
7069,,,survey-text,403,1346525,0.0-19.0-3.14,99474,List2A,white,man,,,,,"{""Q0"":""jane and dave are shouting at each other""}","<img src=""stim_listA/shout2.gif""style=""height:400px;""></stim_listA>",are shouting at each other,
null,"<div style=""font-size:60px;"">+</div>",,html-keyboard-response,404,1347027,0.0-19.0-0.15,99474,List2A,white,man,,,,null,,,,
null,"<img src=""stim_listA/dance1.gif""style=""height:400px;""></stim_listA>",,html-keyboard-response,405,1349030,0.0-19.0-1.15,99474,List2A,white,man,,,,null,,,,
null,is dancing with,,html-keyboard-response,406,1351031,0.0-19.0-2.15,99474,List2A,white,man,,,,null,,,,
8220,,,survey-text,407,1359253,0.0-19.0-3.15,99474,List2A,white,man,,,,,"{""Q0"":""luke is dancing with jane""}","<img src=""stim_listA/dance1.gif""style=""height:400px;""></stim_listA>",is dancing with,
null,"<div style=""font-size:60px;"">+</div>",,html-keyboard-response,408,1359754,0.0-19.0-0.16,99474,List2A,white,man,,,,null,,,,
null,"<img src=""stim_listA/kiss2.gif""style=""height:400px;""></stim_listA>",,html-keyboard-response,409,1361756,0.0-19.0-1.16,99474,List2A,white,man,,,,null,,,,
null,are kissing each other,,html-keyboard-response,410,1363757,0.0-19.0-2.16,99474,List2A,white,man,,,,null,,,,
9310,,,survey-text,411,1373069,0.0-19.0-3.16,99474,List2A,white,man,,,,,"{""Q0"":""jane and dave are kissing each other""}","<img src=""stim_listA/kiss2.gif""style=""height:400px;""></stim_listA>",are kissing each other,
null,"<div style=""font-size:60px;"">+</div>",,html-keyboard-response,412,1373555,0.0-19.0-0.17,99474,List2A,white,man,,,,null,,,,
null,"<img src=""stim_listA/talk8.gif""style=""height:400px;""></stim_listA>",,html-keyboard-response,413,1375559,0.0-19.0-1.17,99474,List2A,white,man,,,,null,,,,
null,are talking to each other,,html-keyboard-response,414,1377561,0.0-19.0-2.17,99474,List2A,white,man,,,,null,,,,
7674,,,survey-text,415,1385237,0.0-19.0-3.17,99474,List2A,white,man,,,,,"{""Q0"":""jane and beth are talking to each other""}","<img src=""stim_listA/talk8.gif""style=""height:400px;""></stim_listA>",are talking to each other,
null,"<div style=""font-size:60px;"">+</div>",,html-keyboard-response,416,1385738,0.0-19.0-0.18,99474,List2A,white,man,,,,null,,,,
null,"<img src=""stim_listA/marry2.gif""style=""height:400px;""></stim_listA>",,html-keyboard-response,417,1387740,0.0-19.0-1.18,99474,List2A,white,man,,,,null,,,,
null,are marrying each other,,html-keyboard-response,418,1389741,0.0-19.0-2.18,99474,List2A,white,man,,,,null,,,,
10598,,,survey-text,419,1400341,0.0-19.0-3.18,99474,List2A,white,man,,,,,"{""Q0"":""jane and luke are marrying each other""}","<img src=""stim_listA/marry2.gif""style=""height:400px;""></stim_listA>",are marrying each other,
null,"<div style=""font-size:60px;"">+</div>",,html-keyboard-response,420,1400842,0.0-19.0-0.19,99474,List2A,white,man,,,,null,,,,
null,"<img src=""stim_listA/touch3.gif""style=""height:400px;""></stim_listA>",,html-keyboard-response,421,1402845,0.0-19.0-1.19,99474,List2A,white,man,,,,null,,,,
null,is touching,,html-keyboard-response,422,1404847,0.0-19.0-2.19,99474,List2A,white,man,,,,null,,,,
6724,,,survey-text,423,1411572,0.0-19.0-3.19,99474,List2A,white,man,,,,,"{""Q0"":""mike is touching kate""}","<img src=""stim_listA/touch3.gif""style=""height:400px;""></stim_listA>",is touching,
5983,<p>Thank you for completing that task.</p><p>The final part of this session is a short questionnaire.</p><p>Press Continue.</p>,0,html-button-response,424,1417557,0.0-20.0,99474,List2A,white,man,,,,,,,,
21518,,,survey-text,425,1440077,0.0-21.0,99474,List2A,white,man,,,,,"{""Q0"":""20"",""Q1"":""English"",""Q2"":""English"",""Q3"":""United Kingdom"",""Q4"":""White"",""Q5"":""Male""}",,,demographics
7779,,,survey-likert,426,1447861,0.0-22.0,99474,List2A,white,man,,,,,"{""Q0"":4}",,,likert_ESS
3454,,,survey-likert,427,1451317,0.0-23.0,99474,List2A,white,man,,,,,"{""Q0"":4}",,,likert_NSSAL_Q1
3421,,,survey-likert,428,1454741,0.0-24.0,99474,List2A,white,man,,,,,"{""Q0"":4}",,,likert_NSSAL_Q2
7470,,,survey-likert,429,1462213,0.0-25.0,99474,List2A,white,man,,,,,"{""Q0"":4}",,,likert_CGRS_Q1
2157,,,survey-likert,430,1464373,0.0-26.0,99474,List2A,white,man,,,,,"{""Q0"":4}",,,likert_CGRS_Q2
1558,,,survey-likert,431,1465933,0.0-27.0,99474,List2A,white,man,,,,,"{""Q0"":4}",,,likert_CGRS_Q3
2653,,,survey-text,432,1468588,0.0-28.0,99474,List2A,white,man,,,,,"{""Q0"":""ccc""}",,,worker_id
5694,,,external-html,433,1474404,0.0-29.0,99474,List2A,white,man,debrief.html,,,,,,,
