rt,stimulus,button_pressed,trial_type,trial_index,time_elapsed,internal_node_id,subject,list,ppt_race,ppt_gender,url,first_guess,correct,key_press,responses,image_type,phrase_type,test_part
1754,Welcome to the experiment. Press Continue to begin.,0,html-button-response,0,1758,0.0-0.0,99772,List1A,white,man,,,,,,,,
52779,,,external-html,1,55656,0.0-1.0,99772,List1A,white,man,consent.html,,,,,,,
10660,"<p>On the next page, you will see portraits of 8 people and their names.</p><p>Your first task is to take a few minutes to memorise the names of these people.</p><p>You will have to recall their names during the rest of the experiment, so it is</p><p>essential that you try to memorise these people and their names as best as you can.</p><br><p><strong>You will then be tested on your memory of these names and portraits.</strong></p><br><p>The experiment will start after you have completed this memory test.</p><br><p>Ready?</p>",0,html-button-response,2,66317,0.0-2.0,99772,List1A,white,man,,,,,,,,
95969,"<img src='img/portrait_matrix_list1.jpg' style='width:900px;height:500px;''></img><p>If you have memorised all the portraits and names and are ready to start, press Continue.</p><p><strong>Please note: Your memory of these faces will be tested 4 times during this experiment.</strong></p>",0,html-button-response,3,163287,0.0-3.0-0.0,99772,List1A,white,man,,,,,,,,
5404,"<img src=""portrait/BM2.jpg""style=""height:400px;""></img>",5,html-button-response,4,169694,0.0-3.0-1.0,99772,List1A,white,man,,TRUE,5,,,,,
null,CORRECT,,html-keyboard-response,5,171197,0.0-3.0-2.0-0.0,99772,List1A,white,man,,,,null,,,,
2367,"<img src=""portrait/WM2.jpg""style=""height:400px;""></img>",7,html-button-response,6,173565,0.0-3.0-4.0,99772,List1A,white,man,,TRUE,7,,,,,
null,CORRECT,,html-keyboard-response,7,175068,0.0-3.0-5.0-0.0,99772,List1A,white,man,,,,null,,,,
3849,"<img src=""portrait/BW1.jpg""style=""height:400px;""></img>",2,html-button-response,8,178917,0.0-3.0-7.0,99772,List1A,white,man,,TRUE,0,,,,,
5176,"<img src=""portrait/BW1.jpg""style=""height:400px;""></img>",0,html-button-response,9,185095,0.0-3.0-9.0-0.0,99772,List1A,white,man,,FALSE,0,,,,,
null,CORRECT,,html-keyboard-response,10,186612,0.0-3.0-9.0-1.0-0.0,99772,List1A,white,man,,,,null,,,,
3758,"<img src=""portrait/WW1.jpg""style=""height:400px;""></img>",1,html-button-response,11,190372,0.0-3.0-10.0,99772,List1A,white,man,,TRUE,1,,,,,
null,CORRECT,,html-keyboard-response,12,191874,0.0-3.0-11.0-0.0,99772,List1A,white,man,,,,null,,,,
7709,"<img src=""portrait/BM1.jpg""style=""height:400px;""></img>",4,html-button-response,13,199585,0.0-3.0-13.0,99772,List1A,white,man,,TRUE,4,,,,,
null,CORRECT,,html-keyboard-response,14,201087,0.0-3.0-14.0-0.0,99772,List1A,white,man,,,,null,,,,
5356,"<img src=""portrait/WW2.jpg""style=""height:400px;""></img>",3,html-button-response,15,206445,0.0-3.0-16.0,99772,List1A,white,man,,TRUE,3,,,,,
null,CORRECT,,html-keyboard-response,16,207956,0.0-3.0-17.0-0.0,99772,List1A,white,man,,,,null,,,,
3301,"<img src=""portrait/WM1.jpg""style=""height:400px;""></img>",6,html-button-response,17,211258,0.0-3.0-19.0,99772,List1A,white,man,,TRUE,6,,,,,
null,CORRECT,,html-keyboard-response,18,212786,0.0-3.0-20.0-0.0,99772,List1A,white,man,,,,null,,,,
2787,"<img src=""portrait/BW2.jpg""style=""height:400px;""></img>",2,html-button-response,19,215575,0.0-3.0-22.0,99772,List1A,white,man,,TRUE,2,,,,,
null,CORRECT,,html-keyboard-response,20,217077,0.0-3.0-23.0-0.0,99772,List1A,white,man,,,,null,,,,
1816,<p>You got 7 out of 8 right first time. Press Continue.</p>,0,html-button-response,21,218894,0.0-3.0-25.0,99772,List1A,white,man,,,,,,,,
2480,"As you did not score 100%, the memory game will repeat. Press Continue.",0,html-button-response,22,222383,0.0-3.0-26.0-0.0,99772,List1A,white,man,,,,,,,,
6944,"<img src='img/portrait_matrix_list1.jpg' style='width:900px;height:500px;''></img><p>If you have memorised all the portraits and names and are ready to start, press Continue.</p><p><strong>Please note: Your memory of these faces will be tested 4 times during this experiment.</strong></p>",0,html-button-response,23,230332,0.0-3.1-0.1,99772,List1A,white,man,,,,,,,,
3133,"<img src=""portrait/BM2.jpg""style=""height:400px;""></img>",5,html-button-response,24,234466,0.0-3.1-1.1,99772,List1A,white,man,,TRUE,5,,,,,
null,CORRECT,,html-keyboard-response,25,235968,0.0-3.1-2.1-0.1,99772,List1A,white,man,,,,null,,,,
1796,"<img src=""portrait/WM2.jpg""style=""height:400px;""></img>",7,html-button-response,26,237766,0.0-3.1-4.1,99772,List1A,white,man,,TRUE,7,,,,,
null,CORRECT,,html-keyboard-response,27,239268,0.0-3.1-5.1-0.1,99772,List1A,white,man,,,,null,,,,
3899,"<img src=""portrait/BW1.jpg""style=""height:400px;""></img>",0,html-button-response,28,243168,0.0-3.1-7.1,99772,List1A,white,man,,TRUE,0,,,,,
null,CORRECT,,html-keyboard-response,29,244683,0.0-3.1-8.1-0.1,99772,List1A,white,man,,,,null,,,,
2655,"<img src=""portrait/WW1.jpg""style=""height:400px;""></img>",1,html-button-response,30,247340,0.0-3.1-10.1,99772,List1A,white,man,,TRUE,1,,,,,
null,CORRECT,,html-keyboard-response,31,248842,0.0-3.1-11.1-0.1,99772,List1A,white,man,,,,null,,,,
3784,"<img src=""portrait/BM1.jpg""style=""height:400px;""></img>",4,html-button-response,32,252628,0.0-3.1-13.1,99772,List1A,white,man,,TRUE,4,,,,,
null,CORRECT,,html-keyboard-response,33,254146,0.0-3.1-14.1-0.1,99772,List1A,white,man,,,,null,,,,
5284,"<img src=""portrait/WW2.jpg""style=""height:400px;""></img>",3,html-button-response,34,259431,0.0-3.1-16.1,99772,List1A,white,man,,TRUE,3,,,,,
null,CORRECT,,html-keyboard-response,35,260933,0.0-3.1-17.1-0.1,99772,List1A,white,man,,,,null,,,,
1811,"<img src=""portrait/WM1.jpg""style=""height:400px;""></img>",6,html-button-response,36,262745,0.0-3.1-19.1,99772,List1A,white,man,,TRUE,6,,,,,
null,CORRECT,,html-keyboard-response,37,264269,0.0-3.1-20.1-0.1,99772,List1A,white,man,,,,null,,,,
1774,"<img src=""portrait/BW2.jpg""style=""height:400px;""></img>",2,html-button-response,38,266045,0.0-3.1-22.1,99772,List1A,white,man,,TRUE,2,,,,,
null,CORRECT,,html-keyboard-response,39,267547,0.0-3.1-23.1-0.1,99772,List1A,white,man,,,,null,,,,
1656,<p>You got 8 out of 8 right first time. Press Continue.</p>,0,html-button-response,40,269205,0.0-3.1-25.1,99772,List1A,white,man,,,,,,,,
41291,"<p>In this experiment, you will view photographs of the people from the memory game interacting.</p><p>By using the <strong>exact</strong> phrase given <i>after</i> the photograph appears and recalling the correct names of the people in the photographs, form a sentence describing the interaction. You do not need to capitalise names.</p><p>Type your answer in the space provided. Please complete every sentence before moving onto the next trial.</p><p>You will only have a few seconds to memorise each given photograph and phrase before you can respond, so try your best to focus.</p><p>An example is given below. Press 'Continue' when you are ready.</p><img src='img/speaking_example.jpg' style='width:800px;height:460px;''></img>",0,html-button-response,41,311497,0.0-4.0,99772,List1A,white,man,,,,,,,,
2667,"<p>Before the experiment starts, you will watch two example trials. Press 'Continue'.</p>",0,html-button-response,42,315177,0.0-5.0,99772,List1A,white,man,,,,,,,,
null,<img src='img/meet_eg.gif' style='height:400px;''></img>,,html-keyboard-response,43,318179,0.0-6.0,99772,List1A,white,man,,,,null,,,,
null,<p>is meeting</p>,,html-keyboard-response,44,320181,0.0-7.0,99772,List1A,white,man,,,,null,,,,
3524,<p><b>Answer:</b> kate is meeting beth</p>,0,html-button-response,45,323705,0.0-8.0,99772,List1A,white,man,,,,,,,,
null,<img src='img/look_eg.gif' style='height:400px;''></img>,,html-keyboard-response,46,326707,0.0-9.0,99772,List1A,white,man,,,,null,,,,
null,<p>are looking at each other</p>,,html-keyboard-response,47,328713,0.0-10.0,99772,List1A,white,man,,,,null,,,,
5860,<p><b>Answer:</b> luke and dave are looking at each other</p>,0,html-button-response,48,334574,0.0-11.0,99772,List1A,white,man,,,,,,,,
15618,"<p>Ready to start the experiment?</p><br><p><strong>Remember to describe the picture using a full sentence,</strong></p><p><strong>that combines the names of the people with the <i>exact</i> phrase given.</strong></p><p><strong>To receive full payment you must do this correctly.</strong></p><p><strong> You do not need to capitalise names or use punctuation.</strong></p><br><p>Press 'Continue' to begin.</p>",0,html-button-response,49,351194,0.0-12.0,99772,List1A,white,man,,,,,,,,
null,"<div style=""font-size:60px;"">+</div>",,html-keyboard-response,50,352714,0.0-13.0-0.0,99772,List1A,white,man,,,,null,,,,
null,"<img src=""stim_listA/talk2.gif""style=""height:400px;""></stim_listA>",,html-keyboard-response,51,354715,0.0-13.0-1.0,99772,List1A,white,man,,,,null,,,,
null,are talking to each other,,html-keyboard-response,52,356717,0.0-13.0-2.0,99772,List1A,white,man,,,,null,,,,
19609,,,survey-text,53,376328,0.0-13.0-3.0,99772,List1A,white,man,,,,,"{""Q0"":""beth and mike are talking to each other""}","<img src=""stim_listA/talk2.gif""style=""height:400px;""></stim_listA>",are talking to each other,
null,"<div style=""font-size:60px;"">+</div>",,html-keyboard-response,54,376829,0.0-13.0-0.1,99772,List1A,white,man,,,,null,,,,
null,"<img src=""stim_listA/dance7.gif""style=""height:400px;""></stim_listA>",,html-keyboard-response,55,378831,0.0-13.0-1.1,99772,List1A,white,man,,,,null,,,,
null,is dancing with,,html-keyboard-response,56,380832,0.0-13.0-2.1,99772,List1A,white,man,,,,null,,,,
13492,,,survey-text,57,394325,0.0-13.0-3.1,99772,List1A,white,man,,,,,"{""Q0"":""jane is dancing with beth""}","<img src=""stim_listA/dance7.gif""style=""height:400px;""></stim_listA>",is dancing with,
null,"<div style=""font-size:60px;"">+</div>",,html-keyboard-response,58,394832,0.0-13.0-0.2,99772,List1A,white,man,,,,null,,,,
null,"<img src=""stim_listA/dance1.gif""style=""height:400px;""></stim_listA>",,html-keyboard-response,59,396834,0.0-13.0-1.2,99772,List1A,white,man,,,,null,,,,
null,is dancing with,,html-keyboard-response,60,398836,0.0-13.0-2.2,99772,List1A,white,man,,,,null,,,,
9558,,,survey-text,61,408395,0.0-13.0-3.2,99772,List1A,white,man,,,,,"{""Q0"":""fred is dancing with kate""}","<img src=""stim_listA/dance1.gif""style=""height:400px;""></stim_listA>",is dancing with,
null,"<div style=""font-size:60px;"">+</div>",,html-keyboard-response,62,408907,0.0-13.0-0.3,99772,List1A,white,man,,,,null,,,,
null,"<img src=""stim_listA/argue1.gif""style=""height:400px;""></stim_listA>",,html-keyboard-response,63,410909,0.0-13.0-1.3,99772,List1A,white,man,,,,null,,,,
null,is arguing with,,html-keyboard-response,64,412910,0.0-13.0-2.3,99772,List1A,white,man,,,,null,,,,
7832,,,survey-text,65,420743,0.0-13.0-3.3,99772,List1A,white,man,,,,,"{""Q0"":""mike is arguing with beth""}","<img src=""stim_listA/argue1.gif""style=""height:400px;""></stim_listA>",is arguing with,
null,"<div style=""font-size:60px;"">+</div>",,html-keyboard-response,66,421243,0.0-13.0-0.4,99772,List1A,white,man,,,,null,,,,
null,"<img src=""stim_listA/shout4.gif""style=""height:400px;""></stim_listA>",,html-keyboard-response,67,423245,0.0-13.0-1.4,99772,List1A,white,man,,,,null,,,,
null,are shouting at each other,,html-keyboard-response,68,425246,0.0-13.0-2.4,99772,List1A,white,man,,,,null,,,,
14986,,,survey-text,69,440234,0.0-13.0-3.4,99772,List1A,white,man,,,,,"{""Q0"":""jane and dave are shouting at each other""}","<img src=""stim_listA/shout4.gif""style=""height:400px;""></stim_listA>",are shouting at each other,
null,"<div style=""font-size:60px;"">+</div>",,html-keyboard-response,70,440735,0.0-13.0-0.5,99772,List1A,white,man,,,,null,,,,
null,"<img src=""stim_listA/shout5.gif""style=""height:400px;""></stim_listA>",,html-keyboard-response,71,442737,0.0-13.0-1.5,99772,List1A,white,man,,,,null,,,,
null,is shouting at,,html-keyboard-response,72,444738,0.0-13.0-2.5,99772,List1A,white,man,,,,null,,,,
8691,,,survey-text,73,453430,0.0-13.0-3.5,99772,List1A,white,man,,,,,"{""Q0"":""fred is shouting at luke""}","<img src=""stim_listA/shout5.gif""style=""height:400px;""></stim_listA>",is shouting at,
null,"<div style=""font-size:60px;"">+</div>",,html-keyboard-response,74,453931,0.0-13.0-0.6,99772,List1A,white,man,,,,null,,,,
null,"<img src=""stim_listA/argue6.gif""style=""height:400px;""></stim_listA>",,html-keyboard-response,75,455933,0.0-13.0-1.6,99772,List1A,white,man,,,,null,,,,
null,are arguing with each other,,html-keyboard-response,76,457934,0.0-13.0-2.6,99772,List1A,white,man,,,,null,,,,
12968,,,survey-text,77,470903,0.0-13.0-3.6,99772,List1A,white,man,,,,,"{""Q0"":""fred and dave are arguing with each other""}","<img src=""stim_listA/argue6.gif""style=""height:400px;""></stim_listA>",are arguing with each other,
null,"<div style=""font-size:60px;"">+</div>",,html-keyboard-response,78,471404,0.0-13.0-0.7,99772,List1A,white,man,,,,null,,,,
null,"<img src=""stim_listA/touch6.gif""style=""height:400px;""></stim_listA>",,html-keyboard-response,79,473405,0.0-13.0-1.7,99772,List1A,white,man,,,,null,,,,
null,are touching each other,,html-keyboard-response,80,475406,0.0-13.0-2.7,99772,List1A,white,man,,,,null,,,,
11226,,,survey-text,81,486632,0.0-13.0-3.7,99772,List1A,white,man,,,,,"{""Q0"":""fred and luke are touching each other""}","<img src=""stim_listA/touch6.gif""style=""height:400px;""></stim_listA>",are touching each other,
null,"<div style=""font-size:60px;"">+</div>",,html-keyboard-response,82,487146,0.0-13.0-0.8,99772,List1A,white,man,,,,null,,,,
null,"<img src=""stim_listA/play2.gif""style=""height:400px;""></stim_listA>",,html-keyboard-response,83,489148,0.0-13.0-1.8,99772,List1A,white,man,,,,null,,,,
null,are playing with each other,,html-keyboard-response,84,491159,0.0-13.0-2.8,99772,List1A,white,man,,,,null,,,,
10021,,,survey-text,85,501180,0.0-13.0-3.8,99772,List1A,white,man,,,,,"{""Q0"":""beth and fred are playing with each other""}","<img src=""stim_listA/play2.gif""style=""height:400px;""></stim_listA>",are playing with each other,
null,"<div style=""font-size:60px;"">+</div>",,html-keyboard-response,86,501681,0.0-13.0-0.9,99772,List1A,white,man,,,,null,,,,
null,"<img src=""stim_listA/fight1.gif""style=""height:400px;""></stim_listA>",,html-keyboard-response,87,503682,0.0-13.0-1.9,99772,List1A,white,man,,,,null,,,,
null,is fighting,,html-keyboard-response,88,505684,0.0-13.0-2.9,99772,List1A,white,man,,,,null,,,,
6356,,,survey-text,89,512040,0.0-13.0-3.9,99772,List1A,white,man,,,,,"{""Q0"":""kate is fighting mike""}","<img src=""stim_listA/fight1.gif""style=""height:400px;""></stim_listA>",is fighting,
null,"<div style=""font-size:60px;"">+</div>",,html-keyboard-response,90,512541,0.0-13.0-0.10,99772,List1A,white,man,,,,null,,,,
null,"<img src=""stim_listA/marry6.gif""style=""height:400px;""></stim_listA>",,html-keyboard-response,91,514542,0.0-13.0-1.10,99772,List1A,white,man,,,,null,,,,
null,are marrying each other,,html-keyboard-response,92,516544,0.0-13.0-2.10,99772,List1A,white,man,,,,null,,,,
10288,,,survey-text,93,526832,0.0-13.0-3.10,99772,List1A,white,man,,,,,"{""Q0"":""dave and fred are marrying each other""}","<img src=""stim_listA/marry6.gif""style=""height:400px;""></stim_listA>",are marrying each other,
null,"<div style=""font-size:60px;"">+</div>",,html-keyboard-response,94,527348,0.0-13.0-0.11,99772,List1A,white,man,,,,null,,,,
null,"<img src=""stim_listA/marry5.gif""style=""height:400px;""></stim_listA>",,html-keyboard-response,95,529350,0.0-13.0-1.11,99772,List1A,white,man,,,,null,,,,
null,is marrying,,html-keyboard-response,96,531351,0.0-13.0-2.11,99772,List1A,white,man,,,,null,,,,
7097,,,survey-text,97,538450,0.0-13.0-3.11,99772,List1A,white,man,,,,,"{""Q0"":""mike is marrying luke""}","<img src=""stim_listA/marry5.gif""style=""height:400px;""></stim_listA>",is marrying,
null,"<div style=""font-size:60px;"">+</div>",,html-keyboard-response,98,538950,0.0-13.0-0.12,99772,List1A,white,man,,,,null,,,,
null,"<img src=""stim_listA/shout1.gif""style=""height:400px;""></stim_listA>",,html-keyboard-response,99,540952,0.0-13.0-1.12,99772,List1A,white,man,,,,null,,,,
null,is shouting at,,html-keyboard-response,100,542954,0.0-13.0-2.12,99772,List1A,white,man,,,,null,,,,
9566,,,survey-text,101,552521,0.0-13.0-3.12,99772,List1A,white,man,,,,,"{""Q0"":""beth is shouting at fred""}","<img src=""stim_listA/shout1.gif""style=""height:400px;""></stim_listA>",is shouting at,
null,"<div style=""font-size:60px;"">+</div>",,html-keyboard-response,102,553022,0.0-13.0-0.13,99772,List1A,white,man,,,,null,,,,
null,"<img src=""stim_listA/argue5.gif""style=""height:400px;""></stim_listA>",,html-keyboard-response,103,555025,0.0-13.0-1.13,99772,List1A,white,man,,,,null,,,,
null,is arguing with,,html-keyboard-response,104,557026,0.0-13.0-2.13,99772,List1A,white,man,,,,null,,,,
10553,,,survey-text,105,567580,0.0-13.0-3.13,99772,List1A,white,man,,,,,"{""Q0"":""mike is arguing with luke""}","<img src=""stim_listA/argue5.gif""style=""height:400px;""></stim_listA>",is arguing with,
null,"<div style=""font-size:60px;"">+</div>",,html-keyboard-response,106,568081,0.0-13.0-0.14,99772,List1A,white,man,,,,null,,,,
null,"<img src=""stim_listA/dance5.gif""style=""height:400px;""></stim_listA>",,html-keyboard-response,107,570083,0.0-13.0-1.14,99772,List1A,white,man,,,,null,,,,
null,is dancing with,,html-keyboard-response,108,572084,0.0-13.0-2.14,99772,List1A,white,man,,,,null,,,,
8439,,,survey-text,109,580524,0.0-13.0-3.14,99772,List1A,white,man,,,,,"{""Q0"":""dave is dancing with fred""}","<img src=""stim_listA/dance5.gif""style=""height:400px;""></stim_listA>",is dancing with,
null,"<div style=""font-size:60px;"">+</div>",,html-keyboard-response,110,581025,0.0-13.0-0.15,99772,List1A,white,man,,,,null,,,,
null,"<img src=""stim_listA/argue7.gif""style=""height:400px;""></stim_listA>",,html-keyboard-response,111,583027,0.0-13.0-1.15,99772,List1A,white,man,,,,null,,,,
null,is arguing with,,html-keyboard-response,112,585028,0.0-13.0-2.15,99772,List1A,white,man,,,,null,,,,
7240,,,survey-text,113,592270,0.0-13.0-3.15,99772,List1A,white,man,,,,,"{""Q0"":""kate is arguing with jane""}","<img src=""stim_listA/argue7.gif""style=""height:400px;""></stim_listA>",is arguing with,
null,"<div style=""font-size:60px;"">+</div>",,html-keyboard-response,114,592771,0.0-13.0-0.16,99772,List1A,white,man,,,,null,,,,
null,"<img src=""stim_listA/flirt3.gif""style=""height:400px;""></stim_listA>",,html-keyboard-response,115,594773,0.0-13.0-1.16,99772,List1A,white,man,,,,null,,,,
null,is flirting with,,html-keyboard-response,116,596774,0.0-13.0-2.16,99772,List1A,white,man,,,,null,,,,
8820,,,survey-text,117,605595,0.0-13.0-3.16,99772,List1A,white,man,,,,,"{""Q0"":""jane is flirting with luke""}","<img src=""stim_listA/flirt3.gif""style=""height:400px;""></stim_listA>",is flirting with,
null,"<div style=""font-size:60px;"">+</div>",,html-keyboard-response,118,606096,0.0-13.0-0.17,99772,List1A,white,man,,,,null,,,,
null,"<img src=""stim_listA/talk4.gif""style=""height:400px;""></stim_listA>",,html-keyboard-response,119,608098,0.0-13.0-1.17,99772,List1A,white,man,,,,null,,,,
null,are talking to each other,,html-keyboard-response,120,610099,0.0-13.0-2.17,99772,List1A,white,man,,,,null,,,,
12357,,,survey-text,121,622458,0.0-13.0-3.17,99772,List1A,white,man,,,,,"{""Q0"":""ruth and dave are talking to each other""}","<img src=""stim_listA/talk4.gif""style=""height:400px;""></stim_listA>",are talking to each other,
null,"<div style=""font-size:60px;"">+</div>",,html-keyboard-response,122,622963,0.0-13.0-0.18,99772,List1A,white,man,,,,null,,,,
null,"<img src=""stim_listA/talk5.gif""style=""height:400px;""></stim_listA>",,html-keyboard-response,123,624965,0.0-13.0-1.18,99772,List1A,white,man,,,,null,,,,
null,is talking to,,html-keyboard-response,124,626966,0.0-13.0-2.18,99772,List1A,white,man,,,,null,,,,
7287,,,survey-text,125,634254,0.0-13.0-3.18,99772,List1A,white,man,,,,,"{""Q0"":""fred is talking to dave""}","<img src=""stim_listA/talk5.gif""style=""height:400px;""></stim_listA>",is talking to,
null,"<div style=""font-size:60px;"">+</div>",,html-keyboard-response,126,634755,0.0-13.0-0.19,99772,List1A,white,man,,,,null,,,,
null,"<img src=""stim_listA/dance8.gif""style=""height:400px;""></stim_listA>",,html-keyboard-response,127,636757,0.0-13.0-1.19,99772,List1A,white,man,,,,null,,,,
null,are dancing with each other,,html-keyboard-response,128,638764,0.0-13.0-2.19,99772,List1A,white,man,,,,null,,,,
10994,,,survey-text,129,649759,0.0-13.0-3.19,99772,List1A,white,man,,,,,"{""Q0"":""kate and ruth are dancing with each other""}","<img src=""stim_listA/dance8.gif""style=""height:400px;""></stim_listA>",are dancing with each other,
6555,"<img src='img/portrait_matrix_list1.jpg' style='width:900px;height:500px;''></img><p>If you have memorised all the portraits and names and are ready to start, press Continue.</p><p><strong>Please note: Your memory of these faces will be tested 4 times during this experiment.</strong></p>",0,html-button-response,130,656315,0.0-14.0-0.0,99772,List1A,white,man,,,,,,,,
2746,"<img src=""portrait/WM1.jpg""style=""height:400px;""></img>",6,html-button-response,131,660069,0.0-14.0-1.0,99772,List1A,white,man,,TRUE,6,,,,,
null,CORRECT,,html-keyboard-response,132,661570,0.0-14.0-2.0-0.0,99772,List1A,white,man,,,,null,,,,
2047,"<img src=""portrait/WM2.jpg""style=""height:400px;""></img>",7,html-button-response,133,663619,0.0-14.0-4.0,99772,List1A,white,man,,TRUE,7,,,,,
null,CORRECT,,html-keyboard-response,134,665121,0.0-14.0-5.0-0.0,99772,List1A,white,man,,,,null,,,,
1552,"<img src=""portrait/BW1.jpg""style=""height:400px;""></img>",0,html-button-response,135,666674,0.0-14.0-7.0,99772,List1A,white,man,,TRUE,0,,,,,
null,CORRECT,,html-keyboard-response,136,668176,0.0-14.0-8.0-0.0,99772,List1A,white,man,,,,null,,,,
1892,"<img src=""portrait/BM2.jpg""style=""height:400px;""></img>",5,html-button-response,137,670070,0.0-14.0-10.0,99772,List1A,white,man,,TRUE,5,,,,,
null,CORRECT,,html-keyboard-response,138,671571,0.0-14.0-11.0-0.0,99772,List1A,white,man,,,,null,,,,
6415,"<img src=""portrait/WW1.jpg""style=""height:400px;""></img>",1,html-button-response,139,677987,0.0-14.0-13.0,99772,List1A,white,man,,TRUE,1,,,,,
null,CORRECT,,html-keyboard-response,140,679489,0.0-14.0-14.0-0.0,99772,List1A,white,man,,,,null,,,,
2481,"<img src=""portrait/BM1.jpg""style=""height:400px;""></img>",4,html-button-response,141,681971,0.0-14.0-16.0,99772,List1A,white,man,,TRUE,4,,,,,
null,CORRECT,,html-keyboard-response,142,683472,0.0-14.0-17.0-0.0,99772,List1A,white,man,,,,null,,,,
3935,"<img src=""portrait/BW2.jpg""style=""height:400px;""></img>",2,html-button-response,143,687408,0.0-14.0-19.0,99772,List1A,white,man,,TRUE,2,,,,,
null,CORRECT,,html-keyboard-response,144,688909,0.0-14.0-20.0-0.0,99772,List1A,white,man,,,,null,,,,
2699,"<img src=""portrait/WW2.jpg""style=""height:400px;""></img>",3,html-button-response,145,691610,0.0-14.0-22.0,99772,List1A,white,man,,TRUE,3,,,,,
null,CORRECT,,html-keyboard-response,146,693125,0.0-14.0-23.0-0.0,99772,List1A,white,man,,,,null,,,,
1077,<p>You got 8 out of 8 right first time. Press Continue.</p>,0,html-button-response,147,694204,0.0-14.0-25.0,99772,List1A,white,man,,,,,,,,
null,"<div style=""font-size:60px;"">+</div>",,html-keyboard-response,148,695706,0.0-15.0-0.0,99772,List1A,white,man,,,,null,,,,
null,"<img src=""stim_listA/marry7.gif""style=""height:400px;""></stim_listA>",,html-keyboard-response,149,697708,0.0-15.0-1.0,99772,List1A,white,man,,,,null,,,,
null,is marrying,,html-keyboard-response,150,699709,0.0-15.0-2.0,99772,List1A,white,man,,,,null,,,,
8551,,,survey-text,151,708262,0.0-15.0-3.0,99772,List1A,white,man,,,,,"{""Q0"":""ruth is marrying kate""}","<img src=""stim_listA/marry7.gif""style=""height:400px;""></stim_listA>",is marrying,
null,"<div style=""font-size:60px;"">+</div>",,html-keyboard-response,152,708762,0.0-15.0-0.1,99772,List1A,white,man,,,,null,,,,
null,"<img src=""stim_listA/dance3.gif""style=""height:400px;""></stim_listA>",,html-keyboard-response,153,710764,0.0-15.0-1.1,99772,List1A,white,man,,,,null,,,,
null,is dancing with,,html-keyboard-response,154,712765,0.0-15.0-2.1,99772,List1A,white,man,,,,null,,,,
10819,,,survey-text,155,723584,0.0-15.0-3.1,99772,List1A,white,man,,,,,"{""Q0"":""jane is dancing with luke""}","<img src=""stim_listA/dance3.gif""style=""height:400px;""></stim_listA>",is dancing with,
null,"<div style=""font-size:60px;"">+</div>",,html-keyboard-response,156,724085,0.0-15.0-0.2,99772,List1A,white,man,,,,null,,,,
null,"<img src=""stim_listA/play6.gif""style=""height:400px;""></stim_listA>",,html-keyboard-response,157,726087,0.0-15.0-1.2,99772,List1A,white,man,,,,null,,,,
null,are playing with each other,,html-keyboard-response,158,728088,0.0-15.0-2.2,99772,List1A,white,man,,,,null,,,,
9970,,,survey-text,159,738059,0.0-15.0-3.2,99772,List1A,white,man,,,,,"{""Q0"":""fred and luke are playing with each other""}","<img src=""stim_listA/play6.gif""style=""height:400px;""></stim_listA>",are playing with each other,
null,"<div style=""font-size:60px;"">+</div>",,html-keyboard-response,160,738560,0.0-15.0-0.3,99772,List1A,white,man,,,,null,,,,
null,"<img src=""stim_listA/shout7.gif""style=""height:400px;""></stim_listA>",,html-keyboard-response,161,740570,0.0-15.0-1.3,99772,List1A,white,man,,,,null,,,,
null,is shouting at,,html-keyboard-response,162,742571,0.0-15.0-2.3,99772,List1A,white,man,,,,null,,,,
8392,,,survey-text,163,750964,0.0-15.0-3.3,99772,List1A,white,man,,,,,"{""Q0"":""beth is shouting at ruth""}","<img src=""stim_listA/shout7.gif""style=""height:400px;""></stim_listA>",is shouting at,
null,"<div style=""font-size:60px;"">+</div>",,html-keyboard-response,164,751476,0.0-15.0-0.4,99772,List1A,white,man,,,,null,,,,
null,"<img src=""stim_listA/talk6.gif""style=""height:400px;""></stim_listA>",,html-keyboard-response,165,753478,0.0-15.0-1.4,99772,List1A,white,man,,,,null,,,,
null,are talking to each other,,html-keyboard-response,166,755479,0.0-15.0-2.4,99772,List1A,white,man,,,,null,,,,
9313,,,survey-text,167,764793,0.0-15.0-3.4,99772,List1A,white,man,,,,,"{""Q0"":""luke and mike are talking to each other""}","<img src=""stim_listA/talk6.gif""style=""height:400px;""></stim_listA>",are talking to each other,
null,"<div style=""font-size:60px;"">+</div>",,html-keyboard-response,168,765294,0.0-15.0-0.5,99772,List1A,white,man,,,,null,,,,
null,"<img src=""stim_listA/flirt4.gif""style=""height:400px;""></stim_listA>",,html-keyboard-response,169,767296,0.0-15.0-1.5,99772,List1A,white,man,,,,null,,,,
null,are flirting with each other,,html-keyboard-response,170,769297,0.0-15.0-2.5,99772,List1A,white,man,,,,null,,,,
9806,,,survey-text,171,779104,0.0-15.0-3.5,99772,List1A,white,man,,,,,"{""Q0"":""ruth and dave are flirting with each other""}","<img src=""stim_listA/flirt4.gif""style=""height:400px;""></stim_listA>",are flirting with each other,
null,"<div style=""font-size:60px;"">+</div>",,html-keyboard-response,172,779605,0.0-15.0-0.6,99772,List1A,white,man,,,,null,,,,
null,"<img src=""stim_listA/touch1.gif""style=""height:400px;""></stim_listA>",,html-keyboard-response,173,781607,0.0-15.0-1.6,99772,List1A,white,man,,,,null,,,,
null,is touching,,html-keyboard-response,174,783608,0.0-15.0-2.6,99772,List1A,white,man,,,,null,,,,
6749,,,survey-text,175,790358,0.0-15.0-3.6,99772,List1A,white,man,,,,,"{""Q0"":""kate is touching mike""}","<img src=""stim_listA/touch1.gif""style=""height:400px;""></stim_listA>",is touching,
null,"<div style=""font-size:60px;"">+</div>",,html-keyboard-response,176,790859,0.0-15.0-0.7,99772,List1A,white,man,,,,null,,,,
null,"<img src=""stim_listA/kiss5.gif""style=""height:400px;""></stim_listA>",,html-keyboard-response,177,792861,0.0-15.0-1.7,99772,List1A,white,man,,,,null,,,,
null,is kissing,,html-keyboard-response,178,794863,0.0-15.0-2.7,99772,List1A,white,man,,,,null,,,,
12780,,,survey-text,179,807644,0.0-15.0-3.7,99772,List1A,white,man,,,,,"{""Q0"":""fred is kissing luke""}","<img src=""stim_listA/kiss5.gif""style=""height:400px;""></stim_listA>",is kissing,
null,"<div style=""font-size:60px;"">+</div>",,html-keyboard-response,180,808145,0.0-15.0-0.8,99772,List1A,white,man,,,,null,,,,
null,"<img src=""stim_listA/argue8.gif""style=""height:400px;""></stim_listA>",,html-keyboard-response,181,810146,0.0-15.0-1.8,99772,List1A,white,man,,,,null,,,,
null,are arguing with each other,,html-keyboard-response,182,812152,0.0-15.0-2.8,99772,List1A,white,man,,,,null,,,,
12246,,,survey-text,183,824400,0.0-15.0-3.8,99772,List1A,white,man,,,,,"{""Q0"":""jane and beth are arguing with each other""}","<img src=""stim_listA/argue8.gif""style=""height:400px;""></stim_listA>",are arguing with each other,
null,"<div style=""font-size:60px;"">+</div>",,html-keyboard-response,184,824900,0.0-15.0-0.9,99772,List1A,white,man,,,,null,,,,
null,"<img src=""stim_listA/marry3.gif""style=""height:400px;""></stim_listA>",,html-keyboard-response,185,826902,0.0-15.0-1.9,99772,List1A,white,man,,,,null,,,,
null,is marrying,,html-keyboard-response,186,828903,0.0-15.0-2.9,99772,List1A,white,man,,,,null,,,,
6637,,,survey-text,187,835541,0.0-15.0-3.9,99772,List1A,white,man,,,,,"{""Q0"":""ruth is marrying dave""}","<img src=""stim_listA/marry3.gif""style=""height:400px;""></stim_listA>",is marrying,
null,"<div style=""font-size:60px;"">+</div>",,html-keyboard-response,188,836046,0.0-15.0-0.10,99772,List1A,white,man,,,,null,,,,
null,"<img src=""stim_listA/flirt5.gif""style=""height:400px;""></stim_listA>",,html-keyboard-response,189,838048,0.0-15.0-1.10,99772,List1A,white,man,,,,null,,,,
null,is flirting with,,html-keyboard-response,190,840049,0.0-15.0-2.10,99772,List1A,white,man,,,,null,,,,
6683,,,survey-text,191,846733,0.0-15.0-3.10,99772,List1A,white,man,,,,,"{""Q0"":""fred is flirting with dave""}","<img src=""stim_listA/flirt5.gif""style=""height:400px;""></stim_listA>",is flirting with,
null,"<div style=""font-size:60px;"">+</div>",,html-keyboard-response,192,847235,0.0-15.0-0.11,99772,List1A,white,man,,,,null,,,,
null,"<img src=""stim_listA/flirt1.gif""style=""height:400px;""></stim_listA>",,html-keyboard-response,193,849237,0.0-15.0-1.11,99772,List1A,white,man,,,,null,,,,
null,is flirting with,,html-keyboard-response,194,851238,0.0-15.0-2.11,99772,List1A,white,man,,,,null,,,,
6738,,,survey-text,195,857978,0.0-15.0-3.11,99772,List1A,white,man,,,,,"{""Q0"":""fred is flirting with kate""}","<img src=""stim_listA/flirt1.gif""style=""height:400px;""></stim_listA>",is flirting with,
null,"<div style=""font-size:60px;"">+</div>",,html-keyboard-response,196,858484,0.0-15.0-0.12,99772,List1A,white,man,,,,null,,,,
null,"<img src=""stim_listA/play4.gif""style=""height:400px;""></stim_listA>",,html-keyboard-response,197,860486,0.0-15.0-1.12,99772,List1A,white,man,,,,null,,,,
null,are playing with each other,,html-keyboard-response,198,862487,0.0-15.0-2.12,99772,List1A,white,man,,,,null,,,,
9172,,,survey-text,199,871660,0.0-15.0-3.12,99772,List1A,white,man,,,,,"{""Q0"":""ruth and luke are playing with each other""}","<img src=""stim_listA/play4.gif""style=""height:400px;""></stim_listA>",are playing with each other,
null,"<div style=""font-size:60px;"">+</div>",,html-keyboard-response,200,872161,0.0-15.0-0.13,99772,List1A,white,man,,,,null,,,,
null,"<img src=""stim_listA/dance2.gif""style=""height:400px;""></stim_listA>",,html-keyboard-response,201,874163,0.0-15.0-1.13,99772,List1A,white,man,,,,null,,,,
null,are dancing with each other,,html-keyboard-response,202,876165,0.0-15.0-2.13,99772,List1A,white,man,,,,null,,,,
12823,,,survey-text,203,888989,0.0-15.0-3.13,99772,List1A,white,man,,,,,"{""Q0"":""beth and mike are dancing together""}","<img src=""stim_listA/dance2.gif""style=""height:400px;""></stim_listA>",are dancing with each other,
null,"<div style=""font-size:60px;"">+</div>",,html-keyboard-response,204,889491,0.0-15.0-0.14,99772,List1A,white,man,,,,null,,,,
null,"<img src=""stim_listA/marry8.gif""style=""height:400px;""></stim_listA>",,html-keyboard-response,205,891492,0.0-15.0-1.14,99772,List1A,white,man,,,,null,,,,
null,are marrying each other,,html-keyboard-response,206,893493,0.0-15.0-2.14,99772,List1A,white,man,,,,null,,,,
10626,,,survey-text,207,904121,0.0-15.0-3.14,99772,List1A,white,man,,,,,"{""Q0"":""beth and jane are marrying each other""}","<img src=""stim_listA/marry8.gif""style=""height:400px;""></stim_listA>",are marrying each other,
null,"<div style=""font-size:60px;"">+</div>",,html-keyboard-response,208,904623,0.0-15.0-0.15,99772,List1A,white,man,,,,null,,,,
null,"<img src=""stim_listA/kiss7.gif""style=""height:400px;""></stim_listA>",,html-keyboard-response,209,906625,0.0-15.0-1.15,99772,List1A,white,man,,,,null,,,,
null,is kissing,,html-keyboard-response,210,908625,0.0-15.0-2.15,99772,List1A,white,man,,,,null,,,,
8712,,,survey-text,211,917338,0.0-15.0-3.15,99772,List1A,white,man,,,,,"{""Q0"":""beth is kissing ruth""}","<img src=""stim_listA/kiss7.gif""style=""height:400px;""></stim_listA>",is kissing,
null,"<div style=""font-size:60px;"">+</div>",,html-keyboard-response,212,917839,0.0-15.0-0.16,99772,List1A,white,man,,,,null,,,,
null,"<img src=""stim_listA/shout8.gif""style=""height:400px;""></stim_listA>",,html-keyboard-response,213,919841,0.0-15.0-1.16,99772,List1A,white,man,,,,null,,,,
null,are shouting at each other,,html-keyboard-response,214,921842,0.0-15.0-2.16,99772,List1A,white,man,,,,null,,,,
11184,,,survey-text,215,933027,0.0-15.0-3.16,99772,List1A,white,man,,,,,"{""Q0"":""jane and kate are shouting at each other""}","<img src=""stim_listA/shout8.gif""style=""height:400px;""></stim_listA>",are shouting at each other,
null,"<div style=""font-size:60px;"">+</div>",,html-keyboard-response,216,933528,0.0-15.0-0.17,99772,List1A,white,man,,,,null,,,,
null,"<img src=""stim_listA/touch2.gif""style=""height:400px;""></stim_listA>",,html-keyboard-response,217,935530,0.0-15.0-1.17,99772,List1A,white,man,,,,null,,,,
null,are touching each other,,html-keyboard-response,218,937531,0.0-15.0-2.17,99772,List1A,white,man,,,,null,,,,
13983,,,survey-text,219,951515,0.0-15.0-3.17,99772,List1A,white,man,,,,,"{""Q0"":""beth and fred are touching each other""}","<img src=""stim_listA/touch2.gif""style=""height:400px;""></stim_listA>",are touching each other,
null,"<div style=""font-size:60px;"">+</div>",,html-keyboard-response,220,952016,0.0-15.0-0.18,99772,List1A,white,man,,,,null,,,,
null,"<img src=""stim_listA/fight5.gif""style=""height:400px;""></stim_listA>",,html-keyboard-response,221,954017,0.0-15.0-1.18,99772,List1A,white,man,,,,null,,,,
null,is fighting,,html-keyboard-response,222,956018,0.0-15.0-2.18,99772,List1A,white,man,,,,null,,,,
6490,,,survey-text,223,962510,0.0-15.0-3.18,99772,List1A,white,man,,,,,"{""Q0"":""dave is fighting mike""}","<img src=""stim_listA/fight5.gif""style=""height:400px;""></stim_listA>",is fighting,
null,"<div style=""font-size:60px;"">+</div>",,html-keyboard-response,224,963011,0.0-15.0-0.19,99772,List1A,white,man,,,,null,,,,
null,"<img src=""stim_listA/kiss8.gif""style=""height:400px;""></stim_listA>",,html-keyboard-response,225,965013,0.0-15.0-1.19,99772,List1A,white,man,,,,null,,,,
null,are kissing each other,,html-keyboard-response,226,967016,0.0-15.0-2.19,99772,List1A,white,man,,,,null,,,,
11060,,,survey-text,227,978076,0.0-15.0-3.19,99772,List1A,white,man,,,,,"{""Q0"":""jane and kate are kissing each other""}","<img src=""stim_listA/kiss8.gif""style=""height:400px;""></stim_listA>",are kissing each other,
2169,"<img src='img/portrait_matrix_list1.jpg' style='width:900px;height:500px;''></img><p>If you have memorised all the portraits and names and are ready to start, press Continue.</p><p><strong>Please note: Your memory of these faces will be tested 4 times during this experiment.</strong></p>",0,html-button-response,228,980246,0.0-16.0-0.0,99772,List1A,white,man,,,,,,,,
1440,"<img src=""portrait/WM1.jpg""style=""height:400px;""></img>",6,html-button-response,229,982688,0.0-16.0-1.0,99772,List1A,white,man,,TRUE,6,,,,,
null,CORRECT,,html-keyboard-response,230,984199,0.0-16.0-2.0-0.0,99772,List1A,white,man,,,,null,,,,
2054,"<img src=""portrait/BM1.jpg""style=""height:400px;""></img>",4,html-button-response,231,986254,0.0-16.0-4.0,99772,List1A,white,man,,TRUE,4,,,,,
null,CORRECT,,html-keyboard-response,232,987758,0.0-16.0-5.0-0.0,99772,List1A,white,man,,,,null,,,,
1960,"<img src=""portrait/BM2.jpg""style=""height:400px;""></img>",5,html-button-response,233,989719,0.0-16.0-7.0,99772,List1A,white,man,,TRUE,5,,,,,
null,CORRECT,,html-keyboard-response,234,991223,0.0-16.0-8.0-0.0,99772,List1A,white,man,,,,null,,,,
1551,"<img src=""portrait/WW2.jpg""style=""height:400px;""></img>",3,html-button-response,235,992774,0.0-16.0-10.0,99772,List1A,white,man,,TRUE,3,,,,,
null,CORRECT,,html-keyboard-response,236,994276,0.0-16.0-11.0-0.0,99772,List1A,white,man,,,,null,,,,
2112,"<img src=""portrait/BW1.jpg""style=""height:400px;""></img>",0,html-button-response,237,996389,0.0-16.0-13.0,99772,List1A,white,man,,TRUE,0,,,,,
null,CORRECT,,html-keyboard-response,238,997890,0.0-16.0-14.0-0.0,99772,List1A,white,man,,,,null,,,,
1434,"<img src=""portrait/WM2.jpg""style=""height:400px;""></img>",7,html-button-response,239,999326,0.0-16.0-16.0,99772,List1A,white,man,,TRUE,7,,,,,
null,CORRECT,,html-keyboard-response,240,1000828,0.0-16.0-17.0-0.0,99772,List1A,white,man,,,,null,,,,
1467,"<img src=""portrait/WW1.jpg""style=""height:400px;""></img>",1,html-button-response,241,1002296,0.0-16.0-19.0,99772,List1A,white,man,,TRUE,1,,,,,
null,CORRECT,,html-keyboard-response,242,1003797,0.0-16.0-20.0-0.0,99772,List1A,white,man,,,,null,,,,
2449,"<img src=""portrait/BW2.jpg""style=""height:400px;""></img>",2,html-button-response,243,1006247,0.0-16.0-22.0,99772,List1A,white,man,,TRUE,2,,,,,
null,CORRECT,,html-keyboard-response,244,1007750,0.0-16.0-23.0-0.0,99772,List1A,white,man,,,,null,,,,
1035,<p>You got 8 out of 8 right first time. Press Continue.</p>,0,html-button-response,245,1008786,0.0-16.0-25.0,99772,List1A,white,man,,,,,,,,
null,"<div style=""font-size:60px;"">+</div>",,html-keyboard-response,246,1010287,0.0-17.0-0.0,99772,List1A,white,man,,,,null,,,,
null,"<img src=""stim_listA/play7.gif""style=""height:400px;""></stim_listA>",,html-keyboard-response,247,1012289,0.0-17.0-1.0,99772,List1A,white,man,,,,null,,,,
null,is playing with,,html-keyboard-response,248,1014290,0.0-17.0-2.0,99772,List1A,white,man,,,,null,,,,
7632,,,survey-text,249,1021923,0.0-17.0-3.0,99772,List1A,white,man,,,,,"{""Q0"":""jane is playing with kate""}","<img src=""stim_listA/play7.gif""style=""height:400px;""></stim_listA>",is playing with,
null,"<div style=""font-size:60px;"">+</div>",,html-keyboard-response,250,1022424,0.0-17.0-0.1,99772,List1A,white,man,,,,null,,,,
null,"<img src=""stim_listA/touch8.gif""style=""height:400px;""></stim_listA>",,html-keyboard-response,251,1024426,0.0-17.0-1.1,99772,List1A,white,man,,,,null,,,,
null,are touching each other,,html-keyboard-response,252,1026427,0.0-17.0-2.1,99772,List1A,white,man,,,,null,,,,
9818,,,survey-text,253,1036246,0.0-17.0-3.1,99772,List1A,white,man,,,,,"{""Q0"":""beth and ruth are touching each other""}","<img src=""stim_listA/touch8.gif""style=""height:400px;""></stim_listA>",are touching each other,
null,"<div style=""font-size:60px;"">+</div>",,html-keyboard-response,254,1036747,0.0-17.0-0.2,99772,List1A,white,man,,,,null,,,,
null,"<img src=""stim_listA/fight8.gif""style=""height:400px;""></stim_listA>",,html-keyboard-response,255,1038749,0.0-17.0-1.2,99772,List1A,white,man,,,,null,,,,
null,are fighting each other,,html-keyboard-response,256,1040750,0.0-17.0-2.2,99772,List1A,white,man,,,,null,,,,
11938,,,survey-text,257,1052689,0.0-17.0-3.2,99772,List1A,white,man,,,,,"{""Q0"":""beth and ruth are fighting each other""}","<img src=""stim_listA/fight8.gif""style=""height:400px;""></stim_listA>",are fighting each other,
null,"<div style=""font-size:60px;"">+</div>",,html-keyboard-response,258,1053190,0.0-17.0-0.3,99772,List1A,white,man,,,,null,,,,
null,"<img src=""stim_listA/talk8.gif""style=""height:400px;""></stim_listA>",,html-keyboard-response,259,1055202,0.0-17.0-1.3,99772,List1A,white,man,,,,null,,,,
null,are talking to each other,,html-keyboard-response,260,1057204,0.0-17.0-2.3,99772,List1A,white,man,,,,null,,,,
11059,,,survey-text,261,1068264,0.0-17.0-3.3,99772,List1A,white,man,,,,,"{""Q0"":""ruth and kate are talking to each other""}","<img src=""stim_listA/talk8.gif""style=""height:400px;""></stim_listA>",are talking to each other,
null,"<div style=""font-size:60px;"">+</div>",,html-keyboard-response,262,1068765,0.0-17.0-0.4,99772,List1A,white,man,,,,null,,,,
null,"<img src=""stim_listA/marry2.gif""style=""height:400px;""></stim_listA>",,html-keyboard-response,263,1070767,0.0-17.0-1.4,99772,List1A,white,man,,,,null,,,,
null,are marrying each other,,html-keyboard-response,264,1072774,0.0-17.0-2.4,99772,List1A,white,man,,,,null,,,,
12432,,,survey-text,265,1085207,0.0-17.0-3.4,99772,List1A,white,man,,,,,"{""Q0"":""fred and kate are marrying each other""}","<img src=""stim_listA/marry2.gif""style=""height:400px;""></stim_listA>",are marrying each other,
null,"<div style=""font-size:60px;"">+</div>",,html-keyboard-response,266,1085708,0.0-17.0-0.5,99772,List1A,white,man,,,,null,,,,
null,"<img src=""stim_listA/talk1.gif""style=""height:400px;""></stim_listA>",,html-keyboard-response,267,1087710,0.0-17.0-1.5,99772,List1A,white,man,,,,null,,,,
null,is talking to,,html-keyboard-response,268,1089711,0.0-17.0-2.5,99772,List1A,white,man,,,,null,,,,
5821,,,survey-text,269,1095533,0.0-17.0-3.5,99772,List1A,white,man,,,,,"{""Q0"":""kate is talking to fred""}","<img src=""stim_listA/talk1.gif""style=""height:400px;""></stim_listA>",is talking to,
null,"<div style=""font-size:60px;"">+</div>",,html-keyboard-response,270,1096034,0.0-17.0-0.6,99772,List1A,white,man,,,,null,,,,
null,"<img src=""stim_listA/fight2.gif""style=""height:400px;""></stim_listA>",,html-keyboard-response,271,1098036,0.0-17.0-1.6,99772,List1A,white,man,,,,null,,,,
null,are fighting each other,,html-keyboard-response,272,1100048,0.0-17.0-2.6,99772,List1A,white,man,,,,null,,,,
9316,,,survey-text,273,1109365,0.0-17.0-3.6,99772,List1A,white,man,,,,,"{""Q0"":""beth and fred are fighting each other""}","<img src=""stim_listA/fight2.gif""style=""height:400px;""></stim_listA>",are fighting each other,
null,"<div style=""font-size:60px;"">+</div>",,html-keyboard-response,274,1109866,0.0-17.0-0.7,99772,List1A,white,man,,,,null,,,,
null,"<img src=""stim_listA/kiss3.gif""style=""height:400px;""></stim_listA>",,html-keyboard-response,275,1111868,0.0-17.0-1.7,99772,List1A,white,man,,,,null,,,,
null,is kissing,,html-keyboard-response,276,1113869,0.0-17.0-2.7,99772,List1A,white,man,,,,null,,,,
6871,,,survey-text,277,1120741,0.0-17.0-3.7,99772,List1A,white,man,,,,,"{""Q0"":""ruth is kissing luke""}","<img src=""stim_listA/kiss3.gif""style=""height:400px;""></stim_listA>",is kissing,
null,"<div style=""font-size:60px;"">+</div>",,html-keyboard-response,278,1121242,0.0-17.0-0.8,99772,List1A,white,man,,,,null,,,,
null,"<img src=""stim_listA/flirt7.gif""style=""height:400px;""></stim_listA>",,html-keyboard-response,279,1123244,0.0-17.0-1.8,99772,List1A,white,man,,,,null,,,,
null,is flirting with,,html-keyboard-response,280,1125246,0.0-17.0-2.8,99772,List1A,white,man,,,,null,,,,
6945,,,survey-text,281,1132192,0.0-17.0-3.8,99772,List1A,white,man,,,,,"{""Q0"":""jane is flirting with beth""}","<img src=""stim_listA/flirt7.gif""style=""height:400px;""></stim_listA>",is flirting with,
null,"<div style=""font-size:60px;"">+</div>",,html-keyboard-response,282,1132692,0.0-17.0-0.9,99772,List1A,white,man,,,,null,,,,
null,"<img src=""stim_listA/touch5.gif""style=""height:400px;""></stim_listA>",,html-keyboard-response,283,1134694,0.0-17.0-1.9,99772,List1A,white,man,,,,null,,,,
null,is touching,,html-keyboard-response,284,1136696,0.0-17.0-2.9,99772,List1A,white,man,,,,null,,,,
7584,,,survey-text,285,1144282,0.0-17.0-3.9,99772,List1A,white,man,,,,,"{""Q0"":""mike is touching dave""}","<img src=""stim_listA/touch5.gif""style=""height:400px;""></stim_listA>",is touching,
null,"<div style=""font-size:60px;"">+</div>",,html-keyboard-response,286,1144783,0.0-17.0-0.10,99772,List1A,white,man,,,,null,,,,
null,"<img src=""stim_listA/fight6.gif""style=""height:400px;""></stim_listA>",,html-keyboard-response,287,1146785,0.0-17.0-1.10,99772,List1A,white,man,,,,null,,,,
null,are fighting each other,,html-keyboard-response,288,1148786,0.0-17.0-2.10,99772,List1A,white,man,,,,null,,,,
9159,,,survey-text,289,1157946,0.0-17.0-3.10,99772,List1A,white,man,,,,,"{""Q0"":""fred and luke are fighting each other""}","<img src=""stim_listA/fight6.gif""style=""height:400px;""></stim_listA>",are fighting each other,
null,"<div style=""font-size:60px;"">+</div>",,html-keyboard-response,290,1158447,0.0-17.0-0.11,99772,List1A,white,man,,,,null,,,,
null,"<img src=""stim_listA/flirt2.gif""style=""height:400px;""></stim_listA>",,html-keyboard-response,291,1160449,0.0-17.0-1.11,99772,List1A,white,man,,,,null,,,,
null,are flirting with each other,,html-keyboard-response,292,1162450,0.0-17.0-2.11,99772,List1A,white,man,,,,null,,,,
9271,,,survey-text,293,1171722,0.0-17.0-3.11,99772,List1A,white,man,,,,,"{""Q0"":""mike and beth are flirting with each other""}","<img src=""stim_listA/flirt2.gif""style=""height:400px;""></stim_listA>",are flirting with each other,
null,"<div style=""font-size:60px;"">+</div>",,html-keyboard-response,294,1172223,0.0-17.0-0.12,99772,List1A,white,man,,,,null,,,,
null,"<img src=""stim_listA/dance4.gif""style=""height:400px;""></stim_listA>",,html-keyboard-response,295,1174224,0.0-17.0-1.12,99772,List1A,white,man,,,,null,,,,
null,are dancing with each other,,html-keyboard-response,296,1176225,0.0-17.0-2.12,99772,List1A,white,man,,,,null,,,,
11370,,,survey-text,297,1187597,0.0-17.0-3.12,99772,List1A,white,man,,,,,"{""Q0"":""dave and ruth are dancing with each other""}","<img src=""stim_listA/dance4.gif""style=""height:400px;""></stim_listA>",are dancing with each other,
null,"<div style=""font-size:60px;"">+</div>",,html-keyboard-response,298,1188098,0.0-17.0-0.13,99772,List1A,white,man,,,,null,,,,
null,"<img src=""stim_listA/kiss1.gif""style=""height:400px;""></stim_listA>",,html-keyboard-response,299,1190107,0.0-17.0-1.13,99772,List1A,white,man,,,,null,,,,
null,is kissing,,html-keyboard-response,300,1192109,0.0-17.0-2.13,99772,List1A,white,man,,,,null,,,,
6354,,,survey-text,301,1198464,0.0-17.0-3.13,99772,List1A,white,man,,,,,"{""Q0"":""beth is kissing fred""}","<img src=""stim_listA/kiss1.gif""style=""height:400px;""></stim_listA>",is kissing,
null,"<div style=""font-size:60px;"">+</div>",,html-keyboard-response,302,1198965,0.0-17.0-0.14,99772,List1A,white,man,,,,null,,,,
null,"<img src=""stim_listA/marry1.gif""style=""height:400px;""></stim_listA>",,html-keyboard-response,303,1200967,0.0-17.0-1.14,99772,List1A,white,man,,,,null,,,,
null,is marrying,,html-keyboard-response,304,1202969,0.0-17.0-2.14,99772,List1A,white,man,,,,null,,,,
9160,,,survey-text,305,1212129,0.0-17.0-3.14,99772,List1A,white,man,,,,,"{""Q0"":""beth is marrying mike""}","<img src=""stim_listA/marry1.gif""style=""height:400px;""></stim_listA>",is marrying,
null,"<div style=""font-size:60px;"">+</div>",,html-keyboard-response,306,1212630,0.0-17.0-0.15,99772,List1A,white,man,,,,null,,,,
null,"<img src=""stim_listA/shout3.gif""style=""height:400px;""></stim_listA>",,html-keyboard-response,307,1214632,0.0-17.0-1.15,99772,List1A,white,man,,,,null,,,,
null,is shouting at,,html-keyboard-response,308,1216634,0.0-17.0-2.15,99772,List1A,white,man,,,,null,,,,
7715,,,survey-text,309,1224350,0.0-17.0-3.15,99772,List1A,white,man,,,,,"{""Q0"":""luke is shouting at ruth""}","<img src=""stim_listA/shout3.gif""style=""height:400px;""></stim_listA>",is shouting at,
null,"<div style=""font-size:60px;"">+</div>",,html-keyboard-response,310,1224859,0.0-17.0-0.16,99772,List1A,white,man,,,,null,,,,
null,"<img src=""stim_listA/argue3.gif""style=""height:400px;""></stim_listA>",,html-keyboard-response,311,1226861,0.0-17.0-1.16,99772,List1A,white,man,,,,null,,,,
null,is arguing with,,html-keyboard-response,312,1228861,0.0-17.0-2.16,99772,List1A,white,man,,,,null,,,,
6701,,,survey-text,313,1235564,0.0-17.0-3.16,99772,List1A,white,man,,,,,"{""Q0"":""ruth is arguing with dave""}","<img src=""stim_listA/argue3.gif""style=""height:400px;""></stim_listA>",is arguing with,
null,"<div style=""font-size:60px;"">+</div>",,html-keyboard-response,314,1236064,0.0-17.0-0.17,99772,List1A,white,man,,,,null,,,,
null,"<img src=""stim_listA/talk3.gif""style=""height:400px;""></stim_listA>",,html-keyboard-response,315,1238069,0.0-17.0-1.17,99772,List1A,white,man,,,,null,,,,
null,is talking to,,html-keyboard-response,316,1240071,0.0-17.0-2.17,99772,List1A,white,man,,,,null,,,,
6212,,,survey-text,317,1246285,0.0-17.0-3.17,99772,List1A,white,man,,,,,"{""Q0"":""jane is talking to luke""}","<img src=""stim_listA/talk3.gif""style=""height:400px;""></stim_listA>",is talking to,
null,"<div style=""font-size:60px;"">+</div>",,html-keyboard-response,318,1246786,0.0-17.0-0.18,99772,List1A,white,man,,,,null,,,,
null,"<img src=""stim_listA/flirt6.gif""style=""height:400px;""></stim_listA>",,html-keyboard-response,319,1248788,0.0-17.0-1.18,99772,List1A,white,man,,,,null,,,,
null,are flirting with each other,,html-keyboard-response,320,1250788,0.0-17.0-2.18,99772,List1A,white,man,,,,null,,,,
11923,,,survey-text,321,1262712,0.0-17.0-3.18,99772,List1A,white,man,,,,,"{""Q0"":""luke and mike are flirting with each other""}","<img src=""stim_listA/flirt6.gif""style=""height:400px;""></stim_listA>",are flirting with each other,
null,"<div style=""font-size:60px;"">+</div>",,html-keyboard-response,322,1263213,0.0-17.0-0.19,99772,List1A,white,man,,,,null,,,,
null,"<img src=""stim_listA/fight4.gif""style=""height:400px;""></stim_listA>",,html-keyboard-response,323,1265215,0.0-17.0-1.19,99772,List1A,white,man,,,,null,,,,
null,are fighting each other,,html-keyboard-response,324,1267215,0.0-17.0-2.19,99772,List1A,white,man,,,,null,,,,
9359,,,survey-text,325,1276575,0.0-17.0-3.19,99772,List1A,white,man,,,,,"{""Q0"":""luke and ruth are fighting each other""}","<img src=""stim_listA/fight4.gif""style=""height:400px;""></stim_listA>",are fighting each other,
2051,"<img src='img/portrait_matrix_list1.jpg' style='width:900px;height:500px;''></img><p>If you have memorised all the portraits and names and are ready to start, press Continue.</p><p><strong>Please note: Your memory of these faces will be tested 4 times during this experiment.</strong></p>",0,html-button-response,326,1278627,0.0-18.0-0.0,99772,List1A,white,man,,,,,,,,
2026,"<img src=""portrait/BW2.jpg""style=""height:400px;""></img>",2,html-button-response,327,1281655,0.0-18.0-1.0,99772,List1A,white,man,,TRUE,2,,,,,
null,CORRECT,,html-keyboard-response,328,1283176,0.0-18.0-2.0-0.0,99772,List1A,white,man,,,,null,,,,
2135,"<img src=""portrait/BM2.jpg""style=""height:400px;""></img>",5,html-button-response,329,1285313,0.0-18.0-4.0,99772,List1A,white,man,,TRUE,5,,,,,
null,CORRECT,,html-keyboard-response,330,1286814,0.0-18.0-5.0-0.0,99772,List1A,white,man,,,,null,,,,
1401,"<img src=""portrait/WM1.jpg""style=""height:400px;""></img>",6,html-button-response,331,1288217,0.0-18.0-7.0,99772,List1A,white,man,,TRUE,6,,,,,
null,CORRECT,,html-keyboard-response,332,1289719,0.0-18.0-8.0-0.0,99772,List1A,white,man,,,,null,,,,
1848,"<img src=""portrait/BM1.jpg""style=""height:400px;""></img>",4,html-button-response,333,1291567,0.0-18.0-10.0,99772,List1A,white,man,,TRUE,4,,,,,
null,CORRECT,,html-keyboard-response,334,1293071,0.0-18.0-11.0-0.0,99772,List1A,white,man,,,,null,,,,
1468,"<img src=""portrait/WM2.jpg""style=""height:400px;""></img>",7,html-button-response,335,1294539,0.0-18.0-13.0,99772,List1A,white,man,,TRUE,7,,,,,
null,CORRECT,,html-keyboard-response,336,1296052,0.0-18.0-14.0-0.0,99772,List1A,white,man,,,,null,,,,
3477,"<img src=""portrait/WW1.jpg""style=""height:400px;""></img>",1,html-button-response,337,1299529,0.0-18.0-16.0,99772,List1A,white,man,,TRUE,1,,,,,
null,CORRECT,,html-keyboard-response,338,1301032,0.0-18.0-17.0-0.0,99772,List1A,white,man,,,,null,,,,
1850,"<img src=""portrait/BW1.jpg""style=""height:400px;""></img>",2,html-button-response,339,1302884,0.0-18.0-19.0,99772,List1A,white,man,,TRUE,0,,,,,
2501,"<img src=""portrait/BW1.jpg""style=""height:400px;""></img>",0,html-button-response,340,1306387,0.0-18.0-21.0-0.0,99772,List1A,white,man,,FALSE,0,,,,,
null,CORRECT,,html-keyboard-response,341,1307888,0.0-18.0-21.0-1.0-0.0,99772,List1A,white,man,,,,null,,,,
1733,"<img src=""portrait/WW2.jpg""style=""height:400px;""></img>",3,html-button-response,342,1309622,0.0-18.0-22.0,99772,List1A,white,man,,TRUE,3,,,,,
null,CORRECT,,html-keyboard-response,343,1311124,0.0-18.0-23.0-0.0,99772,List1A,white,man,,,,null,,,,
1359,<p>You got 7 out of 8 right first time. Press Continue.</p>,0,html-button-response,344,1312483,0.0-18.0-25.0,99772,List1A,white,man,,,,,,,,
1804,"As you did not score 100%, the memory game will repeat. Press Continue.",0,html-button-response,345,1315289,0.0-18.0-26.0-0.0,99772,List1A,white,man,,,,,,,,
1530,"<img src='img/portrait_matrix_list1.jpg' style='width:900px;height:500px;''></img><p>If you have memorised all the portraits and names and are ready to start, press Continue.</p><p><strong>Please note: Your memory of these faces will be tested 4 times during this experiment.</strong></p>",0,html-button-response,346,1317820,0.0-18.1-0.1,99772,List1A,white,man,,,,,,,,
1588,"<img src=""portrait/BW2.jpg""style=""height:400px;""></img>",2,html-button-response,347,1320409,0.0-18.1-1.1,99772,List1A,white,man,,TRUE,2,,,,,
null,CORRECT,,html-keyboard-response,348,1321912,0.0-18.1-2.1-0.1,99772,List1A,white,man,,,,null,,,,
1273,"<img src=""portrait/BM2.jpg""style=""height:400px;""></img>",5,html-button-response,349,1323186,0.0-18.1-4.1,99772,List1A,white,man,,TRUE,5,,,,,
null,CORRECT,,html-keyboard-response,350,1324689,0.0-18.1-5.1-0.1,99772,List1A,white,man,,,,null,,,,
1356,"<img src=""portrait/WM1.jpg""style=""height:400px;""></img>",6,html-button-response,351,1326046,0.0-18.1-7.1,99772,List1A,white,man,,TRUE,6,,,,,
null,CORRECT,,html-keyboard-response,352,1327548,0.0-18.1-8.1-0.1,99772,List1A,white,man,,,,null,,,,
2142,"<img src=""portrait/BM1.jpg""style=""height:400px;""></img>",4,html-button-response,353,1329692,0.0-18.1-10.1,99772,List1A,white,man,,TRUE,4,,,,,
null,CORRECT,,html-keyboard-response,354,1331194,0.0-18.1-11.1-0.1,99772,List1A,white,man,,,,null,,,,
1190,"<img src=""portrait/WM2.jpg""style=""height:400px;""></img>",7,html-button-response,355,1332386,0.0-18.1-13.1,99772,List1A,white,man,,TRUE,7,,,,,
null,CORRECT,,html-keyboard-response,356,1333888,0.0-18.1-14.1-0.1,99772,List1A,white,man,,,,null,,,,
1180,"<img src=""portrait/WW1.jpg""style=""height:400px;""></img>",1,html-button-response,357,1335070,0.0-18.1-16.1,99772,List1A,white,man,,TRUE,1,,,,,
null,CORRECT,,html-keyboard-response,358,1336572,0.0-18.1-17.1-0.1,99772,List1A,white,man,,,,null,,,,
1022,"<img src=""portrait/BW1.jpg""style=""height:400px;""></img>",0,html-button-response,359,1337595,0.0-18.1-19.1,99772,List1A,white,man,,TRUE,0,,,,,
null,CORRECT,,html-keyboard-response,360,1339108,0.0-18.1-20.1-0.1,99772,List1A,white,man,,,,null,,,,
1542,"<img src=""portrait/WW2.jpg""style=""height:400px;""></img>",3,html-button-response,361,1340651,0.0-18.1-22.1,99772,List1A,white,man,,TRUE,3,,,,,
null,CORRECT,,html-keyboard-response,362,1342155,0.0-18.1-23.1-0.1,99772,List1A,white,man,,,,null,,,,
1457,<p>You got 8 out of 8 right first time. Press Continue.</p>,0,html-button-response,363,1343613,0.0-18.1-25.1,99772,List1A,white,man,,,,,,,,
null,"<div style=""font-size:60px;"">+</div>",,html-keyboard-response,364,1345117,0.0-19.0-0.0,99772,List1A,white,man,,,,null,,,,
null,"<img src=""stim_listA/touch7.gif""style=""height:400px;""></stim_listA>",,html-keyboard-response,365,1347120,0.0-19.0-1.0,99772,List1A,white,man,,,,null,,,,
null,is touching,,html-keyboard-response,366,1349121,0.0-19.0-2.0,99772,List1A,white,man,,,,null,,,,
7341,,,survey-text,367,1356464,0.0-19.0-3.0,99772,List1A,white,man,,,,,"{""Q0"":""kate is touching jane""}","<img src=""stim_listA/touch7.gif""style=""height:400px;""></stim_listA>",is touching,
null,"<div style=""font-size:60px;"">+</div>",,html-keyboard-response,368,1356970,0.0-19.0-0.1,99772,List1A,white,man,,,,null,,,,
null,"<img src=""stim_listA/argue2.gif""style=""height:400px;""></stim_listA>",,html-keyboard-response,369,1358971,0.0-19.0-1.1,99772,List1A,white,man,,,,null,,,,
null,are arguing with each other,,html-keyboard-response,370,1360972,0.0-19.0-2.1,99772,List1A,white,man,,,,null,,,,
10010,,,survey-text,371,1370984,0.0-19.0-3.1,99772,List1A,white,man,,,,,"{""Q0"":""kate and fred are arguing with each other""}","<img src=""stim_listA/argue2.gif""style=""height:400px;""></stim_listA>",are arguing with each other,
null,"<div style=""font-size:60px;"">+</div>",,html-keyboard-response,372,1371485,0.0-19.0-0.2,99772,List1A,white,man,,,,null,,,,
null,"<img src=""stim_listA/fight7.gif""style=""height:400px;""></stim_listA>",,html-keyboard-response,373,1373486,0.0-19.0-1.2,99772,List1A,white,man,,,,null,,,,
null,is fighting,,html-keyboard-response,374,1375487,0.0-19.0-2.2,99772,List1A,white,man,,,,null,,,,
13703,,,survey-text,375,1389191,0.0-19.0-3.2,99772,List1A,white,man,,,,,"{""Q0"":""kate is fighting jane""}","<img src=""stim_listA/fight7.gif""style=""height:400px;""></stim_listA>",is fighting,
null,"<div style=""font-size:60px;"">+</div>",,html-keyboard-response,376,1389702,0.0-19.0-0.3,99772,List1A,white,man,,,,null,,,,
null,"<img src=""stim_listA/argue4.gif""style=""height:400px;""></stim_listA>",,html-keyboard-response,377,1391704,0.0-19.0-1.3,99772,List1A,white,man,,,,null,,,,
null,are arguing with each other,,html-keyboard-response,378,1393714,0.0-19.0-2.3,99772,List1A,white,man,,,,null,,,,
11125,,,survey-text,379,1404839,0.0-19.0-3.3,99772,List1A,white,man,,,,,"{""Q0"":""jane and luke are arguing with each other""}","<img src=""stim_listA/argue4.gif""style=""height:400px;""></stim_listA>",are arguing with each other,
null,"<div style=""font-size:60px;"">+</div>",,html-keyboard-response,380,1405340,0.0-19.0-0.4,99772,List1A,white,man,,,,null,,,,
null,"<img src=""stim_listA/play5.gif""style=""height:400px;""></stim_listA>",,html-keyboard-response,381,1407342,0.0-19.0-1.4,99772,List1A,white,man,,,,null,,,,
null,is playing with,,html-keyboard-response,382,1409344,0.0-19.0-2.4,99772,List1A,white,man,,,,null,,,,
7028,,,survey-text,383,1416374,0.0-19.0-3.4,99772,List1A,white,man,,,,,"{""Q0"":""mike is playing with dave""}","<img src=""stim_listA/play5.gif""style=""height:400px;""></stim_listA>",is playing with,
null,"<div style=""font-size:60px;"">+</div>",,html-keyboard-response,384,1416874,0.0-19.0-0.5,99772,List1A,white,man,,,,null,,,,
null,"<img src=""stim_listA/flirt8.gif""style=""height:400px;""></stim_listA>",,html-keyboard-response,385,1418876,0.0-19.0-1.5,99772,List1A,white,man,,,,null,,,,
null,are flirting with each other,,html-keyboard-response,386,1420877,0.0-19.0-2.5,99772,List1A,white,man,,,,null,,,,
12506,,,survey-text,387,1433384,0.0-19.0-3.5,99772,List1A,white,man,,,,,"{""Q0"":""ruth and kate are flirting with each other""}","<img src=""stim_listA/flirt8.gif""style=""height:400px;""></stim_listA>",are flirting with each other,
null,"<div style=""font-size:60px;"">+</div>",,html-keyboard-response,388,1433886,0.0-19.0-0.6,99772,List1A,white,man,,,,null,,,,
null,"<img src=""stim_listA/play8.gif""style=""height:400px;""></stim_listA>",,html-keyboard-response,389,1435888,0.0-19.0-1.6,99772,List1A,white,man,,,,null,,,,
null,are playing with each other,,html-keyboard-response,390,1437890,0.0-19.0-2.6,99772,List1A,white,man,,,,null,,,,
8773,,,survey-text,391,1446663,0.0-19.0-3.6,99772,List1A,white,man,,,,,"{""Q0"":""ruth and beth are playing each other""}","<img src=""stim_listA/play8.gif""style=""height:400px;""></stim_listA>",are playing with each other,
null,"<div style=""font-size:60px;"">+</div>",,html-keyboard-response,392,1447169,0.0-19.0-0.7,99772,List1A,white,man,,,,null,,,,
null,"<img src=""stim_listA/kiss2.gif""style=""height:400px;""></stim_listA>",,html-keyboard-response,393,1449182,0.0-19.0-1.7,99772,List1A,white,man,,,,null,,,,
null,are kissing each other,,html-keyboard-response,394,1451183,0.0-19.0-2.7,99772,List1A,white,man,,,,null,,,,
8720,,,survey-text,395,1459905,0.0-19.0-3.7,99772,List1A,white,man,,,,,"{""Q0"":""kate and mike are kissing each other""}","<img src=""stim_listA/kiss2.gif""style=""height:400px;""></stim_listA>",are kissing each other,
null,"<div style=""font-size:60px;"">+</div>",,html-keyboard-response,396,1460406,0.0-19.0-0.8,99772,List1A,white,man,,,,null,,,,
null,"<img src=""stim_listA/kiss4.gif""style=""height:400px;""></stim_listA>",,html-keyboard-response,397,1462410,0.0-19.0-1.8,99772,List1A,white,man,,,,null,,,,
null,are kissing each other,,html-keyboard-response,398,1464418,0.0-19.0-2.8,99772,List1A,white,man,,,,null,,,,
9426,,,survey-text,399,1473845,0.0-19.0-3.8,99772,List1A,white,man,,,,,"{""Q0"":""jane and dave are kissing each other""}","<img src=""stim_listA/kiss4.gif""style=""height:400px;""></stim_listA>",are kissing each other,
null,"<div style=""font-size:60px;"">+</div>",,html-keyboard-response,400,1474353,0.0-19.0-0.9,99772,List1A,white,man,,,,null,,,,
null,"<img src=""stim_listA/talk7.gif""style=""height:400px;""></stim_listA>",,html-keyboard-response,401,1476355,0.0-19.0-1.9,99772,List1A,white,man,,,,null,,,,
null,is talking to,,html-keyboard-response,402,1478357,0.0-19.0-2.9,99772,List1A,white,man,,,,null,,,,
6670,,,survey-text,403,1485028,0.0-19.0-3.9,99772,List1A,white,man,,,,,"{""Q0"":""jane is talking to beth""}","<img src=""stim_listA/talk7.gif""style=""height:400px;""></stim_listA>",is talking to,
null,"<div style=""font-size:60px;"">+</div>",,html-keyboard-response,404,1485529,0.0-19.0-0.10,99772,List1A,white,man,,,,null,,,,
null,"<img src=""stim_listA/play3.gif""style=""height:400px;""></stim_listA>",,html-keyboard-response,405,1487531,0.0-19.0-1.10,99772,List1A,white,man,,,,null,,,,
null,is playing with,,html-keyboard-response,406,1489531,0.0-19.0-2.10,99772,List1A,white,man,,,,null,,,,
6192,,,survey-text,407,1495724,0.0-19.0-3.10,99772,List1A,white,man,,,,,"{""Q0"":""jane is playing with dave""}","<img src=""stim_listA/play3.gif""style=""height:400px;""></stim_listA>",is playing with,
null,"<div style=""font-size:60px;"">+</div>",,html-keyboard-response,408,1496229,0.0-19.0-0.11,99772,List1A,white,man,,,,null,,,,
null,"<img src=""stim_listA/marry4.gif""style=""height:400px;""></stim_listA>",,html-keyboard-response,409,1498231,0.0-19.0-1.11,99772,List1A,white,man,,,,null,,,,
null,are marrying each other,,html-keyboard-response,410,1500232,0.0-19.0-2.11,99772,List1A,white,man,,,,null,,,,
9066,,,survey-text,411,1509299,0.0-19.0-3.11,99772,List1A,white,man,,,,,"{""Q0"":""jane and luke are marrying each other""}","<img src=""stim_listA/marry4.gif""style=""height:400px;""></stim_listA>",are marrying each other,
null,"<div style=""font-size:60px;"">+</div>",,html-keyboard-response,412,1509801,0.0-19.0-0.12,99772,List1A,white,man,,,,null,,,,
null,"<img src=""stim_listA/fight3.gif""style=""height:400px;""></stim_listA>",,html-keyboard-response,413,1511803,0.0-19.0-1.12,99772,List1A,white,man,,,,null,,,,
null,is fighting,,html-keyboard-response,414,1513804,0.0-19.0-2.12,99772,List1A,white,man,,,,null,,,,
5984,,,survey-text,415,1519790,0.0-19.0-3.12,99772,List1A,white,man,,,,,"{""Q0"":""jane is fighting dave""}","<img src=""stim_listA/fight3.gif""style=""height:400px;""></stim_listA>",is fighting,
null,"<div style=""font-size:60px;"">+</div>",,html-keyboard-response,416,1520291,0.0-19.0-0.13,99772,List1A,white,man,,,,null,,,,
null,"<img src=""stim_listA/kiss6.gif""style=""height:400px;""></stim_listA>",,html-keyboard-response,417,1522292,0.0-19.0-1.13,99772,List1A,white,man,,,,null,,,,
null,are kissing each other,,html-keyboard-response,418,1524293,0.0-19.0-2.13,99772,List1A,white,man,,,,null,,,,
8672,,,survey-text,419,1532966,0.0-19.0-3.13,99772,List1A,white,man,,,,,"{""Q0"":""dave and mike are kissing each other""}","<img src=""stim_listA/kiss6.gif""style=""height:400px;""></stim_listA>",are kissing each other,
null,"<div style=""font-size:60px;"">+</div>",,html-keyboard-response,420,1533467,0.0-19.0-0.14,99772,List1A,white,man,,,,null,,,,
null,"<img src=""stim_listA/touch3.gif""style=""height:400px;""></stim_listA>",,html-keyboard-response,421,1535469,0.0-19.0-1.14,99772,List1A,white,man,,,,null,,,,
null,is touching,,html-keyboard-response,422,1537470,0.0-19.0-2.14,99772,List1A,white,man,,,,null,,,,
5956,,,survey-text,423,1543427,0.0-19.0-3.14,99772,List1A,white,man,,,,,"{""Q0"":""jane is touching dave""}","<img src=""stim_listA/touch3.gif""style=""height:400px;""></stim_listA>",is touching,
null,"<div style=""font-size:60px;"">+</div>",,html-keyboard-response,424,1543928,0.0-19.0-0.15,99772,List1A,white,man,,,,null,,,,
null,"<img src=""stim_listA/shout6.gif""style=""height:400px;""></stim_listA>",,html-keyboard-response,425,1545930,0.0-19.0-1.15,99772,List1A,white,man,,,,null,,,,
null,are shouting at each other,,html-keyboard-response,426,1547931,0.0-19.0-2.15,99772,List1A,white,man,,,,null,,,,
9440,,,survey-text,427,1557373,0.0-19.0-3.15,99772,List1A,white,man,,,,,"{""Q0"":""dave and mike are shouting at each other""}","<img src=""stim_listA/shout6.gif""style=""height:400px;""></stim_listA>",are shouting at each other,
null,"<div style=""font-size:60px;"">+</div>",,html-keyboard-response,428,1557874,0.0-19.0-0.16,99772,List1A,white,man,,,,null,,,,
null,"<img src=""stim_listA/touch4.gif""style=""height:400px;""></stim_listA>",,html-keyboard-response,429,1559875,0.0-19.0-1.16,99772,List1A,white,man,,,,null,,,,
null,are touching each other,,html-keyboard-response,430,1561877,0.0-19.0-2.16,99772,List1A,white,man,,,,null,,,,
8595,,,survey-text,431,1570472,0.0-19.0-3.16,99772,List1A,white,man,,,,,"{""Q0"":""ruth and luke are touching each other""}","<img src=""stim_listA/touch4.gif""style=""height:400px;""></stim_listA>",are touching each other,
null,"<div style=""font-size:60px;"">+</div>",,html-keyboard-response,432,1570974,0.0-19.0-0.17,99772,List1A,white,man,,,,null,,,,
null,"<img src=""stim_listA/dance6.gif""style=""height:400px;""></stim_listA>",,html-keyboard-response,433,1572976,0.0-19.0-1.17,99772,List1A,white,man,,,,null,,,,
null,are dancing with each other,,html-keyboard-response,434,1574977,0.0-19.0-2.17,99772,List1A,white,man,,,,null,,,,
11101,,,survey-text,435,1586080,0.0-19.0-3.17,99772,List1A,white,man,,,,,"{""Q0"":""mike and luke are dancing with each other""}","<img src=""stim_listA/dance6.gif""style=""height:400px;""></stim_listA>",are dancing with each other,
null,"<div style=""font-size:60px;"">+</div>",,html-keyboard-response,436,1586581,0.0-19.0-0.18,99772,List1A,white,man,,,,null,,,,
null,"<img src=""stim_listA/shout2.gif""style=""height:400px;""></stim_listA>",,html-keyboard-response,437,1588582,0.0-19.0-1.18,99772,List1A,white,man,,,,null,,,,
null,are shouting at each other,,html-keyboard-response,438,1590588,0.0-19.0-2.18,99772,List1A,white,man,,,,null,,,,
9379,,,survey-text,439,1599968,0.0-19.0-3.18,99772,List1A,white,man,,,,,"{""Q0"":""kate and mike are shouting at each other""}","<img src=""stim_listA/shout2.gif""style=""height:400px;""></stim_listA>",are shouting at each other,
null,"<div style=""font-size:60px;"">+</div>",,html-keyboard-response,440,1600475,0.0-19.0-0.19,99772,List1A,white,man,,,,null,,,,
null,"<img src=""stim_listA/play1.gif""style=""height:400px;""></stim_listA>",,html-keyboard-response,441,1602476,0.0-19.0-1.19,99772,List1A,white,man,,,,null,,,,
null,is playing with,,html-keyboard-response,442,1604478,0.0-19.0-2.19,99772,List1A,white,man,,,,null,,,,
6289,,,survey-text,443,1610767,0.0-19.0-3.19,99772,List1A,white,man,,,,,"{""Q0"":""kate is playing with mike""}","<img src=""stim_listA/play1.gif""style=""height:400px;""></stim_listA>",is playing with,
2456,<p>Thank you for completing that task.</p><p>The final part of this session is a short questionnaire.</p><p>Press Continue.</p>,0,html-button-response,444,1613224,0.0-20.0,99772,List1A,white,man,,,,,,,,
23050,,,survey-text,445,1637276,0.0-21.0,99772,List1A,white,man,,,,,"{""Q0"":""41"",""Q1"":""english"",""Q2"":""english"",""Q3"":""USA"",""Q4"":""white"",""Q5"":""male""}",,,demographics
6431,,,survey-likert,446,1643709,0.0-22.0,99772,List1A,white,man,,,,,"{""Q0"":4}",,,likert_ESS
4256,,,survey-likert,447,1647967,0.0-23.0,99772,List1A,white,man,,,,,"{""Q0"":4}",,,likert_NSSAL_Q1
4572,,,survey-likert,448,1652541,0.0-24.0,99772,List1A,white,man,,,,,"{""Q0"":4}",,,likert_NSSAL_Q2
3727,,,survey-likert,449,1656270,0.0-25.0,99772,List1A,white,man,,,,,"{""Q0"":4}",,,likert_CGRS_Q1
4328,,,survey-likert,450,1660599,0.0-26.0,99772,List1A,white,man,,,,,"{""Q0"":4}",,,likert_CGRS_Q2
3094,,,survey-likert,451,1663694,0.0-27.0,99772,List1A,white,man,,,,,"{""Q0"":4}",,,likert_CGRS_Q3
4712,,,survey-text,452,1668407,0.0-28.0,99772,List1A,white,man,,,,,"{""Q0"":""ccc""}",,,worker_id
31067,,,external-html,453,1699715,0.0-29.0,99772,List1A,white,man,debrief.html,,,,,,,
