rt,stimulus,button_pressed,choices,ChosenStimulus,trial_type,trial_index,time_elapsed,internal_node_id,subject_id,study_id,session_id,subject,list,ppt_gender,url,key_press,sentence_type,verb,test_part,responses,question_order,left_part,right_part,name_order
3869.7999999970198,Welcome to the experiment. Press Continue to begin.,0,Continue,Continue,html-button-response,0,3875,0.0-0.0,anomymised,6564584152624795c40b73cb,6564bdab9218a38ad04ae0c3,11421,1A,woman,NA,NA,NA,NA,NA,NA,NA,NA,NA,NA
36158,NA,NA,NA,NA,external-html,1,41090,0.0-1.0,anomymised,6564584152624795c40b73cb,6564bdab9218a38ad04ae0c3,11421,1A,woman,consent.html,NA,NA,NA,NA,NA,NA,NA,NA,NA
59788.199999999255,"<p>Welcome.</p><p>In this experiment we will ask you to imagine people's motivations for saying sentences.</p><p>Each trial will begin with a sentence that somebody might say to describe an event involving two different people.</p><p>For instance, someone might say <em>Harry is being recruited by Molly</em></p><p>We want you to think about which of those two people (Molly and Harry) the speaker identifies more with. For instance, why did the speaker say <em>Harry is being recruited by Molly</em> rather than <em> Molly is recruiting Harry</em>? Might that mean that the speaker is socially closer to one of the two characters?</p><p>After you have read the sentence, you will rate on a scale which of the two characters the speaker identifies more with.</p><p>You will give your answer by clicking a button on a rating scale.</p><p>Sometimes there will also be catch questions designed to make sure that you are paying attention, which ask about a different topic.</p><p>To do this task, you will have to use your imagination to think about and visualise the events, and how the speaker might relate to the characters.</p><br><p>Ready?</p>",0,Continue,Continue,html-button-response,2,100882,0.0-2.0,anomymised,6564584152624795c40b73cb,6564bdab9218a38ad04ae0c3,11421,1A,woman,NA,NA,NA,NA,NA,NA,NA,NA,NA,NA
3712.60000000149,"<p>Before the experiment starts, we will show you an example of how you will answer the questions. Press 'Continue'.</p>",0,Continue,Continue,html-button-response,3,105609,0.0-3.0,anomymised,6564584152624795c40b73cb,6564bdab9218a38ad04ae0c3,11421,1A,woman,NA,NA,NA,NA,NA,NA,NA,NA,NA,NA
null,Somebody says <br><em>Samuel is dining with Frank</em>,NA,NA,NA,html-keyboard-response,4,108620,0.0-4.0,anomymised,6564584152624795c40b73cb,6564bdab9218a38ad04ae0c3,11421,1A,woman,NA,null,NA,NA,NA,NA,NA,NA,NA,NA
37155.800000000745,<img src='img/Example-trial.jpg' style='height:550px;''></img>,0,Continue,Continue,html-button-response,5,145778,0.0-5.0,anomymised,6564584152624795c40b73cb,6564bdab9218a38ad04ae0c3,11421,1A,woman,NA,NA,NA,NA,NA,NA,NA,NA,NA,NA
3260.400000002235,<p>Ready to start the experiment?</p><br><p><strong>Remember to give an answer by clicking a button on the rating scale.</strong></p><p>Press 'Continue' to begin.</p>,0,Continue,Continue,html-button-response,6,150042,0.0-6.0,anomymised,6564584152624795c40b73cb,6564bdab9218a38ad04ae0c3,11421,1A,woman,NA,NA,NA,NA,NA,NA,NA,NA,NA,NA
null,Somebody says<br><em>Mike and Fred are hugging each other</em>,NA,NA,NA,html-keyboard-response,7,153064,0.0-7.0-0.0,anomymised,6564584152624795c40b73cb,6564bdab9218a38ad04ae0c3,11421,1A,woman,NA,null,NAME1 and NAME2 are hugging each other,hug_conjoined,sentence,NA,NA,NA,NA,NA
13511.400000002235,NA,NA,NA,NA,survey-likert-extra-labels,8,166579,0.0-7.0-1.0,anomymised,6564584152624795c40b73cb,6564bdab9218a38ad04ae0c3,11421,1A,woman,NA,NA,Somebody says<br><em>Mike and Fred are hugging each other</em>,hug_conjoined,rating_volition,"{""Q0"":1}",[0],The speaker identifies more with <br>Mike than Fred,The speaker identifies more with<br>Fred than Mike,left_to_right
null,Somebody says<br><em>Dave is dancing with Kate</em>,NA,NA,NA,html-keyboard-response,9,168584,0.0-8.0-0.0,anomymised,6564584152624795c40b73cb,6564bdab9218a38ad04ae0c3,11421,1A,woman,NA,null,NAME1 is dancing with NAME2,dance_active,sentence,NA,NA,NA,NA,NA
9905.10000000149,NA,NA,NA,NA,survey-likert-extra-labels,10,178492,0.0-8.0-1.0,anomymised,6564584152624795c40b73cb,6564bdab9218a38ad04ae0c3,11421,1A,woman,NA,NA,Somebody says<br><em>Dave is dancing with Kate</em>,dance_active,rating_volition,"{""Q0"":1}",[0],The speaker identifies more with <br>Dave than Kate,The speaker identifies more with<br>Kate than Dave,left_to_right
null,Somebody says<br><em>Dave is being kissed by Mike</em>,NA,NA,NA,html-keyboard-response,11,180495,0.0-9.0-0.0,anomymised,6564584152624795c40b73cb,6564bdab9218a38ad04ae0c3,11421,1A,woman,NA,null,NAME1 is being kissed by NAME2,kiss_passive,sentence,NA,NA,NA,NA,NA
7738.60000000149,NA,NA,NA,NA,survey-likert-extra-labels,12,188237,0.0-9.0-1.0,anomymised,6564584152624795c40b73cb,6564bdab9218a38ad04ae0c3,11421,1A,woman,NA,NA,Somebody says<br><em>Dave is being kissed by Mike</em>,kiss_passive,rating_volition,"{""Q0"":5}",[0],The speaker identifies more with <br>Mike than Dave,The speaker identifies more with<br>Dave than Mike,right_to_left
null,Somebody says<br><em>Luke and Fred are arguing with each other</em>,NA,NA,NA,html-keyboard-response,13,190239,0.0-10.0-0.0,anomymised,6564584152624795c40b73cb,6564bdab9218a38ad04ae0c3,11421,1A,woman,NA,null,NAME1 and NAME2 are arguing with each other,argue_conjoined,sentence,NA,NA,NA,NA,NA
7673.5,NA,NA,NA,NA,survey-likert-extra-labels,14,197914,0.0-10.0-1.0,anomymised,6564584152624795c40b73cb,6564bdab9218a38ad04ae0c3,11421,1A,woman,NA,NA,Somebody says<br><em>Luke and Fred are arguing with each other</em>,argue_conjoined,rating_volition,"{""Q0"":0}",[0],The speaker identifies more with <br>Luke than Fred,The speaker identifies more with<br>Fred than Luke,left_to_right
null,Somebody says<br><em>Ruth is shouting at Fred</em>,NA,NA,NA,html-keyboard-response,15,199918,0.0-11.0-0.0,anomymised,6564584152624795c40b73cb,6564bdab9218a38ad04ae0c3,11421,1A,woman,NA,null,NAME1 is shouting at NAME2,shout_active,sentence,NA,NA,NA,NA,NA
17409.5,NA,NA,NA,NA,survey-likert-extra-labels,16,217331,0.0-11.0-1.0,anomymised,6564584152624795c40b73cb,6564bdab9218a38ad04ae0c3,11421,1A,woman,NA,NA,Somebody says<br><em>Ruth is shouting at Fred</em>,shout_active,rating_volition,"{""Q0"":3}",[0],The speaker identifies more with <br>Fred than Ruth,The speaker identifies more with<br>Ruth than Fred,right_to_left
null,Somebody says<br><em>Ruth is challenging Kate</em>,NA,NA,NA,html-keyboard-response,17,219334,0.0-12.0-0.0,anomymised,6564584152624795c40b73cb,6564bdab9218a38ad04ae0c3,11421,1A,woman,NA,null,NAME1 is challenging NAME2,challenge_active,sentence,NA,NA,NA,NA,NA
7929.400000002235,NA,NA,NA,NA,survey-likert-extra-labels,18,227267,0.0-12.0-1.0,anomymised,6564584152624795c40b73cb,6564bdab9218a38ad04ae0c3,11421,1A,woman,NA,NA,Somebody says<br><em>Ruth is challenging Kate</em>,challenge_active,rating_volition,"{""Q0"":2}",[0],The speaker identifies more with <br>Ruth than Kate,The speaker identifies more with<br>Kate than Ruth,left_to_right
null,Somebody says<br><em>Fred is copying Beth</em>,NA,NA,NA,html-keyboard-response,19,229284,0.0-13.0-0.0,anomymised,6564584152624795c40b73cb,6564bdab9218a38ad04ae0c3,11421,1A,woman,NA,null,NAME1 is copying NAME2,copy_active,sentence,NA,NA,NA,NA,NA
15859.400000002235,NA,NA,NA,NA,survey-likert-extra-labels,20,245146,0.0-13.0-1.0,anomymised,6564584152624795c40b73cb,6564bdab9218a38ad04ae0c3,11421,1A,woman,NA,NA,Somebody says<br><em>Fred is copying Beth</em>,copy_active,rating_volition,"{""Q0"":2}",[0],The speaker identifies more with <br>Beth than Fred,The speaker identifies more with<br>Fred than Beth,right_to_left
null,Somebody says<br><em>Jane is hugging Beth</em>,NA,NA,NA,html-keyboard-response,21,247150,0.0-14.0-0.0,anomymised,6564584152624795c40b73cb,6564bdab9218a38ad04ae0c3,11421,1A,woman,NA,null,NAME1 is hugging NAME2,hug_active,sentence,NA,NA,NA,NA,NA
4546,NA,NA,NA,NA,survey-likert-extra-labels,22,251698,0.0-14.0-1.0,anomymised,6564584152624795c40b73cb,6564bdab9218a38ad04ae0c3,11421,1A,woman,NA,NA,Somebody says<br><em>Jane is hugging Beth</em>,hug_active,rating_volition,"{""Q0"":6}",[0],The speaker identifies more with <br>Beth than Jane,The speaker identifies more with<br>Jane than Beth,right_to_left
null,Somebody says<br><em>Luke is driving Fred,NA,NA,NA,html-keyboard-response,23,253709,0.0-15.0-0.0,anomymised,6564584152624795c40b73cb,6564bdab9218a38ad04ae0c3,11421,1A,woman,NA,null,M1 is driving M3,drive,sentence,NA,NA,NA,NA,NA
10476.800000000745,NA,NA,NA,NA,survey-likert-extra-labels,24,264187,0.0-15.0-1.0,anomymised,6564584152624795c40b73cb,6564bdab9218a38ad04ae0c3,11421,1A,woman,NA,NA,Somebody says<br><em>Luke is driving Fred,drive,rating_volition,"{""Q0"":1}",[0],Luke is Fred's passenger,Fred is Luke's passenger,NA
null,Somebody says<br><em>Jane and Fred are fighting with each other</em>,NA,NA,NA,html-keyboard-response,25,266205,0.0-16.0-0.0,anomymised,6564584152624795c40b73cb,6564bdab9218a38ad04ae0c3,11421,1A,woman,NA,null,NAME1 and NAME2 are fighting with each other,fight_conjoined,sentence,NA,NA,NA,NA,NA
6356.60000000149,NA,NA,NA,NA,survey-likert-extra-labels,26,272564,0.0-16.0-1.0,anomymised,6564584152624795c40b73cb,6564bdab9218a38ad04ae0c3,11421,1A,woman,NA,NA,Somebody says<br><em>Jane and Fred are fighting with each other</em>,fight_conjoined,rating_volition,"{""Q0"":5}",[0],The speaker identifies more with <br>Fred than Jane,The speaker identifies more with<br>Jane than Fred,right_to_left
null,Somebody says<br><em>Beth is being hugged by Ruth</em>,NA,NA,NA,html-keyboard-response,27,274567,0.0-17.0-0.0,anomymised,6564584152624795c40b73cb,6564bdab9218a38ad04ae0c3,11421,1A,woman,NA,null,NAME1 is being hugged by NAME2,hug_passive,sentence,NA,NA,NA,NA,NA
21207.699999999255,NA,NA,NA,NA,survey-likert-extra-labels,28,295778,0.0-17.0-1.0,anomymised,6564584152624795c40b73cb,6564bdab9218a38ad04ae0c3,11421,1A,woman,NA,NA,Somebody says<br><em>Beth is being hugged by Ruth</em>,hug_passive,rating_volition,"{""Q0"":2}",[0],The speaker identifies more with <br>Beth than Ruth,The speaker identifies more with<br>Ruth than Beth,left_to_right
null,Somebody says<br><em>Beth is being copied by Luke</em>,NA,NA,NA,html-keyboard-response,29,297787,0.0-18.0-0.0,anomymised,6564584152624795c40b73cb,6564bdab9218a38ad04ae0c3,11421,1A,woman,NA,null,NAME1 is being copied by NAME2,copy_passive,sentence,NA,NA,NA,NA,NA
5470.39999999851,NA,NA,NA,NA,survey-likert-extra-labels,30,303259,0.0-18.0-1.0,anomymised,6564584152624795c40b73cb,6564bdab9218a38ad04ae0c3,11421,1A,woman,NA,NA,Somebody says<br><em>Beth is being copied by Luke</em>,copy_passive,rating_volition,"{""Q0"":4}",[0],The speaker identifies more with <br>Luke than Beth,The speaker identifies more with<br>Beth than Luke,right_to_left
null,Somebody says<br><em>Jane is opposing Ruth</em>,NA,NA,NA,html-keyboard-response,31,305268,0.0-19.0-0.0,anomymised,6564584152624795c40b73cb,6564bdab9218a38ad04ae0c3,11421,1A,woman,NA,null,NAME1 is opposing NAME2,oppose_active,sentence,NA,NA,NA,NA,NA
8532.699999999255,NA,NA,NA,NA,survey-likert-extra-labels,32,313803,0.0-19.0-1.0,anomymised,6564584152624795c40b73cb,6564bdab9218a38ad04ae0c3,11421,1A,woman,NA,NA,Somebody says<br><em>Jane is opposing Ruth</em>,oppose_active,rating_volition,"{""Q0"":5}",[0],The speaker identifies more with <br>Ruth than Jane,The speaker identifies more with<br>Jane than Ruth,right_to_left
null,Somebody says<br><em>Fred is touching Jane</em>,NA,NA,NA,html-keyboard-response,33,315830,0.0-20.0-0.0,anomymised,6564584152624795c40b73cb,6564bdab9218a38ad04ae0c3,11421,1A,woman,NA,null,NAME1 is touching NAME2,touch_active,sentence,NA,NA,NA,NA,NA
9377.5,NA,NA,NA,NA,survey-likert-extra-labels,34,325210,0.0-20.0-1.0,anomymised,6564584152624795c40b73cb,6564bdab9218a38ad04ae0c3,11421,1A,woman,NA,NA,Somebody says<br><em>Fred is touching Jane</em>,touch_active,rating_volition,"{""Q0"":2}",[0],The speaker identifies more with <br>Jane than Fred,The speaker identifies more with<br>Fred than Jane,right_to_left
null,Somebody says<br><em>Beth is arguing with Jane</em>,NA,NA,NA,html-keyboard-response,35,327214,0.0-21.0-0.0,anomymised,6564584152624795c40b73cb,6564bdab9218a38ad04ae0c3,11421,1A,woman,NA,null,NAME1 is arguing with NAME2,argue_active,sentence,NA,NA,NA,NA,NA
5096.699999999255,NA,NA,NA,NA,survey-likert-extra-labels,36,332314,0.0-21.0-1.0,anomymised,6564584152624795c40b73cb,6564bdab9218a38ad04ae0c3,11421,1A,woman,NA,NA,Somebody says<br><em>Beth is arguing with Jane</em>,argue_active,rating_volition,"{""Q0"":5}",[0],The speaker identifies more with <br>Jane than Beth,The speaker identifies more with<br>Beth than Jane,right_to_left
null,Somebody says<br><em>Luke and Dave are talking with each other</em>,NA,NA,NA,html-keyboard-response,37,334317,0.0-22.0-0.0,anomymised,6564584152624795c40b73cb,6564bdab9218a38ad04ae0c3,11421,1A,woman,NA,null,NAME1 and NAME2 are talking with each other,talk_conjoined,sentence,NA,NA,NA,NA,NA
4106.60000000149,NA,NA,NA,NA,survey-likert-extra-labels,38,338427,0.0-22.0-1.0,anomymised,6564584152624795c40b73cb,6564bdab9218a38ad04ae0c3,11421,1A,woman,NA,NA,Somebody says<br><em>Luke and Dave are talking with each other</em>,talk_conjoined,rating_volition,"{""Q0"":0}",[0],The speaker identifies more with <br>Luke than Dave,The speaker identifies more with<br>Dave than Luke,left_to_right
null,Somebody says<br><em>Beth and Mike are dancing with each other</em>,NA,NA,NA,html-keyboard-response,39,340429,0.0-23.0-0.0,anomymised,6564584152624795c40b73cb,6564bdab9218a38ad04ae0c3,11421,1A,woman,NA,null,NAME1 and NAME2 are dancing with each other,dance_conjoined,sentence,NA,NA,NA,NA,NA
3947.300000000745,NA,NA,NA,NA,survey-likert-extra-labels,40,344378,0.0-23.0-1.0,anomymised,6564584152624795c40b73cb,6564bdab9218a38ad04ae0c3,11421,1A,woman,NA,NA,Somebody says<br><em>Beth and Mike are dancing with each other</em>,dance_conjoined,rating_volition,"{""Q0"":1}",[0],The speaker identifies more with <br>Beth than Mike,The speaker identifies more with<br>Mike than Beth,left_to_right
null,Somebody says<br><em>Mike is marrying Fred</em>,NA,NA,NA,html-keyboard-response,41,346381,0.0-24.0-0.0,anomymised,6564584152624795c40b73cb,6564bdab9218a38ad04ae0c3,11421,1A,woman,NA,null,NAME1 is marrying NAME2,marry_active,sentence,NA,NA,NA,NA,NA
2573.199999999255,NA,NA,NA,NA,survey-likert-extra-labels,42,348956,0.0-24.0-1.0,anomymised,6564584152624795c40b73cb,6564bdab9218a38ad04ae0c3,11421,1A,woman,NA,NA,Somebody says<br><em>Mike is marrying Fred</em>,marry_active,rating_volition,"{""Q0"":6}",[0],The speaker identifies more with <br>Fred than Mike,The speaker identifies more with<br>Mike than Fred,right_to_left
null,Somebody says<br><em>Beth and Fred are shouting at each other</em>,NA,NA,NA,html-keyboard-response,43,350965,0.0-25.0-0.0,anomymised,6564584152624795c40b73cb,6564bdab9218a38ad04ae0c3,11421,1A,woman,NA,null,NAME1 and NAME2 are shouting at each other,shout_conjoined,sentence,NA,NA,NA,NA,NA
5005.199999999255,NA,NA,NA,NA,survey-likert-extra-labels,44,355972,0.0-25.0-1.0,anomymised,6564584152624795c40b73cb,6564bdab9218a38ad04ae0c3,11421,1A,woman,NA,NA,Somebody says<br><em>Beth and Fred are shouting at each other</em>,shout_conjoined,rating_volition,"{""Q0"":5}",[0],The speaker identifies more with <br>Fred than Beth,The speaker identifies more with<br>Beth than Fred,right_to_left
null,Somebody says<br><em>Mike is shouting at Kate</em>,NA,NA,NA,html-keyboard-response,45,357983,0.0-26.0-0.0,anomymised,6564584152624795c40b73cb,6564bdab9218a38ad04ae0c3,11421,1A,woman,NA,null,NAME1 is shouting at NAME2,shout_active,sentence,NA,NA,NA,NA,NA
4385.5,NA,NA,NA,NA,survey-likert-extra-labels,46,362370,0.0-26.0-1.0,anomymised,6564584152624795c40b73cb,6564bdab9218a38ad04ae0c3,11421,1A,woman,NA,NA,Somebody says<br><em>Mike is shouting at Kate</em>,shout_active,rating_volition,"{""Q0"":3}",[0],The speaker identifies more with <br>Mike than Kate,The speaker identifies more with<br>Kate than Mike,left_to_right
null,Somebody says<br><em>Dave is being touched by Luke</em>,NA,NA,NA,html-keyboard-response,47,364380,0.0-27.0-0.0,anomymised,6564584152624795c40b73cb,6564bdab9218a38ad04ae0c3,11421,1A,woman,NA,null,NAME1 is being touched by NAME2,touch_passive,sentence,NA,NA,NA,NA,NA
8259.800000000745,NA,NA,NA,NA,survey-likert-extra-labels,48,372642,0.0-27.0-1.0,anomymised,6564584152624795c40b73cb,6564bdab9218a38ad04ae0c3,11421,1A,woman,NA,NA,Somebody says<br><em>Dave is being touched by Luke</em>,touch_passive,rating_volition,"{""Q0"":1}",[0],The speaker identifies more with <br>Dave than Luke,The speaker identifies more with<br>Luke than Dave,left_to_right
null,Somebody says<br><em>Luke is being greeted by Dave</em>,NA,NA,NA,html-keyboard-response,49,374646,0.0-28.0-0.0,anomymised,6564584152624795c40b73cb,6564bdab9218a38ad04ae0c3,11421,1A,woman,NA,null,NAME1 is being greeted by NAME2,greet_passive,sentence,NA,NA,NA,NA,NA
4939.79999999702,NA,NA,NA,NA,survey-likert-extra-labels,50,379587,0.0-28.0-1.0,anomymised,6564584152624795c40b73cb,6564bdab9218a38ad04ae0c3,11421,1A,woman,NA,NA,Somebody says<br><em>Luke is being greeted by Dave</em>,greet_passive,rating_volition,"{""Q0"":0}",[0],The speaker identifies more with <br>Luke than Dave,The speaker identifies more with<br>Dave than Luke,left_to_right
null,Somebody says<br><em>Kate is meeting Jane</em>,NA,NA,NA,html-keyboard-response,51,381595,0.0-29.0-0.0,anomymised,6564584152624795c40b73cb,6564bdab9218a38ad04ae0c3,11421,1A,woman,NA,null,NAME1 is meeting NAME2,meet_active,sentence,NA,NA,NA,NA,NA
3453.300000000745,NA,NA,NA,NA,survey-likert-extra-labels,52,385050,0.0-29.0-1.0,anomymised,6564584152624795c40b73cb,6564bdab9218a38ad04ae0c3,11421,1A,woman,NA,NA,Somebody says<br><em>Kate is meeting Jane</em>,meet_active,rating_volition,"{""Q0"":0}",[0],The speaker identifies more with <br>Kate than Jane,The speaker identifies more with<br>Jane than Kate,left_to_right
null,Somebody says<br><em>Mike is being challenged by Dave</em>,NA,NA,NA,html-keyboard-response,53,387054,0.0-30.0-0.0,anomymised,6564584152624795c40b73cb,6564bdab9218a38ad04ae0c3,11421,1A,woman,NA,null,NAME1 is being challenged by NAME2,challenge_passive,sentence,NA,NA,NA,NA,NA
4555.300000000745,NA,NA,NA,NA,survey-likert-extra-labels,54,391611,0.0-30.0-1.0,anomymised,6564584152624795c40b73cb,6564bdab9218a38ad04ae0c3,11421,1A,woman,NA,NA,Somebody says<br><em>Mike is being challenged by Dave</em>,challenge_passive,rating_volition,"{""Q0"":4}",[0],The speaker identifies more with <br>Dave than Mike,The speaker identifies more with<br>Mike than Dave,right_to_left
null,Somebody says<br><em>Jane is seducing Beth</em>,NA,NA,NA,html-keyboard-response,55,393615,0.0-31.0-0.0,anomymised,6564584152624795c40b73cb,6564bdab9218a38ad04ae0c3,11421,1A,woman,NA,null,NAME1 is seducing NAME2,seduce_active,sentence,NA,NA,NA,NA,NA
5193.599999997765,NA,NA,NA,NA,survey-likert-extra-labels,56,398810,0.0-31.0-1.0,anomymised,6564584152624795c40b73cb,6564bdab9218a38ad04ae0c3,11421,1A,woman,NA,NA,Somebody says<br><em>Jane is seducing Beth</em>,seduce_active,rating_volition,"{""Q0"":2}",[0],The speaker identifies more with <br>Beth than Jane,The speaker identifies more with<br>Jane than Beth,right_to_left
null,Somebody says<br><em>Dave and Jane are flirting with each other</em>,NA,NA,NA,html-keyboard-response,57,400812,0.0-32.0-0.0,anomymised,6564584152624795c40b73cb,6564bdab9218a38ad04ae0c3,11421,1A,woman,NA,null,NAME1 and NAME2 are flirting with each other,flirt_conjoined,sentence,NA,NA,NA,NA,NA
5347,NA,NA,NA,NA,survey-likert-extra-labels,58,406162,0.0-32.0-1.0,anomymised,6564584152624795c40b73cb,6564bdab9218a38ad04ae0c3,11421,1A,woman,NA,NA,Somebody says<br><em>Dave and Jane are flirting with each other</em>,flirt_conjoined,rating_volition,"{""Q0"":0}",[0],The speaker identifies more with <br>Dave than Jane,The speaker identifies more with<br>Jane than Dave,left_to_right
null,Somebody says<br><em>Mike is reminding Beth,NA,NA,NA,html-keyboard-response,59,408180,0.0-33.0-0.0,anomymised,6564584152624795c40b73cb,6564bdab9218a38ad04ae0c3,11421,1A,woman,NA,null,M2 is reminding W4,remind,sentence,NA,NA,NA,NA,NA
7197.300000000745,NA,NA,NA,NA,survey-likert-extra-labels,60,415380,0.0-33.0-1.0,anomymised,6564584152624795c40b73cb,6564bdab9218a38ad04ae0c3,11421,1A,woman,NA,NA,Somebody says<br><em>Mike is reminding Beth,remind,rating_volition,"{""Q0"":0}",[0],Mike is telling Beth again,Beth is telling Mike again,NA
null,Somebody says<br><em>Mike is kissing Luke</em>,NA,NA,NA,html-keyboard-response,61,417383,0.0-34.0-0.0,anomymised,6564584152624795c40b73cb,6564bdab9218a38ad04ae0c3,11421,1A,woman,NA,null,NAME1 is kissing NAME2,kiss_active,sentence,NA,NA,NA,NA,NA
6212,NA,NA,NA,NA,survey-likert-extra-labels,62,423597,0.0-34.0-1.0,anomymised,6564584152624795c40b73cb,6564bdab9218a38ad04ae0c3,11421,1A,woman,NA,NA,Somebody says<br><em>Mike is kissing Luke</em>,kiss_active,rating_volition,"{""Q0"":5}",[0],The speaker identifies more with <br>Luke than Mike,The speaker identifies more with<br>Mike than Luke,right_to_left
null,Somebody says<br><em>Kate is being shouted at by Dave</em>,NA,NA,NA,html-keyboard-response,63,425600,0.0-35.0-0.0,anomymised,6564584152624795c40b73cb,6564bdab9218a38ad04ae0c3,11421,1A,woman,NA,null,NAME1 is being shouted at by NAME2,shout_passive,sentence,NA,NA,NA,NA,NA
19296.60000000149,NA,NA,NA,NA,survey-likert-extra-labels,64,444900,0.0-35.0-1.0,anomymised,6564584152624795c40b73cb,6564bdab9218a38ad04ae0c3,11421,1A,woman,NA,NA,Somebody says<br><em>Kate is being shouted at by Dave</em>,shout_passive,rating_volition,"{""Q0"":3}",[0],The speaker identifies more with <br>Kate than Dave,The speaker identifies more with<br>Dave than Kate,left_to_right
null,Somebody says<br><em>Kate and Fred are kissing each other</em>,NA,NA,NA,html-keyboard-response,65,446906,0.0-36.0-0.0,anomymised,6564584152624795c40b73cb,6564bdab9218a38ad04ae0c3,11421,1A,woman,NA,null,NAME1 and NAME2 are kissing each other,kiss_conjoined,sentence,NA,NA,NA,NA,NA
121606.19999999925,NA,NA,NA,NA,survey-likert-extra-labels,66,568514,0.0-36.0-1.0,anomymised,6564584152624795c40b73cb,6564bdab9218a38ad04ae0c3,11421,1A,woman,NA,NA,Somebody says<br><em>Kate and Fred are kissing each other</em>,kiss_conjoined,rating_volition,"{""Q0"":5}",[0],The speaker identifies more with <br>Fred than Kate,The speaker identifies more with<br>Kate than Fred,right_to_left
null,Somebody says<br><em>Kate and Luke are playing with each other</em>,NA,NA,NA,html-keyboard-response,67,570516,0.0-37.0-0.0,anomymised,6564584152624795c40b73cb,6564bdab9218a38ad04ae0c3,11421,1A,woman,NA,null,NAME1 and NAME2 are playing with each other,play_conjoined,sentence,NA,NA,NA,NA,NA
5172,NA,NA,NA,NA,survey-likert-extra-labels,68,575690,0.0-37.0-1.0,anomymised,6564584152624795c40b73cb,6564bdab9218a38ad04ae0c3,11421,1A,woman,NA,NA,Somebody says<br><em>Kate and Luke are playing with each other</em>,play_conjoined,rating_volition,"{""Q0"":6}",[0],The speaker identifies more with <br>Luke than Kate,The speaker identifies more with<br>Kate than Luke,right_to_left
null,Somebody says<br><em>Jane is carrying Beth,NA,NA,NA,html-keyboard-response,69,577699,0.0-38.0-0.0,anomymised,6564584152624795c40b73cb,6564bdab9218a38ad04ae0c3,11421,1A,woman,NA,null,W2 is carrying W4,carry,sentence,NA,NA,NA,NA,NA
10070.400000002235,NA,NA,NA,NA,survey-likert-extra-labels,70,587771,0.0-38.0-1.0,anomymised,6564584152624795c40b73cb,6564bdab9218a38ad04ae0c3,11421,1A,woman,NA,NA,Somebody says<br><em>Jane is carrying Beth,carry,rating_volition,"{""Q0"":0}",[0],Jane is transporting Beth,Beth is transporting Jane,NA
null,Somebody says<br><em>Jane is teaching Dave,NA,NA,NA,html-keyboard-response,71,589776,0.0-39.0-0.0,anomymised,6564584152624795c40b73cb,6564bdab9218a38ad04ae0c3,11421,1A,woman,NA,null,W2 is teaching M4,teach,sentence,NA,NA,NA,NA,NA
3569.599999997765,NA,NA,NA,NA,survey-likert-extra-labels,72,593348,0.0-39.0-1.0,anomymised,6564584152624795c40b73cb,6564bdab9218a38ad04ae0c3,11421,1A,woman,NA,NA,Somebody says<br><em>Jane is teaching Dave,teach,rating_volition,"{""Q0"":0}",[0],Jane is educating Dave,Dave is educating Jane,NA
null,Somebody says<br><em>Kate is talking to Mike</em>,NA,NA,NA,html-keyboard-response,73,595350,0.0-40.0-0.0,anomymised,6564584152624795c40b73cb,6564bdab9218a38ad04ae0c3,11421,1A,woman,NA,null,NAME1 is talking to NAME2,talk_active,sentence,NA,NA,NA,NA,NA
9729.599999997765,NA,NA,NA,NA,survey-likert-extra-labels,74,605082,0.0-40.0-1.0,anomymised,6564584152624795c40b73cb,6564bdab9218a38ad04ae0c3,11421,1A,woman,NA,NA,Somebody says<br><em>Kate is talking to Mike</em>,talk_active,rating_volition,"{""Q0"":6}",[0],The speaker identifies more with <br>Mike than Kate,The speaker identifies more with<br>Kate than Mike,right_to_left
null,Somebody says<br><em>Jane is fighting with Ruth</em>,NA,NA,NA,html-keyboard-response,75,607086,0.0-41.0-0.0,anomymised,6564584152624795c40b73cb,6564bdab9218a38ad04ae0c3,11421,1A,woman,NA,null,NAME1 is fighting with NAME2,fight_active,sentence,NA,NA,NA,NA,NA
4122.5,NA,NA,NA,NA,survey-likert-extra-labels,76,611210,0.0-41.0-1.0,anomymised,6564584152624795c40b73cb,6564bdab9218a38ad04ae0c3,11421,1A,woman,NA,NA,Somebody says<br><em>Jane is fighting with Ruth</em>,fight_active,rating_volition,"{""Q0"":1}",[0],The speaker identifies more with <br>Jane than Ruth,The speaker identifies more with<br>Ruth than Jane,left_to_right
null,Somebody says<br><em>Ruth is chasing Kate,NA,NA,NA,html-keyboard-response,77,613215,0.0-42.0-0.0,anomymised,6564584152624795c40b73cb,6564bdab9218a38ad04ae0c3,11421,1A,woman,NA,null,W1 is chasing W3,chase,sentence,NA,NA,NA,NA,NA
9162.5,NA,NA,NA,NA,survey-likert-extra-labels,78,622380,0.0-42.0-1.0,anomymised,6564584152624795c40b73cb,6564bdab9218a38ad04ae0c3,11421,1A,woman,NA,NA,Somebody says<br><em>Ruth is chasing Kate,chase,rating_volition,"{""Q0"":0}",[0],Ruth is behind Kate,Kate is behind Ruth,NA
null,Somebody says<br><em>Kate is being looked at by Dave</em>,NA,NA,NA,html-keyboard-response,79,624387,0.0-43.0-0.0,anomymised,6564584152624795c40b73cb,6564bdab9218a38ad04ae0c3,11421,1A,woman,NA,null,NAME1 is being looked at by NAME2,look_passive,sentence,NA,NA,NA,NA,NA
7074.89999999851,NA,NA,NA,NA,survey-likert-extra-labels,80,631466,0.0-43.0-1.0,anomymised,6564584152624795c40b73cb,6564bdab9218a38ad04ae0c3,11421,1A,woman,NA,NA,Somebody says<br><em>Kate is being looked at by Dave</em>,look_passive,rating_volition,"{""Q0"":6}",[0],The speaker identifies more with <br>Dave than Kate,The speaker identifies more with<br>Kate than Dave,right_to_left
null,Somebody says<br><em>Ruth is being seduced by Jane</em>,NA,NA,NA,html-keyboard-response,81,633470,0.0-44.0-0.0,anomymised,6564584152624795c40b73cb,6564bdab9218a38ad04ae0c3,11421,1A,woman,NA,null,NAME1 is being seduced by NAME2,seduce_passive,sentence,NA,NA,NA,NA,NA
4315.70000000298,NA,NA,NA,NA,survey-likert-extra-labels,82,637788,0.0-44.0-1.0,anomymised,6564584152624795c40b73cb,6564bdab9218a38ad04ae0c3,11421,1A,woman,NA,NA,Somebody says<br><em>Ruth is being seduced by Jane</em>,seduce_passive,rating_volition,"{""Q0"":1}",[0],The speaker identifies more with <br>Ruth than Jane,The speaker identifies more with<br>Jane than Ruth,left_to_right
null,Somebody says<br><em>Mike is posing for Dave,NA,NA,NA,html-keyboard-response,83,639791,0.0-45.0-0.0,anomymised,6564584152624795c40b73cb,6564bdab9218a38ad04ae0c3,11421,1A,woman,NA,null,M2 is posing for M4,pose,sentence,NA,NA,NA,NA,NA
4737.900000002235,NA,NA,NA,NA,survey-likert-extra-labels,84,644531,0.0-45.0-1.0,anomymised,6564584152624795c40b73cb,6564bdab9218a38ad04ae0c3,11421,1A,woman,NA,NA,Somebody says<br><em>Mike is posing for Dave,pose,rating_volition,"{""Q0"":0}",[0],Mike is modelling for Dave,Dave is modelling for Mike,NA
null,Somebody says<br><em>Beth and Jane are touching each other</em>,NA,NA,NA,html-keyboard-response,85,646536,0.0-46.0-0.0,anomymised,6564584152624795c40b73cb,6564bdab9218a38ad04ae0c3,11421,1A,woman,NA,null,NAME1 and NAME2 are touching each other,touch_conjoined,sentence,NA,NA,NA,NA,NA
6847.400000002235,NA,NA,NA,NA,survey-likert-extra-labels,86,653386,0.0-46.0-1.0,anomymised,6564584152624795c40b73cb,6564bdab9218a38ad04ae0c3,11421,1A,woman,NA,NA,Somebody says<br><em>Beth and Jane are touching each other</em>,touch_conjoined,rating_volition,"{""Q0"":1}",[0],The speaker identifies more with <br>Beth than Jane,The speaker identifies more with<br>Jane than Beth,left_to_right
null,Somebody says<br><em>Fred is greeting Kate</em>,NA,NA,NA,html-keyboard-response,87,655388,0.0-47.0-0.0,anomymised,6564584152624795c40b73cb,6564bdab9218a38ad04ae0c3,11421,1A,woman,NA,null,NAME1 is greeting NAME2,greet_active,sentence,NA,NA,NA,NA,NA
5459.60000000149,NA,NA,NA,NA,survey-likert-extra-labels,88,660849,0.0-47.0-1.0,anomymised,6564584152624795c40b73cb,6564bdab9218a38ad04ae0c3,11421,1A,woman,NA,NA,Somebody says<br><em>Fred is greeting Kate</em>,greet_active,rating_volition,"{""Q0"":6}",[0],The speaker identifies more with <br>Kate than Fred,The speaker identifies more with<br>Fred than Kate,right_to_left
null,Somebody says<br><em>Luke is being opposed by Jane</em>,NA,NA,NA,html-keyboard-response,89,662853,0.0-48.0-0.0,anomymised,6564584152624795c40b73cb,6564bdab9218a38ad04ae0c3,11421,1A,woman,NA,null,NAME1 is being opposed by NAME2,oppose_passive,sentence,NA,NA,NA,NA,NA
4602.800000000745,NA,NA,NA,NA,survey-likert-extra-labels,90,667458,0.0-48.0-1.0,anomymised,6564584152624795c40b73cb,6564bdab9218a38ad04ae0c3,11421,1A,woman,NA,NA,Somebody says<br><em>Luke is being opposed by Jane</em>,oppose_passive,rating_volition,"{""Q0"":6}",[0],The speaker identifies more with <br>Jane than Luke,The speaker identifies more with<br>Luke than Jane,right_to_left
null,Somebody says<br><em>Jane and Ruth are meeting each other</em>,NA,NA,NA,html-keyboard-response,91,669460,0.0-49.0-0.0,anomymised,6564584152624795c40b73cb,6564bdab9218a38ad04ae0c3,11421,1A,woman,NA,null,NAME1 and NAME2 are meeting each other,meet_conjoined,sentence,NA,NA,NA,NA,NA
7958.10000000149,NA,NA,NA,NA,survey-likert-extra-labels,92,677420,0.0-49.0-1.0,anomymised,6564584152624795c40b73cb,6564bdab9218a38ad04ae0c3,11421,1A,woman,NA,NA,Somebody says<br><em>Jane and Ruth are meeting each other</em>,meet_conjoined,rating_volition,"{""Q0"":1}",[0],The speaker identifies more with <br>Jane than Ruth,The speaker identifies more with<br>Ruth than Jane,left_to_right
null,Somebody says<br><em>Mike is playing with Beth</em>,NA,NA,NA,html-keyboard-response,93,679423,0.0-50.0-0.0,anomymised,6564584152624795c40b73cb,6564bdab9218a38ad04ae0c3,11421,1A,woman,NA,null,NAME1 is playing with NAME2,play_active,sentence,NA,NA,NA,NA,NA
3377.5,NA,NA,NA,NA,survey-likert-extra-labels,94,682803,0.0-50.0-1.0,anomymised,6564584152624795c40b73cb,6564bdab9218a38ad04ae0c3,11421,1A,woman,NA,NA,Somebody says<br><em>Mike is playing with Beth</em>,play_active,rating_volition,"{""Q0"":1}",[0],The speaker identifies more with <br>Mike than Beth,The speaker identifies more with<br>Beth than Mike,left_to_right
null,Somebody says<br><em>Fred is hiring Ruth,NA,NA,NA,html-keyboard-response,95,684805,0.0-51.0-0.0,anomymised,6564584152624795c40b73cb,6564bdab9218a38ad04ae0c3,11421,1A,woman,NA,null,M3 is hiring W1,hire,sentence,NA,NA,NA,NA,NA
3548.2000000029802,NA,NA,NA,NA,survey-likert-extra-labels,96,688355,0.0-51.0-1.0,anomymised,6564584152624795c40b73cb,6564bdab9218a38ad04ae0c3,11421,1A,woman,NA,NA,Somebody says<br><em>Fred is hiring Ruth,hire,rating_volition,"{""Q0"":0}",[0],Fred is employing Ruth,Ruth is employing Fred,NA
null,Somebody says<br><em>Kate is looking at Jane</em>,NA,NA,NA,html-keyboard-response,97,690358,0.0-52.0-0.0,anomymised,6564584152624795c40b73cb,6564bdab9218a38ad04ae0c3,11421,1A,woman,NA,null,NAME1 is looking at NAME2,look_active,sentence,NA,NA,NA,NA,NA
5048.79999999702,NA,NA,NA,NA,survey-likert-extra-labels,98,695409,0.0-52.0-1.0,anomymised,6564584152624795c40b73cb,6564bdab9218a38ad04ae0c3,11421,1A,woman,NA,NA,Somebody says<br><em>Kate is looking at Jane</em>,look_active,rating_volition,"{""Q0"":4}",[0],The speaker identifies more with <br>Kate than Jane,The speaker identifies more with<br>Jane than Kate,left_to_right
null,Somebody says<br><em>Dave and Mike are marrying each other</em>,NA,NA,NA,html-keyboard-response,99,697412,0.0-53.0-0.0,anomymised,6564584152624795c40b73cb,6564bdab9218a38ad04ae0c3,11421,1A,woman,NA,null,NAME1 and NAME2 are marrying each other,marry_conjoined,sentence,NA,NA,NA,NA,NA
4874.70000000298,NA,NA,NA,NA,survey-likert-extra-labels,100,702290,0.0-53.0-1.0,anomymised,6564584152624795c40b73cb,6564bdab9218a38ad04ae0c3,11421,1A,woman,NA,NA,Somebody says<br><em>Dave and Mike are marrying each other</em>,marry_conjoined,rating_volition,"{""Q0"":0}",[0],The speaker identifies more with <br>Dave than Mike,The speaker identifies more with<br>Mike than Dave,left_to_right
null,Somebody says<br><em>Kate is flirting with Luke</em>,NA,NA,NA,html-keyboard-response,101,704294,0.0-54.0-0.0,anomymised,6564584152624795c40b73cb,6564bdab9218a38ad04ae0c3,11421,1A,woman,NA,null,NAME1 is flirting with NAME2,flirt_active,sentence,NA,NA,NA,NA,NA
5355.300000000745,NA,NA,NA,NA,survey-likert-extra-labels,102,709652,0.0-54.0-1.0,anomymised,6564584152624795c40b73cb,6564bdab9218a38ad04ae0c3,11421,1A,woman,NA,NA,Somebody says<br><em>Kate is flirting with Luke</em>,flirt_active,rating_volition,"{""Q0"":0}",[0],The speaker identifies more with <br>Kate than Luke,The speaker identifies more with<br>Luke than Kate,left_to_right
null,Somebody says<br><em>Kate is feeding Luke,NA,NA,NA,html-keyboard-response,103,711654,0.0-55.0-0.0,anomymised,6564584152624795c40b73cb,6564bdab9218a38ad04ae0c3,11421,1A,woman,NA,null,W3 is feeding M1,feed,sentence,NA,NA,NA,NA,NA
6122.5,NA,NA,NA,NA,survey-likert-extra-labels,104,717779,0.0-55.0-1.0,anomymised,6564584152624795c40b73cb,6564bdab9218a38ad04ae0c3,11421,1A,woman,NA,NA,Somebody says<br><em>Kate is feeding Luke,feed,rating_volition,"{""Q0"":0}",[0],Kate cooked for Luke,Luke cooked for Kate,NA
2243.60000000149,<p>Thank you for completing that task.</p><p>The final part of this session is a short questionnaire.</p><p>Press Continue.</p>,0,Continue,Continue,html-button-response,105,720026,0.0-56.0,anomymised,6564584152624795c40b73cb,6564bdab9218a38ad04ae0c3,11421,1A,woman,NA,NA,NA,NA,NA,NA,NA,NA,NA,NA
54669,NA,NA,NA,NA,survey-text,106,775733,0.0-57.0,anomymised,6564584152624795c40b73cb,6564bdab9218a38ad04ae0c3,11421,1A,woman,NA,NA,NA,NA,demographics,"{""Q0"":""42"",""Q1"":""English"",""Q2"":""English"",""Q3"":""United Kingdom"",""Q4"":""British"",""Q5"":""White"",""Q6"":""Female ""}",NA,NA,NA,NA
5993.800000000745,<p>This is the last question - thank you for taking part! Have you lived in the UK for the last 5 years or more?</p>,0,"Yes,No",Yes,html-button-response,107,781729,0.0-58.0,anomymised,6564584152624795c40b73cb,6564bdab9218a38ad04ae0c3,11421,1A,woman,NA,NA,NA,NA,fiveyears,NA,NA,NA,NA,NA
