rt,stimulus,button_pressed,choices,ChosenStimulus,trial_type,trial_index,time_elapsed,internal_node_id,subject_id,study_id,session_id,subject,list,ppt_gender,url,key_press,sentence_type,verb,test_part,responses,question_order,left_part,right_part,name_order
1637,Welcome to the experiment. Press Continue to begin.,0,Continue,Continue,html-button-response,0,1647,0.0-0.0,anomymised,6560c4db814364f7465ce092,65644e7127dc5d95e0cae86f,1253,1A,woman,NA,NA,NA,NA,NA,NA,NA,NA,NA,NA
30648,NA,NA,NA,NA,external-html,1,33371,0.0-1.0,anomymised,6560c4db814364f7465ce092,65644e7127dc5d95e0cae86f,1253,1A,woman,consent.html,NA,NA,NA,NA,NA,NA,NA,NA,NA
31705,"<p>Welcome.</p><p>In this experiment we will ask you to imagine people's motivations for saying sentences.</p><p>Each trial will begin with a sentence that somebody might say to describe an event involving two different people.</p><p>For instance, someone might say <em>Harry is being recruited by Molly</em></p><p>We want you to think about which of those two people (Molly and Harry) the speaker identifies more with. For instance, why did the speaker say <em>Harry is being recruited by Molly</em> rather than <em> Molly is recruiting Harry</em>? Might that mean that the speaker is socially closer to one of the two characters?</p><p>After you have read the sentence, you will rate on a scale which of the two characters the speaker identifies more with.</p><p>You will give your answer by clicking a button on a rating scale.</p><p>Sometimes there will also be catch questions designed to make sure that you are paying attention, which ask about a different topic.</p><p>To do this task, you will have to use your imagination to think about and visualise the events, and how the speaker might relate to the characters.</p><br><p>Ready?</p>",0,Continue,Continue,html-button-response,2,65079,0.0-2.0,anomymised,6560c4db814364f7465ce092,65644e7127dc5d95e0cae86f,1253,1A,woman,NA,NA,NA,NA,NA,NA,NA,NA,NA,NA
5073,"<p>Before the experiment starts, we will show you an example of how you will answer the questions. Press 'Continue'.</p>",0,Continue,Continue,html-button-response,3,71259,0.0-3.0,anomymised,6560c4db814364f7465ce092,65644e7127dc5d95e0cae86f,1253,1A,woman,NA,NA,NA,NA,NA,NA,NA,NA,NA,NA
null,Somebody says <br><em>Samuel is dining with Frank</em>,NA,NA,NA,html-keyboard-response,4,74281,0.0-4.0,anomymised,6560c4db814364f7465ce092,65644e7127dc5d95e0cae86f,1253,1A,woman,NA,null,NA,NA,NA,NA,NA,NA,NA,NA
14293,<img src='img/Example-trial.jpg' style='height:550px;''></img>,0,Continue,Continue,html-button-response,5,88574,0.0-5.0,anomymised,6560c4db814364f7465ce092,65644e7127dc5d95e0cae86f,1253,1A,woman,NA,NA,NA,NA,NA,NA,NA,NA,NA,NA
6314,<p>Ready to start the experiment?</p><br><p><strong>Remember to give an answer by clicking a button on the rating scale.</strong></p><p>Press 'Continue' to begin.</p>,0,Continue,Continue,html-button-response,6,95897,0.0-6.0,anomymised,6560c4db814364f7465ce092,65644e7127dc5d95e0cae86f,1253,1A,woman,NA,NA,NA,NA,NA,NA,NA,NA,NA,NA
null,Somebody says<br><em>Jane is carrying Beth,NA,NA,NA,html-keyboard-response,7,98920,0.0-7.0-0.0,anomymised,6560c4db814364f7465ce092,65644e7127dc5d95e0cae86f,1253,1A,woman,NA,null,W2 is carrying W4,carry,sentence,NA,NA,NA,NA,NA
7213,NA,NA,NA,NA,survey-likert-extra-labels,8,106132,0.0-7.0-1.0,anomymised,6560c4db814364f7465ce092,65644e7127dc5d95e0cae86f,1253,1A,woman,NA,NA,Somebody says<br><em>Jane is carrying Beth,carry,rating_volition,"{""Q0"":0}",[0],Jane is transporting Beth,Beth is transporting Jane,NA
null,Somebody says<br><em>Mike is marrying Ruth</em>,NA,NA,NA,html-keyboard-response,9,108268,0.0-8.0-0.0,anomymised,6560c4db814364f7465ce092,65644e7127dc5d95e0cae86f,1253,1A,woman,NA,null,NAME1 is marrying NAME2,marry_active,sentence,NA,NA,NA,NA,NA
6485,NA,NA,NA,NA,survey-likert-extra-labels,10,114753,0.0-8.0-1.0,anomymised,6560c4db814364f7465ce092,65644e7127dc5d95e0cae86f,1253,1A,woman,NA,NA,Somebody says<br><em>Mike is marrying Ruth</em>,marry_active,rating_volition,"{""Q0"":0}",[0],The speaker identifies more with <br>Mike than Ruth,The speaker identifies more with<br>Ruth than Mike,left_to_right
null,Somebody says<br><em>Dave and Fred are touching each other</em>,NA,NA,NA,html-keyboard-response,11,116764,0.0-9.0-0.0,anomymised,6560c4db814364f7465ce092,65644e7127dc5d95e0cae86f,1253,1A,woman,NA,null,NAME1 and NAME2 are touching each other,touch_conjoined,sentence,NA,NA,NA,NA,NA
11898,NA,NA,NA,NA,survey-likert-extra-labels,12,128663,0.0-9.0-1.0,anomymised,6560c4db814364f7465ce092,65644e7127dc5d95e0cae86f,1253,1A,woman,NA,NA,Somebody says<br><em>Dave and Fred are touching each other</em>,touch_conjoined,rating_volition,"{""Q0"":3}",[0],The speaker identifies more with <br>Fred than Dave,The speaker identifies more with<br>Dave than Fred,right_to_left
null,Somebody says<br><em>Ruth is chasing Kate,NA,NA,NA,html-keyboard-response,13,130692,0.0-10.0-0.0,anomymised,6560c4db814364f7465ce092,65644e7127dc5d95e0cae86f,1253,1A,woman,NA,null,W1 is chasing W3,chase,sentence,NA,NA,NA,NA,NA
6601,NA,NA,NA,NA,survey-likert-extra-labels,14,137294,0.0-10.0-1.0,anomymised,6560c4db814364f7465ce092,65644e7127dc5d95e0cae86f,1253,1A,woman,NA,NA,Somebody says<br><em>Ruth is chasing Kate,chase,rating_volition,"{""Q0"":0}",[0],Ruth is behind Kate,Kate is behind Ruth,NA
null,Somebody says<br><em>Fred is greeting Beth</em>,NA,NA,NA,html-keyboard-response,15,139303,0.0-11.0-0.0,anomymised,6560c4db814364f7465ce092,65644e7127dc5d95e0cae86f,1253,1A,woman,NA,null,NAME1 is greeting NAME2,greet_active,sentence,NA,NA,NA,NA,NA
5741,NA,NA,NA,NA,survey-likert-extra-labels,16,145044,0.0-11.0-1.0,anomymised,6560c4db814364f7465ce092,65644e7127dc5d95e0cae86f,1253,1A,woman,NA,NA,Somebody says<br><em>Fred is greeting Beth</em>,greet_active,rating_volition,"{""Q0"":6}",[0],The speaker identifies more with <br>Beth than Fred,The speaker identifies more with<br>Fred than Beth,right_to_left
null,Somebody says<br><em>Ruth and Fred are dancing with each other</em>,NA,NA,NA,html-keyboard-response,17,147048,0.0-12.0-0.0,anomymised,6560c4db814364f7465ce092,65644e7127dc5d95e0cae86f,1253,1A,woman,NA,null,NAME1 and NAME2 are dancing with each other,dance_conjoined,sentence,NA,NA,NA,NA,NA
9245,NA,NA,NA,NA,survey-likert-extra-labels,18,156292,0.0-12.0-1.0,anomymised,6560c4db814364f7465ce092,65644e7127dc5d95e0cae86f,1253,1A,woman,NA,NA,Somebody says<br><em>Ruth and Fred are dancing with each other</em>,dance_conjoined,rating_volition,"{""Q0"":5}",[0],The speaker identifies more with <br>Fred than Ruth,The speaker identifies more with<br>Ruth than Fred,right_to_left
null,Somebody says<br><em>Jane is being looked at by Fred</em>,NA,NA,NA,html-keyboard-response,19,158295,0.0-13.0-0.0,anomymised,6560c4db814364f7465ce092,65644e7127dc5d95e0cae86f,1253,1A,woman,NA,null,NAME1 is being looked at by NAME2,look_passive,sentence,NA,NA,NA,NA,NA
9126,NA,NA,NA,NA,survey-likert-extra-labels,20,167421,0.0-13.0-1.0,anomymised,6560c4db814364f7465ce092,65644e7127dc5d95e0cae86f,1253,1A,woman,NA,NA,Somebody says<br><em>Jane is being looked at by Fred</em>,look_passive,rating_volition,"{""Q0"":6}",[0],The speaker identifies more with <br>Fred than Jane,The speaker identifies more with<br>Jane than Fred,right_to_left
null,Somebody says<br><em>Kate is being kissed by Mike</em>,NA,NA,NA,html-keyboard-response,21,169422,0.0-14.0-0.0,anomymised,6560c4db814364f7465ce092,65644e7127dc5d95e0cae86f,1253,1A,woman,NA,null,NAME1 is being kissed by NAME2,kiss_passive,sentence,NA,NA,NA,NA,NA
5635,NA,NA,NA,NA,survey-likert-extra-labels,22,175057,0.0-14.0-1.0,anomymised,6560c4db814364f7465ce092,65644e7127dc5d95e0cae86f,1253,1A,woman,NA,NA,Somebody says<br><em>Kate is being kissed by Mike</em>,kiss_passive,rating_volition,"{""Q0"":0}",[0],The speaker identifies more with <br>Kate than Mike,The speaker identifies more with<br>Mike than Kate,left_to_right
null,Somebody says<br><em>Jane and Dave are flirting with each other</em>,NA,NA,NA,html-keyboard-response,23,177069,0.0-15.0-0.0,anomymised,6560c4db814364f7465ce092,65644e7127dc5d95e0cae86f,1253,1A,woman,NA,null,NAME1 and NAME2 are flirting with each other,flirt_conjoined,sentence,NA,NA,NA,NA,NA
6905,NA,NA,NA,NA,survey-likert-extra-labels,24,183974,0.0-15.0-1.0,anomymised,6560c4db814364f7465ce092,65644e7127dc5d95e0cae86f,1253,1A,woman,NA,NA,Somebody says<br><em>Jane and Dave are flirting with each other</em>,flirt_conjoined,rating_volition,"{""Q0"":2}",[0],The speaker identifies more with <br>Jane than Dave,The speaker identifies more with<br>Dave than Jane,left_to_right
null,Somebody says<br><em>Beth is looking at Kate</em>,NA,NA,NA,html-keyboard-response,25,185983,0.0-16.0-0.0,anomymised,6560c4db814364f7465ce092,65644e7127dc5d95e0cae86f,1253,1A,woman,NA,null,NAME1 is looking at NAME2,look_active,sentence,NA,NA,NA,NA,NA
8625,NA,NA,NA,NA,survey-likert-extra-labels,26,194607,0.0-16.0-1.0,anomymised,6560c4db814364f7465ce092,65644e7127dc5d95e0cae86f,1253,1A,woman,NA,NA,Somebody says<br><em>Beth is looking at Kate</em>,look_active,rating_volition,"{""Q0"":0}",[0],The speaker identifies more with <br>Beth than Kate,The speaker identifies more with<br>Kate than Beth,left_to_right
null,Somebody says<br><em>Kate and Beth are fighting with each other</em>,NA,NA,NA,html-keyboard-response,27,196616,0.0-17.0-0.0,anomymised,6560c4db814364f7465ce092,65644e7127dc5d95e0cae86f,1253,1A,woman,NA,null,NAME1 and NAME2 are fighting with each other,fight_conjoined,sentence,NA,NA,NA,NA,NA
14372,NA,NA,NA,NA,survey-likert-extra-labels,28,210989,0.0-17.0-1.0,anomymised,6560c4db814364f7465ce092,65644e7127dc5d95e0cae86f,1253,1A,woman,NA,NA,Somebody says<br><em>Kate and Beth are fighting with each other</em>,fight_conjoined,rating_volition,"{""Q0"":4}",[0],The speaker identifies more with <br>Beth than Kate,The speaker identifies more with<br>Kate than Beth,right_to_left
null,Somebody says<br><em>Beth is arguing with Ruth</em>,NA,NA,NA,html-keyboard-response,29,212992,0.0-18.0-0.0,anomymised,6560c4db814364f7465ce092,65644e7127dc5d95e0cae86f,1253,1A,woman,NA,null,NAME1 is arguing with NAME2,argue_active,sentence,NA,NA,NA,NA,NA
14950,NA,NA,NA,NA,survey-likert-extra-labels,30,227943,0.0-18.0-1.0,anomymised,6560c4db814364f7465ce092,65644e7127dc5d95e0cae86f,1253,1A,woman,NA,NA,Somebody says<br><em>Beth is arguing with Ruth</em>,argue_active,rating_volition,"{""Q0"":5}",[0],The speaker identifies more with <br>Beth than Ruth,The speaker identifies more with<br>Ruth than Beth,left_to_right
null,Somebody says<br><em>Ruth is hugging Kate</em>,NA,NA,NA,html-keyboard-response,31,229951,0.0-19.0-0.0,anomymised,6560c4db814364f7465ce092,65644e7127dc5d95e0cae86f,1253,1A,woman,NA,null,NAME1 is hugging NAME2,hug_active,sentence,NA,NA,NA,NA,NA
10428,NA,NA,NA,NA,survey-likert-extra-labels,32,240379,0.0-19.0-1.0,anomymised,6560c4db814364f7465ce092,65644e7127dc5d95e0cae86f,1253,1A,woman,NA,NA,Somebody says<br><em>Ruth is hugging Kate</em>,hug_active,rating_volition,"{""Q0"":5}",[0],The speaker identifies more with <br>Kate than Ruth,The speaker identifies more with<br>Ruth than Kate,right_to_left
null,Somebody says<br><em>Beth is meeting Dave</em>,NA,NA,NA,html-keyboard-response,33,242383,0.0-20.0-0.0,anomymised,6560c4db814364f7465ce092,65644e7127dc5d95e0cae86f,1253,1A,woman,NA,null,NAME1 is meeting NAME2,meet_active,sentence,NA,NA,NA,NA,NA
8175,NA,NA,NA,NA,survey-likert-extra-labels,34,250560,0.0-20.0-1.0,anomymised,6560c4db814364f7465ce092,65644e7127dc5d95e0cae86f,1253,1A,woman,NA,NA,Somebody says<br><em>Beth is meeting Dave</em>,meet_active,rating_volition,"{""Q0"":6}",[0],The speaker identifies more with <br>Dave than Beth,The speaker identifies more with<br>Beth than Dave,right_to_left
null,Somebody says<br><em>Dave and Ruth are shouting at each other</em>,NA,NA,NA,html-keyboard-response,35,252567,0.0-21.0-0.0,anomymised,6560c4db814364f7465ce092,65644e7127dc5d95e0cae86f,1253,1A,woman,NA,null,NAME1 and NAME2 are shouting at each other,shout_conjoined,sentence,NA,NA,NA,NA,NA
17060,NA,NA,NA,NA,survey-likert-extra-labels,36,269628,0.0-21.0-1.0,anomymised,6560c4db814364f7465ce092,65644e7127dc5d95e0cae86f,1253,1A,woman,NA,NA,Somebody says<br><em>Dave and Ruth are shouting at each other</em>,shout_conjoined,rating_volition,"{""Q0"":5}",[0],The speaker identifies more with <br>Ruth than Dave,The speaker identifies more with<br>Dave than Ruth,right_to_left
null,Somebody says<br><em>Mike is challenging Beth</em>,NA,NA,NA,html-keyboard-response,37,271632,0.0-22.0-0.0,anomymised,6560c4db814364f7465ce092,65644e7127dc5d95e0cae86f,1253,1A,woman,NA,null,NAME1 is challenging NAME2,challenge_active,sentence,NA,NA,NA,NA,NA
35129,NA,NA,NA,NA,survey-likert-extra-labels,38,306762,0.0-22.0-1.0,anomymised,6560c4db814364f7465ce092,65644e7127dc5d95e0cae86f,1253,1A,woman,NA,NA,Somebody says<br><em>Mike is challenging Beth</em>,challenge_active,rating_volition,"{""Q0"":4}",[0],The speaker identifies more with <br>Mike than Beth,The speaker identifies more with<br>Beth than Mike,left_to_right
null,Somebody says<br><em>Mike is being opposed by Beth</em>,NA,NA,NA,html-keyboard-response,39,308777,0.0-23.0-0.0,anomymised,6560c4db814364f7465ce092,65644e7127dc5d95e0cae86f,1253,1A,woman,NA,null,NAME1 is being opposed by NAME2,oppose_passive,sentence,NA,NA,NA,NA,NA
5039,NA,NA,NA,NA,survey-likert-extra-labels,40,313817,0.0-23.0-1.0,anomymised,6560c4db814364f7465ce092,65644e7127dc5d95e0cae86f,1253,1A,woman,NA,NA,Somebody says<br><em>Mike is being opposed by Beth</em>,oppose_passive,rating_volition,"{""Q0"":1}",[0],The speaker identifies more with <br>Mike than Beth,The speaker identifies more with<br>Beth than Mike,left_to_right
null,Somebody says<br><em>Kate is seducing Mike</em>,NA,NA,NA,html-keyboard-response,41,315823,0.0-24.0-0.0,anomymised,6560c4db814364f7465ce092,65644e7127dc5d95e0cae86f,1253,1A,woman,NA,null,NAME1 is seducing NAME2,seduce_active,sentence,NA,NA,NA,NA,NA
10620,NA,NA,NA,NA,survey-likert-extra-labels,42,326444,0.0-24.0-1.0,anomymised,6560c4db814364f7465ce092,65644e7127dc5d95e0cae86f,1253,1A,woman,NA,NA,Somebody says<br><em>Kate is seducing Mike</em>,seduce_active,rating_volition,"{""Q0"":3}",[0],The speaker identifies more with <br>Mike than Kate,The speaker identifies more with<br>Kate than Mike,right_to_left
null,Somebody says<br><em>Jane is copying Fred</em>,NA,NA,NA,html-keyboard-response,43,328456,0.0-25.0-0.0,anomymised,6560c4db814364f7465ce092,65644e7127dc5d95e0cae86f,1253,1A,woman,NA,null,NAME1 is copying NAME2,copy_active,sentence,NA,NA,NA,NA,NA
10881,NA,NA,NA,NA,survey-likert-extra-labels,44,339337,0.0-25.0-1.0,anomymised,6560c4db814364f7465ce092,65644e7127dc5d95e0cae86f,1253,1A,woman,NA,NA,Somebody says<br><em>Jane is copying Fred</em>,copy_active,rating_volition,"{""Q0"":5}",[0],The speaker identifies more with <br>Jane than Fred,The speaker identifies more with<br>Fred than Jane,left_to_right
null,Somebody says<br><em>Kate is feeding Luke,NA,NA,NA,html-keyboard-response,45,341340,0.0-26.0-0.0,anomymised,6560c4db814364f7465ce092,65644e7127dc5d95e0cae86f,1253,1A,woman,NA,null,W3 is feeding M1,feed,sentence,NA,NA,NA,NA,NA
10874,NA,NA,NA,NA,survey-likert-extra-labels,46,352215,0.0-26.0-1.0,anomymised,6560c4db814364f7465ce092,65644e7127dc5d95e0cae86f,1253,1A,woman,NA,NA,Somebody says<br><em>Kate is feeding Luke,feed,rating_volition,"{""Q0"":3}",[0],Kate cooked for Luke,Luke cooked for Kate,NA
null,Somebody says<br><em>Fred is fighting with Ruth</em>,NA,NA,NA,html-keyboard-response,47,354219,0.0-27.0-0.0,anomymised,6560c4db814364f7465ce092,65644e7127dc5d95e0cae86f,1253,1A,woman,NA,null,NAME1 is fighting with NAME2,fight_active,sentence,NA,NA,NA,NA,NA
57401,NA,NA,NA,NA,survey-likert-extra-labels,48,411621,0.0-27.0-1.0,anomymised,6560c4db814364f7465ce092,65644e7127dc5d95e0cae86f,1253,1A,woman,NA,NA,Somebody says<br><em>Fred is fighting with Ruth</em>,fight_active,rating_volition,"{""Q0"":4}",[0],The speaker identifies more with <br>Ruth than Fred,The speaker identifies more with<br>Fred than Ruth,right_to_left
null,Somebody says<br><em>Jane and Ruth are meeting each other</em>,NA,NA,NA,html-keyboard-response,49,413622,0.0-28.0-0.0,anomymised,6560c4db814364f7465ce092,65644e7127dc5d95e0cae86f,1253,1A,woman,NA,null,NAME1 and NAME2 are meeting each other,meet_conjoined,sentence,NA,NA,NA,NA,NA
7586,NA,NA,NA,NA,survey-likert-extra-labels,50,421208,0.0-28.0-1.0,anomymised,6560c4db814364f7465ce092,65644e7127dc5d95e0cae86f,1253,1A,woman,NA,NA,Somebody says<br><em>Jane and Ruth are meeting each other</em>,meet_conjoined,rating_volition,"{""Q0"":1}",[0],The speaker identifies more with <br>Jane than Ruth,The speaker identifies more with<br>Ruth than Jane,left_to_right
null,Somebody says<br><em>Luke is being challenged by Fred</em>,NA,NA,NA,html-keyboard-response,51,423219,0.0-29.0-0.0,anomymised,6560c4db814364f7465ce092,65644e7127dc5d95e0cae86f,1253,1A,woman,NA,null,NAME1 is being challenged by NAME2,challenge_passive,sentence,NA,NA,NA,NA,NA
9710,NA,NA,NA,NA,survey-likert-extra-labels,52,432931,0.0-29.0-1.0,anomymised,6560c4db814364f7465ce092,65644e7127dc5d95e0cae86f,1253,1A,woman,NA,NA,Somebody says<br><em>Luke is being challenged by Fred</em>,challenge_passive,rating_volition,"{""Q0"":5}",[0],The speaker identifies more with <br>Fred than Luke,The speaker identifies more with<br>Luke than Fred,right_to_left
null,Somebody says<br><em>Jane is teaching Dave,NA,NA,NA,html-keyboard-response,53,435073,0.0-30.0-0.0,anomymised,6560c4db814364f7465ce092,65644e7127dc5d95e0cae86f,1253,1A,woman,NA,null,W2 is teaching M4,teach,sentence,NA,NA,NA,NA,NA
7916,NA,NA,NA,NA,survey-likert-extra-labels,54,442989,0.0-30.0-1.0,anomymised,6560c4db814364f7465ce092,65644e7127dc5d95e0cae86f,1253,1A,woman,NA,NA,Somebody says<br><em>Jane is teaching Dave,teach,rating_volition,"{""Q0"":0}",[0],Jane is educating Dave,Dave is educating Jane,NA
null,Somebody says<br><em>Dave is playing with Ruth</em>,NA,NA,NA,html-keyboard-response,55,444991,0.0-31.0-0.0,anomymised,6560c4db814364f7465ce092,65644e7127dc5d95e0cae86f,1253,1A,woman,NA,null,NAME1 is playing with NAME2,play_active,sentence,NA,NA,NA,NA,NA
55454,NA,NA,NA,NA,survey-likert-extra-labels,56,500446,0.0-31.0-1.0,anomymised,6560c4db814364f7465ce092,65644e7127dc5d95e0cae86f,1253,1A,woman,NA,NA,Somebody says<br><em>Dave is playing with Ruth</em>,play_active,rating_volition,"{""Q0"":6}",[0],The speaker identifies more with <br>Ruth than Dave,The speaker identifies more with<br>Dave than Ruth,right_to_left
null,Somebody says<br><em>Luke is flirting with Mike</em>,NA,NA,NA,html-keyboard-response,57,502456,0.0-32.0-0.0,anomymised,6560c4db814364f7465ce092,65644e7127dc5d95e0cae86f,1253,1A,woman,NA,null,NAME1 is flirting with NAME2,flirt_active,sentence,NA,NA,NA,NA,NA
3567,NA,NA,NA,NA,survey-likert-extra-labels,58,506023,0.0-32.0-1.0,anomymised,6560c4db814364f7465ce092,65644e7127dc5d95e0cae86f,1253,1A,woman,NA,NA,Somebody says<br><em>Luke is flirting with Mike</em>,flirt_active,rating_volition,"{""Q0"":6}",[0],The speaker identifies more with <br>Mike than Luke,The speaker identifies more with<br>Luke than Mike,right_to_left
null,Somebody says<br><em>Fred is talking to Jane</em>,NA,NA,NA,html-keyboard-response,59,508037,0.0-33.0-0.0,anomymised,6560c4db814364f7465ce092,65644e7127dc5d95e0cae86f,1253,1A,woman,NA,null,NAME1 is talking to NAME2,talk_active,sentence,NA,NA,NA,NA,NA
6311,NA,NA,NA,NA,survey-likert-extra-labels,60,514347,0.0-33.0-1.0,anomymised,6560c4db814364f7465ce092,65644e7127dc5d95e0cae86f,1253,1A,woman,NA,NA,Somebody says<br><em>Fred is talking to Jane</em>,talk_active,rating_volition,"{""Q0"":6}",[0],The speaker identifies more with <br>Jane than Fred,The speaker identifies more with<br>Fred than Jane,right_to_left
null,Somebody says<br><em>Kate and Fred are marrying each other</em>,NA,NA,NA,html-keyboard-response,61,516351,0.0-34.0-0.0,anomymised,6560c4db814364f7465ce092,65644e7127dc5d95e0cae86f,1253,1A,woman,NA,null,NAME1 and NAME2 are marrying each other,marry_conjoined,sentence,NA,NA,NA,NA,NA
3413,NA,NA,NA,NA,survey-likert-extra-labels,62,519764,0.0-34.0-1.0,anomymised,6560c4db814364f7465ce092,65644e7127dc5d95e0cae86f,1253,1A,woman,NA,NA,Somebody says<br><em>Kate and Fred are marrying each other</em>,marry_conjoined,rating_volition,"{""Q0"":3}",[0],The speaker identifies more with <br>Fred than Kate,The speaker identifies more with<br>Kate than Fred,right_to_left
null,Somebody says<br><em>Beth is touching Fred</em>,NA,NA,NA,html-keyboard-response,63,521805,0.0-35.0-0.0,anomymised,6560c4db814364f7465ce092,65644e7127dc5d95e0cae86f,1253,1A,woman,NA,null,NAME1 is touching NAME2,touch_active,sentence,NA,NA,NA,NA,NA
6862,NA,NA,NA,NA,survey-likert-extra-labels,64,528668,0.0-35.0-1.0,anomymised,6560c4db814364f7465ce092,65644e7127dc5d95e0cae86f,1253,1A,woman,NA,NA,Somebody says<br><em>Beth is touching Fred</em>,touch_active,rating_volition,"{""Q0"":4}",[0],The speaker identifies more with <br>Fred than Beth,The speaker identifies more with<br>Beth than Fred,right_to_left
null,Somebody says<br><em>Mike is being copied by Kate</em>,NA,NA,NA,html-keyboard-response,65,530672,0.0-36.0-0.0,anomymised,6560c4db814364f7465ce092,65644e7127dc5d95e0cae86f,1253,1A,woman,NA,null,NAME1 is being copied by NAME2,copy_passive,sentence,NA,NA,NA,NA,NA
3005,NA,NA,NA,NA,survey-likert-extra-labels,66,533678,0.0-36.0-1.0,anomymised,6560c4db814364f7465ce092,65644e7127dc5d95e0cae86f,1253,1A,woman,NA,NA,Somebody says<br><em>Mike is being copied by Kate</em>,copy_passive,rating_volition,"{""Q0"":0}",[0],The speaker identifies more with <br>Mike than Kate,The speaker identifies more with<br>Kate than Mike,left_to_right
null,Somebody says<br><em>Fred is hiring Ruth,NA,NA,NA,html-keyboard-response,67,535684,0.0-37.0-0.0,anomymised,6560c4db814364f7465ce092,65644e7127dc5d95e0cae86f,1253,1A,woman,NA,null,M3 is hiring W1,hire,sentence,NA,NA,NA,NA,NA
14893,NA,NA,NA,NA,survey-likert-extra-labels,68,550576,0.0-37.0-1.0,anomymised,6560c4db814364f7465ce092,65644e7127dc5d95e0cae86f,1253,1A,woman,NA,NA,Somebody says<br><em>Fred is hiring Ruth,hire,rating_volition,"{""Q0"":0}",[0],Fred is employing Ruth,Ruth is employing Fred,NA
null,Somebody says<br><em>Luke is shouting at Beth</em>,NA,NA,NA,html-keyboard-response,69,552588,0.0-38.0-0.0,anomymised,6560c4db814364f7465ce092,65644e7127dc5d95e0cae86f,1253,1A,woman,NA,null,NAME1 is shouting at NAME2,shout_active,sentence,NA,NA,NA,NA,NA
8626,NA,NA,NA,NA,survey-likert-extra-labels,70,561216,0.0-38.0-1.0,anomymised,6560c4db814364f7465ce092,65644e7127dc5d95e0cae86f,1253,1A,woman,NA,NA,Somebody says<br><em>Luke is shouting at Beth</em>,shout_active,rating_volition,"{""Q0"":3}",[0],The speaker identifies more with <br>Luke than Beth,The speaker identifies more with<br>Beth than Luke,left_to_right
null,Somebody says<br><em>Mike is reminding Beth,NA,NA,NA,html-keyboard-response,71,563226,0.0-39.0-0.0,anomymised,6560c4db814364f7465ce092,65644e7127dc5d95e0cae86f,1253,1A,woman,NA,null,M2 is reminding W4,remind,sentence,NA,NA,NA,NA,NA
10896,NA,NA,NA,NA,survey-likert-extra-labels,72,574123,0.0-39.0-1.0,anomymised,6560c4db814364f7465ce092,65644e7127dc5d95e0cae86f,1253,1A,woman,NA,NA,Somebody says<br><em>Mike is reminding Beth,remind,rating_volition,"{""Q0"":0}",[0],Mike is telling Beth again,Beth is telling Mike again,NA
null,Somebody says<br><em>Mike is posing for Dave,NA,NA,NA,html-keyboard-response,73,576137,0.0-40.0-0.0,anomymised,6560c4db814364f7465ce092,65644e7127dc5d95e0cae86f,1253,1A,woman,NA,null,M2 is posing for M4,pose,sentence,NA,NA,NA,NA,NA
6772,NA,NA,NA,NA,survey-likert-extra-labels,74,582910,0.0-40.0-1.0,anomymised,6560c4db814364f7465ce092,65644e7127dc5d95e0cae86f,1253,1A,woman,NA,NA,Somebody says<br><em>Mike is posing for Dave,pose,rating_volition,"{""Q0"":0}",[0],Mike is modelling for Dave,Dave is modelling for Mike,NA
null,Somebody says<br><em>Ruth and Mike are talking with each other</em>,NA,NA,NA,html-keyboard-response,75,584920,0.0-41.0-0.0,anomymised,6560c4db814364f7465ce092,65644e7127dc5d95e0cae86f,1253,1A,woman,NA,null,NAME1 and NAME2 are talking with each other,talk_conjoined,sentence,NA,NA,NA,NA,NA
6635,NA,NA,NA,NA,survey-likert-extra-labels,76,591556,0.0-41.0-1.0,anomymised,6560c4db814364f7465ce092,65644e7127dc5d95e0cae86f,1253,1A,woman,NA,NA,Somebody says<br><em>Ruth and Mike are talking with each other</em>,talk_conjoined,rating_volition,"{""Q0"":0}",[0],The speaker identifies more with <br>Ruth than Mike,The speaker identifies more with<br>Mike than Ruth,left_to_right
null,Somebody says<br><em>Ruth is dancing with Dave</em>,NA,NA,NA,html-keyboard-response,77,593559,0.0-42.0-0.0,anomymised,6560c4db814364f7465ce092,65644e7127dc5d95e0cae86f,1253,1A,woman,NA,null,NAME1 is dancing with NAME2,dance_active,sentence,NA,NA,NA,NA,NA
6155,NA,NA,NA,NA,survey-likert-extra-labels,78,599715,0.0-42.0-1.0,anomymised,6560c4db814364f7465ce092,65644e7127dc5d95e0cae86f,1253,1A,woman,NA,NA,Somebody says<br><em>Ruth is dancing with Dave</em>,dance_active,rating_volition,"{""Q0"":0}",[0],The speaker identifies more with <br>Ruth than Dave,The speaker identifies more with<br>Dave than Ruth,left_to_right
null,Somebody says<br><em>Mike and Ruth are kissing each other</em>,NA,NA,NA,html-keyboard-response,79,601719,0.0-43.0-0.0,anomymised,6560c4db814364f7465ce092,65644e7127dc5d95e0cae86f,1253,1A,woman,NA,null,NAME1 and NAME2 are kissing each other,kiss_conjoined,sentence,NA,NA,NA,NA,NA
11735,NA,NA,NA,NA,survey-likert-extra-labels,80,613456,0.0-43.0-1.0,anomymised,6560c4db814364f7465ce092,65644e7127dc5d95e0cae86f,1253,1A,woman,NA,NA,Somebody says<br><em>Mike and Ruth are kissing each other</em>,kiss_conjoined,rating_volition,"{""Q0"":4}",[0],The speaker identifies more with <br>Ruth than Mike,The speaker identifies more with<br>Mike than Ruth,right_to_left
null,Somebody says<br><em>Dave is being shouted at by Jane</em>,NA,NA,NA,html-keyboard-response,81,615460,0.0-44.0-0.0,anomymised,6560c4db814364f7465ce092,65644e7127dc5d95e0cae86f,1253,1A,woman,NA,null,NAME1 is being shouted at by NAME2,shout_passive,sentence,NA,NA,NA,NA,NA
9623,NA,NA,NA,NA,survey-likert-extra-labels,82,625084,0.0-44.0-1.0,anomymised,6560c4db814364f7465ce092,65644e7127dc5d95e0cae86f,1253,1A,woman,NA,NA,Somebody says<br><em>Dave is being shouted at by Jane</em>,shout_passive,rating_volition,"{""Q0"":0}",[0],The speaker identifies more with <br>Dave than Jane,The speaker identifies more with<br>Jane than Dave,left_to_right
null,Somebody says<br><em>Ruth is shouting at Mike</em>,NA,NA,NA,html-keyboard-response,83,627225,0.0-45.0-0.0,anomymised,6560c4db814364f7465ce092,65644e7127dc5d95e0cae86f,1253,1A,woman,NA,null,NAME1 is shouting at NAME2,shout_active,sentence,NA,NA,NA,NA,NA
6001,NA,NA,NA,NA,survey-likert-extra-labels,84,633227,0.0-45.0-1.0,anomymised,6560c4db814364f7465ce092,65644e7127dc5d95e0cae86f,1253,1A,woman,NA,NA,Somebody says<br><em>Ruth is shouting at Mike</em>,shout_active,rating_volition,"{""Q0"":0}",[0],The speaker identifies more with <br>Ruth than Mike,The speaker identifies more with<br>Mike than Ruth,left_to_right
null,Somebody says<br><em>Kate is being hugged by Luke</em>,NA,NA,NA,html-keyboard-response,85,635234,0.0-46.0-0.0,anomymised,6560c4db814364f7465ce092,65644e7127dc5d95e0cae86f,1253,1A,woman,NA,null,NAME1 is being hugged by NAME2,hug_passive,sentence,NA,NA,NA,NA,NA
7486,NA,NA,NA,NA,survey-likert-extra-labels,86,642722,0.0-46.0-1.0,anomymised,6560c4db814364f7465ce092,65644e7127dc5d95e0cae86f,1253,1A,woman,NA,NA,Somebody says<br><em>Kate is being hugged by Luke</em>,hug_passive,rating_volition,"{""Q0"":2}",[0],The speaker identifies more with <br>Kate than Luke,The speaker identifies more with<br>Luke than Kate,left_to_right
null,Somebody says<br><em>Jane and Mike are arguing with each other</em>,NA,NA,NA,html-keyboard-response,87,644726,0.0-47.0-0.0,anomymised,6560c4db814364f7465ce092,65644e7127dc5d95e0cae86f,1253,1A,woman,NA,null,NAME1 and NAME2 are arguing with each other,argue_conjoined,sentence,NA,NA,NA,NA,NA
4243,NA,NA,NA,NA,survey-likert-extra-labels,88,648970,0.0-47.0-1.0,anomymised,6560c4db814364f7465ce092,65644e7127dc5d95e0cae86f,1253,1A,woman,NA,NA,Somebody says<br><em>Jane and Mike are arguing with each other</em>,argue_conjoined,rating_volition,"{""Q0"":3}",[0],The speaker identifies more with <br>Jane than Mike,The speaker identifies more with<br>Mike than Jane,left_to_right
null,Somebody says<br><em>Mike and Dave are playing with each other</em>,NA,NA,NA,html-keyboard-response,89,650983,0.0-48.0-0.0,anomymised,6560c4db814364f7465ce092,65644e7127dc5d95e0cae86f,1253,1A,woman,NA,null,NAME1 and NAME2 are playing with each other,play_conjoined,sentence,NA,NA,NA,NA,NA
4677,NA,NA,NA,NA,survey-likert-extra-labels,90,655660,0.0-48.0-1.0,anomymised,6560c4db814364f7465ce092,65644e7127dc5d95e0cae86f,1253,1A,woman,NA,NA,Somebody says<br><em>Mike and Dave are playing with each other</em>,play_conjoined,rating_volition,"{""Q0"":3}",[0],The speaker identifies more with <br>Mike than Dave,The speaker identifies more with<br>Dave than Mike,left_to_right
null,Somebody says<br><em>Beth is being touched by Jane</em>,NA,NA,NA,html-keyboard-response,91,657675,0.0-49.0-0.0,anomymised,6560c4db814364f7465ce092,65644e7127dc5d95e0cae86f,1253,1A,woman,NA,null,NAME1 is being touched by NAME2,touch_passive,sentence,NA,NA,NA,NA,NA
18972,NA,NA,NA,NA,survey-likert-extra-labels,92,676647,0.0-49.0-1.0,anomymised,6560c4db814364f7465ce092,65644e7127dc5d95e0cae86f,1253,1A,woman,NA,NA,Somebody says<br><em>Beth is being touched by Jane</em>,touch_passive,rating_volition,"{""Q0"":6}",[0],The speaker identifies more with <br>Jane than Beth,The speaker identifies more with<br>Beth than Jane,right_to_left
null,Somebody says<br><em>Beth is kissing Ruth</em>,NA,NA,NA,html-keyboard-response,93,678754,0.0-50.0-0.0,anomymised,6560c4db814364f7465ce092,65644e7127dc5d95e0cae86f,1253,1A,woman,NA,null,NAME1 is kissing NAME2,kiss_active,sentence,NA,NA,NA,NA,NA
4623,NA,NA,NA,NA,survey-likert-extra-labels,94,683377,0.0-50.0-1.0,anomymised,6560c4db814364f7465ce092,65644e7127dc5d95e0cae86f,1253,1A,woman,NA,NA,Somebody says<br><em>Beth is kissing Ruth</em>,kiss_active,rating_volition,"{""Q0"":6}",[0],The speaker identifies more with <br>Ruth than Beth,The speaker identifies more with<br>Beth than Ruth,right_to_left
null,Somebody says<br><em>Kate is being greeted by Dave</em>,NA,NA,NA,html-keyboard-response,95,685380,0.0-51.0-0.0,anomymised,6560c4db814364f7465ce092,65644e7127dc5d95e0cae86f,1253,1A,woman,NA,null,NAME1 is being greeted by NAME2,greet_passive,sentence,NA,NA,NA,NA,NA
51345,NA,NA,NA,NA,survey-likert-extra-labels,96,736725,0.0-51.0-1.0,anomymised,6560c4db814364f7465ce092,65644e7127dc5d95e0cae86f,1253,1A,woman,NA,NA,Somebody says<br><em>Kate is being greeted by Dave</em>,greet_passive,rating_volition,"{""Q0"":6}",[0],The speaker identifies more with <br>Dave than Kate,The speaker identifies more with<br>Kate than Dave,right_to_left
null,Somebody says<br><em>Mike and Jane are hugging each other</em>,NA,NA,NA,html-keyboard-response,97,738939,0.0-52.0-0.0,anomymised,6560c4db814364f7465ce092,65644e7127dc5d95e0cae86f,1253,1A,woman,NA,null,NAME1 and NAME2 are hugging each other,hug_conjoined,sentence,NA,NA,NA,NA,NA
14582,NA,NA,NA,NA,survey-likert-extra-labels,98,753520,0.0-52.0-1.0,anomymised,6560c4db814364f7465ce092,65644e7127dc5d95e0cae86f,1253,1A,woman,NA,NA,Somebody says<br><em>Mike and Jane are hugging each other</em>,hug_conjoined,rating_volition,"{""Q0"":3}",[0],The speaker identifies more with <br>Jane than Mike,The speaker identifies more with<br>Mike than Jane,right_to_left
null,Somebody says<br><em>Jane is being seduced by Beth</em>,NA,NA,NA,html-keyboard-response,99,755533,0.0-53.0-0.0,anomymised,6560c4db814364f7465ce092,65644e7127dc5d95e0cae86f,1253,1A,woman,NA,null,NAME1 is being seduced by NAME2,seduce_passive,sentence,NA,NA,NA,NA,NA
5845,NA,NA,NA,NA,survey-likert-extra-labels,100,761378,0.0-53.0-1.0,anomymised,6560c4db814364f7465ce092,65644e7127dc5d95e0cae86f,1253,1A,woman,NA,NA,Somebody says<br><em>Jane is being seduced by Beth</em>,seduce_passive,rating_volition,"{""Q0"":6}",[0],The speaker identifies more with <br>Beth than Jane,The speaker identifies more with<br>Jane than Beth,right_to_left
null,Somebody says<br><em>Luke is driving Fred,NA,NA,NA,html-keyboard-response,101,763389,0.0-54.0-0.0,anomymised,6560c4db814364f7465ce092,65644e7127dc5d95e0cae86f,1253,1A,woman,NA,null,M1 is driving M3,drive,sentence,NA,NA,NA,NA,NA
7995,NA,NA,NA,NA,survey-likert-extra-labels,102,771384,0.0-54.0-1.0,anomymised,6560c4db814364f7465ce092,65644e7127dc5d95e0cae86f,1253,1A,woman,NA,NA,Somebody says<br><em>Luke is driving Fred,drive,rating_volition,"{""Q0"":6}",[0],Luke is Fred's passenger,Fred is Luke's passenger,NA
null,Somebody says<br><em>Jane is opposing Kate</em>,NA,NA,NA,html-keyboard-response,103,773447,0.0-55.0-0.0,anomymised,6560c4db814364f7465ce092,65644e7127dc5d95e0cae86f,1253,1A,woman,NA,null,NAME1 is opposing NAME2,oppose_active,sentence,NA,NA,NA,NA,NA
7029,NA,NA,NA,NA,survey-likert-extra-labels,104,780477,0.0-55.0-1.0,anomymised,6560c4db814364f7465ce092,65644e7127dc5d95e0cae86f,1253,1A,woman,NA,NA,Somebody says<br><em>Jane is opposing Kate</em>,oppose_active,rating_volition,"{""Q0"":0}",[0],The speaker identifies more with <br>Jane than Kate,The speaker identifies more with<br>Kate than Jane,left_to_right
2266,<p>Thank you for completing that task.</p><p>The final part of this session is a short questionnaire.</p><p>Press Continue.</p>,0,Continue,Continue,html-button-response,105,782743,0.0-56.0,anomymised,6560c4db814364f7465ce092,65644e7127dc5d95e0cae86f,1253,1A,woman,NA,NA,NA,NA,NA,NA,NA,NA,NA,NA
21436,NA,NA,NA,NA,survey-text,106,805187,0.0-57.0,anomymised,6560c4db814364f7465ce092,65644e7127dc5d95e0cae86f,1253,1A,woman,NA,NA,NA,NA,demographics,"{""Q0"":""31"",""Q1"":""English"",""Q2"":""English"",""Q3"":""Scotland"",""Q4"":""Scottish"",""Q5"":""White"",""Q6"":""Female""}",NA,NA,NA,NA
2167,<p>This is the last question - thank you for taking part! Have you lived in the UK for the last 5 years or more?</p>,0,"Yes,No",Yes,html-button-response,107,807355,0.0-58.0,anomymised,6560c4db814364f7465ce092,65644e7127dc5d95e0cae86f,1253,1A,woman,NA,NA,NA,NA,fiveyears,NA,NA,NA,NA,NA
