rt,stimulus,button_pressed,choices,ChosenStimulus,trial_type,trial_index,time_elapsed,internal_node_id,subject_id,study_id,session_id,subject,list,ppt_gender,url,key_press,sentence_type,verb,test_part,responses,question_order,left_part,right_part,name_order
2097.399999976158,Welcome to the experiment. Press Continue to begin.,0,Continue,Continue,html-button-response,0,2100,0.0-0.0,anomymised,6564584152624795c40b73cb,65645eb43de7f9dbf5928590,14353,1A,woman,NA,NA,NA,NA,NA,NA,NA,NA,NA,NA
23627,NA,NA,NA,NA,external-html,1,26829,0.0-1.0,anomymised,6564584152624795c40b73cb,65645eb43de7f9dbf5928590,14353,1A,woman,consent.html,NA,NA,NA,NA,NA,NA,NA,NA,NA
21983.099999964237,"<p>Welcome.</p><p>In this experiment we will ask you to imagine people's motivations for saying sentences.</p><p>Each trial will begin with a sentence that somebody might say to describe an event involving two different people.</p><p>For instance, someone might say <em>Harry is being recruited by Molly</em></p><p>We want you to think about which of those two people (Molly and Harry) the speaker identifies more with. For instance, why did the speaker say <em>Harry is being recruited by Molly</em> rather than <em> Molly is recruiting Harry</em>? Might that mean that the speaker is socially closer to one of the two characters?</p><p>After you have read the sentence, you will rate on a scale which of the two characters the speaker identifies more with.</p><p>You will give your answer by clicking a button on a rating scale.</p><p>Sometimes there will also be catch questions designed to make sure that you are paying attention, which ask about a different topic.</p><p>To do this task, you will have to use your imagination to think about and visualise the events, and how the speaker might relate to the characters.</p><br><p>Ready?</p>",0,Continue,Continue,html-button-response,2,48813,0.0-2.0,anomymised,6564584152624795c40b73cb,65645eb43de7f9dbf5928590,14353,1A,woman,NA,NA,NA,NA,NA,NA,NA,NA,NA,NA
2310.5,"<p>Before the experiment starts, we will show you an example of how you will answer the questions. Press 'Continue'.</p>",0,Continue,Continue,html-button-response,3,52133,0.0-3.0,anomymised,6564584152624795c40b73cb,65645eb43de7f9dbf5928590,14353,1A,woman,NA,NA,NA,NA,NA,NA,NA,NA,NA,NA
null,Somebody says <br><em>Samuel is dining with Frank</em>,NA,NA,NA,html-keyboard-response,4,55164,0.0-4.0,anomymised,6564584152624795c40b73cb,65645eb43de7f9dbf5928590,14353,1A,woman,NA,null,NA,NA,NA,NA,NA,NA,NA,NA
16944.80000001192,<img src='img/Example-trial.jpg' style='height:550px;''></img>,0,Continue,Continue,html-button-response,5,72115,0.0-5.0,anomymised,6564584152624795c40b73cb,65645eb43de7f9dbf5928590,14353,1A,woman,NA,NA,NA,NA,NA,NA,NA,NA,NA,NA
2120.7999999523163,<p>Ready to start the experiment?</p><br><p><strong>Remember to give an answer by clicking a button on the rating scale.</strong></p><p>Press 'Continue' to begin.</p>,0,Continue,Continue,html-button-response,6,75242,0.0-6.0,anomymised,6564584152624795c40b73cb,65645eb43de7f9dbf5928590,14353,1A,woman,NA,NA,NA,NA,NA,NA,NA,NA,NA,NA
null,Somebody says<br><em>Ruth is being looked at by Fred</em>,NA,NA,NA,html-keyboard-response,7,78257,0.0-7.0-0.0,anomymised,6564584152624795c40b73cb,65645eb43de7f9dbf5928590,14353,1A,woman,NA,null,NAME1 is being looked at by NAME2,look_passive,sentence,NA,NA,NA,NA,NA
22793.100000023842,NA,NA,NA,NA,survey-likert-extra-labels,8,101053,0.0-7.0-1.0,anomymised,6564584152624795c40b73cb,65645eb43de7f9dbf5928590,14353,1A,woman,NA,NA,Somebody says<br><em>Ruth is being looked at by Fred</em>,look_passive,rating_volition,"{""Q0"":5}",[0],The speaker identifies more with <br>Fred than Ruth,The speaker identifies more with<br>Ruth than Fred,right_to_left
null,Somebody says<br><em>Jane is carrying Beth,NA,NA,NA,html-keyboard-response,9,103063,0.0-8.0-0.0,anomymised,6564584152624795c40b73cb,65645eb43de7f9dbf5928590,14353,1A,woman,NA,null,W2 is carrying W4,carry,sentence,NA,NA,NA,NA,NA
10780.100000023842,NA,NA,NA,NA,survey-likert-extra-labels,10,113845,0.0-8.0-1.0,anomymised,6564584152624795c40b73cb,65645eb43de7f9dbf5928590,14353,1A,woman,NA,NA,Somebody says<br><em>Jane is carrying Beth,carry,rating_volition,"{""Q0"":1}",[0],Jane is transporting Beth,Beth is transporting Jane,NA
null,Somebody says<br><em>Ruth is challenging Beth</em>,NA,NA,NA,html-keyboard-response,11,115851,0.0-9.0-0.0,anomymised,6564584152624795c40b73cb,65645eb43de7f9dbf5928590,14353,1A,woman,NA,null,NAME1 is challenging NAME2,challenge_active,sentence,NA,NA,NA,NA,NA
9096.5,NA,NA,NA,NA,survey-likert-extra-labels,12,124949,0.0-9.0-1.0,anomymised,6564584152624795c40b73cb,65645eb43de7f9dbf5928590,14353,1A,woman,NA,NA,Somebody says<br><em>Ruth is challenging Beth</em>,challenge_active,rating_volition,"{""Q0"":5}",[0],The speaker identifies more with <br>Ruth than Beth,The speaker identifies more with<br>Beth than Ruth,left_to_right
null,Somebody says<br><em>Kate is being seduced by Luke</em>,NA,NA,NA,html-keyboard-response,13,126961,0.0-10.0-0.0,anomymised,6564584152624795c40b73cb,65645eb43de7f9dbf5928590,14353,1A,woman,NA,null,NAME1 is being seduced by NAME2,seduce_passive,sentence,NA,NA,NA,NA,NA
6114.300000011921,NA,NA,NA,NA,survey-likert-extra-labels,14,133077,0.0-10.0-1.0,anomymised,6564584152624795c40b73cb,65645eb43de7f9dbf5928590,14353,1A,woman,NA,NA,Somebody says<br><em>Kate is being seduced by Luke</em>,seduce_passive,rating_volition,"{""Q0"":1}",[0],The speaker identifies more with <br>Kate than Luke,The speaker identifies more with<br>Luke than Kate,left_to_right
null,Somebody says<br><em>Luke is touching Beth</em>,NA,NA,NA,html-keyboard-response,15,135093,0.0-11.0-0.0,anomymised,6564584152624795c40b73cb,65645eb43de7f9dbf5928590,14353,1A,woman,NA,null,NAME1 is touching NAME2,touch_active,sentence,NA,NA,NA,NA,NA
7886.799999952316,NA,NA,NA,NA,survey-likert-extra-labels,16,142982,0.0-11.0-1.0,anomymised,6564584152624795c40b73cb,65645eb43de7f9dbf5928590,14353,1A,woman,NA,NA,Somebody says<br><em>Luke is touching Beth</em>,touch_active,rating_volition,"{""Q0"":5}",[0],The speaker identifies more with <br>Luke than Beth,The speaker identifies more with<br>Beth than Luke,left_to_right
null,Somebody says<br><em>Beth is looking at Jane</em>,NA,NA,NA,html-keyboard-response,17,144998,0.0-12.0-0.0,anomymised,6564584152624795c40b73cb,65645eb43de7f9dbf5928590,14353,1A,woman,NA,null,NAME1 is looking at NAME2,look_active,sentence,NA,NA,NA,NA,NA
10566.399999976158,NA,NA,NA,NA,survey-likert-extra-labels,18,155566,0.0-12.0-1.0,anomymised,6564584152624795c40b73cb,65645eb43de7f9dbf5928590,14353,1A,woman,NA,NA,Somebody says<br><em>Beth is looking at Jane</em>,look_active,rating_volition,"{""Q0"":5}",[0],The speaker identifies more with <br>Jane than Beth,The speaker identifies more with<br>Beth than Jane,right_to_left
null,Somebody says<br><em>Kate and Jane are meeting each other</em>,NA,NA,NA,html-keyboard-response,19,157575,0.0-13.0-0.0,anomymised,6564584152624795c40b73cb,65645eb43de7f9dbf5928590,14353,1A,woman,NA,null,NAME1 and NAME2 are meeting each other,meet_conjoined,sentence,NA,NA,NA,NA,NA
4014.400000035763,NA,NA,NA,NA,survey-likert-extra-labels,20,161591,0.0-13.0-1.0,anomymised,6564584152624795c40b73cb,65645eb43de7f9dbf5928590,14353,1A,woman,NA,NA,Somebody says<br><em>Kate and Jane are meeting each other</em>,meet_conjoined,rating_volition,"{""Q0"":3}",[0],The speaker identifies more with <br>Jane than Kate,The speaker identifies more with<br>Kate than Jane,right_to_left
null,Somebody says<br><em>Luke is arguing with Mike</em>,NA,NA,NA,html-keyboard-response,21,163598,0.0-14.0-0.0,anomymised,6564584152624795c40b73cb,65645eb43de7f9dbf5928590,14353,1A,woman,NA,null,NAME1 is arguing with NAME2,argue_active,sentence,NA,NA,NA,NA,NA
5022.699999988079,NA,NA,NA,NA,survey-likert-extra-labels,22,168623,0.0-14.0-1.0,anomymised,6564584152624795c40b73cb,65645eb43de7f9dbf5928590,14353,1A,woman,NA,NA,Somebody says<br><em>Luke is arguing with Mike</em>,argue_active,rating_volition,"{""Q0"":5}",[0],The speaker identifies more with <br>Mike than Luke,The speaker identifies more with<br>Luke than Mike,right_to_left
null,Somebody says<br><em>Luke and Mike are dancing with each other</em>,NA,NA,NA,html-keyboard-response,23,170629,0.0-15.0-0.0,anomymised,6564584152624795c40b73cb,65645eb43de7f9dbf5928590,14353,1A,woman,NA,null,NAME1 and NAME2 are dancing with each other,dance_conjoined,sentence,NA,NA,NA,NA,NA
1760.5999999642372,NA,NA,NA,NA,survey-likert-extra-labels,24,172391,0.0-15.0-1.0,anomymised,6564584152624795c40b73cb,65645eb43de7f9dbf5928590,14353,1A,woman,NA,NA,Somebody says<br><em>Luke and Mike are dancing with each other</em>,dance_conjoined,rating_volition,"{""Q0"":3}",[0],The speaker identifies more with <br>Mike than Luke,The speaker identifies more with<br>Luke than Mike,right_to_left
null,Somebody says<br><em>Ruth and Kate are fighting with each other</em>,NA,NA,NA,html-keyboard-response,25,174393,0.0-16.0-0.0,anomymised,6564584152624795c40b73cb,65645eb43de7f9dbf5928590,14353,1A,woman,NA,null,NAME1 and NAME2 are fighting with each other,fight_conjoined,sentence,NA,NA,NA,NA,NA
1974,NA,NA,NA,NA,survey-likert-extra-labels,26,176369,0.0-16.0-1.0,anomymised,6564584152624795c40b73cb,65645eb43de7f9dbf5928590,14353,1A,woman,NA,NA,Somebody says<br><em>Ruth and Kate are fighting with each other</em>,fight_conjoined,rating_volition,"{""Q0"":3}",[0],The speaker identifies more with <br>Kate than Ruth,The speaker identifies more with<br>Ruth than Kate,right_to_left
null,Somebody says<br><em>Luke is being shouted at by Kate</em>,NA,NA,NA,html-keyboard-response,27,178382,0.0-17.0-0.0,anomymised,6564584152624795c40b73cb,65645eb43de7f9dbf5928590,14353,1A,woman,NA,null,NAME1 is being shouted at by NAME2,shout_passive,sentence,NA,NA,NA,NA,NA
4023.699999988079,NA,NA,NA,NA,survey-likert-extra-labels,28,182407,0.0-17.0-1.0,anomymised,6564584152624795c40b73cb,65645eb43de7f9dbf5928590,14353,1A,woman,NA,NA,Somebody says<br><em>Luke is being shouted at by Kate</em>,shout_passive,rating_volition,"{""Q0"":0}",[0],The speaker identifies more with <br>Luke than Kate,The speaker identifies more with<br>Kate than Luke,left_to_right
null,Somebody says<br><em>Ruth and Beth are arguing with each other</em>,NA,NA,NA,html-keyboard-response,29,184413,0.0-18.0-0.0,anomymised,6564584152624795c40b73cb,65645eb43de7f9dbf5928590,14353,1A,woman,NA,null,NAME1 and NAME2 are arguing with each other,argue_conjoined,sentence,NA,NA,NA,NA,NA
1823.199999988079,NA,NA,NA,NA,survey-likert-extra-labels,30,186238,0.0-18.0-1.0,anomymised,6564584152624795c40b73cb,65645eb43de7f9dbf5928590,14353,1A,woman,NA,NA,Somebody says<br><em>Ruth and Beth are arguing with each other</em>,argue_conjoined,rating_volition,"{""Q0"":3}",[0],The speaker identifies more with <br>Beth than Ruth,The speaker identifies more with<br>Ruth than Beth,right_to_left
null,Somebody says<br><em>Fred is shouting at Kate</em>,NA,NA,NA,html-keyboard-response,31,188250,0.0-19.0-0.0,anomymised,6564584152624795c40b73cb,65645eb43de7f9dbf5928590,14353,1A,woman,NA,null,NAME1 is shouting at NAME2,shout_active,sentence,NA,NA,NA,NA,NA
3171,NA,NA,NA,NA,survey-likert-extra-labels,32,191422,0.0-19.0-1.0,anomymised,6564584152624795c40b73cb,65645eb43de7f9dbf5928590,14353,1A,woman,NA,NA,Somebody says<br><em>Fred is shouting at Kate</em>,shout_active,rating_volition,"{""Q0"":6}",[0],The speaker identifies more with <br>Fred than Kate,The speaker identifies more with<br>Kate than Fred,left_to_right
null,Somebody says<br><em>Jane and Dave are playing with each other</em>,NA,NA,NA,html-keyboard-response,33,193425,0.0-20.0-0.0,anomymised,6564584152624795c40b73cb,65645eb43de7f9dbf5928590,14353,1A,woman,NA,null,NAME1 and NAME2 are playing with each other,play_conjoined,sentence,NA,NA,NA,NA,NA
1652.300000011921,NA,NA,NA,NA,survey-likert-extra-labels,34,195078,0.0-20.0-1.0,anomymised,6564584152624795c40b73cb,65645eb43de7f9dbf5928590,14353,1A,woman,NA,NA,Somebody says<br><em>Jane and Dave are playing with each other</em>,play_conjoined,rating_volition,"{""Q0"":3}",[0],The speaker identifies more with <br>Dave than Jane,The speaker identifies more with<br>Jane than Dave,right_to_left
null,Somebody says<br><em>Jane is playing with Dave</em>,NA,NA,NA,html-keyboard-response,35,197084,0.0-21.0-0.0,anomymised,6564584152624795c40b73cb,65645eb43de7f9dbf5928590,14353,1A,woman,NA,null,NAME1 is playing with NAME2,play_active,sentence,NA,NA,NA,NA,NA
5888.800000011921,NA,NA,NA,NA,survey-likert-extra-labels,36,202974,0.0-21.0-1.0,anomymised,6564584152624795c40b73cb,65645eb43de7f9dbf5928590,14353,1A,woman,NA,NA,Somebody says<br><em>Jane is playing with Dave</em>,play_active,rating_volition,"{""Q0"":0}",[0],The speaker identifies more with <br>Dave than Jane,The speaker identifies more with<br>Jane than Dave,right_to_left
null,Somebody says<br><em>Kate is seducing Dave</em>,NA,NA,NA,html-keyboard-response,37,204986,0.0-22.0-0.0,anomymised,6564584152624795c40b73cb,65645eb43de7f9dbf5928590,14353,1A,woman,NA,null,NAME1 is seducing NAME2,seduce_active,sentence,NA,NA,NA,NA,NA
2900.300000011921,NA,NA,NA,NA,survey-likert-extra-labels,38,207887,0.0-22.0-1.0,anomymised,6564584152624795c40b73cb,65645eb43de7f9dbf5928590,14353,1A,woman,NA,NA,Somebody says<br><em>Kate is seducing Dave</em>,seduce_active,rating_volition,"{""Q0"":0}",[0],The speaker identifies more with <br>Dave than Kate,The speaker identifies more with<br>Kate than Dave,right_to_left
null,Somebody says<br><em>Ruth is marrying Kate</em>,NA,NA,NA,html-keyboard-response,39,209892,0.0-23.0-0.0,anomymised,6564584152624795c40b73cb,65645eb43de7f9dbf5928590,14353,1A,woman,NA,null,NAME1 is marrying NAME2,marry_active,sentence,NA,NA,NA,NA,NA
10297.599999964237,NA,NA,NA,NA,survey-likert-extra-labels,40,220191,0.0-23.0-1.0,anomymised,6564584152624795c40b73cb,65645eb43de7f9dbf5928590,14353,1A,woman,NA,NA,Somebody says<br><em>Ruth is marrying Kate</em>,marry_active,rating_volition,"{""Q0"":1}",[0],The speaker identifies more with <br>Ruth than Kate,The speaker identifies more with<br>Kate than Ruth,left_to_right
null,Somebody says<br><em>Mike is shouting at Fred</em>,NA,NA,NA,html-keyboard-response,41,222197,0.0-24.0-0.0,anomymised,6564584152624795c40b73cb,65645eb43de7f9dbf5928590,14353,1A,woman,NA,null,NAME1 is shouting at NAME2,shout_active,sentence,NA,NA,NA,NA,NA
3137.7999999523163,NA,NA,NA,NA,survey-likert-extra-labels,42,225336,0.0-24.0-1.0,anomymised,6564584152624795c40b73cb,65645eb43de7f9dbf5928590,14353,1A,woman,NA,NA,Somebody says<br><em>Mike is shouting at Fred</em>,shout_active,rating_volition,"{""Q0"":0}",[0],The speaker identifies more with <br>Fred than Mike,The speaker identifies more with<br>Mike than Fred,right_to_left
null,Somebody says<br><em>Kate is being hugged by Luke</em>,NA,NA,NA,html-keyboard-response,43,227351,0.0-25.0-0.0,anomymised,6564584152624795c40b73cb,65645eb43de7f9dbf5928590,14353,1A,woman,NA,null,NAME1 is being hugged by NAME2,hug_passive,sentence,NA,NA,NA,NA,NA
6671.099999964237,NA,NA,NA,NA,survey-likert-extra-labels,44,234024,0.0-25.0-1.0,anomymised,6564584152624795c40b73cb,65645eb43de7f9dbf5928590,14353,1A,woman,NA,NA,Somebody says<br><em>Kate is being hugged by Luke</em>,hug_passive,rating_volition,"{""Q0"":5}",[0],The speaker identifies more with <br>Luke than Kate,The speaker identifies more with<br>Kate than Luke,right_to_left
null,Somebody says<br><em>Ruth is being challenged by Dave</em>,NA,NA,NA,html-keyboard-response,45,236031,0.0-26.0-0.0,anomymised,6564584152624795c40b73cb,65645eb43de7f9dbf5928590,14353,1A,woman,NA,null,NAME1 is being challenged by NAME2,challenge_passive,sentence,NA,NA,NA,NA,NA
2671.600000023842,NA,NA,NA,NA,survey-likert-extra-labels,46,238704,0.0-26.0-1.0,anomymised,6564584152624795c40b73cb,65645eb43de7f9dbf5928590,14353,1A,woman,NA,NA,Somebody says<br><em>Ruth is being challenged by Dave</em>,challenge_passive,rating_volition,"{""Q0"":5}",[0],The speaker identifies more with <br>Dave than Ruth,The speaker identifies more with<br>Ruth than Dave,right_to_left
null,Somebody says<br><em>Jane is being copied by Ruth</em>,NA,NA,NA,html-keyboard-response,47,240721,0.0-27.0-0.0,anomymised,6564584152624795c40b73cb,65645eb43de7f9dbf5928590,14353,1A,woman,NA,null,NAME1 is being copied by NAME2,copy_passive,sentence,NA,NA,NA,NA,NA
6477.400000035763,NA,NA,NA,NA,survey-likert-extra-labels,48,247201,0.0-27.0-1.0,anomymised,6564584152624795c40b73cb,65645eb43de7f9dbf5928590,14353,1A,woman,NA,NA,Somebody says<br><em>Jane is being copied by Ruth</em>,copy_passive,rating_volition,"{""Q0"":1}",[0],The speaker identifies more with <br>Jane than Ruth,The speaker identifies more with<br>Ruth than Jane,left_to_right
null,Somebody says<br><em>Fred is greeting Ruth</em>,NA,NA,NA,html-keyboard-response,49,249211,0.0-28.0-0.0,anomymised,6564584152624795c40b73cb,65645eb43de7f9dbf5928590,14353,1A,woman,NA,null,NAME1 is greeting NAME2,greet_active,sentence,NA,NA,NA,NA,NA
22925.30000001192,NA,NA,NA,NA,survey-likert-extra-labels,50,272138,0.0-28.0-1.0,anomymised,6564584152624795c40b73cb,65645eb43de7f9dbf5928590,14353,1A,woman,NA,NA,Somebody says<br><em>Fred is greeting Ruth</em>,greet_active,rating_volition,"{""Q0"":5}",[0],The speaker identifies more with <br>Fred than Ruth,The speaker identifies more with<br>Ruth than Fred,left_to_right
null,Somebody says<br><em>Jane is being kissed by Kate</em>,NA,NA,NA,html-keyboard-response,51,274155,0.0-29.0-0.0,anomymised,6564584152624795c40b73cb,65645eb43de7f9dbf5928590,14353,1A,woman,NA,null,NAME1 is being kissed by NAME2,kiss_passive,sentence,NA,NA,NA,NA,NA
7413.699999988079,NA,NA,NA,NA,survey-likert-extra-labels,52,281570,0.0-29.0-1.0,anomymised,6564584152624795c40b73cb,65645eb43de7f9dbf5928590,14353,1A,woman,NA,NA,Somebody says<br><em>Jane is being kissed by Kate</em>,kiss_passive,rating_volition,"{""Q0"":5}",[0],The speaker identifies more with <br>Kate than Jane,The speaker identifies more with<br>Jane than Kate,right_to_left
null,Somebody says<br><em>Beth is talking to Mike</em>,NA,NA,NA,html-keyboard-response,53,283584,0.0-30.0-0.0,anomymised,6564584152624795c40b73cb,65645eb43de7f9dbf5928590,14353,1A,woman,NA,null,NAME1 is talking to NAME2,talk_active,sentence,NA,NA,NA,NA,NA
6504.299999952316,NA,NA,NA,NA,survey-likert-extra-labels,54,290090,0.0-30.0-1.0,anomymised,6564584152624795c40b73cb,65645eb43de7f9dbf5928590,14353,1A,woman,NA,NA,Somebody says<br><em>Beth is talking to Mike</em>,talk_active,rating_volition,"{""Q0"":3}",[0],The speaker identifies more with <br>Mike than Beth,The speaker identifies more with<br>Beth than Mike,right_to_left
null,Somebody says<br><em>Fred and Ruth are hugging each other</em>,NA,NA,NA,html-keyboard-response,55,292092,0.0-31.0-0.0,anomymised,6564584152624795c40b73cb,65645eb43de7f9dbf5928590,14353,1A,woman,NA,null,NAME1 and NAME2 are hugging each other,hug_conjoined,sentence,NA,NA,NA,NA,NA
2333.099999964237,NA,NA,NA,NA,survey-likert-extra-labels,56,294427,0.0-31.0-1.0,anomymised,6564584152624795c40b73cb,65645eb43de7f9dbf5928590,14353,1A,woman,NA,NA,Somebody says<br><em>Fred and Ruth are hugging each other</em>,hug_conjoined,rating_volition,"{""Q0"":3}",[0],The speaker identifies more with <br>Ruth than Fred,The speaker identifies more with<br>Fred than Ruth,right_to_left
null,Somebody says<br><em>Ruth is dancing with Mike</em>,NA,NA,NA,html-keyboard-response,57,296443,0.0-32.0-0.0,anomymised,6564584152624795c40b73cb,65645eb43de7f9dbf5928590,14353,1A,woman,NA,null,NAME1 is dancing with NAME2,dance_active,sentence,NA,NA,NA,NA,NA
5566.799999952316,NA,NA,NA,NA,survey-likert-extra-labels,58,302012,0.0-32.0-1.0,anomymised,6564584152624795c40b73cb,65645eb43de7f9dbf5928590,14353,1A,woman,NA,NA,Somebody says<br><em>Ruth is dancing with Mike</em>,dance_active,rating_volition,"{""Q0"":2}",[0],The speaker identifies more with <br>Mike than Ruth,The speaker identifies more with<br>Ruth than Mike,right_to_left
null,Somebody says<br><em>Ruth is hugging Dave</em>,NA,NA,NA,html-keyboard-response,59,304024,0.0-33.0-0.0,anomymised,6564584152624795c40b73cb,65645eb43de7f9dbf5928590,14353,1A,woman,NA,null,NAME1 is hugging NAME2,hug_active,sentence,NA,NA,NA,NA,NA
5625.600000023842,NA,NA,NA,NA,survey-likert-extra-labels,60,309651,0.0-33.0-1.0,anomymised,6564584152624795c40b73cb,65645eb43de7f9dbf5928590,14353,1A,woman,NA,NA,Somebody says<br><em>Ruth is hugging Dave</em>,hug_active,rating_volition,"{""Q0"":1}",[0],The speaker identifies more with <br>Dave than Ruth,The speaker identifies more with<br>Ruth than Dave,right_to_left
null,Somebody says<br><em>Fred and Mike are flirting with each other</em>,NA,NA,NA,html-keyboard-response,61,311662,0.0-34.0-0.0,anomymised,6564584152624795c40b73cb,65645eb43de7f9dbf5928590,14353,1A,woman,NA,null,NAME1 and NAME2 are flirting with each other,flirt_conjoined,sentence,NA,NA,NA,NA,NA
1548.300000011921,NA,NA,NA,NA,survey-likert-extra-labels,62,313211,0.0-34.0-1.0,anomymised,6564584152624795c40b73cb,65645eb43de7f9dbf5928590,14353,1A,woman,NA,NA,Somebody says<br><em>Fred and Mike are flirting with each other</em>,flirt_conjoined,rating_volition,"{""Q0"":3}",[0],The speaker identifies more with <br>Mike than Fred,The speaker identifies more with<br>Fred than Mike,right_to_left
null,Somebody says<br><em>Mike and Jane are shouting at each other</em>,NA,NA,NA,html-keyboard-response,63,315222,0.0-35.0-0.0,anomymised,6564584152624795c40b73cb,65645eb43de7f9dbf5928590,14353,1A,woman,NA,null,NAME1 and NAME2 are shouting at each other,shout_conjoined,sentence,NA,NA,NA,NA,NA
1803.800000011921,NA,NA,NA,NA,survey-likert-extra-labels,64,317028,0.0-35.0-1.0,anomymised,6564584152624795c40b73cb,65645eb43de7f9dbf5928590,14353,1A,woman,NA,NA,Somebody says<br><em>Mike and Jane are shouting at each other</em>,shout_conjoined,rating_volition,"{""Q0"":3}",[0],The speaker identifies more with <br>Jane than Mike,The speaker identifies more with<br>Mike than Jane,right_to_left
null,Somebody says<br><em>Dave is kissing Jane</em>,NA,NA,NA,html-keyboard-response,65,319029,0.0-36.0-0.0,anomymised,6564584152624795c40b73cb,65645eb43de7f9dbf5928590,14353,1A,woman,NA,null,NAME1 is kissing NAME2,kiss_active,sentence,NA,NA,NA,NA,NA
7549,NA,NA,NA,NA,survey-likert-extra-labels,66,326580,0.0-36.0-1.0,anomymised,6564584152624795c40b73cb,65645eb43de7f9dbf5928590,14353,1A,woman,NA,NA,Somebody says<br><em>Dave is kissing Jane</em>,kiss_active,rating_volition,"{""Q0"":5}",[0],The speaker identifies more with <br>Dave than Jane,The speaker identifies more with<br>Jane than Dave,left_to_right
null,Somebody says<br><em>Luke is driving Fred,NA,NA,NA,html-keyboard-response,67,328589,0.0-37.0-0.0,anomymised,6564584152624795c40b73cb,65645eb43de7f9dbf5928590,14353,1A,woman,NA,null,M1 is driving M3,drive,sentence,NA,NA,NA,NA,NA
4133.399999976158,NA,NA,NA,NA,survey-likert-extra-labels,68,332724,0.0-37.0-1.0,anomymised,6564584152624795c40b73cb,65645eb43de7f9dbf5928590,14353,1A,woman,NA,NA,Somebody says<br><em>Luke is driving Fred,drive,rating_volition,"{""Q0"":4}",[0],Luke is Fred's passenger,Fred is Luke's passenger,NA
null,Somebody says<br><em>Kate is copying Mike</em>,NA,NA,NA,html-keyboard-response,69,334737,0.0-38.0-0.0,anomymised,6564584152624795c40b73cb,65645eb43de7f9dbf5928590,14353,1A,woman,NA,null,NAME1 is copying NAME2,copy_active,sentence,NA,NA,NA,NA,NA
7874.100000023842,NA,NA,NA,NA,survey-likert-extra-labels,70,342613,0.0-38.0-1.0,anomymised,6564584152624795c40b73cb,65645eb43de7f9dbf5928590,14353,1A,woman,NA,NA,Somebody says<br><em>Kate is copying Mike</em>,copy_active,rating_volition,"{""Q0"":1}",[0],The speaker identifies more with <br>Kate than Mike,The speaker identifies more with<br>Mike than Kate,left_to_right
null,Somebody says<br><em>Dave and Mike are talking with each other</em>,NA,NA,NA,html-keyboard-response,71,344616,0.0-39.0-0.0,anomymised,6564584152624795c40b73cb,65645eb43de7f9dbf5928590,14353,1A,woman,NA,null,NAME1 and NAME2 are talking with each other,talk_conjoined,sentence,NA,NA,NA,NA,NA
2507.5,NA,NA,NA,NA,survey-likert-extra-labels,72,347125,0.0-39.0-1.0,anomymised,6564584152624795c40b73cb,65645eb43de7f9dbf5928590,14353,1A,woman,NA,NA,Somebody says<br><em>Dave and Mike are talking with each other</em>,talk_conjoined,rating_volition,"{""Q0"":3}",[0],The speaker identifies more with <br>Mike than Dave,The speaker identifies more with<br>Dave than Mike,right_to_left
null,Somebody says<br><em>Ruth and Jane are marrying each other</em>,NA,NA,NA,html-keyboard-response,73,349132,0.0-40.0-0.0,anomymised,6564584152624795c40b73cb,65645eb43de7f9dbf5928590,14353,1A,woman,NA,null,NAME1 and NAME2 are marrying each other,marry_conjoined,sentence,NA,NA,NA,NA,NA
2727.800000011921,NA,NA,NA,NA,survey-likert-extra-labels,74,351861,0.0-40.0-1.0,anomymised,6564584152624795c40b73cb,65645eb43de7f9dbf5928590,14353,1A,woman,NA,NA,Somebody says<br><em>Ruth and Jane are marrying each other</em>,marry_conjoined,rating_volition,"{""Q0"":3}",[0],The speaker identifies more with <br>Jane than Ruth,The speaker identifies more with<br>Ruth than Jane,right_to_left
null,Somebody says<br><em>Ruth is flirting with Fred</em>,NA,NA,NA,html-keyboard-response,75,353878,0.0-41.0-0.0,anomymised,6564584152624795c40b73cb,65645eb43de7f9dbf5928590,14353,1A,woman,NA,null,NAME1 is flirting with NAME2,flirt_active,sentence,NA,NA,NA,NA,NA
11060.800000011921,NA,NA,NA,NA,survey-likert-extra-labels,76,364935,0.0-41.0-1.0,anomymised,6564584152624795c40b73cb,65645eb43de7f9dbf5928590,14353,1A,woman,NA,NA,Somebody says<br><em>Ruth is flirting with Fred</em>,flirt_active,rating_volition,"{""Q0"":5}",[0],The speaker identifies more with <br>Ruth than Fred,The speaker identifies more with<br>Fred than Ruth,left_to_right
null,Somebody says<br><em>Mike is posing for Dave,NA,NA,NA,html-keyboard-response,77,366948,0.0-42.0-0.0,anomymised,6564584152624795c40b73cb,65645eb43de7f9dbf5928590,14353,1A,woman,NA,null,M2 is posing for M4,pose,sentence,NA,NA,NA,NA,NA
8626.199999988079,NA,NA,NA,NA,survey-likert-extra-labels,78,375576,0.0-42.0-1.0,anomymised,6564584152624795c40b73cb,65645eb43de7f9dbf5928590,14353,1A,woman,NA,NA,Somebody says<br><em>Mike is posing for Dave,pose,rating_volition,"{""Q0"":0}",[0],Mike is modelling for Dave,Dave is modelling for Mike,NA
null,Somebody says<br><em>Mike is reminding Beth,NA,NA,NA,html-keyboard-response,79,377584,0.0-43.0-0.0,anomymised,6564584152624795c40b73cb,65645eb43de7f9dbf5928590,14353,1A,woman,NA,null,M2 is reminding W4,remind,sentence,NA,NA,NA,NA,NA
6383.099999964237,NA,NA,NA,NA,survey-likert-extra-labels,80,383968,0.0-43.0-1.0,anomymised,6564584152624795c40b73cb,65645eb43de7f9dbf5928590,14353,1A,woman,NA,NA,Somebody says<br><em>Mike is reminding Beth,remind,rating_volition,"{""Q0"":1}",[0],Mike is telling Beth again,Beth is telling Mike again,NA
null,Somebody says<br><em>Kate is feeding Luke,NA,NA,NA,html-keyboard-response,81,385973,0.0-44.0-0.0,anomymised,6564584152624795c40b73cb,65645eb43de7f9dbf5928590,14353,1A,woman,NA,null,W3 is feeding M1,feed,sentence,NA,NA,NA,NA,NA
5801.800000011921,NA,NA,NA,NA,survey-likert-extra-labels,82,391776,0.0-44.0-1.0,anomymised,6564584152624795c40b73cb,65645eb43de7f9dbf5928590,14353,1A,woman,NA,NA,Somebody says<br><em>Kate is feeding Luke,feed,rating_volition,"{""Q0"":0}",[0],Kate cooked for Luke,Luke cooked for Kate,NA
null,Somebody says<br><em>Mike is meeting Beth</em>,NA,NA,NA,html-keyboard-response,83,393793,0.0-45.0-0.0,anomymised,6564584152624795c40b73cb,65645eb43de7f9dbf5928590,14353,1A,woman,NA,null,NAME1 is meeting NAME2,meet_active,sentence,NA,NA,NA,NA,NA
8773.600000023842,NA,NA,NA,NA,survey-likert-extra-labels,84,402569,0.0-45.0-1.0,anomymised,6564584152624795c40b73cb,65645eb43de7f9dbf5928590,14353,1A,woman,NA,NA,Somebody says<br><em>Mike is meeting Beth</em>,meet_active,rating_volition,"{""Q0"":1}",[0],The speaker identifies more with <br>Beth than Mike,The speaker identifies more with<br>Mike than Beth,right_to_left
null,Somebody says<br><em>Jane and Dave are touching each other</em>,NA,NA,NA,html-keyboard-response,85,404571,0.0-46.0-0.0,anomymised,6564584152624795c40b73cb,65645eb43de7f9dbf5928590,14353,1A,woman,NA,null,NAME1 and NAME2 are touching each other,touch_conjoined,sentence,NA,NA,NA,NA,NA
2115.800000011921,NA,NA,NA,NA,survey-likert-extra-labels,86,406689,0.0-46.0-1.0,anomymised,6564584152624795c40b73cb,65645eb43de7f9dbf5928590,14353,1A,woman,NA,NA,Somebody says<br><em>Jane and Dave are touching each other</em>,touch_conjoined,rating_volition,"{""Q0"":3}",[0],The speaker identifies more with <br>Dave than Jane,The speaker identifies more with<br>Jane than Dave,right_to_left
null,Somebody says<br><em>Fred and Kate are kissing each other</em>,NA,NA,NA,html-keyboard-response,87,408691,0.0-47.0-0.0,anomymised,6564584152624795c40b73cb,65645eb43de7f9dbf5928590,14353,1A,woman,NA,null,NAME1 and NAME2 are kissing each other,kiss_conjoined,sentence,NA,NA,NA,NA,NA
9741,NA,NA,NA,NA,survey-likert-extra-labels,88,418433,0.0-47.0-1.0,anomymised,6564584152624795c40b73cb,65645eb43de7f9dbf5928590,14353,1A,woman,NA,NA,Somebody says<br><em>Fred and Kate are kissing each other</em>,kiss_conjoined,rating_volition,"{""Q0"":3}",[0],The speaker identifies more with <br>Kate than Fred,The speaker identifies more with<br>Fred than Kate,right_to_left
null,Somebody says<br><em>Ruth is being greeted by Dave</em>,NA,NA,NA,html-keyboard-response,89,420444,0.0-48.0-0.0,anomymised,6564584152624795c40b73cb,65645eb43de7f9dbf5928590,14353,1A,woman,NA,null,NAME1 is being greeted by NAME2,greet_passive,sentence,NA,NA,NA,NA,NA
8755.899999976158,NA,NA,NA,NA,survey-likert-extra-labels,90,429207,0.0-48.0-1.0,anomymised,6564584152624795c40b73cb,65645eb43de7f9dbf5928590,14353,1A,woman,NA,NA,Somebody says<br><em>Ruth is being greeted by Dave</em>,greet_passive,rating_volition,"{""Q0"":1}",[0],The speaker identifies more with <br>Ruth than Dave,The speaker identifies more with<br>Dave than Ruth,left_to_right
null,Somebody says<br><em>Fred is hiring Ruth,NA,NA,NA,html-keyboard-response,91,431215,0.0-49.0-0.0,anomymised,6564584152624795c40b73cb,65645eb43de7f9dbf5928590,14353,1A,woman,NA,null,M3 is hiring W1,hire,sentence,NA,NA,NA,NA,NA
4447.5,NA,NA,NA,NA,survey-likert-extra-labels,92,435663,0.0-49.0-1.0,anomymised,6564584152624795c40b73cb,65645eb43de7f9dbf5928590,14353,1A,woman,NA,NA,Somebody says<br><em>Fred is hiring Ruth,hire,rating_volition,"{""Q0"":0}",[0],Fred is employing Ruth,Ruth is employing Fred,NA
null,Somebody says<br><em>Luke is fighting with Beth</em>,NA,NA,NA,html-keyboard-response,93,437668,0.0-50.0-0.0,anomymised,6564584152624795c40b73cb,65645eb43de7f9dbf5928590,14353,1A,woman,NA,null,NAME1 is fighting with NAME2,fight_active,sentence,NA,NA,NA,NA,NA
3682.199999988079,NA,NA,NA,NA,survey-likert-extra-labels,94,441352,0.0-50.0-1.0,anomymised,6564584152624795c40b73cb,65645eb43de7f9dbf5928590,14353,1A,woman,NA,NA,Somebody says<br><em>Luke is fighting with Beth</em>,fight_active,rating_volition,"{""Q0"":5}",[0],The speaker identifies more with <br>Luke than Beth,The speaker identifies more with<br>Beth than Luke,left_to_right
null,Somebody says<br><em>Kate is being touched by Beth</em>,NA,NA,NA,html-keyboard-response,95,443360,0.0-51.0-0.0,anomymised,6564584152624795c40b73cb,65645eb43de7f9dbf5928590,14353,1A,woman,NA,null,NAME1 is being touched by NAME2,touch_passive,sentence,NA,NA,NA,NA,NA
4998.199999988079,NA,NA,NA,NA,survey-likert-extra-labels,96,448360,0.0-51.0-1.0,anomymised,6564584152624795c40b73cb,65645eb43de7f9dbf5928590,14353,1A,woman,NA,NA,Somebody says<br><em>Kate is being touched by Beth</em>,touch_passive,rating_volition,"{""Q0"":5}",[0],The speaker identifies more with <br>Beth than Kate,The speaker identifies more with<br>Kate than Beth,right_to_left
null,Somebody says<br><em>Jane is teaching Dave,NA,NA,NA,html-keyboard-response,97,450370,0.0-52.0-0.0,anomymised,6564584152624795c40b73cb,65645eb43de7f9dbf5928590,14353,1A,woman,NA,null,W2 is teaching M4,teach,sentence,NA,NA,NA,NA,NA
4676.800000011921,NA,NA,NA,NA,survey-likert-extra-labels,98,455048,0.0-52.0-1.0,anomymised,6564584152624795c40b73cb,65645eb43de7f9dbf5928590,14353,1A,woman,NA,NA,Somebody says<br><em>Jane is teaching Dave,teach,rating_volition,"{""Q0"":0}",[0],Jane is educating Dave,Dave is educating Jane,NA
null,Somebody says<br><em>Ruth is chasing Kate,NA,NA,NA,html-keyboard-response,99,457064,0.0-53.0-0.0,anomymised,6564584152624795c40b73cb,65645eb43de7f9dbf5928590,14353,1A,woman,NA,null,W1 is chasing W3,chase,sentence,NA,NA,NA,NA,NA
6142.5,NA,NA,NA,NA,survey-likert-extra-labels,100,463209,0.0-53.0-1.0,anomymised,6564584152624795c40b73cb,65645eb43de7f9dbf5928590,14353,1A,woman,NA,NA,Somebody says<br><em>Ruth is chasing Kate,chase,rating_volition,"{""Q0"":6}",[0],Ruth is behind Kate,Kate is behind Ruth,NA
null,Somebody says<br><em>Beth is being opposed by Kate</em>,NA,NA,NA,html-keyboard-response,101,465222,0.0-54.0-0.0,anomymised,6564584152624795c40b73cb,65645eb43de7f9dbf5928590,14353,1A,woman,NA,null,NAME1 is being opposed by NAME2,oppose_passive,sentence,NA,NA,NA,NA,NA
6912.899999976158,NA,NA,NA,NA,survey-likert-extra-labels,102,472137,0.0-54.0-1.0,anomymised,6564584152624795c40b73cb,65645eb43de7f9dbf5928590,14353,1A,woman,NA,NA,Somebody says<br><em>Beth is being opposed by Kate</em>,oppose_passive,rating_volition,"{""Q0"":6}",[0],The speaker identifies more with <br>Kate than Beth,The speaker identifies more with<br>Beth than Kate,right_to_left
null,Somebody says<br><em>Jane is opposing Ruth</em>,NA,NA,NA,html-keyboard-response,103,474142,0.0-55.0-0.0,anomymised,6564584152624795c40b73cb,65645eb43de7f9dbf5928590,14353,1A,woman,NA,null,NAME1 is opposing NAME2,oppose_active,sentence,NA,NA,NA,NA,NA
4225.199999988079,NA,NA,NA,NA,survey-likert-extra-labels,104,478369,0.0-55.0-1.0,anomymised,6564584152624795c40b73cb,65645eb43de7f9dbf5928590,14353,1A,woman,NA,NA,Somebody says<br><em>Jane is opposing Ruth</em>,oppose_active,rating_volition,"{""Q0"":0}",[0],The speaker identifies more with <br>Ruth than Jane,The speaker identifies more with<br>Jane than Ruth,right_to_left
1670.4000000357628,<p>Thank you for completing that task.</p><p>The final part of this session is a short questionnaire.</p><p>Press Continue.</p>,0,Continue,Continue,html-button-response,105,480041,0.0-56.0,anomymised,6564584152624795c40b73cb,65645eb43de7f9dbf5928590,14353,1A,woman,NA,NA,NA,NA,NA,NA,NA,NA,NA,NA
19854.399999976158,NA,NA,NA,NA,survey-text,106,500905,0.0-57.0,anomymised,6564584152624795c40b73cb,65645eb43de7f9dbf5928590,14353,1A,woman,NA,NA,NA,NA,demographics,"{""Q0"":""42"",""Q1"":""English"",""Q2"":""English"",""Q3"":""Wales"",""Q4"":""Welsh"",""Q5"":""White"",""Q6"":""Female""}",NA,NA,NA,NA
2933.400000035763,<p>This is the last question - thank you for taking part! Have you lived in the UK for the last 5 years or more?</p>,0,"Yes,No",Yes,html-button-response,107,503840,0.0-58.0,anomymised,6564584152624795c40b73cb,65645eb43de7f9dbf5928590,14353,1A,woman,NA,NA,NA,NA,fiveyears,NA,NA,NA,NA,NA
