rt,stimulus,button_pressed,choices,ChosenStimulus,trial_type,trial_index,time_elapsed,internal_node_id,subject_id,study_id,session_id,subject,list,ppt_gender,url,key_press,sentence_type,verb,test_part,responses,question_order,left_part,right_part,name_order
1265,Welcome to the experiment. Press Continue to begin.,0,Continue,Continue,html-button-response,0,1272,0.0-0.0,anomymised,6560c4cfd080ba12b16d8282,6564c8be68fd8b54257ae7c5,16341,1A,man,NA,NA,NA,NA,NA,NA,NA,NA,NA,NA
61901.699999928474,NA,NA,NA,NA,external-html,1,64216,0.0-1.0,anomymised,6560c4cfd080ba12b16d8282,6564c8be68fd8b54257ae7c5,16341,1A,man,consent.html,NA,NA,NA,NA,NA,NA,NA,NA,NA
582275.2000000477,"<p>Welcome.</p><p>In this experiment we will ask you to imagine people's motivations for saying sentences.</p><p>Each trial will begin with a sentence that somebody might say to describe an event involving two different people.</p><p>For instance, someone might say <em>Harry is being recruited by Molly</em></p><p>We want you to think about which of those two people (Molly and Harry) the speaker identifies more with. For instance, why did the speaker say <em>Harry is being recruited by Molly</em> rather than <em> Molly is recruiting Harry</em>? Might that mean that the speaker is socially closer to one of the two characters?</p><p>After you have read the sentence, you will rate on a scale which of the two characters the speaker identifies more with.</p><p>You will give your answer by clicking a button on a rating scale.</p><p>Sometimes there will also be catch questions designed to make sure that you are paying attention, which ask about a different topic.</p><p>To do this task, you will have to use your imagination to think about and visualise the events, and how the speaker might relate to the characters.</p><br><p>Ready?</p>",0,Continue,Continue,html-button-response,2,646493,0.0-2.0,anomymised,6560c4cfd080ba12b16d8282,6564c8be68fd8b54257ae7c5,16341,1A,man,NA,NA,NA,NA,NA,NA,NA,NA,NA,NA
1709.1999999284744,"<p>Before the experiment starts, we will show you an example of how you will answer the questions. Press 'Continue'.</p>",0,Continue,Continue,html-button-response,3,649203,0.0-3.0,anomymised,6560c4cfd080ba12b16d8282,6564c8be68fd8b54257ae7c5,16341,1A,man,NA,NA,NA,NA,NA,NA,NA,NA,NA,NA
null,Somebody says <br><em>Samuel is dining with Frank</em>,NA,NA,NA,html-keyboard-response,4,652219,0.0-4.0,anomymised,6560c4cfd080ba12b16d8282,6564c8be68fd8b54257ae7c5,16341,1A,man,NA,null,NA,NA,NA,NA,NA,NA,NA,NA
21522.400000095367,<img src='img/Example-trial.jpg' style='height:550px;''></img>,0,Continue,Continue,html-button-response,5,673742,0.0-5.0,anomymised,6560c4cfd080ba12b16d8282,6564c8be68fd8b54257ae7c5,16341,1A,man,NA,NA,NA,NA,NA,NA,NA,NA,NA,NA
3981,<p>Ready to start the experiment?</p><br><p><strong>Remember to give an answer by clicking a button on the rating scale.</strong></p><p>Press 'Continue' to begin.</p>,0,Continue,Continue,html-button-response,6,678724,0.0-6.0,anomymised,6560c4cfd080ba12b16d8282,6564c8be68fd8b54257ae7c5,16341,1A,man,NA,NA,NA,NA,NA,NA,NA,NA,NA,NA
null,Somebody says<br><em>Luke is being touched by Dave</em>,NA,NA,NA,html-keyboard-response,7,681739,0.0-7.0-0.0,anomymised,6560c4cfd080ba12b16d8282,6564c8be68fd8b54257ae7c5,16341,1A,man,NA,null,NAME1 is being touched by NAME2,touch_passive,sentence,NA,NA,NA,NA,NA
11749.5,NA,NA,NA,NA,survey-likert-extra-labels,8,693490,0.0-7.0-1.0,anomymised,6560c4cfd080ba12b16d8282,6564c8be68fd8b54257ae7c5,16341,1A,man,NA,NA,Somebody says<br><em>Luke is being touched by Dave</em>,touch_passive,rating_volition,"{""Q0"":2}",[0],The speaker identifies more with <br>Dave than Luke,The speaker identifies more with<br>Luke than Dave,right_to_left
null,Somebody says<br><em>Dave is dancing with Ruth</em>,NA,NA,NA,html-keyboard-response,9,695493,0.0-8.0-0.0,anomymised,6560c4cfd080ba12b16d8282,6564c8be68fd8b54257ae7c5,16341,1A,man,NA,null,NAME1 is dancing with NAME2,dance_active,sentence,NA,NA,NA,NA,NA
18175.600000023842,NA,NA,NA,NA,survey-likert-extra-labels,10,713669,0.0-8.0-1.0,anomymised,6560c4cfd080ba12b16d8282,6564c8be68fd8b54257ae7c5,16341,1A,man,NA,NA,Somebody says<br><em>Dave is dancing with Ruth</em>,dance_active,rating_volition,"{""Q0"":4}",[0],The speaker identifies more with <br>Dave than Ruth,The speaker identifies more with<br>Ruth than Dave,left_to_right
null,Somebody says<br><em>Luke and Fred are talking with each other</em>,NA,NA,NA,html-keyboard-response,11,715671,0.0-9.0-0.0,anomymised,6560c4cfd080ba12b16d8282,6564c8be68fd8b54257ae7c5,16341,1A,man,NA,null,NAME1 and NAME2 are talking with each other,talk_conjoined,sentence,NA,NA,NA,NA,NA
3652.600000023842,NA,NA,NA,NA,survey-likert-extra-labels,12,719324,0.0-9.0-1.0,anomymised,6560c4cfd080ba12b16d8282,6564c8be68fd8b54257ae7c5,16341,1A,man,NA,NA,Somebody says<br><em>Luke and Fred are talking with each other</em>,talk_conjoined,rating_volition,"{""Q0"":3}",[0],The speaker identifies more with <br>Fred than Luke,The speaker identifies more with<br>Luke than Fred,right_to_left
null,Somebody says<br><em>Kate is feeding Luke,NA,NA,NA,html-keyboard-response,13,721328,0.0-10.0-0.0,anomymised,6560c4cfd080ba12b16d8282,6564c8be68fd8b54257ae7c5,16341,1A,man,NA,null,W3 is feeding M1,feed,sentence,NA,NA,NA,NA,NA
4157.800000071526,NA,NA,NA,NA,survey-likert-extra-labels,14,725487,0.0-10.0-1.0,anomymised,6560c4cfd080ba12b16d8282,6564c8be68fd8b54257ae7c5,16341,1A,man,NA,NA,Somebody says<br><em>Kate is feeding Luke,feed,rating_volition,"{""Q0"":2}",[0],Kate cooked for Luke,Luke cooked for Kate,NA
null,Somebody says<br><em>Jane is carrying Beth,NA,NA,NA,html-keyboard-response,15,727492,0.0-11.0-0.0,anomymised,6560c4cfd080ba12b16d8282,6564c8be68fd8b54257ae7c5,16341,1A,man,NA,null,W2 is carrying W4,carry,sentence,NA,NA,NA,NA,NA
12201.599999904633,NA,NA,NA,NA,survey-likert-extra-labels,16,739694,0.0-11.0-1.0,anomymised,6560c4cfd080ba12b16d8282,6564c8be68fd8b54257ae7c5,16341,1A,man,NA,NA,Somebody says<br><em>Jane is carrying Beth,carry,rating_volition,"{""Q0"":0}",[0],Jane is transporting Beth,Beth is transporting Jane,NA
null,Somebody says<br><em>Ruth is chasing Kate,NA,NA,NA,html-keyboard-response,17,741700,0.0-12.0-0.0,anomymised,6560c4cfd080ba12b16d8282,6564c8be68fd8b54257ae7c5,16341,1A,man,NA,null,W1 is chasing W3,chase,sentence,NA,NA,NA,NA,NA
7223.399999976158,NA,NA,NA,NA,survey-likert-extra-labels,18,748924,0.0-12.0-1.0,anomymised,6560c4cfd080ba12b16d8282,6564c8be68fd8b54257ae7c5,16341,1A,man,NA,NA,Somebody says<br><em>Ruth is chasing Kate,chase,rating_volition,"{""Q0"":0}",[0],Ruth is behind Kate,Kate is behind Ruth,NA
null,Somebody says<br><em>Jane is flirting with Beth</em>,NA,NA,NA,html-keyboard-response,19,750939,0.0-13.0-0.0,anomymised,6560c4cfd080ba12b16d8282,6564c8be68fd8b54257ae7c5,16341,1A,man,NA,null,NAME1 is flirting with NAME2,flirt_active,sentence,NA,NA,NA,NA,NA
14745.400000095367,NA,NA,NA,NA,survey-likert-extra-labels,20,765686,0.0-13.0-1.0,anomymised,6560c4cfd080ba12b16d8282,6564c8be68fd8b54257ae7c5,16341,1A,man,NA,NA,Somebody says<br><em>Jane is flirting with Beth</em>,flirt_active,rating_volition,"{""Q0"":2}",[0],The speaker identifies more with <br>Jane than Beth,The speaker identifies more with<br>Beth than Jane,left_to_right
null,Somebody says<br><em>Fred is opposing Beth</em>,NA,NA,NA,html-keyboard-response,21,767698,0.0-14.0-0.0,anomymised,6560c4cfd080ba12b16d8282,6564c8be68fd8b54257ae7c5,16341,1A,man,NA,null,NAME1 is opposing NAME2,oppose_active,sentence,NA,NA,NA,NA,NA
5916.400000095367,NA,NA,NA,NA,survey-likert-extra-labels,22,773615,0.0-14.0-1.0,anomymised,6560c4cfd080ba12b16d8282,6564c8be68fd8b54257ae7c5,16341,1A,man,NA,NA,Somebody says<br><em>Fred is opposing Beth</em>,oppose_active,rating_volition,"{""Q0"":4}",[0],The speaker identifies more with <br>Beth than Fred,The speaker identifies more with<br>Fred than Beth,right_to_left
null,Somebody says<br><em>Luke is marrying Fred</em>,NA,NA,NA,html-keyboard-response,23,775629,0.0-15.0-0.0,anomymised,6560c4cfd080ba12b16d8282,6564c8be68fd8b54257ae7c5,16341,1A,man,NA,null,NAME1 is marrying NAME2,marry_active,sentence,NA,NA,NA,NA,NA
3824.600000023842,NA,NA,NA,NA,survey-likert-extra-labels,24,779454,0.0-15.0-1.0,anomymised,6560c4cfd080ba12b16d8282,6564c8be68fd8b54257ae7c5,16341,1A,man,NA,NA,Somebody says<br><em>Luke is marrying Fred</em>,marry_active,rating_volition,"{""Q0"":4}",[0],The speaker identifies more with <br>Fred than Luke,The speaker identifies more with<br>Luke than Fred,right_to_left
null,Somebody says<br><em>Mike is reminding Beth,NA,NA,NA,html-keyboard-response,25,781462,0.0-16.0-0.0,anomymised,6560c4cfd080ba12b16d8282,6564c8be68fd8b54257ae7c5,16341,1A,man,NA,null,M2 is reminding W4,remind,sentence,NA,NA,NA,NA,NA
6669.100000023842,NA,NA,NA,NA,survey-likert-extra-labels,26,788132,0.0-16.0-1.0,anomymised,6560c4cfd080ba12b16d8282,6564c8be68fd8b54257ae7c5,16341,1A,man,NA,NA,Somebody says<br><em>Mike is reminding Beth,remind,rating_volition,"{""Q0"":0}",[0],Mike is telling Beth again,Beth is telling Mike again,NA
null,Somebody says<br><em>Ruth and Beth are meeting each other</em>,NA,NA,NA,html-keyboard-response,27,790146,0.0-17.0-0.0,anomymised,6560c4cfd080ba12b16d8282,6564c8be68fd8b54257ae7c5,16341,1A,man,NA,null,NAME1 and NAME2 are meeting each other,meet_conjoined,sentence,NA,NA,NA,NA,NA
3642.899999976158,NA,NA,NA,NA,survey-likert-extra-labels,28,793790,0.0-17.0-1.0,anomymised,6560c4cfd080ba12b16d8282,6564c8be68fd8b54257ae7c5,16341,1A,man,NA,NA,Somebody says<br><em>Ruth and Beth are meeting each other</em>,meet_conjoined,rating_volition,"{""Q0"":3}",[0],The speaker identifies more with <br>Ruth than Beth,The speaker identifies more with<br>Beth than Ruth,left_to_right
null,Somebody says<br><em>Luke is copying Ruth</em>,NA,NA,NA,html-keyboard-response,29,795801,0.0-18.0-0.0,anomymised,6560c4cfd080ba12b16d8282,6564c8be68fd8b54257ae7c5,16341,1A,man,NA,null,NAME1 is copying NAME2,copy_active,sentence,NA,NA,NA,NA,NA
4366.800000071526,NA,NA,NA,NA,survey-likert-extra-labels,30,800169,0.0-18.0-1.0,anomymised,6560c4cfd080ba12b16d8282,6564c8be68fd8b54257ae7c5,16341,1A,man,NA,NA,Somebody says<br><em>Luke is copying Ruth</em>,copy_active,rating_volition,"{""Q0"":2}",[0],The speaker identifies more with <br>Luke than Ruth,The speaker identifies more with<br>Ruth than Luke,left_to_right
null,Somebody says<br><em>Ruth is being kissed by Dave</em>,NA,NA,NA,html-keyboard-response,31,802185,0.0-19.0-0.0,anomymised,6560c4cfd080ba12b16d8282,6564c8be68fd8b54257ae7c5,16341,1A,man,NA,null,NAME1 is being kissed by NAME2,kiss_passive,sentence,NA,NA,NA,NA,NA
3187.899999976158,NA,NA,NA,NA,survey-likert-extra-labels,32,805374,0.0-19.0-1.0,anomymised,6560c4cfd080ba12b16d8282,6564c8be68fd8b54257ae7c5,16341,1A,man,NA,NA,Somebody says<br><em>Ruth is being kissed by Dave</em>,kiss_passive,rating_volition,"{""Q0"":4}",[0],The speaker identifies more with <br>Dave than Ruth,The speaker identifies more with<br>Ruth than Dave,right_to_left
null,Somebody says<br><em>Jane is shouting at Kate</em>,NA,NA,NA,html-keyboard-response,33,807388,0.0-20.0-0.0,anomymised,6560c4cfd080ba12b16d8282,6564c8be68fd8b54257ae7c5,16341,1A,man,NA,null,NAME1 is shouting at NAME2,shout_active,sentence,NA,NA,NA,NA,NA
6300.100000023842,NA,NA,NA,NA,survey-likert-extra-labels,34,813689,0.0-20.0-1.0,anomymised,6560c4cfd080ba12b16d8282,6564c8be68fd8b54257ae7c5,16341,1A,man,NA,NA,Somebody says<br><em>Jane is shouting at Kate</em>,shout_active,rating_volition,"{""Q0"":4}",[0],The speaker identifies more with <br>Kate than Jane,The speaker identifies more with<br>Jane than Kate,right_to_left
null,Somebody says<br><em>Fred is hiring Ruth,NA,NA,NA,html-keyboard-response,35,815698,0.0-21.0-0.0,anomymised,6560c4cfd080ba12b16d8282,6564c8be68fd8b54257ae7c5,16341,1A,man,NA,null,M3 is hiring W1,hire,sentence,NA,NA,NA,NA,NA
14387,NA,NA,NA,NA,survey-likert-extra-labels,36,830085,0.0-21.0-1.0,anomymised,6560c4cfd080ba12b16d8282,6564c8be68fd8b54257ae7c5,16341,1A,man,NA,NA,Somebody says<br><em>Fred is hiring Ruth,hire,rating_volition,"{""Q0"":0}",[0],Fred is employing Ruth,Ruth is employing Fred,NA
null,Somebody says<br><em>Dave and Luke are shouting at each other</em>,NA,NA,NA,html-keyboard-response,37,832092,0.0-22.0-0.0,anomymised,6560c4cfd080ba12b16d8282,6564c8be68fd8b54257ae7c5,16341,1A,man,NA,null,NAME1 and NAME2 are shouting at each other,shout_conjoined,sentence,NA,NA,NA,NA,NA
2933.1999999284744,NA,NA,NA,NA,survey-likert-extra-labels,38,835026,0.0-22.0-1.0,anomymised,6560c4cfd080ba12b16d8282,6564c8be68fd8b54257ae7c5,16341,1A,man,NA,NA,Somebody says<br><em>Dave and Luke are shouting at each other</em>,shout_conjoined,rating_volition,"{""Q0"":3}",[0],The speaker identifies more with <br>Luke than Dave,The speaker identifies more with<br>Dave than Luke,right_to_left
null,Somebody says<br><em>Luke is touching Fred</em>,NA,NA,NA,html-keyboard-response,39,837028,0.0-23.0-0.0,anomymised,6560c4cfd080ba12b16d8282,6564c8be68fd8b54257ae7c5,16341,1A,man,NA,null,NAME1 is touching NAME2,touch_active,sentence,NA,NA,NA,NA,NA
3738.7000000476837,NA,NA,NA,NA,survey-likert-extra-labels,40,840768,0.0-23.0-1.0,anomymised,6560c4cfd080ba12b16d8282,6564c8be68fd8b54257ae7c5,16341,1A,man,NA,NA,Somebody says<br><em>Luke is touching Fred</em>,touch_active,rating_volition,"{""Q0"":4}",[0],The speaker identifies more with <br>Fred than Luke,The speaker identifies more with<br>Luke than Fred,right_to_left
null,Somebody says<br><em>Ruth is kissing Dave</em>,NA,NA,NA,html-keyboard-response,41,842778,0.0-24.0-0.0,anomymised,6560c4cfd080ba12b16d8282,6564c8be68fd8b54257ae7c5,16341,1A,man,NA,null,NAME1 is kissing NAME2,kiss_active,sentence,NA,NA,NA,NA,NA
2907.600000023842,NA,NA,NA,NA,survey-likert-extra-labels,42,845686,0.0-24.0-1.0,anomymised,6560c4cfd080ba12b16d8282,6564c8be68fd8b54257ae7c5,16341,1A,man,NA,NA,Somebody says<br><em>Ruth is kissing Dave</em>,kiss_active,rating_volition,"{""Q0"":2}",[0],The speaker identifies more with <br>Ruth than Dave,The speaker identifies more with<br>Dave than Ruth,left_to_right
null,Somebody says<br><em>Jane is meeting Dave</em>,NA,NA,NA,html-keyboard-response,43,847694,0.0-25.0-0.0,anomymised,6560c4cfd080ba12b16d8282,6564c8be68fd8b54257ae7c5,16341,1A,man,NA,null,NAME1 is meeting NAME2,meet_active,sentence,NA,NA,NA,NA,NA
4463.300000071526,NA,NA,NA,NA,survey-likert-extra-labels,44,852158,0.0-25.0-1.0,anomymised,6560c4cfd080ba12b16d8282,6564c8be68fd8b54257ae7c5,16341,1A,man,NA,NA,Somebody says<br><em>Jane is meeting Dave</em>,meet_active,rating_volition,"{""Q0"":2}",[0],The speaker identifies more with <br>Jane than Dave,The speaker identifies more with<br>Dave than Jane,left_to_right
null,Somebody says<br><em>Mike is shouting at Luke</em>,NA,NA,NA,html-keyboard-response,45,854164,0.0-26.0-0.0,anomymised,6560c4cfd080ba12b16d8282,6564c8be68fd8b54257ae7c5,16341,1A,man,NA,null,NAME1 is shouting at NAME2,shout_active,sentence,NA,NA,NA,NA,NA
2391,NA,NA,NA,NA,survey-likert-extra-labels,46,856556,0.0-26.0-1.0,anomymised,6560c4cfd080ba12b16d8282,6564c8be68fd8b54257ae7c5,16341,1A,man,NA,NA,Somebody says<br><em>Mike is shouting at Luke</em>,shout_active,rating_volition,"{""Q0"":4}",[0],The speaker identifies more with <br>Luke than Mike,The speaker identifies more with<br>Mike than Luke,right_to_left
null,Somebody says<br><em>Mike is posing for Dave,NA,NA,NA,html-keyboard-response,47,858571,0.0-27.0-0.0,anomymised,6560c4cfd080ba12b16d8282,6564c8be68fd8b54257ae7c5,16341,1A,man,NA,null,M2 is posing for M4,pose,sentence,NA,NA,NA,NA,NA
3450.5999999046326,NA,NA,NA,NA,survey-likert-extra-labels,48,862023,0.0-27.0-1.0,anomymised,6560c4cfd080ba12b16d8282,6564c8be68fd8b54257ae7c5,16341,1A,man,NA,NA,Somebody says<br><em>Mike is posing for Dave,pose,rating_volition,"{""Q0"":0}",[0],Mike is modelling for Dave,Dave is modelling for Mike,NA
null,Somebody says<br><em>Luke is being looked at by Fred</em>,NA,NA,NA,html-keyboard-response,49,864029,0.0-28.0-0.0,anomymised,6560c4cfd080ba12b16d8282,6564c8be68fd8b54257ae7c5,16341,1A,man,NA,null,NAME1 is being looked at by NAME2,look_passive,sentence,NA,NA,NA,NA,NA
4059.5999999046326,NA,NA,NA,NA,survey-likert-extra-labels,50,868089,0.0-28.0-1.0,anomymised,6560c4cfd080ba12b16d8282,6564c8be68fd8b54257ae7c5,16341,1A,man,NA,NA,Somebody says<br><em>Luke is being looked at by Fred</em>,look_passive,rating_volition,"{""Q0"":2}",[0],The speaker identifies more with <br>Luke than Fred,The speaker identifies more with<br>Fred than Luke,left_to_right
null,Somebody says<br><em>Jane and Fred are touching each other</em>,NA,NA,NA,html-keyboard-response,51,870092,0.0-29.0-0.0,anomymised,6560c4cfd080ba12b16d8282,6564c8be68fd8b54257ae7c5,16341,1A,man,NA,null,NAME1 and NAME2 are touching each other,touch_conjoined,sentence,NA,NA,NA,NA,NA
1877.3999999761581,NA,NA,NA,NA,survey-likert-extra-labels,52,871971,0.0-29.0-1.0,anomymised,6560c4cfd080ba12b16d8282,6564c8be68fd8b54257ae7c5,16341,1A,man,NA,NA,Somebody says<br><em>Jane and Fred are touching each other</em>,touch_conjoined,rating_volition,"{""Q0"":3}",[0],The speaker identifies more with <br>Fred than Jane,The speaker identifies more with<br>Jane than Fred,right_to_left
null,Somebody says<br><em>Dave is talking to Mike</em>,NA,NA,NA,html-keyboard-response,53,873972,0.0-30.0-0.0,anomymised,6560c4cfd080ba12b16d8282,6564c8be68fd8b54257ae7c5,16341,1A,man,NA,null,NAME1 is talking to NAME2,talk_active,sentence,NA,NA,NA,NA,NA
4563.5,NA,NA,NA,NA,survey-likert-extra-labels,54,878536,0.0-30.0-1.0,anomymised,6560c4cfd080ba12b16d8282,6564c8be68fd8b54257ae7c5,16341,1A,man,NA,NA,Somebody says<br><em>Dave is talking to Mike</em>,talk_active,rating_volition,"{""Q0"":4}",[0],The speaker identifies more with <br>Mike than Dave,The speaker identifies more with<br>Dave than Mike,right_to_left
null,Somebody says<br><em>Ruth and Dave are kissing each other</em>,NA,NA,NA,html-keyboard-response,55,880549,0.0-31.0-0.0,anomymised,6560c4cfd080ba12b16d8282,6564c8be68fd8b54257ae7c5,16341,1A,man,NA,null,NAME1 and NAME2 are kissing each other,kiss_conjoined,sentence,NA,NA,NA,NA,NA
2183.100000023842,NA,NA,NA,NA,survey-likert-extra-labels,56,882733,0.0-31.0-1.0,anomymised,6560c4cfd080ba12b16d8282,6564c8be68fd8b54257ae7c5,16341,1A,man,NA,NA,Somebody says<br><em>Ruth and Dave are kissing each other</em>,kiss_conjoined,rating_volition,"{""Q0"":3}",[0],The speaker identifies more with <br>Dave than Ruth,The speaker identifies more with<br>Ruth than Dave,right_to_left
null,Somebody says<br><em>Dave is fighting with Mike</em>,NA,NA,NA,html-keyboard-response,57,884749,0.0-32.0-0.0,anomymised,6560c4cfd080ba12b16d8282,6564c8be68fd8b54257ae7c5,16341,1A,man,NA,null,NAME1 is fighting with NAME2,fight_active,sentence,NA,NA,NA,NA,NA
2178.100000023842,NA,NA,NA,NA,survey-likert-extra-labels,58,886928,0.0-32.0-1.0,anomymised,6560c4cfd080ba12b16d8282,6564c8be68fd8b54257ae7c5,16341,1A,man,NA,NA,Somebody says<br><em>Dave is fighting with Mike</em>,fight_active,rating_volition,"{""Q0"":4}",[0],The speaker identifies more with <br>Mike than Dave,The speaker identifies more with<br>Dave than Mike,right_to_left
null,Somebody says<br><em>Mike is being hugged by Luke</em>,NA,NA,NA,html-keyboard-response,59,888942,0.0-33.0-0.0,anomymised,6560c4cfd080ba12b16d8282,6564c8be68fd8b54257ae7c5,16341,1A,man,NA,null,NAME1 is being hugged by NAME2,hug_passive,sentence,NA,NA,NA,NA,NA
4381,NA,NA,NA,NA,survey-likert-extra-labels,60,893324,0.0-33.0-1.0,anomymised,6560c4cfd080ba12b16d8282,6564c8be68fd8b54257ae7c5,16341,1A,man,NA,NA,Somebody says<br><em>Mike is being hugged by Luke</em>,hug_passive,rating_volition,"{""Q0"":4}",[0],The speaker identifies more with <br>Luke than Mike,The speaker identifies more with<br>Mike than Luke,right_to_left
null,Somebody says<br><em>Jane is teaching Dave,NA,NA,NA,html-keyboard-response,61,895337,0.0-34.0-0.0,anomymised,6560c4cfd080ba12b16d8282,6564c8be68fd8b54257ae7c5,16341,1A,man,NA,null,W2 is teaching M4,teach,sentence,NA,NA,NA,NA,NA
3428.2000000476837,NA,NA,NA,NA,survey-likert-extra-labels,62,898766,0.0-34.0-1.0,anomymised,6560c4cfd080ba12b16d8282,6564c8be68fd8b54257ae7c5,16341,1A,man,NA,NA,Somebody says<br><em>Jane is teaching Dave,teach,rating_volition,"{""Q0"":0}",[0],Jane is educating Dave,Dave is educating Jane,NA
null,Somebody says<br><em>Kate is playing with Mike</em>,NA,NA,NA,html-keyboard-response,63,900770,0.0-35.0-0.0,anomymised,6560c4cfd080ba12b16d8282,6564c8be68fd8b54257ae7c5,16341,1A,man,NA,null,NAME1 is playing with NAME2,play_active,sentence,NA,NA,NA,NA,NA
4938.200000047684,NA,NA,NA,NA,survey-likert-extra-labels,64,905708,0.0-35.0-1.0,anomymised,6560c4cfd080ba12b16d8282,6564c8be68fd8b54257ae7c5,16341,1A,man,NA,NA,Somebody says<br><em>Kate is playing with Mike</em>,play_active,rating_volition,"{""Q0"":4}",[0],The speaker identifies more with <br>Mike than Kate,The speaker identifies more with<br>Kate than Mike,right_to_left
null,Somebody says<br><em>Fred and Jane are fighting with each other</em>,NA,NA,NA,html-keyboard-response,65,907720,0.0-36.0-0.0,anomymised,6560c4cfd080ba12b16d8282,6564c8be68fd8b54257ae7c5,16341,1A,man,NA,null,NAME1 and NAME2 are fighting with each other,fight_conjoined,sentence,NA,NA,NA,NA,NA
1894.3000000715256,NA,NA,NA,NA,survey-likert-extra-labels,66,909615,0.0-36.0-1.0,anomymised,6560c4cfd080ba12b16d8282,6564c8be68fd8b54257ae7c5,16341,1A,man,NA,NA,Somebody says<br><em>Fred and Jane are fighting with each other</em>,fight_conjoined,rating_volition,"{""Q0"":3}",[0],The speaker identifies more with <br>Fred than Jane,The speaker identifies more with<br>Jane than Fred,left_to_right
null,Somebody says<br><em>Luke and Mike are arguing with each other</em>,NA,NA,NA,html-keyboard-response,67,911626,0.0-37.0-0.0,anomymised,6560c4cfd080ba12b16d8282,6564c8be68fd8b54257ae7c5,16341,1A,man,NA,null,NAME1 and NAME2 are arguing with each other,argue_conjoined,sentence,NA,NA,NA,NA,NA
3367.2000000476837,NA,NA,NA,NA,survey-likert-extra-labels,68,914994,0.0-37.0-1.0,anomymised,6560c4cfd080ba12b16d8282,6564c8be68fd8b54257ae7c5,16341,1A,man,NA,NA,Somebody says<br><em>Luke and Mike are arguing with each other</em>,argue_conjoined,rating_volition,"{""Q0"":3}",[0],The speaker identifies more with <br>Luke than Mike,The speaker identifies more with<br>Mike than Luke,left_to_right
null,Somebody says<br><em>Luke is driving Fred,NA,NA,NA,html-keyboard-response,69,917009,0.0-38.0-0.0,anomymised,6560c4cfd080ba12b16d8282,6564c8be68fd8b54257ae7c5,16341,1A,man,NA,null,M1 is driving M3,drive,sentence,NA,NA,NA,NA,NA
4367.100000023842,NA,NA,NA,NA,survey-likert-extra-labels,70,921377,0.0-38.0-1.0,anomymised,6560c4cfd080ba12b16d8282,6564c8be68fd8b54257ae7c5,16341,1A,man,NA,NA,Somebody says<br><em>Luke is driving Fred,drive,rating_volition,"{""Q0"":6}",[0],Luke is Fred's passenger,Fred is Luke's passenger,NA
null,Somebody says<br><em>Jane and Beth are flirting with each other</em>,NA,NA,NA,html-keyboard-response,71,923383,0.0-39.0-0.0,anomymised,6560c4cfd080ba12b16d8282,6564c8be68fd8b54257ae7c5,16341,1A,man,NA,null,NAME1 and NAME2 are flirting with each other,flirt_conjoined,sentence,NA,NA,NA,NA,NA
3127.1999999284744,NA,NA,NA,NA,survey-likert-extra-labels,72,926511,0.0-39.0-1.0,anomymised,6560c4cfd080ba12b16d8282,6564c8be68fd8b54257ae7c5,16341,1A,man,NA,NA,Somebody says<br><em>Jane and Beth are flirting with each other</em>,flirt_conjoined,rating_volition,"{""Q0"":3}",[0],The speaker identifies more with <br>Beth than Jane,The speaker identifies more with<br>Jane than Beth,right_to_left
null,Somebody says<br><em>Beth is challenging Kate</em>,NA,NA,NA,html-keyboard-response,73,928517,0.0-40.0-0.0,anomymised,6560c4cfd080ba12b16d8282,6564c8be68fd8b54257ae7c5,16341,1A,man,NA,null,NAME1 is challenging NAME2,challenge_active,sentence,NA,NA,NA,NA,NA
5787.900000095367,NA,NA,NA,NA,survey-likert-extra-labels,74,934305,0.0-40.0-1.0,anomymised,6560c4cfd080ba12b16d8282,6564c8be68fd8b54257ae7c5,16341,1A,man,NA,NA,Somebody says<br><em>Beth is challenging Kate</em>,challenge_active,rating_volition,"{""Q0"":4}",[0],The speaker identifies more with <br>Kate than Beth,The speaker identifies more with<br>Beth than Kate,right_to_left
null,Somebody says<br><em>Jane is looking at Ruth</em>,NA,NA,NA,html-keyboard-response,75,936321,0.0-41.0-0.0,anomymised,6560c4cfd080ba12b16d8282,6564c8be68fd8b54257ae7c5,16341,1A,man,NA,null,NAME1 is looking at NAME2,look_active,sentence,NA,NA,NA,NA,NA
6917.5,NA,NA,NA,NA,survey-likert-extra-labels,76,943239,0.0-41.0-1.0,anomymised,6560c4cfd080ba12b16d8282,6564c8be68fd8b54257ae7c5,16341,1A,man,NA,NA,Somebody says<br><em>Jane is looking at Ruth</em>,look_active,rating_volition,"{""Q0"":2}",[0],The speaker identifies more with <br>Jane than Ruth,The speaker identifies more with<br>Ruth than Jane,left_to_right
null,Somebody says<br><em>Jane is greeting Mike</em>,NA,NA,NA,html-keyboard-response,77,945241,0.0-42.0-0.0,anomymised,6560c4cfd080ba12b16d8282,6564c8be68fd8b54257ae7c5,16341,1A,man,NA,null,NAME1 is greeting NAME2,greet_active,sentence,NA,NA,NA,NA,NA
3560.100000023842,NA,NA,NA,NA,survey-likert-extra-labels,78,948802,0.0-42.0-1.0,anomymised,6560c4cfd080ba12b16d8282,6564c8be68fd8b54257ae7c5,16341,1A,man,NA,NA,Somebody says<br><em>Jane is greeting Mike</em>,greet_active,rating_volition,"{""Q0"":4}",[0],The speaker identifies more with <br>Mike than Jane,The speaker identifies more with<br>Jane than Mike,right_to_left
null,Somebody says<br><em>Jane and Mike are dancing with each other</em>,NA,NA,NA,html-keyboard-response,79,950815,0.0-43.0-0.0,anomymised,6560c4cfd080ba12b16d8282,6564c8be68fd8b54257ae7c5,16341,1A,man,NA,null,NAME1 and NAME2 are dancing with each other,dance_conjoined,sentence,NA,NA,NA,NA,NA
1597.1999999284744,NA,NA,NA,NA,survey-likert-extra-labels,80,952413,0.0-43.0-1.0,anomymised,6560c4cfd080ba12b16d8282,6564c8be68fd8b54257ae7c5,16341,1A,man,NA,NA,Somebody says<br><em>Jane and Mike are dancing with each other</em>,dance_conjoined,rating_volition,"{""Q0"":3}",[0],The speaker identifies more with <br>Jane than Mike,The speaker identifies more with<br>Mike than Jane,left_to_right
null,Somebody says<br><em>Fred is being shouted at by Kate</em>,NA,NA,NA,html-keyboard-response,81,954422,0.0-44.0-0.0,anomymised,6560c4cfd080ba12b16d8282,6564c8be68fd8b54257ae7c5,16341,1A,man,NA,null,NAME1 is being shouted at by NAME2,shout_passive,sentence,NA,NA,NA,NA,NA
6835.800000071526,NA,NA,NA,NA,survey-likert-extra-labels,82,961258,0.0-44.0-1.0,anomymised,6560c4cfd080ba12b16d8282,6564c8be68fd8b54257ae7c5,16341,1A,man,NA,NA,Somebody says<br><em>Fred is being shouted at by Kate</em>,shout_passive,rating_volition,"{""Q0"":4}",[0],The speaker identifies more with <br>Kate than Fred,The speaker identifies more with<br>Fred than Kate,right_to_left
null,Somebody says<br><em>Dave and Fred are hugging each other</em>,NA,NA,NA,html-keyboard-response,83,963264,0.0-45.0-0.0,anomymised,6560c4cfd080ba12b16d8282,6564c8be68fd8b54257ae7c5,16341,1A,man,NA,null,NAME1 and NAME2 are hugging each other,hug_conjoined,sentence,NA,NA,NA,NA,NA
2190.1999999284744,NA,NA,NA,NA,survey-likert-extra-labels,84,965455,0.0-45.0-1.0,anomymised,6560c4cfd080ba12b16d8282,6564c8be68fd8b54257ae7c5,16341,1A,man,NA,NA,Somebody says<br><em>Dave and Fred are hugging each other</em>,hug_conjoined,rating_volition,"{""Q0"":3}",[0],The speaker identifies more with <br>Fred than Dave,The speaker identifies more with<br>Dave than Fred,right_to_left
null,Somebody says<br><em>Mike is being opposed by Beth</em>,NA,NA,NA,html-keyboard-response,85,967473,0.0-46.0-0.0,anomymised,6560c4cfd080ba12b16d8282,6564c8be68fd8b54257ae7c5,16341,1A,man,NA,null,NAME1 is being opposed by NAME2,oppose_passive,sentence,NA,NA,NA,NA,NA
4658.799999952316,NA,NA,NA,NA,survey-likert-extra-labels,86,972132,0.0-46.0-1.0,anomymised,6560c4cfd080ba12b16d8282,6564c8be68fd8b54257ae7c5,16341,1A,man,NA,NA,Somebody says<br><em>Mike is being opposed by Beth</em>,oppose_passive,rating_volition,"{""Q0"":4}",[0],The speaker identifies more with <br>Mike than Beth,The speaker identifies more with<br>Beth than Mike,left_to_right
null,Somebody says<br><em>Beth and Ruth are marrying each other</em>,NA,NA,NA,html-keyboard-response,87,974138,0.0-47.0-0.0,anomymised,6560c4cfd080ba12b16d8282,6564c8be68fd8b54257ae7c5,16341,1A,man,NA,null,NAME1 and NAME2 are marrying each other,marry_conjoined,sentence,NA,NA,NA,NA,NA
6397,NA,NA,NA,NA,survey-likert-extra-labels,88,980537,0.0-47.0-1.0,anomymised,6560c4cfd080ba12b16d8282,6564c8be68fd8b54257ae7c5,16341,1A,man,NA,NA,Somebody says<br><em>Beth and Ruth are marrying each other</em>,marry_conjoined,rating_volition,"{""Q0"":3}",[0],The speaker identifies more with <br>Ruth than Beth,The speaker identifies more with<br>Beth than Ruth,right_to_left
null,Somebody says<br><em>Beth is arguing with Dave</em>,NA,NA,NA,html-keyboard-response,89,982543,0.0-48.0-0.0,anomymised,6560c4cfd080ba12b16d8282,6564c8be68fd8b54257ae7c5,16341,1A,man,NA,null,NAME1 is arguing with NAME2,argue_active,sentence,NA,NA,NA,NA,NA
4923.199999928474,NA,NA,NA,NA,survey-likert-extra-labels,90,987467,0.0-48.0-1.0,anomymised,6560c4cfd080ba12b16d8282,6564c8be68fd8b54257ae7c5,16341,1A,man,NA,NA,Somebody says<br><em>Beth is arguing with Dave</em>,argue_active,rating_volition,"{""Q0"":2}",[0],The speaker identifies more with <br>Beth than Dave,The speaker identifies more with<br>Dave than Beth,left_to_right
null,Somebody says<br><em>Jane is being copied by Luke</em>,NA,NA,NA,html-keyboard-response,91,989482,0.0-49.0-0.0,anomymised,6560c4cfd080ba12b16d8282,6564c8be68fd8b54257ae7c5,16341,1A,man,NA,null,NAME1 is being copied by NAME2,copy_passive,sentence,NA,NA,NA,NA,NA
5169.899999976158,NA,NA,NA,NA,survey-likert-extra-labels,92,994652,0.0-49.0-1.0,anomymised,6560c4cfd080ba12b16d8282,6564c8be68fd8b54257ae7c5,16341,1A,man,NA,NA,Somebody says<br><em>Jane is being copied by Luke</em>,copy_passive,rating_volition,"{""Q0"":4}",[0],The speaker identifies more with <br>Luke than Jane,The speaker identifies more with<br>Jane than Luke,right_to_left
null,Somebody says<br><em>Kate is being greeted by Ruth</em>,NA,NA,NA,html-keyboard-response,93,996667,0.0-50.0-0.0,anomymised,6560c4cfd080ba12b16d8282,6564c8be68fd8b54257ae7c5,16341,1A,man,NA,null,NAME1 is being greeted by NAME2,greet_passive,sentence,NA,NA,NA,NA,NA
4958,NA,NA,NA,NA,survey-likert-extra-labels,94,1001626,0.0-50.0-1.0,anomymised,6560c4cfd080ba12b16d8282,6564c8be68fd8b54257ae7c5,16341,1A,man,NA,NA,Somebody says<br><em>Kate is being greeted by Ruth</em>,greet_passive,rating_volition,"{""Q0"":4}",[0],The speaker identifies more with <br>Ruth than Kate,The speaker identifies more with<br>Kate than Ruth,right_to_left
null,Somebody says<br><em>Kate and Fred are playing with each other</em>,NA,NA,NA,html-keyboard-response,95,1003629,0.0-51.0-0.0,anomymised,6560c4cfd080ba12b16d8282,6564c8be68fd8b54257ae7c5,16341,1A,man,NA,null,NAME1 and NAME2 are playing with each other,play_conjoined,sentence,NA,NA,NA,NA,NA
1571.8999999761581,NA,NA,NA,NA,survey-likert-extra-labels,96,1005202,0.0-51.0-1.0,anomymised,6560c4cfd080ba12b16d8282,6564c8be68fd8b54257ae7c5,16341,1A,man,NA,NA,Somebody says<br><em>Kate and Fred are playing with each other</em>,play_conjoined,rating_volition,"{""Q0"":3}",[0],The speaker identifies more with <br>Fred than Kate,The speaker identifies more with<br>Kate than Fred,right_to_left
null,Somebody says<br><em>Luke is seducing Mike</em>,NA,NA,NA,html-keyboard-response,97,1007212,0.0-52.0-0.0,anomymised,6560c4cfd080ba12b16d8282,6564c8be68fd8b54257ae7c5,16341,1A,man,NA,null,NAME1 is seducing NAME2,seduce_active,sentence,NA,NA,NA,NA,NA
4256,NA,NA,NA,NA,survey-likert-extra-labels,98,1011469,0.0-52.0-1.0,anomymised,6560c4cfd080ba12b16d8282,6564c8be68fd8b54257ae7c5,16341,1A,man,NA,NA,Somebody says<br><em>Luke is seducing Mike</em>,seduce_active,rating_volition,"{""Q0"":4}",[0],The speaker identifies more with <br>Mike than Luke,The speaker identifies more with<br>Luke than Mike,right_to_left
null,Somebody says<br><em>Beth is being challenged by Jane</em>,NA,NA,NA,html-keyboard-response,99,1013480,0.0-53.0-0.0,anomymised,6560c4cfd080ba12b16d8282,6564c8be68fd8b54257ae7c5,16341,1A,man,NA,null,NAME1 is being challenged by NAME2,challenge_passive,sentence,NA,NA,NA,NA,NA
3758.100000023842,NA,NA,NA,NA,survey-likert-extra-labels,100,1017239,0.0-53.0-1.0,anomymised,6560c4cfd080ba12b16d8282,6564c8be68fd8b54257ae7c5,16341,1A,man,NA,NA,Somebody says<br><em>Beth is being challenged by Jane</em>,challenge_passive,rating_volition,"{""Q0"":2}",[0],The speaker identifies more with <br>Beth than Jane,The speaker identifies more with<br>Jane than Beth,left_to_right
null,Somebody says<br><em>Jane is hugging Beth</em>,NA,NA,NA,html-keyboard-response,101,1019256,0.0-54.0-0.0,anomymised,6560c4cfd080ba12b16d8282,6564c8be68fd8b54257ae7c5,16341,1A,man,NA,null,NAME1 is hugging NAME2,hug_active,sentence,NA,NA,NA,NA,NA
5427.100000023842,NA,NA,NA,NA,survey-likert-extra-labels,102,1024684,0.0-54.0-1.0,anomymised,6560c4cfd080ba12b16d8282,6564c8be68fd8b54257ae7c5,16341,1A,man,NA,NA,Somebody says<br><em>Jane is hugging Beth</em>,hug_active,rating_volition,"{""Q0"":4}",[0],The speaker identifies more with <br>Beth than Jane,The speaker identifies more with<br>Jane than Beth,right_to_left
null,Somebody says<br><em>Kate is being seduced by Jane</em>,NA,NA,NA,html-keyboard-response,103,1026689,0.0-55.0-0.0,anomymised,6560c4cfd080ba12b16d8282,6564c8be68fd8b54257ae7c5,16341,1A,man,NA,null,NAME1 is being seduced by NAME2,seduce_passive,sentence,NA,NA,NA,NA,NA
3784.899999976158,NA,NA,NA,NA,survey-likert-extra-labels,104,1030475,0.0-55.0-1.0,anomymised,6560c4cfd080ba12b16d8282,6564c8be68fd8b54257ae7c5,16341,1A,man,NA,NA,Somebody says<br><em>Kate is being seduced by Jane</em>,seduce_passive,rating_volition,"{""Q0"":4}",[0],The speaker identifies more with <br>Jane than Kate,The speaker identifies more with<br>Kate than Jane,right_to_left
2099.399999976158,<p>Thank you for completing that task.</p><p>The final part of this session is a short questionnaire.</p><p>Press Continue.</p>,0,Continue,Continue,html-button-response,105,1032575,0.0-56.0,anomymised,6560c4cfd080ba12b16d8282,6564c8be68fd8b54257ae7c5,16341,1A,man,NA,NA,NA,NA,NA,NA,NA,NA,NA,NA
21100,NA,NA,NA,NA,survey-text,106,1054686,0.0-57.0,anomymised,6560c4cfd080ba12b16d8282,6564c8be68fd8b54257ae7c5,16341,1A,man,NA,NA,NA,NA,demographics,"{""Q0"":""55"",""Q1"":""English"",""Q2"":""English"",""Q3"":""UK"",""Q4"":""British"",""Q5"":""White"",""Q6"":""Male""}",NA,NA,NA,NA
3518.399999976158,<p>This is the last question - thank you for taking part! Have you lived in the UK for the last 5 years or more?</p>,0,"Yes,No",Yes,html-button-response,107,1058205,0.0-58.0,anomymised,6560c4cfd080ba12b16d8282,6564c8be68fd8b54257ae7c5,16341,1A,man,NA,NA,NA,NA,fiveyears,NA,NA,NA,NA,NA
