rt,stimulus,button_pressed,choices,ChosenStimulus,trial_type,trial_index,time_elapsed,internal_node_id,subject_id,study_id,session_id,subject,list,ppt_gender,url,key_press,sentence_type,verb,test_part,responses,question_order,left_part,right_part,name_order
1808.5999999940395,Welcome to the experiment. Press Continue to begin.,0,Continue,Continue,html-button-response,0,1812,0.0-0.0,anomymised,6564584152624795c40b73cb,6564bda976e4cd93dbc871c3,18751,1A,woman,NA,NA,NA,NA,NA,NA,NA,NA,NA,NA
30325.09999999404,NA,NA,NA,NA,external-html,1,33205,0.0-1.0,anomymised,6564584152624795c40b73cb,6564bda976e4cd93dbc871c3,18751,1A,woman,consent.html,NA,NA,NA,NA,NA,NA,NA,NA,NA
140195.30000001192,"<p>Welcome.</p><p>In this experiment we will ask you to imagine people's motivations for saying sentences.</p><p>Each trial will begin with a sentence that somebody might say to describe an event involving two different people.</p><p>For instance, someone might say <em>Harry is being recruited by Molly</em></p><p>We want you to think about which of those two people (Molly and Harry) the speaker identifies more with. For instance, why did the speaker say <em>Harry is being recruited by Molly</em> rather than <em> Molly is recruiting Harry</em>? Might that mean that the speaker is socially closer to one of the two characters?</p><p>After you have read the sentence, you will rate on a scale which of the two characters the speaker identifies more with.</p><p>You will give your answer by clicking a button on a rating scale.</p><p>Sometimes there will also be catch questions designed to make sure that you are paying attention, which ask about a different topic.</p><p>To do this task, you will have to use your imagination to think about and visualise the events, and how the speaker might relate to the characters.</p><br><p>Ready?</p>",0,Continue,Continue,html-button-response,2,173404,0.0-2.0,anomymised,6564584152624795c40b73cb,6564bda976e4cd93dbc871c3,18751,1A,woman,NA,NA,NA,NA,NA,NA,NA,NA,NA,NA
4554.0999999940395,"<p>Before the experiment starts, we will show you an example of how you will answer the questions. Press 'Continue'.</p>",0,Continue,Continue,html-button-response,3,178967,0.0-3.0,anomymised,6564584152624795c40b73cb,6564bda976e4cd93dbc871c3,18751,1A,woman,NA,NA,NA,NA,NA,NA,NA,NA,NA,NA
null,Somebody says <br><em>Samuel is dining with Frank</em>,NA,NA,NA,html-keyboard-response,4,181978,0.0-4.0,anomymised,6564584152624795c40b73cb,6564bda976e4cd93dbc871c3,18751,1A,woman,NA,null,NA,NA,NA,NA,NA,NA,NA,NA
19601.40000000596,<img src='img/Example-trial.jpg' style='height:550px;''></img>,0,Continue,Continue,html-button-response,5,201582,0.0-5.0,anomymised,6564584152624795c40b73cb,6564bda976e4cd93dbc871c3,18751,1A,woman,NA,NA,NA,NA,NA,NA,NA,NA,NA,NA
2533,<p>Ready to start the experiment?</p><br><p><strong>Remember to give an answer by clicking a button on the rating scale.</strong></p><p>Press 'Continue' to begin.</p>,0,Continue,Continue,html-button-response,6,205123,0.0-6.0,anomymised,6564584152624795c40b73cb,6564bda976e4cd93dbc871c3,18751,1A,woman,NA,NA,NA,NA,NA,NA,NA,NA,NA,NA
null,Somebody says<br><em>Fred is hiring Ruth,NA,NA,NA,html-keyboard-response,7,208133,0.0-7.0-0.0,anomymised,6564584152624795c40b73cb,6564bda976e4cd93dbc871c3,18751,1A,woman,NA,null,M3 is hiring W1,hire,sentence,NA,NA,NA,NA,NA
9030.700000017881,NA,NA,NA,NA,survey-likert-extra-labels,8,217167,0.0-7.0-1.0,anomymised,6564584152624795c40b73cb,6564bda976e4cd93dbc871c3,18751,1A,woman,NA,NA,Somebody says<br><em>Fred is hiring Ruth,hire,rating_volition,"{""Q0"":0}",[0],Fred is employing Ruth,Ruth is employing Fred,NA
null,Somebody says<br><em>Mike is reminding Beth,NA,NA,NA,html-keyboard-response,9,219173,0.0-8.0-0.0,anomymised,6564584152624795c40b73cb,6564bda976e4cd93dbc871c3,18751,1A,woman,NA,null,M2 is reminding W4,remind,sentence,NA,NA,NA,NA,NA
4951.5,NA,NA,NA,NA,survey-likert-extra-labels,10,224128,0.0-8.0-1.0,anomymised,6564584152624795c40b73cb,6564bda976e4cd93dbc871c3,18751,1A,woman,NA,NA,Somebody says<br><em>Mike is reminding Beth,remind,rating_volition,"{""Q0"":0}",[0],Mike is telling Beth again,Beth is telling Mike again,NA
null,Somebody says<br><em>Jane and Mike are touching each other</em>,NA,NA,NA,html-keyboard-response,11,226136,0.0-9.0-0.0,anomymised,6564584152624795c40b73cb,6564bda976e4cd93dbc871c3,18751,1A,woman,NA,null,NAME1 and NAME2 are touching each other,touch_conjoined,sentence,NA,NA,NA,NA,NA
4929.5999999940395,NA,NA,NA,NA,survey-likert-extra-labels,12,231069,0.0-9.0-1.0,anomymised,6564584152624795c40b73cb,6564bda976e4cd93dbc871c3,18751,1A,woman,NA,NA,Somebody says<br><em>Jane and Mike are touching each other</em>,touch_conjoined,rating_volition,"{""Q0"":0}",[0],The speaker identifies more with <br>Jane than Mike,The speaker identifies more with<br>Mike than Jane,left_to_right
null,Somebody says<br><em>Jane is shouting at Ruth</em>,NA,NA,NA,html-keyboard-response,13,233077,0.0-10.0-0.0,anomymised,6564584152624795c40b73cb,6564bda976e4cd93dbc871c3,18751,1A,woman,NA,null,NAME1 is shouting at NAME2,shout_active,sentence,NA,NA,NA,NA,NA
5947.800000011921,NA,NA,NA,NA,survey-likert-extra-labels,14,239028,0.0-10.0-1.0,anomymised,6564584152624795c40b73cb,6564bda976e4cd93dbc871c3,18751,1A,woman,NA,NA,Somebody says<br><em>Jane is shouting at Ruth</em>,shout_active,rating_volition,"{""Q0"":0}",[0],The speaker identifies more with <br>Ruth than Jane,The speaker identifies more with<br>Jane than Ruth,right_to_left
null,Somebody says<br><em>Dave is fighting with Ruth</em>,NA,NA,NA,html-keyboard-response,15,241033,0.0-11.0-0.0,anomymised,6564584152624795c40b73cb,6564bda976e4cd93dbc871c3,18751,1A,woman,NA,null,NAME1 is fighting with NAME2,fight_active,sentence,NA,NA,NA,NA,NA
3701.7999999821186,NA,NA,NA,NA,survey-likert-extra-labels,16,244737,0.0-11.0-1.0,anomymised,6564584152624795c40b73cb,6564bda976e4cd93dbc871c3,18751,1A,woman,NA,NA,Somebody says<br><em>Dave is fighting with Ruth</em>,fight_active,rating_volition,"{""Q0"":6}",[0],The speaker identifies more with <br>Dave than Ruth,The speaker identifies more with<br>Ruth than Dave,left_to_right
null,Somebody says<br><em>Jane and Dave are marrying each other</em>,NA,NA,NA,html-keyboard-response,17,246745,0.0-12.0-0.0,anomymised,6564584152624795c40b73cb,6564bda976e4cd93dbc871c3,18751,1A,woman,NA,null,NAME1 and NAME2 are marrying each other,marry_conjoined,sentence,NA,NA,NA,NA,NA
6061.299999982119,NA,NA,NA,NA,survey-likert-extra-labels,18,252808,0.0-12.0-1.0,anomymised,6564584152624795c40b73cb,6564bda976e4cd93dbc871c3,18751,1A,woman,NA,NA,Somebody says<br><em>Jane and Dave are marrying each other</em>,marry_conjoined,rating_volition,"{""Q0"":0}",[0],The speaker identifies more with <br>Jane than Dave,The speaker identifies more with<br>Dave than Jane,left_to_right
null,Somebody says<br><em>Kate is dancing with Fred</em>,NA,NA,NA,html-keyboard-response,19,254817,0.0-13.0-0.0,anomymised,6564584152624795c40b73cb,6564bda976e4cd93dbc871c3,18751,1A,woman,NA,null,NAME1 is dancing with NAME2,dance_active,sentence,NA,NA,NA,NA,NA
4752.199999988079,NA,NA,NA,NA,survey-likert-extra-labels,20,259572,0.0-13.0-1.0,anomymised,6564584152624795c40b73cb,6564bda976e4cd93dbc871c3,18751,1A,woman,NA,NA,Somebody says<br><em>Kate is dancing with Fred</em>,dance_active,rating_volition,"{""Q0"":6}",[0],The speaker identifies more with <br>Kate than Fred,The speaker identifies more with<br>Fred than Kate,left_to_right
null,Somebody says<br><em>Mike is posing for Dave,NA,NA,NA,html-keyboard-response,21,261580,0.0-14.0-0.0,anomymised,6564584152624795c40b73cb,6564bda976e4cd93dbc871c3,18751,1A,woman,NA,null,M2 is posing for M4,pose,sentence,NA,NA,NA,NA,NA
6077.0999999940395,NA,NA,NA,NA,survey-likert-extra-labels,22,267659,0.0-14.0-1.0,anomymised,6564584152624795c40b73cb,6564bda976e4cd93dbc871c3,18751,1A,woman,NA,NA,Somebody says<br><em>Mike is posing for Dave,pose,rating_volition,"{""Q0"":0}",[0],Mike is modelling for Dave,Dave is modelling for Mike,NA
null,Somebody says<br><em>Kate is feeding Luke,NA,NA,NA,html-keyboard-response,23,269667,0.0-15.0-0.0,anomymised,6564584152624795c40b73cb,6564bda976e4cd93dbc871c3,18751,1A,woman,NA,null,W3 is feeding M1,feed,sentence,NA,NA,NA,NA,NA
4727.899999976158,NA,NA,NA,NA,survey-likert-extra-labels,24,274398,0.0-15.0-1.0,anomymised,6564584152624795c40b73cb,6564bda976e4cd93dbc871c3,18751,1A,woman,NA,NA,Somebody says<br><em>Kate is feeding Luke,feed,rating_volition,"{""Q0"":0}",[0],Kate cooked for Luke,Luke cooked for Kate,NA
null,Somebody says<br><em>Jane is opposing Mike</em>,NA,NA,NA,html-keyboard-response,25,276406,0.0-16.0-0.0,anomymised,6564584152624795c40b73cb,6564bda976e4cd93dbc871c3,18751,1A,woman,NA,null,NAME1 is opposing NAME2,oppose_active,sentence,NA,NA,NA,NA,NA
3594.800000011921,NA,NA,NA,NA,survey-likert-extra-labels,26,280003,0.0-16.0-1.0,anomymised,6564584152624795c40b73cb,6564bda976e4cd93dbc871c3,18751,1A,woman,NA,NA,Somebody says<br><em>Jane is opposing Mike</em>,oppose_active,rating_volition,"{""Q0"":6}",[0],The speaker identifies more with <br>Jane than Mike,The speaker identifies more with<br>Mike than Jane,left_to_right
null,Somebody says<br><em>Ruth is copying Jane</em>,NA,NA,NA,html-keyboard-response,27,282011,0.0-17.0-0.0,anomymised,6564584152624795c40b73cb,6564bda976e4cd93dbc871c3,18751,1A,woman,NA,null,NAME1 is copying NAME2,copy_active,sentence,NA,NA,NA,NA,NA
11504.700000017881,NA,NA,NA,NA,survey-likert-extra-labels,28,293518,0.0-17.0-1.0,anomymised,6564584152624795c40b73cb,6564bda976e4cd93dbc871c3,18751,1A,woman,NA,NA,Somebody says<br><em>Ruth is copying Jane</em>,copy_active,rating_volition,"{""Q0"":0}",[0],The speaker identifies more with <br>Jane than Ruth,The speaker identifies more with<br>Ruth than Jane,right_to_left
null,Somebody says<br><em>Luke and Beth are dancing with each other</em>,NA,NA,NA,html-keyboard-response,29,295525,0.0-18.0-0.0,anomymised,6564584152624795c40b73cb,6564bda976e4cd93dbc871c3,18751,1A,woman,NA,null,NAME1 and NAME2 are dancing with each other,dance_conjoined,sentence,NA,NA,NA,NA,NA
7078.0999999940395,NA,NA,NA,NA,survey-likert-extra-labels,30,302605,0.0-18.0-1.0,anomymised,6564584152624795c40b73cb,6564bda976e4cd93dbc871c3,18751,1A,woman,NA,NA,Somebody says<br><em>Luke and Beth are dancing with each other</em>,dance_conjoined,rating_volition,"{""Q0"":0}",[0],The speaker identifies more with <br>Beth than Luke,The speaker identifies more with<br>Luke than Beth,right_to_left
null,Somebody says<br><em>Luke and Ruth are playing with each other</em>,NA,NA,NA,html-keyboard-response,31,304613,0.0-19.0-0.0,anomymised,6564584152624795c40b73cb,6564bda976e4cd93dbc871c3,18751,1A,woman,NA,null,NAME1 and NAME2 are playing with each other,play_conjoined,sentence,NA,NA,NA,NA,NA
8923.90000000596,NA,NA,NA,NA,survey-likert-extra-labels,32,313539,0.0-19.0-1.0,anomymised,6564584152624795c40b73cb,6564bda976e4cd93dbc871c3,18751,1A,woman,NA,NA,Somebody says<br><em>Luke and Ruth are playing with each other</em>,play_conjoined,rating_volition,"{""Q0"":6}",[0],The speaker identifies more with <br>Ruth than Luke,The speaker identifies more with<br>Luke than Ruth,right_to_left
null,Somebody says<br><em>Luke is driving Fred,NA,NA,NA,html-keyboard-response,33,315542,0.0-20.0-0.0,anomymised,6564584152624795c40b73cb,6564bda976e4cd93dbc871c3,18751,1A,woman,NA,null,M1 is driving M3,drive,sentence,NA,NA,NA,NA,NA
4495.600000023842,NA,NA,NA,NA,survey-likert-extra-labels,34,320040,0.0-20.0-1.0,anomymised,6564584152624795c40b73cb,6564bda976e4cd93dbc871c3,18751,1A,woman,NA,NA,Somebody says<br><em>Luke is driving Fred,drive,rating_volition,"{""Q0"":6}",[0],Luke is Fred's passenger,Fred is Luke's passenger,NA
null,Somebody says<br><em>Luke is greeting Ruth</em>,NA,NA,NA,html-keyboard-response,35,322045,0.0-21.0-0.0,anomymised,6564584152624795c40b73cb,6564bda976e4cd93dbc871c3,18751,1A,woman,NA,null,NAME1 is greeting NAME2,greet_active,sentence,NA,NA,NA,NA,NA
6822.700000017881,NA,NA,NA,NA,survey-likert-extra-labels,36,328870,0.0-21.0-1.0,anomymised,6564584152624795c40b73cb,6564bda976e4cd93dbc871c3,18751,1A,woman,NA,NA,Somebody says<br><em>Luke is greeting Ruth</em>,greet_active,rating_volition,"{""Q0"":6}",[0],The speaker identifies more with <br>Ruth than Luke,The speaker identifies more with<br>Luke than Ruth,right_to_left
null,Somebody says<br><em>Dave and Kate are meeting each other</em>,NA,NA,NA,html-keyboard-response,37,330876,0.0-22.0-0.0,anomymised,6564584152624795c40b73cb,6564bda976e4cd93dbc871c3,18751,1A,woman,NA,null,NAME1 and NAME2 are meeting each other,meet_conjoined,sentence,NA,NA,NA,NA,NA
6473.4000000059605,NA,NA,NA,NA,survey-likert-extra-labels,38,337353,0.0-22.0-1.0,anomymised,6564584152624795c40b73cb,6564bda976e4cd93dbc871c3,18751,1A,woman,NA,NA,Somebody says<br><em>Dave and Kate are meeting each other</em>,meet_conjoined,rating_volition,"{""Q0"":6}",[0],The speaker identifies more with <br>Kate than Dave,The speaker identifies more with<br>Dave than Kate,right_to_left
null,Somebody says<br><em>Luke is looking at Dave</em>,NA,NA,NA,html-keyboard-response,39,339362,0.0-23.0-0.0,anomymised,6564584152624795c40b73cb,6564bda976e4cd93dbc871c3,18751,1A,woman,NA,null,NAME1 is looking at NAME2,look_active,sentence,NA,NA,NA,NA,NA
6381.299999982119,NA,NA,NA,NA,survey-likert-extra-labels,40,345746,0.0-23.0-1.0,anomymised,6564584152624795c40b73cb,6564bda976e4cd93dbc871c3,18751,1A,woman,NA,NA,Somebody says<br><em>Luke is looking at Dave</em>,look_active,rating_volition,"{""Q0"":6}",[0],The speaker identifies more with <br>Dave than Luke,The speaker identifies more with<br>Luke than Dave,right_to_left
null,Somebody says<br><em>Jane is being kissed by Kate</em>,NA,NA,NA,html-keyboard-response,41,347753,0.0-24.0-0.0,anomymised,6564584152624795c40b73cb,6564bda976e4cd93dbc871c3,18751,1A,woman,NA,null,NAME1 is being kissed by NAME2,kiss_passive,sentence,NA,NA,NA,NA,NA
5254.199999988079,NA,NA,NA,NA,survey-likert-extra-labels,42,353010,0.0-24.0-1.0,anomymised,6564584152624795c40b73cb,6564bda976e4cd93dbc871c3,18751,1A,woman,NA,NA,Somebody says<br><em>Jane is being kissed by Kate</em>,kiss_passive,rating_volition,"{""Q0"":0}",[0],The speaker identifies more with <br>Jane than Kate,The speaker identifies more with<br>Kate than Jane,left_to_right
null,Somebody says<br><em>Kate is being opposed by Luke</em>,NA,NA,NA,html-keyboard-response,43,355018,0.0-25.0-0.0,anomymised,6564584152624795c40b73cb,6564bda976e4cd93dbc871c3,18751,1A,woman,NA,null,NAME1 is being opposed by NAME2,oppose_passive,sentence,NA,NA,NA,NA,NA
5179.199999988079,NA,NA,NA,NA,survey-likert-extra-labels,44,360200,0.0-25.0-1.0,anomymised,6564584152624795c40b73cb,6564bda976e4cd93dbc871c3,18751,1A,woman,NA,NA,Somebody says<br><em>Kate is being opposed by Luke</em>,oppose_passive,rating_volition,"{""Q0"":6}",[0],The speaker identifies more with <br>Luke than Kate,The speaker identifies more with<br>Kate than Luke,right_to_left
null,Somebody says<br><em>Ruth is flirting with Fred</em>,NA,NA,NA,html-keyboard-response,45,362209,0.0-26.0-0.0,anomymised,6564584152624795c40b73cb,6564bda976e4cd93dbc871c3,18751,1A,woman,NA,null,NAME1 is flirting with NAME2,flirt_active,sentence,NA,NA,NA,NA,NA
5071.799999982119,NA,NA,NA,NA,survey-likert-extra-labels,46,367283,0.0-26.0-1.0,anomymised,6564584152624795c40b73cb,6564bda976e4cd93dbc871c3,18751,1A,woman,NA,NA,Somebody says<br><em>Ruth is flirting with Fred</em>,flirt_active,rating_volition,"{""Q0"":6}",[0],The speaker identifies more with <br>Fred than Ruth,The speaker identifies more with<br>Ruth than Fred,right_to_left
null,Somebody says<br><em>Kate is kissing Mike</em>,NA,NA,NA,html-keyboard-response,47,369291,0.0-27.0-0.0,anomymised,6564584152624795c40b73cb,6564bda976e4cd93dbc871c3,18751,1A,woman,NA,null,NAME1 is kissing NAME2,kiss_active,sentence,NA,NA,NA,NA,NA
4599,NA,NA,NA,NA,survey-likert-extra-labels,48,373893,0.0-27.0-1.0,anomymised,6564584152624795c40b73cb,6564bda976e4cd93dbc871c3,18751,1A,woman,NA,NA,Somebody says<br><em>Kate is kissing Mike</em>,kiss_active,rating_volition,"{""Q0"":6}",[0],The speaker identifies more with <br>Kate than Mike,The speaker identifies more with<br>Mike than Kate,left_to_right
null,Somebody says<br><em>Luke is meeting Kate</em>,NA,NA,NA,html-keyboard-response,49,375901,0.0-28.0-0.0,anomymised,6564584152624795c40b73cb,6564bda976e4cd93dbc871c3,18751,1A,woman,NA,null,NAME1 is meeting NAME2,meet_active,sentence,NA,NA,NA,NA,NA
5257.5,NA,NA,NA,NA,survey-likert-extra-labels,50,381161,0.0-28.0-1.0,anomymised,6564584152624795c40b73cb,6564bda976e4cd93dbc871c3,18751,1A,woman,NA,NA,Somebody says<br><em>Luke is meeting Kate</em>,meet_active,rating_volition,"{""Q0"":6}",[0],The speaker identifies more with <br>Kate than Luke,The speaker identifies more with<br>Luke than Kate,right_to_left
null,Somebody says<br><em>Ruth is arguing with Luke</em>,NA,NA,NA,html-keyboard-response,51,383169,0.0-29.0-0.0,anomymised,6564584152624795c40b73cb,6564bda976e4cd93dbc871c3,18751,1A,woman,NA,null,NAME1 is arguing with NAME2,argue_active,sentence,NA,NA,NA,NA,NA
5527.5,NA,NA,NA,NA,survey-likert-extra-labels,52,388700,0.0-29.0-1.0,anomymised,6564584152624795c40b73cb,6564bda976e4cd93dbc871c3,18751,1A,woman,NA,NA,Somebody says<br><em>Ruth is arguing with Luke</em>,argue_active,rating_volition,"{""Q0"":6}",[0],The speaker identifies more with <br>Luke than Ruth,The speaker identifies more with<br>Ruth than Luke,right_to_left
null,Somebody says<br><em>Dave is being shouted at by Mike</em>,NA,NA,NA,html-keyboard-response,53,390707,0.0-30.0-0.0,anomymised,6564584152624795c40b73cb,6564bda976e4cd93dbc871c3,18751,1A,woman,NA,null,NAME1 is being shouted at by NAME2,shout_passive,sentence,NA,NA,NA,NA,NA
5406.0999999940395,NA,NA,NA,NA,survey-likert-extra-labels,54,396116,0.0-30.0-1.0,anomymised,6564584152624795c40b73cb,6564bda976e4cd93dbc871c3,18751,1A,woman,NA,NA,Somebody says<br><em>Dave is being shouted at by Mike</em>,shout_passive,rating_volition,"{""Q0"":6}",[0],The speaker identifies more with <br>Mike than Dave,The speaker identifies more with<br>Dave than Mike,right_to_left
null,Somebody says<br><em>Jane is teaching Dave,NA,NA,NA,html-keyboard-response,55,398123,0.0-31.0-0.0,anomymised,6564584152624795c40b73cb,6564bda976e4cd93dbc871c3,18751,1A,woman,NA,null,W2 is teaching M4,teach,sentence,NA,NA,NA,NA,NA
3805.5,NA,NA,NA,NA,survey-likert-extra-labels,56,401932,0.0-31.0-1.0,anomymised,6564584152624795c40b73cb,6564bda976e4cd93dbc871c3,18751,1A,woman,NA,NA,Somebody says<br><em>Jane is teaching Dave,teach,rating_volition,"{""Q0"":0}",[0],Jane is educating Dave,Dave is educating Jane,NA
null,Somebody says<br><em>Luke is marrying Fred</em>,NA,NA,NA,html-keyboard-response,57,403940,0.0-32.0-0.0,anomymised,6564584152624795c40b73cb,6564bda976e4cd93dbc871c3,18751,1A,woman,NA,null,NAME1 is marrying NAME2,marry_active,sentence,NA,NA,NA,NA,NA
6263.4000000059605,NA,NA,NA,NA,survey-likert-extra-labels,58,410206,0.0-32.0-1.0,anomymised,6564584152624795c40b73cb,6564bda976e4cd93dbc871c3,18751,1A,woman,NA,NA,Somebody says<br><em>Luke is marrying Fred</em>,marry_active,rating_volition,"{""Q0"":6}",[0],The speaker identifies more with <br>Fred than Luke,The speaker identifies more with<br>Luke than Fred,right_to_left
null,Somebody says<br><em>Ruth is chasing Kate,NA,NA,NA,html-keyboard-response,59,412214,0.0-33.0-0.0,anomymised,6564584152624795c40b73cb,6564bda976e4cd93dbc871c3,18751,1A,woman,NA,null,W1 is chasing W3,chase,sentence,NA,NA,NA,NA,NA
5517.5999999940395,NA,NA,NA,NA,survey-likert-extra-labels,60,417734,0.0-33.0-1.0,anomymised,6564584152624795c40b73cb,6564bda976e4cd93dbc871c3,18751,1A,woman,NA,NA,Somebody says<br><em>Ruth is chasing Kate,chase,rating_volition,"{""Q0"":0}",[0],Ruth is behind Kate,Kate is behind Ruth,NA
null,Somebody says<br><em>Jane is carrying Beth,NA,NA,NA,html-keyboard-response,61,419742,0.0-34.0-0.0,anomymised,6564584152624795c40b73cb,6564bda976e4cd93dbc871c3,18751,1A,woman,NA,null,W2 is carrying W4,carry,sentence,NA,NA,NA,NA,NA
6031,NA,NA,NA,NA,survey-likert-extra-labels,62,425776,0.0-34.0-1.0,anomymised,6564584152624795c40b73cb,6564bda976e4cd93dbc871c3,18751,1A,woman,NA,NA,Somebody says<br><em>Jane is carrying Beth,carry,rating_volition,"{""Q0"":0}",[0],Jane is transporting Beth,Beth is transporting Jane,NA
null,Somebody says<br><em>Fred is shouting at Ruth</em>,NA,NA,NA,html-keyboard-response,63,427782,0.0-35.0-0.0,anomymised,6564584152624795c40b73cb,6564bda976e4cd93dbc871c3,18751,1A,woman,NA,null,NAME1 is shouting at NAME2,shout_active,sentence,NA,NA,NA,NA,NA
6816.299999982119,NA,NA,NA,NA,survey-likert-extra-labels,64,434601,0.0-35.0-1.0,anomymised,6564584152624795c40b73cb,6564bda976e4cd93dbc871c3,18751,1A,woman,NA,NA,Somebody says<br><em>Fred is shouting at Ruth</em>,shout_active,rating_volition,"{""Q0"":6}",[0],The speaker identifies more with <br>Fred than Ruth,The speaker identifies more with<br>Ruth than Fred,left_to_right
null,Somebody says<br><em>Beth is challenging Fred</em>,NA,NA,NA,html-keyboard-response,65,436609,0.0-36.0-0.0,anomymised,6564584152624795c40b73cb,6564bda976e4cd93dbc871c3,18751,1A,woman,NA,null,NAME1 is challenging NAME2,challenge_active,sentence,NA,NA,NA,NA,NA
4231.800000011921,NA,NA,NA,NA,survey-likert-extra-labels,66,440843,0.0-36.0-1.0,anomymised,6564584152624795c40b73cb,6564bda976e4cd93dbc871c3,18751,1A,woman,NA,NA,Somebody says<br><em>Beth is challenging Fred</em>,challenge_active,rating_volition,"{""Q0"":0}",[0],The speaker identifies more with <br>Fred than Beth,The speaker identifies more with<br>Beth than Fred,right_to_left
null,Somebody says<br><em>Beth and Dave are shouting at each other</em>,NA,NA,NA,html-keyboard-response,67,442850,0.0-37.0-0.0,anomymised,6564584152624795c40b73cb,6564bda976e4cd93dbc871c3,18751,1A,woman,NA,null,NAME1 and NAME2 are shouting at each other,shout_conjoined,sentence,NA,NA,NA,NA,NA
4202.300000011921,NA,NA,NA,NA,survey-likert-extra-labels,68,447055,0.0-37.0-1.0,anomymised,6564584152624795c40b73cb,6564bda976e4cd93dbc871c3,18751,1A,woman,NA,NA,Somebody says<br><em>Beth and Dave are shouting at each other</em>,shout_conjoined,rating_volition,"{""Q0"":0}",[0],The speaker identifies more with <br>Beth than Dave,The speaker identifies more with<br>Dave than Beth,left_to_right
null,Somebody says<br><em>Luke is being seduced by Fred</em>,NA,NA,NA,html-keyboard-response,69,449063,0.0-38.0-0.0,anomymised,6564584152624795c40b73cb,6564bda976e4cd93dbc871c3,18751,1A,woman,NA,null,NAME1 is being seduced by NAME2,seduce_passive,sentence,NA,NA,NA,NA,NA
5313.899999976158,NA,NA,NA,NA,survey-likert-extra-labels,70,454379,0.0-38.0-1.0,anomymised,6564584152624795c40b73cb,6564bda976e4cd93dbc871c3,18751,1A,woman,NA,NA,Somebody says<br><em>Luke is being seduced by Fred</em>,seduce_passive,rating_volition,"{""Q0"":6}",[0],The speaker identifies more with <br>Fred than Luke,The speaker identifies more with<br>Luke than Fred,right_to_left
null,Somebody says<br><em>Luke is being copied by Fred</em>,NA,NA,NA,html-keyboard-response,71,456388,0.0-39.0-0.0,anomymised,6564584152624795c40b73cb,6564bda976e4cd93dbc871c3,18751,1A,woman,NA,null,NAME1 is being copied by NAME2,copy_passive,sentence,NA,NA,NA,NA,NA
2607.899999976158,NA,NA,NA,NA,survey-likert-extra-labels,72,458998,0.0-39.0-1.0,anomymised,6564584152624795c40b73cb,6564bda976e4cd93dbc871c3,18751,1A,woman,NA,NA,Somebody says<br><em>Luke is being copied by Fred</em>,copy_passive,rating_volition,"{""Q0"":6}",[0],The speaker identifies more with <br>Fred than Luke,The speaker identifies more with<br>Luke than Fred,right_to_left
null,Somebody says<br><em>Ruth is being looked at by Jane</em>,NA,NA,NA,html-keyboard-response,73,461005,0.0-40.0-0.0,anomymised,6564584152624795c40b73cb,6564bda976e4cd93dbc871c3,18751,1A,woman,NA,null,NAME1 is being looked at by NAME2,look_passive,sentence,NA,NA,NA,NA,NA
3714.899999976158,NA,NA,NA,NA,survey-likert-extra-labels,74,464722,0.0-40.0-1.0,anomymised,6564584152624795c40b73cb,6564bda976e4cd93dbc871c3,18751,1A,woman,NA,NA,Somebody says<br><em>Ruth is being looked at by Jane</em>,look_passive,rating_volition,"{""Q0"":0}",[0],The speaker identifies more with <br>Ruth than Jane,The speaker identifies more with<br>Jane than Ruth,left_to_right
null,Somebody says<br><em>Luke and Ruth are fighting with each other</em>,NA,NA,NA,html-keyboard-response,75,466729,0.0-41.0-0.0,anomymised,6564584152624795c40b73cb,6564bda976e4cd93dbc871c3,18751,1A,woman,NA,null,NAME1 and NAME2 are fighting with each other,fight_conjoined,sentence,NA,NA,NA,NA,NA
6295.799999982119,NA,NA,NA,NA,survey-likert-extra-labels,76,473028,0.0-41.0-1.0,anomymised,6564584152624795c40b73cb,6564bda976e4cd93dbc871c3,18751,1A,woman,NA,NA,Somebody says<br><em>Luke and Ruth are fighting with each other</em>,fight_conjoined,rating_volition,"{""Q0"":0}",[0],The speaker identifies more with <br>Luke than Ruth,The speaker identifies more with<br>Ruth than Luke,left_to_right
null,Somebody says<br><em>Luke is being hugged by Beth</em>,NA,NA,NA,html-keyboard-response,77,475035,0.0-42.0-0.0,anomymised,6564584152624795c40b73cb,6564bda976e4cd93dbc871c3,18751,1A,woman,NA,null,NAME1 is being hugged by NAME2,hug_passive,sentence,NA,NA,NA,NA,NA
3569.199999988079,NA,NA,NA,NA,survey-likert-extra-labels,78,478607,0.0-42.0-1.0,anomymised,6564584152624795c40b73cb,6564bda976e4cd93dbc871c3,18751,1A,woman,NA,NA,Somebody says<br><em>Luke is being hugged by Beth</em>,hug_passive,rating_volition,"{""Q0"":6}",[0],The speaker identifies more with <br>Beth than Luke,The speaker identifies more with<br>Luke than Beth,right_to_left
null,Somebody says<br><em>Beth is hugging Luke</em>,NA,NA,NA,html-keyboard-response,79,480615,0.0-43.0-0.0,anomymised,6564584152624795c40b73cb,6564bda976e4cd93dbc871c3,18751,1A,woman,NA,null,NAME1 is hugging NAME2,hug_active,sentence,NA,NA,NA,NA,NA
3480.0999999940395,NA,NA,NA,NA,survey-likert-extra-labels,80,484098,0.0-43.0-1.0,anomymised,6564584152624795c40b73cb,6564bda976e4cd93dbc871c3,18751,1A,woman,NA,NA,Somebody says<br><em>Beth is hugging Luke</em>,hug_active,rating_volition,"{""Q0"":0}",[0],The speaker identifies more with <br>Beth than Luke,The speaker identifies more with<br>Luke than Beth,left_to_right
null,Somebody says<br><em>Ruth and Jane are kissing each other</em>,NA,NA,NA,html-keyboard-response,81,486107,0.0-44.0-0.0,anomymised,6564584152624795c40b73cb,6564bda976e4cd93dbc871c3,18751,1A,woman,NA,null,NAME1 and NAME2 are kissing each other,kiss_conjoined,sentence,NA,NA,NA,NA,NA
3811.2000000178814,NA,NA,NA,NA,survey-likert-extra-labels,82,489920,0.0-44.0-1.0,anomymised,6564584152624795c40b73cb,6564bda976e4cd93dbc871c3,18751,1A,woman,NA,NA,Somebody says<br><em>Ruth and Jane are kissing each other</em>,kiss_conjoined,rating_volition,"{""Q0"":0}",[0],The speaker identifies more with <br>Ruth than Jane,The speaker identifies more with<br>Jane than Ruth,left_to_right
null,Somebody says<br><em>Dave and Beth are talking with each other</em>,NA,NA,NA,html-keyboard-response,83,491923,0.0-45.0-0.0,anomymised,6564584152624795c40b73cb,6564bda976e4cd93dbc871c3,18751,1A,woman,NA,null,NAME1 and NAME2 are talking with each other,talk_conjoined,sentence,NA,NA,NA,NA,NA
4962.9000000059605,NA,NA,NA,NA,survey-likert-extra-labels,84,496889,0.0-45.0-1.0,anomymised,6564584152624795c40b73cb,6564bda976e4cd93dbc871c3,18751,1A,woman,NA,NA,Somebody says<br><em>Dave and Beth are talking with each other</em>,talk_conjoined,rating_volition,"{""Q0"":6}",[0],The speaker identifies more with <br>Beth than Dave,The speaker identifies more with<br>Dave than Beth,right_to_left
null,Somebody says<br><em>Mike is touching Fred</em>,NA,NA,NA,html-keyboard-response,85,498892,0.0-46.0-0.0,anomymised,6564584152624795c40b73cb,6564bda976e4cd93dbc871c3,18751,1A,woman,NA,null,NAME1 is touching NAME2,touch_active,sentence,NA,NA,NA,NA,NA
3727.2999999821186,NA,NA,NA,NA,survey-likert-extra-labels,86,502622,0.0-46.0-1.0,anomymised,6564584152624795c40b73cb,6564bda976e4cd93dbc871c3,18751,1A,woman,NA,NA,Somebody says<br><em>Mike is touching Fred</em>,touch_active,rating_volition,"{""Q0"":0}",[0],The speaker identifies more with <br>Fred than Mike,The speaker identifies more with<br>Mike than Fred,right_to_left
null,Somebody says<br><em>Kate is being greeted by Ruth</em>,NA,NA,NA,html-keyboard-response,87,504627,0.0-47.0-0.0,anomymised,6564584152624795c40b73cb,6564bda976e4cd93dbc871c3,18751,1A,woman,NA,null,NAME1 is being greeted by NAME2,greet_passive,sentence,NA,NA,NA,NA,NA
17361.09999999404,NA,NA,NA,NA,survey-likert-extra-labels,88,521990,0.0-47.0-1.0,anomymised,6564584152624795c40b73cb,6564bda976e4cd93dbc871c3,18751,1A,woman,NA,NA,Somebody says<br><em>Kate is being greeted by Ruth</em>,greet_passive,rating_volition,"{""Q0"":0}",[0],The speaker identifies more with <br>Kate than Ruth,The speaker identifies more with<br>Ruth than Kate,left_to_right
null,Somebody says<br><em>Fred and Beth are flirting with each other</em>,NA,NA,NA,html-keyboard-response,89,523997,0.0-48.0-0.0,anomymised,6564584152624795c40b73cb,6564bda976e4cd93dbc871c3,18751,1A,woman,NA,null,NAME1 and NAME2 are flirting with each other,flirt_conjoined,sentence,NA,NA,NA,NA,NA
2624.300000011921,NA,NA,NA,NA,survey-likert-extra-labels,90,526624,0.0-48.0-1.0,anomymised,6564584152624795c40b73cb,6564bda976e4cd93dbc871c3,18751,1A,woman,NA,NA,Somebody says<br><em>Fred and Beth are flirting with each other</em>,flirt_conjoined,rating_volition,"{""Q0"":0}",[0],The speaker identifies more with <br>Fred than Beth,The speaker identifies more with<br>Beth than Fred,left_to_right
null,Somebody says<br><em>Jane is seducing Fred</em>,NA,NA,NA,html-keyboard-response,91,528632,0.0-49.0-0.0,anomymised,6564584152624795c40b73cb,6564bda976e4cd93dbc871c3,18751,1A,woman,NA,null,NAME1 is seducing NAME2,seduce_active,sentence,NA,NA,NA,NA,NA
7142.5999999940395,NA,NA,NA,NA,survey-likert-extra-labels,92,535777,0.0-49.0-1.0,anomymised,6564584152624795c40b73cb,6564bda976e4cd93dbc871c3,18751,1A,woman,NA,NA,Somebody says<br><em>Jane is seducing Fred</em>,seduce_active,rating_volition,"{""Q0"":6}",[0],The speaker identifies more with <br>Jane than Fred,The speaker identifies more with<br>Fred than Jane,left_to_right
null,Somebody says<br><em>Ruth is talking to Mike</em>,NA,NA,NA,html-keyboard-response,93,537785,0.0-50.0-0.0,anomymised,6564584152624795c40b73cb,6564bda976e4cd93dbc871c3,18751,1A,woman,NA,null,NAME1 is talking to NAME2,talk_active,sentence,NA,NA,NA,NA,NA
6183.799999982119,NA,NA,NA,NA,survey-likert-extra-labels,94,543972,0.0-50.0-1.0,anomymised,6564584152624795c40b73cb,6564bda976e4cd93dbc871c3,18751,1A,woman,NA,NA,Somebody says<br><em>Ruth is talking to Mike</em>,talk_active,rating_volition,"{""Q0"":0}",[0],The speaker identifies more with <br>Mike than Ruth,The speaker identifies more with<br>Ruth than Mike,right_to_left
null,Somebody says<br><em>Dave and Fred are hugging each other</em>,NA,NA,NA,html-keyboard-response,95,545977,0.0-51.0-0.0,anomymised,6564584152624795c40b73cb,6564bda976e4cd93dbc871c3,18751,1A,woman,NA,null,NAME1 and NAME2 are hugging each other,hug_conjoined,sentence,NA,NA,NA,NA,NA
3937.5999999940395,NA,NA,NA,NA,survey-likert-extra-labels,96,549917,0.0-51.0-1.0,anomymised,6564584152624795c40b73cb,6564bda976e4cd93dbc871c3,18751,1A,woman,NA,NA,Somebody says<br><em>Dave and Fred are hugging each other</em>,hug_conjoined,rating_volition,"{""Q0"":6}",[0],The speaker identifies more with <br>Fred than Dave,The speaker identifies more with<br>Dave than Fred,right_to_left
null,Somebody says<br><em>Luke is playing with Dave</em>,NA,NA,NA,html-keyboard-response,97,551925,0.0-52.0-0.0,anomymised,6564584152624795c40b73cb,6564bda976e4cd93dbc871c3,18751,1A,woman,NA,null,NAME1 is playing with NAME2,play_active,sentence,NA,NA,NA,NA,NA
2251.699999988079,NA,NA,NA,NA,survey-likert-extra-labels,98,554180,0.0-52.0-1.0,anomymised,6564584152624795c40b73cb,6564bda976e4cd93dbc871c3,18751,1A,woman,NA,NA,Somebody says<br><em>Luke is playing with Dave</em>,play_active,rating_volition,"{""Q0"":0}",[0],The speaker identifies more with <br>Luke than Dave,The speaker identifies more with<br>Dave than Luke,left_to_right
null,Somebody says<br><em>Jane and Beth are arguing with each other</em>,NA,NA,NA,html-keyboard-response,99,556189,0.0-53.0-0.0,anomymised,6564584152624795c40b73cb,6564bda976e4cd93dbc871c3,18751,1A,woman,NA,null,NAME1 and NAME2 are arguing with each other,argue_conjoined,sentence,NA,NA,NA,NA,NA
3502.800000011921,NA,NA,NA,NA,survey-likert-extra-labels,100,559694,0.0-53.0-1.0,anomymised,6564584152624795c40b73cb,6564bda976e4cd93dbc871c3,18751,1A,woman,NA,NA,Somebody says<br><em>Jane and Beth are arguing with each other</em>,argue_conjoined,rating_volition,"{""Q0"":0}",[0],The speaker identifies more with <br>Jane than Beth,The speaker identifies more with<br>Beth than Jane,left_to_right
null,Somebody says<br><em>Mike is being challenged by Kate</em>,NA,NA,NA,html-keyboard-response,101,561702,0.0-54.0-0.0,anomymised,6564584152624795c40b73cb,6564bda976e4cd93dbc871c3,18751,1A,woman,NA,null,NAME1 is being challenged by NAME2,challenge_passive,sentence,NA,NA,NA,NA,NA
2873.800000011921,NA,NA,NA,NA,survey-likert-extra-labels,102,564579,0.0-54.0-1.0,anomymised,6564584152624795c40b73cb,6564bda976e4cd93dbc871c3,18751,1A,woman,NA,NA,Somebody says<br><em>Mike is being challenged by Kate</em>,challenge_passive,rating_volition,"{""Q0"":0}",[0],The speaker identifies more with <br>Kate than Mike,The speaker identifies more with<br>Mike than Kate,right_to_left
null,Somebody says<br><em>Kate is being touched by Fred</em>,NA,NA,NA,html-keyboard-response,103,566584,0.0-55.0-0.0,anomymised,6564584152624795c40b73cb,6564bda976e4cd93dbc871c3,18751,1A,woman,NA,null,NAME1 is being touched by NAME2,touch_passive,sentence,NA,NA,NA,NA,NA
5021.200000017881,NA,NA,NA,NA,survey-likert-extra-labels,104,571608,0.0-55.0-1.0,anomymised,6564584152624795c40b73cb,6564bda976e4cd93dbc871c3,18751,1A,woman,NA,NA,Somebody says<br><em>Kate is being touched by Fred</em>,touch_passive,rating_volition,"{""Q0"":0}",[0],The speaker identifies more with <br>Kate than Fred,The speaker identifies more with<br>Fred than Kate,left_to_right
1573.9000000059605,<p>Thank you for completing that task.</p><p>The final part of this session is a short questionnaire.</p><p>Press Continue.</p>,0,Continue,Continue,html-button-response,105,573185,0.0-56.0,anomymised,6564584152624795c40b73cb,6564bda976e4cd93dbc871c3,18751,1A,woman,NA,NA,NA,NA,NA,NA,NA,NA,NA,NA
27400.70000001788,NA,NA,NA,NA,survey-text,106,601601,0.0-57.0,anomymised,6564584152624795c40b73cb,6564bda976e4cd93dbc871c3,18751,1A,woman,NA,NA,NA,NA,demographics,"{""Q0"":""47"",""Q1"":""English"",""Q2"":""English"",""Q3"":""Scotland"",""Q4"":""British"",""Q5"":""White"",""Q6"":""Female""}",NA,NA,NA,NA
2974,<p>This is the last question - thank you for taking part! Have you lived in the UK for the last 5 years or more?</p>,0,"Yes,No",Yes,html-button-response,107,604579,0.0-58.0,anomymised,6564584152624795c40b73cb,6564bda976e4cd93dbc871c3,18751,1A,woman,NA,NA,NA,NA,fiveyears,NA,NA,NA,NA,NA
