rt,stimulus,button_pressed,choices,ChosenStimulus,trial_type,trial_index,time_elapsed,internal_node_id,subject_id,study_id,session_id,subject,list,ppt_gender,url,key_press,sentence_type,verb,test_part,responses,question_order,left_part,right_part,name_order
1269.699999999255,Welcome to the experiment. Press Continue to begin.,0,Continue,Continue,html-button-response,0,1285,0.0-0.0,anomymised,6560c4cfd080ba12b16d8282,6564c884e52f3ca60075ba82,198,1A,man,NA,NA,NA,NA,NA,NA,NA,NA,NA,NA
4046.599999997765,NA,NA,NA,NA,external-html,1,6381,0.0-1.0,anomymised,6560c4cfd080ba12b16d8282,6564c884e52f3ca60075ba82,198,1A,man,consent.html,NA,NA,NA,NA,NA,NA,NA,NA,NA
2643.599999997765,"<p>Welcome.</p><p>In this experiment we will ask you to imagine people's motivations for saying sentences.</p><p>Each trial will begin with a sentence that somebody might say to describe an event involving two different people.</p><p>For instance, someone might say <em>Harry is being recruited by Molly</em></p><p>We want you to think about which of those two people (Molly and Harry) the speaker identifies more with. For instance, why did the speaker say <em>Harry is being recruited by Molly</em> rather than <em> Molly is recruiting Harry</em>? Might that mean that the speaker is socially closer to one of the two characters?</p><p>After you have read the sentence, you will rate on a scale which of the two characters the speaker identifies more with.</p><p>You will give your answer by clicking a button on a rating scale.</p><p>Sometimes there will also be catch questions designed to make sure that you are paying attention, which ask about a different topic.</p><p>To do this task, you will have to use your imagination to think about and visualise the events, and how the speaker might relate to the characters.</p><br><p>Ready?</p>",0,Continue,Continue,html-button-response,2,9026,0.0-2.0,anomymised,6560c4cfd080ba12b16d8282,6564c884e52f3ca60075ba82,198,1A,man,NA,NA,NA,NA,NA,NA,NA,NA,NA,NA
2797.800000000745,"<p>Before the experiment starts, we will show you an example of how you will answer the questions. Press 'Continue'.</p>",0,Continue,Continue,html-button-response,3,12824,0.0-3.0,anomymised,6560c4cfd080ba12b16d8282,6564c884e52f3ca60075ba82,198,1A,man,NA,NA,NA,NA,NA,NA,NA,NA,NA,NA
null,Somebody says <br><em>Samuel is dining with Frank</em>,NA,NA,NA,html-keyboard-response,4,15838,0.0-4.0,anomymised,6560c4cfd080ba12b16d8282,6564c884e52f3ca60075ba82,198,1A,man,NA,null,NA,NA,NA,NA,NA,NA,NA,NA
4903.800000000745,<img src='img/Example-trial.jpg' style='height:550px;''></img>,0,Continue,Continue,html-button-response,5,20742,0.0-5.0,anomymised,6560c4cfd080ba12b16d8282,6564c884e52f3ca60075ba82,198,1A,man,NA,NA,NA,NA,NA,NA,NA,NA,NA,NA
3421.60000000149,<p>Ready to start the experiment?</p><br><p><strong>Remember to give an answer by clicking a button on the rating scale.</strong></p><p>Press 'Continue' to begin.</p>,0,Continue,Continue,html-button-response,6,25178,0.0-6.0,anomymised,6560c4cfd080ba12b16d8282,6564c884e52f3ca60075ba82,198,1A,man,NA,NA,NA,NA,NA,NA,NA,NA,NA,NA
null,Somebody says<br><em>Beth and Mike are hugging each other</em>,NA,NA,NA,html-keyboard-response,7,28200,0.0-7.0-0.0,anomymised,6560c4cfd080ba12b16d8282,6564c884e52f3ca60075ba82,198,1A,man,NA,null,NAME1 and NAME2 are hugging each other,hug_conjoined,sentence,NA,NA,NA,NA,NA
6313.699999999255,NA,NA,NA,NA,survey-likert-extra-labels,8,34515,0.0-7.0-1.0,anomymised,6560c4cfd080ba12b16d8282,6564c884e52f3ca60075ba82,198,1A,man,NA,NA,Somebody says<br><em>Beth and Mike are hugging each other</em>,hug_conjoined,rating_volition,"{""Q0"":3}",[0],The speaker identifies more with <br>Beth than Mike,The speaker identifies more with<br>Mike than Beth,left_to_right
null,Somebody says<br><em>Beth is being kissed by Dave</em>,NA,NA,NA,html-keyboard-response,9,36518,0.0-8.0-0.0,anomymised,6560c4cfd080ba12b16d8282,6564c884e52f3ca60075ba82,198,1A,man,NA,null,NAME1 is being kissed by NAME2,kiss_passive,sentence,NA,NA,NA,NA,NA
3183.39999999851,NA,NA,NA,NA,survey-likert-extra-labels,10,39702,0.0-8.0-1.0,anomymised,6560c4cfd080ba12b16d8282,6564c884e52f3ca60075ba82,198,1A,man,NA,NA,Somebody says<br><em>Beth is being kissed by Dave</em>,kiss_passive,rating_volition,"{""Q0"":4}",[0],The speaker identifies more with <br>Dave than Beth,The speaker identifies more with<br>Beth than Dave,right_to_left
null,Somebody says<br><em>Dave is touching Jane</em>,NA,NA,NA,html-keyboard-response,11,41705,0.0-9.0-0.0,anomymised,6560c4cfd080ba12b16d8282,6564c884e52f3ca60075ba82,198,1A,man,NA,null,NAME1 is touching NAME2,touch_active,sentence,NA,NA,NA,NA,NA
2882,NA,NA,NA,NA,survey-likert-extra-labels,12,44588,0.0-9.0-1.0,anomymised,6560c4cfd080ba12b16d8282,6564c884e52f3ca60075ba82,198,1A,man,NA,NA,Somebody says<br><em>Dave is touching Jane</em>,touch_active,rating_volition,"{""Q0"":1}",[0],The speaker identifies more with <br>Jane than Dave,The speaker identifies more with<br>Dave than Jane,right_to_left
null,Somebody says<br><em>Ruth is chasing Kate,NA,NA,NA,html-keyboard-response,13,46605,0.0-10.0-0.0,anomymised,6560c4cfd080ba12b16d8282,6564c884e52f3ca60075ba82,198,1A,man,NA,null,W1 is chasing W3,chase,sentence,NA,NA,NA,NA,NA
1534.300000000745,NA,NA,NA,NA,survey-likert-extra-labels,14,48140,0.0-10.0-1.0,anomymised,6560c4cfd080ba12b16d8282,6564c884e52f3ca60075ba82,198,1A,man,NA,NA,Somebody says<br><em>Ruth is chasing Kate,chase,rating_volition,"{""Q0"":3}",[0],Ruth is behind Kate,Kate is behind Ruth,NA
null,Somebody says<br><em>Mike is posing for Dave,NA,NA,NA,html-keyboard-response,15,50141,0.0-11.0-0.0,anomymised,6560c4cfd080ba12b16d8282,6564c884e52f3ca60075ba82,198,1A,man,NA,null,M2 is posing for M4,pose,sentence,NA,NA,NA,NA,NA
2946.699999999255,NA,NA,NA,NA,survey-likert-extra-labels,16,53089,0.0-11.0-1.0,anomymised,6560c4cfd080ba12b16d8282,6564c884e52f3ca60075ba82,198,1A,man,NA,NA,Somebody says<br><em>Mike is posing for Dave,pose,rating_volition,"{""Q0"":2}",[0],Mike is modelling for Dave,Dave is modelling for Mike,NA
null,Somebody says<br><em>Dave is marrying Kate</em>,NA,NA,NA,html-keyboard-response,17,55090,0.0-12.0-0.0,anomymised,6560c4cfd080ba12b16d8282,6564c884e52f3ca60075ba82,198,1A,man,NA,null,NAME1 is marrying NAME2,marry_active,sentence,NA,NA,NA,NA,NA
2538.5,NA,NA,NA,NA,survey-likert-extra-labels,18,57629,0.0-12.0-1.0,anomymised,6560c4cfd080ba12b16d8282,6564c884e52f3ca60075ba82,198,1A,man,NA,NA,Somebody says<br><em>Dave is marrying Kate</em>,marry_active,rating_volition,"{""Q0"":4}",[0],The speaker identifies more with <br>Kate than Dave,The speaker identifies more with<br>Dave than Kate,right_to_left
null,Somebody says<br><em>Dave and Luke are playing with each other</em>,NA,NA,NA,html-keyboard-response,19,59634,0.0-13.0-0.0,anomymised,6560c4cfd080ba12b16d8282,6564c884e52f3ca60075ba82,198,1A,man,NA,null,NAME1 and NAME2 are playing with each other,play_conjoined,sentence,NA,NA,NA,NA,NA
2985.89999999851,NA,NA,NA,NA,survey-likert-extra-labels,20,62621,0.0-13.0-1.0,anomymised,6560c4cfd080ba12b16d8282,6564c884e52f3ca60075ba82,198,1A,man,NA,NA,Somebody says<br><em>Dave and Luke are playing with each other</em>,play_conjoined,rating_volition,"{""Q0"":3}",[0],The speaker identifies more with <br>Dave than Luke,The speaker identifies more with<br>Luke than Dave,left_to_right
null,Somebody says<br><em>Ruth and Dave are marrying each other</em>,NA,NA,NA,html-keyboard-response,21,64622,0.0-14.0-0.0,anomymised,6560c4cfd080ba12b16d8282,6564c884e52f3ca60075ba82,198,1A,man,NA,null,NAME1 and NAME2 are marrying each other,marry_conjoined,sentence,NA,NA,NA,NA,NA
2335.199999999255,NA,NA,NA,NA,survey-likert-extra-labels,22,66958,0.0-14.0-1.0,anomymised,6560c4cfd080ba12b16d8282,6564c884e52f3ca60075ba82,198,1A,man,NA,NA,Somebody says<br><em>Ruth and Dave are marrying each other</em>,marry_conjoined,rating_volition,"{""Q0"":4}",[0],The speaker identifies more with <br>Dave than Ruth,The speaker identifies more with<br>Ruth than Dave,right_to_left
null,Somebody says<br><em>Mike is being challenged by Luke</em>,NA,NA,NA,html-keyboard-response,23,68961,0.0-15.0-0.0,anomymised,6560c4cfd080ba12b16d8282,6564c884e52f3ca60075ba82,198,1A,man,NA,null,NAME1 is being challenged by NAME2,challenge_passive,sentence,NA,NA,NA,NA,NA
3981.599999997765,NA,NA,NA,NA,survey-likert-extra-labels,24,72943,0.0-15.0-1.0,anomymised,6560c4cfd080ba12b16d8282,6564c884e52f3ca60075ba82,198,1A,man,NA,NA,Somebody says<br><em>Mike is being challenged by Luke</em>,challenge_passive,rating_volition,"{""Q0"":2}",[0],The speaker identifies more with <br>Luke than Mike,The speaker identifies more with<br>Mike than Luke,right_to_left
null,Somebody says<br><em>Dave is being copied by Beth</em>,NA,NA,NA,html-keyboard-response,25,74944,0.0-16.0-0.0,anomymised,6560c4cfd080ba12b16d8282,6564c884e52f3ca60075ba82,198,1A,man,NA,null,NAME1 is being copied by NAME2,copy_passive,sentence,NA,NA,NA,NA,NA
2989.400000002235,NA,NA,NA,NA,survey-likert-extra-labels,26,77934,0.0-16.0-1.0,anomymised,6560c4cfd080ba12b16d8282,6564c884e52f3ca60075ba82,198,1A,man,NA,NA,Somebody says<br><em>Dave is being copied by Beth</em>,copy_passive,rating_volition,"{""Q0"":2}",[0],The speaker identifies more with <br>Dave than Beth,The speaker identifies more with<br>Beth than Dave,left_to_right
null,Somebody says<br><em>Jane is teaching Dave,NA,NA,NA,html-keyboard-response,27,79950,0.0-17.0-0.0,anomymised,6560c4cfd080ba12b16d8282,6564c884e52f3ca60075ba82,198,1A,man,NA,null,W2 is teaching M4,teach,sentence,NA,NA,NA,NA,NA
2027.699999999255,NA,NA,NA,NA,survey-likert-extra-labels,28,81979,0.0-17.0-1.0,anomymised,6560c4cfd080ba12b16d8282,6564c884e52f3ca60075ba82,198,1A,man,NA,NA,Somebody says<br><em>Jane is teaching Dave,teach,rating_volition,"{""Q0"":2}",[0],Jane is educating Dave,Dave is educating Jane,NA
null,Somebody says<br><em>Mike is reminding Beth,NA,NA,NA,html-keyboard-response,29,83980,0.0-18.0-0.0,anomymised,6560c4cfd080ba12b16d8282,6564c884e52f3ca60075ba82,198,1A,man,NA,null,M2 is reminding W4,remind,sentence,NA,NA,NA,NA,NA
2646.199999999255,NA,NA,NA,NA,survey-likert-extra-labels,30,86627,0.0-18.0-1.0,anomymised,6560c4cfd080ba12b16d8282,6564c884e52f3ca60075ba82,198,1A,man,NA,NA,Somebody says<br><em>Mike is reminding Beth,remind,rating_volition,"{""Q0"":4}",[0],Mike is telling Beth again,Beth is telling Mike again,NA
null,Somebody says<br><em>Luke and Kate are talking with each other</em>,NA,NA,NA,html-keyboard-response,31,88634,0.0-19.0-0.0,anomymised,6560c4cfd080ba12b16d8282,6564c884e52f3ca60075ba82,198,1A,man,NA,null,NAME1 and NAME2 are talking with each other,talk_conjoined,sentence,NA,NA,NA,NA,NA
2628,NA,NA,NA,NA,survey-likert-extra-labels,32,91263,0.0-19.0-1.0,anomymised,6560c4cfd080ba12b16d8282,6564c884e52f3ca60075ba82,198,1A,man,NA,NA,Somebody says<br><em>Luke and Kate are talking with each other</em>,talk_conjoined,rating_volition,"{""Q0"":3}",[0],The speaker identifies more with <br>Luke than Kate,The speaker identifies more with<br>Kate than Luke,left_to_right
null,Somebody says<br><em>Dave and Jane are meeting each other</em>,NA,NA,NA,html-keyboard-response,33,93264,0.0-20.0-0.0,anomymised,6560c4cfd080ba12b16d8282,6564c884e52f3ca60075ba82,198,1A,man,NA,null,NAME1 and NAME2 are meeting each other,meet_conjoined,sentence,NA,NA,NA,NA,NA
1709.1000000014901,NA,NA,NA,NA,survey-likert-extra-labels,34,94974,0.0-20.0-1.0,anomymised,6560c4cfd080ba12b16d8282,6564c884e52f3ca60075ba82,198,1A,man,NA,NA,Somebody says<br><em>Dave and Jane are meeting each other</em>,meet_conjoined,rating_volition,"{""Q0"":3}",[0],The speaker identifies more with <br>Dave than Jane,The speaker identifies more with<br>Jane than Dave,left_to_right
null,Somebody says<br><em>Ruth is shouting at Jane</em>,NA,NA,NA,html-keyboard-response,35,96974,0.0-21.0-0.0,anomymised,6560c4cfd080ba12b16d8282,6564c884e52f3ca60075ba82,198,1A,man,NA,null,NAME1 is shouting at NAME2,shout_active,sentence,NA,NA,NA,NA,NA
3249.7999999970198,NA,NA,NA,NA,survey-likert-extra-labels,36,100225,0.0-21.0-1.0,anomymised,6560c4cfd080ba12b16d8282,6564c884e52f3ca60075ba82,198,1A,man,NA,NA,Somebody says<br><em>Ruth is shouting at Jane</em>,shout_active,rating_volition,"{""Q0"":1}",[0],The speaker identifies more with <br>Jane than Ruth,The speaker identifies more with<br>Ruth than Jane,right_to_left
null,Somebody says<br><em>Luke is driving Fred,NA,NA,NA,html-keyboard-response,37,102226,0.0-22.0-0.0,anomymised,6560c4cfd080ba12b16d8282,6564c884e52f3ca60075ba82,198,1A,man,NA,null,M1 is driving M3,drive,sentence,NA,NA,NA,NA,NA
10574.70000000298,NA,NA,NA,NA,survey-likert-extra-labels,38,112801,0.0-22.0-1.0,anomymised,6560c4cfd080ba12b16d8282,6564c884e52f3ca60075ba82,198,1A,man,NA,NA,Somebody says<br><em>Luke is driving Fred,drive,rating_volition,"{""Q0"":6}",[0],Luke is Fred's passenger,Fred is Luke's passenger,NA
null,Somebody says<br><em>Mike is meeting Beth</em>,NA,NA,NA,html-keyboard-response,39,114814,0.0-23.0-0.0,anomymised,6560c4cfd080ba12b16d8282,6564c884e52f3ca60075ba82,198,1A,man,NA,null,NAME1 is meeting NAME2,meet_active,sentence,NA,NA,NA,NA,NA
5251.60000000149,NA,NA,NA,NA,survey-likert-extra-labels,40,120066,0.0-23.0-1.0,anomymised,6560c4cfd080ba12b16d8282,6564c884e52f3ca60075ba82,198,1A,man,NA,NA,Somebody says<br><em>Mike is meeting Beth</em>,meet_active,rating_volition,"{""Q0"":3}",[0],The speaker identifies more with <br>Beth than Mike,The speaker identifies more with<br>Mike than Beth,right_to_left
null,Somebody says<br><em>Fred is greeting Dave</em>,NA,NA,NA,html-keyboard-response,41,122071,0.0-24.0-0.0,anomymised,6560c4cfd080ba12b16d8282,6564c884e52f3ca60075ba82,198,1A,man,NA,null,NAME1 is greeting NAME2,greet_active,sentence,NA,NA,NA,NA,NA
3039.89999999851,NA,NA,NA,NA,survey-likert-extra-labels,42,125112,0.0-24.0-1.0,anomymised,6560c4cfd080ba12b16d8282,6564c884e52f3ca60075ba82,198,1A,man,NA,NA,Somebody says<br><em>Fred is greeting Dave</em>,greet_active,rating_volition,"{""Q0"":3}",[0],The speaker identifies more with <br>Fred than Dave,The speaker identifies more with<br>Dave than Fred,left_to_right
null,Somebody says<br><em>Beth is talking to Jane</em>,NA,NA,NA,html-keyboard-response,43,127113,0.0-25.0-0.0,anomymised,6560c4cfd080ba12b16d8282,6564c884e52f3ca60075ba82,198,1A,man,NA,null,NAME1 is talking to NAME2,talk_active,sentence,NA,NA,NA,NA,NA
2804.39999999851,NA,NA,NA,NA,survey-likert-extra-labels,44,129918,0.0-25.0-1.0,anomymised,6560c4cfd080ba12b16d8282,6564c884e52f3ca60075ba82,198,1A,man,NA,NA,Somebody says<br><em>Beth is talking to Jane</em>,talk_active,rating_volition,"{""Q0"":3}",[0],The speaker identifies more with <br>Beth than Jane,The speaker identifies more with<br>Jane than Beth,left_to_right
null,Somebody says<br><em>Mike is looking at Dave</em>,NA,NA,NA,html-keyboard-response,45,131924,0.0-26.0-0.0,anomymised,6560c4cfd080ba12b16d8282,6564c884e52f3ca60075ba82,198,1A,man,NA,null,NAME1 is looking at NAME2,look_active,sentence,NA,NA,NA,NA,NA
2860.89999999851,NA,NA,NA,NA,survey-likert-extra-labels,46,134786,0.0-26.0-1.0,anomymised,6560c4cfd080ba12b16d8282,6564c884e52f3ca60075ba82,198,1A,man,NA,NA,Somebody says<br><em>Mike is looking at Dave</em>,look_active,rating_volition,"{""Q0"":4}",[0],The speaker identifies more with <br>Dave than Mike,The speaker identifies more with<br>Mike than Dave,right_to_left
null,Somebody says<br><em>Fred is shouting at Ruth</em>,NA,NA,NA,html-keyboard-response,47,136791,0.0-27.0-0.0,anomymised,6560c4cfd080ba12b16d8282,6564c884e52f3ca60075ba82,198,1A,man,NA,null,NAME1 is shouting at NAME2,shout_active,sentence,NA,NA,NA,NA,NA
2697.699999999255,NA,NA,NA,NA,survey-likert-extra-labels,48,139489,0.0-27.0-1.0,anomymised,6560c4cfd080ba12b16d8282,6564c884e52f3ca60075ba82,198,1A,man,NA,NA,Somebody says<br><em>Fred is shouting at Ruth</em>,shout_active,rating_volition,"{""Q0"":1}",[0],The speaker identifies more with <br>Ruth than Fred,The speaker identifies more with<br>Fred than Ruth,right_to_left
null,Somebody says<br><em>Dave is arguing with Jane</em>,NA,NA,NA,html-keyboard-response,49,141497,0.0-28.0-0.0,anomymised,6560c4cfd080ba12b16d8282,6564c884e52f3ca60075ba82,198,1A,man,NA,null,NAME1 is arguing with NAME2,argue_active,sentence,NA,NA,NA,NA,NA
2796.7000000029802,NA,NA,NA,NA,survey-likert-extra-labels,50,144294,0.0-28.0-1.0,anomymised,6560c4cfd080ba12b16d8282,6564c884e52f3ca60075ba82,198,1A,man,NA,NA,Somebody says<br><em>Dave is arguing with Jane</em>,argue_active,rating_volition,"{""Q0"":2}",[0],The speaker identifies more with <br>Jane than Dave,The speaker identifies more with<br>Dave than Jane,right_to_left
null,Somebody says<br><em>Ruth and Kate are touching each other</em>,NA,NA,NA,html-keyboard-response,51,146295,0.0-29.0-0.0,anomymised,6560c4cfd080ba12b16d8282,6564c884e52f3ca60075ba82,198,1A,man,NA,null,NAME1 and NAME2 are touching each other,touch_conjoined,sentence,NA,NA,NA,NA,NA
1395.6000000014901,NA,NA,NA,NA,survey-likert-extra-labels,52,147691,0.0-29.0-1.0,anomymised,6560c4cfd080ba12b16d8282,6564c884e52f3ca60075ba82,198,1A,man,NA,NA,Somebody says<br><em>Ruth and Kate are touching each other</em>,touch_conjoined,rating_volition,"{""Q0"":3}",[0],The speaker identifies more with <br>Ruth than Kate,The speaker identifies more with<br>Kate than Ruth,left_to_right
null,Somebody says<br><em>Dave is fighting with Beth</em>,NA,NA,NA,html-keyboard-response,53,149700,0.0-30.0-0.0,anomymised,6560c4cfd080ba12b16d8282,6564c884e52f3ca60075ba82,198,1A,man,NA,null,NAME1 is fighting with NAME2,fight_active,sentence,NA,NA,NA,NA,NA
2081,NA,NA,NA,NA,survey-likert-extra-labels,54,151782,0.0-30.0-1.0,anomymised,6560c4cfd080ba12b16d8282,6564c884e52f3ca60075ba82,198,1A,man,NA,NA,Somebody says<br><em>Dave is fighting with Beth</em>,fight_active,rating_volition,"{""Q0"":4}",[0],The speaker identifies more with <br>Dave than Beth,The speaker identifies more with<br>Beth than Dave,left_to_right
null,Somebody says<br><em>Ruth and Fred are fighting with each other</em>,NA,NA,NA,html-keyboard-response,55,153794,0.0-31.0-0.0,anomymised,6560c4cfd080ba12b16d8282,6564c884e52f3ca60075ba82,198,1A,man,NA,null,NAME1 and NAME2 are fighting with each other,fight_conjoined,sentence,NA,NA,NA,NA,NA
1318.5999999977648,NA,NA,NA,NA,survey-likert-extra-labels,56,155114,0.0-31.0-1.0,anomymised,6560c4cfd080ba12b16d8282,6564c884e52f3ca60075ba82,198,1A,man,NA,NA,Somebody says<br><em>Ruth and Fred are fighting with each other</em>,fight_conjoined,rating_volition,"{""Q0"":3}",[0],The speaker identifies more with <br>Ruth than Fred,The speaker identifies more with<br>Fred than Ruth,left_to_right
null,Somebody says<br><em>Jane is flirting with Ruth</em>,NA,NA,NA,html-keyboard-response,57,157120,0.0-32.0-0.0,anomymised,6560c4cfd080ba12b16d8282,6564c884e52f3ca60075ba82,198,1A,man,NA,null,NAME1 is flirting with NAME2,flirt_active,sentence,NA,NA,NA,NA,NA
2215.60000000149,NA,NA,NA,NA,survey-likert-extra-labels,58,159336,0.0-32.0-1.0,anomymised,6560c4cfd080ba12b16d8282,6564c884e52f3ca60075ba82,198,1A,man,NA,NA,Somebody says<br><em>Jane is flirting with Ruth</em>,flirt_active,rating_volition,"{""Q0"":2}",[0],The speaker identifies more with <br>Jane than Ruth,The speaker identifies more with<br>Ruth than Jane,left_to_right
null,Somebody says<br><em>Kate is being greeted by Mike</em>,NA,NA,NA,html-keyboard-response,59,161342,0.0-33.0-0.0,anomymised,6560c4cfd080ba12b16d8282,6564c884e52f3ca60075ba82,198,1A,man,NA,null,NAME1 is being greeted by NAME2,greet_passive,sentence,NA,NA,NA,NA,NA
3169,NA,NA,NA,NA,survey-likert-extra-labels,60,164512,0.0-33.0-1.0,anomymised,6560c4cfd080ba12b16d8282,6564c884e52f3ca60075ba82,198,1A,man,NA,NA,Somebody says<br><em>Kate is being greeted by Mike</em>,greet_passive,rating_volition,"{""Q0"":4}",[0],The speaker identifies more with <br>Mike than Kate,The speaker identifies more with<br>Kate than Mike,right_to_left
null,Somebody says<br><em>Dave and Mike are arguing with each other</em>,NA,NA,NA,html-keyboard-response,61,166513,0.0-34.0-0.0,anomymised,6560c4cfd080ba12b16d8282,6564c884e52f3ca60075ba82,198,1A,man,NA,null,NAME1 and NAME2 are arguing with each other,argue_conjoined,sentence,NA,NA,NA,NA,NA
2413.10000000149,NA,NA,NA,NA,survey-likert-extra-labels,62,168927,0.0-34.0-1.0,anomymised,6560c4cfd080ba12b16d8282,6564c884e52f3ca60075ba82,198,1A,man,NA,NA,Somebody says<br><em>Dave and Mike are arguing with each other</em>,argue_conjoined,rating_volition,"{""Q0"":5}",[0],The speaker identifies more with <br>Dave than Mike,The speaker identifies more with<br>Mike than Dave,left_to_right
null,Somebody says<br><em>Fred and Ruth are flirting with each other</em>,NA,NA,NA,html-keyboard-response,63,170930,0.0-35.0-0.0,anomymised,6560c4cfd080ba12b16d8282,6564c884e52f3ca60075ba82,198,1A,man,NA,null,NAME1 and NAME2 are flirting with each other,flirt_conjoined,sentence,NA,NA,NA,NA,NA
3001.300000000745,NA,NA,NA,NA,survey-likert-extra-labels,64,173932,0.0-35.0-1.0,anomymised,6560c4cfd080ba12b16d8282,6564c884e52f3ca60075ba82,198,1A,man,NA,NA,Somebody says<br><em>Fred and Ruth are flirting with each other</em>,flirt_conjoined,rating_volition,"{""Q0"":3}",[0],The speaker identifies more with <br>Ruth than Fred,The speaker identifies more with<br>Fred than Ruth,right_to_left
null,Somebody says<br><em>Mike is being looked at by Fred</em>,NA,NA,NA,html-keyboard-response,65,175940,0.0-36.0-0.0,anomymised,6560c4cfd080ba12b16d8282,6564c884e52f3ca60075ba82,198,1A,man,NA,null,NAME1 is being looked at by NAME2,look_passive,sentence,NA,NA,NA,NA,NA
1821.0999999977648,NA,NA,NA,NA,survey-likert-extra-labels,66,177762,0.0-36.0-1.0,anomymised,6560c4cfd080ba12b16d8282,6564c884e52f3ca60075ba82,198,1A,man,NA,NA,Somebody says<br><em>Mike is being looked at by Fred</em>,look_passive,rating_volition,"{""Q0"":2}",[0],The speaker identifies more with <br>Mike than Fred,The speaker identifies more with<br>Fred than Mike,left_to_right
null,Somebody says<br><em>Kate is being hugged by Mike</em>,NA,NA,NA,html-keyboard-response,67,179767,0.0-37.0-0.0,anomymised,6560c4cfd080ba12b16d8282,6564c884e52f3ca60075ba82,198,1A,man,NA,null,NAME1 is being hugged by NAME2,hug_passive,sentence,NA,NA,NA,NA,NA
1582.8999999985099,NA,NA,NA,NA,survey-likert-extra-labels,68,181351,0.0-37.0-1.0,anomymised,6560c4cfd080ba12b16d8282,6564c884e52f3ca60075ba82,198,1A,man,NA,NA,Somebody says<br><em>Kate is being hugged by Mike</em>,hug_passive,rating_volition,"{""Q0"":2}",[0],The speaker identifies more with <br>Kate than Mike,The speaker identifies more with<br>Mike than Kate,left_to_right
null,Somebody says<br><em>Jane is challenging Ruth</em>,NA,NA,NA,html-keyboard-response,69,183353,0.0-38.0-0.0,anomymised,6560c4cfd080ba12b16d8282,6564c884e52f3ca60075ba82,198,1A,man,NA,null,NAME1 is challenging NAME2,challenge_active,sentence,NA,NA,NA,NA,NA
2998.300000000745,NA,NA,NA,NA,survey-likert-extra-labels,70,186352,0.0-38.0-1.0,anomymised,6560c4cfd080ba12b16d8282,6564c884e52f3ca60075ba82,198,1A,man,NA,NA,Somebody says<br><em>Jane is challenging Ruth</em>,challenge_active,rating_volition,"{""Q0"":2}",[0],The speaker identifies more with <br>Ruth than Jane,The speaker identifies more with<br>Jane than Ruth,right_to_left
null,Somebody says<br><em>Kate is feeding Luke,NA,NA,NA,html-keyboard-response,71,188354,0.0-39.0-0.0,anomymised,6560c4cfd080ba12b16d8282,6564c884e52f3ca60075ba82,198,1A,man,NA,null,W3 is feeding M1,feed,sentence,NA,NA,NA,NA,NA
5688.29999999702,NA,NA,NA,NA,survey-likert-extra-labels,72,194043,0.0-39.0-1.0,anomymised,6560c4cfd080ba12b16d8282,6564c884e52f3ca60075ba82,198,1A,man,NA,NA,Somebody says<br><em>Kate is feeding Luke,feed,rating_volition,"{""Q0"":0}",[0],Kate cooked for Luke,Luke cooked for Kate,NA
null,Somebody says<br><em>Beth is playing with Fred</em>,NA,NA,NA,html-keyboard-response,73,196044,0.0-40.0-0.0,anomymised,6560c4cfd080ba12b16d8282,6564c884e52f3ca60075ba82,198,1A,man,NA,null,NAME1 is playing with NAME2,play_active,sentence,NA,NA,NA,NA,NA
3985.800000000745,NA,NA,NA,NA,survey-likert-extra-labels,74,200031,0.0-40.0-1.0,anomymised,6560c4cfd080ba12b16d8282,6564c884e52f3ca60075ba82,198,1A,man,NA,NA,Somebody says<br><em>Beth is playing with Fred</em>,play_active,rating_volition,"{""Q0"":3}",[0],The speaker identifies more with <br>Beth than Fred,The speaker identifies more with<br>Fred than Beth,left_to_right
null,Somebody says<br><em>Ruth is seducing Beth</em>,NA,NA,NA,html-keyboard-response,75,202040,0.0-41.0-0.0,anomymised,6560c4cfd080ba12b16d8282,6564c884e52f3ca60075ba82,198,1A,man,NA,null,NAME1 is seducing NAME2,seduce_active,sentence,NA,NA,NA,NA,NA
1970.3999999985099,NA,NA,NA,NA,survey-likert-extra-labels,76,204011,0.0-41.0-1.0,anomymised,6560c4cfd080ba12b16d8282,6564c884e52f3ca60075ba82,198,1A,man,NA,NA,Somebody says<br><em>Ruth is seducing Beth</em>,seduce_active,rating_volition,"{""Q0"":3}",[0],The speaker identifies more with <br>Ruth than Beth,The speaker identifies more with<br>Beth than Ruth,left_to_right
null,Somebody says<br><em>Beth and Jane are kissing each other</em>,NA,NA,NA,html-keyboard-response,77,206013,0.0-42.0-0.0,anomymised,6560c4cfd080ba12b16d8282,6564c884e52f3ca60075ba82,198,1A,man,NA,null,NAME1 and NAME2 are kissing each other,kiss_conjoined,sentence,NA,NA,NA,NA,NA
2302.5,NA,NA,NA,NA,survey-likert-extra-labels,78,208316,0.0-42.0-1.0,anomymised,6560c4cfd080ba12b16d8282,6564c884e52f3ca60075ba82,198,1A,man,NA,NA,Somebody says<br><em>Beth and Jane are kissing each other</em>,kiss_conjoined,rating_volition,"{""Q0"":4}",[0],The speaker identifies more with <br>Beth than Jane,The speaker identifies more with<br>Jane than Beth,left_to_right
null,Somebody says<br><em>Dave is being shouted at by Kate</em>,NA,NA,NA,html-keyboard-response,79,210317,0.0-43.0-0.0,anomymised,6560c4cfd080ba12b16d8282,6564c884e52f3ca60075ba82,198,1A,man,NA,null,NAME1 is being shouted at by NAME2,shout_passive,sentence,NA,NA,NA,NA,NA
3180.60000000149,NA,NA,NA,NA,survey-likert-extra-labels,80,213498,0.0-43.0-1.0,anomymised,6560c4cfd080ba12b16d8282,6564c884e52f3ca60075ba82,198,1A,man,NA,NA,Somebody says<br><em>Dave is being shouted at by Kate</em>,shout_passive,rating_volition,"{""Q0"":1}",[0],The speaker identifies more with <br>Dave than Kate,The speaker identifies more with<br>Kate than Dave,left_to_right
null,Somebody says<br><em>Jane is opposing Luke</em>,NA,NA,NA,html-keyboard-response,81,215504,0.0-44.0-0.0,anomymised,6560c4cfd080ba12b16d8282,6564c884e52f3ca60075ba82,198,1A,man,NA,null,NAME1 is opposing NAME2,oppose_active,sentence,NA,NA,NA,NA,NA
2342.89999999851,NA,NA,NA,NA,survey-likert-extra-labels,82,217848,0.0-44.0-1.0,anomymised,6560c4cfd080ba12b16d8282,6564c884e52f3ca60075ba82,198,1A,man,NA,NA,Somebody says<br><em>Jane is opposing Luke</em>,oppose_active,rating_volition,"{""Q0"":2}",[0],The speaker identifies more with <br>Luke than Jane,The speaker identifies more with<br>Jane than Luke,right_to_left
null,Somebody says<br><em>Dave is dancing with Beth</em>,NA,NA,NA,html-keyboard-response,83,219853,0.0-45.0-0.0,anomymised,6560c4cfd080ba12b16d8282,6564c884e52f3ca60075ba82,198,1A,man,NA,null,NAME1 is dancing with NAME2,dance_active,sentence,NA,NA,NA,NA,NA
2048.900000002235,NA,NA,NA,NA,survey-likert-extra-labels,84,221903,0.0-45.0-1.0,anomymised,6560c4cfd080ba12b16d8282,6564c884e52f3ca60075ba82,198,1A,man,NA,NA,Somebody says<br><em>Dave is dancing with Beth</em>,dance_active,rating_volition,"{""Q0"":4}",[0],The speaker identifies more with <br>Beth than Dave,The speaker identifies more with<br>Dave than Beth,right_to_left
null,Somebody says<br><em>Dave is hugging Mike</em>,NA,NA,NA,html-keyboard-response,85,223904,0.0-46.0-0.0,anomymised,6560c4cfd080ba12b16d8282,6564c884e52f3ca60075ba82,198,1A,man,NA,null,NAME1 is hugging NAME2,hug_active,sentence,NA,NA,NA,NA,NA
1120.5999999977648,NA,NA,NA,NA,survey-likert-extra-labels,86,225025,0.0-46.0-1.0,anomymised,6560c4cfd080ba12b16d8282,6564c884e52f3ca60075ba82,198,1A,man,NA,NA,Somebody says<br><em>Dave is hugging Mike</em>,hug_active,rating_volition,"{""Q0"":3}",[0],The speaker identifies more with <br>Dave than Mike,The speaker identifies more with<br>Mike than Dave,left_to_right
null,Somebody says<br><em>Jane is carrying Beth,NA,NA,NA,html-keyboard-response,87,227026,0.0-47.0-0.0,anomymised,6560c4cfd080ba12b16d8282,6564c884e52f3ca60075ba82,198,1A,man,NA,null,W2 is carrying W4,carry,sentence,NA,NA,NA,NA,NA
4138.400000002235,NA,NA,NA,NA,survey-likert-extra-labels,88,231165,0.0-47.0-1.0,anomymised,6560c4cfd080ba12b16d8282,6564c884e52f3ca60075ba82,198,1A,man,NA,NA,Somebody says<br><em>Jane is carrying Beth,carry,rating_volition,"{""Q0"":0}",[0],Jane is transporting Beth,Beth is transporting Jane,NA
null,Somebody says<br><em>Dave is being seduced by Kate</em>,NA,NA,NA,html-keyboard-response,89,233167,0.0-48.0-0.0,anomymised,6560c4cfd080ba12b16d8282,6564c884e52f3ca60075ba82,198,1A,man,NA,null,NAME1 is being seduced by NAME2,seduce_passive,sentence,NA,NA,NA,NA,NA
1845.300000000745,NA,NA,NA,NA,survey-likert-extra-labels,90,235013,0.0-48.0-1.0,anomymised,6560c4cfd080ba12b16d8282,6564c884e52f3ca60075ba82,198,1A,man,NA,NA,Somebody says<br><em>Dave is being seduced by Kate</em>,seduce_passive,rating_volition,"{""Q0"":4}",[0],The speaker identifies more with <br>Kate than Dave,The speaker identifies more with<br>Dave than Kate,right_to_left
null,Somebody says<br><em>Fred is copying Mike</em>,NA,NA,NA,html-keyboard-response,91,237013,0.0-49.0-0.0,anomymised,6560c4cfd080ba12b16d8282,6564c884e52f3ca60075ba82,198,1A,man,NA,null,NAME1 is copying NAME2,copy_active,sentence,NA,NA,NA,NA,NA
1628.1000000014901,NA,NA,NA,NA,survey-likert-extra-labels,92,238642,0.0-49.0-1.0,anomymised,6560c4cfd080ba12b16d8282,6564c884e52f3ca60075ba82,198,1A,man,NA,NA,Somebody says<br><em>Fred is copying Mike</em>,copy_active,rating_volition,"{""Q0"":3}",[0],The speaker identifies more with <br>Fred than Mike,The speaker identifies more with<br>Mike than Fred,left_to_right
null,Somebody says<br><em>Fred is hiring Ruth,NA,NA,NA,html-keyboard-response,93,240646,0.0-50.0-0.0,anomymised,6560c4cfd080ba12b16d8282,6564c884e52f3ca60075ba82,198,1A,man,NA,null,M3 is hiring W1,hire,sentence,NA,NA,NA,NA,NA
6289.699999999255,NA,NA,NA,NA,survey-likert-extra-labels,94,246937,0.0-50.0-1.0,anomymised,6560c4cfd080ba12b16d8282,6564c884e52f3ca60075ba82,198,1A,man,NA,NA,Somebody says<br><em>Fred is hiring Ruth,hire,rating_volition,"{""Q0"":0}",[0],Fred is employing Ruth,Ruth is employing Fred,NA
null,Somebody says<br><em>Mike is being opposed by Dave</em>,NA,NA,NA,html-keyboard-response,95,248938,0.0-51.0-0.0,anomymised,6560c4cfd080ba12b16d8282,6564c884e52f3ca60075ba82,198,1A,man,NA,null,NAME1 is being opposed by NAME2,oppose_passive,sentence,NA,NA,NA,NA,NA
1075.699999999255,NA,NA,NA,NA,survey-likert-extra-labels,96,250015,0.0-51.0-1.0,anomymised,6560c4cfd080ba12b16d8282,6564c884e52f3ca60075ba82,198,1A,man,NA,NA,Somebody says<br><em>Mike is being opposed by Dave</em>,oppose_passive,rating_volition,"{""Q0"":3}",[0],The speaker identifies more with <br>Mike than Dave,The speaker identifies more with<br>Dave than Mike,left_to_right
null,Somebody says<br><em>Luke is being touched by Ruth</em>,NA,NA,NA,html-keyboard-response,97,252020,0.0-52.0-0.0,anomymised,6560c4cfd080ba12b16d8282,6564c884e52f3ca60075ba82,198,1A,man,NA,null,NAME1 is being touched by NAME2,touch_passive,sentence,NA,NA,NA,NA,NA
3162.39999999851,NA,NA,NA,NA,survey-likert-extra-labels,98,255183,0.0-52.0-1.0,anomymised,6560c4cfd080ba12b16d8282,6564c884e52f3ca60075ba82,198,1A,man,NA,NA,Somebody says<br><em>Luke is being touched by Ruth</em>,touch_passive,rating_volition,"{""Q0"":4}",[0],The speaker identifies more with <br>Ruth than Luke,The speaker identifies more with<br>Luke than Ruth,right_to_left
null,Somebody says<br><em>Kate and Jane are shouting at each other</em>,NA,NA,NA,html-keyboard-response,99,257199,0.0-53.0-0.0,anomymised,6560c4cfd080ba12b16d8282,6564c884e52f3ca60075ba82,198,1A,man,NA,null,NAME1 and NAME2 are shouting at each other,shout_conjoined,sentence,NA,NA,NA,NA,NA
1194.699999999255,NA,NA,NA,NA,survey-likert-extra-labels,100,258395,0.0-53.0-1.0,anomymised,6560c4cfd080ba12b16d8282,6564c884e52f3ca60075ba82,198,1A,man,NA,NA,Somebody says<br><em>Kate and Jane are shouting at each other</em>,shout_conjoined,rating_volition,"{""Q0"":3}",[0],The speaker identifies more with <br>Kate than Jane,The speaker identifies more with<br>Jane than Kate,left_to_right
null,Somebody says<br><em>Jane and Mike are dancing with each other</em>,NA,NA,NA,html-keyboard-response,101,260403,0.0-54.0-0.0,anomymised,6560c4cfd080ba12b16d8282,6564c884e52f3ca60075ba82,198,1A,man,NA,null,NAME1 and NAME2 are dancing with each other,dance_conjoined,sentence,NA,NA,NA,NA,NA
1495.9000000022352,NA,NA,NA,NA,survey-likert-extra-labels,102,261900,0.0-54.0-1.0,anomymised,6560c4cfd080ba12b16d8282,6564c884e52f3ca60075ba82,198,1A,man,NA,NA,Somebody says<br><em>Jane and Mike are dancing with each other</em>,dance_conjoined,rating_volition,"{""Q0"":3}",[0],The speaker identifies more with <br>Jane than Mike,The speaker identifies more with<br>Mike than Jane,left_to_right
null,Somebody says<br><em>Dave is kissing Fred</em>,NA,NA,NA,html-keyboard-response,103,263901,0.0-55.0-0.0,anomymised,6560c4cfd080ba12b16d8282,6564c884e52f3ca60075ba82,198,1A,man,NA,null,NAME1 is kissing NAME2,kiss_active,sentence,NA,NA,NA,NA,NA
2208.39999999851,NA,NA,NA,NA,survey-likert-extra-labels,104,266110,0.0-55.0-1.0,anomymised,6560c4cfd080ba12b16d8282,6564c884e52f3ca60075ba82,198,1A,man,NA,NA,Somebody says<br><em>Dave is kissing Fred</em>,kiss_active,rating_volition,"{""Q0"":4}",[0],The speaker identifies more with <br>Fred than Dave,The speaker identifies more with<br>Dave than Fred,right_to_left
1829,<p>Thank you for completing that task.</p><p>The final part of this session is a short questionnaire.</p><p>Press Continue.</p>,0,Continue,Continue,html-button-response,105,267940,0.0-56.0,anomymised,6560c4cfd080ba12b16d8282,6564c884e52f3ca60075ba82,198,1A,man,NA,NA,NA,NA,NA,NA,NA,NA,NA,NA
24385.400000002235,NA,NA,NA,NA,survey-text,106,293329,0.0-57.0,anomymised,6560c4cfd080ba12b16d8282,6564c884e52f3ca60075ba82,198,1A,man,NA,NA,NA,NA,demographics,"{""Q0"":""30"",""Q1"":""english"",""Q2"":""english"",""Q3"":""england"",""Q4"":""english"",""Q5"":""white"",""Q6"":""male""}",NA,NA,NA,NA
3304.10000000149,<p>This is the last question - thank you for taking part! Have you lived in the UK for the last 5 years or more?</p>,0,"Yes,No",Yes,html-button-response,107,296633,0.0-58.0,anomymised,6560c4cfd080ba12b16d8282,6564c884e52f3ca60075ba82,198,1A,man,NA,NA,NA,NA,fiveyears,NA,NA,NA,NA,NA
