rt,stimulus,button_pressed,choices,ChosenStimulus,trial_type,trial_index,time_elapsed,internal_node_id,subject_id,study_id,session_id,subject,list,ppt_gender,url,key_press,sentence_type,verb,test_part,responses,question_order,left_part,right_part,name_order
3486.2999999523163,Welcome to the experiment. Press Continue to begin.,0,Continue,Continue,html-button-response,0,3491,0.0-0.0,anomymised,6564584152624795c40b73cb,65645f7eaeec8ad07939132d,22406,1A,woman,NA,NA,NA,NA,NA,NA,NA,NA,NA,NA
5146.600000023842,NA,NA,NA,NA,external-html,1,9733,0.0-1.0,anomymised,6564584152624795c40b73cb,65645f7eaeec8ad07939132d,22406,1A,woman,consent.html,NA,NA,NA,NA,NA,NA,NA,NA,NA
13535.900000095367,"<p>Welcome.</p><p>In this experiment we will ask you to imagine people's motivations for saying sentences.</p><p>Each trial will begin with a sentence that somebody might say to describe an event involving two different people.</p><p>For instance, someone might say <em>Harry is being recruited by Molly</em></p><p>We want you to think about which of those two people (Molly and Harry) the speaker identifies more with. For instance, why did the speaker say <em>Harry is being recruited by Molly</em> rather than <em> Molly is recruiting Harry</em>? Might that mean that the speaker is socially closer to one of the two characters?</p><p>After you have read the sentence, you will rate on a scale which of the two characters the speaker identifies more with.</p><p>You will give your answer by clicking a button on a rating scale.</p><p>Sometimes there will also be catch questions designed to make sure that you are paying attention, which ask about a different topic.</p><p>To do this task, you will have to use your imagination to think about and visualise the events, and how the speaker might relate to the characters.</p><br><p>Ready?</p>",0,Continue,Continue,html-button-response,2,23278,0.0-2.0,anomymised,6564584152624795c40b73cb,65645f7eaeec8ad07939132d,22406,1A,woman,NA,NA,NA,NA,NA,NA,NA,NA,NA,NA
3376.8000000715256,"<p>Before the experiment starts, we will show you an example of how you will answer the questions. Press 'Continue'.</p>",0,Continue,Continue,html-button-response,3,27668,0.0-3.0,anomymised,6564584152624795c40b73cb,65645f7eaeec8ad07939132d,22406,1A,woman,NA,NA,NA,NA,NA,NA,NA,NA,NA,NA
null,Somebody says <br><em>Samuel is dining with Frank</em>,NA,NA,NA,html-keyboard-response,4,30684,0.0-4.0,anomymised,6564584152624795c40b73cb,65645f7eaeec8ad07939132d,22406,1A,woman,NA,null,NA,NA,NA,NA,NA,NA,NA,NA
14109.200000047684,<img src='img/Example-trial.jpg' style='height:550px;''></img>,0,Continue,Continue,html-button-response,5,44797,0.0-5.0,anomymised,6564584152624795c40b73cb,65645f7eaeec8ad07939132d,22406,1A,woman,NA,NA,NA,NA,NA,NA,NA,NA,NA,NA
14689.5,<p>Ready to start the experiment?</p><br><p><strong>Remember to give an answer by clicking a button on the rating scale.</strong></p><p>Press 'Continue' to begin.</p>,0,Continue,Continue,html-button-response,6,60507,0.0-6.0,anomymised,6564584152624795c40b73cb,65645f7eaeec8ad07939132d,22406,1A,woman,NA,NA,NA,NA,NA,NA,NA,NA,NA,NA
null,Somebody says<br><em>Fred is hiring Ruth,NA,NA,NA,html-keyboard-response,7,63532,0.0-7.0-0.0,anomymised,6564584152624795c40b73cb,65645f7eaeec8ad07939132d,22406,1A,woman,NA,null,M3 is hiring W1,hire,sentence,NA,NA,NA,NA,NA
10120.599999904633,NA,NA,NA,NA,survey-likert-extra-labels,8,73657,0.0-7.0-1.0,anomymised,6564584152624795c40b73cb,65645f7eaeec8ad07939132d,22406,1A,woman,NA,NA,Somebody says<br><em>Fred is hiring Ruth,hire,rating_volition,"{""Q0"":0}",[0],Fred is employing Ruth,Ruth is employing Fred,NA
null,Somebody says<br><em>Luke is talking to Kate</em>,NA,NA,NA,html-keyboard-response,9,75686,0.0-8.0-0.0,anomymised,6564584152624795c40b73cb,65645f7eaeec8ad07939132d,22406,1A,woman,NA,null,NAME1 is talking to NAME2,talk_active,sentence,NA,NA,NA,NA,NA
8745,NA,NA,NA,NA,survey-likert-extra-labels,10,84438,0.0-8.0-1.0,anomymised,6564584152624795c40b73cb,65645f7eaeec8ad07939132d,22406,1A,woman,NA,NA,Somebody says<br><em>Luke is talking to Kate</em>,talk_active,rating_volition,"{""Q0"":3}",[0],The speaker identifies more with <br>Kate than Luke,The speaker identifies more with<br>Luke than Kate,right_to_left
null,Somebody says<br><em>Dave is being greeted by Ruth</em>,NA,NA,NA,html-keyboard-response,11,86463,0.0-9.0-0.0,anomymised,6564584152624795c40b73cb,65645f7eaeec8ad07939132d,22406,1A,woman,NA,null,NAME1 is being greeted by NAME2,greet_passive,sentence,NA,NA,NA,NA,NA
7994.900000095367,NA,NA,NA,NA,survey-likert-extra-labels,12,94464,0.0-9.0-1.0,anomymised,6564584152624795c40b73cb,65645f7eaeec8ad07939132d,22406,1A,woman,NA,NA,Somebody says<br><em>Dave is being greeted by Ruth</em>,greet_passive,rating_volition,"{""Q0"":3}",[0],The speaker identifies more with <br>Ruth than Dave,The speaker identifies more with<br>Dave than Ruth,right_to_left
null,Somebody says<br><em>Beth and Jane are talking with each other</em>,NA,NA,NA,html-keyboard-response,13,96502,0.0-10.0-0.0,anomymised,6564584152624795c40b73cb,65645f7eaeec8ad07939132d,22406,1A,woman,NA,null,NAME1 and NAME2 are talking with each other,talk_conjoined,sentence,NA,NA,NA,NA,NA
3614.2999999523163,NA,NA,NA,NA,survey-likert-extra-labels,14,100121,0.0-10.0-1.0,anomymised,6564584152624795c40b73cb,65645f7eaeec8ad07939132d,22406,1A,woman,NA,NA,Somebody says<br><em>Beth and Jane are talking with each other</em>,talk_conjoined,rating_volition,"{""Q0"":3}",[0],The speaker identifies more with <br>Jane than Beth,The speaker identifies more with<br>Beth than Jane,right_to_left
null,Somebody says<br><em>Mike and Jane are fighting with each other</em>,NA,NA,NA,html-keyboard-response,15,102148,0.0-11.0-0.0,anomymised,6564584152624795c40b73cb,65645f7eaeec8ad07939132d,22406,1A,woman,NA,null,NAME1 and NAME2 are fighting with each other,fight_conjoined,sentence,NA,NA,NA,NA,NA
2470.600000023842,NA,NA,NA,NA,survey-likert-extra-labels,16,104623,0.0-11.0-1.0,anomymised,6564584152624795c40b73cb,65645f7eaeec8ad07939132d,22406,1A,woman,NA,NA,Somebody says<br><em>Mike and Jane are fighting with each other</em>,fight_conjoined,rating_volition,"{""Q0"":3}",[0],The speaker identifies more with <br>Jane than Mike,The speaker identifies more with<br>Mike than Jane,right_to_left
null,Somebody says<br><em>Mike is opposing Dave</em>,NA,NA,NA,html-keyboard-response,17,106659,0.0-12.0-0.0,anomymised,6564584152624795c40b73cb,65645f7eaeec8ad07939132d,22406,1A,woman,NA,null,NAME1 is opposing NAME2,oppose_active,sentence,NA,NA,NA,NA,NA
4321.100000023842,NA,NA,NA,NA,survey-likert-extra-labels,18,110983,0.0-12.0-1.0,anomymised,6564584152624795c40b73cb,65645f7eaeec8ad07939132d,22406,1A,woman,NA,NA,Somebody says<br><em>Mike is opposing Dave</em>,oppose_active,rating_volition,"{""Q0"":3}",[0],The speaker identifies more with <br>Dave than Mike,The speaker identifies more with<br>Mike than Dave,right_to_left
null,Somebody says<br><em>Ruth is being copied by Jane</em>,NA,NA,NA,html-keyboard-response,19,113014,0.0-13.0-0.0,anomymised,6564584152624795c40b73cb,65645f7eaeec8ad07939132d,22406,1A,woman,NA,null,NAME1 is being copied by NAME2,copy_passive,sentence,NA,NA,NA,NA,NA
8092.599999904633,NA,NA,NA,NA,survey-likert-extra-labels,20,121111,0.0-13.0-1.0,anomymised,6564584152624795c40b73cb,65645f7eaeec8ad07939132d,22406,1A,woman,NA,NA,Somebody says<br><em>Ruth is being copied by Jane</em>,copy_passive,rating_volition,"{""Q0"":3}",[0],The speaker identifies more with <br>Jane than Ruth,The speaker identifies more with<br>Ruth than Jane,right_to_left
null,Somebody says<br><em>Beth and Kate are dancing with each other</em>,NA,NA,NA,html-keyboard-response,21,123132,0.0-14.0-0.0,anomymised,6564584152624795c40b73cb,65645f7eaeec8ad07939132d,22406,1A,woman,NA,null,NAME1 and NAME2 are dancing with each other,dance_conjoined,sentence,NA,NA,NA,NA,NA
7060.5,NA,NA,NA,NA,survey-likert-extra-labels,22,130197,0.0-14.0-1.0,anomymised,6564584152624795c40b73cb,65645f7eaeec8ad07939132d,22406,1A,woman,NA,NA,Somebody says<br><em>Beth and Kate are dancing with each other</em>,dance_conjoined,rating_volition,"{""Q0"":3}",[0],The speaker identifies more with <br>Kate than Beth,The speaker identifies more with<br>Beth than Kate,right_to_left
null,Somebody says<br><em>Luke is touching Beth</em>,NA,NA,NA,html-keyboard-response,23,132224,0.0-15.0-0.0,anomymised,6564584152624795c40b73cb,65645f7eaeec8ad07939132d,22406,1A,woman,NA,null,NAME1 is touching NAME2,touch_active,sentence,NA,NA,NA,NA,NA
2324.600000023842,NA,NA,NA,NA,survey-likert-extra-labels,24,134553,0.0-15.0-1.0,anomymised,6564584152624795c40b73cb,65645f7eaeec8ad07939132d,22406,1A,woman,NA,NA,Somebody says<br><em>Luke is touching Beth</em>,touch_active,rating_volition,"{""Q0"":3}",[0],The speaker identifies more with <br>Luke than Beth,The speaker identifies more with<br>Beth than Luke,left_to_right
null,Somebody says<br><em>Ruth is seducing Fred</em>,NA,NA,NA,html-keyboard-response,25,136565,0.0-16.0-0.0,anomymised,6564584152624795c40b73cb,65645f7eaeec8ad07939132d,22406,1A,woman,NA,null,NAME1 is seducing NAME2,seduce_active,sentence,NA,NA,NA,NA,NA
2337.7000000476837,NA,NA,NA,NA,survey-likert-extra-labels,26,138907,0.0-16.0-1.0,anomymised,6564584152624795c40b73cb,65645f7eaeec8ad07939132d,22406,1A,woman,NA,NA,Somebody says<br><em>Ruth is seducing Fred</em>,seduce_active,rating_volition,"{""Q0"":3}",[0],The speaker identifies more with <br>Fred than Ruth,The speaker identifies more with<br>Ruth than Fred,right_to_left
null,Somebody says<br><em>Jane and Ruth are kissing each other</em>,NA,NA,NA,html-keyboard-response,27,140923,0.0-17.0-0.0,anomymised,6564584152624795c40b73cb,65645f7eaeec8ad07939132d,22406,1A,woman,NA,null,NAME1 and NAME2 are kissing each other,kiss_conjoined,sentence,NA,NA,NA,NA,NA
2300.2000000476837,NA,NA,NA,NA,survey-likert-extra-labels,28,143228,0.0-17.0-1.0,anomymised,6564584152624795c40b73cb,65645f7eaeec8ad07939132d,22406,1A,woman,NA,NA,Somebody says<br><em>Jane and Ruth are kissing each other</em>,kiss_conjoined,rating_volition,"{""Q0"":3}",[0],The speaker identifies more with <br>Ruth than Jane,The speaker identifies more with<br>Jane than Ruth,right_to_left
null,Somebody says<br><em>Dave is shouting at Ruth</em>,NA,NA,NA,html-keyboard-response,29,145254,0.0-18.0-0.0,anomymised,6564584152624795c40b73cb,65645f7eaeec8ad07939132d,22406,1A,woman,NA,null,NAME1 is shouting at NAME2,shout_active,sentence,NA,NA,NA,NA,NA
1900.6999999284744,NA,NA,NA,NA,survey-likert-extra-labels,30,147158,0.0-18.0-1.0,anomymised,6564584152624795c40b73cb,65645f7eaeec8ad07939132d,22406,1A,woman,NA,NA,Somebody says<br><em>Dave is shouting at Ruth</em>,shout_active,rating_volition,"{""Q0"":3}",[0],The speaker identifies more with <br>Ruth than Dave,The speaker identifies more with<br>Dave than Ruth,right_to_left
null,Somebody says<br><em>Luke is hugging Dave</em>,NA,NA,NA,html-keyboard-response,31,149183,0.0-19.0-0.0,anomymised,6564584152624795c40b73cb,65645f7eaeec8ad07939132d,22406,1A,woman,NA,null,NAME1 is hugging NAME2,hug_active,sentence,NA,NA,NA,NA,NA
1861.2000000476837,NA,NA,NA,NA,survey-likert-extra-labels,32,151049,0.0-19.0-1.0,anomymised,6564584152624795c40b73cb,65645f7eaeec8ad07939132d,22406,1A,woman,NA,NA,Somebody says<br><em>Luke is hugging Dave</em>,hug_active,rating_volition,"{""Q0"":3}",[0],The speaker identifies more with <br>Dave than Luke,The speaker identifies more with<br>Luke than Dave,right_to_left
null,Somebody says<br><em>Jane is carrying Beth,NA,NA,NA,html-keyboard-response,33,153083,0.0-20.0-0.0,anomymised,6564584152624795c40b73cb,65645f7eaeec8ad07939132d,22406,1A,woman,NA,null,W2 is carrying W4,carry,sentence,NA,NA,NA,NA,NA
4025.600000023842,NA,NA,NA,NA,survey-likert-extra-labels,34,157113,0.0-20.0-1.0,anomymised,6564584152624795c40b73cb,65645f7eaeec8ad07939132d,22406,1A,woman,NA,NA,Somebody says<br><em>Jane is carrying Beth,carry,rating_volition,"{""Q0"":3}",[0],Jane is transporting Beth,Beth is transporting Jane,NA
null,Somebody says<br><em>Ruth and Jane are flirting with each other</em>,NA,NA,NA,html-keyboard-response,35,159141,0.0-21.0-0.0,anomymised,6564584152624795c40b73cb,65645f7eaeec8ad07939132d,22406,1A,woman,NA,null,NAME1 and NAME2 are flirting with each other,flirt_conjoined,sentence,NA,NA,NA,NA,NA
2245.399999976158,NA,NA,NA,NA,survey-likert-extra-labels,36,161391,0.0-21.0-1.0,anomymised,6564584152624795c40b73cb,65645f7eaeec8ad07939132d,22406,1A,woman,NA,NA,Somebody says<br><em>Ruth and Jane are flirting with each other</em>,flirt_conjoined,rating_volition,"{""Q0"":3}",[0],The speaker identifies more with <br>Ruth than Jane,The speaker identifies more with<br>Jane than Ruth,left_to_right
null,Somebody says<br><em>Luke and Kate are meeting each other</em>,NA,NA,NA,html-keyboard-response,37,163410,0.0-22.0-0.0,anomymised,6564584152624795c40b73cb,65645f7eaeec8ad07939132d,22406,1A,woman,NA,null,NAME1 and NAME2 are meeting each other,meet_conjoined,sentence,NA,NA,NA,NA,NA
7865.600000023842,NA,NA,NA,NA,survey-likert-extra-labels,38,171279,0.0-22.0-1.0,anomymised,6564584152624795c40b73cb,65645f7eaeec8ad07939132d,22406,1A,woman,NA,NA,Somebody says<br><em>Luke and Kate are meeting each other</em>,meet_conjoined,rating_volition,"{""Q0"":3}",[0],The speaker identifies more with <br>Luke than Kate,The speaker identifies more with<br>Kate than Luke,left_to_right
null,Somebody says<br><em>Fred is marrying Jane</em>,NA,NA,NA,html-keyboard-response,39,173311,0.0-23.0-0.0,anomymised,6564584152624795c40b73cb,65645f7eaeec8ad07939132d,22406,1A,woman,NA,null,NAME1 is marrying NAME2,marry_active,sentence,NA,NA,NA,NA,NA
2374.2999999523163,NA,NA,NA,NA,survey-likert-extra-labels,40,175691,0.0-23.0-1.0,anomymised,6564584152624795c40b73cb,65645f7eaeec8ad07939132d,22406,1A,woman,NA,NA,Somebody says<br><em>Fred is marrying Jane</em>,marry_active,rating_volition,"{""Q0"":3}",[0],The speaker identifies more with <br>Jane than Fred,The speaker identifies more with<br>Fred than Jane,right_to_left
null,Somebody says<br><em>Fred is being challenged by Dave</em>,NA,NA,NA,html-keyboard-response,41,177713,0.0-24.0-0.0,anomymised,6564584152624795c40b73cb,65645f7eaeec8ad07939132d,22406,1A,woman,NA,null,NAME1 is being challenged by NAME2,challenge_passive,sentence,NA,NA,NA,NA,NA
1377.3000000715256,NA,NA,NA,NA,survey-likert-extra-labels,42,179093,0.0-24.0-1.0,anomymised,6564584152624795c40b73cb,65645f7eaeec8ad07939132d,22406,1A,woman,NA,NA,Somebody says<br><em>Fred is being challenged by Dave</em>,challenge_passive,rating_volition,"{""Q0"":3}",[0],The speaker identifies more with <br>Dave than Fred,The speaker identifies more with<br>Fred than Dave,right_to_left
null,Somebody says<br><em>Kate is feeding Luke,NA,NA,NA,html-keyboard-response,43,181119,0.0-25.0-0.0,anomymised,6564584152624795c40b73cb,65645f7eaeec8ad07939132d,22406,1A,woman,NA,null,W3 is feeding M1,feed,sentence,NA,NA,NA,NA,NA
1279.7999999523163,NA,NA,NA,NA,survey-likert-extra-labels,44,182405,0.0-25.0-1.0,anomymised,6564584152624795c40b73cb,65645f7eaeec8ad07939132d,22406,1A,woman,NA,NA,Somebody says<br><em>Kate is feeding Luke,feed,rating_volition,"{""Q0"":3}",[0],Kate cooked for Luke,Luke cooked for Kate,NA
null,Somebody says<br><em>Mike is being kissed by Dave</em>,NA,NA,NA,html-keyboard-response,45,184427,0.0-26.0-0.0,anomymised,6564584152624795c40b73cb,65645f7eaeec8ad07939132d,22406,1A,woman,NA,null,NAME1 is being kissed by NAME2,kiss_passive,sentence,NA,NA,NA,NA,NA
3909.5,NA,NA,NA,NA,survey-likert-extra-labels,46,188340,0.0-26.0-1.0,anomymised,6564584152624795c40b73cb,65645f7eaeec8ad07939132d,22406,1A,woman,NA,NA,Somebody says<br><em>Mike is being kissed by Dave</em>,kiss_passive,rating_volition,"{""Q0"":3}",[0],The speaker identifies more with <br>Mike than Dave,The speaker identifies more with<br>Dave than Mike,left_to_right
null,Somebody says<br><em>Ruth and Jane are marrying each other</em>,NA,NA,NA,html-keyboard-response,47,190357,0.0-27.0-0.0,anomymised,6564584152624795c40b73cb,65645f7eaeec8ad07939132d,22406,1A,woman,NA,null,NAME1 and NAME2 are marrying each other,marry_conjoined,sentence,NA,NA,NA,NA,NA
1168.1000000238419,NA,NA,NA,NA,survey-likert-extra-labels,48,191530,0.0-27.0-1.0,anomymised,6564584152624795c40b73cb,65645f7eaeec8ad07939132d,22406,1A,woman,NA,NA,Somebody says<br><em>Ruth and Jane are marrying each other</em>,marry_conjoined,rating_volition,"{""Q0"":3}",[0],The speaker identifies more with <br>Jane than Ruth,The speaker identifies more with<br>Ruth than Jane,right_to_left
null,Somebody says<br><em>Ruth is flirting with Kate</em>,NA,NA,NA,html-keyboard-response,49,193549,0.0-28.0-0.0,anomymised,6564584152624795c40b73cb,65645f7eaeec8ad07939132d,22406,1A,woman,NA,null,NAME1 is flirting with NAME2,flirt_active,sentence,NA,NA,NA,NA,NA
1103.6000000238419,NA,NA,NA,NA,survey-likert-extra-labels,50,194655,0.0-28.0-1.0,anomymised,6564584152624795c40b73cb,65645f7eaeec8ad07939132d,22406,1A,woman,NA,NA,Somebody says<br><em>Ruth is flirting with Kate</em>,flirt_active,rating_volition,"{""Q0"":3}",[0],The speaker identifies more with <br>Kate than Ruth,The speaker identifies more with<br>Ruth than Kate,right_to_left
null,Somebody says<br><em>Kate is being looked at by Ruth</em>,NA,NA,NA,html-keyboard-response,51,196670,0.0-29.0-0.0,anomymised,6564584152624795c40b73cb,65645f7eaeec8ad07939132d,22406,1A,woman,NA,null,NAME1 is being looked at by NAME2,look_passive,sentence,NA,NA,NA,NA,NA
2320.4000000953674,NA,NA,NA,NA,survey-likert-extra-labels,52,198996,0.0-29.0-1.0,anomymised,6564584152624795c40b73cb,65645f7eaeec8ad07939132d,22406,1A,woman,NA,NA,Somebody says<br><em>Kate is being looked at by Ruth</em>,look_passive,rating_volition,"{""Q0"":3}",[0],The speaker identifies more with <br>Ruth than Kate,The speaker identifies more with<br>Kate than Ruth,right_to_left
null,Somebody says<br><em>Mike and Ruth are hugging each other</em>,NA,NA,NA,html-keyboard-response,53,201012,0.0-30.0-0.0,anomymised,6564584152624795c40b73cb,65645f7eaeec8ad07939132d,22406,1A,woman,NA,null,NAME1 and NAME2 are hugging each other,hug_conjoined,sentence,NA,NA,NA,NA,NA
1025.5,NA,NA,NA,NA,survey-likert-extra-labels,54,202042,0.0-30.0-1.0,anomymised,6564584152624795c40b73cb,65645f7eaeec8ad07939132d,22406,1A,woman,NA,NA,Somebody says<br><em>Mike and Ruth are hugging each other</em>,hug_conjoined,rating_volition,"{""Q0"":3}",[0],The speaker identifies more with <br>Mike than Ruth,The speaker identifies more with<br>Ruth than Mike,left_to_right
null,Somebody says<br><em>Luke is dancing with Dave</em>,NA,NA,NA,html-keyboard-response,55,204062,0.0-31.0-0.0,anomymised,6564584152624795c40b73cb,65645f7eaeec8ad07939132d,22406,1A,woman,NA,null,NAME1 is dancing with NAME2,dance_active,sentence,NA,NA,NA,NA,NA
3157.100000023842,NA,NA,NA,NA,survey-likert-extra-labels,56,207223,0.0-31.0-1.0,anomymised,6564584152624795c40b73cb,65645f7eaeec8ad07939132d,22406,1A,woman,NA,NA,Somebody says<br><em>Luke is dancing with Dave</em>,dance_active,rating_volition,"{""Q0"":3}",[0],The speaker identifies more with <br>Dave than Luke,The speaker identifies more with<br>Luke than Dave,right_to_left
null,Somebody says<br><em>Jane is fighting with Beth</em>,NA,NA,NA,html-keyboard-response,57,209262,0.0-32.0-0.0,anomymised,6564584152624795c40b73cb,65645f7eaeec8ad07939132d,22406,1A,woman,NA,null,NAME1 is fighting with NAME2,fight_active,sentence,NA,NA,NA,NA,NA
5192.5,NA,NA,NA,NA,survey-likert-extra-labels,58,214458,0.0-32.0-1.0,anomymised,6564584152624795c40b73cb,65645f7eaeec8ad07939132d,22406,1A,woman,NA,NA,Somebody says<br><em>Jane is fighting with Beth</em>,fight_active,rating_volition,"{""Q0"":3}",[0],The speaker identifies more with <br>Jane than Beth,The speaker identifies more with<br>Beth than Jane,left_to_right
null,Somebody says<br><em>Dave is kissing Mike</em>,NA,NA,NA,html-keyboard-response,59,216492,0.0-33.0-0.0,anomymised,6564584152624795c40b73cb,65645f7eaeec8ad07939132d,22406,1A,woman,NA,null,NAME1 is kissing NAME2,kiss_active,sentence,NA,NA,NA,NA,NA
21227.100000023842,NA,NA,NA,NA,survey-likert-extra-labels,60,237725,0.0-33.0-1.0,anomymised,6564584152624795c40b73cb,65645f7eaeec8ad07939132d,22406,1A,woman,NA,NA,Somebody says<br><em>Dave is kissing Mike</em>,kiss_active,rating_volition,"{""Q0"":3}",[0],The speaker identifies more with <br>Dave than Mike,The speaker identifies more with<br>Mike than Dave,left_to_right
null,Somebody says<br><em>Fred is being opposed by Jane</em>,NA,NA,NA,html-keyboard-response,61,239746,0.0-34.0-0.0,anomymised,6564584152624795c40b73cb,65645f7eaeec8ad07939132d,22406,1A,woman,NA,null,NAME1 is being opposed by NAME2,oppose_passive,sentence,NA,NA,NA,NA,NA
6234.100000023842,NA,NA,NA,NA,survey-likert-extra-labels,62,245985,0.0-34.0-1.0,anomymised,6564584152624795c40b73cb,65645f7eaeec8ad07939132d,22406,1A,woman,NA,NA,Somebody says<br><em>Fred is being opposed by Jane</em>,oppose_passive,rating_volition,"{""Q0"":3}",[0],The speaker identifies more with <br>Fred than Jane,The speaker identifies more with<br>Jane than Fred,left_to_right
null,Somebody says<br><em>Beth and Mike are playing with each other</em>,NA,NA,NA,html-keyboard-response,63,248003,0.0-35.0-0.0,anomymised,6564584152624795c40b73cb,65645f7eaeec8ad07939132d,22406,1A,woman,NA,null,NAME1 and NAME2 are playing with each other,play_conjoined,sentence,NA,NA,NA,NA,NA
26870.5,NA,NA,NA,NA,survey-likert-extra-labels,64,274879,0.0-35.0-1.0,anomymised,6564584152624795c40b73cb,65645f7eaeec8ad07939132d,22406,1A,woman,NA,NA,Somebody says<br><em>Beth and Mike are playing with each other</em>,play_conjoined,rating_volition,"{""Q0"":3}",[0],The speaker identifies more with <br>Mike than Beth,The speaker identifies more with<br>Beth than Mike,right_to_left
null,Somebody says<br><em>Kate is challenging Beth</em>,NA,NA,NA,html-keyboard-response,65,276903,0.0-36.0-0.0,anomymised,6564584152624795c40b73cb,65645f7eaeec8ad07939132d,22406,1A,woman,NA,null,NAME1 is challenging NAME2,challenge_active,sentence,NA,NA,NA,NA,NA
1106.1000000238419,NA,NA,NA,NA,survey-likert-extra-labels,66,278011,0.0-36.0-1.0,anomymised,6564584152624795c40b73cb,65645f7eaeec8ad07939132d,22406,1A,woman,NA,NA,Somebody says<br><em>Kate is challenging Beth</em>,challenge_active,rating_volition,"{""Q0"":3}",[0],The speaker identifies more with <br>Beth than Kate,The speaker identifies more with<br>Kate than Beth,right_to_left
null,Somebody says<br><em>Jane is teaching Dave,NA,NA,NA,html-keyboard-response,67,280028,0.0-37.0-0.0,anomymised,6564584152624795c40b73cb,65645f7eaeec8ad07939132d,22406,1A,woman,NA,null,W2 is teaching M4,teach,sentence,NA,NA,NA,NA,NA
2038,NA,NA,NA,NA,survey-likert-extra-labels,68,282071,0.0-37.0-1.0,anomymised,6564584152624795c40b73cb,65645f7eaeec8ad07939132d,22406,1A,woman,NA,NA,Somebody says<br><em>Jane is teaching Dave,teach,rating_volition,"{""Q0"":3}",[0],Jane is educating Dave,Dave is educating Jane,NA
null,Somebody says<br><em>Mike is meeting Kate</em>,NA,NA,NA,html-keyboard-response,69,284103,0.0-38.0-0.0,anomymised,6564584152624795c40b73cb,65645f7eaeec8ad07939132d,22406,1A,woman,NA,null,NAME1 is meeting NAME2,meet_active,sentence,NA,NA,NA,NA,NA
3148.600000023842,NA,NA,NA,NA,survey-likert-extra-labels,70,287255,0.0-38.0-1.0,anomymised,6564584152624795c40b73cb,65645f7eaeec8ad07939132d,22406,1A,woman,NA,NA,Somebody says<br><em>Mike is meeting Kate</em>,meet_active,rating_volition,"{""Q0"":3}",[0],The speaker identifies more with <br>Mike than Kate,The speaker identifies more with<br>Kate than Mike,left_to_right
null,Somebody says<br><em>Fred is being hugged by Luke</em>,NA,NA,NA,html-keyboard-response,71,289288,0.0-39.0-0.0,anomymised,6564584152624795c40b73cb,65645f7eaeec8ad07939132d,22406,1A,woman,NA,null,NAME1 is being hugged by NAME2,hug_passive,sentence,NA,NA,NA,NA,NA
1846.1000000238419,NA,NA,NA,NA,survey-likert-extra-labels,72,291143,0.0-39.0-1.0,anomymised,6564584152624795c40b73cb,65645f7eaeec8ad07939132d,22406,1A,woman,NA,NA,Somebody says<br><em>Fred is being hugged by Luke</em>,hug_passive,rating_volition,"{""Q0"":3}",[0],The speaker identifies more with <br>Luke than Fred,The speaker identifies more with<br>Fred than Luke,right_to_left
null,Somebody says<br><em>Mike is posing for Dave,NA,NA,NA,html-keyboard-response,73,293172,0.0-40.0-0.0,anomymised,6564584152624795c40b73cb,65645f7eaeec8ad07939132d,22406,1A,woman,NA,null,M2 is posing for M4,pose,sentence,NA,NA,NA,NA,NA
3968.100000023842,NA,NA,NA,NA,survey-likert-extra-labels,74,297152,0.0-40.0-1.0,anomymised,6564584152624795c40b73cb,65645f7eaeec8ad07939132d,22406,1A,woman,NA,NA,Somebody says<br><em>Mike is posing for Dave,pose,rating_volition,"{""Q0"":3}",[0],Mike is modelling for Dave,Dave is modelling for Mike,NA
null,Somebody says<br><em>Ruth and Fred are shouting at each other</em>,NA,NA,NA,html-keyboard-response,75,299171,0.0-41.0-0.0,anomymised,6564584152624795c40b73cb,65645f7eaeec8ad07939132d,22406,1A,woman,NA,null,NAME1 and NAME2 are shouting at each other,shout_conjoined,sentence,NA,NA,NA,NA,NA
6578.199999928474,NA,NA,NA,NA,survey-likert-extra-labels,76,305753,0.0-41.0-1.0,anomymised,6564584152624795c40b73cb,65645f7eaeec8ad07939132d,22406,1A,woman,NA,NA,Somebody says<br><em>Ruth and Fred are shouting at each other</em>,shout_conjoined,rating_volition,"{""Q0"":3}",[0],The speaker identifies more with <br>Fred than Ruth,The speaker identifies more with<br>Ruth than Fred,right_to_left
null,Somebody says<br><em>Luke is driving Fred,NA,NA,NA,html-keyboard-response,77,307772,0.0-42.0-0.0,anomymised,6564584152624795c40b73cb,65645f7eaeec8ad07939132d,22406,1A,woman,NA,null,M1 is driving M3,drive,sentence,NA,NA,NA,NA,NA
1268.7000000476837,NA,NA,NA,NA,survey-likert-extra-labels,78,309043,0.0-42.0-1.0,anomymised,6564584152624795c40b73cb,65645f7eaeec8ad07939132d,22406,1A,woman,NA,NA,Somebody says<br><em>Luke is driving Fred,drive,rating_volition,"{""Q0"":3}",[0],Luke is Fred's passenger,Fred is Luke's passenger,NA
null,Somebody says<br><em>Jane is greeting Luke</em>,NA,NA,NA,html-keyboard-response,79,311060,0.0-43.0-0.0,anomymised,6564584152624795c40b73cb,65645f7eaeec8ad07939132d,22406,1A,woman,NA,null,NAME1 is greeting NAME2,greet_active,sentence,NA,NA,NA,NA,NA
3015.7000000476837,NA,NA,NA,NA,survey-likert-extra-labels,80,314079,0.0-43.0-1.0,anomymised,6564584152624795c40b73cb,65645f7eaeec8ad07939132d,22406,1A,woman,NA,NA,Somebody says<br><em>Jane is greeting Luke</em>,greet_active,rating_volition,"{""Q0"":3}",[0],The speaker identifies more with <br>Jane than Luke,The speaker identifies more with<br>Luke than Jane,left_to_right
null,Somebody says<br><em>Beth is copying Dave</em>,NA,NA,NA,html-keyboard-response,81,316109,0.0-44.0-0.0,anomymised,6564584152624795c40b73cb,65645f7eaeec8ad07939132d,22406,1A,woman,NA,null,NAME1 is copying NAME2,copy_active,sentence,NA,NA,NA,NA,NA
4465.100000023842,NA,NA,NA,NA,survey-likert-extra-labels,82,320577,0.0-44.0-1.0,anomymised,6564584152624795c40b73cb,65645f7eaeec8ad07939132d,22406,1A,woman,NA,NA,Somebody says<br><em>Beth is copying Dave</em>,copy_active,rating_volition,"{""Q0"":3}",[0],The speaker identifies more with <br>Beth than Dave,The speaker identifies more with<br>Dave than Beth,left_to_right
null,Somebody says<br><em>Mike and Dave are touching each other</em>,NA,NA,NA,html-keyboard-response,83,322609,0.0-45.0-0.0,anomymised,6564584152624795c40b73cb,65645f7eaeec8ad07939132d,22406,1A,woman,NA,null,NAME1 and NAME2 are touching each other,touch_conjoined,sentence,NA,NA,NA,NA,NA
1876,NA,NA,NA,NA,survey-likert-extra-labels,84,324490,0.0-45.0-1.0,anomymised,6564584152624795c40b73cb,65645f7eaeec8ad07939132d,22406,1A,woman,NA,NA,Somebody says<br><em>Mike and Dave are touching each other</em>,touch_conjoined,rating_volition,"{""Q0"":3}",[0],The speaker identifies more with <br>Mike than Dave,The speaker identifies more with<br>Dave than Mike,left_to_right
null,Somebody says<br><em>Mike is reminding Beth,NA,NA,NA,html-keyboard-response,85,326527,0.0-46.0-0.0,anomymised,6564584152624795c40b73cb,65645f7eaeec8ad07939132d,22406,1A,woman,NA,null,M2 is reminding W4,remind,sentence,NA,NA,NA,NA,NA
2418.399999976158,NA,NA,NA,NA,survey-likert-extra-labels,86,328951,0.0-46.0-1.0,anomymised,6564584152624795c40b73cb,65645f7eaeec8ad07939132d,22406,1A,woman,NA,NA,Somebody says<br><em>Mike is reminding Beth,remind,rating_volition,"{""Q0"":3}",[0],Mike is telling Beth again,Beth is telling Mike again,NA
null,Somebody says<br><em>Jane is playing with Fred</em>,NA,NA,NA,html-keyboard-response,87,330976,0.0-47.0-0.0,anomymised,6564584152624795c40b73cb,65645f7eaeec8ad07939132d,22406,1A,woman,NA,null,NAME1 is playing with NAME2,play_active,sentence,NA,NA,NA,NA,NA
2607.6999999284744,NA,NA,NA,NA,survey-likert-extra-labels,88,333588,0.0-47.0-1.0,anomymised,6564584152624795c40b73cb,65645f7eaeec8ad07939132d,22406,1A,woman,NA,NA,Somebody says<br><em>Jane is playing with Fred</em>,play_active,rating_volition,"{""Q0"":3}",[0],The speaker identifies more with <br>Jane than Fred,The speaker identifies more with<br>Fred than Jane,left_to_right
null,Somebody says<br><em>Kate is being shouted at by Luke</em>,NA,NA,NA,html-keyboard-response,89,335612,0.0-48.0-0.0,anomymised,6564584152624795c40b73cb,65645f7eaeec8ad07939132d,22406,1A,woman,NA,null,NAME1 is being shouted at by NAME2,shout_passive,sentence,NA,NA,NA,NA,NA
3163.7999999523163,NA,NA,NA,NA,survey-likert-extra-labels,90,338781,0.0-48.0-1.0,anomymised,6564584152624795c40b73cb,65645f7eaeec8ad07939132d,22406,1A,woman,NA,NA,Somebody says<br><em>Kate is being shouted at by Luke</em>,shout_passive,rating_volition,"{""Q0"":3}",[0],The speaker identifies more with <br>Luke than Kate,The speaker identifies more with<br>Kate than Luke,right_to_left
null,Somebody says<br><em>Dave is being touched by Kate</em>,NA,NA,NA,html-keyboard-response,91,340804,0.0-49.0-0.0,anomymised,6564584152624795c40b73cb,65645f7eaeec8ad07939132d,22406,1A,woman,NA,null,NAME1 is being touched by NAME2,touch_passive,sentence,NA,NA,NA,NA,NA
20977.600000023842,NA,NA,NA,NA,survey-likert-extra-labels,92,361783,0.0-49.0-1.0,anomymised,6564584152624795c40b73cb,65645f7eaeec8ad07939132d,22406,1A,woman,NA,NA,Somebody says<br><em>Dave is being touched by Kate</em>,touch_passive,rating_volition,"{""Q0"":3}",[0],The speaker identifies more with <br>Dave than Kate,The speaker identifies more with<br>Kate than Dave,left_to_right
null,Somebody says<br><em>Jane is arguing with Kate</em>,NA,NA,NA,html-keyboard-response,93,363801,0.0-50.0-0.0,anomymised,6564584152624795c40b73cb,65645f7eaeec8ad07939132d,22406,1A,woman,NA,null,NAME1 is arguing with NAME2,argue_active,sentence,NA,NA,NA,NA,NA
8133.100000023842,NA,NA,NA,NA,survey-likert-extra-labels,94,371938,0.0-50.0-1.0,anomymised,6564584152624795c40b73cb,65645f7eaeec8ad07939132d,22406,1A,woman,NA,NA,Somebody says<br><em>Jane is arguing with Kate</em>,argue_active,rating_volition,"{""Q0"":3}",[0],The speaker identifies more with <br>Kate than Jane,The speaker identifies more with<br>Jane than Kate,right_to_left
null,Somebody says<br><em>Beth is being seduced by Luke</em>,NA,NA,NA,html-keyboard-response,95,374466,0.0-51.0-0.0,anomymised,6564584152624795c40b73cb,65645f7eaeec8ad07939132d,22406,1A,woman,NA,null,NAME1 is being seduced by NAME2,seduce_passive,sentence,NA,NA,NA,NA,NA
28625.299999952316,NA,NA,NA,NA,survey-likert-extra-labels,96,403096,0.0-51.0-1.0,anomymised,6564584152624795c40b73cb,65645f7eaeec8ad07939132d,22406,1A,woman,NA,NA,Somebody says<br><em>Beth is being seduced by Luke</em>,seduce_passive,rating_volition,"{""Q0"":3}",[0],The speaker identifies more with <br>Luke than Beth,The speaker identifies more with<br>Beth than Luke,right_to_left
null,Somebody says<br><em>Kate is shouting at Mike</em>,NA,NA,NA,html-keyboard-response,97,405112,0.0-52.0-0.0,anomymised,6564584152624795c40b73cb,65645f7eaeec8ad07939132d,22406,1A,woman,NA,null,NAME1 is shouting at NAME2,shout_active,sentence,NA,NA,NA,NA,NA
3420.600000023842,NA,NA,NA,NA,survey-likert-extra-labels,98,408537,0.0-52.0-1.0,anomymised,6564584152624795c40b73cb,65645f7eaeec8ad07939132d,22406,1A,woman,NA,NA,Somebody says<br><em>Kate is shouting at Mike</em>,shout_active,rating_volition,"{""Q0"":3}",[0],The speaker identifies more with <br>Mike than Kate,The speaker identifies more with<br>Kate than Mike,right_to_left
null,Somebody says<br><em>Luke and Beth are arguing with each other</em>,NA,NA,NA,html-keyboard-response,99,410562,0.0-53.0-0.0,anomymised,6564584152624795c40b73cb,65645f7eaeec8ad07939132d,22406,1A,woman,NA,null,NAME1 and NAME2 are arguing with each other,argue_conjoined,sentence,NA,NA,NA,NA,NA
2167.8000000715256,NA,NA,NA,NA,survey-likert-extra-labels,100,412733,0.0-53.0-1.0,anomymised,6564584152624795c40b73cb,65645f7eaeec8ad07939132d,22406,1A,woman,NA,NA,Somebody says<br><em>Luke and Beth are arguing with each other</em>,argue_conjoined,rating_volition,"{""Q0"":3}",[0],The speaker identifies more with <br>Luke than Beth,The speaker identifies more with<br>Beth than Luke,left_to_right
null,Somebody says<br><em>Dave is looking at Jane</em>,NA,NA,NA,html-keyboard-response,101,414750,0.0-54.0-0.0,anomymised,6564584152624795c40b73cb,65645f7eaeec8ad07939132d,22406,1A,woman,NA,null,NAME1 is looking at NAME2,look_active,sentence,NA,NA,NA,NA,NA
107925.80000007153,NA,NA,NA,NA,survey-likert-extra-labels,102,522681,0.0-54.0-1.0,anomymised,6564584152624795c40b73cb,65645f7eaeec8ad07939132d,22406,1A,woman,NA,NA,Somebody says<br><em>Dave is looking at Jane</em>,look_active,rating_volition,"{""Q0"":3}",[0],The speaker identifies more with <br>Dave than Jane,The speaker identifies more with<br>Jane than Dave,left_to_right
null,Somebody says<br><em>Ruth is chasing Kate,NA,NA,NA,html-keyboard-response,103,524703,0.0-55.0-0.0,anomymised,6564584152624795c40b73cb,65645f7eaeec8ad07939132d,22406,1A,woman,NA,null,W1 is chasing W3,chase,sentence,NA,NA,NA,NA,NA
4202.299999952316,NA,NA,NA,NA,survey-likert-extra-labels,104,528909,0.0-55.0-1.0,anomymised,6564584152624795c40b73cb,65645f7eaeec8ad07939132d,22406,1A,woman,NA,NA,Somebody says<br><em>Ruth is chasing Kate,chase,rating_volition,"{""Q0"":3}",[0],Ruth is behind Kate,Kate is behind Ruth,NA
2295,<p>Thank you for completing that task.</p><p>The final part of this session is a short questionnaire.</p><p>Press Continue.</p>,0,Continue,Continue,html-button-response,105,531219,0.0-56.0,anomymised,6564584152624795c40b73cb,65645f7eaeec8ad07939132d,22406,1A,woman,NA,NA,NA,NA,NA,NA,NA,NA,NA,NA
38801.5,NA,NA,NA,NA,survey-text,106,571051,0.0-57.0,anomymised,6564584152624795c40b73cb,65645f7eaeec8ad07939132d,22406,1A,woman,NA,NA,NA,NA,demographics,"{""Q0"":""43"",""Q1"":""English"",""Q2"":""Englih"",""Q3"":""England"",""Q4"":""British"",""Q5"":""White British"",""Q6"":""Female""}",NA,NA,NA,NA
2476.7999999523163,<p>This is the last question - thank you for taking part! Have you lived in the UK for the last 5 years or more?</p>,0,"Yes,No",Yes,html-button-response,107,573535,0.0-58.0,anomymised,6564584152624795c40b73cb,65645f7eaeec8ad07939132d,22406,1A,woman,NA,NA,NA,NA,fiveyears,NA,NA,NA,NA,NA
