rt,stimulus,button_pressed,choices,ChosenStimulus,trial_type,trial_index,time_elapsed,internal_node_id,subject_id,study_id,session_id,subject,list,ppt_gender,url,key_press,sentence_type,verb,test_part,responses,question_order,left_part,right_part,name_order
1777,Welcome to the experiment. Press Continue to begin.,0,Continue,Continue,html-button-response,0,1781,0.0-0.0,anomymised,6564584152624795c40b73cb,6564bdacb65aad826f6cd4eb,25007,1A,woman,NA,NA,NA,NA,NA,NA,NA,NA,NA,NA
16859,NA,NA,NA,NA,external-html,1,19684,0.0-1.0,anomymised,6564584152624795c40b73cb,6564bdacb65aad826f6cd4eb,25007,1A,woman,consent.html,NA,NA,NA,NA,NA,NA,NA,NA,NA
18525,"<p>Welcome.</p><p>In this experiment we will ask you to imagine people's motivations for saying sentences.</p><p>Each trial will begin with a sentence that somebody might say to describe an event involving two different people.</p><p>For instance, someone might say <em>Harry is being recruited by Molly</em></p><p>We want you to think about which of those two people (Molly and Harry) the speaker identifies more with. For instance, why did the speaker say <em>Harry is being recruited by Molly</em> rather than <em> Molly is recruiting Harry</em>? Might that mean that the speaker is socially closer to one of the two characters?</p><p>After you have read the sentence, you will rate on a scale which of the two characters the speaker identifies more with.</p><p>You will give your answer by clicking a button on a rating scale.</p><p>Sometimes there will also be catch questions designed to make sure that you are paying attention, which ask about a different topic.</p><p>To do this task, you will have to use your imagination to think about and visualise the events, and how the speaker might relate to the characters.</p><br><p>Ready?</p>",0,Continue,Continue,html-button-response,2,38211,0.0-2.0,anomymised,6564584152624795c40b73cb,6564bdacb65aad826f6cd4eb,25007,1A,woman,NA,NA,NA,NA,NA,NA,NA,NA,NA,NA
2507,"<p>Before the experiment starts, we will show you an example of how you will answer the questions. Press 'Continue'.</p>",0,Continue,Continue,html-button-response,3,41721,0.0-3.0,anomymised,6564584152624795c40b73cb,6564bdacb65aad826f6cd4eb,25007,1A,woman,NA,NA,NA,NA,NA,NA,NA,NA,NA,NA
null,Somebody says <br><em>Samuel is dining with Frank</em>,NA,NA,NA,html-keyboard-response,4,44725,0.0-4.0,anomymised,6564584152624795c40b73cb,6564bdacb65aad826f6cd4eb,25007,1A,woman,NA,null,NA,NA,NA,NA,NA,NA,NA,NA
10823,<img src='img/Example-trial.jpg' style='height:550px;''></img>,0,Continue,Continue,html-button-response,5,55549,0.0-5.0,anomymised,6564584152624795c40b73cb,6564bdacb65aad826f6cd4eb,25007,1A,woman,NA,NA,NA,NA,NA,NA,NA,NA,NA,NA
2420,<p>Ready to start the experiment?</p><br><p><strong>Remember to give an answer by clicking a button on the rating scale.</strong></p><p>Press 'Continue' to begin.</p>,0,Continue,Continue,html-button-response,6,58971,0.0-6.0,anomymised,6564584152624795c40b73cb,6564bdacb65aad826f6cd4eb,25007,1A,woman,NA,NA,NA,NA,NA,NA,NA,NA,NA,NA
null,Somebody says<br><em>Luke is driving Fred,NA,NA,NA,html-keyboard-response,7,61974,0.0-7.0-0.0,anomymised,6564584152624795c40b73cb,6564bdacb65aad826f6cd4eb,25007,1A,woman,NA,null,M1 is driving M3,drive,sentence,NA,NA,NA,NA,NA
12699,NA,NA,NA,NA,survey-likert-extra-labels,8,74677,0.0-7.0-1.0,anomymised,6564584152624795c40b73cb,6564bdacb65aad826f6cd4eb,25007,1A,woman,NA,NA,Somebody says<br><em>Luke is driving Fred,drive,rating_volition,"{""Q0"":6}",[0],Luke is Fred's passenger,Fred is Luke's passenger,NA
null,Somebody says<br><em>Kate is shouting at Beth</em>,NA,NA,NA,html-keyboard-response,9,76679,0.0-8.0-0.0,anomymised,6564584152624795c40b73cb,6564bdacb65aad826f6cd4eb,25007,1A,woman,NA,null,NAME1 is shouting at NAME2,shout_active,sentence,NA,NA,NA,NA,NA
9170,NA,NA,NA,NA,survey-likert-extra-labels,10,85851,0.0-8.0-1.0,anomymised,6564584152624795c40b73cb,6564bdacb65aad826f6cd4eb,25007,1A,woman,NA,NA,Somebody says<br><em>Kate is shouting at Beth</em>,shout_active,rating_volition,"{""Q0"":1}",[0],The speaker identifies more with <br>Kate than Beth,The speaker identifies more with<br>Beth than Kate,left_to_right
null,Somebody says<br><em>Ruth and Jane are playing with each other</em>,NA,NA,NA,html-keyboard-response,11,87853,0.0-9.0-0.0,anomymised,6564584152624795c40b73cb,6564bdacb65aad826f6cd4eb,25007,1A,woman,NA,null,NAME1 and NAME2 are playing with each other,play_conjoined,sentence,NA,NA,NA,NA,NA
8812.999999999985,NA,NA,NA,NA,survey-likert-extra-labels,12,96667,0.0-9.0-1.0,anomymised,6564584152624795c40b73cb,6564bdacb65aad826f6cd4eb,25007,1A,woman,NA,NA,Somebody says<br><em>Ruth and Jane are playing with each other</em>,play_conjoined,rating_volition,"{""Q0"":0}",[0],The speaker identifies more with <br>Ruth than Jane,The speaker identifies more with<br>Jane than Ruth,left_to_right
null,Somebody says<br><em>Beth is opposing Mike</em>,NA,NA,NA,html-keyboard-response,13,98670,0.0-10.0-0.0,anomymised,6564584152624795c40b73cb,6564bdacb65aad826f6cd4eb,25007,1A,woman,NA,null,NAME1 is opposing NAME2,oppose_active,sentence,NA,NA,NA,NA,NA
5963,NA,NA,NA,NA,survey-likert-extra-labels,14,104635,0.0-10.0-1.0,anomymised,6564584152624795c40b73cb,6564bdacb65aad826f6cd4eb,25007,1A,woman,NA,NA,Somebody says<br><em>Beth is opposing Mike</em>,oppose_active,rating_volition,"{""Q0"":5}",[0],The speaker identifies more with <br>Beth than Mike,The speaker identifies more with<br>Mike than Beth,left_to_right
null,Somebody says<br><em>Ruth is arguing with Luke</em>,NA,NA,NA,html-keyboard-response,15,106641,0.0-11.0-0.0,anomymised,6564584152624795c40b73cb,6564bdacb65aad826f6cd4eb,25007,1A,woman,NA,null,NAME1 is arguing with NAME2,argue_active,sentence,NA,NA,NA,NA,NA
10282,NA,NA,NA,NA,survey-likert-extra-labels,16,116924,0.0-11.0-1.0,anomymised,6564584152624795c40b73cb,6564bdacb65aad826f6cd4eb,25007,1A,woman,NA,NA,Somebody says<br><em>Ruth is arguing with Luke</em>,argue_active,rating_volition,"{""Q0"":0}",[0],The speaker identifies more with <br>Ruth than Luke,The speaker identifies more with<br>Luke than Ruth,left_to_right
null,Somebody says<br><em>Dave is being opposed by Beth</em>,NA,NA,NA,html-keyboard-response,17,118927,0.0-12.0-0.0,anomymised,6564584152624795c40b73cb,6564bdacb65aad826f6cd4eb,25007,1A,woman,NA,null,NAME1 is being opposed by NAME2,oppose_passive,sentence,NA,NA,NA,NA,NA
10334,NA,NA,NA,NA,survey-likert-extra-labels,18,129262,0.0-12.0-1.0,anomymised,6564584152624795c40b73cb,6564bdacb65aad826f6cd4eb,25007,1A,woman,NA,NA,Somebody says<br><em>Dave is being opposed by Beth</em>,oppose_passive,rating_volition,"{""Q0"":5}",[0],The speaker identifies more with <br>Dave than Beth,The speaker identifies more with<br>Beth than Dave,left_to_right
null,Somebody says<br><em>Ruth and Dave are touching each other</em>,NA,NA,NA,html-keyboard-response,19,131264,0.0-13.0-0.0,anomymised,6564584152624795c40b73cb,6564bdacb65aad826f6cd4eb,25007,1A,woman,NA,null,NAME1 and NAME2 are touching each other,touch_conjoined,sentence,NA,NA,NA,NA,NA
6682,NA,NA,NA,NA,survey-likert-extra-labels,20,137948,0.0-13.0-1.0,anomymised,6564584152624795c40b73cb,6564bdacb65aad826f6cd4eb,25007,1A,woman,NA,NA,Somebody says<br><em>Ruth and Dave are touching each other</em>,touch_conjoined,rating_volition,"{""Q0"":3}",[0],The speaker identifies more with <br>Dave than Ruth,The speaker identifies more with<br>Ruth than Dave,right_to_left
null,Somebody says<br><em>Luke is touching Fred</em>,NA,NA,NA,html-keyboard-response,21,139950,0.0-14.0-0.0,anomymised,6564584152624795c40b73cb,6564bdacb65aad826f6cd4eb,25007,1A,woman,NA,null,NAME1 is touching NAME2,touch_active,sentence,NA,NA,NA,NA,NA
6040,NA,NA,NA,NA,survey-likert-extra-labels,22,145991,0.0-14.0-1.0,anomymised,6564584152624795c40b73cb,6564bdacb65aad826f6cd4eb,25007,1A,woman,NA,NA,Somebody says<br><em>Luke is touching Fred</em>,touch_active,rating_volition,"{""Q0"":0}",[0],The speaker identifies more with <br>Fred than Luke,The speaker identifies more with<br>Luke than Fred,right_to_left
null,Somebody says<br><em>Dave is being kissed by Jane</em>,NA,NA,NA,html-keyboard-response,23,147994,0.0-15.0-0.0,anomymised,6564584152624795c40b73cb,6564bdacb65aad826f6cd4eb,25007,1A,woman,NA,null,NAME1 is being kissed by NAME2,kiss_passive,sentence,NA,NA,NA,NA,NA
9577,NA,NA,NA,NA,survey-likert-extra-labels,24,157573,0.0-15.0-1.0,anomymised,6564584152624795c40b73cb,6564bdacb65aad826f6cd4eb,25007,1A,woman,NA,NA,Somebody says<br><em>Dave is being kissed by Jane</em>,kiss_passive,rating_volition,"{""Q0"":1}",[0],The speaker identifies more with <br>Dave than Jane,The speaker identifies more with<br>Jane than Dave,left_to_right
null,Somebody says<br><em>Dave is being seduced by Fred</em>,NA,NA,NA,html-keyboard-response,25,159575,0.0-16.0-0.0,anomymised,6564584152624795c40b73cb,6564bdacb65aad826f6cd4eb,25007,1A,woman,NA,null,NAME1 is being seduced by NAME2,seduce_passive,sentence,NA,NA,NA,NA,NA
6047,NA,NA,NA,NA,survey-likert-extra-labels,26,165624,0.0-16.0-1.0,anomymised,6564584152624795c40b73cb,6564bdacb65aad826f6cd4eb,25007,1A,woman,NA,NA,Somebody says<br><em>Dave is being seduced by Fred</em>,seduce_passive,rating_volition,"{""Q0"":5}",[0],The speaker identifies more with <br>Fred than Dave,The speaker identifies more with<br>Dave than Fred,right_to_left
null,Somebody says<br><em>Dave is being challenged by Luke</em>,NA,NA,NA,html-keyboard-response,27,167626,0.0-17.0-0.0,anomymised,6564584152624795c40b73cb,6564bdacb65aad826f6cd4eb,25007,1A,woman,NA,null,NAME1 is being challenged by NAME2,challenge_passive,sentence,NA,NA,NA,NA,NA
4682,NA,NA,NA,NA,survey-likert-extra-labels,28,172309,0.0-17.0-1.0,anomymised,6564584152624795c40b73cb,6564bdacb65aad826f6cd4eb,25007,1A,woman,NA,NA,Somebody says<br><em>Dave is being challenged by Luke</em>,challenge_passive,rating_volition,"{""Q0"":6}",[0],The speaker identifies more with <br>Dave than Luke,The speaker identifies more with<br>Luke than Dave,left_to_right
null,Somebody says<br><em>Ruth is chasing Kate,NA,NA,NA,html-keyboard-response,29,174314,0.0-18.0-0.0,anomymised,6564584152624795c40b73cb,6564bdacb65aad826f6cd4eb,25007,1A,woman,NA,null,W1 is chasing W3,chase,sentence,NA,NA,NA,NA,NA
16977,NA,NA,NA,NA,survey-likert-extra-labels,30,191293,0.0-18.0-1.0,anomymised,6564584152624795c40b73cb,6564bdacb65aad826f6cd4eb,25007,1A,woman,NA,NA,Somebody says<br><em>Ruth is chasing Kate,chase,rating_volition,"{""Q0"":0}",[0],Ruth is behind Kate,Kate is behind Ruth,NA
null,Somebody says<br><em>Kate and Jane are hugging each other</em>,NA,NA,NA,html-keyboard-response,31,193296,0.0-19.0-0.0,anomymised,6564584152624795c40b73cb,6564bdacb65aad826f6cd4eb,25007,1A,woman,NA,null,NAME1 and NAME2 are hugging each other,hug_conjoined,sentence,NA,NA,NA,NA,NA
5599,NA,NA,NA,NA,survey-likert-extra-labels,32,198897,0.0-19.0-1.0,anomymised,6564584152624795c40b73cb,6564bdacb65aad826f6cd4eb,25007,1A,woman,NA,NA,Somebody says<br><em>Kate and Jane are hugging each other</em>,hug_conjoined,rating_volition,"{""Q0"":5}",[0],The speaker identifies more with <br>Jane than Kate,The speaker identifies more with<br>Kate than Jane,right_to_left
null,Somebody says<br><em>Jane is being looked at by Ruth</em>,NA,NA,NA,html-keyboard-response,33,200899,0.0-20.0-0.0,anomymised,6564584152624795c40b73cb,6564bdacb65aad826f6cd4eb,25007,1A,woman,NA,null,NAME1 is being looked at by NAME2,look_passive,sentence,NA,NA,NA,NA,NA
6181,NA,NA,NA,NA,survey-likert-extra-labels,34,207081,0.0-20.0-1.0,anomymised,6564584152624795c40b73cb,6564bdacb65aad826f6cd4eb,25007,1A,woman,NA,NA,Somebody says<br><em>Jane is being looked at by Ruth</em>,look_passive,rating_volition,"{""Q0"":6}",[0],The speaker identifies more with <br>Ruth than Jane,The speaker identifies more with<br>Jane than Ruth,right_to_left
null,Somebody says<br><em>Ruth is seducing Fred</em>,NA,NA,NA,html-keyboard-response,35,209084,0.0-21.0-0.0,anomymised,6564584152624795c40b73cb,6564bdacb65aad826f6cd4eb,25007,1A,woman,NA,null,NAME1 is seducing NAME2,seduce_active,sentence,NA,NA,NA,NA,NA
5754,NA,NA,NA,NA,survey-likert-extra-labels,36,214839,0.0-21.0-1.0,anomymised,6564584152624795c40b73cb,6564bdacb65aad826f6cd4eb,25007,1A,woman,NA,NA,Somebody says<br><em>Ruth is seducing Fred</em>,seduce_active,rating_volition,"{""Q0"":0}",[0],The speaker identifies more with <br>Ruth than Fred,The speaker identifies more with<br>Fred than Ruth,left_to_right
null,Somebody says<br><em>Beth and Ruth are flirting with each other</em>,NA,NA,NA,html-keyboard-response,37,216842,0.0-22.0-0.0,anomymised,6564584152624795c40b73cb,6564bdacb65aad826f6cd4eb,25007,1A,woman,NA,null,NAME1 and NAME2 are flirting with each other,flirt_conjoined,sentence,NA,NA,NA,NA,NA
4248,NA,NA,NA,NA,survey-likert-extra-labels,38,221091,0.0-22.0-1.0,anomymised,6564584152624795c40b73cb,6564bdacb65aad826f6cd4eb,25007,1A,woman,NA,NA,Somebody says<br><em>Beth and Ruth are flirting with each other</em>,flirt_conjoined,rating_volition,"{""Q0"":3}",[0],The speaker identifies more with <br>Beth than Ruth,The speaker identifies more with<br>Ruth than Beth,left_to_right
null,Somebody says<br><em>Fred is copying Ruth</em>,NA,NA,NA,html-keyboard-response,39,223094,0.0-23.0-0.0,anomymised,6564584152624795c40b73cb,6564bdacb65aad826f6cd4eb,25007,1A,woman,NA,null,NAME1 is copying NAME2,copy_active,sentence,NA,NA,NA,NA,NA
7328,NA,NA,NA,NA,survey-likert-extra-labels,40,230423,0.0-23.0-1.0,anomymised,6564584152624795c40b73cb,6564bdacb65aad826f6cd4eb,25007,1A,woman,NA,NA,Somebody says<br><em>Fred is copying Ruth</em>,copy_active,rating_volition,"{""Q0"":6}",[0],The speaker identifies more with <br>Fred than Ruth,The speaker identifies more with<br>Ruth than Fred,left_to_right
null,Somebody says<br><em>Ruth is being greeted by Jane</em>,NA,NA,NA,html-keyboard-response,41,232426,0.0-24.0-0.0,anomymised,6564584152624795c40b73cb,6564bdacb65aad826f6cd4eb,25007,1A,woman,NA,null,NAME1 is being greeted by NAME2,greet_passive,sentence,NA,NA,NA,NA,NA
6888,NA,NA,NA,NA,survey-likert-extra-labels,42,239315,0.0-24.0-1.0,anomymised,6564584152624795c40b73cb,6564bdacb65aad826f6cd4eb,25007,1A,woman,NA,NA,Somebody says<br><em>Ruth is being greeted by Jane</em>,greet_passive,rating_volition,"{""Q0"":5}",[0],The speaker identifies more with <br>Jane than Ruth,The speaker identifies more with<br>Ruth than Jane,right_to_left
null,Somebody says<br><em>Mike is posing for Dave,NA,NA,NA,html-keyboard-response,43,241318,0.0-25.0-0.0,anomymised,6564584152624795c40b73cb,6564bdacb65aad826f6cd4eb,25007,1A,woman,NA,null,M2 is posing for M4,pose,sentence,NA,NA,NA,NA,NA
12618,NA,NA,NA,NA,survey-likert-extra-labels,44,253938,0.0-25.0-1.0,anomymised,6564584152624795c40b73cb,6564bdacb65aad826f6cd4eb,25007,1A,woman,NA,NA,Somebody says<br><em>Mike is posing for Dave,pose,rating_volition,"{""Q0"":0}",[0],Mike is modelling for Dave,Dave is modelling for Mike,NA
null,Somebody says<br><em>Fred and Luke are arguing with each other</em>,NA,NA,NA,html-keyboard-response,45,255940,0.0-26.0-0.0,anomymised,6564584152624795c40b73cb,6564bdacb65aad826f6cd4eb,25007,1A,woman,NA,null,NAME1 and NAME2 are arguing with each other,argue_conjoined,sentence,NA,NA,NA,NA,NA
7377.000000000029,NA,NA,NA,NA,survey-likert-extra-labels,46,263318,0.0-26.0-1.0,anomymised,6564584152624795c40b73cb,6564bdacb65aad826f6cd4eb,25007,1A,woman,NA,NA,Somebody says<br><em>Fred and Luke are arguing with each other</em>,argue_conjoined,rating_volition,"{""Q0"":3}",[0],The speaker identifies more with <br>Fred than Luke,The speaker identifies more with<br>Luke than Fred,left_to_right
null,Somebody says<br><em>Ruth and Dave are kissing each other</em>,NA,NA,NA,html-keyboard-response,47,265320,0.0-27.0-0.0,anomymised,6564584152624795c40b73cb,6564bdacb65aad826f6cd4eb,25007,1A,woman,NA,null,NAME1 and NAME2 are kissing each other,kiss_conjoined,sentence,NA,NA,NA,NA,NA
5732,NA,NA,NA,NA,survey-likert-extra-labels,48,271054,0.0-27.0-1.0,anomymised,6564584152624795c40b73cb,6564bdacb65aad826f6cd4eb,25007,1A,woman,NA,NA,Somebody says<br><em>Ruth and Dave are kissing each other</em>,kiss_conjoined,rating_volition,"{""Q0"":1}",[0],The speaker identifies more with <br>Ruth than Dave,The speaker identifies more with<br>Dave than Ruth,left_to_right
null,Somebody says<br><em>Jane is teaching Dave,NA,NA,NA,html-keyboard-response,49,273057,0.0-28.0-0.0,anomymised,6564584152624795c40b73cb,6564bdacb65aad826f6cd4eb,25007,1A,woman,NA,null,W2 is teaching M4,teach,sentence,NA,NA,NA,NA,NA
4614.000000000058,NA,NA,NA,NA,survey-likert-extra-labels,50,277672,0.0-28.0-1.0,anomymised,6564584152624795c40b73cb,6564bdacb65aad826f6cd4eb,25007,1A,woman,NA,NA,Somebody says<br><em>Jane is teaching Dave,teach,rating_volition,"{""Q0"":0}",[0],Jane is educating Dave,Dave is educating Jane,NA
null,Somebody says<br><em>Kate is feeding Luke,NA,NA,NA,html-keyboard-response,51,279675,0.0-29.0-0.0,anomymised,6564584152624795c40b73cb,6564bdacb65aad826f6cd4eb,25007,1A,woman,NA,null,W3 is feeding M1,feed,sentence,NA,NA,NA,NA,NA
6487,NA,NA,NA,NA,survey-likert-extra-labels,52,286162,0.0-29.0-1.0,anomymised,6564584152624795c40b73cb,6564bdacb65aad826f6cd4eb,25007,1A,woman,NA,NA,Somebody says<br><em>Kate is feeding Luke,feed,rating_volition,"{""Q0"":0}",[0],Kate cooked for Luke,Luke cooked for Kate,NA
null,Somebody says<br><em>Jane is talking to Dave</em>,NA,NA,NA,html-keyboard-response,53,288165,0.0-30.0-0.0,anomymised,6564584152624795c40b73cb,6564bdacb65aad826f6cd4eb,25007,1A,woman,NA,null,NAME1 is talking to NAME2,talk_active,sentence,NA,NA,NA,NA,NA
4238,NA,NA,NA,NA,survey-likert-extra-labels,54,292405,0.0-30.0-1.0,anomymised,6564584152624795c40b73cb,6564bdacb65aad826f6cd4eb,25007,1A,woman,NA,NA,Somebody says<br><em>Jane is talking to Dave</em>,talk_active,rating_volition,"{""Q0"":5}",[0],The speaker identifies more with <br>Dave than Jane,The speaker identifies more with<br>Jane than Dave,right_to_left
null,Somebody says<br><em>Dave is marrying Beth</em>,NA,NA,NA,html-keyboard-response,55,294407,0.0-31.0-0.0,anomymised,6564584152624795c40b73cb,6564bdacb65aad826f6cd4eb,25007,1A,woman,NA,null,NAME1 is marrying NAME2,marry_active,sentence,NA,NA,NA,NA,NA
3838,NA,NA,NA,NA,survey-likert-extra-labels,56,298246,0.0-31.0-1.0,anomymised,6564584152624795c40b73cb,6564bdacb65aad826f6cd4eb,25007,1A,woman,NA,NA,Somebody says<br><em>Dave is marrying Beth</em>,marry_active,rating_volition,"{""Q0"":1}",[0],The speaker identifies more with <br>Dave than Beth,The speaker identifies more with<br>Beth than Dave,left_to_right
null,Somebody says<br><em>Fred and Ruth are dancing with each other</em>,NA,NA,NA,html-keyboard-response,57,300248,0.0-32.0-0.0,anomymised,6564584152624795c40b73cb,6564bdacb65aad826f6cd4eb,25007,1A,woman,NA,null,NAME1 and NAME2 are dancing with each other,dance_conjoined,sentence,NA,NA,NA,NA,NA
11228,NA,NA,NA,NA,survey-likert-extra-labels,58,311477,0.0-32.0-1.0,anomymised,6564584152624795c40b73cb,6564bdacb65aad826f6cd4eb,25007,1A,woman,NA,NA,Somebody says<br><em>Fred and Ruth are dancing with each other</em>,dance_conjoined,rating_volition,"{""Q0"":1}",[0],The speaker identifies more with <br>Fred than Ruth,The speaker identifies more with<br>Ruth than Fred,left_to_right
null,Somebody says<br><em>Ruth is hugging Dave</em>,NA,NA,NA,html-keyboard-response,59,313480,0.0-33.0-0.0,anomymised,6564584152624795c40b73cb,6564bdacb65aad826f6cd4eb,25007,1A,woman,NA,null,NAME1 is hugging NAME2,hug_active,sentence,NA,NA,NA,NA,NA
4595,NA,NA,NA,NA,survey-likert-extra-labels,60,318077,0.0-33.0-1.0,anomymised,6564584152624795c40b73cb,6564bdacb65aad826f6cd4eb,25007,1A,woman,NA,NA,Somebody says<br><em>Ruth is hugging Dave</em>,hug_active,rating_volition,"{""Q0"":5}",[0],The speaker identifies more with <br>Dave than Ruth,The speaker identifies more with<br>Ruth than Dave,right_to_left
null,Somebody says<br><em>Dave is dancing with Luke</em>,NA,NA,NA,html-keyboard-response,61,320079,0.0-34.0-0.0,anomymised,6564584152624795c40b73cb,6564bdacb65aad826f6cd4eb,25007,1A,woman,NA,null,NAME1 is dancing with NAME2,dance_active,sentence,NA,NA,NA,NA,NA
7099,NA,NA,NA,NA,survey-likert-extra-labels,62,327179,0.0-34.0-1.0,anomymised,6564584152624795c40b73cb,6564bdacb65aad826f6cd4eb,25007,1A,woman,NA,NA,Somebody says<br><em>Dave is dancing with Luke</em>,dance_active,rating_volition,"{""Q0"":0}",[0],The speaker identifies more with <br>Dave than Luke,The speaker identifies more with<br>Luke than Dave,left_to_right
null,Somebody says<br><em>Luke is looking at Kate</em>,NA,NA,NA,html-keyboard-response,63,329181,0.0-35.0-0.0,anomymised,6564584152624795c40b73cb,6564bdacb65aad826f6cd4eb,25007,1A,woman,NA,null,NAME1 is looking at NAME2,look_active,sentence,NA,NA,NA,NA,NA
4113.999999999942,NA,NA,NA,NA,survey-likert-extra-labels,64,333297,0.0-35.0-1.0,anomymised,6564584152624795c40b73cb,6564bdacb65aad826f6cd4eb,25007,1A,woman,NA,NA,Somebody says<br><em>Luke is looking at Kate</em>,look_active,rating_volition,"{""Q0"":1}",[0],The speaker identifies more with <br>Luke than Kate,The speaker identifies more with<br>Kate than Luke,left_to_right
null,Somebody says<br><em>Dave is meeting Fred</em>,NA,NA,NA,html-keyboard-response,65,335299,0.0-36.0-0.0,anomymised,6564584152624795c40b73cb,6564bdacb65aad826f6cd4eb,25007,1A,woman,NA,null,NAME1 is meeting NAME2,meet_active,sentence,NA,NA,NA,NA,NA
5472.999999999942,NA,NA,NA,NA,survey-likert-extra-labels,66,340774,0.0-36.0-1.0,anomymised,6564584152624795c40b73cb,6564bdacb65aad826f6cd4eb,25007,1A,woman,NA,NA,Somebody says<br><em>Dave is meeting Fred</em>,meet_active,rating_volition,"{""Q0"":5}",[0],The speaker identifies more with <br>Fred than Dave,The speaker identifies more with<br>Dave than Fred,right_to_left
null,Somebody says<br><em>Beth is challenging Luke</em>,NA,NA,NA,html-keyboard-response,67,342776,0.0-37.0-0.0,anomymised,6564584152624795c40b73cb,6564bdacb65aad826f6cd4eb,25007,1A,woman,NA,null,NAME1 is challenging NAME2,challenge_active,sentence,NA,NA,NA,NA,NA
4723,NA,NA,NA,NA,survey-likert-extra-labels,68,347499,0.0-37.0-1.0,anomymised,6564584152624795c40b73cb,6564bdacb65aad826f6cd4eb,25007,1A,woman,NA,NA,Somebody says<br><em>Beth is challenging Luke</em>,challenge_active,rating_volition,"{""Q0"":0}",[0],The speaker identifies more with <br>Beth than Luke,The speaker identifies more with<br>Luke than Beth,left_to_right
null,Somebody says<br><em>Dave is being copied by Mike</em>,NA,NA,NA,html-keyboard-response,69,349502,0.0-38.0-0.0,anomymised,6564584152624795c40b73cb,6564bdacb65aad826f6cd4eb,25007,1A,woman,NA,null,NAME1 is being copied by NAME2,copy_passive,sentence,NA,NA,NA,NA,NA
6440,NA,NA,NA,NA,survey-likert-extra-labels,70,355944,0.0-38.0-1.0,anomymised,6564584152624795c40b73cb,6564bdacb65aad826f6cd4eb,25007,1A,woman,NA,NA,Somebody says<br><em>Dave is being copied by Mike</em>,copy_passive,rating_volition,"{""Q0"":5}",[0],The speaker identifies more with <br>Mike than Dave,The speaker identifies more with<br>Dave than Mike,right_to_left
null,Somebody says<br><em>Kate and Fred are talking with each other</em>,NA,NA,NA,html-keyboard-response,71,357946,0.0-39.0-0.0,anomymised,6564584152624795c40b73cb,6564bdacb65aad826f6cd4eb,25007,1A,woman,NA,null,NAME1 and NAME2 are talking with each other,talk_conjoined,sentence,NA,NA,NA,NA,NA
4966,NA,NA,NA,NA,survey-likert-extra-labels,72,362913,0.0-39.0-1.0,anomymised,6564584152624795c40b73cb,6564bdacb65aad826f6cd4eb,25007,1A,woman,NA,NA,Somebody says<br><em>Kate and Fred are talking with each other</em>,talk_conjoined,rating_volition,"{""Q0"":5}",[0],The speaker identifies more with <br>Fred than Kate,The speaker identifies more with<br>Kate than Fred,right_to_left
null,Somebody says<br><em>Jane and Fred are marrying each other</em>,NA,NA,NA,html-keyboard-response,73,364916,0.0-40.0-0.0,anomymised,6564584152624795c40b73cb,6564bdacb65aad826f6cd4eb,25007,1A,woman,NA,null,NAME1 and NAME2 are marrying each other,marry_conjoined,sentence,NA,NA,NA,NA,NA
4343,NA,NA,NA,NA,survey-likert-extra-labels,74,369261,0.0-40.0-1.0,anomymised,6564584152624795c40b73cb,6564bdacb65aad826f6cd4eb,25007,1A,woman,NA,NA,Somebody says<br><em>Jane and Fred are marrying each other</em>,marry_conjoined,rating_volition,"{""Q0"":5}",[0],The speaker identifies more with <br>Fred than Jane,The speaker identifies more with<br>Jane than Fred,right_to_left
null,Somebody says<br><em>Fred is shouting at Ruth</em>,NA,NA,NA,html-keyboard-response,75,371263,0.0-41.0-0.0,anomymised,6564584152624795c40b73cb,6564bdacb65aad826f6cd4eb,25007,1A,woman,NA,null,NAME1 is shouting at NAME2,shout_active,sentence,NA,NA,NA,NA,NA
3978,NA,NA,NA,NA,survey-likert-extra-labels,76,375242,0.0-41.0-1.0,anomymised,6564584152624795c40b73cb,6564bdacb65aad826f6cd4eb,25007,1A,woman,NA,NA,Somebody says<br><em>Fred is shouting at Ruth</em>,shout_active,rating_volition,"{""Q0"":6}",[0],The speaker identifies more with <br>Fred than Ruth,The speaker identifies more with<br>Ruth than Fred,left_to_right
null,Somebody says<br><em>Fred and Mike are fighting with each other</em>,NA,NA,NA,html-keyboard-response,77,377245,0.0-42.0-0.0,anomymised,6564584152624795c40b73cb,6564bdacb65aad826f6cd4eb,25007,1A,woman,NA,null,NAME1 and NAME2 are fighting with each other,fight_conjoined,sentence,NA,NA,NA,NA,NA
5927,NA,NA,NA,NA,survey-likert-extra-labels,78,383173,0.0-42.0-1.0,anomymised,6564584152624795c40b73cb,6564bdacb65aad826f6cd4eb,25007,1A,woman,NA,NA,Somebody says<br><em>Fred and Mike are fighting with each other</em>,fight_conjoined,rating_volition,"{""Q0"":1}",[0],The speaker identifies more with <br>Fred than Mike,The speaker identifies more with<br>Mike than Fred,left_to_right
null,Somebody says<br><em>Beth is playing with Dave</em>,NA,NA,NA,html-keyboard-response,79,385175,0.0-43.0-0.0,anomymised,6564584152624795c40b73cb,6564bdacb65aad826f6cd4eb,25007,1A,woman,NA,null,NAME1 is playing with NAME2,play_active,sentence,NA,NA,NA,NA,NA
6545,NA,NA,NA,NA,survey-likert-extra-labels,80,391722,0.0-43.0-1.0,anomymised,6564584152624795c40b73cb,6564bdacb65aad826f6cd4eb,25007,1A,woman,NA,NA,Somebody says<br><em>Beth is playing with Dave</em>,play_active,rating_volition,"{""Q0"":5}",[0],The speaker identifies more with <br>Dave than Beth,The speaker identifies more with<br>Beth than Dave,right_to_left
null,Somebody says<br><em>Dave is being shouted at by Beth</em>,NA,NA,NA,html-keyboard-response,81,393725,0.0-44.0-0.0,anomymised,6564584152624795c40b73cb,6564bdacb65aad826f6cd4eb,25007,1A,woman,NA,null,NAME1 is being shouted at by NAME2,shout_passive,sentence,NA,NA,NA,NA,NA
4186,NA,NA,NA,NA,survey-likert-extra-labels,82,397912,0.0-44.0-1.0,anomymised,6564584152624795c40b73cb,6564bdacb65aad826f6cd4eb,25007,1A,woman,NA,NA,Somebody says<br><em>Dave is being shouted at by Beth</em>,shout_passive,rating_volition,"{""Q0"":5}",[0],The speaker identifies more with <br>Beth than Dave,The speaker identifies more with<br>Dave than Beth,right_to_left
null,Somebody says<br><em>Jane is being hugged by Kate</em>,NA,NA,NA,html-keyboard-response,83,399915,0.0-45.0-0.0,anomymised,6564584152624795c40b73cb,6564bdacb65aad826f6cd4eb,25007,1A,woman,NA,null,NAME1 is being hugged by NAME2,hug_passive,sentence,NA,NA,NA,NA,NA
4251,NA,NA,NA,NA,survey-likert-extra-labels,84,404167,0.0-45.0-1.0,anomymised,6564584152624795c40b73cb,6564bdacb65aad826f6cd4eb,25007,1A,woman,NA,NA,Somebody says<br><em>Jane is being hugged by Kate</em>,hug_passive,rating_volition,"{""Q0"":5}",[0],The speaker identifies more with <br>Kate than Jane,The speaker identifies more with<br>Jane than Kate,right_to_left
null,Somebody says<br><em>Ruth is fighting with Kate</em>,NA,NA,NA,html-keyboard-response,85,406169,0.0-46.0-0.0,anomymised,6564584152624795c40b73cb,6564bdacb65aad826f6cd4eb,25007,1A,woman,NA,null,NAME1 is fighting with NAME2,fight_active,sentence,NA,NA,NA,NA,NA
3896,NA,NA,NA,NA,survey-likert-extra-labels,86,410067,0.0-46.0-1.0,anomymised,6564584152624795c40b73cb,6564bdacb65aad826f6cd4eb,25007,1A,woman,NA,NA,Somebody says<br><em>Ruth is fighting with Kate</em>,fight_active,rating_volition,"{""Q0"":5}",[0],The speaker identifies more with <br>Ruth than Kate,The speaker identifies more with<br>Kate than Ruth,left_to_right
null,Somebody says<br><em>Mike is kissing Jane</em>,NA,NA,NA,html-keyboard-response,87,412069,0.0-47.0-0.0,anomymised,6564584152624795c40b73cb,6564bdacb65aad826f6cd4eb,25007,1A,woman,NA,null,NAME1 is kissing NAME2,kiss_active,sentence,NA,NA,NA,NA,NA
3702,NA,NA,NA,NA,survey-likert-extra-labels,88,415772,0.0-47.0-1.0,anomymised,6564584152624795c40b73cb,6564bdacb65aad826f6cd4eb,25007,1A,woman,NA,NA,Somebody says<br><em>Mike is kissing Jane</em>,kiss_active,rating_volition,"{""Q0"":5}",[0],The speaker identifies more with <br>Jane than Mike,The speaker identifies more with<br>Mike than Jane,right_to_left
null,Somebody says<br><em>Jane is carrying Beth,NA,NA,NA,html-keyboard-response,89,417775,0.0-48.0-0.0,anomymised,6564584152624795c40b73cb,6564bdacb65aad826f6cd4eb,25007,1A,woman,NA,null,W2 is carrying W4,carry,sentence,NA,NA,NA,NA,NA
5299,NA,NA,NA,NA,survey-likert-extra-labels,90,423076,0.0-48.0-1.0,anomymised,6564584152624795c40b73cb,6564bdacb65aad826f6cd4eb,25007,1A,woman,NA,NA,Somebody says<br><em>Jane is carrying Beth,carry,rating_volition,"{""Q0"":0}",[0],Jane is transporting Beth,Beth is transporting Jane,NA
null,Somebody says<br><em>Fred is hiring Ruth,NA,NA,NA,html-keyboard-response,91,425078,0.0-49.0-0.0,anomymised,6564584152624795c40b73cb,6564bdacb65aad826f6cd4eb,25007,1A,woman,NA,null,M3 is hiring W1,hire,sentence,NA,NA,NA,NA,NA
4384.999999999942,NA,NA,NA,NA,survey-likert-extra-labels,92,429465,0.0-49.0-1.0,anomymised,6564584152624795c40b73cb,6564bdacb65aad826f6cd4eb,25007,1A,woman,NA,NA,Somebody says<br><em>Fred is hiring Ruth,hire,rating_volition,"{""Q0"":0}",[0],Fred is employing Ruth,Ruth is employing Fred,NA
null,Somebody says<br><em>Jane and Dave are shouting at each other</em>,NA,NA,NA,html-keyboard-response,93,431468,0.0-50.0-0.0,anomymised,6564584152624795c40b73cb,6564bdacb65aad826f6cd4eb,25007,1A,woman,NA,null,NAME1 and NAME2 are shouting at each other,shout_conjoined,sentence,NA,NA,NA,NA,NA
2492,NA,NA,NA,NA,survey-likert-extra-labels,94,433961,0.0-50.0-1.0,anomymised,6564584152624795c40b73cb,6564bdacb65aad826f6cd4eb,25007,1A,woman,NA,NA,Somebody says<br><em>Jane and Dave are shouting at each other</em>,shout_conjoined,rating_volition,"{""Q0"":3}",[0],The speaker identifies more with <br>Dave than Jane,The speaker identifies more with<br>Jane than Dave,right_to_left
null,Somebody says<br><em>Kate is greeting Mike</em>,NA,NA,NA,html-keyboard-response,95,435963,0.0-51.0-0.0,anomymised,6564584152624795c40b73cb,6564bdacb65aad826f6cd4eb,25007,1A,woman,NA,null,NAME1 is greeting NAME2,greet_active,sentence,NA,NA,NA,NA,NA
7026.000000000058,NA,NA,NA,NA,survey-likert-extra-labels,96,442991,0.0-51.0-1.0,anomymised,6564584152624795c40b73cb,6564bdacb65aad826f6cd4eb,25007,1A,woman,NA,NA,Somebody says<br><em>Kate is greeting Mike</em>,greet_active,rating_volition,"{""Q0"":6}",[0],The speaker identifies more with <br>Kate than Mike,The speaker identifies more with<br>Mike than Kate,left_to_right
null,Somebody says<br><em>Ruth is flirting with Kate</em>,NA,NA,NA,html-keyboard-response,97,444995,0.0-52.0-0.0,anomymised,6564584152624795c40b73cb,6564bdacb65aad826f6cd4eb,25007,1A,woman,NA,null,NAME1 is flirting with NAME2,flirt_active,sentence,NA,NA,NA,NA,NA
6418.999999999942,NA,NA,NA,NA,survey-likert-extra-labels,98,451415,0.0-52.0-1.0,anomymised,6564584152624795c40b73cb,6564bdacb65aad826f6cd4eb,25007,1A,woman,NA,NA,Somebody says<br><em>Ruth is flirting with Kate</em>,flirt_active,rating_volition,"{""Q0"":6}",[0],The speaker identifies more with <br>Ruth than Kate,The speaker identifies more with<br>Kate than Ruth,left_to_right
null,Somebody says<br><em>Kate and Dave are meeting each other</em>,NA,NA,NA,html-keyboard-response,99,453417,0.0-53.0-0.0,anomymised,6564584152624795c40b73cb,6564bdacb65aad826f6cd4eb,25007,1A,woman,NA,null,NAME1 and NAME2 are meeting each other,meet_conjoined,sentence,NA,NA,NA,NA,NA
5971.999999999942,NA,NA,NA,NA,survey-likert-extra-labels,100,459391,0.0-53.0-1.0,anomymised,6564584152624795c40b73cb,6564bdacb65aad826f6cd4eb,25007,1A,woman,NA,NA,Somebody says<br><em>Kate and Dave are meeting each other</em>,meet_conjoined,rating_volition,"{""Q0"":6}",[0],The speaker identifies more with <br>Dave than Kate,The speaker identifies more with<br>Kate than Dave,right_to_left
null,Somebody says<br><em>Kate is being touched by Luke</em>,NA,NA,NA,html-keyboard-response,101,461394,0.0-54.0-0.0,anomymised,6564584152624795c40b73cb,6564bdacb65aad826f6cd4eb,25007,1A,woman,NA,null,NAME1 is being touched by NAME2,touch_passive,sentence,NA,NA,NA,NA,NA
4304,NA,NA,NA,NA,survey-likert-extra-labels,102,465700,0.0-54.0-1.0,anomymised,6564584152624795c40b73cb,6564bdacb65aad826f6cd4eb,25007,1A,woman,NA,NA,Somebody says<br><em>Kate is being touched by Luke</em>,touch_passive,rating_volition,"{""Q0"":0}",[0],The speaker identifies more with <br>Kate than Luke,The speaker identifies more with<br>Luke than Kate,left_to_right
null,Somebody says<br><em>Mike is reminding Beth,NA,NA,NA,html-keyboard-response,103,467702,0.0-55.0-0.0,anomymised,6564584152624795c40b73cb,6564bdacb65aad826f6cd4eb,25007,1A,woman,NA,null,M2 is reminding W4,remind,sentence,NA,NA,NA,NA,NA
5094,NA,NA,NA,NA,survey-likert-extra-labels,104,472797,0.0-55.0-1.0,anomymised,6564584152624795c40b73cb,6564bdacb65aad826f6cd4eb,25007,1A,woman,NA,NA,Somebody says<br><em>Mike is reminding Beth,remind,rating_volition,"{""Q0"":0}",[0],Mike is telling Beth again,Beth is telling Mike again,NA
1680.9999999999418,<p>Thank you for completing that task.</p><p>The final part of this session is a short questionnaire.</p><p>Press Continue.</p>,0,Continue,Continue,html-button-response,105,474479,0.0-56.0,anomymised,6564584152624795c40b73cb,6564bdacb65aad826f6cd4eb,25007,1A,woman,NA,NA,NA,NA,NA,NA,NA,NA,NA,NA
32345,NA,NA,NA,NA,survey-text,106,507848,0.0-57.0,anomymised,6564584152624795c40b73cb,6564bdacb65aad826f6cd4eb,25007,1A,woman,NA,NA,NA,NA,demographics,"{""Q0"":""46"",""Q1"":""English"",""Q2"":""English"",""Q3"":""UK"",""Q4"":""British"",""Q5"":""White British"",""Q6"":""Female""}",NA,NA,NA,NA
3457,<p>This is the last question - thank you for taking part! Have you lived in the UK for the last 5 years or more?</p>,0,"Yes,No",Yes,html-button-response,107,511307,0.0-58.0,anomymised,6564584152624795c40b73cb,6564bdacb65aad826f6cd4eb,25007,1A,woman,NA,NA,NA,NA,fiveyears,NA,NA,NA,NA,NA
