rt,stimulus,button_pressed,choices,ChosenStimulus,trial_type,trial_index,time_elapsed,internal_node_id,subject_id,study_id,session_id,subject,list,ppt_gender,url,key_press,sentence_type,verb,test_part,responses,question_order,left_part,right_part,name_order
2193.2999999523163,Welcome to the experiment. Press Continue to begin.,0,Continue,Continue,html-button-response,0,2196,0.0-0.0,anomymised,6560c4cfd080ba12b16d8282,6564c8133d99f2c749c1e046,26091,1A,man,NA,NA,NA,NA,NA,NA,NA,NA,NA,NA
20251.899999976158,NA,NA,NA,NA,external-html,1,23510,0.0-1.0,anomymised,6560c4cfd080ba12b16d8282,6564c8133d99f2c749c1e046,26091,1A,man,consent.html,NA,NA,NA,NA,NA,NA,NA,NA,NA
228672.5,"<p>Welcome.</p><p>In this experiment we will ask you to imagine people's motivations for saying sentences.</p><p>Each trial will begin with a sentence that somebody might say to describe an event involving two different people.</p><p>For instance, someone might say <em>Harry is being recruited by Molly</em></p><p>We want you to think about which of those two people (Molly and Harry) the speaker identifies more with. For instance, why did the speaker say <em>Harry is being recruited by Molly</em> rather than <em> Molly is recruiting Harry</em>? Might that mean that the speaker is socially closer to one of the two characters?</p><p>After you have read the sentence, you will rate on a scale which of the two characters the speaker identifies more with.</p><p>You will give your answer by clicking a button on a rating scale.</p><p>Sometimes there will also be catch questions designed to make sure that you are paying attention, which ask about a different topic.</p><p>To do this task, you will have to use your imagination to think about and visualise the events, and how the speaker might relate to the characters.</p><br><p>Ready?</p>",0,Continue,Continue,html-button-response,2,252183,0.0-2.0,anomymised,6560c4cfd080ba12b16d8282,6564c8133d99f2c749c1e046,26091,1A,man,NA,NA,NA,NA,NA,NA,NA,NA,NA,NA
2781.2999999523163,"<p>Before the experiment starts, we will show you an example of how you will answer the questions. Press 'Continue'.</p>",0,Continue,Continue,html-button-response,3,255971,0.0-3.0,anomymised,6560c4cfd080ba12b16d8282,6564c8133d99f2c749c1e046,26091,1A,man,NA,NA,NA,NA,NA,NA,NA,NA,NA,NA
null,Somebody says <br><em>Samuel is dining with Frank</em>,NA,NA,NA,html-keyboard-response,4,258982,0.0-4.0,anomymised,6560c4cfd080ba12b16d8282,6564c8133d99f2c749c1e046,26091,1A,man,NA,null,NA,NA,NA,NA,NA,NA,NA,NA
355573.60000002384,<img src='img/Example-trial.jpg' style='height:550px;''></img>,0,Continue,Continue,html-button-response,5,614557,0.0-5.0,anomymised,6560c4cfd080ba12b16d8282,6564c8133d99f2c749c1e046,26091,1A,man,NA,NA,NA,NA,NA,NA,NA,NA,NA,NA
2094.1999999284744,<p>Ready to start the experiment?</p><br><p><strong>Remember to give an answer by clicking a button on the rating scale.</strong></p><p>Press 'Continue' to begin.</p>,0,Continue,Continue,html-button-response,6,617653,0.0-6.0,anomymised,6560c4cfd080ba12b16d8282,6564c8133d99f2c749c1e046,26091,1A,man,NA,NA,NA,NA,NA,NA,NA,NA,NA,NA
null,Somebody says<br><em>Ruth is opposing Kate</em>,NA,NA,NA,html-keyboard-response,7,620676,0.0-7.0-0.0,anomymised,6560c4cfd080ba12b16d8282,6564c8133d99f2c749c1e046,26091,1A,man,NA,null,NAME1 is opposing NAME2,oppose_active,sentence,NA,NA,NA,NA,NA
7325.699999928474,NA,NA,NA,NA,survey-likert-extra-labels,8,628005,0.0-7.0-1.0,anomymised,6560c4cfd080ba12b16d8282,6564c8133d99f2c749c1e046,26091,1A,man,NA,NA,Somebody says<br><em>Ruth is opposing Kate</em>,oppose_active,rating_volition,"{""Q0"":1}",[0],The speaker identifies more with <br>Ruth than Kate,The speaker identifies more with<br>Kate than Ruth,left_to_right
null,Somebody says<br><em>Dave is being kissed by Kate</em>,NA,NA,NA,html-keyboard-response,9,630011,0.0-8.0-0.0,anomymised,6560c4cfd080ba12b16d8282,6564c8133d99f2c749c1e046,26091,1A,man,NA,null,NAME1 is being kissed by NAME2,kiss_passive,sentence,NA,NA,NA,NA,NA
3218.5,NA,NA,NA,NA,survey-likert-extra-labels,10,633231,0.0-8.0-1.0,anomymised,6560c4cfd080ba12b16d8282,6564c8133d99f2c749c1e046,26091,1A,man,NA,NA,Somebody says<br><em>Dave is being kissed by Kate</em>,kiss_passive,rating_volition,"{""Q0"":1}",[0],The speaker identifies more with <br>Dave than Kate,The speaker identifies more with<br>Kate than Dave,left_to_right
null,Somebody says<br><em>Mike is hugging Ruth</em>,NA,NA,NA,html-keyboard-response,11,635246,0.0-9.0-0.0,anomymised,6560c4cfd080ba12b16d8282,6564c8133d99f2c749c1e046,26091,1A,man,NA,null,NAME1 is hugging NAME2,hug_active,sentence,NA,NA,NA,NA,NA
3765.7000000476837,NA,NA,NA,NA,survey-likert-extra-labels,12,639013,0.0-9.0-1.0,anomymised,6560c4cfd080ba12b16d8282,6564c8133d99f2c749c1e046,26091,1A,man,NA,NA,Somebody says<br><em>Mike is hugging Ruth</em>,hug_active,rating_volition,"{""Q0"":1}",[0],The speaker identifies more with <br>Ruth than Mike,The speaker identifies more with<br>Mike than Ruth,right_to_left
null,Somebody says<br><em>Dave and Jane are marrying each other</em>,NA,NA,NA,html-keyboard-response,13,641015,0.0-10.0-0.0,anomymised,6560c4cfd080ba12b16d8282,6564c8133d99f2c749c1e046,26091,1A,man,NA,null,NAME1 and NAME2 are marrying each other,marry_conjoined,sentence,NA,NA,NA,NA,NA
4545.200000047684,NA,NA,NA,NA,survey-likert-extra-labels,14,645561,0.0-10.0-1.0,anomymised,6560c4cfd080ba12b16d8282,6564c8133d99f2c749c1e046,26091,1A,man,NA,NA,Somebody says<br><em>Dave and Jane are marrying each other</em>,marry_conjoined,rating_volition,"{""Q0"":3}",[0],The speaker identifies more with <br>Dave than Jane,The speaker identifies more with<br>Jane than Dave,left_to_right
null,Somebody says<br><em>Kate is feeding Luke,NA,NA,NA,html-keyboard-response,15,647569,0.0-11.0-0.0,anomymised,6560c4cfd080ba12b16d8282,6564c8133d99f2c749c1e046,26091,1A,man,NA,null,W3 is feeding M1,feed,sentence,NA,NA,NA,NA,NA
2862.7999999523163,NA,NA,NA,NA,survey-likert-extra-labels,16,650434,0.0-11.0-1.0,anomymised,6560c4cfd080ba12b16d8282,6564c8133d99f2c749c1e046,26091,1A,man,NA,NA,Somebody says<br><em>Kate is feeding Luke,feed,rating_volition,"{""Q0"":2}",[0],Kate cooked for Luke,Luke cooked for Kate,NA
null,Somebody says<br><em>Fred is hiring Ruth,NA,NA,NA,html-keyboard-response,17,652439,0.0-12.0-0.0,anomymised,6560c4cfd080ba12b16d8282,6564c8133d99f2c749c1e046,26091,1A,man,NA,null,M3 is hiring W1,hire,sentence,NA,NA,NA,NA,NA
2698.100000023842,NA,NA,NA,NA,survey-likert-extra-labels,18,655139,0.0-12.0-1.0,anomymised,6560c4cfd080ba12b16d8282,6564c8133d99f2c749c1e046,26091,1A,man,NA,NA,Somebody says<br><em>Fred is hiring Ruth,hire,rating_volition,"{""Q0"":1}",[0],Fred is employing Ruth,Ruth is employing Fred,NA
null,Somebody says<br><em>Kate is being shouted at by Jane</em>,NA,NA,NA,html-keyboard-response,19,657153,0.0-13.0-0.0,anomymised,6560c4cfd080ba12b16d8282,6564c8133d99f2c749c1e046,26091,1A,man,NA,null,NAME1 is being shouted at by NAME2,shout_passive,sentence,NA,NA,NA,NA,NA
3780.5,NA,NA,NA,NA,survey-likert-extra-labels,20,660935,0.0-13.0-1.0,anomymised,6560c4cfd080ba12b16d8282,6564c8133d99f2c749c1e046,26091,1A,man,NA,NA,Somebody says<br><em>Kate is being shouted at by Jane</em>,shout_passive,rating_volition,"{""Q0"":1}",[0],The speaker identifies more with <br>Jane than Kate,The speaker identifies more with<br>Kate than Jane,right_to_left
null,Somebody says<br><em>Mike is kissing Dave</em>,NA,NA,NA,html-keyboard-response,21,662944,0.0-14.0-0.0,anomymised,6560c4cfd080ba12b16d8282,6564c8133d99f2c749c1e046,26091,1A,man,NA,null,NAME1 is kissing NAME2,kiss_active,sentence,NA,NA,NA,NA,NA
4029.2000000476837,NA,NA,NA,NA,survey-likert-extra-labels,22,666975,0.0-14.0-1.0,anomymised,6560c4cfd080ba12b16d8282,6564c8133d99f2c749c1e046,26091,1A,man,NA,NA,Somebody says<br><em>Mike is kissing Dave</em>,kiss_active,rating_volition,"{""Q0"":2}",[0],The speaker identifies more with <br>Mike than Dave,The speaker identifies more with<br>Dave than Mike,left_to_right
null,Somebody says<br><em>Dave is dancing with Kate</em>,NA,NA,NA,html-keyboard-response,23,668976,0.0-15.0-0.0,anomymised,6560c4cfd080ba12b16d8282,6564c8133d99f2c749c1e046,26091,1A,man,NA,null,NAME1 is dancing with NAME2,dance_active,sentence,NA,NA,NA,NA,NA
1553.5,NA,NA,NA,NA,survey-likert-extra-labels,24,670531,0.0-15.0-1.0,anomymised,6560c4cfd080ba12b16d8282,6564c8133d99f2c749c1e046,26091,1A,man,NA,NA,Somebody says<br><em>Dave is dancing with Kate</em>,dance_active,rating_volition,"{""Q0"":2}",[0],The speaker identifies more with <br>Dave than Kate,The speaker identifies more with<br>Kate than Dave,left_to_right
null,Somebody says<br><em>Beth is shouting at Ruth</em>,NA,NA,NA,html-keyboard-response,25,672533,0.0-16.0-0.0,anomymised,6560c4cfd080ba12b16d8282,6564c8133d99f2c749c1e046,26091,1A,man,NA,null,NAME1 is shouting at NAME2,shout_active,sentence,NA,NA,NA,NA,NA
2076.9000000953674,NA,NA,NA,NA,survey-likert-extra-labels,26,674611,0.0-16.0-1.0,anomymised,6560c4cfd080ba12b16d8282,6564c8133d99f2c749c1e046,26091,1A,man,NA,NA,Somebody says<br><em>Beth is shouting at Ruth</em>,shout_active,rating_volition,"{""Q0"":2}",[0],The speaker identifies more with <br>Beth than Ruth,The speaker identifies more with<br>Ruth than Beth,left_to_right
null,Somebody says<br><em>Kate is playing with Fred</em>,NA,NA,NA,html-keyboard-response,27,676627,0.0-17.0-0.0,anomymised,6560c4cfd080ba12b16d8282,6564c8133d99f2c749c1e046,26091,1A,man,NA,null,NAME1 is playing with NAME2,play_active,sentence,NA,NA,NA,NA,NA
2180.8000000715256,NA,NA,NA,NA,survey-likert-extra-labels,28,678809,0.0-17.0-1.0,anomymised,6560c4cfd080ba12b16d8282,6564c8133d99f2c749c1e046,26091,1A,man,NA,NA,Somebody says<br><em>Kate is playing with Fred</em>,play_active,rating_volition,"{""Q0"":2}",[0],The speaker identifies more with <br>Kate than Fred,The speaker identifies more with<br>Fred than Kate,left_to_right
null,Somebody says<br><em>Ruth is talking to Beth</em>,NA,NA,NA,html-keyboard-response,29,680814,0.0-18.0-0.0,anomymised,6560c4cfd080ba12b16d8282,6564c8133d99f2c749c1e046,26091,1A,man,NA,null,NAME1 is talking to NAME2,talk_active,sentence,NA,NA,NA,NA,NA
6695.5,NA,NA,NA,NA,survey-likert-extra-labels,30,687511,0.0-18.0-1.0,anomymised,6560c4cfd080ba12b16d8282,6564c8133d99f2c749c1e046,26091,1A,man,NA,NA,Somebody says<br><em>Ruth is talking to Beth</em>,talk_active,rating_volition,"{""Q0"":4}",[0],The speaker identifies more with <br>Beth than Ruth,The speaker identifies more with<br>Ruth than Beth,right_to_left
null,Somebody says<br><em>Jane is teaching Dave,NA,NA,NA,html-keyboard-response,31,689523,0.0-19.0-0.0,anomymised,6560c4cfd080ba12b16d8282,6564c8133d99f2c749c1e046,26091,1A,man,NA,null,W2 is teaching M4,teach,sentence,NA,NA,NA,NA,NA
3813.100000023842,NA,NA,NA,NA,survey-likert-extra-labels,32,693337,0.0-19.0-1.0,anomymised,6560c4cfd080ba12b16d8282,6564c8133d99f2c749c1e046,26091,1A,man,NA,NA,Somebody says<br><em>Jane is teaching Dave,teach,rating_volition,"{""Q0"":2}",[0],Jane is educating Dave,Dave is educating Jane,NA
null,Somebody says<br><em>Beth is being opposed by Luke</em>,NA,NA,NA,html-keyboard-response,33,695350,0.0-20.0-0.0,anomymised,6560c4cfd080ba12b16d8282,6564c8133d99f2c749c1e046,26091,1A,man,NA,null,NAME1 is being opposed by NAME2,oppose_passive,sentence,NA,NA,NA,NA,NA
3529.100000023842,NA,NA,NA,NA,survey-likert-extra-labels,34,698881,0.0-20.0-1.0,anomymised,6560c4cfd080ba12b16d8282,6564c8133d99f2c749c1e046,26091,1A,man,NA,NA,Somebody says<br><em>Beth is being opposed by Luke</em>,oppose_passive,rating_volition,"{""Q0"":1}",[0],The speaker identifies more with <br>Beth than Luke,The speaker identifies more with<br>Luke than Beth,left_to_right
null,Somebody says<br><em>Kate is touching Beth</em>,NA,NA,NA,html-keyboard-response,35,700890,0.0-21.0-0.0,anomymised,6560c4cfd080ba12b16d8282,6564c8133d99f2c749c1e046,26091,1A,man,NA,null,NAME1 is touching NAME2,touch_active,sentence,NA,NA,NA,NA,NA
10659.899999976158,NA,NA,NA,NA,survey-likert-extra-labels,36,711551,0.0-21.0-1.0,anomymised,6560c4cfd080ba12b16d8282,6564c8133d99f2c749c1e046,26091,1A,man,NA,NA,Somebody says<br><em>Kate is touching Beth</em>,touch_active,rating_volition,"{""Q0"":2}",[0],The speaker identifies more with <br>Beth than Kate,The speaker identifies more with<br>Kate than Beth,right_to_left
null,Somebody says<br><em>Beth is flirting with Mike</em>,NA,NA,NA,html-keyboard-response,37,713554,0.0-22.0-0.0,anomymised,6560c4cfd080ba12b16d8282,6564c8133d99f2c749c1e046,26091,1A,man,NA,null,NAME1 is flirting with NAME2,flirt_active,sentence,NA,NA,NA,NA,NA
2005.8999999761581,NA,NA,NA,NA,survey-likert-extra-labels,38,715560,0.0-22.0-1.0,anomymised,6560c4cfd080ba12b16d8282,6564c8133d99f2c749c1e046,26091,1A,man,NA,NA,Somebody says<br><em>Beth is flirting with Mike</em>,flirt_active,rating_volition,"{""Q0"":1}",[0],The speaker identifies more with <br>Beth than Mike,The speaker identifies more with<br>Mike than Beth,left_to_right
null,Somebody says<br><em>Beth and Kate are shouting at each other</em>,NA,NA,NA,html-keyboard-response,39,717576,0.0-23.0-0.0,anomymised,6560c4cfd080ba12b16d8282,6564c8133d99f2c749c1e046,26091,1A,man,NA,null,NAME1 and NAME2 are shouting at each other,shout_conjoined,sentence,NA,NA,NA,NA,NA
1609.2999999523163,NA,NA,NA,NA,survey-likert-extra-labels,40,719186,0.0-23.0-1.0,anomymised,6560c4cfd080ba12b16d8282,6564c8133d99f2c749c1e046,26091,1A,man,NA,NA,Somebody says<br><em>Beth and Kate are shouting at each other</em>,shout_conjoined,rating_volition,"{""Q0"":3}",[0],The speaker identifies more with <br>Beth than Kate,The speaker identifies more with<br>Kate than Beth,left_to_right
null,Somebody says<br><em>Beth is shouting at Ruth</em>,NA,NA,NA,html-keyboard-response,41,721191,0.0-24.0-0.0,anomymised,6560c4cfd080ba12b16d8282,6564c8133d99f2c749c1e046,26091,1A,man,NA,null,NAME1 is shouting at NAME2,shout_active,sentence,NA,NA,NA,NA,NA
4203.700000047684,NA,NA,NA,NA,survey-likert-extra-labels,42,725396,0.0-24.0-1.0,anomymised,6560c4cfd080ba12b16d8282,6564c8133d99f2c749c1e046,26091,1A,man,NA,NA,Somebody says<br><em>Beth is shouting at Ruth</em>,shout_active,rating_volition,"{""Q0"":4}",[0],The speaker identifies more with <br>Ruth than Beth,The speaker identifies more with<br>Beth than Ruth,right_to_left
null,Somebody says<br><em>Jane is looking at Dave</em>,NA,NA,NA,html-keyboard-response,43,727406,0.0-25.0-0.0,anomymised,6560c4cfd080ba12b16d8282,6564c8133d99f2c749c1e046,26091,1A,man,NA,null,NAME1 is looking at NAME2,look_active,sentence,NA,NA,NA,NA,NA
2271,NA,NA,NA,NA,survey-likert-extra-labels,44,729678,0.0-25.0-1.0,anomymised,6560c4cfd080ba12b16d8282,6564c8133d99f2c749c1e046,26091,1A,man,NA,NA,Somebody says<br><em>Jane is looking at Dave</em>,look_active,rating_volition,"{""Q0"":4}",[0],The speaker identifies more with <br>Dave than Jane,The speaker identifies more with<br>Jane than Dave,right_to_left
null,Somebody says<br><em>Mike and Fred are kissing each other</em>,NA,NA,NA,html-keyboard-response,45,731680,0.0-26.0-0.0,anomymised,6560c4cfd080ba12b16d8282,6564c8133d99f2c749c1e046,26091,1A,man,NA,null,NAME1 and NAME2 are kissing each other,kiss_conjoined,sentence,NA,NA,NA,NA,NA
1642.5,NA,NA,NA,NA,survey-likert-extra-labels,46,733324,0.0-26.0-1.0,anomymised,6560c4cfd080ba12b16d8282,6564c8133d99f2c749c1e046,26091,1A,man,NA,NA,Somebody says<br><em>Mike and Fred are kissing each other</em>,kiss_conjoined,rating_volition,"{""Q0"":3}",[0],The speaker identifies more with <br>Mike than Fred,The speaker identifies more with<br>Fred than Mike,left_to_right
null,Somebody says<br><em>Jane is being challenged by Beth</em>,NA,NA,NA,html-keyboard-response,47,735334,0.0-27.0-0.0,anomymised,6560c4cfd080ba12b16d8282,6564c8133d99f2c749c1e046,26091,1A,man,NA,null,NAME1 is being challenged by NAME2,challenge_passive,sentence,NA,NA,NA,NA,NA
3644.100000023842,NA,NA,NA,NA,survey-likert-extra-labels,48,738979,0.0-27.0-1.0,anomymised,6560c4cfd080ba12b16d8282,6564c8133d99f2c749c1e046,26091,1A,man,NA,NA,Somebody says<br><em>Jane is being challenged by Beth</em>,challenge_passive,rating_volition,"{""Q0"":4}",[0],The speaker identifies more with <br>Beth than Jane,The speaker identifies more with<br>Jane than Beth,right_to_left
null,Somebody says<br><em>Mike is challenging Beth</em>,NA,NA,NA,html-keyboard-response,49,740983,0.0-28.0-0.0,anomymised,6560c4cfd080ba12b16d8282,6564c8133d99f2c749c1e046,26091,1A,man,NA,null,NAME1 is challenging NAME2,challenge_active,sentence,NA,NA,NA,NA,NA
2478.399999976158,NA,NA,NA,NA,survey-likert-extra-labels,50,743462,0.0-28.0-1.0,anomymised,6560c4cfd080ba12b16d8282,6564c8133d99f2c749c1e046,26091,1A,man,NA,NA,Somebody says<br><em>Mike is challenging Beth</em>,challenge_active,rating_volition,"{""Q0"":2}",[0],The speaker identifies more with <br>Mike than Beth,The speaker identifies more with<br>Beth than Mike,left_to_right
null,Somebody says<br><em>Luke is copying Jane</em>,NA,NA,NA,html-keyboard-response,51,745468,0.0-29.0-0.0,anomymised,6560c4cfd080ba12b16d8282,6564c8133d99f2c749c1e046,26091,1A,man,NA,null,NAME1 is copying NAME2,copy_active,sentence,NA,NA,NA,NA,NA
3309.6999999284744,NA,NA,NA,NA,survey-likert-extra-labels,52,748779,0.0-29.0-1.0,anomymised,6560c4cfd080ba12b16d8282,6564c8133d99f2c749c1e046,26091,1A,man,NA,NA,Somebody says<br><em>Luke is copying Jane</em>,copy_active,rating_volition,"{""Q0"":2}",[0],The speaker identifies more with <br>Luke than Jane,The speaker identifies more with<br>Jane than Luke,left_to_right
null,Somebody says<br><em>Fred is meeting Luke</em>,NA,NA,NA,html-keyboard-response,53,750786,0.0-30.0-0.0,anomymised,6560c4cfd080ba12b16d8282,6564c8133d99f2c749c1e046,26091,1A,man,NA,null,NAME1 is meeting NAME2,meet_active,sentence,NA,NA,NA,NA,NA
4129.5,NA,NA,NA,NA,survey-likert-extra-labels,54,754916,0.0-30.0-1.0,anomymised,6560c4cfd080ba12b16d8282,6564c8133d99f2c749c1e046,26091,1A,man,NA,NA,Somebody says<br><em>Fred is meeting Luke</em>,meet_active,rating_volition,"{""Q0"":4}",[0],The speaker identifies more with <br>Luke than Fred,The speaker identifies more with<br>Fred than Luke,right_to_left
null,Somebody says<br><em>Luke is marrying Jane</em>,NA,NA,NA,html-keyboard-response,55,756928,0.0-31.0-0.0,anomymised,6560c4cfd080ba12b16d8282,6564c8133d99f2c749c1e046,26091,1A,man,NA,null,NAME1 is marrying NAME2,marry_active,sentence,NA,NA,NA,NA,NA
5614.899999976158,NA,NA,NA,NA,survey-likert-extra-labels,56,762544,0.0-31.0-1.0,anomymised,6560c4cfd080ba12b16d8282,6564c8133d99f2c749c1e046,26091,1A,man,NA,NA,Somebody says<br><em>Luke is marrying Jane</em>,marry_active,rating_volition,"{""Q0"":2}",[0],The speaker identifies more with <br>Luke than Jane,The speaker identifies more with<br>Jane than Luke,left_to_right
null,Somebody says<br><em>Ruth is being touched by Beth</em>,NA,NA,NA,html-keyboard-response,57,764547,0.0-32.0-0.0,anomymised,6560c4cfd080ba12b16d8282,6564c8133d99f2c749c1e046,26091,1A,man,NA,null,NAME1 is being touched by NAME2,touch_passive,sentence,NA,NA,NA,NA,NA
2339.6999999284744,NA,NA,NA,NA,survey-likert-extra-labels,58,766888,0.0-32.0-1.0,anomymised,6560c4cfd080ba12b16d8282,6564c8133d99f2c749c1e046,26091,1A,man,NA,NA,Somebody says<br><em>Ruth is being touched by Beth</em>,touch_passive,rating_volition,"{""Q0"":2}",[0],The speaker identifies more with <br>Ruth than Beth,The speaker identifies more with<br>Beth than Ruth,left_to_right
null,Somebody says<br><em>Jane is being hugged by Mike</em>,NA,NA,NA,html-keyboard-response,59,768890,0.0-33.0-0.0,anomymised,6560c4cfd080ba12b16d8282,6564c8133d99f2c749c1e046,26091,1A,man,NA,null,NAME1 is being hugged by NAME2,hug_passive,sentence,NA,NA,NA,NA,NA
2244.600000023842,NA,NA,NA,NA,survey-likert-extra-labels,60,771136,0.0-33.0-1.0,anomymised,6560c4cfd080ba12b16d8282,6564c8133d99f2c749c1e046,26091,1A,man,NA,NA,Somebody says<br><em>Jane is being hugged by Mike</em>,hug_passive,rating_volition,"{""Q0"":4}",[0],The speaker identifies more with <br>Mike than Jane,The speaker identifies more with<br>Jane than Mike,right_to_left
null,Somebody says<br><em>Dave is being looked at by Kate</em>,NA,NA,NA,html-keyboard-response,61,773150,0.0-34.0-0.0,anomymised,6560c4cfd080ba12b16d8282,6564c8133d99f2c749c1e046,26091,1A,man,NA,null,NAME1 is being looked at by NAME2,look_passive,sentence,NA,NA,NA,NA,NA
87773.79999995232,NA,NA,NA,NA,survey-likert-extra-labels,62,860925,0.0-34.0-1.0,anomymised,6560c4cfd080ba12b16d8282,6564c8133d99f2c749c1e046,26091,1A,man,NA,NA,Somebody says<br><em>Dave is being looked at by Kate</em>,look_passive,rating_volition,"{""Q0"":5}",[0],The speaker identifies more with <br>Kate than Dave,The speaker identifies more with<br>Dave than Kate,right_to_left
null,Somebody says<br><em>Dave is being seduced by Mike</em>,NA,NA,NA,html-keyboard-response,63,862935,0.0-35.0-0.0,anomymised,6560c4cfd080ba12b16d8282,6564c8133d99f2c749c1e046,26091,1A,man,NA,null,NAME1 is being seduced by NAME2,seduce_passive,sentence,NA,NA,NA,NA,NA
4132.100000023842,NA,NA,NA,NA,survey-likert-extra-labels,64,867069,0.0-35.0-1.0,anomymised,6560c4cfd080ba12b16d8282,6564c8133d99f2c749c1e046,26091,1A,man,NA,NA,Somebody says<br><em>Dave is being seduced by Mike</em>,seduce_passive,rating_volition,"{""Q0"":5}",[0],The speaker identifies more with <br>Mike than Dave,The speaker identifies more with<br>Dave than Mike,right_to_left
null,Somebody says<br><em>Beth is seducing Jane</em>,NA,NA,NA,html-keyboard-response,65,869077,0.0-36.0-0.0,anomymised,6560c4cfd080ba12b16d8282,6564c8133d99f2c749c1e046,26091,1A,man,NA,null,NAME1 is seducing NAME2,seduce_active,sentence,NA,NA,NA,NA,NA
2898,NA,NA,NA,NA,survey-likert-extra-labels,66,871977,0.0-36.0-1.0,anomymised,6560c4cfd080ba12b16d8282,6564c8133d99f2c749c1e046,26091,1A,man,NA,NA,Somebody says<br><em>Beth is seducing Jane</em>,seduce_active,rating_volition,"{""Q0"":2}",[0],The speaker identifies more with <br>Beth than Jane,The speaker identifies more with<br>Jane than Beth,left_to_right
null,Somebody says<br><em>Luke is driving Fred,NA,NA,NA,html-keyboard-response,67,873982,0.0-37.0-0.0,anomymised,6560c4cfd080ba12b16d8282,6564c8133d99f2c749c1e046,26091,1A,man,NA,null,M1 is driving M3,drive,sentence,NA,NA,NA,NA,NA
18683.5,NA,NA,NA,NA,survey-likert-extra-labels,68,892667,0.0-37.0-1.0,anomymised,6560c4cfd080ba12b16d8282,6564c8133d99f2c749c1e046,26091,1A,man,NA,NA,Somebody says<br><em>Luke is driving Fred,drive,rating_volition,"{""Q0"":6}",[0],Luke is Fred's passenger,Fred is Luke's passenger,NA
null,Somebody says<br><em>Beth and Dave are touching each other</em>,NA,NA,NA,html-keyboard-response,69,894670,0.0-38.0-0.0,anomymised,6560c4cfd080ba12b16d8282,6564c8133d99f2c749c1e046,26091,1A,man,NA,null,NAME1 and NAME2 are touching each other,touch_conjoined,sentence,NA,NA,NA,NA,NA
2887.7000000476837,NA,NA,NA,NA,survey-likert-extra-labels,70,897559,0.0-38.0-1.0,anomymised,6560c4cfd080ba12b16d8282,6564c8133d99f2c749c1e046,26091,1A,man,NA,NA,Somebody says<br><em>Beth and Dave are touching each other</em>,touch_conjoined,rating_volition,"{""Q0"":3}",[0],The speaker identifies more with <br>Dave than Beth,The speaker identifies more with<br>Beth than Dave,right_to_left
null,Somebody says<br><em>Mike and Luke are meeting each other</em>,NA,NA,NA,html-keyboard-response,71,899566,0.0-39.0-0.0,anomymised,6560c4cfd080ba12b16d8282,6564c8133d99f2c749c1e046,26091,1A,man,NA,null,NAME1 and NAME2 are meeting each other,meet_conjoined,sentence,NA,NA,NA,NA,NA
2133.600000023842,NA,NA,NA,NA,survey-likert-extra-labels,72,901700,0.0-39.0-1.0,anomymised,6560c4cfd080ba12b16d8282,6564c8133d99f2c749c1e046,26091,1A,man,NA,NA,Somebody says<br><em>Mike and Luke are meeting each other</em>,meet_conjoined,rating_volition,"{""Q0"":3}",[0],The speaker identifies more with <br>Mike than Luke,The speaker identifies more with<br>Luke than Mike,left_to_right
null,Somebody says<br><em>Beth and Luke are flirting with each other</em>,NA,NA,NA,html-keyboard-response,73,903705,0.0-40.0-0.0,anomymised,6560c4cfd080ba12b16d8282,6564c8133d99f2c749c1e046,26091,1A,man,NA,null,NAME1 and NAME2 are flirting with each other,flirt_conjoined,sentence,NA,NA,NA,NA,NA
1440.0999999046326,NA,NA,NA,NA,survey-likert-extra-labels,74,905146,0.0-40.0-1.0,anomymised,6560c4cfd080ba12b16d8282,6564c8133d99f2c749c1e046,26091,1A,man,NA,NA,Somebody says<br><em>Beth and Luke are flirting with each other</em>,flirt_conjoined,rating_volition,"{""Q0"":3}",[0],The speaker identifies more with <br>Luke than Beth,The speaker identifies more with<br>Beth than Luke,right_to_left
null,Somebody says<br><em>Jane and Kate are playing with each other</em>,NA,NA,NA,html-keyboard-response,75,907147,0.0-41.0-0.0,anomymised,6560c4cfd080ba12b16d8282,6564c8133d99f2c749c1e046,26091,1A,man,NA,null,NAME1 and NAME2 are playing with each other,play_conjoined,sentence,NA,NA,NA,NA,NA
1973.7999999523163,NA,NA,NA,NA,survey-likert-extra-labels,76,909122,0.0-41.0-1.0,anomymised,6560c4cfd080ba12b16d8282,6564c8133d99f2c749c1e046,26091,1A,man,NA,NA,Somebody says<br><em>Jane and Kate are playing with each other</em>,play_conjoined,rating_volition,"{""Q0"":3}",[0],The speaker identifies more with <br>Jane than Kate,The speaker identifies more with<br>Kate than Jane,left_to_right
null,Somebody says<br><em>Mike and Dave are dancing with each other</em>,NA,NA,NA,html-keyboard-response,77,911128,0.0-42.0-0.0,anomymised,6560c4cfd080ba12b16d8282,6564c8133d99f2c749c1e046,26091,1A,man,NA,null,NAME1 and NAME2 are dancing with each other,dance_conjoined,sentence,NA,NA,NA,NA,NA
2765.2999999523163,NA,NA,NA,NA,survey-likert-extra-labels,78,913894,0.0-42.0-1.0,anomymised,6560c4cfd080ba12b16d8282,6564c8133d99f2c749c1e046,26091,1A,man,NA,NA,Somebody says<br><em>Mike and Dave are dancing with each other</em>,dance_conjoined,rating_volition,"{""Q0"":3}",[0],The speaker identifies more with <br>Mike than Dave,The speaker identifies more with<br>Dave than Mike,left_to_right
null,Somebody says<br><em>Jane is carrying Beth,NA,NA,NA,html-keyboard-response,79,915897,0.0-43.0-0.0,anomymised,6560c4cfd080ba12b16d8282,6564c8133d99f2c749c1e046,26091,1A,man,NA,null,W2 is carrying W4,carry,sentence,NA,NA,NA,NA,NA
3702.899999976158,NA,NA,NA,NA,survey-likert-extra-labels,80,919601,0.0-43.0-1.0,anomymised,6560c4cfd080ba12b16d8282,6564c8133d99f2c749c1e046,26091,1A,man,NA,NA,Somebody says<br><em>Jane is carrying Beth,carry,rating_volition,"{""Q0"":2}",[0],Jane is transporting Beth,Beth is transporting Jane,NA
null,Somebody says<br><em>Mike is posing for Dave,NA,NA,NA,html-keyboard-response,81,921614,0.0-44.0-0.0,anomymised,6560c4cfd080ba12b16d8282,6564c8133d99f2c749c1e046,26091,1A,man,NA,null,M2 is posing for M4,pose,sentence,NA,NA,NA,NA,NA
12089,NA,NA,NA,NA,survey-likert-extra-labels,82,933704,0.0-44.0-1.0,anomymised,6560c4cfd080ba12b16d8282,6564c8133d99f2c749c1e046,26091,1A,man,NA,NA,Somebody says<br><em>Mike is posing for Dave,pose,rating_volition,"{""Q0"":1}",[0],Mike is modelling for Dave,Dave is modelling for Mike,NA
null,Somebody says<br><em>Mike is reminding Beth,NA,NA,NA,html-keyboard-response,83,935706,0.0-45.0-0.0,anomymised,6560c4cfd080ba12b16d8282,6564c8133d99f2c749c1e046,26091,1A,man,NA,null,M2 is reminding W4,remind,sentence,NA,NA,NA,NA,NA
7127.600000023842,NA,NA,NA,NA,survey-likert-extra-labels,84,942834,0.0-45.0-1.0,anomymised,6560c4cfd080ba12b16d8282,6564c8133d99f2c749c1e046,26091,1A,man,NA,NA,Somebody says<br><em>Mike is reminding Beth,remind,rating_volition,"{""Q0"":1}",[0],Mike is telling Beth again,Beth is telling Mike again,NA
null,Somebody says<br><em>Luke is being greeted by Jane</em>,NA,NA,NA,html-keyboard-response,85,944838,0.0-46.0-0.0,anomymised,6560c4cfd080ba12b16d8282,6564c8133d99f2c749c1e046,26091,1A,man,NA,null,NAME1 is being greeted by NAME2,greet_passive,sentence,NA,NA,NA,NA,NA
6216.100000023842,NA,NA,NA,NA,survey-likert-extra-labels,86,951055,0.0-46.0-1.0,anomymised,6560c4cfd080ba12b16d8282,6564c8133d99f2c749c1e046,26091,1A,man,NA,NA,Somebody says<br><em>Luke is being greeted by Jane</em>,greet_passive,rating_volition,"{""Q0"":4}",[0],The speaker identifies more with <br>Jane than Luke,The speaker identifies more with<br>Luke than Jane,right_to_left
null,Somebody says<br><em>Ruth is greeting Jane</em>,NA,NA,NA,html-keyboard-response,87,953060,0.0-47.0-0.0,anomymised,6560c4cfd080ba12b16d8282,6564c8133d99f2c749c1e046,26091,1A,man,NA,null,NAME1 is greeting NAME2,greet_active,sentence,NA,NA,NA,NA,NA
5987.600000023842,NA,NA,NA,NA,survey-likert-extra-labels,88,959048,0.0-47.0-1.0,anomymised,6560c4cfd080ba12b16d8282,6564c8133d99f2c749c1e046,26091,1A,man,NA,NA,Somebody says<br><em>Ruth is greeting Jane</em>,greet_active,rating_volition,"{""Q0"":2}",[0],The speaker identifies more with <br>Ruth than Jane,The speaker identifies more with<br>Jane than Ruth,left_to_right
null,Somebody says<br><em>Mike and Ruth are arguing with each other</em>,NA,NA,NA,html-keyboard-response,89,961062,0.0-48.0-0.0,anomymised,6560c4cfd080ba12b16d8282,6564c8133d99f2c749c1e046,26091,1A,man,NA,null,NAME1 and NAME2 are arguing with each other,argue_conjoined,sentence,NA,NA,NA,NA,NA
1324.3999999761581,NA,NA,NA,NA,survey-likert-extra-labels,90,962388,0.0-48.0-1.0,anomymised,6560c4cfd080ba12b16d8282,6564c8133d99f2c749c1e046,26091,1A,man,NA,NA,Somebody says<br><em>Mike and Ruth are arguing with each other</em>,argue_conjoined,rating_volition,"{""Q0"":3}",[0],The speaker identifies more with <br>Mike than Ruth,The speaker identifies more with<br>Ruth than Mike,left_to_right
null,Somebody says<br><em>Ruth and Mike are fighting with each other</em>,NA,NA,NA,html-keyboard-response,91,964394,0.0-49.0-0.0,anomymised,6560c4cfd080ba12b16d8282,6564c8133d99f2c749c1e046,26091,1A,man,NA,null,NAME1 and NAME2 are fighting with each other,fight_conjoined,sentence,NA,NA,NA,NA,NA
1856.5,NA,NA,NA,NA,survey-likert-extra-labels,92,966252,0.0-49.0-1.0,anomymised,6560c4cfd080ba12b16d8282,6564c8133d99f2c749c1e046,26091,1A,man,NA,NA,Somebody says<br><em>Ruth and Mike are fighting with each other</em>,fight_conjoined,rating_volition,"{""Q0"":3}",[0],The speaker identifies more with <br>Ruth than Mike,The speaker identifies more with<br>Mike than Ruth,left_to_right
null,Somebody says<br><em>Jane is fighting with Dave</em>,NA,NA,NA,html-keyboard-response,93,968255,0.0-50.0-0.0,anomymised,6560c4cfd080ba12b16d8282,6564c8133d99f2c749c1e046,26091,1A,man,NA,null,NAME1 is fighting with NAME2,fight_active,sentence,NA,NA,NA,NA,NA
2177.7000000476837,NA,NA,NA,NA,survey-likert-extra-labels,94,970434,0.0-50.0-1.0,anomymised,6560c4cfd080ba12b16d8282,6564c8133d99f2c749c1e046,26091,1A,man,NA,NA,Somebody says<br><em>Jane is fighting with Dave</em>,fight_active,rating_volition,"{""Q0"":3}",[0],The speaker identifies more with <br>Dave than Jane,The speaker identifies more with<br>Jane than Dave,right_to_left
null,Somebody says<br><em>Fred is being copied by Mike</em>,NA,NA,NA,html-keyboard-response,95,972439,0.0-51.0-0.0,anomymised,6560c4cfd080ba12b16d8282,6564c8133d99f2c749c1e046,26091,1A,man,NA,null,NAME1 is being copied by NAME2,copy_passive,sentence,NA,NA,NA,NA,NA
5416,NA,NA,NA,NA,survey-likert-extra-labels,96,977856,0.0-51.0-1.0,anomymised,6560c4cfd080ba12b16d8282,6564c8133d99f2c749c1e046,26091,1A,man,NA,NA,Somebody says<br><em>Fred is being copied by Mike</em>,copy_passive,rating_volition,"{""Q0"":2}",[0],The speaker identifies more with <br>Fred than Mike,The speaker identifies more with<br>Mike than Fred,left_to_right
null,Somebody says<br><em>Ruth is arguing with Jane</em>,NA,NA,NA,html-keyboard-response,97,979862,0.0-52.0-0.0,anomymised,6560c4cfd080ba12b16d8282,6564c8133d99f2c749c1e046,26091,1A,man,NA,null,NAME1 is arguing with NAME2,argue_active,sentence,NA,NA,NA,NA,NA
2478.5,NA,NA,NA,NA,survey-likert-extra-labels,98,982342,0.0-52.0-1.0,anomymised,6560c4cfd080ba12b16d8282,6564c8133d99f2c749c1e046,26091,1A,man,NA,NA,Somebody says<br><em>Ruth is arguing with Jane</em>,argue_active,rating_volition,"{""Q0"":4}",[0],The speaker identifies more with <br>Jane than Ruth,The speaker identifies more with<br>Ruth than Jane,right_to_left
null,Somebody says<br><em>Ruth is chasing Kate,NA,NA,NA,html-keyboard-response,99,984347,0.0-53.0-0.0,anomymised,6560c4cfd080ba12b16d8282,6564c8133d99f2c749c1e046,26091,1A,man,NA,null,W1 is chasing W3,chase,sentence,NA,NA,NA,NA,NA
8967.699999928474,NA,NA,NA,NA,survey-likert-extra-labels,100,993316,0.0-53.0-1.0,anomymised,6560c4cfd080ba12b16d8282,6564c8133d99f2c749c1e046,26091,1A,man,NA,NA,Somebody says<br><em>Ruth is chasing Kate,chase,rating_volition,"{""Q0"":0}",[0],Ruth is behind Kate,Kate is behind Ruth,NA
null,Somebody says<br><em>Ruth and Fred are talking with each other</em>,NA,NA,NA,html-keyboard-response,101,995324,0.0-54.0-0.0,anomymised,6560c4cfd080ba12b16d8282,6564c8133d99f2c749c1e046,26091,1A,man,NA,null,NAME1 and NAME2 are talking with each other,talk_conjoined,sentence,NA,NA,NA,NA,NA
7329.300000071526,NA,NA,NA,NA,survey-likert-extra-labels,102,1002654,0.0-54.0-1.0,anomymised,6560c4cfd080ba12b16d8282,6564c8133d99f2c749c1e046,26091,1A,man,NA,NA,Somebody says<br><em>Ruth and Fred are talking with each other</em>,talk_conjoined,rating_volition,"{""Q0"":3}",[0],The speaker identifies more with <br>Ruth than Fred,The speaker identifies more with<br>Fred than Ruth,left_to_right
null,Somebody says<br><em>Fred and Luke are hugging each other</em>,NA,NA,NA,html-keyboard-response,103,1004655,0.0-55.0-0.0,anomymised,6560c4cfd080ba12b16d8282,6564c8133d99f2c749c1e046,26091,1A,man,NA,null,NAME1 and NAME2 are hugging each other,hug_conjoined,sentence,NA,NA,NA,NA,NA
1865.5,NA,NA,NA,NA,survey-likert-extra-labels,104,1006522,0.0-55.0-1.0,anomymised,6560c4cfd080ba12b16d8282,6564c8133d99f2c749c1e046,26091,1A,man,NA,NA,Somebody says<br><em>Fred and Luke are hugging each other</em>,hug_conjoined,rating_volition,"{""Q0"":3}",[0],The speaker identifies more with <br>Luke than Fred,The speaker identifies more with<br>Fred than Luke,right_to_left
1709,<p>Thank you for completing that task.</p><p>The final part of this session is a short questionnaire.</p><p>Press Continue.</p>,0,Continue,Continue,html-button-response,105,1008232,0.0-56.0,anomymised,6560c4cfd080ba12b16d8282,6564c8133d99f2c749c1e046,26091,1A,man,NA,NA,NA,NA,NA,NA,NA,NA,NA,NA
33413.699999928474,NA,NA,NA,NA,survey-text,106,1042656,0.0-57.0,anomymised,6560c4cfd080ba12b16d8282,6564c8133d99f2c749c1e046,26091,1A,man,NA,NA,NA,NA,demographics,"{""Q0"":""52"",""Q1"":""English"",""Q2"":""Engish"",""Q3"":""England"",""Q4"":""Britsih"",""Q5"":""White"",""Q6"":""Male""}",NA,NA,NA,NA
2818.6999999284744,<p>This is the last question - thank you for taking part! Have you lived in the UK for the last 5 years or more?</p>,0,"Yes,No",Yes,html-button-response,107,1045475,0.0-58.0,anomymised,6560c4cfd080ba12b16d8282,6564c8133d99f2c749c1e046,26091,1A,man,NA,NA,NA,NA,fiveyears,NA,NA,NA,NA,NA
