rt,stimulus,button_pressed,choices,ChosenStimulus,trial_type,trial_index,time_elapsed,internal_node_id,subject_id,study_id,session_id,subject,list,ppt_gender,url,key_press,sentence_type,verb,test_part,responses,question_order,left_part,right_part,name_order
3871,Welcome to the experiment. Press Continue to begin.,0,Continue,Continue,html-button-response,0,3874,0.0-0.0,anomymised,6560c4cfd080ba12b16d8282,6564c894444e2e520776be70,27948,1A,man,NA,NA,NA,NA,NA,NA,NA,NA,NA,NA
28591,NA,NA,NA,NA,external-html,1,33498,0.0-1.0,anomymised,6560c4cfd080ba12b16d8282,6564c894444e2e520776be70,27948,1A,man,consent.html,NA,NA,NA,NA,NA,NA,NA,NA,NA
153173,"<p>Welcome.</p><p>In this experiment we will ask you to imagine people's motivations for saying sentences.</p><p>Each trial will begin with a sentence that somebody might say to describe an event involving two different people.</p><p>For instance, someone might say <em>Harry is being recruited by Molly</em></p><p>We want you to think about which of those two people (Molly and Harry) the speaker identifies more with. For instance, why did the speaker say <em>Harry is being recruited by Molly</em> rather than <em> Molly is recruiting Harry</em>? Might that mean that the speaker is socially closer to one of the two characters?</p><p>After you have read the sentence, you will rate on a scale which of the two characters the speaker identifies more with.</p><p>You will give your answer by clicking a button on a rating scale.</p><p>Sometimes there will also be catch questions designed to make sure that you are paying attention, which ask about a different topic.</p><p>To do this task, you will have to use your imagination to think about and visualise the events, and how the speaker might relate to the characters.</p><br><p>Ready?</p>",0,Continue,Continue,html-button-response,2,186668,0.0-2.0,anomymised,6560c4cfd080ba12b16d8282,6564c894444e2e520776be70,27948,1A,man,NA,NA,NA,NA,NA,NA,NA,NA,NA,NA
5162,"<p>Before the experiment starts, we will show you an example of how you will answer the questions. Press 'Continue'.</p>",0,Continue,Continue,html-button-response,3,192833,0.0-3.0,anomymised,6560c4cfd080ba12b16d8282,6564c894444e2e520776be70,27948,1A,man,NA,NA,NA,NA,NA,NA,NA,NA,NA,NA
null,Somebody says <br><em>Samuel is dining with Frank</em>,NA,NA,NA,html-keyboard-response,4,195838,0.0-4.0,anomymised,6560c4cfd080ba12b16d8282,6564c894444e2e520776be70,27948,1A,man,NA,null,NA,NA,NA,NA,NA,NA,NA,NA
61513,<img src='img/Example-trial.jpg' style='height:550px;''></img>,0,Continue,Continue,html-button-response,5,257353,0.0-5.0,anomymised,6560c4cfd080ba12b16d8282,6564c894444e2e520776be70,27948,1A,man,NA,NA,NA,NA,NA,NA,NA,NA,NA,NA
3989.999999999971,<p>Ready to start the experiment?</p><br><p><strong>Remember to give an answer by clicking a button on the rating scale.</strong></p><p>Press 'Continue' to begin.</p>,0,Continue,Continue,html-button-response,6,262345,0.0-6.0,anomymised,6560c4cfd080ba12b16d8282,6564c894444e2e520776be70,27948,1A,man,NA,NA,NA,NA,NA,NA,NA,NA,NA,NA
null,Somebody says<br><em>Mike is reminding Beth,NA,NA,NA,html-keyboard-response,7,265349,0.0-7.0-0.0,anomymised,6560c4cfd080ba12b16d8282,6564c894444e2e520776be70,27948,1A,man,NA,null,M2 is reminding W4,remind,sentence,NA,NA,NA,NA,NA
18032,NA,NA,NA,NA,survey-likert-extra-labels,8,283386,0.0-7.0-1.0,anomymised,6560c4cfd080ba12b16d8282,6564c894444e2e520776be70,27948,1A,man,NA,NA,Somebody says<br><em>Mike is reminding Beth,remind,rating_volition,"{""Q0"":1}",[0],Mike is telling Beth again,Beth is telling Mike again,NA
null,Somebody says<br><em>Kate is greeting Ruth</em>,NA,NA,NA,html-keyboard-response,9,285388,0.0-8.0-0.0,anomymised,6560c4cfd080ba12b16d8282,6564c894444e2e520776be70,27948,1A,man,NA,null,NAME1 is greeting NAME2,greet_active,sentence,NA,NA,NA,NA,NA
16255,NA,NA,NA,NA,survey-likert-extra-labels,10,301647,0.0-8.0-1.0,anomymised,6560c4cfd080ba12b16d8282,6564c894444e2e520776be70,27948,1A,man,NA,NA,Somebody says<br><em>Kate is greeting Ruth</em>,greet_active,rating_volition,"{""Q0"":4}",[0],The speaker identifies more with <br>Ruth than Kate,The speaker identifies more with<br>Kate than Ruth,right_to_left
null,Somebody says<br><em>Kate is flirting with Ruth</em>,NA,NA,NA,html-keyboard-response,11,303649,0.0-9.0-0.0,anomymised,6560c4cfd080ba12b16d8282,6564c894444e2e520776be70,27948,1A,man,NA,null,NAME1 is flirting with NAME2,flirt_active,sentence,NA,NA,NA,NA,NA
8825,NA,NA,NA,NA,survey-likert-extra-labels,12,312477,0.0-9.0-1.0,anomymised,6560c4cfd080ba12b16d8282,6564c894444e2e520776be70,27948,1A,man,NA,NA,Somebody says<br><em>Kate is flirting with Ruth</em>,flirt_active,rating_volition,"{""Q0"":5}",[0],The speaker identifies more with <br>Ruth than Kate,The speaker identifies more with<br>Kate than Ruth,right_to_left
null,Somebody says<br><em>Luke is being shouted at by Beth</em>,NA,NA,NA,html-keyboard-response,13,314479,0.0-10.0-0.0,anomymised,6560c4cfd080ba12b16d8282,6564c894444e2e520776be70,27948,1A,man,NA,null,NAME1 is being shouted at by NAME2,shout_passive,sentence,NA,NA,NA,NA,NA
6488,NA,NA,NA,NA,survey-likert-extra-labels,14,320971,0.0-10.0-1.0,anomymised,6560c4cfd080ba12b16d8282,6564c894444e2e520776be70,27948,1A,man,NA,NA,Somebody says<br><em>Luke is being shouted at by Beth</em>,shout_passive,rating_volition,"{""Q0"":0}",[0],The speaker identifies more with <br>Luke than Beth,The speaker identifies more with<br>Beth than Luke,left_to_right
null,Somebody says<br><em>Fred is challenging Kate</em>,NA,NA,NA,html-keyboard-response,15,322974,0.0-11.0-0.0,anomymised,6560c4cfd080ba12b16d8282,6564c894444e2e520776be70,27948,1A,man,NA,null,NAME1 is challenging NAME2,challenge_active,sentence,NA,NA,NA,NA,NA
19503,NA,NA,NA,NA,survey-likert-extra-labels,16,342480,0.0-11.0-1.0,anomymised,6560c4cfd080ba12b16d8282,6564c894444e2e520776be70,27948,1A,man,NA,NA,Somebody says<br><em>Fred is challenging Kate</em>,challenge_active,rating_volition,"{""Q0"":5}",[0],The speaker identifies more with <br>Kate than Fred,The speaker identifies more with<br>Fred than Kate,right_to_left
null,Somebody says<br><em>Beth is opposing Luke</em>,NA,NA,NA,html-keyboard-response,17,344483,0.0-12.0-0.0,anomymised,6560c4cfd080ba12b16d8282,6564c894444e2e520776be70,27948,1A,man,NA,null,NAME1 is opposing NAME2,oppose_active,sentence,NA,NA,NA,NA,NA
9411,NA,NA,NA,NA,survey-likert-extra-labels,18,353898,0.0-12.0-1.0,anomymised,6560c4cfd080ba12b16d8282,6564c894444e2e520776be70,27948,1A,man,NA,NA,Somebody says<br><em>Beth is opposing Luke</em>,oppose_active,rating_volition,"{""Q0"":0}",[0],The speaker identifies more with <br>Luke than Beth,The speaker identifies more with<br>Beth than Luke,right_to_left
null,Somebody says<br><em>Mike is being looked at by Beth</em>,NA,NA,NA,html-keyboard-response,19,355901,0.0-13.0-0.0,anomymised,6560c4cfd080ba12b16d8282,6564c894444e2e520776be70,27948,1A,man,NA,null,NAME1 is being looked at by NAME2,look_passive,sentence,NA,NA,NA,NA,NA
7172,NA,NA,NA,NA,survey-likert-extra-labels,20,363076,0.0-13.0-1.0,anomymised,6560c4cfd080ba12b16d8282,6564c894444e2e520776be70,27948,1A,man,NA,NA,Somebody says<br><em>Mike is being looked at by Beth</em>,look_passive,rating_volition,"{""Q0"":6}",[0],The speaker identifies more with <br>Beth than Mike,The speaker identifies more with<br>Mike than Beth,right_to_left
null,Somebody says<br><em>Jane is shouting at Beth</em>,NA,NA,NA,html-keyboard-response,21,365079,0.0-14.0-0.0,anomymised,6560c4cfd080ba12b16d8282,6564c894444e2e520776be70,27948,1A,man,NA,null,NAME1 is shouting at NAME2,shout_active,sentence,NA,NA,NA,NA,NA
10448,NA,NA,NA,NA,survey-likert-extra-labels,22,375531,0.0-14.0-1.0,anomymised,6560c4cfd080ba12b16d8282,6564c894444e2e520776be70,27948,1A,man,NA,NA,Somebody says<br><em>Jane is shouting at Beth</em>,shout_active,rating_volition,"{""Q0"":6}",[0],The speaker identifies more with <br>Jane than Beth,The speaker identifies more with<br>Beth than Jane,left_to_right
null,Somebody says<br><em>Dave and Kate are meeting each other</em>,NA,NA,NA,html-keyboard-response,23,377534,0.0-15.0-0.0,anomymised,6560c4cfd080ba12b16d8282,6564c894444e2e520776be70,27948,1A,man,NA,null,NAME1 and NAME2 are meeting each other,meet_conjoined,sentence,NA,NA,NA,NA,NA
2926.000000000058,NA,NA,NA,NA,survey-likert-extra-labels,24,380465,0.0-15.0-1.0,anomymised,6560c4cfd080ba12b16d8282,6564c894444e2e520776be70,27948,1A,man,NA,NA,Somebody says<br><em>Dave and Kate are meeting each other</em>,meet_conjoined,rating_volition,"{""Q0"":0}",[0],The speaker identifies more with <br>Dave than Kate,The speaker identifies more with<br>Kate than Dave,left_to_right
null,Somebody says<br><em>Luke and Ruth are playing with each other</em>,NA,NA,NA,html-keyboard-response,25,382468,0.0-16.0-0.0,anomymised,6560c4cfd080ba12b16d8282,6564c894444e2e520776be70,27948,1A,man,NA,null,NAME1 and NAME2 are playing with each other,play_conjoined,sentence,NA,NA,NA,NA,NA
6875.999999999942,NA,NA,NA,NA,survey-likert-extra-labels,26,389347,0.0-16.0-1.0,anomymised,6560c4cfd080ba12b16d8282,6564c894444e2e520776be70,27948,1A,man,NA,NA,Somebody says<br><em>Luke and Ruth are playing with each other</em>,play_conjoined,rating_volition,"{""Q0"":6}",[0],The speaker identifies more with <br>Ruth than Luke,The speaker identifies more with<br>Luke than Ruth,right_to_left
null,Somebody says<br><em>Ruth is meeting Beth</em>,NA,NA,NA,html-keyboard-response,27,391351,0.0-17.0-0.0,anomymised,6560c4cfd080ba12b16d8282,6564c894444e2e520776be70,27948,1A,man,NA,null,NAME1 is meeting NAME2,meet_active,sentence,NA,NA,NA,NA,NA
4461.000000000058,NA,NA,NA,NA,survey-likert-extra-labels,28,395815,0.0-17.0-1.0,anomymised,6560c4cfd080ba12b16d8282,6564c894444e2e520776be70,27948,1A,man,NA,NA,Somebody says<br><em>Ruth is meeting Beth</em>,meet_active,rating_volition,"{""Q0"":0}",[0],The speaker identifies more with <br>Ruth than Beth,The speaker identifies more with<br>Beth than Ruth,left_to_right
null,Somebody says<br><em>Jane is carrying Beth,NA,NA,NA,html-keyboard-response,29,397818,0.0-18.0-0.0,anomymised,6560c4cfd080ba12b16d8282,6564c894444e2e520776be70,27948,1A,man,NA,null,W2 is carrying W4,carry,sentence,NA,NA,NA,NA,NA
3460.999999999942,NA,NA,NA,NA,survey-likert-extra-labels,30,401283,0.0-18.0-1.0,anomymised,6560c4cfd080ba12b16d8282,6564c894444e2e520776be70,27948,1A,man,NA,NA,Somebody says<br><em>Jane is carrying Beth,carry,rating_volition,"{""Q0"":0}",[0],Jane is transporting Beth,Beth is transporting Jane,NA
null,Somebody says<br><em>Jane and Beth are fighting with each other</em>,NA,NA,NA,html-keyboard-response,31,403286,0.0-19.0-0.0,anomymised,6560c4cfd080ba12b16d8282,6564c894444e2e520776be70,27948,1A,man,NA,null,NAME1 and NAME2 are fighting with each other,fight_conjoined,sentence,NA,NA,NA,NA,NA
4827,NA,NA,NA,NA,survey-likert-extra-labels,32,408116,0.0-19.0-1.0,anomymised,6560c4cfd080ba12b16d8282,6564c894444e2e520776be70,27948,1A,man,NA,NA,Somebody says<br><em>Jane and Beth are fighting with each other</em>,fight_conjoined,rating_volition,"{""Q0"":0}",[0],The speaker identifies more with <br>Jane than Beth,The speaker identifies more with<br>Beth than Jane,left_to_right
null,Somebody says<br><em>Kate and Luke are kissing each other</em>,NA,NA,NA,html-keyboard-response,33,410119,0.0-20.0-0.0,anomymised,6560c4cfd080ba12b16d8282,6564c894444e2e520776be70,27948,1A,man,NA,null,NAME1 and NAME2 are kissing each other,kiss_conjoined,sentence,NA,NA,NA,NA,NA
2678,NA,NA,NA,NA,survey-likert-extra-labels,34,412800,0.0-20.0-1.0,anomymised,6560c4cfd080ba12b16d8282,6564c894444e2e520776be70,27948,1A,man,NA,NA,Somebody says<br><em>Kate and Luke are kissing each other</em>,kiss_conjoined,rating_volition,"{""Q0"":6}",[0],The speaker identifies more with <br>Luke than Kate,The speaker identifies more with<br>Kate than Luke,right_to_left
null,Somebody says<br><em>Kate is feeding Luke,NA,NA,NA,html-keyboard-response,35,414803,0.0-21.0-0.0,anomymised,6560c4cfd080ba12b16d8282,6564c894444e2e520776be70,27948,1A,man,NA,null,W3 is feeding M1,feed,sentence,NA,NA,NA,NA,NA
2910,NA,NA,NA,NA,survey-likert-extra-labels,36,417716,0.0-21.0-1.0,anomymised,6560c4cfd080ba12b16d8282,6564c894444e2e520776be70,27948,1A,man,NA,NA,Somebody says<br><em>Kate is feeding Luke,feed,rating_volition,"{""Q0"":0}",[0],Kate cooked for Luke,Luke cooked for Kate,NA
null,Somebody says<br><em>Jane and Luke are talking with each other</em>,NA,NA,NA,html-keyboard-response,37,419720,0.0-22.0-0.0,anomymised,6560c4cfd080ba12b16d8282,6564c894444e2e520776be70,27948,1A,man,NA,null,NAME1 and NAME2 are talking with each other,talk_conjoined,sentence,NA,NA,NA,NA,NA
6193,NA,NA,NA,NA,survey-likert-extra-labels,38,425916,0.0-22.0-1.0,anomymised,6560c4cfd080ba12b16d8282,6564c894444e2e520776be70,27948,1A,man,NA,NA,Somebody says<br><em>Jane and Luke are talking with each other</em>,talk_conjoined,rating_volition,"{""Q0"":0}",[0],The speaker identifies more with <br>Jane than Luke,The speaker identifies more with<br>Luke than Jane,left_to_right
null,Somebody says<br><em>Mike is talking to Jane</em>,NA,NA,NA,html-keyboard-response,39,427919,0.0-23.0-0.0,anomymised,6560c4cfd080ba12b16d8282,6564c894444e2e520776be70,27948,1A,man,NA,null,NAME1 is talking to NAME2,talk_active,sentence,NA,NA,NA,NA,NA
4578,NA,NA,NA,NA,survey-likert-extra-labels,40,432500,0.0-23.0-1.0,anomymised,6560c4cfd080ba12b16d8282,6564c894444e2e520776be70,27948,1A,man,NA,NA,Somebody says<br><em>Mike is talking to Jane</em>,talk_active,rating_volition,"{""Q0"":0}",[0],The speaker identifies more with <br>Mike than Jane,The speaker identifies more with<br>Jane than Mike,left_to_right
null,Somebody says<br><em>Beth is arguing with Dave</em>,NA,NA,NA,html-keyboard-response,41,434504,0.0-24.0-0.0,anomymised,6560c4cfd080ba12b16d8282,6564c894444e2e520776be70,27948,1A,man,NA,null,NAME1 is arguing with NAME2,argue_active,sentence,NA,NA,NA,NA,NA
9793,NA,NA,NA,NA,survey-likert-extra-labels,42,444300,0.0-24.0-1.0,anomymised,6560c4cfd080ba12b16d8282,6564c894444e2e520776be70,27948,1A,man,NA,NA,Somebody says<br><em>Beth is arguing with Dave</em>,argue_active,rating_volition,"{""Q0"":0}",[0],The speaker identifies more with <br>Dave than Beth,The speaker identifies more with<br>Beth than Dave,right_to_left
null,Somebody says<br><em>Mike is being greeted by Jane</em>,NA,NA,NA,html-keyboard-response,43,446304,0.0-25.0-0.0,anomymised,6560c4cfd080ba12b16d8282,6564c894444e2e520776be70,27948,1A,man,NA,null,NAME1 is being greeted by NAME2,greet_passive,sentence,NA,NA,NA,NA,NA
2761,NA,NA,NA,NA,survey-likert-extra-labels,44,449068,0.0-25.0-1.0,anomymised,6560c4cfd080ba12b16d8282,6564c894444e2e520776be70,27948,1A,man,NA,NA,Somebody says<br><em>Mike is being greeted by Jane</em>,greet_passive,rating_volition,"{""Q0"":0}",[0],The speaker identifies more with <br>Mike than Jane,The speaker identifies more with<br>Jane than Mike,left_to_right
null,Somebody says<br><em>Beth is hugging Jane</em>,NA,NA,NA,html-keyboard-response,45,451071,0.0-26.0-0.0,anomymised,6560c4cfd080ba12b16d8282,6564c894444e2e520776be70,27948,1A,man,NA,null,NAME1 is hugging NAME2,hug_active,sentence,NA,NA,NA,NA,NA
5910,NA,NA,NA,NA,survey-likert-extra-labels,46,456983,0.0-26.0-1.0,anomymised,6560c4cfd080ba12b16d8282,6564c894444e2e520776be70,27948,1A,man,NA,NA,Somebody says<br><em>Beth is hugging Jane</em>,hug_active,rating_volition,"{""Q0"":6}",[0],The speaker identifies more with <br>Jane than Beth,The speaker identifies more with<br>Beth than Jane,right_to_left
null,Somebody says<br><em>Kate is fighting with Jane</em>,NA,NA,NA,html-keyboard-response,47,458987,0.0-27.0-0.0,anomymised,6560c4cfd080ba12b16d8282,6564c894444e2e520776be70,27948,1A,man,NA,null,NAME1 is fighting with NAME2,fight_active,sentence,NA,NA,NA,NA,NA
7611,NA,NA,NA,NA,survey-likert-extra-labels,48,466600,0.0-27.0-1.0,anomymised,6560c4cfd080ba12b16d8282,6564c894444e2e520776be70,27948,1A,man,NA,NA,Somebody says<br><em>Kate is fighting with Jane</em>,fight_active,rating_volition,"{""Q0"":0}",[0],The speaker identifies more with <br>Jane than Kate,The speaker identifies more with<br>Kate than Jane,right_to_left
null,Somebody says<br><em>Fred is hiring Ruth,NA,NA,NA,html-keyboard-response,49,468604,0.0-28.0-0.0,anomymised,6560c4cfd080ba12b16d8282,6564c894444e2e520776be70,27948,1A,man,NA,null,M3 is hiring W1,hire,sentence,NA,NA,NA,NA,NA
15013,NA,NA,NA,NA,survey-likert-extra-labels,50,483620,0.0-28.0-1.0,anomymised,6560c4cfd080ba12b16d8282,6564c894444e2e520776be70,27948,1A,man,NA,NA,Somebody says<br><em>Fred is hiring Ruth,hire,rating_volition,"{""Q0"":0}",[0],Fred is employing Ruth,Ruth is employing Fred,NA
null,Somebody says<br><em>Kate is kissing Dave</em>,NA,NA,NA,html-keyboard-response,51,485623,0.0-29.0-0.0,anomymised,6560c4cfd080ba12b16d8282,6564c894444e2e520776be70,27948,1A,man,NA,null,NAME1 is kissing NAME2,kiss_active,sentence,NA,NA,NA,NA,NA
3744,NA,NA,NA,NA,survey-likert-extra-labels,52,489369,0.0-29.0-1.0,anomymised,6560c4cfd080ba12b16d8282,6564c894444e2e520776be70,27948,1A,man,NA,NA,Somebody says<br><em>Kate is kissing Dave</em>,kiss_active,rating_volition,"{""Q0"":6}",[0],The speaker identifies more with <br>Dave than Kate,The speaker identifies more with<br>Kate than Dave,right_to_left
null,Somebody says<br><em>Dave is playing with Jane</em>,NA,NA,NA,html-keyboard-response,53,491372,0.0-30.0-0.0,anomymised,6560c4cfd080ba12b16d8282,6564c894444e2e520776be70,27948,1A,man,NA,null,NAME1 is playing with NAME2,play_active,sentence,NA,NA,NA,NA,NA
5343,NA,NA,NA,NA,survey-likert-extra-labels,54,496718,0.0-30.0-1.0,anomymised,6560c4cfd080ba12b16d8282,6564c894444e2e520776be70,27948,1A,man,NA,NA,Somebody says<br><em>Dave is playing with Jane</em>,play_active,rating_volition,"{""Q0"":0}",[0],The speaker identifies more with <br>Dave than Jane,The speaker identifies more with<br>Jane than Dave,left_to_right
null,Somebody says<br><em>Beth is marrying Ruth</em>,NA,NA,NA,html-keyboard-response,55,498721,0.0-31.0-0.0,anomymised,6560c4cfd080ba12b16d8282,6564c894444e2e520776be70,27948,1A,man,NA,null,NAME1 is marrying NAME2,marry_active,sentence,NA,NA,NA,NA,NA
8828,NA,NA,NA,NA,survey-likert-extra-labels,56,507552,0.0-31.0-1.0,anomymised,6560c4cfd080ba12b16d8282,6564c894444e2e520776be70,27948,1A,man,NA,NA,Somebody says<br><em>Beth is marrying Ruth</em>,marry_active,rating_volition,"{""Q0"":6}",[0],The speaker identifies more with <br>Ruth than Beth,The speaker identifies more with<br>Beth than Ruth,right_to_left
null,Somebody says<br><em>Jane is shouting at Kate</em>,NA,NA,NA,html-keyboard-response,57,509555,0.0-32.0-0.0,anomymised,6560c4cfd080ba12b16d8282,6564c894444e2e520776be70,27948,1A,man,NA,null,NAME1 is shouting at NAME2,shout_active,sentence,NA,NA,NA,NA,NA
80169,NA,NA,NA,NA,survey-likert-extra-labels,58,589724,0.0-32.0-1.0,anomymised,6560c4cfd080ba12b16d8282,6564c894444e2e520776be70,27948,1A,man,NA,NA,Somebody says<br><em>Jane is shouting at Kate</em>,shout_active,rating_volition,"{""Q0"":6}",[0],The speaker identifies more with <br>Jane than Kate,The speaker identifies more with<br>Kate than Jane,left_to_right
null,Somebody says<br><em>Mike is being seduced by Luke</em>,NA,NA,NA,html-keyboard-response,59,591727,0.0-33.0-0.0,anomymised,6560c4cfd080ba12b16d8282,6564c894444e2e520776be70,27948,1A,man,NA,null,NAME1 is being seduced by NAME2,seduce_passive,sentence,NA,NA,NA,NA,NA
8227,NA,NA,NA,NA,survey-likert-extra-labels,60,599957,0.0-33.0-1.0,anomymised,6560c4cfd080ba12b16d8282,6564c894444e2e520776be70,27948,1A,man,NA,NA,Somebody says<br><em>Mike is being seduced by Luke</em>,seduce_passive,rating_volition,"{""Q0"":6}",[0],The speaker identifies more with <br>Luke than Mike,The speaker identifies more with<br>Mike than Luke,right_to_left
null,Somebody says<br><em>Mike is being challenged by Kate</em>,NA,NA,NA,html-keyboard-response,61,601960,0.0-34.0-0.0,anomymised,6560c4cfd080ba12b16d8282,6564c894444e2e520776be70,27948,1A,man,NA,null,NAME1 is being challenged by NAME2,challenge_passive,sentence,NA,NA,NA,NA,NA
3075.9999999998836,NA,NA,NA,NA,survey-likert-extra-labels,62,605039,0.0-34.0-1.0,anomymised,6560c4cfd080ba12b16d8282,6564c894444e2e520776be70,27948,1A,man,NA,NA,Somebody says<br><em>Mike is being challenged by Kate</em>,challenge_passive,rating_volition,"{""Q0"":6}",[0],The speaker identifies more with <br>Mike than Kate,The speaker identifies more with<br>Kate than Mike,left_to_right
null,Somebody says<br><em>Jane and Mike are touching each other</em>,NA,NA,NA,html-keyboard-response,63,607042,0.0-35.0-0.0,anomymised,6560c4cfd080ba12b16d8282,6564c894444e2e520776be70,27948,1A,man,NA,null,NAME1 and NAME2 are touching each other,touch_conjoined,sentence,NA,NA,NA,NA,NA
5703,NA,NA,NA,NA,survey-likert-extra-labels,64,612748,0.0-35.0-1.0,anomymised,6560c4cfd080ba12b16d8282,6564c894444e2e520776be70,27948,1A,man,NA,NA,Somebody says<br><em>Jane and Mike are touching each other</em>,touch_conjoined,rating_volition,"{""Q0"":6}",[0],The speaker identifies more with <br>Mike than Jane,The speaker identifies more with<br>Jane than Mike,right_to_left
null,Somebody says<br><em>Kate is looking at Fred</em>,NA,NA,NA,html-keyboard-response,65,614750,0.0-36.0-0.0,anomymised,6560c4cfd080ba12b16d8282,6564c894444e2e520776be70,27948,1A,man,NA,null,NAME1 is looking at NAME2,look_active,sentence,NA,NA,NA,NA,NA
6695,NA,NA,NA,NA,survey-likert-extra-labels,66,621449,0.0-36.0-1.0,anomymised,6560c4cfd080ba12b16d8282,6564c894444e2e520776be70,27948,1A,man,NA,NA,Somebody says<br><em>Kate is looking at Fred</em>,look_active,rating_volition,"{""Q0"":0}",[0],The speaker identifies more with <br>Fred than Kate,The speaker identifies more with<br>Kate than Fred,right_to_left
null,Somebody says<br><em>Ruth is being touched by Kate</em>,NA,NA,NA,html-keyboard-response,67,623452,0.0-37.0-0.0,anomymised,6560c4cfd080ba12b16d8282,6564c894444e2e520776be70,27948,1A,man,NA,null,NAME1 is being touched by NAME2,touch_passive,sentence,NA,NA,NA,NA,NA
7527,NA,NA,NA,NA,survey-likert-extra-labels,68,630982,0.0-37.0-1.0,anomymised,6560c4cfd080ba12b16d8282,6564c894444e2e520776be70,27948,1A,man,NA,NA,Somebody says<br><em>Ruth is being touched by Kate</em>,touch_passive,rating_volition,"{""Q0"":0}",[0],The speaker identifies more with <br>Ruth than Kate,The speaker identifies more with<br>Kate than Ruth,left_to_right
null,Somebody says<br><em>Fred is touching Dave</em>,NA,NA,NA,html-keyboard-response,69,632984,0.0-38.0-0.0,anomymised,6560c4cfd080ba12b16d8282,6564c894444e2e520776be70,27948,1A,man,NA,null,NAME1 is touching NAME2,touch_active,sentence,NA,NA,NA,NA,NA
7530,NA,NA,NA,NA,survey-likert-extra-labels,70,640517,0.0-38.0-1.0,anomymised,6560c4cfd080ba12b16d8282,6564c894444e2e520776be70,27948,1A,man,NA,NA,Somebody says<br><em>Fred is touching Dave</em>,touch_active,rating_volition,"{""Q0"":0}",[0],The speaker identifies more with <br>Fred than Dave,The speaker identifies more with<br>Dave than Fred,left_to_right
null,Somebody says<br><em>Mike is being opposed by Kate</em>,NA,NA,NA,html-keyboard-response,71,642520,0.0-39.0-0.0,anomymised,6560c4cfd080ba12b16d8282,6564c894444e2e520776be70,27948,1A,man,NA,null,NAME1 is being opposed by NAME2,oppose_passive,sentence,NA,NA,NA,NA,NA
5327,NA,NA,NA,NA,survey-likert-extra-labels,72,647850,0.0-39.0-1.0,anomymised,6560c4cfd080ba12b16d8282,6564c894444e2e520776be70,27948,1A,man,NA,NA,Somebody says<br><em>Mike is being opposed by Kate</em>,oppose_passive,rating_volition,"{""Q0"":0}",[0],The speaker identifies more with <br>Kate than Mike,The speaker identifies more with<br>Mike than Kate,right_to_left
null,Somebody says<br><em>Luke and Ruth are arguing with each other</em>,NA,NA,NA,html-keyboard-response,73,649853,0.0-40.0-0.0,anomymised,6560c4cfd080ba12b16d8282,6564c894444e2e520776be70,27948,1A,man,NA,null,NAME1 and NAME2 are arguing with each other,argue_conjoined,sentence,NA,NA,NA,NA,NA
3894,NA,NA,NA,NA,survey-likert-extra-labels,74,653750,0.0-40.0-1.0,anomymised,6560c4cfd080ba12b16d8282,6564c894444e2e520776be70,27948,1A,man,NA,NA,Somebody says<br><em>Luke and Ruth are arguing with each other</em>,argue_conjoined,rating_volition,"{""Q0"":0}",[0],The speaker identifies more with <br>Ruth than Luke,The speaker identifies more with<br>Luke than Ruth,right_to_left
null,Somebody says<br><em>Ruth and Jane are flirting with each other</em>,NA,NA,NA,html-keyboard-response,75,655754,0.0-41.0-0.0,anomymised,6560c4cfd080ba12b16d8282,6564c894444e2e520776be70,27948,1A,man,NA,null,NAME1 and NAME2 are flirting with each other,flirt_conjoined,sentence,NA,NA,NA,NA,NA
3127.0000000001164,NA,NA,NA,NA,survey-likert-extra-labels,76,658884,0.0-41.0-1.0,anomymised,6560c4cfd080ba12b16d8282,6564c894444e2e520776be70,27948,1A,man,NA,NA,Somebody says<br><em>Ruth and Jane are flirting with each other</em>,flirt_conjoined,rating_volition,"{""Q0"":6}",[0],The speaker identifies more with <br>Jane than Ruth,The speaker identifies more with<br>Ruth than Jane,right_to_left
null,Somebody says<br><em>Fred is being kissed by Beth</em>,NA,NA,NA,html-keyboard-response,77,660888,0.0-42.0-0.0,anomymised,6560c4cfd080ba12b16d8282,6564c894444e2e520776be70,27948,1A,man,NA,null,NAME1 is being kissed by NAME2,kiss_passive,sentence,NA,NA,NA,NA,NA
4061,NA,NA,NA,NA,survey-likert-extra-labels,78,664951,0.0-42.0-1.0,anomymised,6560c4cfd080ba12b16d8282,6564c894444e2e520776be70,27948,1A,man,NA,NA,Somebody says<br><em>Fred is being kissed by Beth</em>,kiss_passive,rating_volition,"{""Q0"":0}",[0],The speaker identifies more with <br>Fred than Beth,The speaker identifies more with<br>Beth than Fred,left_to_right
null,Somebody says<br><em>Luke and Fred are hugging each other</em>,NA,NA,NA,html-keyboard-response,79,666954,0.0-43.0-0.0,anomymised,6560c4cfd080ba12b16d8282,6564c894444e2e520776be70,27948,1A,man,NA,null,NAME1 and NAME2 are hugging each other,hug_conjoined,sentence,NA,NA,NA,NA,NA
4377,NA,NA,NA,NA,survey-likert-extra-labels,80,671334,0.0-43.0-1.0,anomymised,6560c4cfd080ba12b16d8282,6564c894444e2e520776be70,27948,1A,man,NA,NA,Somebody says<br><em>Luke and Fred are hugging each other</em>,hug_conjoined,rating_volition,"{""Q0"":6}",[0],The speaker identifies more with <br>Fred than Luke,The speaker identifies more with<br>Luke than Fred,right_to_left
null,Somebody says<br><em>Mike is dancing with Dave</em>,NA,NA,NA,html-keyboard-response,81,673337,0.0-44.0-0.0,anomymised,6560c4cfd080ba12b16d8282,6564c894444e2e520776be70,27948,1A,man,NA,null,NAME1 is dancing with NAME2,dance_active,sentence,NA,NA,NA,NA,NA
5130,NA,NA,NA,NA,survey-likert-extra-labels,82,678470,0.0-44.0-1.0,anomymised,6560c4cfd080ba12b16d8282,6564c894444e2e520776be70,27948,1A,man,NA,NA,Somebody says<br><em>Mike is dancing with Dave</em>,dance_active,rating_volition,"{""Q0"":0}",[0],The speaker identifies more with <br>Mike than Dave,The speaker identifies more with<br>Dave than Mike,left_to_right
null,Somebody says<br><em>Ruth is chasing Kate,NA,NA,NA,html-keyboard-response,83,680473,0.0-45.0-0.0,anomymised,6560c4cfd080ba12b16d8282,6564c894444e2e520776be70,27948,1A,man,NA,null,W1 is chasing W3,chase,sentence,NA,NA,NA,NA,NA
11042,NA,NA,NA,NA,survey-likert-extra-labels,84,691518,0.0-45.0-1.0,anomymised,6560c4cfd080ba12b16d8282,6564c894444e2e520776be70,27948,1A,man,NA,NA,Somebody says<br><em>Ruth is chasing Kate,chase,rating_volition,"{""Q0"":0}",[0],Ruth is behind Kate,Kate is behind Ruth,NA
null,Somebody says<br><em>Jane and Dave are marrying each other</em>,NA,NA,NA,html-keyboard-response,85,693520,0.0-46.0-0.0,anomymised,6560c4cfd080ba12b16d8282,6564c894444e2e520776be70,27948,1A,man,NA,null,NAME1 and NAME2 are marrying each other,marry_conjoined,sentence,NA,NA,NA,NA,NA
8230.000000000116,NA,NA,NA,NA,survey-likert-extra-labels,86,701752,0.0-46.0-1.0,anomymised,6560c4cfd080ba12b16d8282,6564c894444e2e520776be70,27948,1A,man,NA,NA,Somebody says<br><em>Jane and Dave are marrying each other</em>,marry_conjoined,rating_volition,"{""Q0"":0}",[0],The speaker identifies more with <br>Jane than Dave,The speaker identifies more with<br>Dave than Jane,left_to_right
null,Somebody says<br><em>Mike is posing for Dave,NA,NA,NA,html-keyboard-response,87,703755,0.0-47.0-0.0,anomymised,6560c4cfd080ba12b16d8282,6564c894444e2e520776be70,27948,1A,man,NA,null,M2 is posing for M4,pose,sentence,NA,NA,NA,NA,NA
7961,NA,NA,NA,NA,survey-likert-extra-labels,88,711719,0.0-47.0-1.0,anomymised,6560c4cfd080ba12b16d8282,6564c894444e2e520776be70,27948,1A,man,NA,NA,Somebody says<br><em>Mike is posing for Dave,pose,rating_volition,"{""Q0"":0}",[0],Mike is modelling for Dave,Dave is modelling for Mike,NA
null,Somebody says<br><em>Fred and Jane are dancing with each other</em>,NA,NA,NA,html-keyboard-response,89,713722,0.0-48.0-0.0,anomymised,6560c4cfd080ba12b16d8282,6564c894444e2e520776be70,27948,1A,man,NA,null,NAME1 and NAME2 are dancing with each other,dance_conjoined,sentence,NA,NA,NA,NA,NA
7794,NA,NA,NA,NA,survey-likert-extra-labels,90,721519,0.0-48.0-1.0,anomymised,6560c4cfd080ba12b16d8282,6564c894444e2e520776be70,27948,1A,man,NA,NA,Somebody says<br><em>Fred and Jane are dancing with each other</em>,dance_conjoined,rating_volition,"{""Q0"":0}",[0],The speaker identifies more with <br>Fred than Jane,The speaker identifies more with<br>Jane than Fred,left_to_right
null,Somebody says<br><em>Luke is being hugged by Dave</em>,NA,NA,NA,html-keyboard-response,91,723523,0.0-49.0-0.0,anomymised,6560c4cfd080ba12b16d8282,6564c894444e2e520776be70,27948,1A,man,NA,null,NAME1 is being hugged by NAME2,hug_passive,sentence,NA,NA,NA,NA,NA
8860.999999999884,NA,NA,NA,NA,survey-likert-extra-labels,92,732387,0.0-49.0-1.0,anomymised,6560c4cfd080ba12b16d8282,6564c894444e2e520776be70,27948,1A,man,NA,NA,Somebody says<br><em>Luke is being hugged by Dave</em>,hug_passive,rating_volition,"{""Q0"":6}",[0],The speaker identifies more with <br>Dave than Luke,The speaker identifies more with<br>Luke than Dave,right_to_left
null,Somebody says<br><em>Fred is copying Jane</em>,NA,NA,NA,html-keyboard-response,93,734390,0.0-50.0-0.0,anomymised,6560c4cfd080ba12b16d8282,6564c894444e2e520776be70,27948,1A,man,NA,null,NAME1 is copying NAME2,copy_active,sentence,NA,NA,NA,NA,NA
5245,NA,NA,NA,NA,survey-likert-extra-labels,94,739637,0.0-50.0-1.0,anomymised,6560c4cfd080ba12b16d8282,6564c894444e2e520776be70,27948,1A,man,NA,NA,Somebody says<br><em>Fred is copying Jane</em>,copy_active,rating_volition,"{""Q0"":6}",[0],The speaker identifies more with <br>Fred than Jane,The speaker identifies more with<br>Jane than Fred,left_to_right
null,Somebody says<br><em>Jane is teaching Dave,NA,NA,NA,html-keyboard-response,95,741640,0.0-51.0-0.0,anomymised,6560c4cfd080ba12b16d8282,6564c894444e2e520776be70,27948,1A,man,NA,null,W2 is teaching M4,teach,sentence,NA,NA,NA,NA,NA
4310.000000000116,NA,NA,NA,NA,survey-likert-extra-labels,96,745953,0.0-51.0-1.0,anomymised,6560c4cfd080ba12b16d8282,6564c894444e2e520776be70,27948,1A,man,NA,NA,Somebody says<br><em>Jane is teaching Dave,teach,rating_volition,"{""Q0"":0}",[0],Jane is educating Dave,Dave is educating Jane,NA
null,Somebody says<br><em>Luke is seducing Fred</em>,NA,NA,NA,html-keyboard-response,97,747956,0.0-52.0-0.0,anomymised,6560c4cfd080ba12b16d8282,6564c894444e2e520776be70,27948,1A,man,NA,null,NAME1 is seducing NAME2,seduce_active,sentence,NA,NA,NA,NA,NA
10142,NA,NA,NA,NA,survey-likert-extra-labels,98,758101,0.0-52.0-1.0,anomymised,6560c4cfd080ba12b16d8282,6564c894444e2e520776be70,27948,1A,man,NA,NA,Somebody says<br><em>Luke is seducing Fred</em>,seduce_active,rating_volition,"{""Q0"":0}",[0],The speaker identifies more with <br>Fred than Luke,The speaker identifies more with<br>Luke than Fred,right_to_left
null,Somebody says<br><em>Luke is driving Fred,NA,NA,NA,html-keyboard-response,99,760105,0.0-53.0-0.0,anomymised,6560c4cfd080ba12b16d8282,6564c894444e2e520776be70,27948,1A,man,NA,null,M1 is driving M3,drive,sentence,NA,NA,NA,NA,NA
8564,NA,NA,NA,NA,survey-likert-extra-labels,100,768671,0.0-53.0-1.0,anomymised,6560c4cfd080ba12b16d8282,6564c894444e2e520776be70,27948,1A,man,NA,NA,Somebody says<br><em>Luke is driving Fred,drive,rating_volition,"{""Q0"":6}",[0],Luke is Fred's passenger,Fred is Luke's passenger,NA
null,Somebody says<br><em>Jane is being copied by Dave</em>,NA,NA,NA,html-keyboard-response,101,770675,0.0-54.0-0.0,anomymised,6560c4cfd080ba12b16d8282,6564c894444e2e520776be70,27948,1A,man,NA,null,NAME1 is being copied by NAME2,copy_passive,sentence,NA,NA,NA,NA,NA
7894,NA,NA,NA,NA,survey-likert-extra-labels,102,778571,0.0-54.0-1.0,anomymised,6560c4cfd080ba12b16d8282,6564c894444e2e520776be70,27948,1A,man,NA,NA,Somebody says<br><em>Jane is being copied by Dave</em>,copy_passive,rating_volition,"{""Q0"":6}",[0],The speaker identifies more with <br>Dave than Jane,The speaker identifies more with<br>Jane than Dave,right_to_left
null,Somebody says<br><em>Fred and Mike are shouting at each other</em>,NA,NA,NA,html-keyboard-response,103,780575,0.0-55.0-0.0,anomymised,6560c4cfd080ba12b16d8282,6564c894444e2e520776be70,27948,1A,man,NA,null,NAME1 and NAME2 are shouting at each other,shout_conjoined,sentence,NA,NA,NA,NA,NA
7044,NA,NA,NA,NA,survey-likert-extra-labels,104,787622,0.0-55.0-1.0,anomymised,6560c4cfd080ba12b16d8282,6564c894444e2e520776be70,27948,1A,man,NA,NA,Somebody says<br><em>Fred and Mike are shouting at each other</em>,shout_conjoined,rating_volition,"{""Q0"":6}",[0],The speaker identifies more with <br>Fred than Mike,The speaker identifies more with<br>Mike than Fred,left_to_right
2825.9999999998836,<p>Thank you for completing that task.</p><p>The final part of this session is a short questionnaire.</p><p>Press Continue.</p>,0,Continue,Continue,html-button-response,105,790450,0.0-56.0,anomymised,6560c4cfd080ba12b16d8282,6564c894444e2e520776be70,27948,1A,man,NA,NA,NA,NA,NA,NA,NA,NA,NA,NA
54049,NA,NA,NA,NA,survey-text,106,845509,0.0-57.0,anomymised,6560c4cfd080ba12b16d8282,6564c894444e2e520776be70,27948,1A,man,NA,NA,NA,NA,demographics,"{""Q0"":""46"",""Q1"":""Punjabi"",""Q2"":""English"",""Q3"":""UK"",""Q4"":""British"",""Q5"":""Pakistani"",""Q6"":""Male""}",NA,NA,NA,NA
11354,<p>This is the last question - thank you for taking part! Have you lived in the UK for the last 5 years or more?</p>,0,"Yes,No",Yes,html-button-response,107,856864,0.0-58.0,anomymised,6560c4cfd080ba12b16d8282,6564c894444e2e520776be70,27948,1A,man,NA,NA,NA,NA,fiveyears,NA,NA,NA,NA,NA
