rt,stimulus,button_pressed,choices,ChosenStimulus,trial_type,trial_index,time_elapsed,internal_node_id,subject_id,study_id,session_id,subject,list,ppt_gender,url,key_press,sentence_type,verb,test_part,responses,question_order,left_part,right_part,name_order
2613.100000000559,Welcome to the experiment. Press Continue to begin.,0,Continue,Continue,html-button-response,0,2615,0.0-0.0,anomymised,6564584152624795c40b73cb,65645e889f39817413391324,29050,1A,woman,NA,NA,NA,NA,NA,NA,NA,NA,NA,NA
4919,NA,NA,NA,NA,external-html,1,8567,0.0-1.0,anomymised,6564584152624795c40b73cb,65645e889f39817413391324,29050,1A,woman,consent.html,NA,NA,NA,NA,NA,NA,NA,NA,NA
36817,"<p>Welcome.</p><p>In this experiment we will ask you to imagine people's motivations for saying sentences.</p><p>Each trial will begin with a sentence that somebody might say to describe an event involving two different people.</p><p>For instance, someone might say <em>Harry is being recruited by Molly</em></p><p>We want you to think about which of those two people (Molly and Harry) the speaker identifies more with. For instance, why did the speaker say <em>Harry is being recruited by Molly</em> rather than <em> Molly is recruiting Harry</em>? Might that mean that the speaker is socially closer to one of the two characters?</p><p>After you have read the sentence, you will rate on a scale which of the two characters the speaker identifies more with.</p><p>You will give your answer by clicking a button on a rating scale.</p><p>Sometimes there will also be catch questions designed to make sure that you are paying attention, which ask about a different topic.</p><p>To do this task, you will have to use your imagination to think about and visualise the events, and how the speaker might relate to the characters.</p><br><p>Ready?</p>",0,Continue,Continue,html-button-response,2,45386,0.0-2.0,anomymised,6564584152624795c40b73cb,65645e889f39817413391324,29050,1A,woman,NA,NA,NA,NA,NA,NA,NA,NA,NA,NA
5465.0999999996275,"<p>Before the experiment starts, we will show you an example of how you will answer the questions. Press 'Continue'.</p>",0,Continue,Continue,html-button-response,3,51852,0.0-3.0,anomymised,6564584152624795c40b73cb,65645e889f39817413391324,29050,1A,woman,NA,NA,NA,NA,NA,NA,NA,NA,NA,NA
null,Somebody says <br><em>Samuel is dining with Frank</em>,NA,NA,NA,html-keyboard-response,4,54859,0.0-4.0,anomymised,6564584152624795c40b73cb,65645e889f39817413391324,29050,1A,woman,NA,null,NA,NA,NA,NA,NA,NA,NA,NA
8993.199999999255,<img src='img/Example-trial.jpg' style='height:550px;''></img>,0,Continue,Continue,html-button-response,5,63854,0.0-5.0,anomymised,6564584152624795c40b73cb,65645e889f39817413391324,29050,1A,woman,NA,NA,NA,NA,NA,NA,NA,NA,NA,NA
2710.699999999255,<p>Ready to start the experiment?</p><br><p><strong>Remember to give an answer by clicking a button on the rating scale.</strong></p><p>Press 'Continue' to begin.</p>,0,Continue,Continue,html-button-response,6,67570,0.0-6.0,anomymised,6564584152624795c40b73cb,65645e889f39817413391324,29050,1A,woman,NA,NA,NA,NA,NA,NA,NA,NA,NA,NA
null,Somebody says<br><em>Dave is being challenged by Ruth</em>,NA,NA,NA,html-keyboard-response,7,70578,0.0-7.0-0.0,anomymised,6564584152624795c40b73cb,65645e889f39817413391324,29050,1A,woman,NA,null,NAME1 is being challenged by NAME2,challenge_passive,sentence,NA,NA,NA,NA,NA
7557.200000000186,NA,NA,NA,NA,survey-likert-extra-labels,8,78138,0.0-7.0-1.0,anomymised,6564584152624795c40b73cb,65645e889f39817413391324,29050,1A,woman,NA,NA,Somebody says<br><em>Dave is being challenged by Ruth</em>,challenge_passive,rating_volition,"{""Q0"":6}",[0],The speaker identifies more with <br>Dave than Ruth,The speaker identifies more with<br>Ruth than Dave,left_to_right
null,Somebody says<br><em>Mike is marrying Dave</em>,NA,NA,NA,html-keyboard-response,9,80142,0.0-8.0-0.0,anomymised,6564584152624795c40b73cb,65645e889f39817413391324,29050,1A,woman,NA,null,NAME1 is marrying NAME2,marry_active,sentence,NA,NA,NA,NA,NA
5511.200000000186,NA,NA,NA,NA,survey-likert-extra-labels,10,85655,0.0-8.0-1.0,anomymised,6564584152624795c40b73cb,65645e889f39817413391324,29050,1A,woman,NA,NA,Somebody says<br><em>Mike is marrying Dave</em>,marry_active,rating_volition,"{""Q0"":6}",[0],The speaker identifies more with <br>Dave than Mike,The speaker identifies more with<br>Mike than Dave,right_to_left
null,Somebody says<br><em>Mike and Ruth are arguing with each other</em>,NA,NA,NA,html-keyboard-response,11,87661,0.0-9.0-0.0,anomymised,6564584152624795c40b73cb,65645e889f39817413391324,29050,1A,woman,NA,null,NAME1 and NAME2 are arguing with each other,argue_conjoined,sentence,NA,NA,NA,NA,NA
5259.299999999814,NA,NA,NA,NA,survey-likert-extra-labels,12,92922,0.0-9.0-1.0,anomymised,6564584152624795c40b73cb,65645e889f39817413391324,29050,1A,woman,NA,NA,Somebody says<br><em>Mike and Ruth are arguing with each other</em>,argue_conjoined,rating_volition,"{""Q0"":0}",[0],The speaker identifies more with <br>Mike than Ruth,The speaker identifies more with<br>Ruth than Mike,left_to_right
null,Somebody says<br><em>Jane is hugging Mike</em>,NA,NA,NA,html-keyboard-response,13,94928,0.0-10.0-0.0,anomymised,6564584152624795c40b73cb,65645e889f39817413391324,29050,1A,woman,NA,null,NAME1 is hugging NAME2,hug_active,sentence,NA,NA,NA,NA,NA
3627,NA,NA,NA,NA,survey-likert-extra-labels,14,98556,0.0-10.0-1.0,anomymised,6564584152624795c40b73cb,65645e889f39817413391324,29050,1A,woman,NA,NA,Somebody says<br><em>Jane is hugging Mike</em>,hug_active,rating_volition,"{""Q0"":0}",[0],The speaker identifies more with <br>Mike than Jane,The speaker identifies more with<br>Jane than Mike,right_to_left
null,Somebody says<br><em>Fred is being shouted at by Ruth</em>,NA,NA,NA,html-keyboard-response,15,100562,0.0-11.0-0.0,anomymised,6564584152624795c40b73cb,65645e889f39817413391324,29050,1A,woman,NA,null,NAME1 is being shouted at by NAME2,shout_passive,sentence,NA,NA,NA,NA,NA
4976.700000000186,NA,NA,NA,NA,survey-likert-extra-labels,16,105540,0.0-11.0-1.0,anomymised,6564584152624795c40b73cb,65645e889f39817413391324,29050,1A,woman,NA,NA,Somebody says<br><em>Fred is being shouted at by Ruth</em>,shout_passive,rating_volition,"{""Q0"":6}",[0],The speaker identifies more with <br>Fred than Ruth,The speaker identifies more with<br>Ruth than Fred,left_to_right
null,Somebody says<br><em>Kate is dancing with Beth</em>,NA,NA,NA,html-keyboard-response,17,107546,0.0-12.0-0.0,anomymised,6564584152624795c40b73cb,65645e889f39817413391324,29050,1A,woman,NA,null,NAME1 is dancing with NAME2,dance_active,sentence,NA,NA,NA,NA,NA
5842.700000000186,NA,NA,NA,NA,survey-likert-extra-labels,18,113390,0.0-12.0-1.0,anomymised,6564584152624795c40b73cb,65645e889f39817413391324,29050,1A,woman,NA,NA,Somebody says<br><em>Kate is dancing with Beth</em>,dance_active,rating_volition,"{""Q0"":0}",[0],The speaker identifies more with <br>Kate than Beth,The speaker identifies more with<br>Beth than Kate,left_to_right
null,Somebody says<br><em>Luke and Dave are kissing each other</em>,NA,NA,NA,html-keyboard-response,19,115397,0.0-13.0-0.0,anomymised,6564584152624795c40b73cb,65645e889f39817413391324,29050,1A,woman,NA,null,NAME1 and NAME2 are kissing each other,kiss_conjoined,sentence,NA,NA,NA,NA,NA
3292.699999999255,NA,NA,NA,NA,survey-likert-extra-labels,20,118691,0.0-13.0-1.0,anomymised,6564584152624795c40b73cb,65645e889f39817413391324,29050,1A,woman,NA,NA,Somebody says<br><em>Luke and Dave are kissing each other</em>,kiss_conjoined,rating_volition,"{""Q0"":3}",[0],The speaker identifies more with <br>Luke than Dave,The speaker identifies more with<br>Dave than Luke,left_to_right
null,Somebody says<br><em>Kate is being kissed by Beth</em>,NA,NA,NA,html-keyboard-response,21,120694,0.0-14.0-0.0,anomymised,6564584152624795c40b73cb,65645e889f39817413391324,29050,1A,woman,NA,null,NAME1 is being kissed by NAME2,kiss_passive,sentence,NA,NA,NA,NA,NA
2912.300000000745,NA,NA,NA,NA,survey-likert-extra-labels,22,123608,0.0-14.0-1.0,anomymised,6564584152624795c40b73cb,65645e889f39817413391324,29050,1A,woman,NA,NA,Somebody says<br><em>Kate is being kissed by Beth</em>,kiss_passive,rating_volition,"{""Q0"":6}",[0],The speaker identifies more with <br>Beth than Kate,The speaker identifies more with<br>Kate than Beth,right_to_left
null,Somebody says<br><em>Ruth and Fred are playing with each other</em>,NA,NA,NA,html-keyboard-response,23,125613,0.0-15.0-0.0,anomymised,6564584152624795c40b73cb,65645e889f39817413391324,29050,1A,woman,NA,null,NAME1 and NAME2 are playing with each other,play_conjoined,sentence,NA,NA,NA,NA,NA
1993.0999999996275,NA,NA,NA,NA,survey-likert-extra-labels,24,127608,0.0-15.0-1.0,anomymised,6564584152624795c40b73cb,65645e889f39817413391324,29050,1A,woman,NA,NA,Somebody says<br><em>Ruth and Fred are playing with each other</em>,play_conjoined,rating_volition,"{""Q0"":3}",[0],The speaker identifies more with <br>Fred than Ruth,The speaker identifies more with<br>Ruth than Fred,right_to_left
null,Somebody says<br><em>Fred is hiring Ruth,NA,NA,NA,html-keyboard-response,25,129613,0.0-16.0-0.0,anomymised,6564584152624795c40b73cb,65645e889f39817413391324,29050,1A,woman,NA,null,M3 is hiring W1,hire,sentence,NA,NA,NA,NA,NA
5194.0999999996275,NA,NA,NA,NA,survey-likert-extra-labels,26,134808,0.0-16.0-1.0,anomymised,6564584152624795c40b73cb,65645e889f39817413391324,29050,1A,woman,NA,NA,Somebody says<br><em>Fred is hiring Ruth,hire,rating_volition,"{""Q0"":0}",[0],Fred is employing Ruth,Ruth is employing Fred,NA
null,Somebody says<br><em>Kate is flirting with Ruth</em>,NA,NA,NA,html-keyboard-response,27,136814,0.0-17.0-0.0,anomymised,6564584152624795c40b73cb,65645e889f39817413391324,29050,1A,woman,NA,null,NAME1 is flirting with NAME2,flirt_active,sentence,NA,NA,NA,NA,NA
3526.2999999998137,NA,NA,NA,NA,survey-likert-extra-labels,28,140342,0.0-17.0-1.0,anomymised,6564584152624795c40b73cb,65645e889f39817413391324,29050,1A,woman,NA,NA,Somebody says<br><em>Kate is flirting with Ruth</em>,flirt_active,rating_volition,"{""Q0"":6}",[0],The speaker identifies more with <br>Kate than Ruth,The speaker identifies more with<br>Ruth than Kate,left_to_right
null,Somebody says<br><em>Fred is shouting at Dave</em>,NA,NA,NA,html-keyboard-response,29,142348,0.0-18.0-0.0,anomymised,6564584152624795c40b73cb,65645e889f39817413391324,29050,1A,woman,NA,null,NAME1 is shouting at NAME2,shout_active,sentence,NA,NA,NA,NA,NA
2493.2000000001863,NA,NA,NA,NA,survey-likert-extra-labels,30,144842,0.0-18.0-1.0,anomymised,6564584152624795c40b73cb,65645e889f39817413391324,29050,1A,woman,NA,NA,Somebody says<br><em>Fred is shouting at Dave</em>,shout_active,rating_volition,"{""Q0"":3}",[0],The speaker identifies more with <br>Fred than Dave,The speaker identifies more with<br>Dave than Fred,left_to_right
null,Somebody says<br><em>Jane and Fred are hugging each other</em>,NA,NA,NA,html-keyboard-response,31,146849,0.0-19.0-0.0,anomymised,6564584152624795c40b73cb,65645e889f39817413391324,29050,1A,woman,NA,null,NAME1 and NAME2 are hugging each other,hug_conjoined,sentence,NA,NA,NA,NA,NA
2109.0999999996275,NA,NA,NA,NA,survey-likert-extra-labels,32,148959,0.0-19.0-1.0,anomymised,6564584152624795c40b73cb,65645e889f39817413391324,29050,1A,woman,NA,NA,Somebody says<br><em>Jane and Fred are hugging each other</em>,hug_conjoined,rating_volition,"{""Q0"":3}",[0],The speaker identifies more with <br>Fred than Jane,The speaker identifies more with<br>Jane than Fred,right_to_left
null,Somebody says<br><em>Beth is kissing Kate</em>,NA,NA,NA,html-keyboard-response,33,150962,0.0-20.0-0.0,anomymised,6564584152624795c40b73cb,65645e889f39817413391324,29050,1A,woman,NA,null,NAME1 is kissing NAME2,kiss_active,sentence,NA,NA,NA,NA,NA
2746.199999999255,NA,NA,NA,NA,survey-likert-extra-labels,34,153710,0.0-20.0-1.0,anomymised,6564584152624795c40b73cb,65645e889f39817413391324,29050,1A,woman,NA,NA,Somebody says<br><em>Beth is kissing Kate</em>,kiss_active,rating_volition,"{""Q0"":6}",[0],The speaker identifies more with <br>Kate than Beth,The speaker identifies more with<br>Beth than Kate,right_to_left
null,Somebody says<br><em>Jane is being opposed by Ruth</em>,NA,NA,NA,html-keyboard-response,35,155717,0.0-21.0-0.0,anomymised,6564584152624795c40b73cb,65645e889f39817413391324,29050,1A,woman,NA,null,NAME1 is being opposed by NAME2,oppose_passive,sentence,NA,NA,NA,NA,NA
4708.5999999996275,NA,NA,NA,NA,survey-likert-extra-labels,36,160427,0.0-21.0-1.0,anomymised,6564584152624795c40b73cb,65645e889f39817413391324,29050,1A,woman,NA,NA,Somebody says<br><em>Jane is being opposed by Ruth</em>,oppose_passive,rating_volition,"{""Q0"":6}",[0],The speaker identifies more with <br>Jane than Ruth,The speaker identifies more with<br>Ruth than Jane,left_to_right
null,Somebody says<br><em>Mike is posing for Dave,NA,NA,NA,html-keyboard-response,37,162433,0.0-22.0-0.0,anomymised,6564584152624795c40b73cb,65645e889f39817413391324,29050,1A,woman,NA,null,M2 is posing for M4,pose,sentence,NA,NA,NA,NA,NA
4993,NA,NA,NA,NA,survey-likert-extra-labels,38,167427,0.0-22.0-1.0,anomymised,6564584152624795c40b73cb,65645e889f39817413391324,29050,1A,woman,NA,NA,Somebody says<br><em>Mike is posing for Dave,pose,rating_volition,"{""Q0"":0}",[0],Mike is modelling for Dave,Dave is modelling for Mike,NA
null,Somebody says<br><em>Mike is reminding Beth,NA,NA,NA,html-keyboard-response,39,169435,0.0-23.0-0.0,anomymised,6564584152624795c40b73cb,65645e889f39817413391324,29050,1A,woman,NA,null,M2 is reminding W4,remind,sentence,NA,NA,NA,NA,NA
6423.9000000003725,NA,NA,NA,NA,survey-likert-extra-labels,40,175861,0.0-23.0-1.0,anomymised,6564584152624795c40b73cb,65645e889f39817413391324,29050,1A,woman,NA,NA,Somebody says<br><em>Mike is reminding Beth,remind,rating_volition,"{""Q0"":6}",[0],Mike is telling Beth again,Beth is telling Mike again,NA
null,Somebody says<br><em>Kate is feeding Luke,NA,NA,NA,html-keyboard-response,41,177868,0.0-24.0-0.0,anomymised,6564584152624795c40b73cb,65645e889f39817413391324,29050,1A,woman,NA,null,W3 is feeding M1,feed,sentence,NA,NA,NA,NA,NA
9058.900000000373,NA,NA,NA,NA,survey-likert-extra-labels,42,186928,0.0-24.0-1.0,anomymised,6564584152624795c40b73cb,65645e889f39817413391324,29050,1A,woman,NA,NA,Somebody says<br><em>Kate is feeding Luke,feed,rating_volition,"{""Q0"":0}",[0],Kate cooked for Luke,Luke cooked for Kate,NA
null,Somebody says<br><em>Mike is being greeted by Kate</em>,NA,NA,NA,html-keyboard-response,43,188934,0.0-25.0-0.0,anomymised,6564584152624795c40b73cb,65645e889f39817413391324,29050,1A,woman,NA,null,NAME1 is being greeted by NAME2,greet_passive,sentence,NA,NA,NA,NA,NA
6360.200000000186,NA,NA,NA,NA,survey-likert-extra-labels,44,195296,0.0-25.0-1.0,anomymised,6564584152624795c40b73cb,65645e889f39817413391324,29050,1A,woman,NA,NA,Somebody says<br><em>Mike is being greeted by Kate</em>,greet_passive,rating_volition,"{""Q0"":6}",[0],The speaker identifies more with <br>Kate than Mike,The speaker identifies more with<br>Mike than Kate,right_to_left
null,Somebody says<br><em>Beth and Dave are marrying each other</em>,NA,NA,NA,html-keyboard-response,45,197302,0.0-26.0-0.0,anomymised,6564584152624795c40b73cb,65645e889f39817413391324,29050,1A,woman,NA,null,NAME1 and NAME2 are marrying each other,marry_conjoined,sentence,NA,NA,NA,NA,NA
3259.7000000001863,NA,NA,NA,NA,survey-likert-extra-labels,46,200563,0.0-26.0-1.0,anomymised,6564584152624795c40b73cb,65645e889f39817413391324,29050,1A,woman,NA,NA,Somebody says<br><em>Beth and Dave are marrying each other</em>,marry_conjoined,rating_volition,"{""Q0"":3}",[0],The speaker identifies more with <br>Beth than Dave,The speaker identifies more with<br>Dave than Beth,left_to_right
null,Somebody says<br><em>Jane and Luke are dancing with each other</em>,NA,NA,NA,html-keyboard-response,47,202569,0.0-27.0-0.0,anomymised,6564584152624795c40b73cb,65645e889f39817413391324,29050,1A,woman,NA,null,NAME1 and NAME2 are dancing with each other,dance_conjoined,sentence,NA,NA,NA,NA,NA
3608.9000000003725,NA,NA,NA,NA,survey-likert-extra-labels,48,206180,0.0-27.0-1.0,anomymised,6564584152624795c40b73cb,65645e889f39817413391324,29050,1A,woman,NA,NA,Somebody says<br><em>Jane and Luke are dancing with each other</em>,dance_conjoined,rating_volition,"{""Q0"":3}",[0],The speaker identifies more with <br>Luke than Jane,The speaker identifies more with<br>Jane than Luke,right_to_left
null,Somebody says<br><em>Dave is opposing Mike</em>,NA,NA,NA,html-keyboard-response,49,208186,0.0-28.0-0.0,anomymised,6564584152624795c40b73cb,65645e889f39817413391324,29050,1A,woman,NA,null,NAME1 is opposing NAME2,oppose_active,sentence,NA,NA,NA,NA,NA
4776.600000000559,NA,NA,NA,NA,survey-likert-extra-labels,50,212964,0.0-28.0-1.0,anomymised,6564584152624795c40b73cb,65645e889f39817413391324,29050,1A,woman,NA,NA,Somebody says<br><em>Dave is opposing Mike</em>,oppose_active,rating_volition,"{""Q0"":0}",[0],The speaker identifies more with <br>Mike than Dave,The speaker identifies more with<br>Dave than Mike,right_to_left
null,Somebody says<br><em>Luke and Kate are talking with each other</em>,NA,NA,NA,html-keyboard-response,51,214970,0.0-29.0-0.0,anomymised,6564584152624795c40b73cb,65645e889f39817413391324,29050,1A,woman,NA,null,NAME1 and NAME2 are talking with each other,talk_conjoined,sentence,NA,NA,NA,NA,NA
15126.799999999814,NA,NA,NA,NA,survey-likert-extra-labels,52,230098,0.0-29.0-1.0,anomymised,6564584152624795c40b73cb,65645e889f39817413391324,29050,1A,woman,NA,NA,Somebody says<br><em>Luke and Kate are talking with each other</em>,talk_conjoined,rating_volition,"{""Q0"":3}",[0],The speaker identifies more with <br>Luke than Kate,The speaker identifies more with<br>Kate than Luke,left_to_right
null,Somebody says<br><em>Ruth is chasing Kate,NA,NA,NA,html-keyboard-response,53,232104,0.0-30.0-0.0,anomymised,6564584152624795c40b73cb,65645e889f39817413391324,29050,1A,woman,NA,null,W1 is chasing W3,chase,sentence,NA,NA,NA,NA,NA
9193.199999999255,NA,NA,NA,NA,survey-likert-extra-labels,54,241299,0.0-30.0-1.0,anomymised,6564584152624795c40b73cb,65645e889f39817413391324,29050,1A,woman,NA,NA,Somebody says<br><em>Ruth is chasing Kate,chase,rating_volition,"{""Q0"":0}",[0],Ruth is behind Kate,Kate is behind Ruth,NA
null,Somebody says<br><em>Kate is being looked at by Mike</em>,NA,NA,NA,html-keyboard-response,55,243307,0.0-31.0-0.0,anomymised,6564584152624795c40b73cb,65645e889f39817413391324,29050,1A,woman,NA,null,NAME1 is being looked at by NAME2,look_passive,sentence,NA,NA,NA,NA,NA
7623.5999999996275,NA,NA,NA,NA,survey-likert-extra-labels,56,250933,0.0-31.0-1.0,anomymised,6564584152624795c40b73cb,65645e889f39817413391324,29050,1A,woman,NA,NA,Somebody says<br><em>Kate is being looked at by Mike</em>,look_passive,rating_volition,"{""Q0"":6}",[0],The speaker identifies more with <br>Mike than Kate,The speaker identifies more with<br>Kate than Mike,right_to_left
null,Somebody says<br><em>Kate is being seduced by Luke</em>,NA,NA,NA,html-keyboard-response,57,252939,0.0-32.0-0.0,anomymised,6564584152624795c40b73cb,65645e889f39817413391324,29050,1A,woman,NA,null,NAME1 is being seduced by NAME2,seduce_passive,sentence,NA,NA,NA,NA,NA
4209.699999999255,NA,NA,NA,NA,survey-likert-extra-labels,58,257150,0.0-32.0-1.0,anomymised,6564584152624795c40b73cb,65645e889f39817413391324,29050,1A,woman,NA,NA,Somebody says<br><em>Kate is being seduced by Luke</em>,seduce_passive,rating_volition,"{""Q0"":0}",[0],The speaker identifies more with <br>Kate than Luke,The speaker identifies more with<br>Luke than Kate,left_to_right
null,Somebody says<br><em>Jane is touching Luke</em>,NA,NA,NA,html-keyboard-response,59,259156,0.0-33.0-0.0,anomymised,6564584152624795c40b73cb,65645e889f39817413391324,29050,1A,woman,NA,null,NAME1 is touching NAME2,touch_active,sentence,NA,NA,NA,NA,NA
3176.2000000001863,NA,NA,NA,NA,survey-likert-extra-labels,60,262334,0.0-33.0-1.0,anomymised,6564584152624795c40b73cb,65645e889f39817413391324,29050,1A,woman,NA,NA,Somebody says<br><em>Jane is touching Luke</em>,touch_active,rating_volition,"{""Q0"":3}",[0],The speaker identifies more with <br>Luke than Jane,The speaker identifies more with<br>Jane than Luke,right_to_left
null,Somebody says<br><em>Jane and Fred are touching each other</em>,NA,NA,NA,html-keyboard-response,61,264341,0.0-34.0-0.0,anomymised,6564584152624795c40b73cb,65645e889f39817413391324,29050,1A,woman,NA,null,NAME1 and NAME2 are touching each other,touch_conjoined,sentence,NA,NA,NA,NA,NA
1392.5999999996275,NA,NA,NA,NA,survey-likert-extra-labels,62,265734,0.0-34.0-1.0,anomymised,6564584152624795c40b73cb,65645e889f39817413391324,29050,1A,woman,NA,NA,Somebody says<br><em>Jane and Fred are touching each other</em>,touch_conjoined,rating_volition,"{""Q0"":3}",[0],The speaker identifies more with <br>Jane than Fred,The speaker identifies more with<br>Fred than Jane,left_to_right
null,Somebody says<br><em>Jane is carrying Beth,NA,NA,NA,html-keyboard-response,63,267739,0.0-35.0-0.0,anomymised,6564584152624795c40b73cb,65645e889f39817413391324,29050,1A,woman,NA,null,W2 is carrying W4,carry,sentence,NA,NA,NA,NA,NA
4377.699999999255,NA,NA,NA,NA,survey-likert-extra-labels,64,272118,0.0-35.0-1.0,anomymised,6564584152624795c40b73cb,65645e889f39817413391324,29050,1A,woman,NA,NA,Somebody says<br><em>Jane is carrying Beth,carry,rating_volition,"{""Q0"":0}",[0],Jane is transporting Beth,Beth is transporting Jane,NA
null,Somebody says<br><em>Luke and Fred are fighting with each other</em>,NA,NA,NA,html-keyboard-response,65,274124,0.0-36.0-0.0,anomymised,6564584152624795c40b73cb,65645e889f39817413391324,29050,1A,woman,NA,null,NAME1 and NAME2 are fighting with each other,fight_conjoined,sentence,NA,NA,NA,NA,NA
4776.299999999814,NA,NA,NA,NA,survey-likert-extra-labels,66,278902,0.0-36.0-1.0,anomymised,6564584152624795c40b73cb,65645e889f39817413391324,29050,1A,woman,NA,NA,Somebody says<br><em>Luke and Fred are fighting with each other</em>,fight_conjoined,rating_volition,"{""Q0"":0}",[0],The speaker identifies more with <br>Luke than Fred,The speaker identifies more with<br>Fred than Luke,left_to_right
null,Somebody says<br><em>Dave is challenging Ruth</em>,NA,NA,NA,html-keyboard-response,67,280907,0.0-37.0-0.0,anomymised,6564584152624795c40b73cb,65645e889f39817413391324,29050,1A,woman,NA,null,NAME1 is challenging NAME2,challenge_active,sentence,NA,NA,NA,NA,NA
3077.2000000001863,NA,NA,NA,NA,survey-likert-extra-labels,68,283985,0.0-37.0-1.0,anomymised,6564584152624795c40b73cb,65645e889f39817413391324,29050,1A,woman,NA,NA,Somebody says<br><em>Dave is challenging Ruth</em>,challenge_active,rating_volition,"{""Q0"":3}",[0],The speaker identifies more with <br>Ruth than Dave,The speaker identifies more with<br>Dave than Ruth,right_to_left
null,Somebody says<br><em>Beth is being copied by Jane</em>,NA,NA,NA,html-keyboard-response,69,285991,0.0-38.0-0.0,anomymised,6564584152624795c40b73cb,65645e889f39817413391324,29050,1A,woman,NA,null,NAME1 is being copied by NAME2,copy_passive,sentence,NA,NA,NA,NA,NA
8459.900000000373,NA,NA,NA,NA,survey-likert-extra-labels,70,294453,0.0-38.0-1.0,anomymised,6564584152624795c40b73cb,65645e889f39817413391324,29050,1A,woman,NA,NA,Somebody says<br><em>Beth is being copied by Jane</em>,copy_passive,rating_volition,"{""Q0"":6}",[0],The speaker identifies more with <br>Jane than Beth,The speaker identifies more with<br>Beth than Jane,right_to_left
null,Somebody says<br><em>Fred and Kate are flirting with each other</em>,NA,NA,NA,html-keyboard-response,71,296458,0.0-39.0-0.0,anomymised,6564584152624795c40b73cb,65645e889f39817413391324,29050,1A,woman,NA,null,NAME1 and NAME2 are flirting with each other,flirt_conjoined,sentence,NA,NA,NA,NA,NA
4859.9000000003725,NA,NA,NA,NA,survey-likert-extra-labels,72,301320,0.0-39.0-1.0,anomymised,6564584152624795c40b73cb,65645e889f39817413391324,29050,1A,woman,NA,NA,Somebody says<br><em>Fred and Kate are flirting with each other</em>,flirt_conjoined,rating_volition,"{""Q0"":3}",[0],The speaker identifies more with <br>Fred than Kate,The speaker identifies more with<br>Kate than Fred,left_to_right
null,Somebody says<br><em>Mike is greeting Kate</em>,NA,NA,NA,html-keyboard-response,73,303326,0.0-40.0-0.0,anomymised,6564584152624795c40b73cb,65645e889f39817413391324,29050,1A,woman,NA,null,NAME1 is greeting NAME2,greet_active,sentence,NA,NA,NA,NA,NA
5592.899999999441,NA,NA,NA,NA,survey-likert-extra-labels,74,308920,0.0-40.0-1.0,anomymised,6564584152624795c40b73cb,65645e889f39817413391324,29050,1A,woman,NA,NA,Somebody says<br><em>Mike is greeting Kate</em>,greet_active,rating_volition,"{""Q0"":6}",[0],The speaker identifies more with <br>Mike than Kate,The speaker identifies more with<br>Kate than Mike,left_to_right
null,Somebody says<br><em>Beth is being touched by Kate</em>,NA,NA,NA,html-keyboard-response,75,310928,0.0-41.0-0.0,anomymised,6564584152624795c40b73cb,65645e889f39817413391324,29050,1A,woman,NA,null,NAME1 is being touched by NAME2,touch_passive,sentence,NA,NA,NA,NA,NA
5426.200000000186,NA,NA,NA,NA,survey-likert-extra-labels,76,316356,0.0-41.0-1.0,anomymised,6564584152624795c40b73cb,65645e889f39817413391324,29050,1A,woman,NA,NA,Somebody says<br><em>Beth is being touched by Kate</em>,touch_passive,rating_volition,"{""Q0"":6}",[0],The speaker identifies more with <br>Kate than Beth,The speaker identifies more with<br>Beth than Kate,right_to_left
null,Somebody says<br><em>Dave is playing with Ruth</em>,NA,NA,NA,html-keyboard-response,77,318362,0.0-42.0-0.0,anomymised,6564584152624795c40b73cb,65645e889f39817413391324,29050,1A,woman,NA,null,NAME1 is playing with NAME2,play_active,sentence,NA,NA,NA,NA,NA
2624.9000000003725,NA,NA,NA,NA,survey-likert-extra-labels,78,320988,0.0-42.0-1.0,anomymised,6564584152624795c40b73cb,65645e889f39817413391324,29050,1A,woman,NA,NA,Somebody says<br><em>Dave is playing with Ruth</em>,play_active,rating_volition,"{""Q0"":3}",[0],The speaker identifies more with <br>Ruth than Dave,The speaker identifies more with<br>Dave than Ruth,right_to_left
null,Somebody says<br><em>Fred is meeting Luke</em>,NA,NA,NA,html-keyboard-response,79,322994,0.0-43.0-0.0,anomymised,6564584152624795c40b73cb,65645e889f39817413391324,29050,1A,woman,NA,null,NAME1 is meeting NAME2,meet_active,sentence,NA,NA,NA,NA,NA
1843.0999999996275,NA,NA,NA,NA,survey-likert-extra-labels,80,324838,0.0-43.0-1.0,anomymised,6564584152624795c40b73cb,65645e889f39817413391324,29050,1A,woman,NA,NA,Somebody says<br><em>Fred is meeting Luke</em>,meet_active,rating_volition,"{""Q0"":3}",[0],The speaker identifies more with <br>Luke than Fred,The speaker identifies more with<br>Fred than Luke,right_to_left
null,Somebody says<br><em>Kate is arguing with Ruth</em>,NA,NA,NA,html-keyboard-response,81,326844,0.0-44.0-0.0,anomymised,6564584152624795c40b73cb,65645e889f39817413391324,29050,1A,woman,NA,null,NAME1 is arguing with NAME2,argue_active,sentence,NA,NA,NA,NA,NA
5260,NA,NA,NA,NA,survey-likert-extra-labels,82,332105,0.0-44.0-1.0,anomymised,6564584152624795c40b73cb,65645e889f39817413391324,29050,1A,woman,NA,NA,Somebody says<br><em>Kate is arguing with Ruth</em>,argue_active,rating_volition,"{""Q0"":6}",[0],The speaker identifies more with <br>Ruth than Kate,The speaker identifies more with<br>Kate than Ruth,right_to_left
null,Somebody says<br><em>Ruth is being hugged by Mike</em>,NA,NA,NA,html-keyboard-response,83,334111,0.0-45.0-0.0,anomymised,6564584152624795c40b73cb,65645e889f39817413391324,29050,1A,woman,NA,null,NAME1 is being hugged by NAME2,hug_passive,sentence,NA,NA,NA,NA,NA
3576.7999999998137,NA,NA,NA,NA,survey-likert-extra-labels,84,337690,0.0-45.0-1.0,anomymised,6564584152624795c40b73cb,65645e889f39817413391324,29050,1A,woman,NA,NA,Somebody says<br><em>Ruth is being hugged by Mike</em>,hug_passive,rating_volition,"{""Q0"":6}",[0],The speaker identifies more with <br>Mike than Ruth,The speaker identifies more with<br>Ruth than Mike,right_to_left
null,Somebody says<br><em>Fred is seducing Kate</em>,NA,NA,NA,html-keyboard-response,85,339695,0.0-46.0-0.0,anomymised,6564584152624795c40b73cb,65645e889f39817413391324,29050,1A,woman,NA,null,NAME1 is seducing NAME2,seduce_active,sentence,NA,NA,NA,NA,NA
5643.200000000186,NA,NA,NA,NA,survey-likert-extra-labels,86,345339,0.0-46.0-1.0,anomymised,6564584152624795c40b73cb,65645e889f39817413391324,29050,1A,woman,NA,NA,Somebody says<br><em>Fred is seducing Kate</em>,seduce_active,rating_volition,"{""Q0"":0}",[0],The speaker identifies more with <br>Fred than Kate,The speaker identifies more with<br>Kate than Fred,left_to_right
null,Somebody says<br><em>Dave is copying Luke</em>,NA,NA,NA,html-keyboard-response,87,347346,0.0-47.0-0.0,anomymised,6564584152624795c40b73cb,65645e889f39817413391324,29050,1A,woman,NA,null,NAME1 is copying NAME2,copy_active,sentence,NA,NA,NA,NA,NA
4242.5,NA,NA,NA,NA,survey-likert-extra-labels,88,351589,0.0-47.0-1.0,anomymised,6564584152624795c40b73cb,65645e889f39817413391324,29050,1A,woman,NA,NA,Somebody says<br><em>Dave is copying Luke</em>,copy_active,rating_volition,"{""Q0"":0}",[0],The speaker identifies more with <br>Luke than Dave,The speaker identifies more with<br>Dave than Luke,right_to_left
null,Somebody says<br><em>Jane is teaching Dave,NA,NA,NA,html-keyboard-response,89,353596,0.0-48.0-0.0,anomymised,6564584152624795c40b73cb,65645e889f39817413391324,29050,1A,woman,NA,null,W2 is teaching M4,teach,sentence,NA,NA,NA,NA,NA
16960.5,NA,NA,NA,NA,survey-likert-extra-labels,90,370558,0.0-48.0-1.0,anomymised,6564584152624795c40b73cb,65645e889f39817413391324,29050,1A,woman,NA,NA,Somebody says<br><em>Jane is teaching Dave,teach,rating_volition,"{""Q0"":3}",[0],Jane is educating Dave,Dave is educating Jane,NA
null,Somebody says<br><em>Dave and Ruth are meeting each other</em>,NA,NA,NA,html-keyboard-response,91,372563,0.0-49.0-0.0,anomymised,6564584152624795c40b73cb,65645e889f39817413391324,29050,1A,woman,NA,null,NAME1 and NAME2 are meeting each other,meet_conjoined,sentence,NA,NA,NA,NA,NA
7677.0999999996275,NA,NA,NA,NA,survey-likert-extra-labels,92,380242,0.0-49.0-1.0,anomymised,6564584152624795c40b73cb,65645e889f39817413391324,29050,1A,woman,NA,NA,Somebody says<br><em>Dave and Ruth are meeting each other</em>,meet_conjoined,rating_volition,"{""Q0"":3}",[0],The speaker identifies more with <br>Ruth than Dave,The speaker identifies more with<br>Dave than Ruth,right_to_left
null,Somebody says<br><em>Kate is shouting at Dave</em>,NA,NA,NA,html-keyboard-response,93,382248,0.0-50.0-0.0,anomymised,6564584152624795c40b73cb,65645e889f39817413391324,29050,1A,woman,NA,null,NAME1 is shouting at NAME2,shout_active,sentence,NA,NA,NA,NA,NA
5593.200000000186,NA,NA,NA,NA,survey-likert-extra-labels,94,387842,0.0-50.0-1.0,anomymised,6564584152624795c40b73cb,65645e889f39817413391324,29050,1A,woman,NA,NA,Somebody says<br><em>Kate is shouting at Dave</em>,shout_active,rating_volition,"{""Q0"":0}",[0],The speaker identifies more with <br>Dave than Kate,The speaker identifies more with<br>Kate than Dave,right_to_left
null,Somebody says<br><em>Beth is fighting with Ruth</em>,NA,NA,NA,html-keyboard-response,95,389850,0.0-51.0-0.0,anomymised,6564584152624795c40b73cb,65645e889f39817413391324,29050,1A,woman,NA,null,NAME1 is fighting with NAME2,fight_active,sentence,NA,NA,NA,NA,NA
8008.700000000186,NA,NA,NA,NA,survey-likert-extra-labels,96,397860,0.0-51.0-1.0,anomymised,6564584152624795c40b73cb,65645e889f39817413391324,29050,1A,woman,NA,NA,Somebody says<br><em>Beth is fighting with Ruth</em>,fight_active,rating_volition,"{""Q0"":6}",[0],The speaker identifies more with <br>Ruth than Beth,The speaker identifies more with<br>Beth than Ruth,right_to_left
null,Somebody says<br><em>Fred is looking at Dave</em>,NA,NA,NA,html-keyboard-response,97,399866,0.0-52.0-0.0,anomymised,6564584152624795c40b73cb,65645e889f39817413391324,29050,1A,woman,NA,null,NAME1 is looking at NAME2,look_active,sentence,NA,NA,NA,NA,NA
1526.0999999996275,NA,NA,NA,NA,survey-likert-extra-labels,98,401393,0.0-52.0-1.0,anomymised,6564584152624795c40b73cb,65645e889f39817413391324,29050,1A,woman,NA,NA,Somebody says<br><em>Fred is looking at Dave</em>,look_active,rating_volition,"{""Q0"":3}",[0],The speaker identifies more with <br>Fred than Dave,The speaker identifies more with<br>Dave than Fred,left_to_right
null,Somebody says<br><em>Luke is driving Fred,NA,NA,NA,html-keyboard-response,99,403399,0.0-53.0-0.0,anomymised,6564584152624795c40b73cb,65645e889f39817413391324,29050,1A,woman,NA,null,M1 is driving M3,drive,sentence,NA,NA,NA,NA,NA
7843.800000000745,NA,NA,NA,NA,survey-likert-extra-labels,100,411245,0.0-53.0-1.0,anomymised,6564584152624795c40b73cb,65645e889f39817413391324,29050,1A,woman,NA,NA,Somebody says<br><em>Luke is driving Fred,drive,rating_volition,"{""Q0"":6}",[0],Luke is Fred's passenger,Fred is Luke's passenger,NA
null,Somebody says<br><em>Mike is talking to Kate</em>,NA,NA,NA,html-keyboard-response,101,413250,0.0-54.0-0.0,anomymised,6564584152624795c40b73cb,65645e889f39817413391324,29050,1A,woman,NA,null,NAME1 is talking to NAME2,talk_active,sentence,NA,NA,NA,NA,NA
8760.400000000373,NA,NA,NA,NA,survey-likert-extra-labels,102,422011,0.0-54.0-1.0,anomymised,6564584152624795c40b73cb,65645e889f39817413391324,29050,1A,woman,NA,NA,Somebody says<br><em>Mike is talking to Kate</em>,talk_active,rating_volition,"{""Q0"":0}",[0],The speaker identifies more with <br>Kate than Mike,The speaker identifies more with<br>Mike than Kate,right_to_left
null,Somebody says<br><em>Ruth and Beth are shouting at each other</em>,NA,NA,NA,html-keyboard-response,103,424017,0.0-55.0-0.0,anomymised,6564584152624795c40b73cb,65645e889f39817413391324,29050,1A,woman,NA,null,NAME1 and NAME2 are shouting at each other,shout_conjoined,sentence,NA,NA,NA,NA,NA
1077.2999999998137,NA,NA,NA,NA,survey-likert-extra-labels,104,425096,0.0-55.0-1.0,anomymised,6564584152624795c40b73cb,65645e889f39817413391324,29050,1A,woman,NA,NA,Somebody says<br><em>Ruth and Beth are shouting at each other</em>,shout_conjoined,rating_volition,"{""Q0"":3}",[0],The speaker identifies more with <br>Beth than Ruth,The speaker identifies more with<br>Ruth than Beth,right_to_left
2046.8999999994412,<p>Thank you for completing that task.</p><p>The final part of this session is a short questionnaire.</p><p>Press Continue.</p>,0,Continue,Continue,html-button-response,105,427145,0.0-56.0,anomymised,6564584152624795c40b73cb,65645e889f39817413391324,29050,1A,woman,NA,NA,NA,NA,NA,NA,NA,NA,NA,NA
29243.200000000186,NA,NA,NA,NA,survey-text,106,457398,0.0-57.0,anomymised,6564584152624795c40b73cb,65645e889f39817413391324,29050,1A,woman,NA,NA,NA,NA,demographics,"{""Q0"":""31"",""Q1"":""english"",""Q2"":""english"",""Q3"":""united kingdom"",""Q4"":""british"",""Q5"":""white"",""Q6"":""female""}",NA,NA,NA,NA
2795.5,<p>This is the last question - thank you for taking part! Have you lived in the UK for the last 5 years or more?</p>,0,"Yes,No",Yes,html-button-response,107,460198,0.0-58.0,anomymised,6564584152624795c40b73cb,65645e889f39817413391324,29050,1A,woman,NA,NA,NA,NA,fiveyears,NA,NA,NA,NA,NA
