rt,stimulus,button_pressed,choices,ChosenStimulus,trial_type,trial_index,time_elapsed,internal_node_id,subject_id,study_id,session_id,subject,list,ppt_gender,url,key_press,sentence_type,verb,test_part,responses,question_order,left_part,right_part,name_order
5397.100000023842,Welcome to the experiment. Press Continue to begin.,0,Continue,Continue,html-button-response,0,5405,0.0-0.0,anomymised,6560c4cfd080ba12b16d8282,6564c8bbcf7f7c36284efdf3,31162,1A,man,NA,NA,NA,NA,NA,NA,NA,NA,NA,NA
10311.300000071526,NA,NA,NA,NA,external-html,1,16829,0.0-1.0,anomymised,6560c4cfd080ba12b16d8282,6564c8bbcf7f7c36284efdf3,31162,1A,man,consent.html,NA,NA,NA,NA,NA,NA,NA,NA,NA
37119.199999928474,"<p>Welcome.</p><p>In this experiment we will ask you to imagine people's motivations for saying sentences.</p><p>Each trial will begin with a sentence that somebody might say to describe an event involving two different people.</p><p>For instance, someone might say <em>Harry is being recruited by Molly</em></p><p>We want you to think about which of those two people (Molly and Harry) the speaker identifies more with. For instance, why did the speaker say <em>Harry is being recruited by Molly</em> rather than <em> Molly is recruiting Harry</em>? Might that mean that the speaker is socially closer to one of the two characters?</p><p>After you have read the sentence, you will rate on a scale which of the two characters the speaker identifies more with.</p><p>You will give your answer by clicking a button on a rating scale.</p><p>Sometimes there will also be catch questions designed to make sure that you are paying attention, which ask about a different topic.</p><p>To do this task, you will have to use your imagination to think about and visualise the events, and how the speaker might relate to the characters.</p><br><p>Ready?</p>",0,Continue,Continue,html-button-response,2,53949,0.0-2.0,anomymised,6560c4cfd080ba12b16d8282,6564c8bbcf7f7c36284efdf3,31162,1A,man,NA,NA,NA,NA,NA,NA,NA,NA,NA,NA
3799.8000000715256,"<p>Before the experiment starts, we will show you an example of how you will answer the questions. Press 'Continue'.</p>",0,Continue,Continue,html-button-response,3,58764,0.0-3.0,anomymised,6560c4cfd080ba12b16d8282,6564c8bbcf7f7c36284efdf3,31162,1A,man,NA,NA,NA,NA,NA,NA,NA,NA,NA,NA
null,Somebody says <br><em>Samuel is dining with Frank</em>,NA,NA,NA,html-keyboard-response,4,61788,0.0-4.0,anomymised,6560c4cfd080ba12b16d8282,6564c8bbcf7f7c36284efdf3,31162,1A,man,NA,null,NA,NA,NA,NA,NA,NA,NA,NA
15111.399999976158,<img src='img/Example-trial.jpg' style='height:550px;''></img>,0,Continue,Continue,html-button-response,5,76900,0.0-5.0,anomymised,6560c4cfd080ba12b16d8282,6564c8bbcf7f7c36284efdf3,31162,1A,man,NA,NA,NA,NA,NA,NA,NA,NA,NA,NA
3726.7000000476837,<p>Ready to start the experiment?</p><br><p><strong>Remember to give an answer by clicking a button on the rating scale.</strong></p><p>Press 'Continue' to begin.</p>,0,Continue,Continue,html-button-response,6,81628,0.0-6.0,anomymised,6560c4cfd080ba12b16d8282,6564c8bbcf7f7c36284efdf3,31162,1A,man,NA,NA,NA,NA,NA,NA,NA,NA,NA,NA
null,Somebody says<br><em>Ruth is hugging Dave</em>,NA,NA,NA,html-keyboard-response,7,84649,0.0-7.0-0.0,anomymised,6560c4cfd080ba12b16d8282,6564c8bbcf7f7c36284efdf3,31162,1A,man,NA,null,NAME1 is hugging NAME2,hug_active,sentence,NA,NA,NA,NA,NA
16409.899999976158,NA,NA,NA,NA,survey-likert-extra-labels,8,101061,0.0-7.0-1.0,anomymised,6560c4cfd080ba12b16d8282,6564c8bbcf7f7c36284efdf3,31162,1A,man,NA,NA,Somebody says<br><em>Ruth is hugging Dave</em>,hug_active,rating_volition,"{""Q0"":6}",[0],The speaker identifies more with <br>Dave than Ruth,The speaker identifies more with<br>Ruth than Dave,right_to_left
null,Somebody says<br><em>Ruth and Jane are touching each other</em>,NA,NA,NA,html-keyboard-response,9,103071,0.0-8.0-0.0,anomymised,6560c4cfd080ba12b16d8282,6564c8bbcf7f7c36284efdf3,31162,1A,man,NA,null,NAME1 and NAME2 are touching each other,touch_conjoined,sentence,NA,NA,NA,NA,NA
19860.099999904633,NA,NA,NA,NA,survey-likert-extra-labels,10,122932,0.0-8.0-1.0,anomymised,6560c4cfd080ba12b16d8282,6564c8bbcf7f7c36284efdf3,31162,1A,man,NA,NA,Somebody says<br><em>Ruth and Jane are touching each other</em>,touch_conjoined,rating_volition,"{""Q0"":4}",[0],The speaker identifies more with <br>Jane than Ruth,The speaker identifies more with<br>Ruth than Jane,right_to_left
null,Somebody says<br><em>Mike is being hugged by Dave</em>,NA,NA,NA,html-keyboard-response,11,124935,0.0-9.0-0.0,anomymised,6560c4cfd080ba12b16d8282,6564c8bbcf7f7c36284efdf3,31162,1A,man,NA,null,NAME1 is being hugged by NAME2,hug_passive,sentence,NA,NA,NA,NA,NA
9989,NA,NA,NA,NA,survey-likert-extra-labels,12,134925,0.0-9.0-1.0,anomymised,6560c4cfd080ba12b16d8282,6564c8bbcf7f7c36284efdf3,31162,1A,man,NA,NA,Somebody says<br><em>Mike is being hugged by Dave</em>,hug_passive,rating_volition,"{""Q0"":0}",[0],The speaker identifies more with <br>Mike than Dave,The speaker identifies more with<br>Dave than Mike,left_to_right
null,Somebody says<br><em>Jane is carrying Beth,NA,NA,NA,html-keyboard-response,13,136927,0.0-10.0-0.0,anomymised,6560c4cfd080ba12b16d8282,6564c8bbcf7f7c36284efdf3,31162,1A,man,NA,null,W2 is carrying W4,carry,sentence,NA,NA,NA,NA,NA
16156.399999976158,NA,NA,NA,NA,survey-likert-extra-labels,14,153084,0.0-10.0-1.0,anomymised,6560c4cfd080ba12b16d8282,6564c8bbcf7f7c36284efdf3,31162,1A,man,NA,NA,Somebody says<br><em>Jane is carrying Beth,carry,rating_volition,"{""Q0"":0}",[0],Jane is transporting Beth,Beth is transporting Jane,NA
null,Somebody says<br><em>Dave is touching Luke</em>,NA,NA,NA,html-keyboard-response,15,155090,0.0-11.0-0.0,anomymised,6560c4cfd080ba12b16d8282,6564c8bbcf7f7c36284efdf3,31162,1A,man,NA,null,NAME1 is touching NAME2,touch_active,sentence,NA,NA,NA,NA,NA
21841.399999976158,NA,NA,NA,NA,survey-likert-extra-labels,16,176933,0.0-11.0-1.0,anomymised,6560c4cfd080ba12b16d8282,6564c8bbcf7f7c36284efdf3,31162,1A,man,NA,NA,Somebody says<br><em>Dave is touching Luke</em>,touch_active,rating_volition,"{""Q0"":3}",[0],The speaker identifies more with <br>Luke than Dave,The speaker identifies more with<br>Dave than Luke,right_to_left
null,Somebody says<br><em>Mike is posing for Dave,NA,NA,NA,html-keyboard-response,17,178948,0.0-12.0-0.0,anomymised,6560c4cfd080ba12b16d8282,6564c8bbcf7f7c36284efdf3,31162,1A,man,NA,null,M2 is posing for M4,pose,sentence,NA,NA,NA,NA,NA
10175.700000047684,NA,NA,NA,NA,survey-likert-extra-labels,18,189124,0.0-12.0-1.0,anomymised,6560c4cfd080ba12b16d8282,6564c8bbcf7f7c36284efdf3,31162,1A,man,NA,NA,Somebody says<br><em>Mike is posing for Dave,pose,rating_volition,"{""Q0"":0}",[0],Mike is modelling for Dave,Dave is modelling for Mike,NA
null,Somebody says<br><em>Ruth and Fred are hugging each other</em>,NA,NA,NA,html-keyboard-response,19,191132,0.0-13.0-0.0,anomymised,6560c4cfd080ba12b16d8282,6564c8bbcf7f7c36284efdf3,31162,1A,man,NA,null,NAME1 and NAME2 are hugging each other,hug_conjoined,sentence,NA,NA,NA,NA,NA
14574.899999976158,NA,NA,NA,NA,survey-likert-extra-labels,20,205708,0.0-13.0-1.0,anomymised,6560c4cfd080ba12b16d8282,6564c8bbcf7f7c36284efdf3,31162,1A,man,NA,NA,Somebody says<br><em>Ruth and Fred are hugging each other</em>,hug_conjoined,rating_volition,"{""Q0"":4}",[0],The speaker identifies more with <br>Fred than Ruth,The speaker identifies more with<br>Ruth than Fred,right_to_left
null,Somebody says<br><em>Mike is copying Dave</em>,NA,NA,NA,html-keyboard-response,21,207716,0.0-14.0-0.0,anomymised,6560c4cfd080ba12b16d8282,6564c8bbcf7f7c36284efdf3,31162,1A,man,NA,null,NAME1 is copying NAME2,copy_active,sentence,NA,NA,NA,NA,NA
13175.600000023842,NA,NA,NA,NA,survey-likert-extra-labels,22,220892,0.0-14.0-1.0,anomymised,6560c4cfd080ba12b16d8282,6564c8bbcf7f7c36284efdf3,31162,1A,man,NA,NA,Somebody says<br><em>Mike is copying Dave</em>,copy_active,rating_volition,"{""Q0"":4}",[0],The speaker identifies more with <br>Dave than Mike,The speaker identifies more with<br>Mike than Dave,right_to_left
null,Somebody says<br><em>Mike and Dave are meeting each other</em>,NA,NA,NA,html-keyboard-response,23,222902,0.0-15.0-0.0,anomymised,6560c4cfd080ba12b16d8282,6564c8bbcf7f7c36284efdf3,31162,1A,man,NA,null,NAME1 and NAME2 are meeting each other,meet_conjoined,sentence,NA,NA,NA,NA,NA
26045.599999904633,NA,NA,NA,NA,survey-likert-extra-labels,24,248947,0.0-15.0-1.0,anomymised,6560c4cfd080ba12b16d8282,6564c8bbcf7f7c36284efdf3,31162,1A,man,NA,NA,Somebody says<br><em>Mike and Dave are meeting each other</em>,meet_conjoined,rating_volition,"{""Q0"":4}",[0],The speaker identifies more with <br>Dave than Mike,The speaker identifies more with<br>Mike than Dave,right_to_left
null,Somebody says<br><em>Fred is arguing with Mike</em>,NA,NA,NA,html-keyboard-response,25,250950,0.0-16.0-0.0,anomymised,6560c4cfd080ba12b16d8282,6564c8bbcf7f7c36284efdf3,31162,1A,man,NA,null,NAME1 is arguing with NAME2,argue_active,sentence,NA,NA,NA,NA,NA
7436.700000047684,NA,NA,NA,NA,survey-likert-extra-labels,26,258387,0.0-16.0-1.0,anomymised,6560c4cfd080ba12b16d8282,6564c8bbcf7f7c36284efdf3,31162,1A,man,NA,NA,Somebody says<br><em>Fred is arguing with Mike</em>,argue_active,rating_volition,"{""Q0"":3}",[0],The speaker identifies more with <br>Mike than Fred,The speaker identifies more with<br>Fred than Mike,right_to_left
null,Somebody says<br><em>Fred is being kissed by Dave</em>,NA,NA,NA,html-keyboard-response,27,260394,0.0-17.0-0.0,anomymised,6560c4cfd080ba12b16d8282,6564c8bbcf7f7c36284efdf3,31162,1A,man,NA,null,NAME1 is being kissed by NAME2,kiss_passive,sentence,NA,NA,NA,NA,NA
11080.200000047684,NA,NA,NA,NA,survey-likert-extra-labels,28,271475,0.0-17.0-1.0,anomymised,6560c4cfd080ba12b16d8282,6564c8bbcf7f7c36284efdf3,31162,1A,man,NA,NA,Somebody says<br><em>Fred is being kissed by Dave</em>,kiss_passive,rating_volition,"{""Q0"":1}",[0],The speaker identifies more with <br>Fred than Dave,The speaker identifies more with<br>Dave than Fred,left_to_right
null,Somebody says<br><em>Beth is talking to Ruth</em>,NA,NA,NA,html-keyboard-response,29,273479,0.0-18.0-0.0,anomymised,6560c4cfd080ba12b16d8282,6564c8bbcf7f7c36284efdf3,31162,1A,man,NA,null,NAME1 is talking to NAME2,talk_active,sentence,NA,NA,NA,NA,NA
10427,NA,NA,NA,NA,survey-likert-extra-labels,30,283907,0.0-18.0-1.0,anomymised,6560c4cfd080ba12b16d8282,6564c8bbcf7f7c36284efdf3,31162,1A,man,NA,NA,Somebody says<br><em>Beth is talking to Ruth</em>,talk_active,rating_volition,"{""Q0"":2}",[0],The speaker identifies more with <br>Beth than Ruth,The speaker identifies more with<br>Ruth than Beth,left_to_right
null,Somebody says<br><em>Mike is playing with Ruth</em>,NA,NA,NA,html-keyboard-response,31,285913,0.0-19.0-0.0,anomymised,6560c4cfd080ba12b16d8282,6564c8bbcf7f7c36284efdf3,31162,1A,man,NA,null,NAME1 is playing with NAME2,play_active,sentence,NA,NA,NA,NA,NA
6265.400000095367,NA,NA,NA,NA,survey-likert-extra-labels,32,292179,0.0-19.0-1.0,anomymised,6560c4cfd080ba12b16d8282,6564c8bbcf7f7c36284efdf3,31162,1A,man,NA,NA,Somebody says<br><em>Mike is playing with Ruth</em>,play_active,rating_volition,"{""Q0"":5}",[0],The speaker identifies more with <br>Ruth than Mike,The speaker identifies more with<br>Mike than Ruth,right_to_left
null,Somebody says<br><em>Fred is being copied by Luke</em>,NA,NA,NA,html-keyboard-response,33,294181,0.0-20.0-0.0,anomymised,6560c4cfd080ba12b16d8282,6564c8bbcf7f7c36284efdf3,31162,1A,man,NA,null,NAME1 is being copied by NAME2,copy_passive,sentence,NA,NA,NA,NA,NA
6820.5,NA,NA,NA,NA,survey-likert-extra-labels,34,301004,0.0-20.0-1.0,anomymised,6560c4cfd080ba12b16d8282,6564c8bbcf7f7c36284efdf3,31162,1A,man,NA,NA,Somebody says<br><em>Fred is being copied by Luke</em>,copy_passive,rating_volition,"{""Q0"":4}",[0],The speaker identifies more with <br>Luke than Fred,The speaker identifies more with<br>Fred than Luke,right_to_left
null,Somebody says<br><em>Dave and Luke are flirting with each other</em>,NA,NA,NA,html-keyboard-response,35,303018,0.0-21.0-0.0,anomymised,6560c4cfd080ba12b16d8282,6564c8bbcf7f7c36284efdf3,31162,1A,man,NA,null,NAME1 and NAME2 are flirting with each other,flirt_conjoined,sentence,NA,NA,NA,NA,NA
13825.400000095367,NA,NA,NA,NA,survey-likert-extra-labels,36,316844,0.0-21.0-1.0,anomymised,6560c4cfd080ba12b16d8282,6564c8bbcf7f7c36284efdf3,31162,1A,man,NA,NA,Somebody says<br><em>Dave and Luke are flirting with each other</em>,flirt_conjoined,rating_volition,"{""Q0"":1}",[0],The speaker identifies more with <br>Dave than Luke,The speaker identifies more with<br>Luke than Dave,left_to_right
null,Somebody says<br><em>Beth is being seduced by Luke</em>,NA,NA,NA,html-keyboard-response,37,318861,0.0-22.0-0.0,anomymised,6560c4cfd080ba12b16d8282,6564c8bbcf7f7c36284efdf3,31162,1A,man,NA,null,NAME1 is being seduced by NAME2,seduce_passive,sentence,NA,NA,NA,NA,NA
6693.600000023842,NA,NA,NA,NA,survey-likert-extra-labels,38,325556,0.0-22.0-1.0,anomymised,6560c4cfd080ba12b16d8282,6564c8bbcf7f7c36284efdf3,31162,1A,man,NA,NA,Somebody says<br><em>Beth is being seduced by Luke</em>,seduce_passive,rating_volition,"{""Q0"":4}",[0],The speaker identifies more with <br>Luke than Beth,The speaker identifies more with<br>Beth than Luke,right_to_left
null,Somebody says<br><em>Ruth is chasing Kate,NA,NA,NA,html-keyboard-response,39,327571,0.0-23.0-0.0,anomymised,6560c4cfd080ba12b16d8282,6564c8bbcf7f7c36284efdf3,31162,1A,man,NA,null,W1 is chasing W3,chase,sentence,NA,NA,NA,NA,NA
8719.700000047684,NA,NA,NA,NA,survey-likert-extra-labels,40,336292,0.0-23.0-1.0,anomymised,6560c4cfd080ba12b16d8282,6564c8bbcf7f7c36284efdf3,31162,1A,man,NA,NA,Somebody says<br><em>Ruth is chasing Kate,chase,rating_volition,"{""Q0"":0}",[0],Ruth is behind Kate,Kate is behind Ruth,NA
null,Somebody says<br><em>Dave is challenging Jane</em>,NA,NA,NA,html-keyboard-response,41,338295,0.0-24.0-0.0,anomymised,6560c4cfd080ba12b16d8282,6564c8bbcf7f7c36284efdf3,31162,1A,man,NA,null,NAME1 is challenging NAME2,challenge_active,sentence,NA,NA,NA,NA,NA
6732.299999952316,NA,NA,NA,NA,survey-likert-extra-labels,42,345028,0.0-24.0-1.0,anomymised,6560c4cfd080ba12b16d8282,6564c8bbcf7f7c36284efdf3,31162,1A,man,NA,NA,Somebody says<br><em>Dave is challenging Jane</em>,challenge_active,rating_volition,"{""Q0"":1}",[0],The speaker identifies more with <br>Dave than Jane,The speaker identifies more with<br>Jane than Dave,left_to_right
null,Somebody says<br><em>Luke is driving Fred,NA,NA,NA,html-keyboard-response,43,347034,0.0-25.0-0.0,anomymised,6560c4cfd080ba12b16d8282,6564c8bbcf7f7c36284efdf3,31162,1A,man,NA,null,M1 is driving M3,drive,sentence,NA,NA,NA,NA,NA
7745.399999976158,NA,NA,NA,NA,survey-likert-extra-labels,44,354780,0.0-25.0-1.0,anomymised,6560c4cfd080ba12b16d8282,6564c8bbcf7f7c36284efdf3,31162,1A,man,NA,NA,Somebody says<br><em>Luke is driving Fred,drive,rating_volition,"{""Q0"":6}",[0],Luke is Fred's passenger,Fred is Luke's passenger,NA
null,Somebody says<br><em>Beth and Fred are talking with each other</em>,NA,NA,NA,html-keyboard-response,45,356785,0.0-26.0-0.0,anomymised,6560c4cfd080ba12b16d8282,6564c8bbcf7f7c36284efdf3,31162,1A,man,NA,null,NAME1 and NAME2 are talking with each other,talk_conjoined,sentence,NA,NA,NA,NA,NA
10202.299999952316,NA,NA,NA,NA,survey-likert-extra-labels,46,366988,0.0-26.0-1.0,anomymised,6560c4cfd080ba12b16d8282,6564c8bbcf7f7c36284efdf3,31162,1A,man,NA,NA,Somebody says<br><em>Beth and Fred are talking with each other</em>,talk_conjoined,rating_volition,"{""Q0"":5}",[0],The speaker identifies more with <br>Fred than Beth,The speaker identifies more with<br>Beth than Fred,right_to_left
null,Somebody says<br><em>Beth and Mike are arguing with each other</em>,NA,NA,NA,html-keyboard-response,47,368990,0.0-27.0-0.0,anomymised,6560c4cfd080ba12b16d8282,6564c8bbcf7f7c36284efdf3,31162,1A,man,NA,null,NAME1 and NAME2 are arguing with each other,argue_conjoined,sentence,NA,NA,NA,NA,NA
8717.399999976158,NA,NA,NA,NA,survey-likert-extra-labels,48,377708,0.0-27.0-1.0,anomymised,6560c4cfd080ba12b16d8282,6564c8bbcf7f7c36284efdf3,31162,1A,man,NA,NA,Somebody says<br><em>Beth and Mike are arguing with each other</em>,argue_conjoined,rating_volition,"{""Q0"":1}",[0],The speaker identifies more with <br>Beth than Mike,The speaker identifies more with<br>Mike than Beth,left_to_right
null,Somebody says<br><em>Mike is reminding Beth,NA,NA,NA,html-keyboard-response,49,379725,0.0-28.0-0.0,anomymised,6560c4cfd080ba12b16d8282,6564c8bbcf7f7c36284efdf3,31162,1A,man,NA,null,M2 is reminding W4,remind,sentence,NA,NA,NA,NA,NA
10998.099999904633,NA,NA,NA,NA,survey-likert-extra-labels,50,390724,0.0-28.0-1.0,anomymised,6560c4cfd080ba12b16d8282,6564c8bbcf7f7c36284efdf3,31162,1A,man,NA,NA,Somebody says<br><em>Mike is reminding Beth,remind,rating_volition,"{""Q0"":0}",[0],Mike is telling Beth again,Beth is telling Mike again,NA
null,Somebody says<br><em>Dave is dancing with Luke</em>,NA,NA,NA,html-keyboard-response,51,392736,0.0-29.0-0.0,anomymised,6560c4cfd080ba12b16d8282,6564c8bbcf7f7c36284efdf3,31162,1A,man,NA,null,NAME1 is dancing with NAME2,dance_active,sentence,NA,NA,NA,NA,NA
5322.300000071526,NA,NA,NA,NA,survey-likert-extra-labels,52,398059,0.0-29.0-1.0,anomymised,6560c4cfd080ba12b16d8282,6564c8bbcf7f7c36284efdf3,31162,1A,man,NA,NA,Somebody says<br><em>Dave is dancing with Luke</em>,dance_active,rating_volition,"{""Q0"":0}",[0],The speaker identifies more with <br>Dave than Luke,The speaker identifies more with<br>Luke than Dave,left_to_right
null,Somebody says<br><em>Dave is being challenged by Kate</em>,NA,NA,NA,html-keyboard-response,53,400068,0.0-30.0-0.0,anomymised,6560c4cfd080ba12b16d8282,6564c8bbcf7f7c36284efdf3,31162,1A,man,NA,null,NAME1 is being challenged by NAME2,challenge_passive,sentence,NA,NA,NA,NA,NA
6142.800000071526,NA,NA,NA,NA,survey-likert-extra-labels,54,406211,0.0-30.0-1.0,anomymised,6560c4cfd080ba12b16d8282,6564c8bbcf7f7c36284efdf3,31162,1A,man,NA,NA,Somebody says<br><em>Dave is being challenged by Kate</em>,challenge_passive,rating_volition,"{""Q0"":6}",[0],The speaker identifies more with <br>Kate than Dave,The speaker identifies more with<br>Dave than Kate,right_to_left
null,Somebody says<br><em>Kate is being opposed by Dave</em>,NA,NA,NA,html-keyboard-response,55,408223,0.0-31.0-0.0,anomymised,6560c4cfd080ba12b16d8282,6564c8bbcf7f7c36284efdf3,31162,1A,man,NA,null,NAME1 is being opposed by NAME2,oppose_passive,sentence,NA,NA,NA,NA,NA
9411.5,NA,NA,NA,NA,survey-likert-extra-labels,56,417635,0.0-31.0-1.0,anomymised,6560c4cfd080ba12b16d8282,6564c8bbcf7f7c36284efdf3,31162,1A,man,NA,NA,Somebody says<br><em>Kate is being opposed by Dave</em>,oppose_passive,rating_volition,"{""Q0"":0}",[0],The speaker identifies more with <br>Kate than Dave,The speaker identifies more with<br>Dave than Kate,left_to_right
null,Somebody says<br><em>Fred and Jane are shouting at each other</em>,NA,NA,NA,html-keyboard-response,57,419644,0.0-32.0-0.0,anomymised,6560c4cfd080ba12b16d8282,6564c8bbcf7f7c36284efdf3,31162,1A,man,NA,null,NAME1 and NAME2 are shouting at each other,shout_conjoined,sentence,NA,NA,NA,NA,NA
6895.099999904633,NA,NA,NA,NA,survey-likert-extra-labels,58,426540,0.0-32.0-1.0,anomymised,6560c4cfd080ba12b16d8282,6564c8bbcf7f7c36284efdf3,31162,1A,man,NA,NA,Somebody says<br><em>Fred and Jane are shouting at each other</em>,shout_conjoined,rating_volition,"{""Q0"":0}",[0],The speaker identifies more with <br>Fred than Jane,The speaker identifies more with<br>Jane than Fred,left_to_right
null,Somebody says<br><em>Dave is meeting Fred</em>,NA,NA,NA,html-keyboard-response,59,428547,0.0-33.0-0.0,anomymised,6560c4cfd080ba12b16d8282,6564c8bbcf7f7c36284efdf3,31162,1A,man,NA,null,NAME1 is meeting NAME2,meet_active,sentence,NA,NA,NA,NA,NA
6223.200000047684,NA,NA,NA,NA,survey-likert-extra-labels,60,434771,0.0-33.0-1.0,anomymised,6560c4cfd080ba12b16d8282,6564c8bbcf7f7c36284efdf3,31162,1A,man,NA,NA,Somebody says<br><em>Dave is meeting Fred</em>,meet_active,rating_volition,"{""Q0"":0}",[0],The speaker identifies more with <br>Dave than Fred,The speaker identifies more with<br>Fred than Dave,left_to_right
null,Somebody says<br><em>Ruth and Jane are marrying each other</em>,NA,NA,NA,html-keyboard-response,61,436779,0.0-34.0-0.0,anomymised,6560c4cfd080ba12b16d8282,6564c8bbcf7f7c36284efdf3,31162,1A,man,NA,null,NAME1 and NAME2 are marrying each other,marry_conjoined,sentence,NA,NA,NA,NA,NA
6624.100000023842,NA,NA,NA,NA,survey-likert-extra-labels,62,443403,0.0-34.0-1.0,anomymised,6560c4cfd080ba12b16d8282,6564c8bbcf7f7c36284efdf3,31162,1A,man,NA,NA,Somebody says<br><em>Ruth and Jane are marrying each other</em>,marry_conjoined,rating_volition,"{""Q0"":6}",[0],The speaker identifies more with <br>Jane than Ruth,The speaker identifies more with<br>Ruth than Jane,right_to_left
null,Somebody says<br><em>Luke is looking at Beth</em>,NA,NA,NA,html-keyboard-response,63,445419,0.0-35.0-0.0,anomymised,6560c4cfd080ba12b16d8282,6564c8bbcf7f7c36284efdf3,31162,1A,man,NA,null,NAME1 is looking at NAME2,look_active,sentence,NA,NA,NA,NA,NA
5743.900000095367,NA,NA,NA,NA,survey-likert-extra-labels,64,451164,0.0-35.0-1.0,anomymised,6560c4cfd080ba12b16d8282,6564c8bbcf7f7c36284efdf3,31162,1A,man,NA,NA,Somebody says<br><em>Luke is looking at Beth</em>,look_active,rating_volition,"{""Q0"":0}",[0],The speaker identifies more with <br>Luke than Beth,The speaker identifies more with<br>Beth than Luke,left_to_right
null,Somebody says<br><em>Mike and Fred are kissing each other</em>,NA,NA,NA,html-keyboard-response,65,453171,0.0-36.0-0.0,anomymised,6560c4cfd080ba12b16d8282,6564c8bbcf7f7c36284efdf3,31162,1A,man,NA,null,NAME1 and NAME2 are kissing each other,kiss_conjoined,sentence,NA,NA,NA,NA,NA
5143.700000047684,NA,NA,NA,NA,survey-likert-extra-labels,66,458315,0.0-36.0-1.0,anomymised,6560c4cfd080ba12b16d8282,6564c8bbcf7f7c36284efdf3,31162,1A,man,NA,NA,Somebody says<br><em>Mike and Fred are kissing each other</em>,kiss_conjoined,rating_volition,"{""Q0"":6}",[0],The speaker identifies more with <br>Fred than Mike,The speaker identifies more with<br>Mike than Fred,right_to_left
null,Somebody says<br><em>Beth is kissing Jane</em>,NA,NA,NA,html-keyboard-response,67,460317,0.0-37.0-0.0,anomymised,6560c4cfd080ba12b16d8282,6564c8bbcf7f7c36284efdf3,31162,1A,man,NA,null,NAME1 is kissing NAME2,kiss_active,sentence,NA,NA,NA,NA,NA
5253.399999976158,NA,NA,NA,NA,survey-likert-extra-labels,68,465572,0.0-37.0-1.0,anomymised,6560c4cfd080ba12b16d8282,6564c8bbcf7f7c36284efdf3,31162,1A,man,NA,NA,Somebody says<br><em>Beth is kissing Jane</em>,kiss_active,rating_volition,"{""Q0"":6}",[0],The speaker identifies more with <br>Jane than Beth,The speaker identifies more with<br>Beth than Jane,right_to_left
null,Somebody says<br><em>Jane is greeting Mike</em>,NA,NA,NA,html-keyboard-response,69,467579,0.0-38.0-0.0,anomymised,6560c4cfd080ba12b16d8282,6564c8bbcf7f7c36284efdf3,31162,1A,man,NA,null,NAME1 is greeting NAME2,greet_active,sentence,NA,NA,NA,NA,NA
6231.700000047684,NA,NA,NA,NA,survey-likert-extra-labels,70,473811,0.0-38.0-1.0,anomymised,6560c4cfd080ba12b16d8282,6564c8bbcf7f7c36284efdf3,31162,1A,man,NA,NA,Somebody says<br><em>Jane is greeting Mike</em>,greet_active,rating_volition,"{""Q0"":6}",[0],The speaker identifies more with <br>Mike than Jane,The speaker identifies more with<br>Jane than Mike,right_to_left
null,Somebody says<br><em>Dave is being greeted by Luke</em>,NA,NA,NA,html-keyboard-response,71,475820,0.0-39.0-0.0,anomymised,6560c4cfd080ba12b16d8282,6564c8bbcf7f7c36284efdf3,31162,1A,man,NA,null,NAME1 is being greeted by NAME2,greet_passive,sentence,NA,NA,NA,NA,NA
5926.899999976158,NA,NA,NA,NA,survey-likert-extra-labels,72,481747,0.0-39.0-1.0,anomymised,6560c4cfd080ba12b16d8282,6564c8bbcf7f7c36284efdf3,31162,1A,man,NA,NA,Somebody says<br><em>Dave is being greeted by Luke</em>,greet_passive,rating_volition,"{""Q0"":0}",[0],The speaker identifies more with <br>Dave than Luke,The speaker identifies more with<br>Luke than Dave,left_to_right
null,Somebody says<br><em>Kate is shouting at Jane</em>,NA,NA,NA,html-keyboard-response,73,483761,0.0-40.0-0.0,anomymised,6560c4cfd080ba12b16d8282,6564c8bbcf7f7c36284efdf3,31162,1A,man,NA,null,NAME1 is shouting at NAME2,shout_active,sentence,NA,NA,NA,NA,NA
9217.399999976158,NA,NA,NA,NA,survey-likert-extra-labels,74,492979,0.0-40.0-1.0,anomymised,6560c4cfd080ba12b16d8282,6564c8bbcf7f7c36284efdf3,31162,1A,man,NA,NA,Somebody says<br><em>Kate is shouting at Jane</em>,shout_active,rating_volition,"{""Q0"":2}",[0],The speaker identifies more with <br>Jane than Kate,The speaker identifies more with<br>Kate than Jane,right_to_left
null,Somebody says<br><em>Dave is being touched by Mike</em>,NA,NA,NA,html-keyboard-response,75,494991,0.0-41.0-0.0,anomymised,6560c4cfd080ba12b16d8282,6564c8bbcf7f7c36284efdf3,31162,1A,man,NA,null,NAME1 is being touched by NAME2,touch_passive,sentence,NA,NA,NA,NA,NA
5603.399999976158,NA,NA,NA,NA,survey-likert-extra-labels,76,500595,0.0-41.0-1.0,anomymised,6560c4cfd080ba12b16d8282,6564c8bbcf7f7c36284efdf3,31162,1A,man,NA,NA,Somebody says<br><em>Dave is being touched by Mike</em>,touch_passive,rating_volition,"{""Q0"":0}",[0],The speaker identifies more with <br>Dave than Mike,The speaker identifies more with<br>Mike than Dave,left_to_right
null,Somebody says<br><em>Dave and Jane are fighting with each other</em>,NA,NA,NA,html-keyboard-response,77,502598,0.0-42.0-0.0,anomymised,6560c4cfd080ba12b16d8282,6564c8bbcf7f7c36284efdf3,31162,1A,man,NA,null,NAME1 and NAME2 are fighting with each other,fight_conjoined,sentence,NA,NA,NA,NA,NA
10204.699999928474,NA,NA,NA,NA,survey-likert-extra-labels,78,512804,0.0-42.0-1.0,anomymised,6560c4cfd080ba12b16d8282,6564c8bbcf7f7c36284efdf3,31162,1A,man,NA,NA,Somebody says<br><em>Dave and Jane are fighting with each other</em>,fight_conjoined,rating_volition,"{""Q0"":2}",[0],The speaker identifies more with <br>Dave than Jane,The speaker identifies more with<br>Jane than Dave,left_to_right
null,Somebody says<br><em>Ruth is fighting with Dave</em>,NA,NA,NA,html-keyboard-response,79,514808,0.0-43.0-0.0,anomymised,6560c4cfd080ba12b16d8282,6564c8bbcf7f7c36284efdf3,31162,1A,man,NA,null,NAME1 is fighting with NAME2,fight_active,sentence,NA,NA,NA,NA,NA
7706.399999976158,NA,NA,NA,NA,survey-likert-extra-labels,80,522515,0.0-43.0-1.0,anomymised,6560c4cfd080ba12b16d8282,6564c8bbcf7f7c36284efdf3,31162,1A,man,NA,NA,Somebody says<br><em>Ruth is fighting with Dave</em>,fight_active,rating_volition,"{""Q0"":2}",[0],The speaker identifies more with <br>Dave than Ruth,The speaker identifies more with<br>Ruth than Dave,right_to_left
null,Somebody says<br><em>Mike is being looked at by Kate</em>,NA,NA,NA,html-keyboard-response,81,524517,0.0-44.0-0.0,anomymised,6560c4cfd080ba12b16d8282,6564c8bbcf7f7c36284efdf3,31162,1A,man,NA,null,NAME1 is being looked at by NAME2,look_passive,sentence,NA,NA,NA,NA,NA
32820.89999997616,NA,NA,NA,NA,survey-likert-extra-labels,82,557339,0.0-44.0-1.0,anomymised,6560c4cfd080ba12b16d8282,6564c8bbcf7f7c36284efdf3,31162,1A,man,NA,NA,Somebody says<br><em>Mike is being looked at by Kate</em>,look_passive,rating_volition,"{""Q0"":5}",[0],The speaker identifies more with <br>Kate than Mike,The speaker identifies more with<br>Mike than Kate,right_to_left
null,Somebody says<br><em>Jane is marrying Kate</em>,NA,NA,NA,html-keyboard-response,83,559346,0.0-45.0-0.0,anomymised,6560c4cfd080ba12b16d8282,6564c8bbcf7f7c36284efdf3,31162,1A,man,NA,null,NAME1 is marrying NAME2,marry_active,sentence,NA,NA,NA,NA,NA
6920.300000071526,NA,NA,NA,NA,survey-likert-extra-labels,84,566267,0.0-45.0-1.0,anomymised,6560c4cfd080ba12b16d8282,6564c8bbcf7f7c36284efdf3,31162,1A,man,NA,NA,Somebody says<br><em>Jane is marrying Kate</em>,marry_active,rating_volition,"{""Q0"":3}",[0],The speaker identifies more with <br>Jane than Kate,The speaker identifies more with<br>Kate than Jane,left_to_right
null,Somebody says<br><em>Jane is teaching Dave,NA,NA,NA,html-keyboard-response,85,568275,0.0-46.0-0.0,anomymised,6560c4cfd080ba12b16d8282,6564c8bbcf7f7c36284efdf3,31162,1A,man,NA,null,W2 is teaching M4,teach,sentence,NA,NA,NA,NA,NA
9903.600000023842,NA,NA,NA,NA,survey-likert-extra-labels,86,578179,0.0-46.0-1.0,anomymised,6560c4cfd080ba12b16d8282,6564c8bbcf7f7c36284efdf3,31162,1A,man,NA,NA,Somebody says<br><em>Jane is teaching Dave,teach,rating_volition,"{""Q0"":2}",[0],Jane is educating Dave,Dave is educating Jane,NA
null,Somebody says<br><em>Mike is being shouted at by Kate</em>,NA,NA,NA,html-keyboard-response,87,580181,0.0-47.0-0.0,anomymised,6560c4cfd080ba12b16d8282,6564c8bbcf7f7c36284efdf3,31162,1A,man,NA,null,NAME1 is being shouted at by NAME2,shout_passive,sentence,NA,NA,NA,NA,NA
5925,NA,NA,NA,NA,survey-likert-extra-labels,88,586107,0.0-47.0-1.0,anomymised,6560c4cfd080ba12b16d8282,6564c8bbcf7f7c36284efdf3,31162,1A,man,NA,NA,Somebody says<br><em>Mike is being shouted at by Kate</em>,shout_passive,rating_volition,"{""Q0"":6}",[0],The speaker identifies more with <br>Kate than Mike,The speaker identifies more with<br>Mike than Kate,right_to_left
null,Somebody says<br><em>Mike and Beth are dancing with each other</em>,NA,NA,NA,html-keyboard-response,89,588113,0.0-48.0-0.0,anomymised,6560c4cfd080ba12b16d8282,6564c8bbcf7f7c36284efdf3,31162,1A,man,NA,null,NAME1 and NAME2 are dancing with each other,dance_conjoined,sentence,NA,NA,NA,NA,NA
7481.5,NA,NA,NA,NA,survey-likert-extra-labels,90,595595,0.0-48.0-1.0,anomymised,6560c4cfd080ba12b16d8282,6564c8bbcf7f7c36284efdf3,31162,1A,man,NA,NA,Somebody says<br><em>Mike and Beth are dancing with each other</em>,dance_conjoined,rating_volition,"{""Q0"":2}",[0],The speaker identifies more with <br>Mike than Beth,The speaker identifies more with<br>Beth than Mike,left_to_right
null,Somebody says<br><em>Mike and Ruth are playing with each other</em>,NA,NA,NA,html-keyboard-response,91,597608,0.0-49.0-0.0,anomymised,6560c4cfd080ba12b16d8282,6564c8bbcf7f7c36284efdf3,31162,1A,man,NA,null,NAME1 and NAME2 are playing with each other,play_conjoined,sentence,NA,NA,NA,NA,NA
3562.3000000715256,NA,NA,NA,NA,survey-likert-extra-labels,92,601171,0.0-49.0-1.0,anomymised,6560c4cfd080ba12b16d8282,6564c8bbcf7f7c36284efdf3,31162,1A,man,NA,NA,Somebody says<br><em>Mike and Ruth are playing with each other</em>,play_conjoined,rating_volition,"{""Q0"":3}",[0],The speaker identifies more with <br>Mike than Ruth,The speaker identifies more with<br>Ruth than Mike,left_to_right
null,Somebody says<br><em>Fred is opposing Dave</em>,NA,NA,NA,html-keyboard-response,93,603185,0.0-50.0-0.0,anomymised,6560c4cfd080ba12b16d8282,6564c8bbcf7f7c36284efdf3,31162,1A,man,NA,null,NAME1 is opposing NAME2,oppose_active,sentence,NA,NA,NA,NA,NA
5224.899999976158,NA,NA,NA,NA,survey-likert-extra-labels,94,608411,0.0-50.0-1.0,anomymised,6560c4cfd080ba12b16d8282,6564c8bbcf7f7c36284efdf3,31162,1A,man,NA,NA,Somebody says<br><em>Fred is opposing Dave</em>,oppose_active,rating_volition,"{""Q0"":5}",[0],The speaker identifies more with <br>Fred than Dave,The speaker identifies more with<br>Dave than Fred,left_to_right
null,Somebody says<br><em>Dave is flirting with Ruth</em>,NA,NA,NA,html-keyboard-response,95,610419,0.0-51.0-0.0,anomymised,6560c4cfd080ba12b16d8282,6564c8bbcf7f7c36284efdf3,31162,1A,man,NA,null,NAME1 is flirting with NAME2,flirt_active,sentence,NA,NA,NA,NA,NA
7671,NA,NA,NA,NA,survey-likert-extra-labels,96,618091,0.0-51.0-1.0,anomymised,6560c4cfd080ba12b16d8282,6564c8bbcf7f7c36284efdf3,31162,1A,man,NA,NA,Somebody says<br><em>Dave is flirting with Ruth</em>,flirt_active,rating_volition,"{""Q0"":4}",[0],The speaker identifies more with <br>Dave than Ruth,The speaker identifies more with<br>Ruth than Dave,left_to_right
null,Somebody says<br><em>Luke is seducing Beth</em>,NA,NA,NA,html-keyboard-response,97,620106,0.0-52.0-0.0,anomymised,6560c4cfd080ba12b16d8282,6564c8bbcf7f7c36284efdf3,31162,1A,man,NA,null,NAME1 is seducing NAME2,seduce_active,sentence,NA,NA,NA,NA,NA
6191.899999976158,NA,NA,NA,NA,survey-likert-extra-labels,98,626299,0.0-52.0-1.0,anomymised,6560c4cfd080ba12b16d8282,6564c8bbcf7f7c36284efdf3,31162,1A,man,NA,NA,Somebody says<br><em>Luke is seducing Beth</em>,seduce_active,rating_volition,"{""Q0"":1}",[0],The speaker identifies more with <br>Beth than Luke,The speaker identifies more with<br>Luke than Beth,right_to_left
null,Somebody says<br><em>Fred is hiring Ruth,NA,NA,NA,html-keyboard-response,99,628315,0.0-53.0-0.0,anomymised,6560c4cfd080ba12b16d8282,6564c8bbcf7f7c36284efdf3,31162,1A,man,NA,null,M3 is hiring W1,hire,sentence,NA,NA,NA,NA,NA
9519.100000023842,NA,NA,NA,NA,survey-likert-extra-labels,100,637835,0.0-53.0-1.0,anomymised,6560c4cfd080ba12b16d8282,6564c8bbcf7f7c36284efdf3,31162,1A,man,NA,NA,Somebody says<br><em>Fred is hiring Ruth,hire,rating_volition,"{""Q0"":0}",[0],Fred is employing Ruth,Ruth is employing Fred,NA
null,Somebody says<br><em>Kate is feeding Luke,NA,NA,NA,html-keyboard-response,101,639844,0.0-54.0-0.0,anomymised,6560c4cfd080ba12b16d8282,6564c8bbcf7f7c36284efdf3,31162,1A,man,NA,null,W3 is feeding M1,feed,sentence,NA,NA,NA,NA,NA
12133.399999976158,NA,NA,NA,NA,survey-likert-extra-labels,102,651979,0.0-54.0-1.0,anomymised,6560c4cfd080ba12b16d8282,6564c8bbcf7f7c36284efdf3,31162,1A,man,NA,NA,Somebody says<br><em>Kate is feeding Luke,feed,rating_volition,"{""Q0"":0}",[0],Kate cooked for Luke,Luke cooked for Kate,NA
null,Somebody says<br><em>Beth is shouting at Fred</em>,NA,NA,NA,html-keyboard-response,103,653981,0.0-55.0-0.0,anomymised,6560c4cfd080ba12b16d8282,6564c8bbcf7f7c36284efdf3,31162,1A,man,NA,null,NAME1 is shouting at NAME2,shout_active,sentence,NA,NA,NA,NA,NA
7221.299999952316,NA,NA,NA,NA,survey-likert-extra-labels,104,661203,0.0-55.0-1.0,anomymised,6560c4cfd080ba12b16d8282,6564c8bbcf7f7c36284efdf3,31162,1A,man,NA,NA,Somebody says<br><em>Beth is shouting at Fred</em>,shout_active,rating_volition,"{""Q0"":1}",[0],The speaker identifies more with <br>Fred than Beth,The speaker identifies more with<br>Beth than Fred,right_to_left
2398.100000023842,<p>Thank you for completing that task.</p><p>The final part of this session is a short questionnaire.</p><p>Press Continue.</p>,0,Continue,Continue,html-button-response,105,663602,0.0-56.0,anomymised,6560c4cfd080ba12b16d8282,6564c8bbcf7f7c36284efdf3,31162,1A,man,NA,NA,NA,NA,NA,NA,NA,NA,NA,NA
39092.799999952316,NA,NA,NA,NA,survey-text,106,703698,0.0-57.0,anomymised,6560c4cfd080ba12b16d8282,6564c8bbcf7f7c36284efdf3,31162,1A,man,NA,NA,NA,NA,demographics,"{""Q0"":""45"",""Q1"":""English"",""Q2"":""English"",""Q3"":""United Kingdom"",""Q4"":""British"",""Q5"":""White"",""Q6"":""Male""}",NA,NA,NA,NA
2902.7000000476837,<p>This is the last question - thank you for taking part! Have you lived in the UK for the last 5 years or more?</p>,0,"Yes,No",Yes,html-button-response,107,706602,0.0-58.0,anomymised,6560c4cfd080ba12b16d8282,6564c8bbcf7f7c36284efdf3,31162,1A,man,NA,NA,NA,NA,fiveyears,NA,NA,NA,NA,NA
