rt,stimulus,button_pressed,choices,ChosenStimulus,trial_type,trial_index,time_elapsed,internal_node_id,subject_id,study_id,session_id,subject,list,ppt_gender,url,key_press,sentence_type,verb,test_part,responses,question_order,left_part,right_part,name_order
3242.099999964237,Welcome to the experiment. Press Continue to begin.,0,Continue,Continue,html-button-response,0,3244,0.0-0.0,anomymised,6560c4cfd080ba12b16d8282,6564c8e673afc1c8830cf57a,33531,1A,man,NA,NA,NA,NA,NA,NA,NA,NA,NA,NA
58352.90000003576,NA,NA,NA,NA,external-html,1,62697,0.0-1.0,anomymised,6560c4cfd080ba12b16d8282,6564c8e673afc1c8830cf57a,33531,1A,man,consent.html,NA,NA,NA,NA,NA,NA,NA,NA,NA
1794.8999999761581,"<p>Welcome.</p><p>In this experiment we will ask you to imagine people's motivations for saying sentences.</p><p>Each trial will begin with a sentence that somebody might say to describe an event involving two different people.</p><p>For instance, someone might say <em>Harry is being recruited by Molly</em></p><p>We want you to think about which of those two people (Molly and Harry) the speaker identifies more with. For instance, why did the speaker say <em>Harry is being recruited by Molly</em> rather than <em> Molly is recruiting Harry</em>? Might that mean that the speaker is socially closer to one of the two characters?</p><p>After you have read the sentence, you will rate on a scale which of the two characters the speaker identifies more with.</p><p>You will give your answer by clicking a button on a rating scale.</p><p>Sometimes there will also be catch questions designed to make sure that you are paying attention, which ask about a different topic.</p><p>To do this task, you will have to use your imagination to think about and visualise the events, and how the speaker might relate to the characters.</p><br><p>Ready?</p>",0,Continue,Continue,html-button-response,2,64492,0.0-2.0,anomymised,6560c4cfd080ba12b16d8282,6564c8e673afc1c8830cf57a,33531,1A,man,NA,NA,NA,NA,NA,NA,NA,NA,NA,NA
2036.5999999642372,"<p>Before the experiment starts, we will show you an example of how you will answer the questions. Press 'Continue'.</p>",0,Continue,Continue,html-button-response,3,67544,0.0-3.0,anomymised,6560c4cfd080ba12b16d8282,6564c8e673afc1c8830cf57a,33531,1A,man,NA,NA,NA,NA,NA,NA,NA,NA,NA,NA
null,Somebody says <br><em>Samuel is dining with Frank</em>,NA,NA,NA,html-keyboard-response,4,70565,0.0-4.0,anomymised,6560c4cfd080ba12b16d8282,6564c8e673afc1c8830cf57a,33531,1A,man,NA,null,NA,NA,NA,NA,NA,NA,NA,NA
34687.19999998808,<img src='img/Example-trial.jpg' style='height:550px;''></img>,0,Continue,Continue,html-button-response,5,105254,0.0-5.0,anomymised,6560c4cfd080ba12b16d8282,6564c8e673afc1c8830cf57a,33531,1A,man,NA,NA,NA,NA,NA,NA,NA,NA,NA,NA
3229.100000023842,<p>Ready to start the experiment?</p><br><p><strong>Remember to give an answer by clicking a button on the rating scale.</strong></p><p>Press 'Continue' to begin.</p>,0,Continue,Continue,html-button-response,6,109502,0.0-6.0,anomymised,6560c4cfd080ba12b16d8282,6564c8e673afc1c8830cf57a,33531,1A,man,NA,NA,NA,NA,NA,NA,NA,NA,NA,NA
null,Somebody says<br><em>Ruth is kissing Jane</em>,NA,NA,NA,html-keyboard-response,7,112521,0.0-7.0-0.0,anomymised,6560c4cfd080ba12b16d8282,6564c8e673afc1c8830cf57a,33531,1A,man,NA,null,NAME1 is kissing NAME2,kiss_active,sentence,NA,NA,NA,NA,NA
16903.599999964237,NA,NA,NA,NA,survey-likert-extra-labels,8,129427,0.0-7.0-1.0,anomymised,6560c4cfd080ba12b16d8282,6564c8e673afc1c8830cf57a,33531,1A,man,NA,NA,Somebody says<br><em>Ruth is kissing Jane</em>,kiss_active,rating_volition,"{""Q0"":3}",[0],The speaker identifies more with <br>Ruth than Jane,The speaker identifies more with<br>Jane than Ruth,left_to_right
null,Somebody says<br><em>Kate and Dave are marrying each other</em>,NA,NA,NA,html-keyboard-response,9,131430,0.0-8.0-0.0,anomymised,6560c4cfd080ba12b16d8282,6564c8e673afc1c8830cf57a,33531,1A,man,NA,null,NAME1 and NAME2 are marrying each other,marry_conjoined,sentence,NA,NA,NA,NA,NA
5970.600000023842,NA,NA,NA,NA,survey-likert-extra-labels,10,137402,0.0-8.0-1.0,anomymised,6560c4cfd080ba12b16d8282,6564c8e673afc1c8830cf57a,33531,1A,man,NA,NA,Somebody says<br><em>Kate and Dave are marrying each other</em>,marry_conjoined,rating_volition,"{""Q0"":3}",[0],The speaker identifies more with <br>Kate than Dave,The speaker identifies more with<br>Dave than Kate,left_to_right
null,Somebody says<br><em>Dave and Ruth are dancing with each other</em>,NA,NA,NA,html-keyboard-response,11,139412,0.0-9.0-0.0,anomymised,6560c4cfd080ba12b16d8282,6564c8e673afc1c8830cf57a,33531,1A,man,NA,null,NAME1 and NAME2 are dancing with each other,dance_conjoined,sentence,NA,NA,NA,NA,NA
3611.599999964237,NA,NA,NA,NA,survey-likert-extra-labels,12,143026,0.0-9.0-1.0,anomymised,6560c4cfd080ba12b16d8282,6564c8e673afc1c8830cf57a,33531,1A,man,NA,NA,Somebody says<br><em>Dave and Ruth are dancing with each other</em>,dance_conjoined,rating_volition,"{""Q0"":3}",[0],The speaker identifies more with <br>Dave than Ruth,The speaker identifies more with<br>Ruth than Dave,left_to_right
null,Somebody says<br><em>Fred is touching Kate</em>,NA,NA,NA,html-keyboard-response,13,145029,0.0-10.0-0.0,anomymised,6560c4cfd080ba12b16d8282,6564c8e673afc1c8830cf57a,33531,1A,man,NA,null,NAME1 is touching NAME2,touch_active,sentence,NA,NA,NA,NA,NA
6295.300000011921,NA,NA,NA,NA,survey-likert-extra-labels,14,151326,0.0-10.0-1.0,anomymised,6560c4cfd080ba12b16d8282,6564c8e673afc1c8830cf57a,33531,1A,man,NA,NA,Somebody says<br><em>Fred is touching Kate</em>,touch_active,rating_volition,"{""Q0"":3}",[0],The speaker identifies more with <br>Kate than Fred,The speaker identifies more with<br>Fred than Kate,right_to_left
null,Somebody says<br><em>Fred is hiring Ruth,NA,NA,NA,html-keyboard-response,15,153333,0.0-11.0-0.0,anomymised,6560c4cfd080ba12b16d8282,6564c8e673afc1c8830cf57a,33531,1A,man,NA,null,M3 is hiring W1,hire,sentence,NA,NA,NA,NA,NA
8415.600000023842,NA,NA,NA,NA,survey-likert-extra-labels,16,161750,0.0-11.0-1.0,anomymised,6560c4cfd080ba12b16d8282,6564c8e673afc1c8830cf57a,33531,1A,man,NA,NA,Somebody says<br><em>Fred is hiring Ruth,hire,rating_volition,"{""Q0"":5}",[0],Fred is employing Ruth,Ruth is employing Fred,NA
null,Somebody says<br><em>Mike is posing for Dave,NA,NA,NA,html-keyboard-response,17,163755,0.0-12.0-0.0,anomymised,6560c4cfd080ba12b16d8282,6564c8e673afc1c8830cf57a,33531,1A,man,NA,null,M2 is posing for M4,pose,sentence,NA,NA,NA,NA,NA
11241,NA,NA,NA,NA,survey-likert-extra-labels,18,174998,0.0-12.0-1.0,anomymised,6560c4cfd080ba12b16d8282,6564c8e673afc1c8830cf57a,33531,1A,man,NA,NA,Somebody says<br><em>Mike is posing for Dave,pose,rating_volition,"{""Q0"":1}",[0],Mike is modelling for Dave,Dave is modelling for Mike,NA
null,Somebody says<br><em>Jane is hugging Kate</em>,NA,NA,NA,html-keyboard-response,19,177004,0.0-13.0-0.0,anomymised,6560c4cfd080ba12b16d8282,6564c8e673afc1c8830cf57a,33531,1A,man,NA,null,NAME1 is hugging NAME2,hug_active,sentence,NA,NA,NA,NA,NA
5626.300000011921,NA,NA,NA,NA,survey-likert-extra-labels,20,182632,0.0-13.0-1.0,anomymised,6560c4cfd080ba12b16d8282,6564c8e673afc1c8830cf57a,33531,1A,man,NA,NA,Somebody says<br><em>Jane is hugging Kate</em>,hug_active,rating_volition,"{""Q0"":3}",[0],The speaker identifies more with <br>Jane than Kate,The speaker identifies more with<br>Kate than Jane,left_to_right
null,Somebody says<br><em>Dave is shouting at Fred</em>,NA,NA,NA,html-keyboard-response,21,184640,0.0-14.0-0.0,anomymised,6560c4cfd080ba12b16d8282,6564c8e673afc1c8830cf57a,33531,1A,man,NA,null,NAME1 is shouting at NAME2,shout_active,sentence,NA,NA,NA,NA,NA
3126.800000011921,NA,NA,NA,NA,survey-likert-extra-labels,22,187768,0.0-14.0-1.0,anomymised,6560c4cfd080ba12b16d8282,6564c8e673afc1c8830cf57a,33531,1A,man,NA,NA,Somebody says<br><em>Dave is shouting at Fred</em>,shout_active,rating_volition,"{""Q0"":3}",[0],The speaker identifies more with <br>Fred than Dave,The speaker identifies more with<br>Dave than Fred,right_to_left
null,Somebody says<br><em>Ruth is being kissed by Fred</em>,NA,NA,NA,html-keyboard-response,23,189785,0.0-15.0-0.0,anomymised,6560c4cfd080ba12b16d8282,6564c8e673afc1c8830cf57a,33531,1A,man,NA,null,NAME1 is being kissed by NAME2,kiss_passive,sentence,NA,NA,NA,NA,NA
16463.600000023842,NA,NA,NA,NA,survey-likert-extra-labels,24,206250,0.0-15.0-1.0,anomymised,6560c4cfd080ba12b16d8282,6564c8e673afc1c8830cf57a,33531,1A,man,NA,NA,Somebody says<br><em>Ruth is being kissed by Fred</em>,kiss_passive,rating_volition,"{""Q0"":2}",[0],The speaker identifies more with <br>Ruth than Fred,The speaker identifies more with<br>Fred than Ruth,left_to_right
null,Somebody says<br><em>Luke is playing with Jane</em>,NA,NA,NA,html-keyboard-response,25,208267,0.0-16.0-0.0,anomymised,6560c4cfd080ba12b16d8282,6564c8e673afc1c8830cf57a,33531,1A,man,NA,null,NAME1 is playing with NAME2,play_active,sentence,NA,NA,NA,NA,NA
15119.599999964237,NA,NA,NA,NA,survey-likert-extra-labels,26,223388,0.0-16.0-1.0,anomymised,6560c4cfd080ba12b16d8282,6564c8e673afc1c8830cf57a,33531,1A,man,NA,NA,Somebody says<br><em>Luke is playing with Jane</em>,play_active,rating_volition,"{""Q0"":1}",[0],The speaker identifies more with <br>Luke than Jane,The speaker identifies more with<br>Jane than Luke,left_to_right
null,Somebody says<br><em>Ruth is opposing Luke</em>,NA,NA,NA,html-keyboard-response,27,225392,0.0-17.0-0.0,anomymised,6560c4cfd080ba12b16d8282,6564c8e673afc1c8830cf57a,33531,1A,man,NA,null,NAME1 is opposing NAME2,oppose_active,sentence,NA,NA,NA,NA,NA
18665.799999952316,NA,NA,NA,NA,survey-likert-extra-labels,28,244060,0.0-17.0-1.0,anomymised,6560c4cfd080ba12b16d8282,6564c8e673afc1c8830cf57a,33531,1A,man,NA,NA,Somebody says<br><em>Ruth is opposing Luke</em>,oppose_active,rating_volition,"{""Q0"":1}",[0],The speaker identifies more with <br>Luke than Ruth,The speaker identifies more with<br>Ruth than Luke,right_to_left
null,Somebody says<br><em>Ruth is challenging Jane</em>,NA,NA,NA,html-keyboard-response,29,246063,0.0-18.0-0.0,anomymised,6560c4cfd080ba12b16d8282,6564c8e673afc1c8830cf57a,33531,1A,man,NA,null,NAME1 is challenging NAME2,challenge_active,sentence,NA,NA,NA,NA,NA
3337.5,NA,NA,NA,NA,survey-likert-extra-labels,30,249402,0.0-18.0-1.0,anomymised,6560c4cfd080ba12b16d8282,6564c8e673afc1c8830cf57a,33531,1A,man,NA,NA,Somebody says<br><em>Ruth is challenging Jane</em>,challenge_active,rating_volition,"{""Q0"":2}",[0],The speaker identifies more with <br>Jane than Ruth,The speaker identifies more with<br>Ruth than Jane,right_to_left
null,Somebody says<br><em>Ruth is chasing Kate,NA,NA,NA,html-keyboard-response,31,251417,0.0-19.0-0.0,anomymised,6560c4cfd080ba12b16d8282,6564c8e673afc1c8830cf57a,33531,1A,man,NA,null,W1 is chasing W3,chase,sentence,NA,NA,NA,NA,NA
3346.900000035763,NA,NA,NA,NA,survey-likert-extra-labels,32,254766,0.0-19.0-1.0,anomymised,6560c4cfd080ba12b16d8282,6564c8e673afc1c8830cf57a,33531,1A,man,NA,NA,Somebody says<br><em>Ruth is chasing Kate,chase,rating_volition,"{""Q0"":4}",[0],Ruth is behind Kate,Kate is behind Ruth,NA
null,Somebody says<br><em>Kate is fighting with Fred</em>,NA,NA,NA,html-keyboard-response,33,256773,0.0-20.0-0.0,anomymised,6560c4cfd080ba12b16d8282,6564c8e673afc1c8830cf57a,33531,1A,man,NA,null,NAME1 is fighting with NAME2,fight_active,sentence,NA,NA,NA,NA,NA
3286.800000011921,NA,NA,NA,NA,survey-likert-extra-labels,34,260062,0.0-20.0-1.0,anomymised,6560c4cfd080ba12b16d8282,6564c8e673afc1c8830cf57a,33531,1A,man,NA,NA,Somebody says<br><em>Kate is fighting with Fred</em>,fight_active,rating_volition,"{""Q0"":4}",[0],The speaker identifies more with <br>Kate than Fred,The speaker identifies more with<br>Fred than Kate,left_to_right
null,Somebody says<br><em>Mike and Dave are kissing each other</em>,NA,NA,NA,html-keyboard-response,35,262069,0.0-21.0-0.0,anomymised,6560c4cfd080ba12b16d8282,6564c8e673afc1c8830cf57a,33531,1A,man,NA,null,NAME1 and NAME2 are kissing each other,kiss_conjoined,sentence,NA,NA,NA,NA,NA
2171.7000000476837,NA,NA,NA,NA,survey-likert-extra-labels,36,264242,0.0-21.0-1.0,anomymised,6560c4cfd080ba12b16d8282,6564c8e673afc1c8830cf57a,33531,1A,man,NA,NA,Somebody says<br><em>Mike and Dave are kissing each other</em>,kiss_conjoined,rating_volition,"{""Q0"":3}",[0],The speaker identifies more with <br>Dave than Mike,The speaker identifies more with<br>Mike than Dave,right_to_left
null,Somebody says<br><em>Jane is shouting at Luke</em>,NA,NA,NA,html-keyboard-response,37,266257,0.0-22.0-0.0,anomymised,6560c4cfd080ba12b16d8282,6564c8e673afc1c8830cf57a,33531,1A,man,NA,null,NAME1 is shouting at NAME2,shout_active,sentence,NA,NA,NA,NA,NA
5201.5,NA,NA,NA,NA,survey-likert-extra-labels,38,271460,0.0-22.0-1.0,anomymised,6560c4cfd080ba12b16d8282,6564c8e673afc1c8830cf57a,33531,1A,man,NA,NA,Somebody says<br><em>Jane is shouting at Luke</em>,shout_active,rating_volition,"{""Q0"":4}",[0],The speaker identifies more with <br>Jane than Luke,The speaker identifies more with<br>Luke than Jane,left_to_right
null,Somebody says<br><em>Mike and Beth are hugging each other</em>,NA,NA,NA,html-keyboard-response,39,273470,0.0-23.0-0.0,anomymised,6560c4cfd080ba12b16d8282,6564c8e673afc1c8830cf57a,33531,1A,man,NA,null,NAME1 and NAME2 are hugging each other,hug_conjoined,sentence,NA,NA,NA,NA,NA
2106.5,NA,NA,NA,NA,survey-likert-extra-labels,40,275578,0.0-23.0-1.0,anomymised,6560c4cfd080ba12b16d8282,6564c8e673afc1c8830cf57a,33531,1A,man,NA,NA,Somebody says<br><em>Mike and Beth are hugging each other</em>,hug_conjoined,rating_volition,"{""Q0"":3}",[0],The speaker identifies more with <br>Beth than Mike,The speaker identifies more with<br>Mike than Beth,right_to_left
null,Somebody says<br><em>Beth and Mike are arguing with each other</em>,NA,NA,NA,html-keyboard-response,41,277580,0.0-24.0-0.0,anomymised,6560c4cfd080ba12b16d8282,6564c8e673afc1c8830cf57a,33531,1A,man,NA,null,NAME1 and NAME2 are arguing with each other,argue_conjoined,sentence,NA,NA,NA,NA,NA
1446.9000000357628,NA,NA,NA,NA,survey-likert-extra-labels,42,279028,0.0-24.0-1.0,anomymised,6560c4cfd080ba12b16d8282,6564c8e673afc1c8830cf57a,33531,1A,man,NA,NA,Somebody says<br><em>Beth and Mike are arguing with each other</em>,argue_conjoined,rating_volition,"{""Q0"":3}",[0],The speaker identifies more with <br>Beth than Mike,The speaker identifies more with<br>Mike than Beth,left_to_right
null,Somebody says<br><em>Fred is meeting Beth</em>,NA,NA,NA,html-keyboard-response,43,281044,0.0-25.0-0.0,anomymised,6560c4cfd080ba12b16d8282,6564c8e673afc1c8830cf57a,33531,1A,man,NA,null,NAME1 is meeting NAME2,meet_active,sentence,NA,NA,NA,NA,NA
3975.5,NA,NA,NA,NA,survey-likert-extra-labels,44,285022,0.0-25.0-1.0,anomymised,6560c4cfd080ba12b16d8282,6564c8e673afc1c8830cf57a,33531,1A,man,NA,NA,Somebody says<br><em>Fred is meeting Beth</em>,meet_active,rating_volition,"{""Q0"":4}",[0],The speaker identifies more with <br>Fred than Beth,The speaker identifies more with<br>Beth than Fred,left_to_right
null,Somebody says<br><em>Beth is flirting with Kate</em>,NA,NA,NA,html-keyboard-response,45,287028,0.0-26.0-0.0,anomymised,6560c4cfd080ba12b16d8282,6564c8e673afc1c8830cf57a,33531,1A,man,NA,null,NAME1 is flirting with NAME2,flirt_active,sentence,NA,NA,NA,NA,NA
8707.099999964237,NA,NA,NA,NA,survey-likert-extra-labels,46,295736,0.0-26.0-1.0,anomymised,6560c4cfd080ba12b16d8282,6564c8e673afc1c8830cf57a,33531,1A,man,NA,NA,Somebody says<br><em>Beth is flirting with Kate</em>,flirt_active,rating_volition,"{""Q0"":2}",[0],The speaker identifies more with <br>Beth than Kate,The speaker identifies more with<br>Kate than Beth,left_to_right
null,Somebody says<br><em>Kate and Mike are flirting with each other</em>,NA,NA,NA,html-keyboard-response,47,297746,0.0-27.0-0.0,anomymised,6560c4cfd080ba12b16d8282,6564c8e673afc1c8830cf57a,33531,1A,man,NA,null,NAME1 and NAME2 are flirting with each other,flirt_conjoined,sentence,NA,NA,NA,NA,NA
2733.899999976158,NA,NA,NA,NA,survey-likert-extra-labels,48,300482,0.0-27.0-1.0,anomymised,6560c4cfd080ba12b16d8282,6564c8e673afc1c8830cf57a,33531,1A,man,NA,NA,Somebody says<br><em>Kate and Mike are flirting with each other</em>,flirt_conjoined,rating_volition,"{""Q0"":3}",[0],The speaker identifies more with <br>Kate than Mike,The speaker identifies more with<br>Mike than Kate,left_to_right
null,Somebody says<br><em>Kate and Jane are shouting at each other</em>,NA,NA,NA,html-keyboard-response,49,302484,0.0-28.0-0.0,anomymised,6560c4cfd080ba12b16d8282,6564c8e673afc1c8830cf57a,33531,1A,man,NA,null,NAME1 and NAME2 are shouting at each other,shout_conjoined,sentence,NA,NA,NA,NA,NA
1581.2000000476837,NA,NA,NA,NA,survey-likert-extra-labels,50,304066,0.0-28.0-1.0,anomymised,6560c4cfd080ba12b16d8282,6564c8e673afc1c8830cf57a,33531,1A,man,NA,NA,Somebody says<br><em>Kate and Jane are shouting at each other</em>,shout_conjoined,rating_volition,"{""Q0"":3}",[0],The speaker identifies more with <br>Jane than Kate,The speaker identifies more with<br>Kate than Jane,right_to_left
null,Somebody says<br><em>Kate is being seduced by Beth</em>,NA,NA,NA,html-keyboard-response,51,306081,0.0-29.0-0.0,anomymised,6560c4cfd080ba12b16d8282,6564c8e673afc1c8830cf57a,33531,1A,man,NA,null,NAME1 is being seduced by NAME2,seduce_passive,sentence,NA,NA,NA,NA,NA
4352.800000011921,NA,NA,NA,NA,survey-likert-extra-labels,52,310436,0.0-29.0-1.0,anomymised,6560c4cfd080ba12b16d8282,6564c8e673afc1c8830cf57a,33531,1A,man,NA,NA,Somebody says<br><em>Kate is being seduced by Beth</em>,seduce_passive,rating_volition,"{""Q0"":4}",[0],The speaker identifies more with <br>Beth than Kate,The speaker identifies more with<br>Kate than Beth,right_to_left
null,Somebody says<br><em>Luke is copying Mike</em>,NA,NA,NA,html-keyboard-response,53,312441,0.0-30.0-0.0,anomymised,6560c4cfd080ba12b16d8282,6564c8e673afc1c8830cf57a,33531,1A,man,NA,null,NAME1 is copying NAME2,copy_active,sentence,NA,NA,NA,NA,NA
6049.600000023842,NA,NA,NA,NA,survey-likert-extra-labels,54,318492,0.0-30.0-1.0,anomymised,6560c4cfd080ba12b16d8282,6564c8e673afc1c8830cf57a,33531,1A,man,NA,NA,Somebody says<br><em>Luke is copying Mike</em>,copy_active,rating_volition,"{""Q0"":4}",[0],The speaker identifies more with <br>Luke than Mike,The speaker identifies more with<br>Mike than Luke,left_to_right
null,Somebody says<br><em>Fred is marrying Luke</em>,NA,NA,NA,html-keyboard-response,55,320495,0.0-31.0-0.0,anomymised,6560c4cfd080ba12b16d8282,6564c8e673afc1c8830cf57a,33531,1A,man,NA,null,NAME1 is marrying NAME2,marry_active,sentence,NA,NA,NA,NA,NA
3133.800000011921,NA,NA,NA,NA,survey-likert-extra-labels,56,323630,0.0-31.0-1.0,anomymised,6560c4cfd080ba12b16d8282,6564c8e673afc1c8830cf57a,33531,1A,man,NA,NA,Somebody says<br><em>Fred is marrying Luke</em>,marry_active,rating_volition,"{""Q0"":2}",[0],The speaker identifies more with <br>Fred than Luke,The speaker identifies more with<br>Luke than Fred,left_to_right
null,Somebody says<br><em>Luke is driving Fred,NA,NA,NA,html-keyboard-response,57,325634,0.0-32.0-0.0,anomymised,6560c4cfd080ba12b16d8282,6564c8e673afc1c8830cf57a,33531,1A,man,NA,null,M1 is driving M3,drive,sentence,NA,NA,NA,NA,NA
11076.699999988079,NA,NA,NA,NA,survey-likert-extra-labels,58,336712,0.0-32.0-1.0,anomymised,6560c4cfd080ba12b16d8282,6564c8e673afc1c8830cf57a,33531,1A,man,NA,NA,Somebody says<br><em>Luke is driving Fred,drive,rating_volition,"{""Q0"":6}",[0],Luke is Fred's passenger,Fred is Luke's passenger,NA
null,Somebody says<br><em>Ruth is being opposed by Kate</em>,NA,NA,NA,html-keyboard-response,59,338715,0.0-33.0-0.0,anomymised,6560c4cfd080ba12b16d8282,6564c8e673afc1c8830cf57a,33531,1A,man,NA,null,NAME1 is being opposed by NAME2,oppose_passive,sentence,NA,NA,NA,NA,NA
3880.600000023842,NA,NA,NA,NA,survey-likert-extra-labels,60,342596,0.0-33.0-1.0,anomymised,6560c4cfd080ba12b16d8282,6564c8e673afc1c8830cf57a,33531,1A,man,NA,NA,Somebody says<br><em>Ruth is being opposed by Kate</em>,oppose_passive,rating_volition,"{""Q0"":3}",[0],The speaker identifies more with <br>Kate than Ruth,The speaker identifies more with<br>Ruth than Kate,right_to_left
null,Somebody says<br><em>Jane and Dave are meeting each other</em>,NA,NA,NA,html-keyboard-response,61,344608,0.0-34.0-0.0,anomymised,6560c4cfd080ba12b16d8282,6564c8e673afc1c8830cf57a,33531,1A,man,NA,null,NAME1 and NAME2 are meeting each other,meet_conjoined,sentence,NA,NA,NA,NA,NA
1602.8999999761581,NA,NA,NA,NA,survey-likert-extra-labels,62,346212,0.0-34.0-1.0,anomymised,6560c4cfd080ba12b16d8282,6564c8e673afc1c8830cf57a,33531,1A,man,NA,NA,Somebody says<br><em>Jane and Dave are meeting each other</em>,meet_conjoined,rating_volition,"{""Q0"":3}",[0],The speaker identifies more with <br>Jane than Dave,The speaker identifies more with<br>Dave than Jane,left_to_right
null,Somebody says<br><em>Luke is being looked at by Ruth</em>,NA,NA,NA,html-keyboard-response,63,348227,0.0-35.0-0.0,anomymised,6560c4cfd080ba12b16d8282,6564c8e673afc1c8830cf57a,33531,1A,man,NA,null,NAME1 is being looked at by NAME2,look_passive,sentence,NA,NA,NA,NA,NA
6297.899999976158,NA,NA,NA,NA,survey-likert-extra-labels,64,354526,0.0-35.0-1.0,anomymised,6560c4cfd080ba12b16d8282,6564c8e673afc1c8830cf57a,33531,1A,man,NA,NA,Somebody says<br><em>Luke is being looked at by Ruth</em>,look_passive,rating_volition,"{""Q0"":3}",[0],The speaker identifies more with <br>Ruth than Luke,The speaker identifies more with<br>Luke than Ruth,right_to_left
null,Somebody says<br><em>Jane is being greeted by Kate</em>,NA,NA,NA,html-keyboard-response,65,356532,0.0-36.0-0.0,anomymised,6560c4cfd080ba12b16d8282,6564c8e673afc1c8830cf57a,33531,1A,man,NA,null,NAME1 is being greeted by NAME2,greet_passive,sentence,NA,NA,NA,NA,NA
3742.599999964237,NA,NA,NA,NA,survey-likert-extra-labels,66,360276,0.0-36.0-1.0,anomymised,6560c4cfd080ba12b16d8282,6564c8e673afc1c8830cf57a,33531,1A,man,NA,NA,Somebody says<br><em>Jane is being greeted by Kate</em>,greet_passive,rating_volition,"{""Q0"":2}",[0],The speaker identifies more with <br>Jane than Kate,The speaker identifies more with<br>Kate than Jane,left_to_right
null,Somebody says<br><em>Luke is dancing with Ruth</em>,NA,NA,NA,html-keyboard-response,67,362282,0.0-37.0-0.0,anomymised,6560c4cfd080ba12b16d8282,6564c8e673afc1c8830cf57a,33531,1A,man,NA,null,NAME1 is dancing with NAME2,dance_active,sentence,NA,NA,NA,NA,NA
4964.800000011921,NA,NA,NA,NA,survey-likert-extra-labels,68,367248,0.0-37.0-1.0,anomymised,6560c4cfd080ba12b16d8282,6564c8e673afc1c8830cf57a,33531,1A,man,NA,NA,Somebody says<br><em>Luke is dancing with Ruth</em>,dance_active,rating_volition,"{""Q0"":4}",[0],The speaker identifies more with <br>Ruth than Luke,The speaker identifies more with<br>Luke than Ruth,right_to_left
null,Somebody says<br><em>Luke is being copied by Dave</em>,NA,NA,NA,html-keyboard-response,69,369252,0.0-38.0-0.0,anomymised,6560c4cfd080ba12b16d8282,6564c8e673afc1c8830cf57a,33531,1A,man,NA,null,NAME1 is being copied by NAME2,copy_passive,sentence,NA,NA,NA,NA,NA
3690.699999988079,NA,NA,NA,NA,survey-likert-extra-labels,70,372944,0.0-38.0-1.0,anomymised,6560c4cfd080ba12b16d8282,6564c8e673afc1c8830cf57a,33531,1A,man,NA,NA,Somebody says<br><em>Luke is being copied by Dave</em>,copy_passive,rating_volition,"{""Q0"":3}",[0],The speaker identifies more with <br>Dave than Luke,The speaker identifies more with<br>Luke than Dave,right_to_left
null,Somebody says<br><em>Beth is being shouted at by Mike</em>,NA,NA,NA,html-keyboard-response,71,374952,0.0-39.0-0.0,anomymised,6560c4cfd080ba12b16d8282,6564c8e673afc1c8830cf57a,33531,1A,man,NA,null,NAME1 is being shouted at by NAME2,shout_passive,sentence,NA,NA,NA,NA,NA
3464.899999976158,NA,NA,NA,NA,survey-likert-extra-labels,72,378418,0.0-39.0-1.0,anomymised,6560c4cfd080ba12b16d8282,6564c8e673afc1c8830cf57a,33531,1A,man,NA,NA,Somebody says<br><em>Beth is being shouted at by Mike</em>,shout_passive,rating_volition,"{""Q0"":2}",[0],The speaker identifies more with <br>Beth than Mike,The speaker identifies more with<br>Mike than Beth,left_to_right
null,Somebody says<br><em>Dave is greeting Mike</em>,NA,NA,NA,html-keyboard-response,73,380421,0.0-40.0-0.0,anomymised,6560c4cfd080ba12b16d8282,6564c8e673afc1c8830cf57a,33531,1A,man,NA,null,NAME1 is greeting NAME2,greet_active,sentence,NA,NA,NA,NA,NA
2929.100000023842,NA,NA,NA,NA,survey-likert-extra-labels,74,383352,0.0-40.0-1.0,anomymised,6560c4cfd080ba12b16d8282,6564c8e673afc1c8830cf57a,33531,1A,man,NA,NA,Somebody says<br><em>Dave is greeting Mike</em>,greet_active,rating_volition,"{""Q0"":2}",[0],The speaker identifies more with <br>Dave than Mike,The speaker identifies more with<br>Mike than Dave,left_to_right
null,Somebody says<br><em>Dave is arguing with Fred</em>,NA,NA,NA,html-keyboard-response,75,385367,0.0-41.0-0.0,anomymised,6560c4cfd080ba12b16d8282,6564c8e673afc1c8830cf57a,33531,1A,man,NA,null,NAME1 is arguing with NAME2,argue_active,sentence,NA,NA,NA,NA,NA
3443.5,NA,NA,NA,NA,survey-likert-extra-labels,76,388812,0.0-41.0-1.0,anomymised,6560c4cfd080ba12b16d8282,6564c8e673afc1c8830cf57a,33531,1A,man,NA,NA,Somebody says<br><em>Dave is arguing with Fred</em>,argue_active,rating_volition,"{""Q0"":4}",[0],The speaker identifies more with <br>Fred than Dave,The speaker identifies more with<br>Dave than Fred,right_to_left
null,Somebody says<br><em>Jane is teaching Dave,NA,NA,NA,html-keyboard-response,77,390815,0.0-42.0-0.0,anomymised,6560c4cfd080ba12b16d8282,6564c8e673afc1c8830cf57a,33531,1A,man,NA,null,W2 is teaching M4,teach,sentence,NA,NA,NA,NA,NA
3690.100000023842,NA,NA,NA,NA,survey-likert-extra-labels,78,394506,0.0-42.0-1.0,anomymised,6560c4cfd080ba12b16d8282,6564c8e673afc1c8830cf57a,33531,1A,man,NA,NA,Somebody says<br><em>Jane is teaching Dave,teach,rating_volition,"{""Q0"":2}",[0],Jane is educating Dave,Dave is educating Jane,NA
null,Somebody says<br><em>Mike is looking at Beth</em>,NA,NA,NA,html-keyboard-response,79,396512,0.0-43.0-0.0,anomymised,6560c4cfd080ba12b16d8282,6564c8e673afc1c8830cf57a,33531,1A,man,NA,null,NAME1 is looking at NAME2,look_active,sentence,NA,NA,NA,NA,NA
4175.199999988079,NA,NA,NA,NA,survey-likert-extra-labels,80,400688,0.0-43.0-1.0,anomymised,6560c4cfd080ba12b16d8282,6564c8e673afc1c8830cf57a,33531,1A,man,NA,NA,Somebody says<br><em>Mike is looking at Beth</em>,look_active,rating_volition,"{""Q0"":5}",[0],The speaker identifies more with <br>Beth than Mike,The speaker identifies more with<br>Mike than Beth,right_to_left
null,Somebody says<br><em>Jane and Kate are playing with each other</em>,NA,NA,NA,html-keyboard-response,81,402702,0.0-44.0-0.0,anomymised,6560c4cfd080ba12b16d8282,6564c8e673afc1c8830cf57a,33531,1A,man,NA,null,NAME1 and NAME2 are playing with each other,play_conjoined,sentence,NA,NA,NA,NA,NA
4510.199999988079,NA,NA,NA,NA,survey-likert-extra-labels,82,407214,0.0-44.0-1.0,anomymised,6560c4cfd080ba12b16d8282,6564c8e673afc1c8830cf57a,33531,1A,man,NA,NA,Somebody says<br><em>Jane and Kate are playing with each other</em>,play_conjoined,rating_volition,"{""Q0"":3}",[0],The speaker identifies more with <br>Kate than Jane,The speaker identifies more with<br>Jane than Kate,right_to_left
null,Somebody says<br><em>Mike is reminding Beth,NA,NA,NA,html-keyboard-response,83,409229,0.0-45.0-0.0,anomymised,6560c4cfd080ba12b16d8282,6564c8e673afc1c8830cf57a,33531,1A,man,NA,null,M2 is reminding W4,remind,sentence,NA,NA,NA,NA,NA
5371.300000011921,NA,NA,NA,NA,survey-likert-extra-labels,84,414602,0.0-45.0-1.0,anomymised,6560c4cfd080ba12b16d8282,6564c8e673afc1c8830cf57a,33531,1A,man,NA,NA,Somebody says<br><em>Mike is reminding Beth,remind,rating_volition,"{""Q0"":1}",[0],Mike is telling Beth again,Beth is telling Mike again,NA
null,Somebody says<br><em>Luke is talking to Kate</em>,NA,NA,NA,html-keyboard-response,85,416616,0.0-46.0-0.0,anomymised,6560c4cfd080ba12b16d8282,6564c8e673afc1c8830cf57a,33531,1A,man,NA,null,NAME1 is talking to NAME2,talk_active,sentence,NA,NA,NA,NA,NA
4918.699999988079,NA,NA,NA,NA,survey-likert-extra-labels,86,421536,0.0-46.0-1.0,anomymised,6560c4cfd080ba12b16d8282,6564c8e673afc1c8830cf57a,33531,1A,man,NA,NA,Somebody says<br><em>Luke is talking to Kate</em>,talk_active,rating_volition,"{""Q0"":1}",[0],The speaker identifies more with <br>Luke than Kate,The speaker identifies more with<br>Kate than Luke,left_to_right
null,Somebody says<br><em>Kate is feeding Luke,NA,NA,NA,html-keyboard-response,87,423543,0.0-47.0-0.0,anomymised,6560c4cfd080ba12b16d8282,6564c8e673afc1c8830cf57a,33531,1A,man,NA,null,W3 is feeding M1,feed,sentence,NA,NA,NA,NA,NA
6314.399999976158,NA,NA,NA,NA,survey-likert-extra-labels,88,429858,0.0-47.0-1.0,anomymised,6560c4cfd080ba12b16d8282,6564c8e673afc1c8830cf57a,33531,1A,man,NA,NA,Somebody says<br><em>Kate is feeding Luke,feed,rating_volition,"{""Q0"":1}",[0],Kate cooked for Luke,Luke cooked for Kate,NA
null,Somebody says<br><em>Jane is carrying Beth,NA,NA,NA,html-keyboard-response,89,431875,0.0-48.0-0.0,anomymised,6560c4cfd080ba12b16d8282,6564c8e673afc1c8830cf57a,33531,1A,man,NA,null,W2 is carrying W4,carry,sentence,NA,NA,NA,NA,NA
5276,NA,NA,NA,NA,survey-likert-extra-labels,90,437152,0.0-48.0-1.0,anomymised,6560c4cfd080ba12b16d8282,6564c8e673afc1c8830cf57a,33531,1A,man,NA,NA,Somebody says<br><em>Jane is carrying Beth,carry,rating_volition,"{""Q0"":1}",[0],Jane is transporting Beth,Beth is transporting Jane,NA
null,Somebody says<br><em>Kate is being hugged by Dave</em>,NA,NA,NA,html-keyboard-response,91,439157,0.0-49.0-0.0,anomymised,6560c4cfd080ba12b16d8282,6564c8e673afc1c8830cf57a,33531,1A,man,NA,null,NAME1 is being hugged by NAME2,hug_passive,sentence,NA,NA,NA,NA,NA
8442,NA,NA,NA,NA,survey-likert-extra-labels,92,447600,0.0-49.0-1.0,anomymised,6560c4cfd080ba12b16d8282,6564c8e673afc1c8830cf57a,33531,1A,man,NA,NA,Somebody says<br><em>Kate is being hugged by Dave</em>,hug_passive,rating_volition,"{""Q0"":4}",[0],The speaker identifies more with <br>Kate than Dave,The speaker identifies more with<br>Dave than Kate,left_to_right
null,Somebody says<br><em>Beth is being challenged by Fred</em>,NA,NA,NA,html-keyboard-response,93,449614,0.0-50.0-0.0,anomymised,6560c4cfd080ba12b16d8282,6564c8e673afc1c8830cf57a,33531,1A,man,NA,null,NAME1 is being challenged by NAME2,challenge_passive,sentence,NA,NA,NA,NA,NA
8172.300000011921,NA,NA,NA,NA,survey-likert-extra-labels,94,457788,0.0-50.0-1.0,anomymised,6560c4cfd080ba12b16d8282,6564c8e673afc1c8830cf57a,33531,1A,man,NA,NA,Somebody says<br><em>Beth is being challenged by Fred</em>,challenge_passive,rating_volition,"{""Q0"":3}",[0],The speaker identifies more with <br>Beth than Fred,The speaker identifies more with<br>Fred than Beth,left_to_right
null,Somebody says<br><em>Mike is seducing Jane</em>,NA,NA,NA,html-keyboard-response,95,459798,0.0-51.0-0.0,anomymised,6560c4cfd080ba12b16d8282,6564c8e673afc1c8830cf57a,33531,1A,man,NA,null,NAME1 is seducing NAME2,seduce_active,sentence,NA,NA,NA,NA,NA
5628.800000011921,NA,NA,NA,NA,survey-likert-extra-labels,96,465428,0.0-51.0-1.0,anomymised,6560c4cfd080ba12b16d8282,6564c8e673afc1c8830cf57a,33531,1A,man,NA,NA,Somebody says<br><em>Mike is seducing Jane</em>,seduce_active,rating_volition,"{""Q0"":3}",[0],The speaker identifies more with <br>Mike than Jane,The speaker identifies more with<br>Jane than Mike,left_to_right
null,Somebody says<br><em>Beth and Dave are touching each other</em>,NA,NA,NA,html-keyboard-response,97,467437,0.0-52.0-0.0,anomymised,6560c4cfd080ba12b16d8282,6564c8e673afc1c8830cf57a,33531,1A,man,NA,null,NAME1 and NAME2 are touching each other,touch_conjoined,sentence,NA,NA,NA,NA,NA
1998.0999999642372,NA,NA,NA,NA,survey-likert-extra-labels,98,469436,0.0-52.0-1.0,anomymised,6560c4cfd080ba12b16d8282,6564c8e673afc1c8830cf57a,33531,1A,man,NA,NA,Somebody says<br><em>Beth and Dave are touching each other</em>,touch_conjoined,rating_volition,"{""Q0"":3}",[0],The speaker identifies more with <br>Dave than Beth,The speaker identifies more with<br>Beth than Dave,right_to_left
null,Somebody says<br><em>Dave is being touched by Kate</em>,NA,NA,NA,html-keyboard-response,99,471449,0.0-53.0-0.0,anomymised,6560c4cfd080ba12b16d8282,6564c8e673afc1c8830cf57a,33531,1A,man,NA,null,NAME1 is being touched by NAME2,touch_passive,sentence,NA,NA,NA,NA,NA
3170,NA,NA,NA,NA,survey-likert-extra-labels,100,474620,0.0-53.0-1.0,anomymised,6560c4cfd080ba12b16d8282,6564c8e673afc1c8830cf57a,33531,1A,man,NA,NA,Somebody says<br><em>Dave is being touched by Kate</em>,touch_passive,rating_volition,"{""Q0"":2}",[0],The speaker identifies more with <br>Dave than Kate,The speaker identifies more with<br>Kate than Dave,left_to_right
null,Somebody says<br><em>Kate and Fred are fighting with each other</em>,NA,NA,NA,html-keyboard-response,101,476631,0.0-54.0-0.0,anomymised,6560c4cfd080ba12b16d8282,6564c8e673afc1c8830cf57a,33531,1A,man,NA,null,NAME1 and NAME2 are fighting with each other,fight_conjoined,sentence,NA,NA,NA,NA,NA
1933,NA,NA,NA,NA,survey-likert-extra-labels,102,478566,0.0-54.0-1.0,anomymised,6560c4cfd080ba12b16d8282,6564c8e673afc1c8830cf57a,33531,1A,man,NA,NA,Somebody says<br><em>Kate and Fred are fighting with each other</em>,fight_conjoined,rating_volition,"{""Q0"":3}",[0],The speaker identifies more with <br>Fred than Kate,The speaker identifies more with<br>Kate than Fred,right_to_left
null,Somebody says<br><em>Ruth and Dave are talking with each other</em>,NA,NA,NA,html-keyboard-response,103,480568,0.0-55.0-0.0,anomymised,6560c4cfd080ba12b16d8282,6564c8e673afc1c8830cf57a,33531,1A,man,NA,null,NAME1 and NAME2 are talking with each other,talk_conjoined,sentence,NA,NA,NA,NA,NA
1753.300000011921,NA,NA,NA,NA,survey-likert-extra-labels,104,482322,0.0-55.0-1.0,anomymised,6560c4cfd080ba12b16d8282,6564c8e673afc1c8830cf57a,33531,1A,man,NA,NA,Somebody says<br><em>Ruth and Dave are talking with each other</em>,talk_conjoined,rating_volition,"{""Q0"":3}",[0],The speaker identifies more with <br>Dave than Ruth,The speaker identifies more with<br>Ruth than Dave,right_to_left
3905,<p>Thank you for completing that task.</p><p>The final part of this session is a short questionnaire.</p><p>Press Continue.</p>,0,Continue,Continue,html-button-response,105,486228,0.0-56.0,anomymised,6560c4cfd080ba12b16d8282,6564c8e673afc1c8830cf57a,33531,1A,man,NA,NA,NA,NA,NA,NA,NA,NA,NA,NA
69086.30000001192,NA,NA,NA,NA,survey-text,106,556327,0.0-57.0,anomymised,6560c4cfd080ba12b16d8282,6564c8e673afc1c8830cf57a,33531,1A,man,NA,NA,NA,NA,demographics,"{""Q0"":""60"",""Q1"":""English"",""Q2"":""English"",""Q3"":""Scotland"",""Q4"":""British"",""Q5"":""Caucasian"",""Q6"":""Male""}",NA,NA,NA,NA
5072.400000035763,<p>This is the last question - thank you for taking part! Have you lived in the UK for the last 5 years or more?</p>,0,"Yes,No",Yes,html-button-response,107,561400,0.0-58.0,anomymised,6560c4cfd080ba12b16d8282,6564c8e673afc1c8830cf57a,33531,1A,man,NA,NA,NA,NA,fiveyears,NA,NA,NA,NA,NA
