rt,stimulus,button_pressed,choices,ChosenStimulus,trial_type,trial_index,time_elapsed,internal_node_id,subject_id,study_id,session_id,subject,list,ppt_gender,url,key_press,sentence_type,verb,test_part,responses,question_order,left_part,right_part,name_order
4445,Welcome to the experiment. Press Continue to begin.,0,Continue,Continue,html-button-response,0,4461,0.0-0.0,anomymised,6564584152624795c40b73cb,6564bdaf73037bef4883dc86,33851,1A,woman,NA,NA,NA,NA,NA,NA,NA,NA,NA,NA
5764,NA,NA,NA,NA,external-html,1,11335,0.0-1.0,anomymised,6564584152624795c40b73cb,6564bdaf73037bef4883dc86,33851,1A,woman,consent.html,NA,NA,NA,NA,NA,NA,NA,NA,NA
24509,"<p>Welcome.</p><p>In this experiment we will ask you to imagine people's motivations for saying sentences.</p><p>Each trial will begin with a sentence that somebody might say to describe an event involving two different people.</p><p>For instance, someone might say <em>Harry is being recruited by Molly</em></p><p>We want you to think about which of those two people (Molly and Harry) the speaker identifies more with. For instance, why did the speaker say <em>Harry is being recruited by Molly</em> rather than <em> Molly is recruiting Harry</em>? Might that mean that the speaker is socially closer to one of the two characters?</p><p>After you have read the sentence, you will rate on a scale which of the two characters the speaker identifies more with.</p><p>You will give your answer by clicking a button on a rating scale.</p><p>Sometimes there will also be catch questions designed to make sure that you are paying attention, which ask about a different topic.</p><p>To do this task, you will have to use your imagination to think about and visualise the events, and how the speaker might relate to the characters.</p><br><p>Ready?</p>",0,Continue,Continue,html-button-response,2,35845,0.0-2.0,anomymised,6564584152624795c40b73cb,6564bdaf73037bef4883dc86,33851,1A,woman,NA,NA,NA,NA,NA,NA,NA,NA,NA,NA
3531,"<p>Before the experiment starts, we will show you an example of how you will answer the questions. Press 'Continue'.</p>",0,Continue,Continue,html-button-response,3,40384,0.0-3.0,anomymised,6564584152624795c40b73cb,6564bdaf73037bef4883dc86,33851,1A,woman,NA,NA,NA,NA,NA,NA,NA,NA,NA,NA
null,Somebody says <br><em>Samuel is dining with Frank</em>,NA,NA,NA,html-keyboard-response,4,43410,0.0-4.0,anomymised,6564584152624795c40b73cb,6564bdaf73037bef4883dc86,33851,1A,woman,NA,null,NA,NA,NA,NA,NA,NA,NA,NA
7643,<img src='img/Example-trial.jpg' style='height:550px;''></img>,0,Continue,Continue,html-button-response,5,51054,0.0-5.0,anomymised,6564584152624795c40b73cb,6564bdaf73037bef4883dc86,33851,1A,woman,NA,NA,NA,NA,NA,NA,NA,NA,NA,NA
2035,<p>Ready to start the experiment?</p><br><p><strong>Remember to give an answer by clicking a button on the rating scale.</strong></p><p>Press 'Continue' to begin.</p>,0,Continue,Continue,html-button-response,6,54100,0.0-6.0,anomymised,6564584152624795c40b73cb,6564bdaf73037bef4883dc86,33851,1A,woman,NA,NA,NA,NA,NA,NA,NA,NA,NA,NA
null,Somebody says<br><em>Dave and Kate are playing with each other</em>,NA,NA,NA,html-keyboard-response,7,57112,0.0-7.0-0.0,anomymised,6564584152624795c40b73cb,6564bdaf73037bef4883dc86,33851,1A,woman,NA,null,NAME1 and NAME2 are playing with each other,play_conjoined,sentence,NA,NA,NA,NA,NA
8096,NA,NA,NA,NA,survey-likert-extra-labels,8,65211,0.0-7.0-1.0,anomymised,6564584152624795c40b73cb,6564bdaf73037bef4883dc86,33851,1A,woman,NA,NA,Somebody says<br><em>Dave and Kate are playing with each other</em>,play_conjoined,rating_volition,"{""Q0"":4}",[0],The speaker identifies more with <br>Kate than Dave,The speaker identifies more with<br>Dave than Kate,right_to_left
null,Somebody says<br><em>Luke is shouting at Beth</em>,NA,NA,NA,html-keyboard-response,9,67212,0.0-8.0-0.0,anomymised,6564584152624795c40b73cb,6564bdaf73037bef4883dc86,33851,1A,woman,NA,null,NAME1 is shouting at NAME2,shout_active,sentence,NA,NA,NA,NA,NA
4808,NA,NA,NA,NA,survey-likert-extra-labels,10,72021,0.0-8.0-1.0,anomymised,6564584152624795c40b73cb,6564bdaf73037bef4883dc86,33851,1A,woman,NA,NA,Somebody says<br><em>Luke is shouting at Beth</em>,shout_active,rating_volition,"{""Q0"":4}",[0],The speaker identifies more with <br>Beth than Luke,The speaker identifies more with<br>Luke than Beth,right_to_left
null,Somebody says<br><em>Ruth and Kate are flirting with each other</em>,NA,NA,NA,html-keyboard-response,11,74022,0.0-9.0-0.0,anomymised,6564584152624795c40b73cb,6564bdaf73037bef4883dc86,33851,1A,woman,NA,null,NAME1 and NAME2 are flirting with each other,flirt_conjoined,sentence,NA,NA,NA,NA,NA
1868,NA,NA,NA,NA,survey-likert-extra-labels,12,75896,0.0-9.0-1.0,anomymised,6564584152624795c40b73cb,6564bdaf73037bef4883dc86,33851,1A,woman,NA,NA,Somebody says<br><em>Ruth and Kate are flirting with each other</em>,flirt_conjoined,rating_volition,"{""Q0"":3}",[0],The speaker identifies more with <br>Ruth than Kate,The speaker identifies more with<br>Kate than Ruth,left_to_right
null,Somebody says<br><em>Jane is touching Dave</em>,NA,NA,NA,html-keyboard-response,13,77902,0.0-10.0-0.0,anomymised,6564584152624795c40b73cb,6564bdaf73037bef4883dc86,33851,1A,woman,NA,null,NAME1 is touching NAME2,touch_active,sentence,NA,NA,NA,NA,NA
2514,NA,NA,NA,NA,survey-likert-extra-labels,14,80417,0.0-10.0-1.0,anomymised,6564584152624795c40b73cb,6564bdaf73037bef4883dc86,33851,1A,woman,NA,NA,Somebody says<br><em>Jane is touching Dave</em>,touch_active,rating_volition,"{""Q0"":2}",[0],The speaker identifies more with <br>Jane than Dave,The speaker identifies more with<br>Dave than Jane,left_to_right
null,Somebody says<br><em>Beth is hugging Mike</em>,NA,NA,NA,html-keyboard-response,15,82421,0.0-11.0-0.0,anomymised,6564584152624795c40b73cb,6564bdaf73037bef4883dc86,33851,1A,woman,NA,null,NAME1 is hugging NAME2,hug_active,sentence,NA,NA,NA,NA,NA
2986,NA,NA,NA,NA,survey-likert-extra-labels,16,85408,0.0-11.0-1.0,anomymised,6564584152624795c40b73cb,6564bdaf73037bef4883dc86,33851,1A,woman,NA,NA,Somebody says<br><em>Beth is hugging Mike</em>,hug_active,rating_volition,"{""Q0"":5}",[0],The speaker identifies more with <br>Mike than Beth,The speaker identifies more with<br>Beth than Mike,right_to_left
null,Somebody says<br><em>Jane is kissing Dave</em>,NA,NA,NA,html-keyboard-response,17,87422,0.0-12.0-0.0,anomymised,6564584152624795c40b73cb,6564bdaf73037bef4883dc86,33851,1A,woman,NA,null,NAME1 is kissing NAME2,kiss_active,sentence,NA,NA,NA,NA,NA
4154,NA,NA,NA,NA,survey-likert-extra-labels,18,91577,0.0-12.0-1.0,anomymised,6564584152624795c40b73cb,6564bdaf73037bef4883dc86,33851,1A,woman,NA,NA,Somebody says<br><em>Jane is kissing Dave</em>,kiss_active,rating_volition,"{""Q0"":5}",[0],The speaker identifies more with <br>Dave than Jane,The speaker identifies more with<br>Jane than Dave,right_to_left
null,Somebody says<br><em>Ruth is seducing Beth</em>,NA,NA,NA,html-keyboard-response,19,93579,0.0-13.0-0.0,anomymised,6564584152624795c40b73cb,6564bdaf73037bef4883dc86,33851,1A,woman,NA,null,NAME1 is seducing NAME2,seduce_active,sentence,NA,NA,NA,NA,NA
3496,NA,NA,NA,NA,survey-likert-extra-labels,20,97079,0.0-13.0-1.0,anomymised,6564584152624795c40b73cb,6564bdaf73037bef4883dc86,33851,1A,woman,NA,NA,Somebody says<br><em>Ruth is seducing Beth</em>,seduce_active,rating_volition,"{""Q0"":5}",[0],The speaker identifies more with <br>Beth than Ruth,The speaker identifies more with<br>Ruth than Beth,right_to_left
null,Somebody says<br><em>Kate and Dave are kissing each other</em>,NA,NA,NA,html-keyboard-response,21,99091,0.0-14.0-0.0,anomymised,6564584152624795c40b73cb,6564bdaf73037bef4883dc86,33851,1A,woman,NA,null,NAME1 and NAME2 are kissing each other,kiss_conjoined,sentence,NA,NA,NA,NA,NA
1642,NA,NA,NA,NA,survey-likert-extra-labels,22,100735,0.0-14.0-1.0,anomymised,6564584152624795c40b73cb,6564bdaf73037bef4883dc86,33851,1A,woman,NA,NA,Somebody says<br><em>Kate and Dave are kissing each other</em>,kiss_conjoined,rating_volition,"{""Q0"":3}",[0],The speaker identifies more with <br>Dave than Kate,The speaker identifies more with<br>Kate than Dave,right_to_left
null,Somebody says<br><em>Beth is being greeted by Jane</em>,NA,NA,NA,html-keyboard-response,23,102751,0.0-15.0-0.0,anomymised,6564584152624795c40b73cb,6564bdaf73037bef4883dc86,33851,1A,woman,NA,null,NAME1 is being greeted by NAME2,greet_passive,sentence,NA,NA,NA,NA,NA
2960,NA,NA,NA,NA,survey-likert-extra-labels,24,105713,0.0-15.0-1.0,anomymised,6564584152624795c40b73cb,6564bdaf73037bef4883dc86,33851,1A,woman,NA,NA,Somebody says<br><em>Beth is being greeted by Jane</em>,greet_passive,rating_volition,"{""Q0"":5}",[0],The speaker identifies more with <br>Beth than Jane,The speaker identifies more with<br>Jane than Beth,left_to_right
null,Somebody says<br><em>Luke is challenging Kate</em>,NA,NA,NA,html-keyboard-response,25,107722,0.0-16.0-0.0,anomymised,6564584152624795c40b73cb,6564bdaf73037bef4883dc86,33851,1A,woman,NA,null,NAME1 is challenging NAME2,challenge_active,sentence,NA,NA,NA,NA,NA
3126,NA,NA,NA,NA,survey-likert-extra-labels,26,110849,0.0-16.0-1.0,anomymised,6564584152624795c40b73cb,6564bdaf73037bef4883dc86,33851,1A,woman,NA,NA,Somebody says<br><em>Luke is challenging Kate</em>,challenge_active,rating_volition,"{""Q0"":5}",[0],The speaker identifies more with <br>Kate than Luke,The speaker identifies more with<br>Luke than Kate,right_to_left
null,Somebody says<br><em>Ruth is chasing Kate,NA,NA,NA,html-keyboard-response,27,112863,0.0-17.0-0.0,anomymised,6564584152624795c40b73cb,6564bdaf73037bef4883dc86,33851,1A,woman,NA,null,W1 is chasing W3,chase,sentence,NA,NA,NA,NA,NA
12140,NA,NA,NA,NA,survey-likert-extra-labels,28,125004,0.0-17.0-1.0,anomymised,6564584152624795c40b73cb,6564bdaf73037bef4883dc86,33851,1A,woman,NA,NA,Somebody says<br><em>Ruth is chasing Kate,chase,rating_volition,"{""Q0"":1}",[0],Ruth is behind Kate,Kate is behind Ruth,NA
null,Somebody says<br><em>Jane is being opposed by Mike</em>,NA,NA,NA,html-keyboard-response,29,127023,0.0-18.0-0.0,anomymised,6564584152624795c40b73cb,6564bdaf73037bef4883dc86,33851,1A,woman,NA,null,NAME1 is being opposed by NAME2,oppose_passive,sentence,NA,NA,NA,NA,NA
9993,NA,NA,NA,NA,survey-likert-extra-labels,30,137016,0.0-18.0-1.0,anomymised,6564584152624795c40b73cb,6564bdaf73037bef4883dc86,33851,1A,woman,NA,NA,Somebody says<br><em>Jane is being opposed by Mike</em>,oppose_passive,rating_volition,"{""Q0"":2}",[0],The speaker identifies more with <br>Mike than Jane,The speaker identifies more with<br>Jane than Mike,right_to_left
null,Somebody says<br><em>Jane is carrying Beth,NA,NA,NA,html-keyboard-response,31,139022,0.0-19.0-0.0,anomymised,6564584152624795c40b73cb,6564bdaf73037bef4883dc86,33851,1A,woman,NA,null,W2 is carrying W4,carry,sentence,NA,NA,NA,NA,NA
4577,NA,NA,NA,NA,survey-likert-extra-labels,32,143601,0.0-19.0-1.0,anomymised,6564584152624795c40b73cb,6564bdaf73037bef4883dc86,33851,1A,woman,NA,NA,Somebody says<br><em>Jane is carrying Beth,carry,rating_volition,"{""Q0"":0}",[0],Jane is transporting Beth,Beth is transporting Jane,NA
null,Somebody says<br><em>Luke is being copied by Kate</em>,NA,NA,NA,html-keyboard-response,33,145621,0.0-20.0-0.0,anomymised,6564584152624795c40b73cb,6564bdaf73037bef4883dc86,33851,1A,woman,NA,null,NAME1 is being copied by NAME2,copy_passive,sentence,NA,NA,NA,NA,NA
6287,NA,NA,NA,NA,survey-likert-extra-labels,34,151910,0.0-20.0-1.0,anomymised,6564584152624795c40b73cb,6564bdaf73037bef4883dc86,33851,1A,woman,NA,NA,Somebody says<br><em>Luke is being copied by Kate</em>,copy_passive,rating_volition,"{""Q0"":4}",[0],The speaker identifies more with <br>Kate than Luke,The speaker identifies more with<br>Luke than Kate,right_to_left
null,Somebody says<br><em>Fred is hiring Ruth,NA,NA,NA,html-keyboard-response,35,153921,0.0-21.0-0.0,anomymised,6564584152624795c40b73cb,6564bdaf73037bef4883dc86,33851,1A,woman,NA,null,M3 is hiring W1,hire,sentence,NA,NA,NA,NA,NA
4535,NA,NA,NA,NA,survey-likert-extra-labels,36,158456,0.0-21.0-1.0,anomymised,6564584152624795c40b73cb,6564bdaf73037bef4883dc86,33851,1A,woman,NA,NA,Somebody says<br><em>Fred is hiring Ruth,hire,rating_volition,"{""Q0"":0}",[0],Fred is employing Ruth,Ruth is employing Fred,NA
null,Somebody says<br><em>Mike and Beth are shouting at each other</em>,NA,NA,NA,html-keyboard-response,37,160462,0.0-22.0-0.0,anomymised,6564584152624795c40b73cb,6564bdaf73037bef4883dc86,33851,1A,woman,NA,null,NAME1 and NAME2 are shouting at each other,shout_conjoined,sentence,NA,NA,NA,NA,NA
2584,NA,NA,NA,NA,survey-likert-extra-labels,38,163047,0.0-22.0-1.0,anomymised,6564584152624795c40b73cb,6564bdaf73037bef4883dc86,33851,1A,woman,NA,NA,Somebody says<br><em>Mike and Beth are shouting at each other</em>,shout_conjoined,rating_volition,"{""Q0"":3}",[0],The speaker identifies more with <br>Mike than Beth,The speaker identifies more with<br>Beth than Mike,left_to_right
null,Somebody says<br><em>Kate is feeding Luke,NA,NA,NA,html-keyboard-response,39,165051,0.0-23.0-0.0,anomymised,6564584152624795c40b73cb,6564bdaf73037bef4883dc86,33851,1A,woman,NA,null,W3 is feeding M1,feed,sentence,NA,NA,NA,NA,NA
7286,NA,NA,NA,NA,survey-likert-extra-labels,40,172337,0.0-23.0-1.0,anomymised,6564584152624795c40b73cb,6564bdaf73037bef4883dc86,33851,1A,woman,NA,NA,Somebody says<br><em>Kate is feeding Luke,feed,rating_volition,"{""Q0"":0}",[0],Kate cooked for Luke,Luke cooked for Kate,NA
null,Somebody says<br><em>Beth and Ruth are arguing with each other</em>,NA,NA,NA,html-keyboard-response,41,174352,0.0-24.0-0.0,anomymised,6564584152624795c40b73cb,6564bdaf73037bef4883dc86,33851,1A,woman,NA,null,NAME1 and NAME2 are arguing with each other,argue_conjoined,sentence,NA,NA,NA,NA,NA
5215,NA,NA,NA,NA,survey-likert-extra-labels,42,179571,0.0-24.0-1.0,anomymised,6564584152624795c40b73cb,6564bdaf73037bef4883dc86,33851,1A,woman,NA,NA,Somebody says<br><em>Beth and Ruth are arguing with each other</em>,argue_conjoined,rating_volition,"{""Q0"":3}",[0],The speaker identifies more with <br>Ruth than Beth,The speaker identifies more with<br>Beth than Ruth,right_to_left
null,Somebody says<br><em>Beth is meeting Mike</em>,NA,NA,NA,html-keyboard-response,43,181582,0.0-25.0-0.0,anomymised,6564584152624795c40b73cb,6564bdaf73037bef4883dc86,33851,1A,woman,NA,null,NAME1 is meeting NAME2,meet_active,sentence,NA,NA,NA,NA,NA
4413,NA,NA,NA,NA,survey-likert-extra-labels,44,185995,0.0-25.0-1.0,anomymised,6564584152624795c40b73cb,6564bdaf73037bef4883dc86,33851,1A,woman,NA,NA,Somebody says<br><em>Beth is meeting Mike</em>,meet_active,rating_volition,"{""Q0"":1}",[0],The speaker identifies more with <br>Beth than Mike,The speaker identifies more with<br>Mike than Beth,left_to_right
null,Somebody says<br><em>Jane is being kissed by Ruth</em>,NA,NA,NA,html-keyboard-response,45,188001,0.0-26.0-0.0,anomymised,6564584152624795c40b73cb,6564bdaf73037bef4883dc86,33851,1A,woman,NA,null,NAME1 is being kissed by NAME2,kiss_passive,sentence,NA,NA,NA,NA,NA
7617,NA,NA,NA,NA,survey-likert-extra-labels,46,195620,0.0-26.0-1.0,anomymised,6564584152624795c40b73cb,6564bdaf73037bef4883dc86,33851,1A,woman,NA,NA,Somebody says<br><em>Jane is being kissed by Ruth</em>,kiss_passive,rating_volition,"{""Q0"":5}",[0],The speaker identifies more with <br>Jane than Ruth,The speaker identifies more with<br>Ruth than Jane,left_to_right
null,Somebody says<br><em>Dave is fighting with Mike</em>,NA,NA,NA,html-keyboard-response,47,197621,0.0-27.0-0.0,anomymised,6564584152624795c40b73cb,6564bdaf73037bef4883dc86,33851,1A,woman,NA,null,NAME1 is fighting with NAME2,fight_active,sentence,NA,NA,NA,NA,NA
3804,NA,NA,NA,NA,survey-likert-extra-labels,48,201426,0.0-27.0-1.0,anomymised,6564584152624795c40b73cb,6564bdaf73037bef4883dc86,33851,1A,woman,NA,NA,Somebody says<br><em>Dave is fighting with Mike</em>,fight_active,rating_volition,"{""Q0"":5}",[0],The speaker identifies more with <br>Mike than Dave,The speaker identifies more with<br>Dave than Mike,right_to_left
null,Somebody says<br><em>Ruth is playing with Mike</em>,NA,NA,NA,html-keyboard-response,49,203441,0.0-28.0-0.0,anomymised,6564584152624795c40b73cb,6564bdaf73037bef4883dc86,33851,1A,woman,NA,null,NAME1 is playing with NAME2,play_active,sentence,NA,NA,NA,NA,NA
2531,NA,NA,NA,NA,survey-likert-extra-labels,50,205974,0.0-28.0-1.0,anomymised,6564584152624795c40b73cb,6564bdaf73037bef4883dc86,33851,1A,woman,NA,NA,Somebody says<br><em>Ruth is playing with Mike</em>,play_active,rating_volition,"{""Q0"":3}",[0],The speaker identifies more with <br>Ruth than Mike,The speaker identifies more with<br>Mike than Ruth,left_to_right
null,Somebody says<br><em>Dave is shouting at Beth</em>,NA,NA,NA,html-keyboard-response,51,207992,0.0-29.0-0.0,anomymised,6564584152624795c40b73cb,6564bdaf73037bef4883dc86,33851,1A,woman,NA,null,NAME1 is shouting at NAME2,shout_active,sentence,NA,NA,NA,NA,NA
3067,NA,NA,NA,NA,survey-likert-extra-labels,52,211059,0.0-29.0-1.0,anomymised,6564584152624795c40b73cb,6564bdaf73037bef4883dc86,33851,1A,woman,NA,NA,Somebody says<br><em>Dave is shouting at Beth</em>,shout_active,rating_volition,"{""Q0"":1}",[0],The speaker identifies more with <br>Dave than Beth,The speaker identifies more with<br>Beth than Dave,left_to_right
null,Somebody says<br><em>Dave is being looked at by Mike</em>,NA,NA,NA,html-keyboard-response,53,213066,0.0-30.0-0.0,anomymised,6564584152624795c40b73cb,6564bdaf73037bef4883dc86,33851,1A,woman,NA,null,NAME1 is being looked at by NAME2,look_passive,sentence,NA,NA,NA,NA,NA
15074,NA,NA,NA,NA,survey-likert-extra-labels,54,228141,0.0-30.0-1.0,anomymised,6564584152624795c40b73cb,6564bdaf73037bef4883dc86,33851,1A,woman,NA,NA,Somebody says<br><em>Dave is being looked at by Mike</em>,look_passive,rating_volition,"{""Q0"":5}",[0],The speaker identifies more with <br>Dave than Mike,The speaker identifies more with<br>Mike than Dave,left_to_right
null,Somebody says<br><em>Beth is being touched by Jane</em>,NA,NA,NA,html-keyboard-response,55,230156,0.0-31.0-0.0,anomymised,6564584152624795c40b73cb,6564bdaf73037bef4883dc86,33851,1A,woman,NA,null,NAME1 is being touched by NAME2,touch_passive,sentence,NA,NA,NA,NA,NA
5036,NA,NA,NA,NA,survey-likert-extra-labels,56,235196,0.0-31.0-1.0,anomymised,6564584152624795c40b73cb,6564bdaf73037bef4883dc86,33851,1A,woman,NA,NA,Somebody says<br><em>Beth is being touched by Jane</em>,touch_passive,rating_volition,"{""Q0"":5}",[0],The speaker identifies more with <br>Beth than Jane,The speaker identifies more with<br>Jane than Beth,left_to_right
null,Somebody says<br><em>Luke is driving Fred,NA,NA,NA,html-keyboard-response,57,237206,0.0-32.0-0.0,anomymised,6564584152624795c40b73cb,6564bdaf73037bef4883dc86,33851,1A,woman,NA,null,M1 is driving M3,drive,sentence,NA,NA,NA,NA,NA
5552,NA,NA,NA,NA,survey-likert-extra-labels,58,242759,0.0-32.0-1.0,anomymised,6564584152624795c40b73cb,6564bdaf73037bef4883dc86,33851,1A,woman,NA,NA,Somebody says<br><em>Luke is driving Fred,drive,rating_volition,"{""Q0"":6}",[0],Luke is Fred's passenger,Fred is Luke's passenger,NA
null,Somebody says<br><em>Kate and Ruth are hugging each other</em>,NA,NA,NA,html-keyboard-response,59,244771,0.0-33.0-0.0,anomymised,6564584152624795c40b73cb,6564bdaf73037bef4883dc86,33851,1A,woman,NA,null,NAME1 and NAME2 are hugging each other,hug_conjoined,sentence,NA,NA,NA,NA,NA
1418,NA,NA,NA,NA,survey-likert-extra-labels,60,246192,0.0-33.0-1.0,anomymised,6564584152624795c40b73cb,6564bdaf73037bef4883dc86,33851,1A,woman,NA,NA,Somebody says<br><em>Kate and Ruth are hugging each other</em>,hug_conjoined,rating_volition,"{""Q0"":3}",[0],The speaker identifies more with <br>Kate than Ruth,The speaker identifies more with<br>Ruth than Kate,left_to_right
null,Somebody says<br><em>Luke is being seduced by Fred</em>,NA,NA,NA,html-keyboard-response,61,248206,0.0-34.0-0.0,anomymised,6564584152624795c40b73cb,6564bdaf73037bef4883dc86,33851,1A,woman,NA,null,NAME1 is being seduced by NAME2,seduce_passive,sentence,NA,NA,NA,NA,NA
4013,NA,NA,NA,NA,survey-likert-extra-labels,62,252220,0.0-34.0-1.0,anomymised,6564584152624795c40b73cb,6564bdaf73037bef4883dc86,33851,1A,woman,NA,NA,Somebody says<br><em>Luke is being seduced by Fred</em>,seduce_passive,rating_volition,"{""Q0"":5}",[0],The speaker identifies more with <br>Luke than Fred,The speaker identifies more with<br>Fred than Luke,left_to_right
null,Somebody says<br><em>Beth is greeting Fred</em>,NA,NA,NA,html-keyboard-response,63,254222,0.0-35.0-0.0,anomymised,6564584152624795c40b73cb,6564bdaf73037bef4883dc86,33851,1A,woman,NA,null,NAME1 is greeting NAME2,greet_active,sentence,NA,NA,NA,NA,NA
2132,NA,NA,NA,NA,survey-likert-extra-labels,64,256357,0.0-35.0-1.0,anomymised,6564584152624795c40b73cb,6564bdaf73037bef4883dc86,33851,1A,woman,NA,NA,Somebody says<br><em>Beth is greeting Fred</em>,greet_active,rating_volition,"{""Q0"":1}",[0],The speaker identifies more with <br>Beth than Fred,The speaker identifies more with<br>Fred than Beth,left_to_right
null,Somebody says<br><em>Luke and Mike are marrying each other</em>,NA,NA,NA,html-keyboard-response,65,258371,0.0-36.0-0.0,anomymised,6564584152624795c40b73cb,6564bdaf73037bef4883dc86,33851,1A,woman,NA,null,NAME1 and NAME2 are marrying each other,marry_conjoined,sentence,NA,NA,NA,NA,NA
1294,NA,NA,NA,NA,survey-likert-extra-labels,66,259668,0.0-36.0-1.0,anomymised,6564584152624795c40b73cb,6564bdaf73037bef4883dc86,33851,1A,woman,NA,NA,Somebody says<br><em>Luke and Mike are marrying each other</em>,marry_conjoined,rating_volition,"{""Q0"":3}",[0],The speaker identifies more with <br>Luke than Mike,The speaker identifies more with<br>Mike than Luke,left_to_right
null,Somebody says<br><em>Beth is arguing with Ruth</em>,NA,NA,NA,html-keyboard-response,67,261671,0.0-37.0-0.0,anomymised,6564584152624795c40b73cb,6564bdaf73037bef4883dc86,33851,1A,woman,NA,null,NAME1 is arguing with NAME2,argue_active,sentence,NA,NA,NA,NA,NA
4587,NA,NA,NA,NA,survey-likert-extra-labels,68,266259,0.0-37.0-1.0,anomymised,6564584152624795c40b73cb,6564bdaf73037bef4883dc86,33851,1A,woman,NA,NA,Somebody says<br><em>Beth is arguing with Ruth</em>,argue_active,rating_volition,"{""Q0"":5}",[0],The speaker identifies more with <br>Ruth than Beth,The speaker identifies more with<br>Beth than Ruth,right_to_left
null,Somebody says<br><em>Beth is opposing Luke</em>,NA,NA,NA,html-keyboard-response,69,268271,0.0-38.0-0.0,anomymised,6564584152624795c40b73cb,6564bdaf73037bef4883dc86,33851,1A,woman,NA,null,NAME1 is opposing NAME2,oppose_active,sentence,NA,NA,NA,NA,NA
3946,NA,NA,NA,NA,survey-likert-extra-labels,70,272220,0.0-38.0-1.0,anomymised,6564584152624795c40b73cb,6564bdaf73037bef4883dc86,33851,1A,woman,NA,NA,Somebody says<br><em>Beth is opposing Luke</em>,oppose_active,rating_volition,"{""Q0"":4}",[0],The speaker identifies more with <br>Luke than Beth,The speaker identifies more with<br>Beth than Luke,right_to_left
null,Somebody says<br><em>Fred is talking to Ruth</em>,NA,NA,NA,html-keyboard-response,71,274238,0.0-39.0-0.0,anomymised,6564584152624795c40b73cb,6564bdaf73037bef4883dc86,33851,1A,woman,NA,null,NAME1 is talking to NAME2,talk_active,sentence,NA,NA,NA,NA,NA
2964,NA,NA,NA,NA,survey-likert-extra-labels,72,277204,0.0-39.0-1.0,anomymised,6564584152624795c40b73cb,6564bdaf73037bef4883dc86,33851,1A,woman,NA,NA,Somebody says<br><em>Fred is talking to Ruth</em>,talk_active,rating_volition,"{""Q0"":1}",[0],The speaker identifies more with <br>Fred than Ruth,The speaker identifies more with<br>Ruth than Fred,left_to_right
null,Somebody says<br><em>Beth is marrying Kate</em>,NA,NA,NA,html-keyboard-response,73,279205,0.0-40.0-0.0,anomymised,6564584152624795c40b73cb,6564bdaf73037bef4883dc86,33851,1A,woman,NA,null,NAME1 is marrying NAME2,marry_active,sentence,NA,NA,NA,NA,NA
9407,NA,NA,NA,NA,survey-likert-extra-labels,74,288613,0.0-40.0-1.0,anomymised,6564584152624795c40b73cb,6564bdaf73037bef4883dc86,33851,1A,woman,NA,NA,Somebody says<br><em>Beth is marrying Kate</em>,marry_active,rating_volition,"{""Q0"":1}",[0],The speaker identifies more with <br>Beth than Kate,The speaker identifies more with<br>Kate than Beth,left_to_right
null,Somebody says<br><em>Luke is being hugged by Jane</em>,NA,NA,NA,html-keyboard-response,75,290619,0.0-41.0-0.0,anomymised,6564584152624795c40b73cb,6564bdaf73037bef4883dc86,33851,1A,woman,NA,null,NAME1 is being hugged by NAME2,hug_passive,sentence,NA,NA,NA,NA,NA
2027,NA,NA,NA,NA,survey-likert-extra-labels,76,292647,0.0-41.0-1.0,anomymised,6564584152624795c40b73cb,6564bdaf73037bef4883dc86,33851,1A,woman,NA,NA,Somebody says<br><em>Luke is being hugged by Jane</em>,hug_passive,rating_volition,"{""Q0"":5}",[0],The speaker identifies more with <br>Luke than Jane,The speaker identifies more with<br>Jane than Luke,left_to_right
null,Somebody says<br><em>Mike is reminding Beth,NA,NA,NA,html-keyboard-response,77,294652,0.0-42.0-0.0,anomymised,6564584152624795c40b73cb,6564bdaf73037bef4883dc86,33851,1A,woman,NA,null,M2 is reminding W4,remind,sentence,NA,NA,NA,NA,NA
4327,NA,NA,NA,NA,survey-likert-extra-labels,78,298984,0.0-42.0-1.0,anomymised,6564584152624795c40b73cb,6564bdaf73037bef4883dc86,33851,1A,woman,NA,NA,Somebody says<br><em>Mike is reminding Beth,remind,rating_volition,"{""Q0"":0}",[0],Mike is telling Beth again,Beth is telling Mike again,NA
null,Somebody says<br><em>Dave and Luke are talking with each other</em>,NA,NA,NA,html-keyboard-response,79,300998,0.0-43.0-0.0,anomymised,6564584152624795c40b73cb,6564bdaf73037bef4883dc86,33851,1A,woman,NA,null,NAME1 and NAME2 are talking with each other,talk_conjoined,sentence,NA,NA,NA,NA,NA
1539,NA,NA,NA,NA,survey-likert-extra-labels,80,302540,0.0-43.0-1.0,anomymised,6564584152624795c40b73cb,6564bdaf73037bef4883dc86,33851,1A,woman,NA,NA,Somebody says<br><em>Dave and Luke are talking with each other</em>,talk_conjoined,rating_volition,"{""Q0"":3}",[0],The speaker identifies more with <br>Luke than Dave,The speaker identifies more with<br>Dave than Luke,right_to_left
null,Somebody says<br><em>Mike is posing for Dave,NA,NA,NA,html-keyboard-response,81,304560,0.0-44.0-0.0,anomymised,6564584152624795c40b73cb,6564bdaf73037bef4883dc86,33851,1A,woman,NA,null,M2 is posing for M4,pose,sentence,NA,NA,NA,NA,NA
3821,NA,NA,NA,NA,survey-likert-extra-labels,82,308383,0.0-44.0-1.0,anomymised,6564584152624795c40b73cb,6564bdaf73037bef4883dc86,33851,1A,woman,NA,NA,Somebody says<br><em>Mike is posing for Dave,pose,rating_volition,"{""Q0"":0}",[0],Mike is modelling for Dave,Dave is modelling for Mike,NA
null,Somebody says<br><em>Kate and Jane are dancing with each other</em>,NA,NA,NA,html-keyboard-response,83,310400,0.0-45.0-0.0,anomymised,6564584152624795c40b73cb,6564bdaf73037bef4883dc86,33851,1A,woman,NA,null,NAME1 and NAME2 are dancing with each other,dance_conjoined,sentence,NA,NA,NA,NA,NA
2200,NA,NA,NA,NA,survey-likert-extra-labels,84,312602,0.0-45.0-1.0,anomymised,6564584152624795c40b73cb,6564bdaf73037bef4883dc86,33851,1A,woman,NA,NA,Somebody says<br><em>Kate and Jane are dancing with each other</em>,dance_conjoined,rating_volition,"{""Q0"":3}",[0],The speaker identifies more with <br>Kate than Jane,The speaker identifies more with<br>Jane than Kate,left_to_right
null,Somebody says<br><em>Luke is being challenged by Jane</em>,NA,NA,NA,html-keyboard-response,85,314621,0.0-46.0-0.0,anomymised,6564584152624795c40b73cb,6564bdaf73037bef4883dc86,33851,1A,woman,NA,null,NAME1 is being challenged by NAME2,challenge_passive,sentence,NA,NA,NA,NA,NA
4327,NA,NA,NA,NA,survey-likert-extra-labels,86,318949,0.0-46.0-1.0,anomymised,6564584152624795c40b73cb,6564bdaf73037bef4883dc86,33851,1A,woman,NA,NA,Somebody says<br><em>Luke is being challenged by Jane</em>,challenge_passive,rating_volition,"{""Q0"":1}",[0],The speaker identifies more with <br>Jane than Luke,The speaker identifies more with<br>Luke than Jane,right_to_left
null,Somebody says<br><em>Jane is flirting with Dave</em>,NA,NA,NA,html-keyboard-response,87,320954,0.0-47.0-0.0,anomymised,6564584152624795c40b73cb,6564bdaf73037bef4883dc86,33851,1A,woman,NA,null,NAME1 is flirting with NAME2,flirt_active,sentence,NA,NA,NA,NA,NA
4589,NA,NA,NA,NA,survey-likert-extra-labels,88,325546,0.0-47.0-1.0,anomymised,6564584152624795c40b73cb,6564bdaf73037bef4883dc86,33851,1A,woman,NA,NA,Somebody says<br><em>Jane is flirting with Dave</em>,flirt_active,rating_volition,"{""Q0"":1}",[0],The speaker identifies more with <br>Jane than Dave,The speaker identifies more with<br>Dave than Jane,left_to_right
null,Somebody says<br><em>Kate is looking at Fred</em>,NA,NA,NA,html-keyboard-response,89,327550,0.0-48.0-0.0,anomymised,6564584152624795c40b73cb,6564bdaf73037bef4883dc86,33851,1A,woman,NA,null,NAME1 is looking at NAME2,look_active,sentence,NA,NA,NA,NA,NA
2181,NA,NA,NA,NA,survey-likert-extra-labels,90,329732,0.0-48.0-1.0,anomymised,6564584152624795c40b73cb,6564bdaf73037bef4883dc86,33851,1A,woman,NA,NA,Somebody says<br><em>Kate is looking at Fred</em>,look_active,rating_volition,"{""Q0"":2}",[0],The speaker identifies more with <br>Kate than Fred,The speaker identifies more with<br>Fred than Kate,left_to_right
null,Somebody says<br><em>Ruth is being shouted at by Jane</em>,NA,NA,NA,html-keyboard-response,91,331740,0.0-49.0-0.0,anomymised,6564584152624795c40b73cb,6564bdaf73037bef4883dc86,33851,1A,woman,NA,null,NAME1 is being shouted at by NAME2,shout_passive,sentence,NA,NA,NA,NA,NA
4054,NA,NA,NA,NA,survey-likert-extra-labels,92,335795,0.0-49.0-1.0,anomymised,6564584152624795c40b73cb,6564bdaf73037bef4883dc86,33851,1A,woman,NA,NA,Somebody says<br><em>Ruth is being shouted at by Jane</em>,shout_passive,rating_volition,"{""Q0"":1}",[0],The speaker identifies more with <br>Jane than Ruth,The speaker identifies more with<br>Ruth than Jane,right_to_left
null,Somebody says<br><em>Mike is dancing with Ruth</em>,NA,NA,NA,html-keyboard-response,93,337801,0.0-50.0-0.0,anomymised,6564584152624795c40b73cb,6564bdaf73037bef4883dc86,33851,1A,woman,NA,null,NAME1 is dancing with NAME2,dance_active,sentence,NA,NA,NA,NA,NA
3503,NA,NA,NA,NA,survey-likert-extra-labels,94,341307,0.0-50.0-1.0,anomymised,6564584152624795c40b73cb,6564bdaf73037bef4883dc86,33851,1A,woman,NA,NA,Somebody says<br><em>Mike is dancing with Ruth</em>,dance_active,rating_volition,"{""Q0"":3}",[0],The speaker identifies more with <br>Mike than Ruth,The speaker identifies more with<br>Ruth than Mike,left_to_right
null,Somebody says<br><em>Luke and Kate are touching each other</em>,NA,NA,NA,html-keyboard-response,95,343320,0.0-51.0-0.0,anomymised,6564584152624795c40b73cb,6564bdaf73037bef4883dc86,33851,1A,woman,NA,null,NAME1 and NAME2 are touching each other,touch_conjoined,sentence,NA,NA,NA,NA,NA
3042,NA,NA,NA,NA,survey-likert-extra-labels,96,346362,0.0-51.0-1.0,anomymised,6564584152624795c40b73cb,6564bdaf73037bef4883dc86,33851,1A,woman,NA,NA,Somebody says<br><em>Luke and Kate are touching each other</em>,touch_conjoined,rating_volition,"{""Q0"":3}",[0],The speaker identifies more with <br>Luke than Kate,The speaker identifies more with<br>Kate than Luke,left_to_right
null,Somebody says<br><em>Fred and Kate are fighting with each other</em>,NA,NA,NA,html-keyboard-response,97,348370,0.0-52.0-0.0,anomymised,6564584152624795c40b73cb,6564bdaf73037bef4883dc86,33851,1A,woman,NA,null,NAME1 and NAME2 are fighting with each other,fight_conjoined,sentence,NA,NA,NA,NA,NA
1681,NA,NA,NA,NA,survey-likert-extra-labels,98,350053,0.0-52.0-1.0,anomymised,6564584152624795c40b73cb,6564bdaf73037bef4883dc86,33851,1A,woman,NA,NA,Somebody says<br><em>Fred and Kate are fighting with each other</em>,fight_conjoined,rating_volition,"{""Q0"":3}",[0],The speaker identifies more with <br>Fred than Kate,The speaker identifies more with<br>Kate than Fred,left_to_right
null,Somebody says<br><em>Dave and Fred are meeting each other</em>,NA,NA,NA,html-keyboard-response,99,352061,0.0-53.0-0.0,anomymised,6564584152624795c40b73cb,6564bdaf73037bef4883dc86,33851,1A,woman,NA,null,NAME1 and NAME2 are meeting each other,meet_conjoined,sentence,NA,NA,NA,NA,NA
1621,NA,NA,NA,NA,survey-likert-extra-labels,100,353683,0.0-53.0-1.0,anomymised,6564584152624795c40b73cb,6564bdaf73037bef4883dc86,33851,1A,woman,NA,NA,Somebody says<br><em>Dave and Fred are meeting each other</em>,meet_conjoined,rating_volition,"{""Q0"":3}",[0],The speaker identifies more with <br>Dave than Fred,The speaker identifies more with<br>Fred than Dave,left_to_right
null,Somebody says<br><em>Mike is copying Luke</em>,NA,NA,NA,html-keyboard-response,101,355686,0.0-54.0-0.0,anomymised,6564584152624795c40b73cb,6564bdaf73037bef4883dc86,33851,1A,woman,NA,null,NAME1 is copying NAME2,copy_active,sentence,NA,NA,NA,NA,NA
3229,NA,NA,NA,NA,survey-likert-extra-labels,102,358916,0.0-54.0-1.0,anomymised,6564584152624795c40b73cb,6564bdaf73037bef4883dc86,33851,1A,woman,NA,NA,Somebody says<br><em>Mike is copying Luke</em>,copy_active,rating_volition,"{""Q0"":5}",[0],The speaker identifies more with <br>Luke than Mike,The speaker identifies more with<br>Mike than Luke,right_to_left
null,Somebody says<br><em>Jane is teaching Dave,NA,NA,NA,html-keyboard-response,103,360920,0.0-55.0-0.0,anomymised,6564584152624795c40b73cb,6564bdaf73037bef4883dc86,33851,1A,woman,NA,null,W2 is teaching M4,teach,sentence,NA,NA,NA,NA,NA
3474,NA,NA,NA,NA,survey-likert-extra-labels,104,364396,0.0-55.0-1.0,anomymised,6564584152624795c40b73cb,6564bdaf73037bef4883dc86,33851,1A,woman,NA,NA,Somebody says<br><em>Jane is teaching Dave,teach,rating_volition,"{""Q0"":0}",[0],Jane is educating Dave,Dave is educating Jane,NA
3800,<p>Thank you for completing that task.</p><p>The final part of this session is a short questionnaire.</p><p>Press Continue.</p>,0,Continue,Continue,html-button-response,105,368198,0.0-56.0,anomymised,6564584152624795c40b73cb,6564bdaf73037bef4883dc86,33851,1A,woman,NA,NA,NA,NA,NA,NA,NA,NA,NA,NA
50636,NA,NA,NA,NA,survey-text,106,419852,0.0-57.0,anomymised,6564584152624795c40b73cb,6564bdaf73037bef4883dc86,33851,1A,woman,NA,NA,NA,NA,demographics,"{""Q0"":""72"",""Q1"":""English"",""Q2"":""English"",""Q3"":""UK"",""Q4"":""British"",""Q5"":""white"",""Q6"":""female""}",NA,NA,NA,NA
3540,<p>This is the last question - thank you for taking part! Have you lived in the UK for the last 5 years or more?</p>,0,"Yes,No",Yes,html-button-response,107,423393,0.0-58.0,anomymised,6564584152624795c40b73cb,6564bdaf73037bef4883dc86,33851,1A,woman,NA,NA,NA,NA,fiveyears,NA,NA,NA,NA,NA
