rt,stimulus,button_pressed,choices,ChosenStimulus,trial_type,trial_index,time_elapsed,internal_node_id,subject_id,study_id,session_id,subject,list,ppt_gender,url,key_press,sentence_type,verb,test_part,responses,question_order,left_part,right_part,name_order
6958.300000000745,Welcome to the experiment. Press Continue to begin.,0,Continue,Continue,html-button-response,0,6964,0.0-0.0,anomymised,6560c4cfd080ba12b16d8282,6564c90071129d17d9a12771,33860,1A,man,NA,NA,NA,NA,NA,NA,NA,NA,NA,NA
251720.40000000224,NA,NA,NA,NA,external-html,1,260375,0.0-1.0,anomymised,6560c4cfd080ba12b16d8282,6564c90071129d17d9a12771,33860,1A,man,consent.html,NA,NA,NA,NA,NA,NA,NA,NA,NA
88805.09999999776,"<p>Welcome.</p><p>In this experiment we will ask you to imagine people's motivations for saying sentences.</p><p>Each trial will begin with a sentence that somebody might say to describe an event involving two different people.</p><p>For instance, someone might say <em>Harry is being recruited by Molly</em></p><p>We want you to think about which of those two people (Molly and Harry) the speaker identifies more with. For instance, why did the speaker say <em>Harry is being recruited by Molly</em> rather than <em> Molly is recruiting Harry</em>? Might that mean that the speaker is socially closer to one of the two characters?</p><p>After you have read the sentence, you will rate on a scale which of the two characters the speaker identifies more with.</p><p>You will give your answer by clicking a button on a rating scale.</p><p>Sometimes there will also be catch questions designed to make sure that you are paying attention, which ask about a different topic.</p><p>To do this task, you will have to use your imagination to think about and visualise the events, and how the speaker might relate to the characters.</p><br><p>Ready?</p>",0,Continue,Continue,html-button-response,2,349182,0.0-2.0,anomymised,6560c4cfd080ba12b16d8282,6564c90071129d17d9a12771,33860,1A,man,NA,NA,NA,NA,NA,NA,NA,NA,NA,NA
4804,"<p>Before the experiment starts, we will show you an example of how you will answer the questions. Press 'Continue'.</p>",0,Continue,Continue,html-button-response,3,354989,0.0-3.0,anomymised,6560c4cfd080ba12b16d8282,6564c90071129d17d9a12771,33860,1A,man,NA,NA,NA,NA,NA,NA,NA,NA,NA,NA
null,Somebody says <br><em>Samuel is dining with Frank</em>,NA,NA,NA,html-keyboard-response,4,358003,0.0-4.0,anomymised,6560c4cfd080ba12b16d8282,6564c90071129d17d9a12771,33860,1A,man,NA,null,NA,NA,NA,NA,NA,NA,NA,NA
87991.5,<img src='img/Example-trial.jpg' style='height:550px;''></img>,0,Continue,Continue,html-button-response,5,445997,0.0-5.0,anomymised,6560c4cfd080ba12b16d8282,6564c90071129d17d9a12771,33860,1A,man,NA,NA,NA,NA,NA,NA,NA,NA,NA,NA
5686,<p>Ready to start the experiment?</p><br><p><strong>Remember to give an answer by clicking a button on the rating scale.</strong></p><p>Press 'Continue' to begin.</p>,0,Continue,Continue,html-button-response,6,452685,0.0-6.0,anomymised,6560c4cfd080ba12b16d8282,6564c90071129d17d9a12771,33860,1A,man,NA,NA,NA,NA,NA,NA,NA,NA,NA,NA
null,Somebody says<br><em>Dave and Beth are marrying each other</em>,NA,NA,NA,html-keyboard-response,7,455698,0.0-7.0-0.0,anomymised,6560c4cfd080ba12b16d8282,6564c90071129d17d9a12771,33860,1A,man,NA,null,NAME1 and NAME2 are marrying each other,marry_conjoined,sentence,NA,NA,NA,NA,NA
21136.099999997765,NA,NA,NA,NA,survey-likert-extra-labels,8,476838,0.0-7.0-1.0,anomymised,6560c4cfd080ba12b16d8282,6564c90071129d17d9a12771,33860,1A,man,NA,NA,Somebody says<br><em>Dave and Beth are marrying each other</em>,marry_conjoined,rating_volition,"{""Q0"":4}",[0],The speaker identifies more with <br>Beth than Dave,The speaker identifies more with<br>Dave than Beth,right_to_left
null,Somebody says<br><em>Fred is being copied by Dave</em>,NA,NA,NA,html-keyboard-response,9,478842,0.0-8.0-0.0,anomymised,6560c4cfd080ba12b16d8282,6564c90071129d17d9a12771,33860,1A,man,NA,null,NAME1 is being copied by NAME2,copy_passive,sentence,NA,NA,NA,NA,NA
20888.5,NA,NA,NA,NA,survey-likert-extra-labels,10,499733,0.0-8.0-1.0,anomymised,6560c4cfd080ba12b16d8282,6564c90071129d17d9a12771,33860,1A,man,NA,NA,Somebody says<br><em>Fred is being copied by Dave</em>,copy_passive,rating_volition,"{""Q0"":5}",[0],The speaker identifies more with <br>Dave than Fred,The speaker identifies more with<br>Fred than Dave,right_to_left
null,Somebody says<br><em>Fred is hugging Luke</em>,NA,NA,NA,html-keyboard-response,11,501749,0.0-9.0-0.0,anomymised,6560c4cfd080ba12b16d8282,6564c90071129d17d9a12771,33860,1A,man,NA,null,NAME1 is hugging NAME2,hug_active,sentence,NA,NA,NA,NA,NA
27373.699999999255,NA,NA,NA,NA,survey-likert-extra-labels,12,529124,0.0-9.0-1.0,anomymised,6560c4cfd080ba12b16d8282,6564c90071129d17d9a12771,33860,1A,man,NA,NA,Somebody says<br><em>Fred is hugging Luke</em>,hug_active,rating_volition,"{""Q0"":6}",[0],The speaker identifies more with <br>Luke than Fred,The speaker identifies more with<br>Fred than Luke,right_to_left
null,Somebody says<br><em>Ruth is chasing Kate,NA,NA,NA,html-keyboard-response,13,531133,0.0-10.0-0.0,anomymised,6560c4cfd080ba12b16d8282,6564c90071129d17d9a12771,33860,1A,man,NA,null,W1 is chasing W3,chase,sentence,NA,NA,NA,NA,NA
64484.89999999851,NA,NA,NA,NA,survey-likert-extra-labels,14,595619,0.0-10.0-1.0,anomymised,6560c4cfd080ba12b16d8282,6564c90071129d17d9a12771,33860,1A,man,NA,NA,Somebody says<br><em>Ruth is chasing Kate,chase,rating_volition,"{""Q0"":0}",[0],Ruth is behind Kate,Kate is behind Ruth,NA
null,Somebody says<br><em>Mike is posing for Dave,NA,NA,NA,html-keyboard-response,15,597628,0.0-11.0-0.0,anomymised,6560c4cfd080ba12b16d8282,6564c90071129d17d9a12771,33860,1A,man,NA,null,M2 is posing for M4,pose,sentence,NA,NA,NA,NA,NA
33861,NA,NA,NA,NA,survey-likert-extra-labels,16,631491,0.0-11.0-1.0,anomymised,6560c4cfd080ba12b16d8282,6564c90071129d17d9a12771,33860,1A,man,NA,NA,Somebody says<br><em>Mike is posing for Dave,pose,rating_volition,"{""Q0"":1}",[0],Mike is modelling for Dave,Dave is modelling for Mike,NA
null,Somebody says<br><em>Jane is being seduced by Ruth</em>,NA,NA,NA,html-keyboard-response,17,633492,0.0-12.0-0.0,anomymised,6560c4cfd080ba12b16d8282,6564c90071129d17d9a12771,33860,1A,man,NA,null,NAME1 is being seduced by NAME2,seduce_passive,sentence,NA,NA,NA,NA,NA
22443.900000002235,NA,NA,NA,NA,survey-likert-extra-labels,18,655939,0.0-12.0-1.0,anomymised,6560c4cfd080ba12b16d8282,6564c90071129d17d9a12771,33860,1A,man,NA,NA,Somebody says<br><em>Jane is being seduced by Ruth</em>,seduce_passive,rating_volition,"{""Q0"":1}",[0],The speaker identifies more with <br>Jane than Ruth,The speaker identifies more with<br>Ruth than Jane,left_to_right
null,Somebody says<br><em>Luke is being touched by Beth</em>,NA,NA,NA,html-keyboard-response,19,657952,0.0-13.0-0.0,anomymised,6560c4cfd080ba12b16d8282,6564c90071129d17d9a12771,33860,1A,man,NA,null,NAME1 is being touched by NAME2,touch_passive,sentence,NA,NA,NA,NA,NA
25945,NA,NA,NA,NA,survey-likert-extra-labels,20,683898,0.0-13.0-1.0,anomymised,6560c4cfd080ba12b16d8282,6564c90071129d17d9a12771,33860,1A,man,NA,NA,Somebody says<br><em>Luke is being touched by Beth</em>,touch_passive,rating_volition,"{""Q0"":0}",[0],The speaker identifies more with <br>Luke than Beth,The speaker identifies more with<br>Beth than Luke,left_to_right
null,Somebody says<br><em>Fred is hiring Ruth,NA,NA,NA,html-keyboard-response,21,685913,0.0-14.0-0.0,anomymised,6560c4cfd080ba12b16d8282,6564c90071129d17d9a12771,33860,1A,man,NA,null,M3 is hiring W1,hire,sentence,NA,NA,NA,NA,NA
22407.300000000745,NA,NA,NA,NA,survey-likert-extra-labels,22,708322,0.0-14.0-1.0,anomymised,6560c4cfd080ba12b16d8282,6564c90071129d17d9a12771,33860,1A,man,NA,NA,Somebody says<br><em>Fred is hiring Ruth,hire,rating_volition,"{""Q0"":0}",[0],Fred is employing Ruth,Ruth is employing Fred,NA
null,Somebody says<br><em>Jane and Ruth are shouting at each other</em>,NA,NA,NA,html-keyboard-response,23,710327,0.0-15.0-0.0,anomymised,6560c4cfd080ba12b16d8282,6564c90071129d17d9a12771,33860,1A,man,NA,null,NAME1 and NAME2 are shouting at each other,shout_conjoined,sentence,NA,NA,NA,NA,NA
29849.699999999255,NA,NA,NA,NA,survey-likert-extra-labels,24,740177,0.0-15.0-1.0,anomymised,6560c4cfd080ba12b16d8282,6564c90071129d17d9a12771,33860,1A,man,NA,NA,Somebody says<br><em>Jane and Ruth are shouting at each other</em>,shout_conjoined,rating_volition,"{""Q0"":3}",[0],The speaker identifies more with <br>Jane than Ruth,The speaker identifies more with<br>Ruth than Jane,left_to_right
null,Somebody says<br><em>Dave and Mike are talking with each other</em>,NA,NA,NA,html-keyboard-response,25,742179,0.0-16.0-0.0,anomymised,6560c4cfd080ba12b16d8282,6564c90071129d17d9a12771,33860,1A,man,NA,null,NAME1 and NAME2 are talking with each other,talk_conjoined,sentence,NA,NA,NA,NA,NA
30067.39999999851,NA,NA,NA,NA,survey-likert-extra-labels,26,772249,0.0-16.0-1.0,anomymised,6560c4cfd080ba12b16d8282,6564c90071129d17d9a12771,33860,1A,man,NA,NA,Somebody says<br><em>Dave and Mike are talking with each other</em>,talk_conjoined,rating_volition,"{""Q0"":2}",[0],The speaker identifies more with <br>Dave than Mike,The speaker identifies more with<br>Mike than Dave,left_to_right
null,Somebody says<br><em>Beth is flirting with Jane</em>,NA,NA,NA,html-keyboard-response,27,774258,0.0-17.0-0.0,anomymised,6560c4cfd080ba12b16d8282,6564c90071129d17d9a12771,33860,1A,man,NA,null,NAME1 is flirting with NAME2,flirt_active,sentence,NA,NA,NA,NA,NA
72882.89999999851,NA,NA,NA,NA,survey-likert-extra-labels,28,847144,0.0-17.0-1.0,anomymised,6560c4cfd080ba12b16d8282,6564c90071129d17d9a12771,33860,1A,man,NA,NA,Somebody says<br><em>Beth is flirting with Jane</em>,flirt_active,rating_volition,"{""Q0"":4}",[0],The speaker identifies more with <br>Beth than Jane,The speaker identifies more with<br>Jane than Beth,left_to_right
null,Somebody says<br><em>Kate is marrying Dave</em>,NA,NA,NA,html-keyboard-response,29,849151,0.0-18.0-0.0,anomymised,6560c4cfd080ba12b16d8282,6564c90071129d17d9a12771,33860,1A,man,NA,null,NAME1 is marrying NAME2,marry_active,sentence,NA,NA,NA,NA,NA
33966.70000000298,NA,NA,NA,NA,survey-likert-extra-labels,30,883120,0.0-18.0-1.0,anomymised,6560c4cfd080ba12b16d8282,6564c90071129d17d9a12771,33860,1A,man,NA,NA,Somebody says<br><em>Kate is marrying Dave</em>,marry_active,rating_volition,"{""Q0"":2}",[0],The speaker identifies more with <br>Dave than Kate,The speaker identifies more with<br>Kate than Dave,right_to_left
null,Somebody says<br><em>Dave and Mike are playing with each other</em>,NA,NA,NA,html-keyboard-response,31,885129,0.0-19.0-0.0,anomymised,6560c4cfd080ba12b16d8282,6564c90071129d17d9a12771,33860,1A,man,NA,null,NAME1 and NAME2 are playing with each other,play_conjoined,sentence,NA,NA,NA,NA,NA
48044.099999997765,NA,NA,NA,NA,survey-likert-extra-labels,32,933175,0.0-19.0-1.0,anomymised,6560c4cfd080ba12b16d8282,6564c90071129d17d9a12771,33860,1A,man,NA,NA,Somebody says<br><em>Dave and Mike are playing with each other</em>,play_conjoined,rating_volition,"{""Q0"":3}",[0],The speaker identifies more with <br>Mike than Dave,The speaker identifies more with<br>Dave than Mike,right_to_left
null,Somebody says<br><em>Mike is meeting Fred</em>,NA,NA,NA,html-keyboard-response,33,935186,0.0-20.0-0.0,anomymised,6560c4cfd080ba12b16d8282,6564c90071129d17d9a12771,33860,1A,man,NA,null,NAME1 is meeting NAME2,meet_active,sentence,NA,NA,NA,NA,NA
34530.599999997765,NA,NA,NA,NA,survey-likert-extra-labels,34,969718,0.0-20.0-1.0,anomymised,6560c4cfd080ba12b16d8282,6564c90071129d17d9a12771,33860,1A,man,NA,NA,Somebody says<br><em>Mike is meeting Fred</em>,meet_active,rating_volition,"{""Q0"":5}",[0],The speaker identifies more with <br>Fred than Mike,The speaker identifies more with<br>Mike than Fred,right_to_left
null,Somebody says<br><em>Ruth is playing with Jane</em>,NA,NA,NA,html-keyboard-response,35,971735,0.0-21.0-0.0,anomymised,6560c4cfd080ba12b16d8282,6564c90071129d17d9a12771,33860,1A,man,NA,null,NAME1 is playing with NAME2,play_active,sentence,NA,NA,NA,NA,NA
55716.39999999851,NA,NA,NA,NA,survey-likert-extra-labels,36,1027454,0.0-21.0-1.0,anomymised,6560c4cfd080ba12b16d8282,6564c90071129d17d9a12771,33860,1A,man,NA,NA,Somebody says<br><em>Ruth is playing with Jane</em>,play_active,rating_volition,"{""Q0"":4}",[0],The speaker identifies more with <br>Jane than Ruth,The speaker identifies more with<br>Ruth than Jane,right_to_left
null,Somebody says<br><em>Dave is being greeted by Mike</em>,NA,NA,NA,html-keyboard-response,37,1029468,0.0-22.0-0.0,anomymised,6560c4cfd080ba12b16d8282,6564c90071129d17d9a12771,33860,1A,man,NA,null,NAME1 is being greeted by NAME2,greet_passive,sentence,NA,NA,NA,NA,NA
26799.39999999851,NA,NA,NA,NA,survey-likert-extra-labels,38,1056269,0.0-22.0-1.0,anomymised,6560c4cfd080ba12b16d8282,6564c90071129d17d9a12771,33860,1A,man,NA,NA,Somebody says<br><em>Dave is being greeted by Mike</em>,greet_passive,rating_volition,"{""Q0"":5}",[0],The speaker identifies more with <br>Dave than Mike,The speaker identifies more with<br>Mike than Dave,left_to_right
null,Somebody says<br><em>Jane is being kissed by Beth</em>,NA,NA,NA,html-keyboard-response,39,1058283,0.0-23.0-0.0,anomymised,6560c4cfd080ba12b16d8282,6564c90071129d17d9a12771,33860,1A,man,NA,null,NAME1 is being kissed by NAME2,kiss_passive,sentence,NA,NA,NA,NA,NA
17351.60000000149,NA,NA,NA,NA,survey-likert-extra-labels,40,1075637,0.0-23.0-1.0,anomymised,6560c4cfd080ba12b16d8282,6564c90071129d17d9a12771,33860,1A,man,NA,NA,Somebody says<br><em>Jane is being kissed by Beth</em>,kiss_passive,rating_volition,"{""Q0"":1}",[0],The speaker identifies more with <br>Beth than Jane,The speaker identifies more with<br>Jane than Beth,right_to_left
null,Somebody says<br><em>Dave is being challenged by Ruth</em>,NA,NA,NA,html-keyboard-response,41,1077640,0.0-24.0-0.0,anomymised,6560c4cfd080ba12b16d8282,6564c90071129d17d9a12771,33860,1A,man,NA,null,NAME1 is being challenged by NAME2,challenge_passive,sentence,NA,NA,NA,NA,NA
14642.699999999255,NA,NA,NA,NA,survey-likert-extra-labels,42,1092285,0.0-24.0-1.0,anomymised,6560c4cfd080ba12b16d8282,6564c90071129d17d9a12771,33860,1A,man,NA,NA,Somebody says<br><em>Dave is being challenged by Ruth</em>,challenge_passive,rating_volition,"{""Q0"":1}",[0],The speaker identifies more with <br>Ruth than Dave,The speaker identifies more with<br>Dave than Ruth,right_to_left
null,Somebody says<br><em>Beth is shouting at Dave</em>,NA,NA,NA,html-keyboard-response,43,1094287,0.0-25.0-0.0,anomymised,6560c4cfd080ba12b16d8282,6564c90071129d17d9a12771,33860,1A,man,NA,null,NAME1 is shouting at NAME2,shout_active,sentence,NA,NA,NA,NA,NA
42371.699999999255,NA,NA,NA,NA,survey-likert-extra-labels,44,1136660,0.0-25.0-1.0,anomymised,6560c4cfd080ba12b16d8282,6564c90071129d17d9a12771,33860,1A,man,NA,NA,Somebody says<br><em>Beth is shouting at Dave</em>,shout_active,rating_volition,"{""Q0"":2}",[0],The speaker identifies more with <br>Dave than Beth,The speaker identifies more with<br>Beth than Dave,right_to_left
null,Somebody says<br><em>Fred is challenging Jane</em>,NA,NA,NA,html-keyboard-response,45,1138667,0.0-26.0-0.0,anomymised,6560c4cfd080ba12b16d8282,6564c90071129d17d9a12771,33860,1A,man,NA,null,NAME1 is challenging NAME2,challenge_active,sentence,NA,NA,NA,NA,NA
15735.10000000149,NA,NA,NA,NA,survey-likert-extra-labels,46,1154404,0.0-26.0-1.0,anomymised,6560c4cfd080ba12b16d8282,6564c90071129d17d9a12771,33860,1A,man,NA,NA,Somebody says<br><em>Fred is challenging Jane</em>,challenge_active,rating_volition,"{""Q0"":4}",[0],The speaker identifies more with <br>Fred than Jane,The speaker identifies more with<br>Jane than Fred,left_to_right
null,Somebody says<br><em>Fred is arguing with Mike</em>,NA,NA,NA,html-keyboard-response,47,1156408,0.0-27.0-0.0,anomymised,6560c4cfd080ba12b16d8282,6564c90071129d17d9a12771,33860,1A,man,NA,null,NAME1 is arguing with NAME2,argue_active,sentence,NA,NA,NA,NA,NA
34200.79999999702,NA,NA,NA,NA,survey-likert-extra-labels,48,1190611,0.0-27.0-1.0,anomymised,6560c4cfd080ba12b16d8282,6564c90071129d17d9a12771,33860,1A,man,NA,NA,Somebody says<br><em>Fred is arguing with Mike</em>,argue_active,rating_volition,"{""Q0"":2}",[0],The speaker identifies more with <br>Mike than Fred,The speaker identifies more with<br>Fred than Mike,right_to_left
null,Somebody says<br><em>Ruth and Beth are dancing with each other</em>,NA,NA,NA,html-keyboard-response,49,1192614,0.0-28.0-0.0,anomymised,6560c4cfd080ba12b16d8282,6564c90071129d17d9a12771,33860,1A,man,NA,null,NAME1 and NAME2 are dancing with each other,dance_conjoined,sentence,NA,NA,NA,NA,NA
30931.60000000149,NA,NA,NA,NA,survey-likert-extra-labels,50,1223547,0.0-28.0-1.0,anomymised,6560c4cfd080ba12b16d8282,6564c90071129d17d9a12771,33860,1A,man,NA,NA,Somebody says<br><em>Ruth and Beth are dancing with each other</em>,dance_conjoined,rating_volition,"{""Q0"":3}",[0],The speaker identifies more with <br>Beth than Ruth,The speaker identifies more with<br>Ruth than Beth,right_to_left
null,Somebody says<br><em>Mike is opposing Jane</em>,NA,NA,NA,html-keyboard-response,51,1225550,0.0-29.0-0.0,anomymised,6560c4cfd080ba12b16d8282,6564c90071129d17d9a12771,33860,1A,man,NA,null,NAME1 is opposing NAME2,oppose_active,sentence,NA,NA,NA,NA,NA
16858.5,NA,NA,NA,NA,survey-likert-extra-labels,52,1242410,0.0-29.0-1.0,anomymised,6560c4cfd080ba12b16d8282,6564c90071129d17d9a12771,33860,1A,man,NA,NA,Somebody says<br><em>Mike is opposing Jane</em>,oppose_active,rating_volition,"{""Q0"":1}",[0],The speaker identifies more with <br>Jane than Mike,The speaker identifies more with<br>Mike than Jane,right_to_left
null,Somebody says<br><em>Beth is fighting with Kate</em>,NA,NA,NA,html-keyboard-response,53,1244422,0.0-30.0-0.0,anomymised,6560c4cfd080ba12b16d8282,6564c90071129d17d9a12771,33860,1A,man,NA,null,NAME1 is fighting with NAME2,fight_active,sentence,NA,NA,NA,NA,NA
8873.89999999851,NA,NA,NA,NA,survey-likert-extra-labels,54,1253298,0.0-30.0-1.0,anomymised,6560c4cfd080ba12b16d8282,6564c90071129d17d9a12771,33860,1A,man,NA,NA,Somebody says<br><em>Beth is fighting with Kate</em>,fight_active,rating_volition,"{""Q0"":2}",[0],The speaker identifies more with <br>Kate than Beth,The speaker identifies more with<br>Beth than Kate,right_to_left
null,Somebody says<br><em>Beth is seducing Fred</em>,NA,NA,NA,html-keyboard-response,55,1255308,0.0-31.0-0.0,anomymised,6560c4cfd080ba12b16d8282,6564c90071129d17d9a12771,33860,1A,man,NA,null,NAME1 is seducing NAME2,seduce_active,sentence,NA,NA,NA,NA,NA
20964.29999999702,NA,NA,NA,NA,survey-likert-extra-labels,56,1276274,0.0-31.0-1.0,anomymised,6560c4cfd080ba12b16d8282,6564c90071129d17d9a12771,33860,1A,man,NA,NA,Somebody says<br><em>Beth is seducing Fred</em>,seduce_active,rating_volition,"{""Q0"":2}",[0],The speaker identifies more with <br>Fred than Beth,The speaker identifies more with<br>Beth than Fred,right_to_left
null,Somebody says<br><em>Jane is teaching Dave,NA,NA,NA,html-keyboard-response,57,1278276,0.0-32.0-0.0,anomymised,6560c4cfd080ba12b16d8282,6564c90071129d17d9a12771,33860,1A,man,NA,null,W2 is teaching M4,teach,sentence,NA,NA,NA,NA,NA
21843.39999999851,NA,NA,NA,NA,survey-likert-extra-labels,58,1300122,0.0-32.0-1.0,anomymised,6560c4cfd080ba12b16d8282,6564c90071129d17d9a12771,33860,1A,man,NA,NA,Somebody says<br><em>Jane is teaching Dave,teach,rating_volition,"{""Q0"":0}",[0],Jane is educating Dave,Dave is educating Jane,NA
null,Somebody says<br><em>Beth is being looked at by Kate</em>,NA,NA,NA,html-keyboard-response,59,1302136,0.0-33.0-0.0,anomymised,6560c4cfd080ba12b16d8282,6564c90071129d17d9a12771,33860,1A,man,NA,null,NAME1 is being looked at by NAME2,look_passive,sentence,NA,NA,NA,NA,NA
25367.599999997765,NA,NA,NA,NA,survey-likert-extra-labels,60,1327506,0.0-33.0-1.0,anomymised,6560c4cfd080ba12b16d8282,6564c90071129d17d9a12771,33860,1A,man,NA,NA,Somebody says<br><em>Beth is being looked at by Kate</em>,look_passive,rating_volition,"{""Q0"":5}",[0],The speaker identifies more with <br>Beth than Kate,The speaker identifies more with<br>Kate than Beth,left_to_right
null,Somebody says<br><em>Mike is being hugged by Dave</em>,NA,NA,NA,html-keyboard-response,61,1329508,0.0-34.0-0.0,anomymised,6560c4cfd080ba12b16d8282,6564c90071129d17d9a12771,33860,1A,man,NA,null,NAME1 is being hugged by NAME2,hug_passive,sentence,NA,NA,NA,NA,NA
24683.5,NA,NA,NA,NA,survey-likert-extra-labels,62,1354193,0.0-34.0-1.0,anomymised,6560c4cfd080ba12b16d8282,6564c90071129d17d9a12771,33860,1A,man,NA,NA,Somebody says<br><em>Mike is being hugged by Dave</em>,hug_passive,rating_volition,"{""Q0"":2}",[0],The speaker identifies more with <br>Mike than Dave,The speaker identifies more with<br>Dave than Mike,left_to_right
null,Somebody says<br><em>Ruth is touching Jane</em>,NA,NA,NA,html-keyboard-response,63,1356209,0.0-35.0-0.0,anomymised,6560c4cfd080ba12b16d8282,6564c90071129d17d9a12771,33860,1A,man,NA,null,NAME1 is touching NAME2,touch_active,sentence,NA,NA,NA,NA,NA
12190.699999999255,NA,NA,NA,NA,survey-likert-extra-labels,64,1368401,0.0-35.0-1.0,anomymised,6560c4cfd080ba12b16d8282,6564c90071129d17d9a12771,33860,1A,man,NA,NA,Somebody says<br><em>Ruth is touching Jane</em>,touch_active,rating_volition,"{""Q0"":2}",[0],The speaker identifies more with <br>Jane than Ruth,The speaker identifies more with<br>Ruth than Jane,right_to_left
null,Somebody says<br><em>Kate is greeting Mike</em>,NA,NA,NA,html-keyboard-response,65,1370416,0.0-36.0-0.0,anomymised,6560c4cfd080ba12b16d8282,6564c90071129d17d9a12771,33860,1A,man,NA,null,NAME1 is greeting NAME2,greet_active,sentence,NA,NA,NA,NA,NA
23102.599999997765,NA,NA,NA,NA,survey-likert-extra-labels,66,1393520,0.0-36.0-1.0,anomymised,6560c4cfd080ba12b16d8282,6564c90071129d17d9a12771,33860,1A,man,NA,NA,Somebody says<br><em>Kate is greeting Mike</em>,greet_active,rating_volition,"{""Q0"":2}",[0],The speaker identifies more with <br>Mike than Kate,The speaker identifies more with<br>Kate than Mike,right_to_left
null,Somebody says<br><em>Kate is kissing Ruth</em>,NA,NA,NA,html-keyboard-response,67,1395534,0.0-37.0-0.0,anomymised,6560c4cfd080ba12b16d8282,6564c90071129d17d9a12771,33860,1A,man,NA,null,NAME1 is kissing NAME2,kiss_active,sentence,NA,NA,NA,NA,NA
15640.300000000745,NA,NA,NA,NA,survey-likert-extra-labels,68,1411176,0.0-37.0-1.0,anomymised,6560c4cfd080ba12b16d8282,6564c90071129d17d9a12771,33860,1A,man,NA,NA,Somebody says<br><em>Kate is kissing Ruth</em>,kiss_active,rating_volition,"{""Q0"":1}",[0],The speaker identifies more with <br>Kate than Ruth,The speaker identifies more with<br>Ruth than Kate,left_to_right
null,Somebody says<br><em>Jane is shouting at Fred</em>,NA,NA,NA,html-keyboard-response,69,1413178,0.0-38.0-0.0,anomymised,6560c4cfd080ba12b16d8282,6564c90071129d17d9a12771,33860,1A,man,NA,null,NAME1 is shouting at NAME2,shout_active,sentence,NA,NA,NA,NA,NA
51235.199999999255,NA,NA,NA,NA,survey-likert-extra-labels,70,1464416,0.0-38.0-1.0,anomymised,6560c4cfd080ba12b16d8282,6564c90071129d17d9a12771,33860,1A,man,NA,NA,Somebody says<br><em>Jane is shouting at Fred</em>,shout_active,rating_volition,"{""Q0"":2}",[0],The speaker identifies more with <br>Fred than Jane,The speaker identifies more with<br>Jane than Fred,right_to_left
null,Somebody says<br><em>Luke is looking at Beth</em>,NA,NA,NA,html-keyboard-response,71,1466421,0.0-39.0-0.0,anomymised,6560c4cfd080ba12b16d8282,6564c90071129d17d9a12771,33860,1A,man,NA,null,NAME1 is looking at NAME2,look_active,sentence,NA,NA,NA,NA,NA
11536.70000000298,NA,NA,NA,NA,survey-likert-extra-labels,72,1477959,0.0-39.0-1.0,anomymised,6560c4cfd080ba12b16d8282,6564c90071129d17d9a12771,33860,1A,man,NA,NA,Somebody says<br><em>Luke is looking at Beth</em>,look_active,rating_volition,"{""Q0"":2}",[0],The speaker identifies more with <br>Beth than Luke,The speaker identifies more with<br>Luke than Beth,right_to_left
null,Somebody says<br><em>Fred is being shouted at by Jane</em>,NA,NA,NA,html-keyboard-response,73,1479962,0.0-40.0-0.0,anomymised,6560c4cfd080ba12b16d8282,6564c90071129d17d9a12771,33860,1A,man,NA,null,NAME1 is being shouted at by NAME2,shout_passive,sentence,NA,NA,NA,NA,NA
14755.699999999255,NA,NA,NA,NA,survey-likert-extra-labels,74,1494719,0.0-40.0-1.0,anomymised,6560c4cfd080ba12b16d8282,6564c90071129d17d9a12771,33860,1A,man,NA,NA,Somebody says<br><em>Fred is being shouted at by Jane</em>,shout_passive,rating_volition,"{""Q0"":1}",[0],The speaker identifies more with <br>Fred than Jane,The speaker identifies more with<br>Jane than Fred,left_to_right
null,Somebody says<br><em>Jane and Dave are flirting with each other</em>,NA,NA,NA,html-keyboard-response,75,1496730,0.0-41.0-0.0,anomymised,6560c4cfd080ba12b16d8282,6564c90071129d17d9a12771,33860,1A,man,NA,null,NAME1 and NAME2 are flirting with each other,flirt_conjoined,sentence,NA,NA,NA,NA,NA
33642.900000002235,NA,NA,NA,NA,survey-likert-extra-labels,76,1530374,0.0-41.0-1.0,anomymised,6560c4cfd080ba12b16d8282,6564c90071129d17d9a12771,33860,1A,man,NA,NA,Somebody says<br><em>Jane and Dave are flirting with each other</em>,flirt_conjoined,rating_volition,"{""Q0"":2}",[0],The speaker identifies more with <br>Jane than Dave,The speaker identifies more with<br>Dave than Jane,left_to_right
null,Somebody says<br><em>Mike is reminding Beth,NA,NA,NA,html-keyboard-response,77,1532388,0.0-42.0-0.0,anomymised,6560c4cfd080ba12b16d8282,6564c90071129d17d9a12771,33860,1A,man,NA,null,M2 is reminding W4,remind,sentence,NA,NA,NA,NA,NA
32223.89999999851,NA,NA,NA,NA,survey-likert-extra-labels,78,1564614,0.0-42.0-1.0,anomymised,6560c4cfd080ba12b16d8282,6564c90071129d17d9a12771,33860,1A,man,NA,NA,Somebody says<br><em>Mike is reminding Beth,remind,rating_volition,"{""Q0"":0}",[0],Mike is telling Beth again,Beth is telling Mike again,NA
null,Somebody says<br><em>Luke is talking to Fred</em>,NA,NA,NA,html-keyboard-response,79,1566626,0.0-43.0-0.0,anomymised,6560c4cfd080ba12b16d8282,6564c90071129d17d9a12771,33860,1A,man,NA,null,NAME1 is talking to NAME2,talk_active,sentence,NA,NA,NA,NA,NA
11569.199999999255,NA,NA,NA,NA,survey-likert-extra-labels,80,1578198,0.0-43.0-1.0,anomymised,6560c4cfd080ba12b16d8282,6564c90071129d17d9a12771,33860,1A,man,NA,NA,Somebody says<br><em>Luke is talking to Fred</em>,talk_active,rating_volition,"{""Q0"":4}",[0],The speaker identifies more with <br>Luke than Fred,The speaker identifies more with<br>Fred than Luke,left_to_right
null,Somebody says<br><em>Fred and Jane are touching each other</em>,NA,NA,NA,html-keyboard-response,81,1580214,0.0-44.0-0.0,anomymised,6560c4cfd080ba12b16d8282,6564c90071129d17d9a12771,33860,1A,man,NA,null,NAME1 and NAME2 are touching each other,touch_conjoined,sentence,NA,NA,NA,NA,NA
7869.89999999851,NA,NA,NA,NA,survey-likert-extra-labels,82,1588085,0.0-44.0-1.0,anomymised,6560c4cfd080ba12b16d8282,6564c90071129d17d9a12771,33860,1A,man,NA,NA,Somebody says<br><em>Fred and Jane are touching each other</em>,touch_conjoined,rating_volition,"{""Q0"":3}",[0],The speaker identifies more with <br>Fred than Jane,The speaker identifies more with<br>Jane than Fred,left_to_right
null,Somebody says<br><em>Mike is copying Ruth</em>,NA,NA,NA,html-keyboard-response,83,1590088,0.0-45.0-0.0,anomymised,6560c4cfd080ba12b16d8282,6564c90071129d17d9a12771,33860,1A,man,NA,null,NAME1 is copying NAME2,copy_active,sentence,NA,NA,NA,NA,NA
9163.39999999851,NA,NA,NA,NA,survey-likert-extra-labels,84,1599253,0.0-45.0-1.0,anomymised,6560c4cfd080ba12b16d8282,6564c90071129d17d9a12771,33860,1A,man,NA,NA,Somebody says<br><em>Mike is copying Ruth</em>,copy_active,rating_volition,"{""Q0"":1}",[0],The speaker identifies more with <br>Ruth than Mike,The speaker identifies more with<br>Mike than Ruth,right_to_left
null,Somebody says<br><em>Luke and Beth are arguing with each other</em>,NA,NA,NA,html-keyboard-response,85,1601258,0.0-46.0-0.0,anomymised,6560c4cfd080ba12b16d8282,6564c90071129d17d9a12771,33860,1A,man,NA,null,NAME1 and NAME2 are arguing with each other,argue_conjoined,sentence,NA,NA,NA,NA,NA
16793.20000000298,NA,NA,NA,NA,survey-likert-extra-labels,86,1618053,0.0-46.0-1.0,anomymised,6560c4cfd080ba12b16d8282,6564c90071129d17d9a12771,33860,1A,man,NA,NA,Somebody says<br><em>Luke and Beth are arguing with each other</em>,argue_conjoined,rating_volition,"{""Q0"":3}",[0],The speaker identifies more with <br>Beth than Luke,The speaker identifies more with<br>Luke than Beth,right_to_left
null,Somebody says<br><em>Ruth and Luke are kissing each other</em>,NA,NA,NA,html-keyboard-response,87,1620070,0.0-47.0-0.0,anomymised,6560c4cfd080ba12b16d8282,6564c90071129d17d9a12771,33860,1A,man,NA,null,NAME1 and NAME2 are kissing each other,kiss_conjoined,sentence,NA,NA,NA,NA,NA
52012.800000000745,NA,NA,NA,NA,survey-likert-extra-labels,88,1672084,0.0-47.0-1.0,anomymised,6560c4cfd080ba12b16d8282,6564c90071129d17d9a12771,33860,1A,man,NA,NA,Somebody says<br><em>Ruth and Luke are kissing each other</em>,kiss_conjoined,rating_volition,"{""Q0"":3}",[0],The speaker identifies more with <br>Luke than Ruth,The speaker identifies more with<br>Ruth than Luke,right_to_left
null,Somebody says<br><em>Luke is being opposed by Mike</em>,NA,NA,NA,html-keyboard-response,89,1674101,0.0-48.0-0.0,anomymised,6560c4cfd080ba12b16d8282,6564c90071129d17d9a12771,33860,1A,man,NA,null,NAME1 is being opposed by NAME2,oppose_passive,sentence,NA,NA,NA,NA,NA
21245.300000000745,NA,NA,NA,NA,survey-likert-extra-labels,90,1695348,0.0-48.0-1.0,anomymised,6560c4cfd080ba12b16d8282,6564c90071129d17d9a12771,33860,1A,man,NA,NA,Somebody says<br><em>Luke is being opposed by Mike</em>,oppose_passive,rating_volition,"{""Q0"":4}",[0],The speaker identifies more with <br>Luke than Mike,The speaker identifies more with<br>Mike than Luke,left_to_right
null,Somebody says<br><em>Fred and Dave are meeting each other</em>,NA,NA,NA,html-keyboard-response,91,1697351,0.0-49.0-0.0,anomymised,6560c4cfd080ba12b16d8282,6564c90071129d17d9a12771,33860,1A,man,NA,null,NAME1 and NAME2 are meeting each other,meet_conjoined,sentence,NA,NA,NA,NA,NA
12322.89999999851,NA,NA,NA,NA,survey-likert-extra-labels,92,1709676,0.0-49.0-1.0,anomymised,6560c4cfd080ba12b16d8282,6564c90071129d17d9a12771,33860,1A,man,NA,NA,Somebody says<br><em>Fred and Dave are meeting each other</em>,meet_conjoined,rating_volition,"{""Q0"":4}",[0],The speaker identifies more with <br>Dave than Fred,The speaker identifies more with<br>Fred than Dave,right_to_left
null,Somebody says<br><em>Luke is driving Fred,NA,NA,NA,html-keyboard-response,93,1711682,0.0-50.0-0.0,anomymised,6560c4cfd080ba12b16d8282,6564c90071129d17d9a12771,33860,1A,man,NA,null,M1 is driving M3,drive,sentence,NA,NA,NA,NA,NA
27879.900000002235,NA,NA,NA,NA,survey-likert-extra-labels,94,1739564,0.0-50.0-1.0,anomymised,6560c4cfd080ba12b16d8282,6564c90071129d17d9a12771,33860,1A,man,NA,NA,Somebody says<br><em>Luke is driving Fred,drive,rating_volition,"{""Q0"":6}",[0],Luke is Fred's passenger,Fred is Luke's passenger,NA
null,Somebody says<br><em>Beth and Fred are fighting with each other</em>,NA,NA,NA,html-keyboard-response,95,1741565,0.0-51.0-0.0,anomymised,6560c4cfd080ba12b16d8282,6564c90071129d17d9a12771,33860,1A,man,NA,null,NAME1 and NAME2 are fighting with each other,fight_conjoined,sentence,NA,NA,NA,NA,NA
9812,NA,NA,NA,NA,survey-likert-extra-labels,96,1751380,0.0-51.0-1.0,anomymised,6560c4cfd080ba12b16d8282,6564c90071129d17d9a12771,33860,1A,man,NA,NA,Somebody says<br><em>Beth and Fred are fighting with each other</em>,fight_conjoined,rating_volition,"{""Q0"":3}",[0],The speaker identifies more with <br>Fred than Beth,The speaker identifies more with<br>Beth than Fred,right_to_left
null,Somebody says<br><em>Mike and Jane are hugging each other</em>,NA,NA,NA,html-keyboard-response,97,1753392,0.0-52.0-0.0,anomymised,6560c4cfd080ba12b16d8282,6564c90071129d17d9a12771,33860,1A,man,NA,null,NAME1 and NAME2 are hugging each other,hug_conjoined,sentence,NA,NA,NA,NA,NA
14577,NA,NA,NA,NA,survey-likert-extra-labels,98,1767972,0.0-52.0-1.0,anomymised,6560c4cfd080ba12b16d8282,6564c90071129d17d9a12771,33860,1A,man,NA,NA,Somebody says<br><em>Mike and Jane are hugging each other</em>,hug_conjoined,rating_volition,"{""Q0"":2}",[0],The speaker identifies more with <br>Mike than Jane,The speaker identifies more with<br>Jane than Mike,left_to_right
null,Somebody says<br><em>Kate is feeding Luke,NA,NA,NA,html-keyboard-response,99,1769975,0.0-53.0-0.0,anomymised,6560c4cfd080ba12b16d8282,6564c90071129d17d9a12771,33860,1A,man,NA,null,W3 is feeding M1,feed,sentence,NA,NA,NA,NA,NA
12842.300000000745,NA,NA,NA,NA,survey-likert-extra-labels,100,1782820,0.0-53.0-1.0,anomymised,6560c4cfd080ba12b16d8282,6564c90071129d17d9a12771,33860,1A,man,NA,NA,Somebody says<br><em>Kate is feeding Luke,feed,rating_volition,"{""Q0"":0}",[0],Kate cooked for Luke,Luke cooked for Kate,NA
null,Somebody says<br><em>Jane is carrying Beth,NA,NA,NA,html-keyboard-response,101,1784834,0.0-54.0-0.0,anomymised,6560c4cfd080ba12b16d8282,6564c90071129d17d9a12771,33860,1A,man,NA,null,W2 is carrying W4,carry,sentence,NA,NA,NA,NA,NA
17367.89999999851,NA,NA,NA,NA,survey-likert-extra-labels,102,1802203,0.0-54.0-1.0,anomymised,6560c4cfd080ba12b16d8282,6564c90071129d17d9a12771,33860,1A,man,NA,NA,Somebody says<br><em>Jane is carrying Beth,carry,rating_volition,"{""Q0"":0}",[0],Jane is transporting Beth,Beth is transporting Jane,NA
null,Somebody says<br><em>Mike is dancing with Ruth</em>,NA,NA,NA,html-keyboard-response,103,1804220,0.0-55.0-0.0,anomymised,6560c4cfd080ba12b16d8282,6564c90071129d17d9a12771,33860,1A,man,NA,null,NAME1 is dancing with NAME2,dance_active,sentence,NA,NA,NA,NA,NA
9733.39999999851,NA,NA,NA,NA,survey-likert-extra-labels,104,1813955,0.0-55.0-1.0,anomymised,6560c4cfd080ba12b16d8282,6564c90071129d17d9a12771,33860,1A,man,NA,NA,Somebody says<br><em>Mike is dancing with Ruth</em>,dance_active,rating_volition,"{""Q0"":4}",[0],The speaker identifies more with <br>Mike than Ruth,The speaker identifies more with<br>Ruth than Mike,left_to_right
4542.300000000745,<p>Thank you for completing that task.</p><p>The final part of this session is a short questionnaire.</p><p>Press Continue.</p>,0,Continue,Continue,html-button-response,105,1818499,0.0-56.0,anomymised,6560c4cfd080ba12b16d8282,6564c90071129d17d9a12771,33860,1A,man,NA,NA,NA,NA,NA,NA,NA,NA,NA,NA
181676.5,NA,NA,NA,NA,survey-text,106,2001185,0.0-57.0,anomymised,6560c4cfd080ba12b16d8282,6564c90071129d17d9a12771,33860,1A,man,NA,NA,NA,NA,demographics,"{""Q0"":""31"",""Q1"":""English"",""Q2"":""English"",""Q3"":""United Kingdom"",""Q4"":""British"",""Q5"":""Black"",""Q6"":""Male""}",NA,NA,NA,NA
18789.5,<p>This is the last question - thank you for taking part! Have you lived in the UK for the last 5 years or more?</p>,0,"Yes,No",Yes,html-button-response,107,2019975,0.0-58.0,anomymised,6560c4cfd080ba12b16d8282,6564c90071129d17d9a12771,33860,1A,man,NA,NA,NA,NA,fiveyears,NA,NA,NA,NA,NA
