rt,stimulus,button_pressed,choices,ChosenStimulus,trial_type,trial_index,time_elapsed,internal_node_id,subject_id,study_id,session_id,subject,list,ppt_gender,url,key_press,sentence_type,verb,test_part,responses,question_order,left_part,right_part,name_order
20051,Welcome to the experiment. Press Continue to begin.,0,Continue,Continue,html-button-response,0,20053,0.0-0.0,anomymised,6560c4cfd080ba12b16d8282,6564c85022daa3f9eb9bb6e2,35817,1A,man,NA,NA,NA,NA,NA,NA,NA,NA,NA,NA
8618,NA,NA,NA,NA,external-html,1,29836,0.0-1.0,anomymised,6560c4cfd080ba12b16d8282,6564c85022daa3f9eb9bb6e2,35817,1A,man,consent.html,NA,NA,NA,NA,NA,NA,NA,NA,NA
5912.999999999996,"<p>Welcome.</p><p>In this experiment we will ask you to imagine people's motivations for saying sentences.</p><p>Each trial will begin with a sentence that somebody might say to describe an event involving two different people.</p><p>For instance, someone might say <em>Harry is being recruited by Molly</em></p><p>We want you to think about which of those two people (Molly and Harry) the speaker identifies more with. For instance, why did the speaker say <em>Harry is being recruited by Molly</em> rather than <em> Molly is recruiting Harry</em>? Might that mean that the speaker is socially closer to one of the two characters?</p><p>After you have read the sentence, you will rate on a scale which of the two characters the speaker identifies more with.</p><p>You will give your answer by clicking a button on a rating scale.</p><p>Sometimes there will also be catch questions designed to make sure that you are paying attention, which ask about a different topic.</p><p>To do this task, you will have to use your imagination to think about and visualise the events, and how the speaker might relate to the characters.</p><br><p>Ready?</p>",0,Continue,Continue,html-button-response,2,35751,0.0-2.0,anomymised,6560c4cfd080ba12b16d8282,6564c85022daa3f9eb9bb6e2,35817,1A,man,NA,NA,NA,NA,NA,NA,NA,NA,NA,NA
5182.000000000007,"<p>Before the experiment starts, we will show you an example of how you will answer the questions. Press 'Continue'.</p>",0,Continue,Continue,html-button-response,3,41935,0.0-3.0,anomymised,6560c4cfd080ba12b16d8282,6564c85022daa3f9eb9bb6e2,35817,1A,man,NA,NA,NA,NA,NA,NA,NA,NA,NA,NA
null,Somebody says <br><em>Samuel is dining with Frank</em>,NA,NA,NA,html-keyboard-response,4,44940,0.0-4.0,anomymised,6560c4cfd080ba12b16d8282,6564c85022daa3f9eb9bb6e2,35817,1A,man,NA,null,NA,NA,NA,NA,NA,NA,NA,NA
36570,<img src='img/Example-trial.jpg' style='height:550px;''></img>,0,Continue,Continue,html-button-response,5,81522,0.0-5.0,anomymised,6560c4cfd080ba12b16d8282,6564c85022daa3f9eb9bb6e2,35817,1A,man,NA,NA,NA,NA,NA,NA,NA,NA,NA,NA
1577.9999999999854,<p>Ready to start the experiment?</p><br><p><strong>Remember to give an answer by clicking a button on the rating scale.</strong></p><p>Press 'Continue' to begin.</p>,0,Continue,Continue,html-button-response,6,84104,0.0-6.0,anomymised,6560c4cfd080ba12b16d8282,6564c85022daa3f9eb9bb6e2,35817,1A,man,NA,NA,NA,NA,NA,NA,NA,NA,NA,NA
null,Somebody says<br><em>Mike is being opposed by Jane</em>,NA,NA,NA,html-keyboard-response,7,87108,0.0-7.0-0.0,anomymised,6560c4cfd080ba12b16d8282,6564c85022daa3f9eb9bb6e2,35817,1A,man,NA,null,NAME1 is being opposed by NAME2,oppose_passive,sentence,NA,NA,NA,NA,NA
5095,NA,NA,NA,NA,survey-likert-extra-labels,8,92206,0.0-7.0-1.0,anomymised,6560c4cfd080ba12b16d8282,6564c85022daa3f9eb9bb6e2,35817,1A,man,NA,NA,Somebody says<br><em>Mike is being opposed by Jane</em>,oppose_passive,rating_volition,"{""Q0"":5}",[0],The speaker identifies more with <br>Jane than Mike,The speaker identifies more with<br>Mike than Jane,right_to_left
null,Somebody says<br><em>Mike and Kate are talking with each other</em>,NA,NA,NA,html-keyboard-response,9,94220,0.0-8.0-0.0,anomymised,6560c4cfd080ba12b16d8282,6564c85022daa3f9eb9bb6e2,35817,1A,man,NA,null,NAME1 and NAME2 are talking with each other,talk_conjoined,sentence,NA,NA,NA,NA,NA
5765,NA,NA,NA,NA,survey-likert-extra-labels,10,99988,0.0-8.0-1.0,anomymised,6560c4cfd080ba12b16d8282,6564c85022daa3f9eb9bb6e2,35817,1A,man,NA,NA,Somebody says<br><em>Mike and Kate are talking with each other</em>,talk_conjoined,rating_volition,"{""Q0"":2}",[0],The speaker identifies more with <br>Mike than Kate,The speaker identifies more with<br>Kate than Mike,left_to_right
null,Somebody says<br><em>Luke is driving Fred,NA,NA,NA,html-keyboard-response,11,102001,0.0-9.0-0.0,anomymised,6560c4cfd080ba12b16d8282,6564c85022daa3f9eb9bb6e2,35817,1A,man,NA,null,M1 is driving M3,drive,sentence,NA,NA,NA,NA,NA
9136,NA,NA,NA,NA,survey-likert-extra-labels,12,111140,0.0-9.0-1.0,anomymised,6560c4cfd080ba12b16d8282,6564c85022daa3f9eb9bb6e2,35817,1A,man,NA,NA,Somebody says<br><em>Luke is driving Fred,drive,rating_volition,"{""Q0"":6}",[0],Luke is Fred's passenger,Fred is Luke's passenger,NA
null,Somebody says<br><em>Jane is carrying Beth,NA,NA,NA,html-keyboard-response,13,113158,0.0-10.0-0.0,anomymised,6560c4cfd080ba12b16d8282,6564c85022daa3f9eb9bb6e2,35817,1A,man,NA,null,W2 is carrying W4,carry,sentence,NA,NA,NA,NA,NA
4861.000000000015,NA,NA,NA,NA,survey-likert-extra-labels,14,118021,0.0-10.0-1.0,anomymised,6560c4cfd080ba12b16d8282,6564c85022daa3f9eb9bb6e2,35817,1A,man,NA,NA,Somebody says<br><em>Jane is carrying Beth,carry,rating_volition,"{""Q0"":0}",[0],Jane is transporting Beth,Beth is transporting Jane,NA
null,Somebody says<br><em>Jane is hugging Fred</em>,NA,NA,NA,html-keyboard-response,15,120036,0.0-11.0-0.0,anomymised,6560c4cfd080ba12b16d8282,6564c85022daa3f9eb9bb6e2,35817,1A,man,NA,null,NAME1 is hugging NAME2,hug_active,sentence,NA,NA,NA,NA,NA
7366,NA,NA,NA,NA,survey-likert-extra-labels,16,127403,0.0-11.0-1.0,anomymised,6560c4cfd080ba12b16d8282,6564c85022daa3f9eb9bb6e2,35817,1A,man,NA,NA,Somebody says<br><em>Jane is hugging Fred</em>,hug_active,rating_volition,"{""Q0"":5}",[0],The speaker identifies more with <br>Fred than Jane,The speaker identifies more with<br>Jane than Fred,right_to_left
null,Somebody says<br><em>Luke and Dave are arguing with each other</em>,NA,NA,NA,html-keyboard-response,17,129417,0.0-12.0-0.0,anomymised,6560c4cfd080ba12b16d8282,6564c85022daa3f9eb9bb6e2,35817,1A,man,NA,null,NAME1 and NAME2 are arguing with each other,argue_conjoined,sentence,NA,NA,NA,NA,NA
3751,NA,NA,NA,NA,survey-likert-extra-labels,18,133171,0.0-12.0-1.0,anomymised,6560c4cfd080ba12b16d8282,6564c85022daa3f9eb9bb6e2,35817,1A,man,NA,NA,Somebody says<br><em>Luke and Dave are arguing with each other</em>,argue_conjoined,rating_volition,"{""Q0"":5}",[0],The speaker identifies more with <br>Dave than Luke,The speaker identifies more with<br>Luke than Dave,right_to_left
null,Somebody says<br><em>Mike is reminding Beth,NA,NA,NA,html-keyboard-response,19,135185,0.0-13.0-0.0,anomymised,6560c4cfd080ba12b16d8282,6564c85022daa3f9eb9bb6e2,35817,1A,man,NA,null,M2 is reminding W4,remind,sentence,NA,NA,NA,NA,NA
5368,NA,NA,NA,NA,survey-likert-extra-labels,20,140556,0.0-13.0-1.0,anomymised,6560c4cfd080ba12b16d8282,6564c85022daa3f9eb9bb6e2,35817,1A,man,NA,NA,Somebody says<br><em>Mike is reminding Beth,remind,rating_volition,"{""Q0"":0}",[0],Mike is telling Beth again,Beth is telling Mike again,NA
null,Somebody says<br><em>Kate is being copied by Fred</em>,NA,NA,NA,html-keyboard-response,21,142571,0.0-14.0-0.0,anomymised,6560c4cfd080ba12b16d8282,6564c85022daa3f9eb9bb6e2,35817,1A,man,NA,null,NAME1 is being copied by NAME2,copy_passive,sentence,NA,NA,NA,NA,NA
3664.000000000029,NA,NA,NA,NA,survey-likert-extra-labels,22,146237,0.0-14.0-1.0,anomymised,6560c4cfd080ba12b16d8282,6564c85022daa3f9eb9bb6e2,35817,1A,man,NA,NA,Somebody says<br><em>Kate is being copied by Fred</em>,copy_passive,rating_volition,"{""Q0"":2}",[0],The speaker identifies more with <br>Kate than Fred,The speaker identifies more with<br>Fred than Kate,left_to_right
null,Somebody says<br><em>Luke is kissing Fred</em>,NA,NA,NA,html-keyboard-response,23,148251,0.0-15.0-0.0,anomymised,6560c4cfd080ba12b16d8282,6564c85022daa3f9eb9bb6e2,35817,1A,man,NA,null,NAME1 is kissing NAME2,kiss_active,sentence,NA,NA,NA,NA,NA
3566,NA,NA,NA,NA,survey-likert-extra-labels,24,151820,0.0-15.0-1.0,anomymised,6560c4cfd080ba12b16d8282,6564c85022daa3f9eb9bb6e2,35817,1A,man,NA,NA,Somebody says<br><em>Luke is kissing Fred</em>,kiss_active,rating_volition,"{""Q0"":4}",[0],The speaker identifies more with <br>Fred than Luke,The speaker identifies more with<br>Luke than Fred,right_to_left
null,Somebody says<br><em>Fred is being touched by Kate</em>,NA,NA,NA,html-keyboard-response,25,153833,0.0-16.0-0.0,anomymised,6560c4cfd080ba12b16d8282,6564c85022daa3f9eb9bb6e2,35817,1A,man,NA,null,NAME1 is being touched by NAME2,touch_passive,sentence,NA,NA,NA,NA,NA
3950,NA,NA,NA,NA,survey-likert-extra-labels,26,157787,0.0-16.0-1.0,anomymised,6560c4cfd080ba12b16d8282,6564c85022daa3f9eb9bb6e2,35817,1A,man,NA,NA,Somebody says<br><em>Fred is being touched by Kate</em>,touch_passive,rating_volition,"{""Q0"":5}",[0],The speaker identifies more with <br>Kate than Fred,The speaker identifies more with<br>Fred than Kate,right_to_left
null,Somebody says<br><em>Kate is feeding Luke,NA,NA,NA,html-keyboard-response,27,159801,0.0-17.0-0.0,anomymised,6560c4cfd080ba12b16d8282,6564c85022daa3f9eb9bb6e2,35817,1A,man,NA,null,W3 is feeding M1,feed,sentence,NA,NA,NA,NA,NA
7734,NA,NA,NA,NA,survey-likert-extra-labels,28,167538,0.0-17.0-1.0,anomymised,6560c4cfd080ba12b16d8282,6564c85022daa3f9eb9bb6e2,35817,1A,man,NA,NA,Somebody says<br><em>Kate is feeding Luke,feed,rating_volition,"{""Q0"":0}",[0],Kate cooked for Luke,Luke cooked for Kate,NA
null,Somebody says<br><em>Ruth is meeting Dave</em>,NA,NA,NA,html-keyboard-response,29,169551,0.0-18.0-0.0,anomymised,6560c4cfd080ba12b16d8282,6564c85022daa3f9eb9bb6e2,35817,1A,man,NA,null,NAME1 is meeting NAME2,meet_active,sentence,NA,NA,NA,NA,NA
5950,NA,NA,NA,NA,survey-likert-extra-labels,30,175503,0.0-18.0-1.0,anomymised,6560c4cfd080ba12b16d8282,6564c85022daa3f9eb9bb6e2,35817,1A,man,NA,NA,Somebody says<br><em>Ruth is meeting Dave</em>,meet_active,rating_volition,"{""Q0"":2}",[0],The speaker identifies more with <br>Ruth than Dave,The speaker identifies more with<br>Dave than Ruth,left_to_right
null,Somebody says<br><em>Fred and Mike are flirting with each other</em>,NA,NA,NA,html-keyboard-response,31,177517,0.0-19.0-0.0,anomymised,6560c4cfd080ba12b16d8282,6564c85022daa3f9eb9bb6e2,35817,1A,man,NA,null,NAME1 and NAME2 are flirting with each other,flirt_conjoined,sentence,NA,NA,NA,NA,NA
3100,NA,NA,NA,NA,survey-likert-extra-labels,32,180620,0.0-19.0-1.0,anomymised,6560c4cfd080ba12b16d8282,6564c85022daa3f9eb9bb6e2,35817,1A,man,NA,NA,Somebody says<br><em>Fred and Mike are flirting with each other</em>,flirt_conjoined,rating_volition,"{""Q0"":4}",[0],The speaker identifies more with <br>Mike than Fred,The speaker identifies more with<br>Fred than Mike,right_to_left
null,Somebody says<br><em>Mike is talking to Fred</em>,NA,NA,NA,html-keyboard-response,33,182634,0.0-20.0-0.0,anomymised,6560c4cfd080ba12b16d8282,6564c85022daa3f9eb9bb6e2,35817,1A,man,NA,null,NAME1 is talking to NAME2,talk_active,sentence,NA,NA,NA,NA,NA
5150.999999999971,NA,NA,NA,NA,survey-likert-extra-labels,34,187786,0.0-20.0-1.0,anomymised,6560c4cfd080ba12b16d8282,6564c85022daa3f9eb9bb6e2,35817,1A,man,NA,NA,Somebody says<br><em>Mike is talking to Fred</em>,talk_active,rating_volition,"{""Q0"":2}",[0],The speaker identifies more with <br>Mike than Fred,The speaker identifies more with<br>Fred than Mike,left_to_right
null,Somebody says<br><em>Ruth is dancing with Luke</em>,NA,NA,NA,html-keyboard-response,35,189799,0.0-21.0-0.0,anomymised,6560c4cfd080ba12b16d8282,6564c85022daa3f9eb9bb6e2,35817,1A,man,NA,null,NAME1 is dancing with NAME2,dance_active,sentence,NA,NA,NA,NA,NA
2954,NA,NA,NA,NA,survey-likert-extra-labels,36,192756,0.0-21.0-1.0,anomymised,6560c4cfd080ba12b16d8282,6564c85022daa3f9eb9bb6e2,35817,1A,man,NA,NA,Somebody says<br><em>Ruth is dancing with Luke</em>,dance_active,rating_volition,"{""Q0"":4}",[0],The speaker identifies more with <br>Luke than Ruth,The speaker identifies more with<br>Ruth than Luke,right_to_left
null,Somebody says<br><em>Beth is opposing Mike</em>,NA,NA,NA,html-keyboard-response,37,194771,0.0-22.0-0.0,anomymised,6560c4cfd080ba12b16d8282,6564c85022daa3f9eb9bb6e2,35817,1A,man,NA,null,NAME1 is opposing NAME2,oppose_active,sentence,NA,NA,NA,NA,NA
3315,NA,NA,NA,NA,survey-likert-extra-labels,38,198089,0.0-22.0-1.0,anomymised,6560c4cfd080ba12b16d8282,6564c85022daa3f9eb9bb6e2,35817,1A,man,NA,NA,Somebody says<br><em>Beth is opposing Mike</em>,oppose_active,rating_volition,"{""Q0"":4}",[0],The speaker identifies more with <br>Mike than Beth,The speaker identifies more with<br>Beth than Mike,right_to_left
null,Somebody says<br><em>Beth is being challenged by Jane</em>,NA,NA,NA,html-keyboard-response,39,200104,0.0-23.0-0.0,anomymised,6560c4cfd080ba12b16d8282,6564c85022daa3f9eb9bb6e2,35817,1A,man,NA,null,NAME1 is being challenged by NAME2,challenge_passive,sentence,NA,NA,NA,NA,NA
3464,NA,NA,NA,NA,survey-likert-extra-labels,40,203571,0.0-23.0-1.0,anomymised,6560c4cfd080ba12b16d8282,6564c85022daa3f9eb9bb6e2,35817,1A,man,NA,NA,Somebody says<br><em>Beth is being challenged by Jane</em>,challenge_passive,rating_volition,"{""Q0"":3}",[0],The speaker identifies more with <br>Jane than Beth,The speaker identifies more with<br>Beth than Jane,right_to_left
null,Somebody says<br><em>Kate and Beth are meeting each other</em>,NA,NA,NA,html-keyboard-response,41,205587,0.0-24.0-0.0,anomymised,6560c4cfd080ba12b16d8282,6564c85022daa3f9eb9bb6e2,35817,1A,man,NA,null,NAME1 and NAME2 are meeting each other,meet_conjoined,sentence,NA,NA,NA,NA,NA
4248.000000000029,NA,NA,NA,NA,survey-likert-extra-labels,42,209837,0.0-24.0-1.0,anomymised,6560c4cfd080ba12b16d8282,6564c85022daa3f9eb9bb6e2,35817,1A,man,NA,NA,Somebody says<br><em>Kate and Beth are meeting each other</em>,meet_conjoined,rating_volition,"{""Q0"":3}",[0],The speaker identifies more with <br>Kate than Beth,The speaker identifies more with<br>Beth than Kate,left_to_right
null,Somebody says<br><em>Fred is greeting Dave</em>,NA,NA,NA,html-keyboard-response,43,211852,0.0-25.0-0.0,anomymised,6560c4cfd080ba12b16d8282,6564c85022daa3f9eb9bb6e2,35817,1A,man,NA,null,NAME1 is greeting NAME2,greet_active,sentence,NA,NA,NA,NA,NA
4633.000000000029,NA,NA,NA,NA,survey-likert-extra-labels,44,216486,0.0-25.0-1.0,anomymised,6560c4cfd080ba12b16d8282,6564c85022daa3f9eb9bb6e2,35817,1A,man,NA,NA,Somebody says<br><em>Fred is greeting Dave</em>,greet_active,rating_volition,"{""Q0"":4}",[0],The speaker identifies more with <br>Dave than Fred,The speaker identifies more with<br>Fred than Dave,right_to_left
null,Somebody says<br><em>Ruth is chasing Kate,NA,NA,NA,html-keyboard-response,45,218500,0.0-26.0-0.0,anomymised,6560c4cfd080ba12b16d8282,6564c85022daa3f9eb9bb6e2,35817,1A,man,NA,null,W1 is chasing W3,chase,sentence,NA,NA,NA,NA,NA
13868,NA,NA,NA,NA,survey-likert-extra-labels,46,232370,0.0-26.0-1.0,anomymised,6560c4cfd080ba12b16d8282,6564c85022daa3f9eb9bb6e2,35817,1A,man,NA,NA,Somebody says<br><em>Ruth is chasing Kate,chase,rating_volition,"{""Q0"":0}",[0],Ruth is behind Kate,Kate is behind Ruth,NA
null,Somebody says<br><em>Jane and Kate are marrying each other</em>,NA,NA,NA,html-keyboard-response,47,234385,0.0-27.0-0.0,anomymised,6560c4cfd080ba12b16d8282,6564c85022daa3f9eb9bb6e2,35817,1A,man,NA,null,NAME1 and NAME2 are marrying each other,marry_conjoined,sentence,NA,NA,NA,NA,NA
14416,NA,NA,NA,NA,survey-likert-extra-labels,48,248804,0.0-27.0-1.0,anomymised,6560c4cfd080ba12b16d8282,6564c85022daa3f9eb9bb6e2,35817,1A,man,NA,NA,Somebody says<br><em>Jane and Kate are marrying each other</em>,marry_conjoined,rating_volition,"{""Q0"":3}",[0],The speaker identifies more with <br>Kate than Jane,The speaker identifies more with<br>Jane than Kate,right_to_left
null,Somebody says<br><em>Fred and Kate are playing with each other</em>,NA,NA,NA,html-keyboard-response,49,250817,0.0-28.0-0.0,anomymised,6560c4cfd080ba12b16d8282,6564c85022daa3f9eb9bb6e2,35817,1A,man,NA,null,NAME1 and NAME2 are playing with each other,play_conjoined,sentence,NA,NA,NA,NA,NA
2934.999999999971,NA,NA,NA,NA,survey-likert-extra-labels,50,253755,0.0-28.0-1.0,anomymised,6560c4cfd080ba12b16d8282,6564c85022daa3f9eb9bb6e2,35817,1A,man,NA,NA,Somebody says<br><em>Fred and Kate are playing with each other</em>,play_conjoined,rating_volition,"{""Q0"":4}",[0],The speaker identifies more with <br>Kate than Fred,The speaker identifies more with<br>Fred than Kate,right_to_left
null,Somebody says<br><em>Ruth is seducing Fred</em>,NA,NA,NA,html-keyboard-response,51,255770,0.0-29.0-0.0,anomymised,6560c4cfd080ba12b16d8282,6564c85022daa3f9eb9bb6e2,35817,1A,man,NA,null,NAME1 is seducing NAME2,seduce_active,sentence,NA,NA,NA,NA,NA
3281,NA,NA,NA,NA,survey-likert-extra-labels,52,259053,0.0-29.0-1.0,anomymised,6560c4cfd080ba12b16d8282,6564c85022daa3f9eb9bb6e2,35817,1A,man,NA,NA,Somebody says<br><em>Ruth is seducing Fred</em>,seduce_active,rating_volition,"{""Q0"":4}",[0],The speaker identifies more with <br>Fred than Ruth,The speaker identifies more with<br>Ruth than Fred,right_to_left
null,Somebody says<br><em>Dave and Ruth are fighting with each other</em>,NA,NA,NA,html-keyboard-response,53,261067,0.0-30.0-0.0,anomymised,6560c4cfd080ba12b16d8282,6564c85022daa3f9eb9bb6e2,35817,1A,man,NA,null,NAME1 and NAME2 are fighting with each other,fight_conjoined,sentence,NA,NA,NA,NA,NA
3782.999999999971,NA,NA,NA,NA,survey-likert-extra-labels,54,264852,0.0-30.0-1.0,anomymised,6560c4cfd080ba12b16d8282,6564c85022daa3f9eb9bb6e2,35817,1A,man,NA,NA,Somebody says<br><em>Dave and Ruth are fighting with each other</em>,fight_conjoined,rating_volition,"{""Q0"":3}",[0],The speaker identifies more with <br>Ruth than Dave,The speaker identifies more with<br>Dave than Ruth,right_to_left
null,Somebody says<br><em>Ruth is fighting with Beth</em>,NA,NA,NA,html-keyboard-response,55,266866,0.0-31.0-0.0,anomymised,6560c4cfd080ba12b16d8282,6564c85022daa3f9eb9bb6e2,35817,1A,man,NA,null,NAME1 is fighting with NAME2,fight_active,sentence,NA,NA,NA,NA,NA
4134,NA,NA,NA,NA,survey-likert-extra-labels,56,271003,0.0-31.0-1.0,anomymised,6560c4cfd080ba12b16d8282,6564c85022daa3f9eb9bb6e2,35817,1A,man,NA,NA,Somebody says<br><em>Ruth is fighting with Beth</em>,fight_active,rating_volition,"{""Q0"":2}",[0],The speaker identifies more with <br>Ruth than Beth,The speaker identifies more with<br>Beth than Ruth,left_to_right
null,Somebody says<br><em>Jane is teaching Dave,NA,NA,NA,html-keyboard-response,57,273017,0.0-32.0-0.0,anomymised,6560c4cfd080ba12b16d8282,6564c85022daa3f9eb9bb6e2,35817,1A,man,NA,null,W2 is teaching M4,teach,sentence,NA,NA,NA,NA,NA
17334,NA,NA,NA,NA,survey-likert-extra-labels,58,290353,0.0-32.0-1.0,anomymised,6560c4cfd080ba12b16d8282,6564c85022daa3f9eb9bb6e2,35817,1A,man,NA,NA,Somebody says<br><em>Jane is teaching Dave,teach,rating_volition,"{""Q0"":3}",[0],Jane is educating Dave,Dave is educating Jane,NA
null,Somebody says<br><em>Luke is flirting with Jane</em>,NA,NA,NA,html-keyboard-response,59,292369,0.0-33.0-0.0,anomymised,6560c4cfd080ba12b16d8282,6564c85022daa3f9eb9bb6e2,35817,1A,man,NA,null,NAME1 is flirting with NAME2,flirt_active,sentence,NA,NA,NA,NA,NA
2967,NA,NA,NA,NA,survey-likert-extra-labels,60,295338,0.0-33.0-1.0,anomymised,6560c4cfd080ba12b16d8282,6564c85022daa3f9eb9bb6e2,35817,1A,man,NA,NA,Somebody says<br><em>Luke is flirting with Jane</em>,flirt_active,rating_volition,"{""Q0"":2}",[0],The speaker identifies more with <br>Luke than Jane,The speaker identifies more with<br>Jane than Luke,left_to_right
null,Somebody says<br><em>Luke is being seduced by Jane</em>,NA,NA,NA,html-keyboard-response,61,297352,0.0-34.0-0.0,anomymised,6560c4cfd080ba12b16d8282,6564c85022daa3f9eb9bb6e2,35817,1A,man,NA,null,NAME1 is being seduced by NAME2,seduce_passive,sentence,NA,NA,NA,NA,NA
9752,NA,NA,NA,NA,survey-likert-extra-labels,62,307106,0.0-34.0-1.0,anomymised,6560c4cfd080ba12b16d8282,6564c85022daa3f9eb9bb6e2,35817,1A,man,NA,NA,Somebody says<br><em>Luke is being seduced by Jane</em>,seduce_passive,rating_volition,"{""Q0"":3}",[0],The speaker identifies more with <br>Luke than Jane,The speaker identifies more with<br>Jane than Luke,left_to_right
null,Somebody says<br><em>Jane is arguing with Ruth</em>,NA,NA,NA,html-keyboard-response,63,309121,0.0-35.0-0.0,anomymised,6560c4cfd080ba12b16d8282,6564c85022daa3f9eb9bb6e2,35817,1A,man,NA,null,NAME1 is arguing with NAME2,argue_active,sentence,NA,NA,NA,NA,NA
3164,NA,NA,NA,NA,survey-likert-extra-labels,64,312287,0.0-35.0-1.0,anomymised,6560c4cfd080ba12b16d8282,6564c85022daa3f9eb9bb6e2,35817,1A,man,NA,NA,Somebody says<br><em>Jane is arguing with Ruth</em>,argue_active,rating_volition,"{""Q0"":2}",[0],The speaker identifies more with <br>Jane than Ruth,The speaker identifies more with<br>Ruth than Jane,left_to_right
null,Somebody says<br><em>Luke is looking at Jane</em>,NA,NA,NA,html-keyboard-response,65,314301,0.0-36.0-0.0,anomymised,6560c4cfd080ba12b16d8282,6564c85022daa3f9eb9bb6e2,35817,1A,man,NA,null,NAME1 is looking at NAME2,look_active,sentence,NA,NA,NA,NA,NA
10771,NA,NA,NA,NA,survey-likert-extra-labels,66,325075,0.0-36.0-1.0,anomymised,6560c4cfd080ba12b16d8282,6564c85022daa3f9eb9bb6e2,35817,1A,man,NA,NA,Somebody says<br><em>Luke is looking at Jane</em>,look_active,rating_volition,"{""Q0"":3}",[0],The speaker identifies more with <br>Luke than Jane,The speaker identifies more with<br>Jane than Luke,left_to_right
null,Somebody says<br><em>Jane and Mike are hugging each other</em>,NA,NA,NA,html-keyboard-response,67,327090,0.0-37.0-0.0,anomymised,6560c4cfd080ba12b16d8282,6564c85022daa3f9eb9bb6e2,35817,1A,man,NA,null,NAME1 and NAME2 are hugging each other,hug_conjoined,sentence,NA,NA,NA,NA,NA
13463,NA,NA,NA,NA,survey-likert-extra-labels,68,340555,0.0-37.0-1.0,anomymised,6560c4cfd080ba12b16d8282,6564c85022daa3f9eb9bb6e2,35817,1A,man,NA,NA,Somebody says<br><em>Jane and Mike are hugging each other</em>,hug_conjoined,rating_volition,"{""Q0"":3}",[0],The speaker identifies more with <br>Mike than Jane,The speaker identifies more with<br>Jane than Mike,right_to_left
null,Somebody says<br><em>Fred is marrying Beth</em>,NA,NA,NA,html-keyboard-response,69,342571,0.0-38.0-0.0,anomymised,6560c4cfd080ba12b16d8282,6564c85022daa3f9eb9bb6e2,35817,1A,man,NA,null,NAME1 is marrying NAME2,marry_active,sentence,NA,NA,NA,NA,NA
2981.000000000058,NA,NA,NA,NA,survey-likert-extra-labels,70,345554,0.0-38.0-1.0,anomymised,6560c4cfd080ba12b16d8282,6564c85022daa3f9eb9bb6e2,35817,1A,man,NA,NA,Somebody says<br><em>Fred is marrying Beth</em>,marry_active,rating_volition,"{""Q0"":2}",[0],The speaker identifies more with <br>Fred than Beth,The speaker identifies more with<br>Beth than Fred,left_to_right
null,Somebody says<br><em>Dave is challenging Beth</em>,NA,NA,NA,html-keyboard-response,71,347569,0.0-39.0-0.0,anomymised,6560c4cfd080ba12b16d8282,6564c85022daa3f9eb9bb6e2,35817,1A,man,NA,null,NAME1 is challenging NAME2,challenge_active,sentence,NA,NA,NA,NA,NA
2532,NA,NA,NA,NA,survey-likert-extra-labels,72,350103,0.0-39.0-1.0,anomymised,6560c4cfd080ba12b16d8282,6564c85022daa3f9eb9bb6e2,35817,1A,man,NA,NA,Somebody says<br><em>Dave is challenging Beth</em>,challenge_active,rating_volition,"{""Q0"":2}",[0],The speaker identifies more with <br>Dave than Beth,The speaker identifies more with<br>Beth than Dave,left_to_right
null,Somebody says<br><em>Jane is shouting at Fred</em>,NA,NA,NA,html-keyboard-response,73,352119,0.0-40.0-0.0,anomymised,6560c4cfd080ba12b16d8282,6564c85022daa3f9eb9bb6e2,35817,1A,man,NA,null,NAME1 is shouting at NAME2,shout_active,sentence,NA,NA,NA,NA,NA
11200,NA,NA,NA,NA,survey-likert-extra-labels,74,363320,0.0-40.0-1.0,anomymised,6560c4cfd080ba12b16d8282,6564c85022daa3f9eb9bb6e2,35817,1A,man,NA,NA,Somebody says<br><em>Jane is shouting at Fred</em>,shout_active,rating_volition,"{""Q0"":2}",[0],The speaker identifies more with <br>Jane than Fred,The speaker identifies more with<br>Fred than Jane,left_to_right
null,Somebody says<br><em>Mike and Beth are touching each other</em>,NA,NA,NA,html-keyboard-response,75,365334,0.0-41.0-0.0,anomymised,6560c4cfd080ba12b16d8282,6564c85022daa3f9eb9bb6e2,35817,1A,man,NA,null,NAME1 and NAME2 are touching each other,touch_conjoined,sentence,NA,NA,NA,NA,NA
1735,NA,NA,NA,NA,survey-likert-extra-labels,76,367071,0.0-41.0-1.0,anomymised,6560c4cfd080ba12b16d8282,6564c85022daa3f9eb9bb6e2,35817,1A,man,NA,NA,Somebody says<br><em>Mike and Beth are touching each other</em>,touch_conjoined,rating_volition,"{""Q0"":3}",[0],The speaker identifies more with <br>Mike than Beth,The speaker identifies more with<br>Beth than Mike,left_to_right
null,Somebody says<br><em>Beth and Ruth are kissing each other</em>,NA,NA,NA,html-keyboard-response,77,369085,0.0-42.0-0.0,anomymised,6560c4cfd080ba12b16d8282,6564c85022daa3f9eb9bb6e2,35817,1A,man,NA,null,NAME1 and NAME2 are kissing each other,kiss_conjoined,sentence,NA,NA,NA,NA,NA
1669,NA,NA,NA,NA,survey-likert-extra-labels,78,370756,0.0-42.0-1.0,anomymised,6560c4cfd080ba12b16d8282,6564c85022daa3f9eb9bb6e2,35817,1A,man,NA,NA,Somebody says<br><em>Beth and Ruth are kissing each other</em>,kiss_conjoined,rating_volition,"{""Q0"":3}",[0],The speaker identifies more with <br>Beth than Ruth,The speaker identifies more with<br>Ruth than Beth,left_to_right
null,Somebody says<br><em>Fred is copying Mike</em>,NA,NA,NA,html-keyboard-response,79,372772,0.0-43.0-0.0,anomymised,6560c4cfd080ba12b16d8282,6564c85022daa3f9eb9bb6e2,35817,1A,man,NA,null,NAME1 is copying NAME2,copy_active,sentence,NA,NA,NA,NA,NA
3749,NA,NA,NA,NA,survey-likert-extra-labels,80,376522,0.0-43.0-1.0,anomymised,6560c4cfd080ba12b16d8282,6564c85022daa3f9eb9bb6e2,35817,1A,man,NA,NA,Somebody says<br><em>Fred is copying Mike</em>,copy_active,rating_volition,"{""Q0"":2}",[0],The speaker identifies more with <br>Mike than Fred,The speaker identifies more with<br>Fred than Mike,right_to_left
null,Somebody says<br><em>Kate and Beth are dancing with each other</em>,NA,NA,NA,html-keyboard-response,81,378538,0.0-44.0-0.0,anomymised,6560c4cfd080ba12b16d8282,6564c85022daa3f9eb9bb6e2,35817,1A,man,NA,null,NAME1 and NAME2 are dancing with each other,dance_conjoined,sentence,NA,NA,NA,NA,NA
6181,NA,NA,NA,NA,survey-likert-extra-labels,82,384722,0.0-44.0-1.0,anomymised,6560c4cfd080ba12b16d8282,6564c85022daa3f9eb9bb6e2,35817,1A,man,NA,NA,Somebody says<br><em>Kate and Beth are dancing with each other</em>,dance_conjoined,rating_volition,"{""Q0"":3}",[0],The speaker identifies more with <br>Kate than Beth,The speaker identifies more with<br>Beth than Kate,left_to_right
null,Somebody says<br><em>Fred is playing with Kate</em>,NA,NA,NA,html-keyboard-response,83,386737,0.0-45.0-0.0,anomymised,6560c4cfd080ba12b16d8282,6564c85022daa3f9eb9bb6e2,35817,1A,man,NA,null,NAME1 is playing with NAME2,play_active,sentence,NA,NA,NA,NA,NA
3430,NA,NA,NA,NA,survey-likert-extra-labels,84,390169,0.0-45.0-1.0,anomymised,6560c4cfd080ba12b16d8282,6564c85022daa3f9eb9bb6e2,35817,1A,man,NA,NA,Somebody says<br><em>Fred is playing with Kate</em>,play_active,rating_volition,"{""Q0"":4}",[0],The speaker identifies more with <br>Kate than Fred,The speaker identifies more with<br>Fred than Kate,right_to_left
null,Somebody says<br><em>Luke is touching Kate</em>,NA,NA,NA,html-keyboard-response,85,392184,0.0-46.0-0.0,anomymised,6560c4cfd080ba12b16d8282,6564c85022daa3f9eb9bb6e2,35817,1A,man,NA,null,NAME1 is touching NAME2,touch_active,sentence,NA,NA,NA,NA,NA
1186,NA,NA,NA,NA,survey-likert-extra-labels,86,393371,0.0-46.0-1.0,anomymised,6560c4cfd080ba12b16d8282,6564c85022daa3f9eb9bb6e2,35817,1A,man,NA,NA,Somebody says<br><em>Luke is touching Kate</em>,touch_active,rating_volition,"{""Q0"":3}",[0],The speaker identifies more with <br>Kate than Luke,The speaker identifies more with<br>Luke than Kate,right_to_left
null,Somebody says<br><em>Dave is being shouted at by Ruth</em>,NA,NA,NA,html-keyboard-response,87,395384,0.0-47.0-0.0,anomymised,6560c4cfd080ba12b16d8282,6564c85022daa3f9eb9bb6e2,35817,1A,man,NA,null,NAME1 is being shouted at by NAME2,shout_passive,sentence,NA,NA,NA,NA,NA
2050,NA,NA,NA,NA,survey-likert-extra-labels,88,397437,0.0-47.0-1.0,anomymised,6560c4cfd080ba12b16d8282,6564c85022daa3f9eb9bb6e2,35817,1A,man,NA,NA,Somebody says<br><em>Dave is being shouted at by Ruth</em>,shout_passive,rating_volition,"{""Q0"":2}",[0],The speaker identifies more with <br>Dave than Ruth,The speaker identifies more with<br>Ruth than Dave,left_to_right
null,Somebody says<br><em>Fred is hiring Ruth,NA,NA,NA,html-keyboard-response,89,399451,0.0-48.0-0.0,anomymised,6560c4cfd080ba12b16d8282,6564c85022daa3f9eb9bb6e2,35817,1A,man,NA,null,M3 is hiring W1,hire,sentence,NA,NA,NA,NA,NA
2952.999999999942,NA,NA,NA,NA,survey-likert-extra-labels,90,402405,0.0-48.0-1.0,anomymised,6560c4cfd080ba12b16d8282,6564c85022daa3f9eb9bb6e2,35817,1A,man,NA,NA,Somebody says<br><em>Fred is hiring Ruth,hire,rating_volition,"{""Q0"":2}",[0],Fred is employing Ruth,Ruth is employing Fred,NA
null,Somebody says<br><em>Mike is being hugged by Fred</em>,NA,NA,NA,html-keyboard-response,91,404421,0.0-49.0-0.0,anomymised,6560c4cfd080ba12b16d8282,6564c85022daa3f9eb9bb6e2,35817,1A,man,NA,null,NAME1 is being hugged by NAME2,hug_passive,sentence,NA,NA,NA,NA,NA
2964.000000000058,NA,NA,NA,NA,survey-likert-extra-labels,92,407387,0.0-49.0-1.0,anomymised,6560c4cfd080ba12b16d8282,6564c85022daa3f9eb9bb6e2,35817,1A,man,NA,NA,Somebody says<br><em>Mike is being hugged by Fred</em>,hug_passive,rating_volition,"{""Q0"":3}",[0],The speaker identifies more with <br>Mike than Fred,The speaker identifies more with<br>Fred than Mike,left_to_right
null,Somebody says<br><em>Kate is being kissed by Ruth</em>,NA,NA,NA,html-keyboard-response,93,409401,0.0-50.0-0.0,anomymised,6560c4cfd080ba12b16d8282,6564c85022daa3f9eb9bb6e2,35817,1A,man,NA,null,NAME1 is being kissed by NAME2,kiss_passive,sentence,NA,NA,NA,NA,NA
17287.00000000006,NA,NA,NA,NA,survey-likert-extra-labels,94,426690,0.0-50.0-1.0,anomymised,6560c4cfd080ba12b16d8282,6564c85022daa3f9eb9bb6e2,35817,1A,man,NA,NA,Somebody says<br><em>Kate is being kissed by Ruth</em>,kiss_passive,rating_volition,"{""Q0"":3}",[0],The speaker identifies more with <br>Ruth than Kate,The speaker identifies more with<br>Kate than Ruth,right_to_left
null,Somebody says<br><em>Fred and Mike are shouting at each other</em>,NA,NA,NA,html-keyboard-response,95,428707,0.0-51.0-0.0,anomymised,6560c4cfd080ba12b16d8282,6564c85022daa3f9eb9bb6e2,35817,1A,man,NA,null,NAME1 and NAME2 are shouting at each other,shout_conjoined,sentence,NA,NA,NA,NA,NA
1495,NA,NA,NA,NA,survey-likert-extra-labels,96,430204,0.0-51.0-1.0,anomymised,6560c4cfd080ba12b16d8282,6564c85022daa3f9eb9bb6e2,35817,1A,man,NA,NA,Somebody says<br><em>Fred and Mike are shouting at each other</em>,shout_conjoined,rating_volition,"{""Q0"":2}",[0],The speaker identifies more with <br>Mike than Fred,The speaker identifies more with<br>Fred than Mike,right_to_left
null,Somebody says<br><em>Kate is being looked at by Ruth</em>,NA,NA,NA,html-keyboard-response,97,432218,0.0-52.0-0.0,anomymised,6560c4cfd080ba12b16d8282,6564c85022daa3f9eb9bb6e2,35817,1A,man,NA,null,NAME1 is being looked at by NAME2,look_passive,sentence,NA,NA,NA,NA,NA
1734,NA,NA,NA,NA,survey-likert-extra-labels,98,433954,0.0-52.0-1.0,anomymised,6560c4cfd080ba12b16d8282,6564c85022daa3f9eb9bb6e2,35817,1A,man,NA,NA,Somebody says<br><em>Kate is being looked at by Ruth</em>,look_passive,rating_volition,"{""Q0"":4}",[0],The speaker identifies more with <br>Ruth than Kate,The speaker identifies more with<br>Kate than Ruth,right_to_left
null,Somebody says<br><em>Ruth is shouting at Jane</em>,NA,NA,NA,html-keyboard-response,99,435968,0.0-53.0-0.0,anomymised,6560c4cfd080ba12b16d8282,6564c85022daa3f9eb9bb6e2,35817,1A,man,NA,null,NAME1 is shouting at NAME2,shout_active,sentence,NA,NA,NA,NA,NA
1068,NA,NA,NA,NA,survey-likert-extra-labels,100,437039,0.0-53.0-1.0,anomymised,6560c4cfd080ba12b16d8282,6564c85022daa3f9eb9bb6e2,35817,1A,man,NA,NA,Somebody says<br><em>Ruth is shouting at Jane</em>,shout_active,rating_volition,"{""Q0"":3}",[0],The speaker identifies more with <br>Ruth than Jane,The speaker identifies more with<br>Jane than Ruth,left_to_right
null,Somebody says<br><em>Dave is being greeted by Beth</em>,NA,NA,NA,html-keyboard-response,101,439054,0.0-54.0-0.0,anomymised,6560c4cfd080ba12b16d8282,6564c85022daa3f9eb9bb6e2,35817,1A,man,NA,null,NAME1 is being greeted by NAME2,greet_passive,sentence,NA,NA,NA,NA,NA
3932.000000000058,NA,NA,NA,NA,survey-likert-extra-labels,102,442989,0.0-54.0-1.0,anomymised,6560c4cfd080ba12b16d8282,6564c85022daa3f9eb9bb6e2,35817,1A,man,NA,NA,Somebody says<br><em>Dave is being greeted by Beth</em>,greet_passive,rating_volition,"{""Q0"":4}",[0],The speaker identifies more with <br>Beth than Dave,The speaker identifies more with<br>Dave than Beth,right_to_left
null,Somebody says<br><em>Mike is posing for Dave,NA,NA,NA,html-keyboard-response,103,445005,0.0-55.0-0.0,anomymised,6560c4cfd080ba12b16d8282,6564c85022daa3f9eb9bb6e2,35817,1A,man,NA,null,M2 is posing for M4,pose,sentence,NA,NA,NA,NA,NA
7131,NA,NA,NA,NA,survey-likert-extra-labels,104,452138,0.0-55.0-1.0,anomymised,6560c4cfd080ba12b16d8282,6564c85022daa3f9eb9bb6e2,35817,1A,man,NA,NA,Somebody says<br><em>Mike is posing for Dave,pose,rating_volition,"{""Q0"":0}",[0],Mike is modelling for Dave,Dave is modelling for Mike,NA
2070,<p>Thank you for completing that task.</p><p>The final part of this session is a short questionnaire.</p><p>Press Continue.</p>,0,Continue,Continue,html-button-response,105,454222,0.0-56.0,anomymised,6560c4cfd080ba12b16d8282,6564c85022daa3f9eb9bb6e2,35817,1A,man,NA,NA,NA,NA,NA,NA,NA,NA,NA,NA
99023.00000000006,NA,NA,NA,NA,survey-text,106,554271,0.0-57.0,anomymised,6560c4cfd080ba12b16d8282,6564c85022daa3f9eb9bb6e2,35817,1A,man,NA,NA,NA,NA,demographics,"{""Q0"":""30"",""Q1"":""english"",""Q2"":""English"",""Q3"":""uk"",""Q4"":""british"",""Q5"":""white British"",""Q6"":""male""}",NA,NA,NA,NA
2366,<p>This is the last question - thank you for taking part! Have you lived in the UK for the last 5 years or more?</p>,0,"Yes,No",Yes,html-button-response,107,556638,0.0-58.0,anomymised,6560c4cfd080ba12b16d8282,6564c85022daa3f9eb9bb6e2,35817,1A,man,NA,NA,NA,NA,fiveyears,NA,NA,NA,NA,NA
