rt,stimulus,button_pressed,choices,ChosenStimulus,trial_type,trial_index,time_elapsed,internal_node_id,subject_id,study_id,session_id,subject,list,ppt_gender,url,key_press,sentence_type,verb,test_part,responses,question_order,left_part,right_part,name_order
2203,Welcome to the experiment. Press Continue to begin.,0,Continue,Continue,html-button-response,0,2204,0.0-0.0,anomymised,6560c4cfd080ba12b16d8282,6564c894c02c362b2e2941bf,36766,1A,man,NA,NA,NA,NA,NA,NA,NA,NA,NA,NA
22631,NA,NA,NA,NA,external-html,1,26034,0.0-1.0,anomymised,6560c4cfd080ba12b16d8282,6564c894c02c362b2e2941bf,36766,1A,man,consent.html,NA,NA,NA,NA,NA,NA,NA,NA,NA
41778,"<p>Welcome.</p><p>In this experiment we will ask you to imagine people's motivations for saying sentences.</p><p>Each trial will begin with a sentence that somebody might say to describe an event involving two different people.</p><p>For instance, someone might say <em>Harry is being recruited by Molly</em></p><p>We want you to think about which of those two people (Molly and Harry) the speaker identifies more with. For instance, why did the speaker say <em>Harry is being recruited by Molly</em> rather than <em> Molly is recruiting Harry</em>? Might that mean that the speaker is socially closer to one of the two characters?</p><p>After you have read the sentence, you will rate on a scale which of the two characters the speaker identifies more with.</p><p>You will give your answer by clicking a button on a rating scale.</p><p>Sometimes there will also be catch questions designed to make sure that you are paying attention, which ask about a different topic.</p><p>To do this task, you will have to use your imagination to think about and visualise the events, and how the speaker might relate to the characters.</p><br><p>Ready?</p>",0,Continue,Continue,html-button-response,2,67813,0.0-2.0,anomymised,6560c4cfd080ba12b16d8282,6564c894c02c362b2e2941bf,36766,1A,man,NA,NA,NA,NA,NA,NA,NA,NA,NA,NA
3478,"<p>Before the experiment starts, we will show you an example of how you will answer the questions. Press 'Continue'.</p>",0,Continue,Continue,html-button-response,3,72295,0.0-3.0,anomymised,6560c4cfd080ba12b16d8282,6564c894c02c362b2e2941bf,36766,1A,man,NA,NA,NA,NA,NA,NA,NA,NA,NA,NA
null,Somebody says <br><em>Samuel is dining with Frank</em>,NA,NA,NA,html-keyboard-response,4,75302,0.0-4.0,anomymised,6560c4cfd080ba12b16d8282,6564c894c02c362b2e2941bf,36766,1A,man,NA,null,NA,NA,NA,NA,NA,NA,NA,NA
15283,<img src='img/Example-trial.jpg' style='height:550px;''></img>,0,Continue,Continue,html-button-response,5,90586,0.0-5.0,anomymised,6560c4cfd080ba12b16d8282,6564c894c02c362b2e2941bf,36766,1A,man,NA,NA,NA,NA,NA,NA,NA,NA,NA,NA
2097,<p>Ready to start the experiment?</p><br><p><strong>Remember to give an answer by clicking a button on the rating scale.</strong></p><p>Press 'Continue' to begin.</p>,0,Continue,Continue,html-button-response,6,93688,0.0-6.0,anomymised,6560c4cfd080ba12b16d8282,6564c894c02c362b2e2941bf,36766,1A,man,NA,NA,NA,NA,NA,NA,NA,NA,NA,NA
null,Somebody says<br><em>Mike is being seduced by Dave</em>,NA,NA,NA,html-keyboard-response,7,96695,0.0-7.0-0.0,anomymised,6560c4cfd080ba12b16d8282,6564c894c02c362b2e2941bf,36766,1A,man,NA,null,NAME1 is being seduced by NAME2,seduce_passive,sentence,NA,NA,NA,NA,NA
9642,NA,NA,NA,NA,survey-likert-extra-labels,8,106339,0.0-7.0-1.0,anomymised,6560c4cfd080ba12b16d8282,6564c894c02c362b2e2941bf,36766,1A,man,NA,NA,Somebody says<br><em>Mike is being seduced by Dave</em>,seduce_passive,rating_volition,"{""Q0"":3}",[0],The speaker identifies more with <br>Dave than Mike,The speaker identifies more with<br>Mike than Dave,right_to_left
null,Somebody says<br><em>Ruth is meeting Jane</em>,NA,NA,NA,html-keyboard-response,9,108342,0.0-8.0-0.0,anomymised,6560c4cfd080ba12b16d8282,6564c894c02c362b2e2941bf,36766,1A,man,NA,null,NAME1 is meeting NAME2,meet_active,sentence,NA,NA,NA,NA,NA
4827,NA,NA,NA,NA,survey-likert-extra-labels,10,113170,0.0-8.0-1.0,anomymised,6560c4cfd080ba12b16d8282,6564c894c02c362b2e2941bf,36766,1A,man,NA,NA,Somebody says<br><em>Ruth is meeting Jane</em>,meet_active,rating_volition,"{""Q0"":3}",[0],The speaker identifies more with <br>Ruth than Jane,The speaker identifies more with<br>Jane than Ruth,left_to_right
null,Somebody says<br><em>Luke is being opposed by Jane</em>,NA,NA,NA,html-keyboard-response,11,115175,0.0-9.0-0.0,anomymised,6560c4cfd080ba12b16d8282,6564c894c02c362b2e2941bf,36766,1A,man,NA,null,NAME1 is being opposed by NAME2,oppose_passive,sentence,NA,NA,NA,NA,NA
1819,NA,NA,NA,NA,survey-likert-extra-labels,12,116994,0.0-9.0-1.0,anomymised,6560c4cfd080ba12b16d8282,6564c894c02c362b2e2941bf,36766,1A,man,NA,NA,Somebody says<br><em>Luke is being opposed by Jane</em>,oppose_passive,rating_volition,"{""Q0"":3}",[0],The speaker identifies more with <br>Jane than Luke,The speaker identifies more with<br>Luke than Jane,right_to_left
null,Somebody says<br><em>Fred is touching Beth</em>,NA,NA,NA,html-keyboard-response,13,118994,0.0-10.0-0.0,anomymised,6560c4cfd080ba12b16d8282,6564c894c02c362b2e2941bf,36766,1A,man,NA,null,NAME1 is touching NAME2,touch_active,sentence,NA,NA,NA,NA,NA
1503,NA,NA,NA,NA,survey-likert-extra-labels,14,120498,0.0-10.0-1.0,anomymised,6560c4cfd080ba12b16d8282,6564c894c02c362b2e2941bf,36766,1A,man,NA,NA,Somebody says<br><em>Fred is touching Beth</em>,touch_active,rating_volition,"{""Q0"":3}",[0],The speaker identifies more with <br>Beth than Fred,The speaker identifies more with<br>Fred than Beth,right_to_left
null,Somebody says<br><em>Jane is being touched by Mike</em>,NA,NA,NA,html-keyboard-response,15,122503,0.0-11.0-0.0,anomymised,6560c4cfd080ba12b16d8282,6564c894c02c362b2e2941bf,36766,1A,man,NA,null,NAME1 is being touched by NAME2,touch_passive,sentence,NA,NA,NA,NA,NA
3829,NA,NA,NA,NA,survey-likert-extra-labels,16,126332,0.0-11.0-1.0,anomymised,6560c4cfd080ba12b16d8282,6564c894c02c362b2e2941bf,36766,1A,man,NA,NA,Somebody says<br><em>Jane is being touched by Mike</em>,touch_passive,rating_volition,"{""Q0"":3}",[0],The speaker identifies more with <br>Jane than Mike,The speaker identifies more with<br>Mike than Jane,left_to_right
null,Somebody says<br><em>Ruth is arguing with Fred</em>,NA,NA,NA,html-keyboard-response,17,128332,0.0-12.0-0.0,anomymised,6560c4cfd080ba12b16d8282,6564c894c02c362b2e2941bf,36766,1A,man,NA,null,NAME1 is arguing with NAME2,argue_active,sentence,NA,NA,NA,NA,NA
2302,NA,NA,NA,NA,survey-likert-extra-labels,18,130636,0.0-12.0-1.0,anomymised,6560c4cfd080ba12b16d8282,6564c894c02c362b2e2941bf,36766,1A,man,NA,NA,Somebody says<br><em>Ruth is arguing with Fred</em>,argue_active,rating_volition,"{""Q0"":3}",[0],The speaker identifies more with <br>Ruth than Fred,The speaker identifies more with<br>Fred than Ruth,left_to_right
null,Somebody says<br><em>Jane is playing with Ruth</em>,NA,NA,NA,html-keyboard-response,19,132639,0.0-13.0-0.0,anomymised,6560c4cfd080ba12b16d8282,6564c894c02c362b2e2941bf,36766,1A,man,NA,null,NAME1 is playing with NAME2,play_active,sentence,NA,NA,NA,NA,NA
2634,NA,NA,NA,NA,survey-likert-extra-labels,20,135271,0.0-13.0-1.0,anomymised,6560c4cfd080ba12b16d8282,6564c894c02c362b2e2941bf,36766,1A,man,NA,NA,Somebody says<br><em>Jane is playing with Ruth</em>,play_active,rating_volition,"{""Q0"":3}",[0],The speaker identifies more with <br>Jane than Ruth,The speaker identifies more with<br>Ruth than Jane,left_to_right
null,Somebody says<br><em>Fred is dancing with Luke</em>,NA,NA,NA,html-keyboard-response,21,137274,0.0-14.0-0.0,anomymised,6560c4cfd080ba12b16d8282,6564c894c02c362b2e2941bf,36766,1A,man,NA,null,NAME1 is dancing with NAME2,dance_active,sentence,NA,NA,NA,NA,NA
3004,NA,NA,NA,NA,survey-likert-extra-labels,22,140280,0.0-14.0-1.0,anomymised,6560c4cfd080ba12b16d8282,6564c894c02c362b2e2941bf,36766,1A,man,NA,NA,Somebody says<br><em>Fred is dancing with Luke</em>,dance_active,rating_volition,"{""Q0"":3}",[0],The speaker identifies more with <br>Luke than Fred,The speaker identifies more with<br>Fred than Luke,right_to_left
null,Somebody says<br><em>Mike is kissing Jane</em>,NA,NA,NA,html-keyboard-response,23,142285,0.0-15.0-0.0,anomymised,6560c4cfd080ba12b16d8282,6564c894c02c362b2e2941bf,36766,1A,man,NA,null,NAME1 is kissing NAME2,kiss_active,sentence,NA,NA,NA,NA,NA
1687,NA,NA,NA,NA,survey-likert-extra-labels,24,143973,0.0-15.0-1.0,anomymised,6560c4cfd080ba12b16d8282,6564c894c02c362b2e2941bf,36766,1A,man,NA,NA,Somebody says<br><em>Mike is kissing Jane</em>,kiss_active,rating_volition,"{""Q0"":3}",[0],The speaker identifies more with <br>Mike than Jane,The speaker identifies more with<br>Jane than Mike,left_to_right
null,Somebody says<br><em>Ruth is seducing Luke</em>,NA,NA,NA,html-keyboard-response,25,145978,0.0-16.0-0.0,anomymised,6560c4cfd080ba12b16d8282,6564c894c02c362b2e2941bf,36766,1A,man,NA,null,NAME1 is seducing NAME2,seduce_active,sentence,NA,NA,NA,NA,NA
2410,NA,NA,NA,NA,survey-likert-extra-labels,26,148389,0.0-16.0-1.0,anomymised,6560c4cfd080ba12b16d8282,6564c894c02c362b2e2941bf,36766,1A,man,NA,NA,Somebody says<br><em>Ruth is seducing Luke</em>,seduce_active,rating_volition,"{""Q0"":3}",[0],The speaker identifies more with <br>Luke than Ruth,The speaker identifies more with<br>Ruth than Luke,right_to_left
null,Somebody says<br><em>Luke is marrying Mike</em>,NA,NA,NA,html-keyboard-response,27,150393,0.0-17.0-0.0,anomymised,6560c4cfd080ba12b16d8282,6564c894c02c362b2e2941bf,36766,1A,man,NA,null,NAME1 is marrying NAME2,marry_active,sentence,NA,NA,NA,NA,NA
3362,NA,NA,NA,NA,survey-likert-extra-labels,28,153755,0.0-17.0-1.0,anomymised,6560c4cfd080ba12b16d8282,6564c894c02c362b2e2941bf,36766,1A,man,NA,NA,Somebody says<br><em>Luke is marrying Mike</em>,marry_active,rating_volition,"{""Q0"":3}",[0],The speaker identifies more with <br>Mike than Luke,The speaker identifies more with<br>Luke than Mike,right_to_left
null,Somebody says<br><em>Dave is fighting with Jane</em>,NA,NA,NA,html-keyboard-response,29,155758,0.0-18.0-0.0,anomymised,6560c4cfd080ba12b16d8282,6564c894c02c362b2e2941bf,36766,1A,man,NA,null,NAME1 is fighting with NAME2,fight_active,sentence,NA,NA,NA,NA,NA
2020,NA,NA,NA,NA,survey-likert-extra-labels,30,157779,0.0-18.0-1.0,anomymised,6560c4cfd080ba12b16d8282,6564c894c02c362b2e2941bf,36766,1A,man,NA,NA,Somebody says<br><em>Dave is fighting with Jane</em>,fight_active,rating_volition,"{""Q0"":3}",[0],The speaker identifies more with <br>Jane than Dave,The speaker identifies more with<br>Dave than Jane,right_to_left
null,Somebody says<br><em>Jane and Mike are arguing with each other</em>,NA,NA,NA,html-keyboard-response,31,159782,0.0-19.0-0.0,anomymised,6560c4cfd080ba12b16d8282,6564c894c02c362b2e2941bf,36766,1A,man,NA,null,NAME1 and NAME2 are arguing with each other,argue_conjoined,sentence,NA,NA,NA,NA,NA
2810,NA,NA,NA,NA,survey-likert-extra-labels,32,162593,0.0-19.0-1.0,anomymised,6560c4cfd080ba12b16d8282,6564c894c02c362b2e2941bf,36766,1A,man,NA,NA,Somebody says<br><em>Jane and Mike are arguing with each other</em>,argue_conjoined,rating_volition,"{""Q0"":3}",[0],The speaker identifies more with <br>Jane than Mike,The speaker identifies more with<br>Mike than Jane,left_to_right
null,Somebody says<br><em>Mike is hugging Luke</em>,NA,NA,NA,html-keyboard-response,33,164598,0.0-20.0-0.0,anomymised,6560c4cfd080ba12b16d8282,6564c894c02c362b2e2941bf,36766,1A,man,NA,null,NAME1 is hugging NAME2,hug_active,sentence,NA,NA,NA,NA,NA
2211,NA,NA,NA,NA,survey-likert-extra-labels,34,166810,0.0-20.0-1.0,anomymised,6560c4cfd080ba12b16d8282,6564c894c02c362b2e2941bf,36766,1A,man,NA,NA,Somebody says<br><em>Mike is hugging Luke</em>,hug_active,rating_volition,"{""Q0"":3}",[0],The speaker identifies more with <br>Mike than Luke,The speaker identifies more with<br>Luke than Mike,left_to_right
null,Somebody says<br><em>Mike is posing for Dave,NA,NA,NA,html-keyboard-response,35,168815,0.0-21.0-0.0,anomymised,6560c4cfd080ba12b16d8282,6564c894c02c362b2e2941bf,36766,1A,man,NA,null,M2 is posing for M4,pose,sentence,NA,NA,NA,NA,NA
14048,NA,NA,NA,NA,survey-likert-extra-labels,36,182864,0.0-21.0-1.0,anomymised,6560c4cfd080ba12b16d8282,6564c894c02c362b2e2941bf,36766,1A,man,NA,NA,Somebody says<br><em>Mike is posing for Dave,pose,rating_volition,"{""Q0"":0}",[0],Mike is modelling for Dave,Dave is modelling for Mike,NA
null,Somebody says<br><em>Mike and Kate are touching each other</em>,NA,NA,NA,html-keyboard-response,37,184866,0.0-22.0-0.0,anomymised,6560c4cfd080ba12b16d8282,6564c894c02c362b2e2941bf,36766,1A,man,NA,null,NAME1 and NAME2 are touching each other,touch_conjoined,sentence,NA,NA,NA,NA,NA
2672,NA,NA,NA,NA,survey-likert-extra-labels,38,187538,0.0-22.0-1.0,anomymised,6560c4cfd080ba12b16d8282,6564c894c02c362b2e2941bf,36766,1A,man,NA,NA,Somebody says<br><em>Mike and Kate are touching each other</em>,touch_conjoined,rating_volition,"{""Q0"":3}",[0],The speaker identifies more with <br>Mike than Kate,The speaker identifies more with<br>Kate than Mike,left_to_right
null,Somebody says<br><em>Beth and Jane are fighting with each other</em>,NA,NA,NA,html-keyboard-response,39,189543,0.0-23.0-0.0,anomymised,6560c4cfd080ba12b16d8282,6564c894c02c362b2e2941bf,36766,1A,man,NA,null,NAME1 and NAME2 are fighting with each other,fight_conjoined,sentence,NA,NA,NA,NA,NA
2380,NA,NA,NA,NA,survey-likert-extra-labels,40,191924,0.0-23.0-1.0,anomymised,6560c4cfd080ba12b16d8282,6564c894c02c362b2e2941bf,36766,1A,man,NA,NA,Somebody says<br><em>Beth and Jane are fighting with each other</em>,fight_conjoined,rating_volition,"{""Q0"":3}",[0],The speaker identifies more with <br>Beth than Jane,The speaker identifies more with<br>Jane than Beth,left_to_right
null,Somebody says<br><em>Luke is copying Kate</em>,NA,NA,NA,html-keyboard-response,41,193926,0.0-24.0-0.0,anomymised,6560c4cfd080ba12b16d8282,6564c894c02c362b2e2941bf,36766,1A,man,NA,null,NAME1 is copying NAME2,copy_active,sentence,NA,NA,NA,NA,NA
2475,NA,NA,NA,NA,survey-likert-extra-labels,42,196400,0.0-24.0-1.0,anomymised,6560c4cfd080ba12b16d8282,6564c894c02c362b2e2941bf,36766,1A,man,NA,NA,Somebody says<br><em>Luke is copying Kate</em>,copy_active,rating_volition,"{""Q0"":3}",[0],The speaker identifies more with <br>Kate than Luke,The speaker identifies more with<br>Luke than Kate,right_to_left
null,Somebody says<br><em>Luke and Dave are flirting with each other</em>,NA,NA,NA,html-keyboard-response,43,198402,0.0-25.0-0.0,anomymised,6560c4cfd080ba12b16d8282,6564c894c02c362b2e2941bf,36766,1A,man,NA,null,NAME1 and NAME2 are flirting with each other,flirt_conjoined,sentence,NA,NA,NA,NA,NA
2224,NA,NA,NA,NA,survey-likert-extra-labels,44,200626,0.0-25.0-1.0,anomymised,6560c4cfd080ba12b16d8282,6564c894c02c362b2e2941bf,36766,1A,man,NA,NA,Somebody says<br><em>Luke and Dave are flirting with each other</em>,flirt_conjoined,rating_volition,"{""Q0"":3}",[0],The speaker identifies more with <br>Dave than Luke,The speaker identifies more with<br>Luke than Dave,right_to_left
null,Somebody says<br><em>Fred is hiring Ruth,NA,NA,NA,html-keyboard-response,45,202630,0.0-26.0-0.0,anomymised,6560c4cfd080ba12b16d8282,6564c894c02c362b2e2941bf,36766,1A,man,NA,null,M3 is hiring W1,hire,sentence,NA,NA,NA,NA,NA
6249,NA,NA,NA,NA,survey-likert-extra-labels,46,208880,0.0-26.0-1.0,anomymised,6560c4cfd080ba12b16d8282,6564c894c02c362b2e2941bf,36766,1A,man,NA,NA,Somebody says<br><em>Fred is hiring Ruth,hire,rating_volition,"{""Q0"":0}",[0],Fred is employing Ruth,Ruth is employing Fred,NA
null,Somebody says<br><em>Luke is driving Fred,NA,NA,NA,html-keyboard-response,47,210882,0.0-27.0-0.0,anomymised,6560c4cfd080ba12b16d8282,6564c894c02c362b2e2941bf,36766,1A,man,NA,null,M1 is driving M3,drive,sentence,NA,NA,NA,NA,NA
12727,NA,NA,NA,NA,survey-likert-extra-labels,48,223609,0.0-27.0-1.0,anomymised,6560c4cfd080ba12b16d8282,6564c894c02c362b2e2941bf,36766,1A,man,NA,NA,Somebody says<br><em>Luke is driving Fred,drive,rating_volition,"{""Q0"":6}",[0],Luke is Fred's passenger,Fred is Luke's passenger,NA
null,Somebody says<br><em>Kate and Jane are marrying each other</em>,NA,NA,NA,html-keyboard-response,49,225614,0.0-28.0-0.0,anomymised,6560c4cfd080ba12b16d8282,6564c894c02c362b2e2941bf,36766,1A,man,NA,null,NAME1 and NAME2 are marrying each other,marry_conjoined,sentence,NA,NA,NA,NA,NA
5108,NA,NA,NA,NA,survey-likert-extra-labels,50,230723,0.0-28.0-1.0,anomymised,6560c4cfd080ba12b16d8282,6564c894c02c362b2e2941bf,36766,1A,man,NA,NA,Somebody says<br><em>Kate and Jane are marrying each other</em>,marry_conjoined,rating_volition,"{""Q0"":3}",[0],The speaker identifies more with <br>Kate than Jane,The speaker identifies more with<br>Jane than Kate,left_to_right
null,Somebody says<br><em>Dave is being challenged by Mike</em>,NA,NA,NA,html-keyboard-response,51,232725,0.0-29.0-0.0,anomymised,6560c4cfd080ba12b16d8282,6564c894c02c362b2e2941bf,36766,1A,man,NA,null,NAME1 is being challenged by NAME2,challenge_passive,sentence,NA,NA,NA,NA,NA
1302,NA,NA,NA,NA,survey-likert-extra-labels,52,234027,0.0-29.0-1.0,anomymised,6560c4cfd080ba12b16d8282,6564c894c02c362b2e2941bf,36766,1A,man,NA,NA,Somebody says<br><em>Dave is being challenged by Mike</em>,challenge_passive,rating_volition,"{""Q0"":3}",[0],The speaker identifies more with <br>Mike than Dave,The speaker identifies more with<br>Dave than Mike,right_to_left
null,Somebody says<br><em>Mike is reminding Beth,NA,NA,NA,html-keyboard-response,53,236031,0.0-30.0-0.0,anomymised,6560c4cfd080ba12b16d8282,6564c894c02c362b2e2941bf,36766,1A,man,NA,null,M2 is reminding W4,remind,sentence,NA,NA,NA,NA,NA
4760,NA,NA,NA,NA,survey-likert-extra-labels,54,240791,0.0-30.0-1.0,anomymised,6560c4cfd080ba12b16d8282,6564c894c02c362b2e2941bf,36766,1A,man,NA,NA,Somebody says<br><em>Mike is reminding Beth,remind,rating_volition,"{""Q0"":0}",[0],Mike is telling Beth again,Beth is telling Mike again,NA
null,Somebody says<br><em>Fred is being greeted by Jane</em>,NA,NA,NA,html-keyboard-response,55,242793,0.0-31.0-0.0,anomymised,6560c4cfd080ba12b16d8282,6564c894c02c362b2e2941bf,36766,1A,man,NA,null,NAME1 is being greeted by NAME2,greet_passive,sentence,NA,NA,NA,NA,NA
2103,NA,NA,NA,NA,survey-likert-extra-labels,56,244897,0.0-31.0-1.0,anomymised,6560c4cfd080ba12b16d8282,6564c894c02c362b2e2941bf,36766,1A,man,NA,NA,Somebody says<br><em>Fred is being greeted by Jane</em>,greet_passive,rating_volition,"{""Q0"":3}",[0],The speaker identifies more with <br>Jane than Fred,The speaker identifies more with<br>Fred than Jane,right_to_left
null,Somebody says<br><em>Kate and Beth are talking with each other</em>,NA,NA,NA,html-keyboard-response,57,246903,0.0-32.0-0.0,anomymised,6560c4cfd080ba12b16d8282,6564c894c02c362b2e2941bf,36766,1A,man,NA,null,NAME1 and NAME2 are talking with each other,talk_conjoined,sentence,NA,NA,NA,NA,NA
1857,NA,NA,NA,NA,survey-likert-extra-labels,58,248761,0.0-32.0-1.0,anomymised,6560c4cfd080ba12b16d8282,6564c894c02c362b2e2941bf,36766,1A,man,NA,NA,Somebody says<br><em>Kate and Beth are talking with each other</em>,talk_conjoined,rating_volition,"{""Q0"":3}",[0],The speaker identifies more with <br>Beth than Kate,The speaker identifies more with<br>Kate than Beth,right_to_left
null,Somebody says<br><em>Ruth and Fred are playing with each other</em>,NA,NA,NA,html-keyboard-response,59,250762,0.0-33.0-0.0,anomymised,6560c4cfd080ba12b16d8282,6564c894c02c362b2e2941bf,36766,1A,man,NA,null,NAME1 and NAME2 are playing with each other,play_conjoined,sentence,NA,NA,NA,NA,NA
2324,NA,NA,NA,NA,survey-likert-extra-labels,60,253086,0.0-33.0-1.0,anomymised,6560c4cfd080ba12b16d8282,6564c894c02c362b2e2941bf,36766,1A,man,NA,NA,Somebody says<br><em>Ruth and Fred are playing with each other</em>,play_conjoined,rating_volition,"{""Q0"":3}",[0],The speaker identifies more with <br>Ruth than Fred,The speaker identifies more with<br>Fred than Ruth,left_to_right
null,Somebody says<br><em>Beth is greeting Luke</em>,NA,NA,NA,html-keyboard-response,61,255089,0.0-34.0-0.0,anomymised,6560c4cfd080ba12b16d8282,6564c894c02c362b2e2941bf,36766,1A,man,NA,null,NAME1 is greeting NAME2,greet_active,sentence,NA,NA,NA,NA,NA
3635,NA,NA,NA,NA,survey-likert-extra-labels,62,258725,0.0-34.0-1.0,anomymised,6560c4cfd080ba12b16d8282,6564c894c02c362b2e2941bf,36766,1A,man,NA,NA,Somebody says<br><em>Beth is greeting Luke</em>,greet_active,rating_volition,"{""Q0"":3}",[0],The speaker identifies more with <br>Luke than Beth,The speaker identifies more with<br>Beth than Luke,right_to_left
null,Somebody says<br><em>Kate is shouting at Mike</em>,NA,NA,NA,html-keyboard-response,63,260729,0.0-35.0-0.0,anomymised,6560c4cfd080ba12b16d8282,6564c894c02c362b2e2941bf,36766,1A,man,NA,null,NAME1 is shouting at NAME2,shout_active,sentence,NA,NA,NA,NA,NA
2440,NA,NA,NA,NA,survey-likert-extra-labels,64,263170,0.0-35.0-1.0,anomymised,6560c4cfd080ba12b16d8282,6564c894c02c362b2e2941bf,36766,1A,man,NA,NA,Somebody says<br><em>Kate is shouting at Mike</em>,shout_active,rating_volition,"{""Q0"":3}",[0],The speaker identifies more with <br>Mike than Kate,The speaker identifies more with<br>Kate than Mike,right_to_left
null,Somebody says<br><em>Kate is being looked at by Mike</em>,NA,NA,NA,html-keyboard-response,65,265174,0.0-36.0-0.0,anomymised,6560c4cfd080ba12b16d8282,6564c894c02c362b2e2941bf,36766,1A,man,NA,null,NAME1 is being looked at by NAME2,look_passive,sentence,NA,NA,NA,NA,NA
2302,NA,NA,NA,NA,survey-likert-extra-labels,66,267476,0.0-36.0-1.0,anomymised,6560c4cfd080ba12b16d8282,6564c894c02c362b2e2941bf,36766,1A,man,NA,NA,Somebody says<br><em>Kate is being looked at by Mike</em>,look_passive,rating_volition,"{""Q0"":3}",[0],The speaker identifies more with <br>Mike than Kate,The speaker identifies more with<br>Kate than Mike,right_to_left
null,Somebody says<br><em>Dave and Mike are meeting each other</em>,NA,NA,NA,html-keyboard-response,67,269478,0.0-37.0-0.0,anomymised,6560c4cfd080ba12b16d8282,6564c894c02c362b2e2941bf,36766,1A,man,NA,null,NAME1 and NAME2 are meeting each other,meet_conjoined,sentence,NA,NA,NA,NA,NA
1362,NA,NA,NA,NA,survey-likert-extra-labels,68,270841,0.0-37.0-1.0,anomymised,6560c4cfd080ba12b16d8282,6564c894c02c362b2e2941bf,36766,1A,man,NA,NA,Somebody says<br><em>Dave and Mike are meeting each other</em>,meet_conjoined,rating_volition,"{""Q0"":3}",[0],The speaker identifies more with <br>Mike than Dave,The speaker identifies more with<br>Dave than Mike,right_to_left
null,Somebody says<br><em>Jane and Fred are shouting at each other</em>,NA,NA,NA,html-keyboard-response,69,272846,0.0-38.0-0.0,anomymised,6560c4cfd080ba12b16d8282,6564c894c02c362b2e2941bf,36766,1A,man,NA,null,NAME1 and NAME2 are shouting at each other,shout_conjoined,sentence,NA,NA,NA,NA,NA
2550,NA,NA,NA,NA,survey-likert-extra-labels,70,275397,0.0-38.0-1.0,anomymised,6560c4cfd080ba12b16d8282,6564c894c02c362b2e2941bf,36766,1A,man,NA,NA,Somebody says<br><em>Jane and Fred are shouting at each other</em>,shout_conjoined,rating_volition,"{""Q0"":3}",[0],The speaker identifies more with <br>Fred than Jane,The speaker identifies more with<br>Jane than Fred,right_to_left
null,Somebody says<br><em>Dave is being hugged by Fred</em>,NA,NA,NA,html-keyboard-response,71,277402,0.0-39.0-0.0,anomymised,6560c4cfd080ba12b16d8282,6564c894c02c362b2e2941bf,36766,1A,man,NA,null,NAME1 is being hugged by NAME2,hug_passive,sentence,NA,NA,NA,NA,NA
2389,NA,NA,NA,NA,survey-likert-extra-labels,72,279792,0.0-39.0-1.0,anomymised,6560c4cfd080ba12b16d8282,6564c894c02c362b2e2941bf,36766,1A,man,NA,NA,Somebody says<br><em>Dave is being hugged by Fred</em>,hug_passive,rating_volition,"{""Q0"":3}",[0],The speaker identifies more with <br>Fred than Dave,The speaker identifies more with<br>Dave than Fred,right_to_left
null,Somebody says<br><em>Ruth is challenging Jane</em>,NA,NA,NA,html-keyboard-response,73,281793,0.0-40.0-0.0,anomymised,6560c4cfd080ba12b16d8282,6564c894c02c362b2e2941bf,36766,1A,man,NA,null,NAME1 is challenging NAME2,challenge_active,sentence,NA,NA,NA,NA,NA
3994,NA,NA,NA,NA,survey-likert-extra-labels,74,285787,0.0-40.0-1.0,anomymised,6560c4cfd080ba12b16d8282,6564c894c02c362b2e2941bf,36766,1A,man,NA,NA,Somebody says<br><em>Ruth is challenging Jane</em>,challenge_active,rating_volition,"{""Q0"":3}",[0],The speaker identifies more with <br>Ruth than Jane,The speaker identifies more with<br>Jane than Ruth,left_to_right
null,Somebody says<br><em>Jane is being kissed by Fred</em>,NA,NA,NA,html-keyboard-response,75,287788,0.0-41.0-0.0,anomymised,6560c4cfd080ba12b16d8282,6564c894c02c362b2e2941bf,36766,1A,man,NA,null,NAME1 is being kissed by NAME2,kiss_passive,sentence,NA,NA,NA,NA,NA
1683,NA,NA,NA,NA,survey-likert-extra-labels,76,289472,0.0-41.0-1.0,anomymised,6560c4cfd080ba12b16d8282,6564c894c02c362b2e2941bf,36766,1A,man,NA,NA,Somebody says<br><em>Jane is being kissed by Fred</em>,kiss_passive,rating_volition,"{""Q0"":3}",[0],The speaker identifies more with <br>Fred than Jane,The speaker identifies more with<br>Jane than Fred,right_to_left
null,Somebody says<br><em>Ruth is flirting with Jane</em>,NA,NA,NA,html-keyboard-response,77,291473,0.0-42.0-0.0,anomymised,6560c4cfd080ba12b16d8282,6564c894c02c362b2e2941bf,36766,1A,man,NA,null,NAME1 is flirting with NAME2,flirt_active,sentence,NA,NA,NA,NA,NA
2133,NA,NA,NA,NA,survey-likert-extra-labels,78,293608,0.0-42.0-1.0,anomymised,6560c4cfd080ba12b16d8282,6564c894c02c362b2e2941bf,36766,1A,man,NA,NA,Somebody says<br><em>Ruth is flirting with Jane</em>,flirt_active,rating_volition,"{""Q0"":3}",[0],The speaker identifies more with <br>Ruth than Jane,The speaker identifies more with<br>Jane than Ruth,left_to_right
null,Somebody says<br><em>Jane and Ruth are kissing each other</em>,NA,NA,NA,html-keyboard-response,79,295609,0.0-43.0-0.0,anomymised,6560c4cfd080ba12b16d8282,6564c894c02c362b2e2941bf,36766,1A,man,NA,null,NAME1 and NAME2 are kissing each other,kiss_conjoined,sentence,NA,NA,NA,NA,NA
1771,NA,NA,NA,NA,survey-likert-extra-labels,80,297382,0.0-43.0-1.0,anomymised,6560c4cfd080ba12b16d8282,6564c894c02c362b2e2941bf,36766,1A,man,NA,NA,Somebody says<br><em>Jane and Ruth are kissing each other</em>,kiss_conjoined,rating_volition,"{""Q0"":3}",[0],The speaker identifies more with <br>Jane than Ruth,The speaker identifies more with<br>Ruth than Jane,left_to_right
null,Somebody says<br><em>Fred is being shouted at by Beth</em>,NA,NA,NA,html-keyboard-response,81,299385,0.0-44.0-0.0,anomymised,6560c4cfd080ba12b16d8282,6564c894c02c362b2e2941bf,36766,1A,man,NA,null,NAME1 is being shouted at by NAME2,shout_passive,sentence,NA,NA,NA,NA,NA
1570,NA,NA,NA,NA,survey-likert-extra-labels,82,300956,0.0-44.0-1.0,anomymised,6560c4cfd080ba12b16d8282,6564c894c02c362b2e2941bf,36766,1A,man,NA,NA,Somebody says<br><em>Fred is being shouted at by Beth</em>,shout_passive,rating_volition,"{""Q0"":3}",[0],The speaker identifies more with <br>Beth than Fred,The speaker identifies more with<br>Fred than Beth,right_to_left
null,Somebody says<br><em>Jane is opposing Fred</em>,NA,NA,NA,html-keyboard-response,83,302958,0.0-45.0-0.0,anomymised,6560c4cfd080ba12b16d8282,6564c894c02c362b2e2941bf,36766,1A,man,NA,null,NAME1 is opposing NAME2,oppose_active,sentence,NA,NA,NA,NA,NA
1281,NA,NA,NA,NA,survey-likert-extra-labels,84,304239,0.0-45.0-1.0,anomymised,6560c4cfd080ba12b16d8282,6564c894c02c362b2e2941bf,36766,1A,man,NA,NA,Somebody says<br><em>Jane is opposing Fred</em>,oppose_active,rating_volition,"{""Q0"":3}",[0],The speaker identifies more with <br>Jane than Fred,The speaker identifies more with<br>Fred than Jane,left_to_right
null,Somebody says<br><em>Ruth is talking to Luke</em>,NA,NA,NA,html-keyboard-response,85,306241,0.0-46.0-0.0,anomymised,6560c4cfd080ba12b16d8282,6564c894c02c362b2e2941bf,36766,1A,man,NA,null,NAME1 is talking to NAME2,talk_active,sentence,NA,NA,NA,NA,NA
2165,NA,NA,NA,NA,survey-likert-extra-labels,86,308406,0.0-46.0-1.0,anomymised,6560c4cfd080ba12b16d8282,6564c894c02c362b2e2941bf,36766,1A,man,NA,NA,Somebody says<br><em>Ruth is talking to Luke</em>,talk_active,rating_volition,"{""Q0"":3}",[0],The speaker identifies more with <br>Ruth than Luke,The speaker identifies more with<br>Luke than Ruth,left_to_right
null,Somebody says<br><em>Jane is carrying Beth,NA,NA,NA,html-keyboard-response,87,310409,0.0-47.0-0.0,anomymised,6560c4cfd080ba12b16d8282,6564c894c02c362b2e2941bf,36766,1A,man,NA,null,W2 is carrying W4,carry,sentence,NA,NA,NA,NA,NA
5291,NA,NA,NA,NA,survey-likert-extra-labels,88,315700,0.0-47.0-1.0,anomymised,6560c4cfd080ba12b16d8282,6564c894c02c362b2e2941bf,36766,1A,man,NA,NA,Somebody says<br><em>Jane is carrying Beth,carry,rating_volition,"{""Q0"":0}",[0],Jane is transporting Beth,Beth is transporting Jane,NA
null,Somebody says<br><em>Jane is teaching Dave,NA,NA,NA,html-keyboard-response,89,317702,0.0-48.0-0.0,anomymised,6560c4cfd080ba12b16d8282,6564c894c02c362b2e2941bf,36766,1A,man,NA,null,W2 is teaching M4,teach,sentence,NA,NA,NA,NA,NA
5041,NA,NA,NA,NA,survey-likert-extra-labels,90,322743,0.0-48.0-1.0,anomymised,6560c4cfd080ba12b16d8282,6564c894c02c362b2e2941bf,36766,1A,man,NA,NA,Somebody says<br><em>Jane is teaching Dave,teach,rating_volition,"{""Q0"":0}",[0],Jane is educating Dave,Dave is educating Jane,NA
null,Somebody says<br><em>Kate is feeding Luke,NA,NA,NA,html-keyboard-response,91,324746,0.0-49.0-0.0,anomymised,6560c4cfd080ba12b16d8282,6564c894c02c362b2e2941bf,36766,1A,man,NA,null,W3 is feeding M1,feed,sentence,NA,NA,NA,NA,NA
5461,NA,NA,NA,NA,survey-likert-extra-labels,92,330208,0.0-49.0-1.0,anomymised,6560c4cfd080ba12b16d8282,6564c894c02c362b2e2941bf,36766,1A,man,NA,NA,Somebody says<br><em>Kate is feeding Luke,feed,rating_volition,"{""Q0"":0}",[0],Kate cooked for Luke,Luke cooked for Kate,NA
null,Somebody says<br><em>Ruth is chasing Kate,NA,NA,NA,html-keyboard-response,93,332210,0.0-50.0-0.0,anomymised,6560c4cfd080ba12b16d8282,6564c894c02c362b2e2941bf,36766,1A,man,NA,null,W1 is chasing W3,chase,sentence,NA,NA,NA,NA,NA
10588,NA,NA,NA,NA,survey-likert-extra-labels,94,342801,0.0-50.0-1.0,anomymised,6560c4cfd080ba12b16d8282,6564c894c02c362b2e2941bf,36766,1A,man,NA,NA,Somebody says<br><em>Ruth is chasing Kate,chase,rating_volition,"{""Q0"":0}",[0],Ruth is behind Kate,Kate is behind Ruth,NA
null,Somebody says<br><em>Fred is looking at Dave</em>,NA,NA,NA,html-keyboard-response,95,344806,0.0-51.0-0.0,anomymised,6560c4cfd080ba12b16d8282,6564c894c02c362b2e2941bf,36766,1A,man,NA,null,NAME1 is looking at NAME2,look_active,sentence,NA,NA,NA,NA,NA
2782,NA,NA,NA,NA,survey-likert-extra-labels,96,347588,0.0-51.0-1.0,anomymised,6560c4cfd080ba12b16d8282,6564c894c02c362b2e2941bf,36766,1A,man,NA,NA,Somebody says<br><em>Fred is looking at Dave</em>,look_active,rating_volition,"{""Q0"":3}",[0],The speaker identifies more with <br>Dave than Fred,The speaker identifies more with<br>Fred than Dave,right_to_left
null,Somebody says<br><em>Mike is shouting at Beth</em>,NA,NA,NA,html-keyboard-response,97,349593,0.0-52.0-0.0,anomymised,6560c4cfd080ba12b16d8282,6564c894c02c362b2e2941bf,36766,1A,man,NA,null,NAME1 is shouting at NAME2,shout_active,sentence,NA,NA,NA,NA,NA
1793,NA,NA,NA,NA,survey-likert-extra-labels,98,351386,0.0-52.0-1.0,anomymised,6560c4cfd080ba12b16d8282,6564c894c02c362b2e2941bf,36766,1A,man,NA,NA,Somebody says<br><em>Mike is shouting at Beth</em>,shout_active,rating_volition,"{""Q0"":3}",[0],The speaker identifies more with <br>Beth than Mike,The speaker identifies more with<br>Mike than Beth,right_to_left
null,Somebody says<br><em>Dave is being copied by Fred</em>,NA,NA,NA,html-keyboard-response,99,353391,0.0-53.0-0.0,anomymised,6560c4cfd080ba12b16d8282,6564c894c02c362b2e2941bf,36766,1A,man,NA,null,NAME1 is being copied by NAME2,copy_passive,sentence,NA,NA,NA,NA,NA
1869,NA,NA,NA,NA,survey-likert-extra-labels,100,355262,0.0-53.0-1.0,anomymised,6560c4cfd080ba12b16d8282,6564c894c02c362b2e2941bf,36766,1A,man,NA,NA,Somebody says<br><em>Dave is being copied by Fred</em>,copy_passive,rating_volition,"{""Q0"":3}",[0],The speaker identifies more with <br>Fred than Dave,The speaker identifies more with<br>Dave than Fred,right_to_left
null,Somebody says<br><em>Dave and Jane are dancing with each other</em>,NA,NA,NA,html-keyboard-response,101,357264,0.0-54.0-0.0,anomymised,6560c4cfd080ba12b16d8282,6564c894c02c362b2e2941bf,36766,1A,man,NA,null,NAME1 and NAME2 are dancing with each other,dance_conjoined,sentence,NA,NA,NA,NA,NA
3367,NA,NA,NA,NA,survey-likert-extra-labels,102,360632,0.0-54.0-1.0,anomymised,6560c4cfd080ba12b16d8282,6564c894c02c362b2e2941bf,36766,1A,man,NA,NA,Somebody says<br><em>Dave and Jane are dancing with each other</em>,dance_conjoined,rating_volition,"{""Q0"":3}",[0],The speaker identifies more with <br>Dave than Jane,The speaker identifies more with<br>Jane than Dave,left_to_right
null,Somebody says<br><em>Mike and Kate are hugging each other</em>,NA,NA,NA,html-keyboard-response,103,362634,0.0-55.0-0.0,anomymised,6560c4cfd080ba12b16d8282,6564c894c02c362b2e2941bf,36766,1A,man,NA,null,NAME1 and NAME2 are hugging each other,hug_conjoined,sentence,NA,NA,NA,NA,NA
1542,NA,NA,NA,NA,survey-likert-extra-labels,104,364176,0.0-55.0-1.0,anomymised,6560c4cfd080ba12b16d8282,6564c894c02c362b2e2941bf,36766,1A,man,NA,NA,Somebody says<br><em>Mike and Kate are hugging each other</em>,hug_conjoined,rating_volition,"{""Q0"":3}",[0],The speaker identifies more with <br>Kate than Mike,The speaker identifies more with<br>Mike than Kate,right_to_left
2340,<p>Thank you for completing that task.</p><p>The final part of this session is a short questionnaire.</p><p>Press Continue.</p>,0,Continue,Continue,html-button-response,105,366518,0.0-56.0,anomymised,6560c4cfd080ba12b16d8282,6564c894c02c362b2e2941bf,36766,1A,man,NA,NA,NA,NA,NA,NA,NA,NA,NA,NA
50069,NA,NA,NA,NA,survey-text,106,417591,0.0-57.0,anomymised,6560c4cfd080ba12b16d8282,6564c894c02c362b2e2941bf,36766,1A,man,NA,NA,NA,NA,demographics,"{""Q0"":""43"",""Q1"":""english"",""Q2"":""english"",""Q3"":""england"",""Q4"":""british"",""Q5"":""white"",""Q6"":""male""}",NA,NA,NA,NA
7909,<p>This is the last question - thank you for taking part! Have you lived in the UK for the last 5 years or more?</p>,0,"Yes,No",Yes,html-button-response,107,425502,0.0-58.0,anomymised,6560c4cfd080ba12b16d8282,6564c894c02c362b2e2941bf,36766,1A,man,NA,NA,NA,NA,fiveyears,NA,NA,NA,NA,NA
