rt,stimulus,button_pressed,choices,ChosenStimulus,trial_type,trial_index,time_elapsed,internal_node_id,subject_id,study_id,session_id,subject,list,ppt_gender,url,key_press,sentence_type,verb,test_part,responses,question_order,left_part,right_part,name_order
32433,Welcome to the experiment. Press Continue to begin.,0,Continue,Continue,html-button-response,0,32439,0.0-0.0,anomymised,6560c4cfd080ba12b16d8282,6564c8fc8f794bf1617e2b6f,39958,1A,man,NA,NA,NA,NA,NA,NA,NA,NA,NA,NA
52260.5,NA,NA,NA,NA,external-html,1,85821,0.0-1.0,anomymised,6560c4cfd080ba12b16d8282,6564c8fc8f794bf1617e2b6f,39958,1A,man,consent.html,NA,NA,NA,NA,NA,NA,NA,NA,NA
59621.80000001192,"<p>Welcome.</p><p>In this experiment we will ask you to imagine people's motivations for saying sentences.</p><p>Each trial will begin with a sentence that somebody might say to describe an event involving two different people.</p><p>For instance, someone might say <em>Harry is being recruited by Molly</em></p><p>We want you to think about which of those two people (Molly and Harry) the speaker identifies more with. For instance, why did the speaker say <em>Harry is being recruited by Molly</em> rather than <em> Molly is recruiting Harry</em>? Might that mean that the speaker is socially closer to one of the two characters?</p><p>After you have read the sentence, you will rate on a scale which of the two characters the speaker identifies more with.</p><p>You will give your answer by clicking a button on a rating scale.</p><p>Sometimes there will also be catch questions designed to make sure that you are paying attention, which ask about a different topic.</p><p>To do this task, you will have to use your imagination to think about and visualise the events, and how the speaker might relate to the characters.</p><br><p>Ready?</p>",0,Continue,Continue,html-button-response,2,145445,0.0-2.0,anomymised,6560c4cfd080ba12b16d8282,6564c8fc8f794bf1617e2b6f,39958,1A,man,NA,NA,NA,NA,NA,NA,NA,NA,NA,NA
36663.59999999404,"<p>Before the experiment starts, we will show you an example of how you will answer the questions. Press 'Continue'.</p>",0,Continue,Continue,html-button-response,3,183112,0.0-3.0,anomymised,6560c4cfd080ba12b16d8282,6564c8fc8f794bf1617e2b6f,39958,1A,man,NA,NA,NA,NA,NA,NA,NA,NA,NA,NA
null,Somebody says <br><em>Samuel is dining with Frank</em>,NA,NA,NA,html-keyboard-response,4,186116,0.0-4.0,anomymised,6560c4cfd080ba12b16d8282,6564c8fc8f794bf1617e2b6f,39958,1A,man,NA,null,NA,NA,NA,NA,NA,NA,NA,NA
11708.90000000596,<img src='img/Example-trial.jpg' style='height:550px;''></img>,0,Continue,Continue,html-button-response,5,197828,0.0-5.0,anomymised,6560c4cfd080ba12b16d8282,6564c8fc8f794bf1617e2b6f,39958,1A,man,NA,NA,NA,NA,NA,NA,NA,NA,NA,NA
1704.699999988079,<p>Ready to start the experiment?</p><br><p><strong>Remember to give an answer by clicking a button on the rating scale.</strong></p><p>Press 'Continue' to begin.</p>,0,Continue,Continue,html-button-response,6,200534,0.0-6.0,anomymised,6560c4cfd080ba12b16d8282,6564c8fc8f794bf1617e2b6f,39958,1A,man,NA,NA,NA,NA,NA,NA,NA,NA,NA,NA
null,Somebody says<br><em>Dave is arguing with Ruth</em>,NA,NA,NA,html-keyboard-response,7,203545,0.0-7.0-0.0,anomymised,6560c4cfd080ba12b16d8282,6564c8fc8f794bf1617e2b6f,39958,1A,man,NA,null,NAME1 is arguing with NAME2,argue_active,sentence,NA,NA,NA,NA,NA
9596.59999999404,NA,NA,NA,NA,survey-likert-extra-labels,8,213159,0.0-7.0-1.0,anomymised,6560c4cfd080ba12b16d8282,6564c8fc8f794bf1617e2b6f,39958,1A,man,NA,NA,Somebody says<br><em>Dave is arguing with Ruth</em>,argue_active,rating_volition,"{""Q0"":0}",[0],The speaker identifies more with <br>Dave than Ruth,The speaker identifies more with<br>Ruth than Dave,left_to_right
null,Somebody says<br><em>Mike is dancing with Luke</em>,NA,NA,NA,html-keyboard-response,9,215163,0.0-8.0-0.0,anomymised,6560c4cfd080ba12b16d8282,6564c8fc8f794bf1617e2b6f,39958,1A,man,NA,null,NAME1 is dancing with NAME2,dance_active,sentence,NA,NA,NA,NA,NA
65022.09999999404,NA,NA,NA,NA,survey-likert-extra-labels,10,280195,0.0-8.0-1.0,anomymised,6560c4cfd080ba12b16d8282,6564c8fc8f794bf1617e2b6f,39958,1A,man,NA,NA,Somebody says<br><em>Mike is dancing with Luke</em>,dance_active,rating_volition,"{""Q0"":2}",[0],The speaker identifies more with <br>Mike than Luke,The speaker identifies more with<br>Luke than Mike,left_to_right
null,Somebody says<br><em>Luke is meeting Beth</em>,NA,NA,NA,html-keyboard-response,11,282198,0.0-9.0-0.0,anomymised,6560c4cfd080ba12b16d8282,6564c8fc8f794bf1617e2b6f,39958,1A,man,NA,null,NAME1 is meeting NAME2,meet_active,sentence,NA,NA,NA,NA,NA
11883.300000011921,NA,NA,NA,NA,survey-likert-extra-labels,12,294085,0.0-9.0-1.0,anomymised,6560c4cfd080ba12b16d8282,6564c8fc8f794bf1617e2b6f,39958,1A,man,NA,NA,Somebody says<br><em>Luke is meeting Beth</em>,meet_active,rating_volition,"{""Q0"":6}",[0],The speaker identifies more with <br>Beth than Luke,The speaker identifies more with<br>Luke than Beth,right_to_left
null,Somebody says<br><em>Luke is driving Fred,NA,NA,NA,html-keyboard-response,13,296090,0.0-10.0-0.0,anomymised,6560c4cfd080ba12b16d8282,6564c8fc8f794bf1617e2b6f,39958,1A,man,NA,null,M1 is driving M3,drive,sentence,NA,NA,NA,NA,NA
44601.40000000596,NA,NA,NA,NA,survey-likert-extra-labels,14,340693,0.0-10.0-1.0,anomymised,6560c4cfd080ba12b16d8282,6564c8fc8f794bf1617e2b6f,39958,1A,man,NA,NA,Somebody says<br><em>Luke is driving Fred,drive,rating_volition,"{""Q0"":6}",[0],Luke is Fred's passenger,Fred is Luke's passenger,NA
null,Somebody says<br><em>Mike is posing for Dave,NA,NA,NA,html-keyboard-response,15,342695,0.0-11.0-0.0,anomymised,6560c4cfd080ba12b16d8282,6564c8fc8f794bf1617e2b6f,39958,1A,man,NA,null,M2 is posing for M4,pose,sentence,NA,NA,NA,NA,NA
8147.9000000059605,NA,NA,NA,NA,survey-likert-extra-labels,16,350845,0.0-11.0-1.0,anomymised,6560c4cfd080ba12b16d8282,6564c8fc8f794bf1617e2b6f,39958,1A,man,NA,NA,Somebody says<br><em>Mike is posing for Dave,pose,rating_volition,"{""Q0"":0}",[0],Mike is modelling for Dave,Dave is modelling for Mike,NA
null,Somebody says<br><em>Mike is reminding Beth,NA,NA,NA,html-keyboard-response,17,352847,0.0-12.0-0.0,anomymised,6560c4cfd080ba12b16d8282,6564c8fc8f794bf1617e2b6f,39958,1A,man,NA,null,M2 is reminding W4,remind,sentence,NA,NA,NA,NA,NA
28652.79999998212,NA,NA,NA,NA,survey-likert-extra-labels,18,381501,0.0-12.0-1.0,anomymised,6560c4cfd080ba12b16d8282,6564c8fc8f794bf1617e2b6f,39958,1A,man,NA,NA,Somebody says<br><em>Mike is reminding Beth,remind,rating_volition,"{""Q0"":0}",[0],Mike is telling Beth again,Beth is telling Mike again,NA
null,Somebody says<br><em>Jane is marrying Dave</em>,NA,NA,NA,html-keyboard-response,19,383503,0.0-13.0-0.0,anomymised,6560c4cfd080ba12b16d8282,6564c8fc8f794bf1617e2b6f,39958,1A,man,NA,null,NAME1 is marrying NAME2,marry_active,sentence,NA,NA,NA,NA,NA
9000.40000000596,NA,NA,NA,NA,survey-likert-extra-labels,20,392506,0.0-13.0-1.0,anomymised,6560c4cfd080ba12b16d8282,6564c8fc8f794bf1617e2b6f,39958,1A,man,NA,NA,Somebody says<br><em>Jane is marrying Dave</em>,marry_active,rating_volition,"{""Q0"":0}",[0],The speaker identifies more with <br>Jane than Dave,The speaker identifies more with<br>Dave than Jane,left_to_right
null,Somebody says<br><em>Dave and Luke are hugging each other</em>,NA,NA,NA,html-keyboard-response,21,394509,0.0-14.0-0.0,anomymised,6560c4cfd080ba12b16d8282,6564c8fc8f794bf1617e2b6f,39958,1A,man,NA,null,NAME1 and NAME2 are hugging each other,hug_conjoined,sentence,NA,NA,NA,NA,NA
14203.699999988079,NA,NA,NA,NA,survey-likert-extra-labels,22,408715,0.0-14.0-1.0,anomymised,6560c4cfd080ba12b16d8282,6564c8fc8f794bf1617e2b6f,39958,1A,man,NA,NA,Somebody says<br><em>Dave and Luke are hugging each other</em>,hug_conjoined,rating_volition,"{""Q0"":3}",[0],The speaker identifies more with <br>Dave than Luke,The speaker identifies more with<br>Luke than Dave,left_to_right
null,Somebody says<br><em>Ruth is kissing Kate</em>,NA,NA,NA,html-keyboard-response,23,410718,0.0-15.0-0.0,anomymised,6560c4cfd080ba12b16d8282,6564c8fc8f794bf1617e2b6f,39958,1A,man,NA,null,NAME1 is kissing NAME2,kiss_active,sentence,NA,NA,NA,NA,NA
16821.19999998808,NA,NA,NA,NA,survey-likert-extra-labels,24,427542,0.0-15.0-1.0,anomymised,6560c4cfd080ba12b16d8282,6564c8fc8f794bf1617e2b6f,39958,1A,man,NA,NA,Somebody says<br><em>Ruth is kissing Kate</em>,kiss_active,rating_volition,"{""Q0"":0}",[0],The speaker identifies more with <br>Ruth than Kate,The speaker identifies more with<br>Kate than Ruth,left_to_right
null,Somebody says<br><em>Beth is copying Dave</em>,NA,NA,NA,html-keyboard-response,25,429544,0.0-16.0-0.0,anomymised,6560c4cfd080ba12b16d8282,6564c8fc8f794bf1617e2b6f,39958,1A,man,NA,null,NAME1 is copying NAME2,copy_active,sentence,NA,NA,NA,NA,NA
58492.60000002384,NA,NA,NA,NA,survey-likert-extra-labels,26,488040,0.0-16.0-1.0,anomymised,6560c4cfd080ba12b16d8282,6564c8fc8f794bf1617e2b6f,39958,1A,man,NA,NA,Somebody says<br><em>Beth is copying Dave</em>,copy_active,rating_volition,"{""Q0"":2}",[0],The speaker identifies more with <br>Beth than Dave,The speaker identifies more with<br>Dave than Beth,left_to_right
null,Somebody says<br><em>Mike is talking to Ruth</em>,NA,NA,NA,html-keyboard-response,27,490042,0.0-17.0-0.0,anomymised,6560c4cfd080ba12b16d8282,6564c8fc8f794bf1617e2b6f,39958,1A,man,NA,null,NAME1 is talking to NAME2,talk_active,sentence,NA,NA,NA,NA,NA
39449.40000000596,NA,NA,NA,NA,survey-likert-extra-labels,28,529495,0.0-17.0-1.0,anomymised,6560c4cfd080ba12b16d8282,6564c8fc8f794bf1617e2b6f,39958,1A,man,NA,NA,Somebody says<br><em>Mike is talking to Ruth</em>,talk_active,rating_volition,"{""Q0"":6}",[0],The speaker identifies more with <br>Ruth than Mike,The speaker identifies more with<br>Mike than Ruth,right_to_left
null,Somebody says<br><em>Kate and Jane are dancing with each other</em>,NA,NA,NA,html-keyboard-response,29,531501,0.0-18.0-0.0,anomymised,6560c4cfd080ba12b16d8282,6564c8fc8f794bf1617e2b6f,39958,1A,man,NA,null,NAME1 and NAME2 are dancing with each other,dance_conjoined,sentence,NA,NA,NA,NA,NA
41098.69999998808,NA,NA,NA,NA,survey-likert-extra-labels,30,572602,0.0-18.0-1.0,anomymised,6560c4cfd080ba12b16d8282,6564c8fc8f794bf1617e2b6f,39958,1A,man,NA,NA,Somebody says<br><em>Kate and Jane are dancing with each other</em>,dance_conjoined,rating_volition,"{""Q0"":3}",[0],The speaker identifies more with <br>Jane than Kate,The speaker identifies more with<br>Kate than Jane,right_to_left
null,Somebody says<br><em>Dave is touching Fred</em>,NA,NA,NA,html-keyboard-response,31,574604,0.0-19.0-0.0,anomymised,6560c4cfd080ba12b16d8282,6564c8fc8f794bf1617e2b6f,39958,1A,man,NA,null,NAME1 is touching NAME2,touch_active,sentence,NA,NA,NA,NA,NA
9176.200000017881,NA,NA,NA,NA,survey-likert-extra-labels,32,583782,0.0-19.0-1.0,anomymised,6560c4cfd080ba12b16d8282,6564c8fc8f794bf1617e2b6f,39958,1A,man,NA,NA,Somebody says<br><em>Dave is touching Fred</em>,touch_active,rating_volition,"{""Q0"":6}",[0],The speaker identifies more with <br>Fred than Dave,The speaker identifies more with<br>Dave than Fred,right_to_left
null,Somebody says<br><em>Dave is seducing Beth</em>,NA,NA,NA,html-keyboard-response,33,585784,0.0-20.0-0.0,anomymised,6560c4cfd080ba12b16d8282,6564c8fc8f794bf1617e2b6f,39958,1A,man,NA,null,NAME1 is seducing NAME2,seduce_active,sentence,NA,NA,NA,NA,NA
72045.40000000596,NA,NA,NA,NA,survey-likert-extra-labels,34,657832,0.0-20.0-1.0,anomymised,6560c4cfd080ba12b16d8282,6564c8fc8f794bf1617e2b6f,39958,1A,man,NA,NA,Somebody says<br><em>Dave is seducing Beth</em>,seduce_active,rating_volition,"{""Q0"":6}",[0],The speaker identifies more with <br>Beth than Dave,The speaker identifies more with<br>Dave than Beth,right_to_left
null,Somebody says<br><em>Jane is being hugged by Beth</em>,NA,NA,NA,html-keyboard-response,35,659834,0.0-21.0-0.0,anomymised,6560c4cfd080ba12b16d8282,6564c8fc8f794bf1617e2b6f,39958,1A,man,NA,null,NAME1 is being hugged by NAME2,hug_passive,sentence,NA,NA,NA,NA,NA
7892.300000011921,NA,NA,NA,NA,survey-likert-extra-labels,36,667729,0.0-21.0-1.0,anomymised,6560c4cfd080ba12b16d8282,6564c8fc8f794bf1617e2b6f,39958,1A,man,NA,NA,Somebody says<br><em>Jane is being hugged by Beth</em>,hug_passive,rating_volition,"{""Q0"":6}",[0],The speaker identifies more with <br>Beth than Jane,The speaker identifies more with<br>Jane than Beth,right_to_left
null,Somebody says<br><em>Luke is being touched by Kate</em>,NA,NA,NA,html-keyboard-response,37,669731,0.0-22.0-0.0,anomymised,6560c4cfd080ba12b16d8282,6564c8fc8f794bf1617e2b6f,39958,1A,man,NA,null,NAME1 is being touched by NAME2,touch_passive,sentence,NA,NA,NA,NA,NA
4175.199999988079,NA,NA,NA,NA,survey-likert-extra-labels,38,673908,0.0-22.0-1.0,anomymised,6560c4cfd080ba12b16d8282,6564c8fc8f794bf1617e2b6f,39958,1A,man,NA,NA,Somebody says<br><em>Luke is being touched by Kate</em>,touch_passive,rating_volition,"{""Q0"":6}",[0],The speaker identifies more with <br>Kate than Luke,The speaker identifies more with<br>Luke than Kate,right_to_left
null,Somebody says<br><em>Fred is being seduced by Kate</em>,NA,NA,NA,html-keyboard-response,39,675910,0.0-23.0-0.0,anomymised,6560c4cfd080ba12b16d8282,6564c8fc8f794bf1617e2b6f,39958,1A,man,NA,null,NAME1 is being seduced by NAME2,seduce_passive,sentence,NA,NA,NA,NA,NA
7106.300000011921,NA,NA,NA,NA,survey-likert-extra-labels,40,683017,0.0-23.0-1.0,anomymised,6560c4cfd080ba12b16d8282,6564c8fc8f794bf1617e2b6f,39958,1A,man,NA,NA,Somebody says<br><em>Fred is being seduced by Kate</em>,seduce_passive,rating_volition,"{""Q0"":0}",[0],The speaker identifies more with <br>Fred than Kate,The speaker identifies more with<br>Kate than Fred,left_to_right
null,Somebody says<br><em>Dave is shouting at Ruth</em>,NA,NA,NA,html-keyboard-response,41,685020,0.0-24.0-0.0,anomymised,6560c4cfd080ba12b16d8282,6564c8fc8f794bf1617e2b6f,39958,1A,man,NA,null,NAME1 is shouting at NAME2,shout_active,sentence,NA,NA,NA,NA,NA
5366.700000017881,NA,NA,NA,NA,survey-likert-extra-labels,42,690388,0.0-24.0-1.0,anomymised,6560c4cfd080ba12b16d8282,6564c8fc8f794bf1617e2b6f,39958,1A,man,NA,NA,Somebody says<br><em>Dave is shouting at Ruth</em>,shout_active,rating_volition,"{""Q0"":0}",[0],The speaker identifies more with <br>Dave than Ruth,The speaker identifies more with<br>Ruth than Dave,left_to_right
null,Somebody says<br><em>Mike is being greeted by Ruth</em>,NA,NA,NA,html-keyboard-response,43,692390,0.0-25.0-0.0,anomymised,6560c4cfd080ba12b16d8282,6564c8fc8f794bf1617e2b6f,39958,1A,man,NA,null,NAME1 is being greeted by NAME2,greet_passive,sentence,NA,NA,NA,NA,NA
37367.90000000596,NA,NA,NA,NA,survey-likert-extra-labels,44,729759,0.0-25.0-1.0,anomymised,6560c4cfd080ba12b16d8282,6564c8fc8f794bf1617e2b6f,39958,1A,man,NA,NA,Somebody says<br><em>Mike is being greeted by Ruth</em>,greet_passive,rating_volition,"{""Q0"":6}",[0],The speaker identifies more with <br>Ruth than Mike,The speaker identifies more with<br>Mike than Ruth,right_to_left
null,Somebody says<br><em>Kate is feeding Luke,NA,NA,NA,html-keyboard-response,45,731761,0.0-26.0-0.0,anomymised,6560c4cfd080ba12b16d8282,6564c8fc8f794bf1617e2b6f,39958,1A,man,NA,null,W3 is feeding M1,feed,sentence,NA,NA,NA,NA,NA
10205.90000000596,NA,NA,NA,NA,survey-likert-extra-labels,46,741968,0.0-26.0-1.0,anomymised,6560c4cfd080ba12b16d8282,6564c8fc8f794bf1617e2b6f,39958,1A,man,NA,NA,Somebody says<br><em>Kate is feeding Luke,feed,rating_volition,"{""Q0"":0}",[0],Kate cooked for Luke,Luke cooked for Kate,NA
null,Somebody says<br><em>Ruth is chasing Kate,NA,NA,NA,html-keyboard-response,47,743970,0.0-27.0-0.0,anomymised,6560c4cfd080ba12b16d8282,6564c8fc8f794bf1617e2b6f,39958,1A,man,NA,null,W1 is chasing W3,chase,sentence,NA,NA,NA,NA,NA
12161.800000011921,NA,NA,NA,NA,survey-likert-extra-labels,48,756134,0.0-27.0-1.0,anomymised,6560c4cfd080ba12b16d8282,6564c8fc8f794bf1617e2b6f,39958,1A,man,NA,NA,Somebody says<br><em>Ruth is chasing Kate,chase,rating_volition,"{""Q0"":0}",[0],Ruth is behind Kate,Kate is behind Ruth,NA
null,Somebody says<br><em>Ruth and Dave are playing with each other</em>,NA,NA,NA,html-keyboard-response,49,758136,0.0-28.0-0.0,anomymised,6560c4cfd080ba12b16d8282,6564c8fc8f794bf1617e2b6f,39958,1A,man,NA,null,NAME1 and NAME2 are playing with each other,play_conjoined,sentence,NA,NA,NA,NA,NA
5172.200000017881,NA,NA,NA,NA,survey-likert-extra-labels,50,763310,0.0-28.0-1.0,anomymised,6560c4cfd080ba12b16d8282,6564c8fc8f794bf1617e2b6f,39958,1A,man,NA,NA,Somebody says<br><em>Ruth and Dave are playing with each other</em>,play_conjoined,rating_volition,"{""Q0"":3}",[0],The speaker identifies more with <br>Ruth than Dave,The speaker identifies more with<br>Dave than Ruth,left_to_right
null,Somebody says<br><em>Fred and Ruth are flirting with each other</em>,NA,NA,NA,html-keyboard-response,51,765312,0.0-29.0-0.0,anomymised,6560c4cfd080ba12b16d8282,6564c8fc8f794bf1617e2b6f,39958,1A,man,NA,null,NAME1 and NAME2 are flirting with each other,flirt_conjoined,sentence,NA,NA,NA,NA,NA
75900.69999998808,NA,NA,NA,NA,survey-likert-extra-labels,52,841215,0.0-29.0-1.0,anomymised,6560c4cfd080ba12b16d8282,6564c8fc8f794bf1617e2b6f,39958,1A,man,NA,NA,Somebody says<br><em>Fred and Ruth are flirting with each other</em>,flirt_conjoined,rating_volition,"{""Q0"":3}",[0],The speaker identifies more with <br>Ruth than Fred,The speaker identifies more with<br>Fred than Ruth,right_to_left
null,Somebody says<br><em>Luke is playing with Mike</em>,NA,NA,NA,html-keyboard-response,53,843218,0.0-30.0-0.0,anomymised,6560c4cfd080ba12b16d8282,6564c8fc8f794bf1617e2b6f,39958,1A,man,NA,null,NAME1 is playing with NAME2,play_active,sentence,NA,NA,NA,NA,NA
5040.100000023842,NA,NA,NA,NA,survey-likert-extra-labels,54,848261,0.0-30.0-1.0,anomymised,6560c4cfd080ba12b16d8282,6564c8fc8f794bf1617e2b6f,39958,1A,man,NA,NA,Somebody says<br><em>Luke is playing with Mike</em>,play_active,rating_volition,"{""Q0"":6}",[0],The speaker identifies more with <br>Mike than Luke,The speaker identifies more with<br>Luke than Mike,right_to_left
null,Somebody says<br><em>Jane is being opposed by Dave</em>,NA,NA,NA,html-keyboard-response,55,850263,0.0-31.0-0.0,anomymised,6560c4cfd080ba12b16d8282,6564c8fc8f794bf1617e2b6f,39958,1A,man,NA,null,NAME1 is being opposed by NAME2,oppose_passive,sentence,NA,NA,NA,NA,NA
32456.5,NA,NA,NA,NA,survey-likert-extra-labels,56,882723,0.0-31.0-1.0,anomymised,6560c4cfd080ba12b16d8282,6564c8fc8f794bf1617e2b6f,39958,1A,man,NA,NA,Somebody says<br><em>Jane is being opposed by Dave</em>,oppose_passive,rating_volition,"{""Q0"":6}",[0],The speaker identifies more with <br>Dave than Jane,The speaker identifies more with<br>Jane than Dave,right_to_left
null,Somebody says<br><em>Mike and Luke are meeting each other</em>,NA,NA,NA,html-keyboard-response,57,884725,0.0-32.0-0.0,anomymised,6560c4cfd080ba12b16d8282,6564c8fc8f794bf1617e2b6f,39958,1A,man,NA,null,NAME1 and NAME2 are meeting each other,meet_conjoined,sentence,NA,NA,NA,NA,NA
5583.300000011921,NA,NA,NA,NA,survey-likert-extra-labels,58,890310,0.0-32.0-1.0,anomymised,6560c4cfd080ba12b16d8282,6564c8fc8f794bf1617e2b6f,39958,1A,man,NA,NA,Somebody says<br><em>Mike and Luke are meeting each other</em>,meet_conjoined,rating_volition,"{""Q0"":3}",[0],The speaker identifies more with <br>Luke than Mike,The speaker identifies more with<br>Mike than Luke,right_to_left
null,Somebody says<br><em>Ruth and Kate are shouting at each other</em>,NA,NA,NA,html-keyboard-response,59,892312,0.0-33.0-0.0,anomymised,6560c4cfd080ba12b16d8282,6564c8fc8f794bf1617e2b6f,39958,1A,man,NA,null,NAME1 and NAME2 are shouting at each other,shout_conjoined,sentence,NA,NA,NA,NA,NA
11882.5,NA,NA,NA,NA,survey-likert-extra-labels,60,904196,0.0-33.0-1.0,anomymised,6560c4cfd080ba12b16d8282,6564c8fc8f794bf1617e2b6f,39958,1A,man,NA,NA,Somebody says<br><em>Ruth and Kate are shouting at each other</em>,shout_conjoined,rating_volition,"{""Q0"":3}",[0],The speaker identifies more with <br>Ruth than Kate,The speaker identifies more with<br>Kate than Ruth,left_to_right
null,Somebody says<br><em>Fred is flirting with Beth</em>,NA,NA,NA,html-keyboard-response,61,906198,0.0-34.0-0.0,anomymised,6560c4cfd080ba12b16d8282,6564c8fc8f794bf1617e2b6f,39958,1A,man,NA,null,NAME1 is flirting with NAME2,flirt_active,sentence,NA,NA,NA,NA,NA
5140.300000011921,NA,NA,NA,NA,survey-likert-extra-labels,62,911340,0.0-34.0-1.0,anomymised,6560c4cfd080ba12b16d8282,6564c8fc8f794bf1617e2b6f,39958,1A,man,NA,NA,Somebody says<br><em>Fred is flirting with Beth</em>,flirt_active,rating_volition,"{""Q0"":6}",[0],The speaker identifies more with <br>Beth than Fred,The speaker identifies more with<br>Fred than Beth,right_to_left
null,Somebody says<br><em>Ruth is shouting at Jane</em>,NA,NA,NA,html-keyboard-response,63,913342,0.0-35.0-0.0,anomymised,6560c4cfd080ba12b16d8282,6564c8fc8f794bf1617e2b6f,39958,1A,man,NA,null,NAME1 is shouting at NAME2,shout_active,sentence,NA,NA,NA,NA,NA
5671.800000011921,NA,NA,NA,NA,survey-likert-extra-labels,64,919015,0.0-35.0-1.0,anomymised,6560c4cfd080ba12b16d8282,6564c8fc8f794bf1617e2b6f,39958,1A,man,NA,NA,Somebody says<br><em>Ruth is shouting at Jane</em>,shout_active,rating_volition,"{""Q0"":6}",[0],The speaker identifies more with <br>Jane than Ruth,The speaker identifies more with<br>Ruth than Jane,right_to_left
null,Somebody says<br><em>Luke and Kate are touching each other</em>,NA,NA,NA,html-keyboard-response,65,921017,0.0-36.0-0.0,anomymised,6560c4cfd080ba12b16d8282,6564c8fc8f794bf1617e2b6f,39958,1A,man,NA,null,NAME1 and NAME2 are touching each other,touch_conjoined,sentence,NA,NA,NA,NA,NA
5342.199999988079,NA,NA,NA,NA,survey-likert-extra-labels,66,926361,0.0-36.0-1.0,anomymised,6560c4cfd080ba12b16d8282,6564c8fc8f794bf1617e2b6f,39958,1A,man,NA,NA,Somebody says<br><em>Luke and Kate are touching each other</em>,touch_conjoined,rating_volition,"{""Q0"":2}",[0],The speaker identifies more with <br>Luke than Kate,The speaker identifies more with<br>Kate than Luke,left_to_right
null,Somebody says<br><em>Dave and Luke are kissing each other</em>,NA,NA,NA,html-keyboard-response,67,928363,0.0-37.0-0.0,anomymised,6560c4cfd080ba12b16d8282,6564c8fc8f794bf1617e2b6f,39958,1A,man,NA,null,NAME1 and NAME2 are kissing each other,kiss_conjoined,sentence,NA,NA,NA,NA,NA
11359.200000017881,NA,NA,NA,NA,survey-likert-extra-labels,68,939725,0.0-37.0-1.0,anomymised,6560c4cfd080ba12b16d8282,6564c8fc8f794bf1617e2b6f,39958,1A,man,NA,NA,Somebody says<br><em>Dave and Luke are kissing each other</em>,kiss_conjoined,rating_volition,"{""Q0"":3}",[0],The speaker identifies more with <br>Luke than Dave,The speaker identifies more with<br>Dave than Luke,right_to_left
null,Somebody says<br><em>Jane is fighting with Fred</em>,NA,NA,NA,html-keyboard-response,69,941727,0.0-38.0-0.0,anomymised,6560c4cfd080ba12b16d8282,6564c8fc8f794bf1617e2b6f,39958,1A,man,NA,null,NAME1 is fighting with NAME2,fight_active,sentence,NA,NA,NA,NA,NA
8066.100000023842,NA,NA,NA,NA,survey-likert-extra-labels,70,949798,0.0-38.0-1.0,anomymised,6560c4cfd080ba12b16d8282,6564c8fc8f794bf1617e2b6f,39958,1A,man,NA,NA,Somebody says<br><em>Jane is fighting with Fred</em>,fight_active,rating_volition,"{""Q0"":6}",[0],The speaker identifies more with <br>Fred than Jane,The speaker identifies more with<br>Jane than Fred,right_to_left
null,Somebody says<br><em>Beth is being looked at by Dave</em>,NA,NA,NA,html-keyboard-response,71,951800,0.0-39.0-0.0,anomymised,6560c4cfd080ba12b16d8282,6564c8fc8f794bf1617e2b6f,39958,1A,man,NA,null,NAME1 is being looked at by NAME2,look_passive,sentence,NA,NA,NA,NA,NA
10097.5,NA,NA,NA,NA,survey-likert-extra-labels,72,961898,0.0-39.0-1.0,anomymised,6560c4cfd080ba12b16d8282,6564c8fc8f794bf1617e2b6f,39958,1A,man,NA,NA,Somebody says<br><em>Beth is being looked at by Dave</em>,look_passive,rating_volition,"{""Q0"":0}",[0],The speaker identifies more with <br>Beth than Dave,The speaker identifies more with<br>Dave than Beth,left_to_right
null,Somebody says<br><em>Dave is being shouted at by Fred</em>,NA,NA,NA,html-keyboard-response,73,963901,0.0-40.0-0.0,anomymised,6560c4cfd080ba12b16d8282,6564c8fc8f794bf1617e2b6f,39958,1A,man,NA,null,NAME1 is being shouted at by NAME2,shout_passive,sentence,NA,NA,NA,NA,NA
8221.5,NA,NA,NA,NA,survey-likert-extra-labels,74,972125,0.0-40.0-1.0,anomymised,6560c4cfd080ba12b16d8282,6564c8fc8f794bf1617e2b6f,39958,1A,man,NA,NA,Somebody says<br><em>Dave is being shouted at by Fred</em>,shout_passive,rating_volition,"{""Q0"":6}",[0],The speaker identifies more with <br>Fred than Dave,The speaker identifies more with<br>Dave than Fred,right_to_left
null,Somebody says<br><em>Jane is teaching Dave,NA,NA,NA,html-keyboard-response,75,974127,0.0-41.0-0.0,anomymised,6560c4cfd080ba12b16d8282,6564c8fc8f794bf1617e2b6f,39958,1A,man,NA,null,W2 is teaching M4,teach,sentence,NA,NA,NA,NA,NA
7938.799999982119,NA,NA,NA,NA,survey-likert-extra-labels,76,982067,0.0-41.0-1.0,anomymised,6560c4cfd080ba12b16d8282,6564c8fc8f794bf1617e2b6f,39958,1A,man,NA,NA,Somebody says<br><em>Jane is teaching Dave,teach,rating_volition,"{""Q0"":0}",[0],Jane is educating Dave,Dave is educating Jane,NA
null,Somebody says<br><em>Mike is hugging Kate</em>,NA,NA,NA,html-keyboard-response,77,984069,0.0-42.0-0.0,anomymised,6560c4cfd080ba12b16d8282,6564c8fc8f794bf1617e2b6f,39958,1A,man,NA,null,NAME1 is hugging NAME2,hug_active,sentence,NA,NA,NA,NA,NA
6981.0999999940395,NA,NA,NA,NA,survey-likert-extra-labels,78,991051,0.0-42.0-1.0,anomymised,6560c4cfd080ba12b16d8282,6564c8fc8f794bf1617e2b6f,39958,1A,man,NA,NA,Somebody says<br><em>Mike is hugging Kate</em>,hug_active,rating_volition,"{""Q0"":0}",[0],The speaker identifies more with <br>Mike than Kate,The speaker identifies more with<br>Kate than Mike,left_to_right
null,Somebody says<br><em>Mike is being challenged by Beth</em>,NA,NA,NA,html-keyboard-response,79,993054,0.0-43.0-0.0,anomymised,6560c4cfd080ba12b16d8282,6564c8fc8f794bf1617e2b6f,39958,1A,man,NA,null,NAME1 is being challenged by NAME2,challenge_passive,sentence,NA,NA,NA,NA,NA
6102,NA,NA,NA,NA,survey-likert-extra-labels,80,999157,0.0-43.0-1.0,anomymised,6560c4cfd080ba12b16d8282,6564c8fc8f794bf1617e2b6f,39958,1A,man,NA,NA,Somebody says<br><em>Mike is being challenged by Beth</em>,challenge_passive,rating_volition,"{""Q0"":0}",[0],The speaker identifies more with <br>Mike than Beth,The speaker identifies more with<br>Beth than Mike,left_to_right
null,Somebody says<br><em>Jane is carrying Beth,NA,NA,NA,html-keyboard-response,81,1001160,0.0-44.0-0.0,anomymised,6560c4cfd080ba12b16d8282,6564c8fc8f794bf1617e2b6f,39958,1A,man,NA,null,W2 is carrying W4,carry,sentence,NA,NA,NA,NA,NA
7225.9000000059605,NA,NA,NA,NA,survey-likert-extra-labels,82,1008387,0.0-44.0-1.0,anomymised,6560c4cfd080ba12b16d8282,6564c8fc8f794bf1617e2b6f,39958,1A,man,NA,NA,Somebody says<br><em>Jane is carrying Beth,carry,rating_volition,"{""Q0"":0}",[0],Jane is transporting Beth,Beth is transporting Jane,NA
null,Somebody says<br><em>Fred and Dave are fighting with each other</em>,NA,NA,NA,html-keyboard-response,83,1010389,0.0-45.0-0.0,anomymised,6560c4cfd080ba12b16d8282,6564c8fc8f794bf1617e2b6f,39958,1A,man,NA,null,NAME1 and NAME2 are fighting with each other,fight_conjoined,sentence,NA,NA,NA,NA,NA
4057.7000000178814,NA,NA,NA,NA,survey-likert-extra-labels,84,1014449,0.0-45.0-1.0,anomymised,6560c4cfd080ba12b16d8282,6564c8fc8f794bf1617e2b6f,39958,1A,man,NA,NA,Somebody says<br><em>Fred and Dave are fighting with each other</em>,fight_conjoined,rating_volition,"{""Q0"":3}",[0],The speaker identifies more with <br>Dave than Fred,The speaker identifies more with<br>Fred than Dave,right_to_left
null,Somebody says<br><em>Luke is being kissed by Beth</em>,NA,NA,NA,html-keyboard-response,85,1016450,0.0-46.0-0.0,anomymised,6560c4cfd080ba12b16d8282,6564c8fc8f794bf1617e2b6f,39958,1A,man,NA,null,NAME1 is being kissed by NAME2,kiss_passive,sentence,NA,NA,NA,NA,NA
14890.800000011921,NA,NA,NA,NA,survey-likert-extra-labels,86,1031343,0.0-46.0-1.0,anomymised,6560c4cfd080ba12b16d8282,6564c8fc8f794bf1617e2b6f,39958,1A,man,NA,NA,Somebody says<br><em>Luke is being kissed by Beth</em>,kiss_passive,rating_volition,"{""Q0"":0}",[0],The speaker identifies more with <br>Luke than Beth,The speaker identifies more with<br>Beth than Luke,left_to_right
null,Somebody says<br><em>Kate is looking at Ruth</em>,NA,NA,NA,html-keyboard-response,87,1033345,0.0-47.0-0.0,anomymised,6560c4cfd080ba12b16d8282,6564c8fc8f794bf1617e2b6f,39958,1A,man,NA,null,NAME1 is looking at NAME2,look_active,sentence,NA,NA,NA,NA,NA
6296.699999988079,NA,NA,NA,NA,survey-likert-extra-labels,88,1039643,0.0-47.0-1.0,anomymised,6560c4cfd080ba12b16d8282,6564c8fc8f794bf1617e2b6f,39958,1A,man,NA,NA,Somebody says<br><em>Kate is looking at Ruth</em>,look_active,rating_volition,"{""Q0"":0}",[0],The speaker identifies more with <br>Kate than Ruth,The speaker identifies more with<br>Ruth than Kate,left_to_right
null,Somebody says<br><em>Fred is hiring Ruth,NA,NA,NA,html-keyboard-response,89,1041645,0.0-48.0-0.0,anomymised,6560c4cfd080ba12b16d8282,6564c8fc8f794bf1617e2b6f,39958,1A,man,NA,null,M3 is hiring W1,hire,sentence,NA,NA,NA,NA,NA
16315.40000000596,NA,NA,NA,NA,survey-likert-extra-labels,90,1057962,0.0-48.0-1.0,anomymised,6560c4cfd080ba12b16d8282,6564c8fc8f794bf1617e2b6f,39958,1A,man,NA,NA,Somebody says<br><em>Fred is hiring Ruth,hire,rating_volition,"{""Q0"":0}",[0],Fred is employing Ruth,Ruth is employing Fred,NA
null,Somebody says<br><em>Dave is greeting Beth</em>,NA,NA,NA,html-keyboard-response,91,1059965,0.0-49.0-0.0,anomymised,6560c4cfd080ba12b16d8282,6564c8fc8f794bf1617e2b6f,39958,1A,man,NA,null,NAME1 is greeting NAME2,greet_active,sentence,NA,NA,NA,NA,NA
55339.09999999404,NA,NA,NA,NA,survey-likert-extra-labels,92,1115306,0.0-49.0-1.0,anomymised,6560c4cfd080ba12b16d8282,6564c8fc8f794bf1617e2b6f,39958,1A,man,NA,NA,Somebody says<br><em>Dave is greeting Beth</em>,greet_active,rating_volition,"{""Q0"":6}",[0],The speaker identifies more with <br>Beth than Dave,The speaker identifies more with<br>Dave than Beth,right_to_left
null,Somebody says<br><em>Mike is being copied by Kate</em>,NA,NA,NA,html-keyboard-response,93,1117309,0.0-50.0-0.0,anomymised,6560c4cfd080ba12b16d8282,6564c8fc8f794bf1617e2b6f,39958,1A,man,NA,null,NAME1 is being copied by NAME2,copy_passive,sentence,NA,NA,NA,NA,NA
5310.600000023842,NA,NA,NA,NA,survey-likert-extra-labels,94,1122621,0.0-50.0-1.0,anomymised,6560c4cfd080ba12b16d8282,6564c8fc8f794bf1617e2b6f,39958,1A,man,NA,NA,Somebody says<br><em>Mike is being copied by Kate</em>,copy_passive,rating_volition,"{""Q0"":6}",[0],The speaker identifies more with <br>Kate than Mike,The speaker identifies more with<br>Mike than Kate,right_to_left
null,Somebody says<br><em>Dave and Beth are arguing with each other</em>,NA,NA,NA,html-keyboard-response,95,1124623,0.0-51.0-0.0,anomymised,6560c4cfd080ba12b16d8282,6564c8fc8f794bf1617e2b6f,39958,1A,man,NA,null,NAME1 and NAME2 are arguing with each other,argue_conjoined,sentence,NA,NA,NA,NA,NA
12492.199999988079,NA,NA,NA,NA,survey-likert-extra-labels,96,1137117,0.0-51.0-1.0,anomymised,6560c4cfd080ba12b16d8282,6564c8fc8f794bf1617e2b6f,39958,1A,man,NA,NA,Somebody says<br><em>Dave and Beth are arguing with each other</em>,argue_conjoined,rating_volition,"{""Q0"":3}",[0],The speaker identifies more with <br>Beth than Dave,The speaker identifies more with<br>Dave than Beth,right_to_left
null,Somebody says<br><em>Ruth is opposing Jane</em>,NA,NA,NA,html-keyboard-response,97,1139119,0.0-52.0-0.0,anomymised,6560c4cfd080ba12b16d8282,6564c8fc8f794bf1617e2b6f,39958,1A,man,NA,null,NAME1 is opposing NAME2,oppose_active,sentence,NA,NA,NA,NA,NA
7135.0999999940395,NA,NA,NA,NA,survey-likert-extra-labels,98,1146256,0.0-52.0-1.0,anomymised,6560c4cfd080ba12b16d8282,6564c8fc8f794bf1617e2b6f,39958,1A,man,NA,NA,Somebody says<br><em>Ruth is opposing Jane</em>,oppose_active,rating_volition,"{""Q0"":0}",[0],The speaker identifies more with <br>Ruth than Jane,The speaker identifies more with<br>Jane than Ruth,left_to_right
null,Somebody says<br><em>Dave is challenging Jane</em>,NA,NA,NA,html-keyboard-response,99,1148258,0.0-53.0-0.0,anomymised,6560c4cfd080ba12b16d8282,6564c8fc8f794bf1617e2b6f,39958,1A,man,NA,null,NAME1 is challenging NAME2,challenge_active,sentence,NA,NA,NA,NA,NA
6084.299999982119,NA,NA,NA,NA,survey-likert-extra-labels,100,1154344,0.0-53.0-1.0,anomymised,6560c4cfd080ba12b16d8282,6564c8fc8f794bf1617e2b6f,39958,1A,man,NA,NA,Somebody says<br><em>Dave is challenging Jane</em>,challenge_active,rating_volition,"{""Q0"":6}",[0],The speaker identifies more with <br>Jane than Dave,The speaker identifies more with<br>Dave than Jane,right_to_left
null,Somebody says<br><em>Mike and Luke are marrying each other</em>,NA,NA,NA,html-keyboard-response,101,1156346,0.0-54.0-0.0,anomymised,6560c4cfd080ba12b16d8282,6564c8fc8f794bf1617e2b6f,39958,1A,man,NA,null,NAME1 and NAME2 are marrying each other,marry_conjoined,sentence,NA,NA,NA,NA,NA
3824.7000000178814,NA,NA,NA,NA,survey-likert-extra-labels,102,1160172,0.0-54.0-1.0,anomymised,6560c4cfd080ba12b16d8282,6564c8fc8f794bf1617e2b6f,39958,1A,man,NA,NA,Somebody says<br><em>Mike and Luke are marrying each other</em>,marry_conjoined,rating_volition,"{""Q0"":3}",[0],The speaker identifies more with <br>Mike than Luke,The speaker identifies more with<br>Luke than Mike,left_to_right
null,Somebody says<br><em>Beth and Fred are talking with each other</em>,NA,NA,NA,html-keyboard-response,103,1162174,0.0-55.0-0.0,anomymised,6560c4cfd080ba12b16d8282,6564c8fc8f794bf1617e2b6f,39958,1A,man,NA,null,NAME1 and NAME2 are talking with each other,talk_conjoined,sentence,NA,NA,NA,NA,NA
10495.5,NA,NA,NA,NA,survey-likert-extra-labels,104,1172671,0.0-55.0-1.0,anomymised,6560c4cfd080ba12b16d8282,6564c8fc8f794bf1617e2b6f,39958,1A,man,NA,NA,Somebody says<br><em>Beth and Fred are talking with each other</em>,talk_conjoined,rating_volition,"{""Q0"":3}",[0],The speaker identifies more with <br>Beth than Fred,The speaker identifies more with<br>Fred than Beth,left_to_right
2606.699999988079,<p>Thank you for completing that task.</p><p>The final part of this session is a short questionnaire.</p><p>Press Continue.</p>,0,Continue,Continue,html-button-response,105,1175287,0.0-56.0,anomymised,6560c4cfd080ba12b16d8282,6564c8fc8f794bf1617e2b6f,39958,1A,man,NA,NA,NA,NA,NA,NA,NA,NA,NA,NA
56593.40000000596,NA,NA,NA,NA,survey-text,106,1232896,0.0-57.0,anomymised,6560c4cfd080ba12b16d8282,6564c8fc8f794bf1617e2b6f,39958,1A,man,NA,NA,NA,NA,demographics,"{""Q0"":""47"",""Q1"":""Twi"",""Q2"":""English"",""Q3"":""uk"",""Q4"":""Ghanaian"",""Q5"":""black"",""Q6"":""male""}",NA,NA,NA,NA
4257,<p>This is the last question - thank you for taking part! Have you lived in the UK for the last 5 years or more?</p>,0,"Yes,No",Yes,html-button-response,107,1237155,0.0-58.0,anomymised,6560c4cfd080ba12b16d8282,6564c8fc8f794bf1617e2b6f,39958,1A,man,NA,NA,NA,NA,fiveyears,NA,NA,NA,NA,NA
