rt,stimulus,button_pressed,choices,ChosenStimulus,trial_type,trial_index,time_elapsed,internal_node_id,subject_id,study_id,session_id,subject,list,ppt_gender,url,key_press,sentence_type,verb,test_part,responses,question_order,left_part,right_part,name_order
49593.59999996424,Welcome to the experiment. Press Continue to begin.,0,Continue,Continue,html-button-response,0,49596,0.0-0.0,anomymised,6560c4cfd080ba12b16d8282,6564c809d7ac042e2aa5418c,43179,1A,man,NA,NA,NA,NA,NA,NA,NA,NA,NA,NA
10140.800000011921,NA,NA,NA,NA,external-html,1,60780,0.0-1.0,anomymised,6560c4cfd080ba12b16d8282,6564c809d7ac042e2aa5418c,43179,1A,man,consent.html,NA,NA,NA,NA,NA,NA,NA,NA,NA
48913,"<p>Welcome.</p><p>In this experiment we will ask you to imagine people's motivations for saying sentences.</p><p>Each trial will begin with a sentence that somebody might say to describe an event involving two different people.</p><p>For instance, someone might say <em>Harry is being recruited by Molly</em></p><p>We want you to think about which of those two people (Molly and Harry) the speaker identifies more with. For instance, why did the speaker say <em>Harry is being recruited by Molly</em> rather than <em> Molly is recruiting Harry</em>? Might that mean that the speaker is socially closer to one of the two characters?</p><p>After you have read the sentence, you will rate on a scale which of the two characters the speaker identifies more with.</p><p>You will give your answer by clicking a button on a rating scale.</p><p>Sometimes there will also be catch questions designed to make sure that you are paying attention, which ask about a different topic.</p><p>To do this task, you will have to use your imagination to think about and visualise the events, and how the speaker might relate to the characters.</p><br><p>Ready?</p>",0,Continue,Continue,html-button-response,2,109694,0.0-2.0,anomymised,6560c4cfd080ba12b16d8282,6564c809d7ac042e2aa5418c,43179,1A,man,NA,NA,NA,NA,NA,NA,NA,NA,NA,NA
2483.5,"<p>Before the experiment starts, we will show you an example of how you will answer the questions. Press 'Continue'.</p>",0,Continue,Continue,html-button-response,3,113183,0.0-3.0,anomymised,6560c4cfd080ba12b16d8282,6564c809d7ac042e2aa5418c,43179,1A,man,NA,NA,NA,NA,NA,NA,NA,NA,NA,NA
null,Somebody says <br><em>Samuel is dining with Frank</em>,NA,NA,NA,html-keyboard-response,4,116214,0.0-4.0,anomymised,6560c4cfd080ba12b16d8282,6564c809d7ac042e2aa5418c,43179,1A,man,NA,null,NA,NA,NA,NA,NA,NA,NA,NA
27472.19999998808,<img src='img/Example-trial.jpg' style='height:550px;''></img>,0,Continue,Continue,html-button-response,5,143687,0.0-5.0,anomymised,6560c4cfd080ba12b16d8282,6564c809d7ac042e2aa5418c,43179,1A,man,NA,NA,NA,NA,NA,NA,NA,NA,NA,NA
3675.300000011921,<p>Ready to start the experiment?</p><br><p><strong>Remember to give an answer by clicking a button on the rating scale.</strong></p><p>Press 'Continue' to begin.</p>,0,Continue,Continue,html-button-response,6,148374,0.0-6.0,anomymised,6560c4cfd080ba12b16d8282,6564c809d7ac042e2aa5418c,43179,1A,man,NA,NA,NA,NA,NA,NA,NA,NA,NA,NA
null,Somebody says<br><em>Ruth is chasing Kate,NA,NA,NA,html-keyboard-response,7,151398,0.0-7.0-0.0,anomymised,6560c4cfd080ba12b16d8282,6564c809d7ac042e2aa5418c,43179,1A,man,NA,null,W1 is chasing W3,chase,sentence,NA,NA,NA,NA,NA
13269.699999988079,NA,NA,NA,NA,survey-likert-extra-labels,8,164669,0.0-7.0-1.0,anomymised,6560c4cfd080ba12b16d8282,6564c809d7ac042e2aa5418c,43179,1A,man,NA,NA,Somebody says<br><em>Ruth is chasing Kate,chase,rating_volition,"{""Q0"":1}",[0],Ruth is behind Kate,Kate is behind Ruth,NA
null,Somebody says<br><em>Fred is being copied by Beth</em>,NA,NA,NA,html-keyboard-response,9,166683,0.0-8.0-0.0,anomymised,6560c4cfd080ba12b16d8282,6564c809d7ac042e2aa5418c,43179,1A,man,NA,null,NAME1 is being copied by NAME2,copy_passive,sentence,NA,NA,NA,NA,NA
13885.399999976158,NA,NA,NA,NA,survey-likert-extra-labels,10,180569,0.0-8.0-1.0,anomymised,6560c4cfd080ba12b16d8282,6564c809d7ac042e2aa5418c,43179,1A,man,NA,NA,Somebody says<br><em>Fred is being copied by Beth</em>,copy_passive,rating_volition,"{""Q0"":1}",[0],The speaker identifies more with <br>Fred than Beth,The speaker identifies more with<br>Beth than Fred,left_to_right
null,Somebody says<br><em>Fred is copying Luke</em>,NA,NA,NA,html-keyboard-response,11,182577,0.0-9.0-0.0,anomymised,6560c4cfd080ba12b16d8282,6564c809d7ac042e2aa5418c,43179,1A,man,NA,null,NAME1 is copying NAME2,copy_active,sentence,NA,NA,NA,NA,NA
19199.100000023842,NA,NA,NA,NA,survey-likert-extra-labels,12,201777,0.0-9.0-1.0,anomymised,6560c4cfd080ba12b16d8282,6564c809d7ac042e2aa5418c,43179,1A,man,NA,NA,Somebody says<br><em>Fred is copying Luke</em>,copy_active,rating_volition,"{""Q0"":1}",[0],The speaker identifies more with <br>Luke than Fred,The speaker identifies more with<br>Fred than Luke,right_to_left
null,Somebody says<br><em>Jane is being greeted by Beth</em>,NA,NA,NA,html-keyboard-response,13,203794,0.0-10.0-0.0,anomymised,6560c4cfd080ba12b16d8282,6564c809d7ac042e2aa5418c,43179,1A,man,NA,null,NAME1 is being greeted by NAME2,greet_passive,sentence,NA,NA,NA,NA,NA
7337.699999988079,NA,NA,NA,NA,survey-likert-extra-labels,14,211132,0.0-10.0-1.0,anomymised,6560c4cfd080ba12b16d8282,6564c809d7ac042e2aa5418c,43179,1A,man,NA,NA,Somebody says<br><em>Jane is being greeted by Beth</em>,greet_passive,rating_volition,"{""Q0"":5}",[0],The speaker identifies more with <br>Beth than Jane,The speaker identifies more with<br>Jane than Beth,right_to_left
null,Somebody says<br><em>Fred is hiring Ruth,NA,NA,NA,html-keyboard-response,15,213140,0.0-11.0-0.0,anomymised,6560c4cfd080ba12b16d8282,6564c809d7ac042e2aa5418c,43179,1A,man,NA,null,M3 is hiring W1,hire,sentence,NA,NA,NA,NA,NA
20571.100000023842,NA,NA,NA,NA,survey-likert-extra-labels,16,233712,0.0-11.0-1.0,anomymised,6560c4cfd080ba12b16d8282,6564c809d7ac042e2aa5418c,43179,1A,man,NA,NA,Somebody says<br><em>Fred is hiring Ruth,hire,rating_volition,"{""Q0"":0}",[0],Fred is employing Ruth,Ruth is employing Fred,NA
null,Somebody says<br><em>Ruth is being touched by Luke</em>,NA,NA,NA,html-keyboard-response,17,235715,0.0-12.0-0.0,anomymised,6560c4cfd080ba12b16d8282,6564c809d7ac042e2aa5418c,43179,1A,man,NA,null,NAME1 is being touched by NAME2,touch_passive,sentence,NA,NA,NA,NA,NA
17340.299999952316,NA,NA,NA,NA,survey-likert-extra-labels,18,253056,0.0-12.0-1.0,anomymised,6560c4cfd080ba12b16d8282,6564c809d7ac042e2aa5418c,43179,1A,man,NA,NA,Somebody says<br><em>Ruth is being touched by Luke</em>,touch_passive,rating_volition,"{""Q0"":0}",[0],The speaker identifies more with <br>Ruth than Luke,The speaker identifies more with<br>Luke than Ruth,left_to_right
null,Somebody says<br><em>Beth is being kissed by Mike</em>,NA,NA,NA,html-keyboard-response,19,255070,0.0-13.0-0.0,anomymised,6560c4cfd080ba12b16d8282,6564c809d7ac042e2aa5418c,43179,1A,man,NA,null,NAME1 is being kissed by NAME2,kiss_passive,sentence,NA,NA,NA,NA,NA
7675.400000035763,NA,NA,NA,NA,survey-likert-extra-labels,20,262746,0.0-13.0-1.0,anomymised,6560c4cfd080ba12b16d8282,6564c809d7ac042e2aa5418c,43179,1A,man,NA,NA,Somebody says<br><em>Beth is being kissed by Mike</em>,kiss_passive,rating_volition,"{""Q0"":6}",[0],The speaker identifies more with <br>Mike than Beth,The speaker identifies more with<br>Beth than Mike,right_to_left
null,Somebody says<br><em>Dave and Fred are fighting with each other</em>,NA,NA,NA,html-keyboard-response,21,264754,0.0-14.0-0.0,anomymised,6560c4cfd080ba12b16d8282,6564c809d7ac042e2aa5418c,43179,1A,man,NA,null,NAME1 and NAME2 are fighting with each other,fight_conjoined,sentence,NA,NA,NA,NA,NA
16631.599999964237,NA,NA,NA,NA,survey-likert-extra-labels,22,281386,0.0-14.0-1.0,anomymised,6560c4cfd080ba12b16d8282,6564c809d7ac042e2aa5418c,43179,1A,man,NA,NA,Somebody says<br><em>Dave and Fred are fighting with each other</em>,fight_conjoined,rating_volition,"{""Q0"":0}",[0],The speaker identifies more with <br>Dave than Fred,The speaker identifies more with<br>Fred than Dave,left_to_right
null,Somebody says<br><em>Dave is arguing with Beth</em>,NA,NA,NA,html-keyboard-response,23,283390,0.0-15.0-0.0,anomymised,6560c4cfd080ba12b16d8282,6564c809d7ac042e2aa5418c,43179,1A,man,NA,null,NAME1 is arguing with NAME2,argue_active,sentence,NA,NA,NA,NA,NA
5675.400000035763,NA,NA,NA,NA,survey-likert-extra-labels,24,289066,0.0-15.0-1.0,anomymised,6560c4cfd080ba12b16d8282,6564c809d7ac042e2aa5418c,43179,1A,man,NA,NA,Somebody says<br><em>Dave is arguing with Beth</em>,argue_active,rating_volition,"{""Q0"":6}",[0],The speaker identifies more with <br>Dave than Beth,The speaker identifies more with<br>Beth than Dave,left_to_right
null,Somebody says<br><em>Ruth and Beth are arguing with each other</em>,NA,NA,NA,html-keyboard-response,25,291072,0.0-16.0-0.0,anomymised,6560c4cfd080ba12b16d8282,6564c809d7ac042e2aa5418c,43179,1A,man,NA,null,NAME1 and NAME2 are arguing with each other,argue_conjoined,sentence,NA,NA,NA,NA,NA
6889.899999976158,NA,NA,NA,NA,survey-likert-extra-labels,26,297962,0.0-16.0-1.0,anomymised,6560c4cfd080ba12b16d8282,6564c809d7ac042e2aa5418c,43179,1A,man,NA,NA,Somebody says<br><em>Ruth and Beth are arguing with each other</em>,argue_conjoined,rating_volition,"{""Q0"":6}",[0],The speaker identifies more with <br>Beth than Ruth,The speaker identifies more with<br>Ruth than Beth,right_to_left
null,Somebody says<br><em>Luke and Ruth are flirting with each other</em>,NA,NA,NA,html-keyboard-response,27,299977,0.0-17.0-0.0,anomymised,6560c4cfd080ba12b16d8282,6564c809d7ac042e2aa5418c,43179,1A,man,NA,null,NAME1 and NAME2 are flirting with each other,flirt_conjoined,sentence,NA,NA,NA,NA,NA
12879.899999976158,NA,NA,NA,NA,survey-likert-extra-labels,28,312858,0.0-17.0-1.0,anomymised,6560c4cfd080ba12b16d8282,6564c809d7ac042e2aa5418c,43179,1A,man,NA,NA,Somebody says<br><em>Luke and Ruth are flirting with each other</em>,flirt_conjoined,rating_volition,"{""Q0"":0}",[0],The speaker identifies more with <br>Ruth than Luke,The speaker identifies more with<br>Luke than Ruth,right_to_left
null,Somebody says<br><em>Mike and Jane are kissing each other</em>,NA,NA,NA,html-keyboard-response,29,314862,0.0-18.0-0.0,anomymised,6560c4cfd080ba12b16d8282,6564c809d7ac042e2aa5418c,43179,1A,man,NA,null,NAME1 and NAME2 are kissing each other,kiss_conjoined,sentence,NA,NA,NA,NA,NA
6972.100000023842,NA,NA,NA,NA,survey-likert-extra-labels,30,321835,0.0-18.0-1.0,anomymised,6560c4cfd080ba12b16d8282,6564c809d7ac042e2aa5418c,43179,1A,man,NA,NA,Somebody says<br><em>Mike and Jane are kissing each other</em>,kiss_conjoined,rating_volition,"{""Q0"":0}",[0],The speaker identifies more with <br>Jane than Mike,The speaker identifies more with<br>Mike than Jane,right_to_left
null,Somebody says<br><em>Jane is carrying Beth,NA,NA,NA,html-keyboard-response,31,323838,0.0-19.0-0.0,anomymised,6560c4cfd080ba12b16d8282,6564c809d7ac042e2aa5418c,43179,1A,man,NA,null,W2 is carrying W4,carry,sentence,NA,NA,NA,NA,NA
9299,NA,NA,NA,NA,survey-likert-extra-labels,32,333138,0.0-19.0-1.0,anomymised,6560c4cfd080ba12b16d8282,6564c809d7ac042e2aa5418c,43179,1A,man,NA,NA,Somebody says<br><em>Jane is carrying Beth,carry,rating_volition,"{""Q0"":0}",[0],Jane is transporting Beth,Beth is transporting Jane,NA
null,Somebody says<br><em>Mike is posing for Dave,NA,NA,NA,html-keyboard-response,33,335140,0.0-20.0-0.0,anomymised,6560c4cfd080ba12b16d8282,6564c809d7ac042e2aa5418c,43179,1A,man,NA,null,M2 is posing for M4,pose,sentence,NA,NA,NA,NA,NA
9515.399999976158,NA,NA,NA,NA,survey-likert-extra-labels,34,344656,0.0-20.0-1.0,anomymised,6560c4cfd080ba12b16d8282,6564c809d7ac042e2aa5418c,43179,1A,man,NA,NA,Somebody says<br><em>Mike is posing for Dave,pose,rating_volition,"{""Q0"":0}",[0],Mike is modelling for Dave,Dave is modelling for Mike,NA
null,Somebody says<br><em>Mike is challenging Beth</em>,NA,NA,NA,html-keyboard-response,35,346664,0.0-21.0-0.0,anomymised,6560c4cfd080ba12b16d8282,6564c809d7ac042e2aa5418c,43179,1A,man,NA,null,NAME1 is challenging NAME2,challenge_active,sentence,NA,NA,NA,NA,NA
8537.299999952316,NA,NA,NA,NA,survey-likert-extra-labels,36,355202,0.0-21.0-1.0,anomymised,6560c4cfd080ba12b16d8282,6564c809d7ac042e2aa5418c,43179,1A,man,NA,NA,Somebody says<br><em>Mike is challenging Beth</em>,challenge_active,rating_volition,"{""Q0"":6}",[0],The speaker identifies more with <br>Beth than Mike,The speaker identifies more with<br>Mike than Beth,right_to_left
null,Somebody says<br><em>Fred and Beth are shouting at each other</em>,NA,NA,NA,html-keyboard-response,37,357204,0.0-22.0-0.0,anomymised,6560c4cfd080ba12b16d8282,6564c809d7ac042e2aa5418c,43179,1A,man,NA,null,NAME1 and NAME2 are shouting at each other,shout_conjoined,sentence,NA,NA,NA,NA,NA
5276,NA,NA,NA,NA,survey-likert-extra-labels,38,362481,0.0-22.0-1.0,anomymised,6560c4cfd080ba12b16d8282,6564c809d7ac042e2aa5418c,43179,1A,man,NA,NA,Somebody says<br><em>Fred and Beth are shouting at each other</em>,shout_conjoined,rating_volition,"{""Q0"":0}",[0],The speaker identifies more with <br>Beth than Fred,The speaker identifies more with<br>Fred than Beth,right_to_left
null,Somebody says<br><em>Dave is being seduced by Beth</em>,NA,NA,NA,html-keyboard-response,39,364487,0.0-23.0-0.0,anomymised,6560c4cfd080ba12b16d8282,6564c809d7ac042e2aa5418c,43179,1A,man,NA,null,NAME1 is being seduced by NAME2,seduce_passive,sentence,NA,NA,NA,NA,NA
7399.800000011921,NA,NA,NA,NA,survey-likert-extra-labels,40,371888,0.0-23.0-1.0,anomymised,6560c4cfd080ba12b16d8282,6564c809d7ac042e2aa5418c,43179,1A,man,NA,NA,Somebody says<br><em>Dave is being seduced by Beth</em>,seduce_passive,rating_volition,"{""Q0"":0}",[0],The speaker identifies more with <br>Dave than Beth,The speaker identifies more with<br>Beth than Dave,left_to_right
null,Somebody says<br><em>Kate is looking at Fred</em>,NA,NA,NA,html-keyboard-response,41,373894,0.0-24.0-0.0,anomymised,6560c4cfd080ba12b16d8282,6564c809d7ac042e2aa5418c,43179,1A,man,NA,null,NAME1 is looking at NAME2,look_active,sentence,NA,NA,NA,NA,NA
6770,NA,NA,NA,NA,survey-likert-extra-labels,42,380664,0.0-24.0-1.0,anomymised,6560c4cfd080ba12b16d8282,6564c809d7ac042e2aa5418c,43179,1A,man,NA,NA,Somebody says<br><em>Kate is looking at Fred</em>,look_active,rating_volition,"{""Q0"":0}",[0],The speaker identifies more with <br>Kate than Fred,The speaker identifies more with<br>Fred than Kate,left_to_right
null,Somebody says<br><em>Luke is talking to Kate</em>,NA,NA,NA,html-keyboard-response,43,382674,0.0-25.0-0.0,anomymised,6560c4cfd080ba12b16d8282,6564c809d7ac042e2aa5418c,43179,1A,man,NA,null,NAME1 is talking to NAME2,talk_active,sentence,NA,NA,NA,NA,NA
5583.699999988079,NA,NA,NA,NA,survey-likert-extra-labels,44,388259,0.0-25.0-1.0,anomymised,6560c4cfd080ba12b16d8282,6564c809d7ac042e2aa5418c,43179,1A,man,NA,NA,Somebody says<br><em>Luke is talking to Kate</em>,talk_active,rating_volition,"{""Q0"":0}",[0],The speaker identifies more with <br>Luke than Kate,The speaker identifies more with<br>Kate than Luke,left_to_right
null,Somebody says<br><em>Ruth is being hugged by Beth</em>,NA,NA,NA,html-keyboard-response,45,390267,0.0-26.0-0.0,anomymised,6560c4cfd080ba12b16d8282,6564c809d7ac042e2aa5418c,43179,1A,man,NA,null,NAME1 is being hugged by NAME2,hug_passive,sentence,NA,NA,NA,NA,NA
4591.399999976158,NA,NA,NA,NA,survey-likert-extra-labels,46,394860,0.0-26.0-1.0,anomymised,6560c4cfd080ba12b16d8282,6564c809d7ac042e2aa5418c,43179,1A,man,NA,NA,Somebody says<br><em>Ruth is being hugged by Beth</em>,hug_passive,rating_volition,"{""Q0"":0}",[0],The speaker identifies more with <br>Ruth than Beth,The speaker identifies more with<br>Beth than Ruth,left_to_right
null,Somebody says<br><em>Mike is being opposed by Beth</em>,NA,NA,NA,html-keyboard-response,47,396874,0.0-27.0-0.0,anomymised,6560c4cfd080ba12b16d8282,6564c809d7ac042e2aa5418c,43179,1A,man,NA,null,NAME1 is being opposed by NAME2,oppose_passive,sentence,NA,NA,NA,NA,NA
6065.300000011921,NA,NA,NA,NA,survey-likert-extra-labels,48,402940,0.0-27.0-1.0,anomymised,6560c4cfd080ba12b16d8282,6564c809d7ac042e2aa5418c,43179,1A,man,NA,NA,Somebody says<br><em>Mike is being opposed by Beth</em>,oppose_passive,rating_volition,"{""Q0"":6}",[0],The speaker identifies more with <br>Mike than Beth,The speaker identifies more with<br>Beth than Mike,left_to_right
null,Somebody says<br><em>Mike and Ruth are talking with each other</em>,NA,NA,NA,html-keyboard-response,49,404951,0.0-28.0-0.0,anomymised,6560c4cfd080ba12b16d8282,6564c809d7ac042e2aa5418c,43179,1A,man,NA,null,NAME1 and NAME2 are talking with each other,talk_conjoined,sentence,NA,NA,NA,NA,NA
5568.400000035763,NA,NA,NA,NA,survey-likert-extra-labels,50,410521,0.0-28.0-1.0,anomymised,6560c4cfd080ba12b16d8282,6564c809d7ac042e2aa5418c,43179,1A,man,NA,NA,Somebody says<br><em>Mike and Ruth are talking with each other</em>,talk_conjoined,rating_volition,"{""Q0"":6}",[0],The speaker identifies more with <br>Ruth than Mike,The speaker identifies more with<br>Mike than Ruth,right_to_left
null,Somebody says<br><em>Luke is driving Fred,NA,NA,NA,html-keyboard-response,51,412535,0.0-29.0-0.0,anomymised,6560c4cfd080ba12b16d8282,6564c809d7ac042e2aa5418c,43179,1A,man,NA,null,M1 is driving M3,drive,sentence,NA,NA,NA,NA,NA
7844.099999964237,NA,NA,NA,NA,survey-likert-extra-labels,52,420379,0.0-29.0-1.0,anomymised,6560c4cfd080ba12b16d8282,6564c809d7ac042e2aa5418c,43179,1A,man,NA,NA,Somebody says<br><em>Luke is driving Fred,drive,rating_volition,"{""Q0"":6}",[0],Luke is Fred's passenger,Fred is Luke's passenger,NA
null,Somebody says<br><em>Luke is meeting Beth</em>,NA,NA,NA,html-keyboard-response,53,422397,0.0-30.0-0.0,anomymised,6560c4cfd080ba12b16d8282,6564c809d7ac042e2aa5418c,43179,1A,man,NA,null,NAME1 is meeting NAME2,meet_active,sentence,NA,NA,NA,NA,NA
16533,NA,NA,NA,NA,survey-likert-extra-labels,54,438931,0.0-30.0-1.0,anomymised,6560c4cfd080ba12b16d8282,6564c809d7ac042e2aa5418c,43179,1A,man,NA,NA,Somebody says<br><em>Luke is meeting Beth</em>,meet_active,rating_volition,"{""Q0"":6}",[0],The speaker identifies more with <br>Beth than Luke,The speaker identifies more with<br>Luke than Beth,right_to_left
null,Somebody says<br><em>Beth is marrying Luke</em>,NA,NA,NA,html-keyboard-response,55,440945,0.0-31.0-0.0,anomymised,6560c4cfd080ba12b16d8282,6564c809d7ac042e2aa5418c,43179,1A,man,NA,null,NAME1 is marrying NAME2,marry_active,sentence,NA,NA,NA,NA,NA
4607.199999988079,NA,NA,NA,NA,survey-likert-extra-labels,56,445553,0.0-31.0-1.0,anomymised,6560c4cfd080ba12b16d8282,6564c809d7ac042e2aa5418c,43179,1A,man,NA,NA,Somebody says<br><em>Beth is marrying Luke</em>,marry_active,rating_volition,"{""Q0"":6}",[0],The speaker identifies more with <br>Luke than Beth,The speaker identifies more with<br>Beth than Luke,right_to_left
null,Somebody says<br><em>Mike is being shouted at by Kate</em>,NA,NA,NA,html-keyboard-response,57,447555,0.0-32.0-0.0,anomymised,6560c4cfd080ba12b16d8282,6564c809d7ac042e2aa5418c,43179,1A,man,NA,null,NAME1 is being shouted at by NAME2,shout_passive,sentence,NA,NA,NA,NA,NA
8931.200000047684,NA,NA,NA,NA,survey-likert-extra-labels,58,456487,0.0-32.0-1.0,anomymised,6560c4cfd080ba12b16d8282,6564c809d7ac042e2aa5418c,43179,1A,man,NA,NA,Somebody says<br><em>Mike is being shouted at by Kate</em>,shout_passive,rating_volition,"{""Q0"":0}",[0],The speaker identifies more with <br>Mike than Kate,The speaker identifies more with<br>Kate than Mike,left_to_right
null,Somebody says<br><em>Kate and Luke are meeting each other</em>,NA,NA,NA,html-keyboard-response,59,458503,0.0-33.0-0.0,anomymised,6560c4cfd080ba12b16d8282,6564c809d7ac042e2aa5418c,43179,1A,man,NA,null,NAME1 and NAME2 are meeting each other,meet_conjoined,sentence,NA,NA,NA,NA,NA
4486.399999976158,NA,NA,NA,NA,survey-likert-extra-labels,60,462991,0.0-33.0-1.0,anomymised,6560c4cfd080ba12b16d8282,6564c809d7ac042e2aa5418c,43179,1A,man,NA,NA,Somebody says<br><em>Kate and Luke are meeting each other</em>,meet_conjoined,rating_volition,"{""Q0"":6}",[0],The speaker identifies more with <br>Luke than Kate,The speaker identifies more with<br>Kate than Luke,right_to_left
null,Somebody says<br><em>Jane is teaching Dave,NA,NA,NA,html-keyboard-response,61,464995,0.0-34.0-0.0,anomymised,6560c4cfd080ba12b16d8282,6564c809d7ac042e2aa5418c,43179,1A,man,NA,null,W2 is teaching M4,teach,sentence,NA,NA,NA,NA,NA
5442.699999988079,NA,NA,NA,NA,survey-likert-extra-labels,62,470439,0.0-34.0-1.0,anomymised,6560c4cfd080ba12b16d8282,6564c809d7ac042e2aa5418c,43179,1A,man,NA,NA,Somebody says<br><em>Jane is teaching Dave,teach,rating_volition,"{""Q0"":0}",[0],Jane is educating Dave,Dave is educating Jane,NA
null,Somebody says<br><em>Jane is hugging Ruth</em>,NA,NA,NA,html-keyboard-response,63,472453,0.0-35.0-0.0,anomymised,6560c4cfd080ba12b16d8282,6564c809d7ac042e2aa5418c,43179,1A,man,NA,null,NAME1 is hugging NAME2,hug_active,sentence,NA,NA,NA,NA,NA
3102.5,NA,NA,NA,NA,survey-likert-extra-labels,64,475556,0.0-35.0-1.0,anomymised,6560c4cfd080ba12b16d8282,6564c809d7ac042e2aa5418c,43179,1A,man,NA,NA,Somebody says<br><em>Jane is hugging Ruth</em>,hug_active,rating_volition,"{""Q0"":0}",[0],The speaker identifies more with <br>Jane than Ruth,The speaker identifies more with<br>Ruth than Jane,left_to_right
null,Somebody says<br><em>Mike is reminding Beth,NA,NA,NA,html-keyboard-response,65,477563,0.0-36.0-0.0,anomymised,6560c4cfd080ba12b16d8282,6564c809d7ac042e2aa5418c,43179,1A,man,NA,null,M2 is reminding W4,remind,sentence,NA,NA,NA,NA,NA
5341,NA,NA,NA,NA,survey-likert-extra-labels,66,482905,0.0-36.0-1.0,anomymised,6560c4cfd080ba12b16d8282,6564c809d7ac042e2aa5418c,43179,1A,man,NA,NA,Somebody says<br><em>Mike is reminding Beth,remind,rating_volition,"{""Q0"":0}",[0],Mike is telling Beth again,Beth is telling Mike again,NA
null,Somebody says<br><em>Mike and Jane are touching each other</em>,NA,NA,NA,html-keyboard-response,67,484915,0.0-37.0-0.0,anomymised,6560c4cfd080ba12b16d8282,6564c809d7ac042e2aa5418c,43179,1A,man,NA,null,NAME1 and NAME2 are touching each other,touch_conjoined,sentence,NA,NA,NA,NA,NA
4123.5,NA,NA,NA,NA,survey-likert-extra-labels,68,489040,0.0-37.0-1.0,anomymised,6560c4cfd080ba12b16d8282,6564c809d7ac042e2aa5418c,43179,1A,man,NA,NA,Somebody says<br><em>Mike and Jane are touching each other</em>,touch_conjoined,rating_volition,"{""Q0"":6}",[0],The speaker identifies more with <br>Jane than Mike,The speaker identifies more with<br>Mike than Jane,right_to_left
null,Somebody says<br><em>Fred is being challenged by Jane</em>,NA,NA,NA,html-keyboard-response,69,491047,0.0-38.0-0.0,anomymised,6560c4cfd080ba12b16d8282,6564c809d7ac042e2aa5418c,43179,1A,man,NA,null,NAME1 is being challenged by NAME2,challenge_passive,sentence,NA,NA,NA,NA,NA
4801.100000023842,NA,NA,NA,NA,survey-likert-extra-labels,70,495849,0.0-38.0-1.0,anomymised,6560c4cfd080ba12b16d8282,6564c809d7ac042e2aa5418c,43179,1A,man,NA,NA,Somebody says<br><em>Fred is being challenged by Jane</em>,challenge_passive,rating_volition,"{""Q0"":0}",[0],The speaker identifies more with <br>Fred than Jane,The speaker identifies more with<br>Jane than Fred,left_to_right
null,Somebody says<br><em>Luke and Kate are marrying each other</em>,NA,NA,NA,html-keyboard-response,71,497851,0.0-39.0-0.0,anomymised,6560c4cfd080ba12b16d8282,6564c809d7ac042e2aa5418c,43179,1A,man,NA,null,NAME1 and NAME2 are marrying each other,marry_conjoined,sentence,NA,NA,NA,NA,NA
8118.799999952316,NA,NA,NA,NA,survey-likert-extra-labels,72,505965,0.0-39.0-1.0,anomymised,6560c4cfd080ba12b16d8282,6564c809d7ac042e2aa5418c,43179,1A,man,NA,NA,Somebody says<br><em>Luke and Kate are marrying each other</em>,marry_conjoined,rating_volition,"{""Q0"":0}",[0],The speaker identifies more with <br>Kate than Luke,The speaker identifies more with<br>Luke than Kate,right_to_left
null,Somebody says<br><em>Ruth and Fred are dancing with each other</em>,NA,NA,NA,html-keyboard-response,73,507974,0.0-40.0-0.0,anomymised,6560c4cfd080ba12b16d8282,6564c809d7ac042e2aa5418c,43179,1A,man,NA,null,NAME1 and NAME2 are dancing with each other,dance_conjoined,sentence,NA,NA,NA,NA,NA
3166.099999964237,NA,NA,NA,NA,survey-likert-extra-labels,74,511141,0.0-40.0-1.0,anomymised,6560c4cfd080ba12b16d8282,6564c809d7ac042e2aa5418c,43179,1A,man,NA,NA,Somebody says<br><em>Ruth and Fred are dancing with each other</em>,dance_conjoined,rating_volition,"{""Q0"":0}",[0],The speaker identifies more with <br>Ruth than Fred,The speaker identifies more with<br>Fred than Ruth,left_to_right
null,Somebody says<br><em>Dave and Kate are playing with each other</em>,NA,NA,NA,html-keyboard-response,75,513145,0.0-41.0-0.0,anomymised,6560c4cfd080ba12b16d8282,6564c809d7ac042e2aa5418c,43179,1A,man,NA,null,NAME1 and NAME2 are playing with each other,play_conjoined,sentence,NA,NA,NA,NA,NA
13059.799999952316,NA,NA,NA,NA,survey-likert-extra-labels,76,526205,0.0-41.0-1.0,anomymised,6560c4cfd080ba12b16d8282,6564c809d7ac042e2aa5418c,43179,1A,man,NA,NA,Somebody says<br><em>Dave and Kate are playing with each other</em>,play_conjoined,rating_volition,"{""Q0"":6}",[0],The speaker identifies more with <br>Kate than Dave,The speaker identifies more with<br>Dave than Kate,right_to_left
null,Somebody says<br><em>Fred is playing with Dave</em>,NA,NA,NA,html-keyboard-response,77,528212,0.0-42.0-0.0,anomymised,6560c4cfd080ba12b16d8282,6564c809d7ac042e2aa5418c,43179,1A,man,NA,null,NAME1 is playing with NAME2,play_active,sentence,NA,NA,NA,NA,NA
5675.699999988079,NA,NA,NA,NA,survey-likert-extra-labels,78,533888,0.0-42.0-1.0,anomymised,6560c4cfd080ba12b16d8282,6564c809d7ac042e2aa5418c,43179,1A,man,NA,NA,Somebody says<br><em>Fred is playing with Dave</em>,play_active,rating_volition,"{""Q0"":6}",[0],The speaker identifies more with <br>Dave than Fred,The speaker identifies more with<br>Fred than Dave,right_to_left
null,Somebody says<br><em>Ruth is seducing Dave</em>,NA,NA,NA,html-keyboard-response,79,535893,0.0-43.0-0.0,anomymised,6560c4cfd080ba12b16d8282,6564c809d7ac042e2aa5418c,43179,1A,man,NA,null,NAME1 is seducing NAME2,seduce_active,sentence,NA,NA,NA,NA,NA
5157.300000011921,NA,NA,NA,NA,survey-likert-extra-labels,80,541051,0.0-43.0-1.0,anomymised,6560c4cfd080ba12b16d8282,6564c809d7ac042e2aa5418c,43179,1A,man,NA,NA,Somebody says<br><em>Ruth is seducing Dave</em>,seduce_active,rating_volition,"{""Q0"":6}",[0],The speaker identifies more with <br>Dave than Ruth,The speaker identifies more with<br>Ruth than Dave,right_to_left
null,Somebody says<br><em>Kate is feeding Luke,NA,NA,NA,html-keyboard-response,81,543071,0.0-44.0-0.0,anomymised,6560c4cfd080ba12b16d8282,6564c809d7ac042e2aa5418c,43179,1A,man,NA,null,W3 is feeding M1,feed,sentence,NA,NA,NA,NA,NA
4399.199999988079,NA,NA,NA,NA,survey-likert-extra-labels,82,547471,0.0-44.0-1.0,anomymised,6560c4cfd080ba12b16d8282,6564c809d7ac042e2aa5418c,43179,1A,man,NA,NA,Somebody says<br><em>Kate is feeding Luke,feed,rating_volition,"{""Q0"":0}",[0],Kate cooked for Luke,Luke cooked for Kate,NA
null,Somebody says<br><em>Jane is shouting at Dave</em>,NA,NA,NA,html-keyboard-response,83,549483,0.0-45.0-0.0,anomymised,6560c4cfd080ba12b16d8282,6564c809d7ac042e2aa5418c,43179,1A,man,NA,null,NAME1 is shouting at NAME2,shout_active,sentence,NA,NA,NA,NA,NA
9531.899999976158,NA,NA,NA,NA,survey-likert-extra-labels,84,559016,0.0-45.0-1.0,anomymised,6560c4cfd080ba12b16d8282,6564c809d7ac042e2aa5418c,43179,1A,man,NA,NA,Somebody says<br><em>Jane is shouting at Dave</em>,shout_active,rating_volition,"{""Q0"":0}",[0],The speaker identifies more with <br>Jane than Dave,The speaker identifies more with<br>Dave than Jane,left_to_right
null,Somebody says<br><em>Jane is greeting Kate</em>,NA,NA,NA,html-keyboard-response,85,561034,0.0-46.0-0.0,anomymised,6560c4cfd080ba12b16d8282,6564c809d7ac042e2aa5418c,43179,1A,man,NA,null,NAME1 is greeting NAME2,greet_active,sentence,NA,NA,NA,NA,NA
8412,NA,NA,NA,NA,survey-likert-extra-labels,86,569447,0.0-46.0-1.0,anomymised,6560c4cfd080ba12b16d8282,6564c809d7ac042e2aa5418c,43179,1A,man,NA,NA,Somebody says<br><em>Jane is greeting Kate</em>,greet_active,rating_volition,"{""Q0"":0}",[0],The speaker identifies more with <br>Jane than Kate,The speaker identifies more with<br>Kate than Jane,left_to_right
null,Somebody says<br><em>Beth is fighting with Mike</em>,NA,NA,NA,html-keyboard-response,87,571457,0.0-47.0-0.0,anomymised,6560c4cfd080ba12b16d8282,6564c809d7ac042e2aa5418c,43179,1A,man,NA,null,NAME1 is fighting with NAME2,fight_active,sentence,NA,NA,NA,NA,NA
3944.899999976158,NA,NA,NA,NA,survey-likert-extra-labels,88,575403,0.0-47.0-1.0,anomymised,6560c4cfd080ba12b16d8282,6564c809d7ac042e2aa5418c,43179,1A,man,NA,NA,Somebody says<br><em>Beth is fighting with Mike</em>,fight_active,rating_volition,"{""Q0"":6}",[0],The speaker identifies more with <br>Mike than Beth,The speaker identifies more with<br>Beth than Mike,right_to_left
null,Somebody says<br><em>Mike is being looked at by Luke</em>,NA,NA,NA,html-keyboard-response,89,577412,0.0-48.0-0.0,anomymised,6560c4cfd080ba12b16d8282,6564c809d7ac042e2aa5418c,43179,1A,man,NA,null,NAME1 is being looked at by NAME2,look_passive,sentence,NA,NA,NA,NA,NA
7162.400000035763,NA,NA,NA,NA,survey-likert-extra-labels,90,584576,0.0-48.0-1.0,anomymised,6560c4cfd080ba12b16d8282,6564c809d7ac042e2aa5418c,43179,1A,man,NA,NA,Somebody says<br><em>Mike is being looked at by Luke</em>,look_passive,rating_volition,"{""Q0"":6}",[0],The speaker identifies more with <br>Luke than Mike,The speaker identifies more with<br>Mike than Luke,right_to_left
null,Somebody says<br><em>Dave is dancing with Mike</em>,NA,NA,NA,html-keyboard-response,91,586578,0.0-49.0-0.0,anomymised,6560c4cfd080ba12b16d8282,6564c809d7ac042e2aa5418c,43179,1A,man,NA,null,NAME1 is dancing with NAME2,dance_active,sentence,NA,NA,NA,NA,NA
3602.399999976158,NA,NA,NA,NA,survey-likert-extra-labels,92,590182,0.0-49.0-1.0,anomymised,6560c4cfd080ba12b16d8282,6564c809d7ac042e2aa5418c,43179,1A,man,NA,NA,Somebody says<br><em>Dave is dancing with Mike</em>,dance_active,rating_volition,"{""Q0"":0}",[0],The speaker identifies more with <br>Dave than Mike,The speaker identifies more with<br>Mike than Dave,left_to_right
null,Somebody says<br><em>Beth is shouting at Dave</em>,NA,NA,NA,html-keyboard-response,93,592183,0.0-50.0-0.0,anomymised,6560c4cfd080ba12b16d8282,6564c809d7ac042e2aa5418c,43179,1A,man,NA,null,NAME1 is shouting at NAME2,shout_active,sentence,NA,NA,NA,NA,NA
5058.099999964237,NA,NA,NA,NA,survey-likert-extra-labels,94,597242,0.0-50.0-1.0,anomymised,6560c4cfd080ba12b16d8282,6564c809d7ac042e2aa5418c,43179,1A,man,NA,NA,Somebody says<br><em>Beth is shouting at Dave</em>,shout_active,rating_volition,"{""Q0"":0}",[0],The speaker identifies more with <br>Beth than Dave,The speaker identifies more with<br>Dave than Beth,left_to_right
null,Somebody says<br><em>Dave is flirting with Beth</em>,NA,NA,NA,html-keyboard-response,95,599263,0.0-51.0-0.0,anomymised,6560c4cfd080ba12b16d8282,6564c809d7ac042e2aa5418c,43179,1A,man,NA,null,NAME1 is flirting with NAME2,flirt_active,sentence,NA,NA,NA,NA,NA
5865.900000035763,NA,NA,NA,NA,survey-likert-extra-labels,96,605129,0.0-51.0-1.0,anomymised,6560c4cfd080ba12b16d8282,6564c809d7ac042e2aa5418c,43179,1A,man,NA,NA,Somebody says<br><em>Dave is flirting with Beth</em>,flirt_active,rating_volition,"{""Q0"":0}",[0],The speaker identifies more with <br>Beth than Dave,The speaker identifies more with<br>Dave than Beth,right_to_left
null,Somebody says<br><em>Kate and Fred are hugging each other</em>,NA,NA,NA,html-keyboard-response,97,607140,0.0-52.0-0.0,anomymised,6560c4cfd080ba12b16d8282,6564c809d7ac042e2aa5418c,43179,1A,man,NA,null,NAME1 and NAME2 are hugging each other,hug_conjoined,sentence,NA,NA,NA,NA,NA
5717.899999976158,NA,NA,NA,NA,survey-likert-extra-labels,98,612859,0.0-52.0-1.0,anomymised,6560c4cfd080ba12b16d8282,6564c809d7ac042e2aa5418c,43179,1A,man,NA,NA,Somebody says<br><em>Kate and Fred are hugging each other</em>,hug_conjoined,rating_volition,"{""Q0"":6}",[0],The speaker identifies more with <br>Fred than Kate,The speaker identifies more with<br>Kate than Fred,right_to_left
null,Somebody says<br><em>Kate is opposing Mike</em>,NA,NA,NA,html-keyboard-response,99,614868,0.0-53.0-0.0,anomymised,6560c4cfd080ba12b16d8282,6564c809d7ac042e2aa5418c,43179,1A,man,NA,null,NAME1 is opposing NAME2,oppose_active,sentence,NA,NA,NA,NA,NA
3680.600000023842,NA,NA,NA,NA,survey-likert-extra-labels,100,618550,0.0-53.0-1.0,anomymised,6560c4cfd080ba12b16d8282,6564c809d7ac042e2aa5418c,43179,1A,man,NA,NA,Somebody says<br><em>Kate is opposing Mike</em>,oppose_active,rating_volition,"{""Q0"":0}",[0],The speaker identifies more with <br>Kate than Mike,The speaker identifies more with<br>Mike than Kate,left_to_right
null,Somebody says<br><em>Jane is touching Mike</em>,NA,NA,NA,html-keyboard-response,101,620555,0.0-54.0-0.0,anomymised,6560c4cfd080ba12b16d8282,6564c809d7ac042e2aa5418c,43179,1A,man,NA,null,NAME1 is touching NAME2,touch_active,sentence,NA,NA,NA,NA,NA
4861.199999988079,NA,NA,NA,NA,survey-likert-extra-labels,102,625417,0.0-54.0-1.0,anomymised,6560c4cfd080ba12b16d8282,6564c809d7ac042e2aa5418c,43179,1A,man,NA,NA,Somebody says<br><em>Jane is touching Mike</em>,touch_active,rating_volition,"{""Q0"":0}",[0],The speaker identifies more with <br>Jane than Mike,The speaker identifies more with<br>Mike than Jane,left_to_right
null,Somebody says<br><em>Luke is kissing Beth</em>,NA,NA,NA,html-keyboard-response,103,627435,0.0-55.0-0.0,anomymised,6560c4cfd080ba12b16d8282,6564c809d7ac042e2aa5418c,43179,1A,man,NA,null,NAME1 is kissing NAME2,kiss_active,sentence,NA,NA,NA,NA,NA
3604.900000035763,NA,NA,NA,NA,survey-likert-extra-labels,104,631041,0.0-55.0-1.0,anomymised,6560c4cfd080ba12b16d8282,6564c809d7ac042e2aa5418c,43179,1A,man,NA,NA,Somebody says<br><em>Luke is kissing Beth</em>,kiss_active,rating_volition,"{""Q0"":0}",[0],The speaker identifies more with <br>Luke than Beth,The speaker identifies more with<br>Beth than Luke,left_to_right
3060.5,<p>Thank you for completing that task.</p><p>The final part of this session is a short questionnaire.</p><p>Press Continue.</p>,0,Continue,Continue,html-button-response,105,634102,0.0-56.0,anomymised,6560c4cfd080ba12b16d8282,6564c809d7ac042e2aa5418c,43179,1A,man,NA,NA,NA,NA,NA,NA,NA,NA,NA,NA
29467.100000023842,NA,NA,NA,NA,survey-text,106,664578,0.0-57.0,anomymised,6560c4cfd080ba12b16d8282,6564c809d7ac042e2aa5418c,43179,1A,man,NA,NA,NA,NA,demographics,"{""Q0"":""35"",""Q1"":""English"",""Q2"":""English"",""Q3"":""UK"",""Q4"":""British"",""Q5"":""White"",""Q6"":""Male""}",NA,NA,NA,NA
5909.399999976158,<p>This is the last question - thank you for taking part! Have you lived in the UK for the last 5 years or more?</p>,0,"Yes,No",Yes,html-button-response,107,670488,0.0-58.0,anomymised,6560c4cfd080ba12b16d8282,6564c809d7ac042e2aa5418c,43179,1A,man,NA,NA,NA,NA,fiveyears,NA,NA,NA,NA,NA
