rt,stimulus,button_pressed,choices,ChosenStimulus,trial_type,trial_index,time_elapsed,internal_node_id,subject_id,study_id,session_id,subject,list,ppt_gender,url,key_press,sentence_type,verb,test_part,responses,question_order,left_part,right_part,name_order
2751.0999999996275,Welcome to the experiment. Press Continue to begin.,0,Continue,Continue,html-button-response,0,2771,0.0-0.0,anomymised,6560c4cfd080ba12b16d8282,6564c8884db0a70f4dc1df91,44372,1A,man,NA,NA,NA,NA,NA,NA,NA,NA,NA,NA
30927.099999999627,NA,NA,NA,NA,external-html,1,34830,0.0-1.0,anomymised,6560c4cfd080ba12b16d8282,6564c8884db0a70f4dc1df91,44372,1A,man,consent.html,NA,NA,NA,NA,NA,NA,NA,NA,NA
34228.90000000037,"<p>Welcome.</p><p>In this experiment we will ask you to imagine people's motivations for saying sentences.</p><p>Each trial will begin with a sentence that somebody might say to describe an event involving two different people.</p><p>For instance, someone might say <em>Harry is being recruited by Molly</em></p><p>We want you to think about which of those two people (Molly and Harry) the speaker identifies more with. For instance, why did the speaker say <em>Harry is being recruited by Molly</em> rather than <em> Molly is recruiting Harry</em>? Might that mean that the speaker is socially closer to one of the two characters?</p><p>After you have read the sentence, you will rate on a scale which of the two characters the speaker identifies more with.</p><p>You will give your answer by clicking a button on a rating scale.</p><p>Sometimes there will also be catch questions designed to make sure that you are paying attention, which ask about a different topic.</p><p>To do this task, you will have to use your imagination to think about and visualise the events, and how the speaker might relate to the characters.</p><br><p>Ready?</p>",0,Continue,Continue,html-button-response,2,69068,0.0-2.0,anomymised,6560c4cfd080ba12b16d8282,6564c8884db0a70f4dc1df91,44372,1A,man,NA,NA,NA,NA,NA,NA,NA,NA,NA,NA
3874.4000000003725,"<p>Before the experiment starts, we will show you an example of how you will answer the questions. Press 'Continue'.</p>",0,Continue,Continue,html-button-response,3,73953,0.0-3.0,anomymised,6560c4cfd080ba12b16d8282,6564c8884db0a70f4dc1df91,44372,1A,man,NA,NA,NA,NA,NA,NA,NA,NA,NA,NA
null,Somebody says <br><em>Samuel is dining with Frank</em>,NA,NA,NA,html-keyboard-response,4,76973,0.0-4.0,anomymised,6560c4cfd080ba12b16d8282,6564c8884db0a70f4dc1df91,44372,1A,man,NA,null,NA,NA,NA,NA,NA,NA,NA,NA
39270.199999999255,<img src='img/Example-trial.jpg' style='height:550px;''></img>,0,Continue,Continue,html-button-response,5,116257,0.0-5.0,anomymised,6560c4cfd080ba12b16d8282,6564c8884db0a70f4dc1df91,44372,1A,man,NA,NA,NA,NA,NA,NA,NA,NA,NA,NA
3602.4000000003725,<p>Ready to start the experiment?</p><br><p><strong>Remember to give an answer by clicking a button on the rating scale.</strong></p><p>Press 'Continue' to begin.</p>,0,Continue,Continue,html-button-response,6,120869,0.0-6.0,anomymised,6560c4cfd080ba12b16d8282,6564c8884db0a70f4dc1df91,44372,1A,man,NA,NA,NA,NA,NA,NA,NA,NA,NA,NA
null,Somebody says<br><em>Jane is playing with Ruth</em>,NA,NA,NA,html-keyboard-response,7,123893,0.0-7.0-0.0,anomymised,6560c4cfd080ba12b16d8282,6564c8884db0a70f4dc1df91,44372,1A,man,NA,null,NAME1 is playing with NAME2,play_active,sentence,NA,NA,NA,NA,NA
18643,NA,NA,NA,NA,survey-likert-extra-labels,8,142557,0.0-7.0-1.0,anomymised,6560c4cfd080ba12b16d8282,6564c8884db0a70f4dc1df91,44372,1A,man,NA,NA,Somebody says<br><em>Jane is playing with Ruth</em>,play_active,rating_volition,"{""Q0"":4}",[0],The speaker identifies more with <br>Jane than Ruth,The speaker identifies more with<br>Ruth than Jane,left_to_right
null,Somebody says<br><em>Fred is hiring Ruth,NA,NA,NA,html-keyboard-response,9,144565,0.0-8.0-0.0,anomymised,6560c4cfd080ba12b16d8282,6564c8884db0a70f4dc1df91,44372,1A,man,NA,null,M3 is hiring W1,hire,sentence,NA,NA,NA,NA,NA
8526.599999999627,NA,NA,NA,NA,survey-likert-extra-labels,10,153105,0.0-8.0-1.0,anomymised,6560c4cfd080ba12b16d8282,6564c8884db0a70f4dc1df91,44372,1A,man,NA,NA,Somebody says<br><em>Fred is hiring Ruth,hire,rating_volition,"{""Q0"":2}",[0],Fred is employing Ruth,Ruth is employing Fred,NA
null,Somebody says<br><em>Ruth and Jane are meeting each other</em>,NA,NA,NA,html-keyboard-response,11,155116,0.0-9.0-0.0,anomymised,6560c4cfd080ba12b16d8282,6564c8884db0a70f4dc1df91,44372,1A,man,NA,null,NAME1 and NAME2 are meeting each other,meet_conjoined,sentence,NA,NA,NA,NA,NA
6718.60000000149,NA,NA,NA,NA,survey-likert-extra-labels,12,161848,0.0-9.0-1.0,anomymised,6560c4cfd080ba12b16d8282,6564c8884db0a70f4dc1df91,44372,1A,man,NA,NA,Somebody says<br><em>Ruth and Jane are meeting each other</em>,meet_conjoined,rating_volition,"{""Q0"":3}",[0],The speaker identifies more with <br>Jane than Ruth,The speaker identifies more with<br>Ruth than Jane,right_to_left
null,Somebody says<br><em>Kate is being kissed by Jane</em>,NA,NA,NA,html-keyboard-response,13,163860,0.0-10.0-0.0,anomymised,6560c4cfd080ba12b16d8282,6564c8884db0a70f4dc1df91,44372,1A,man,NA,null,NAME1 is being kissed by NAME2,kiss_passive,sentence,NA,NA,NA,NA,NA
20509.5,NA,NA,NA,NA,survey-likert-extra-labels,14,184381,0.0-10.0-1.0,anomymised,6560c4cfd080ba12b16d8282,6564c8884db0a70f4dc1df91,44372,1A,man,NA,NA,Somebody says<br><em>Kate is being kissed by Jane</em>,kiss_passive,rating_volition,"{""Q0"":2}",[0],The speaker identifies more with <br>Kate than Jane,The speaker identifies more with<br>Jane than Kate,left_to_right
null,Somebody says<br><em>Beth is being shouted at by Mike</em>,NA,NA,NA,html-keyboard-response,15,186389,0.0-11.0-0.0,anomymised,6560c4cfd080ba12b16d8282,6564c8884db0a70f4dc1df91,44372,1A,man,NA,null,NAME1 is being shouted at by NAME2,shout_passive,sentence,NA,NA,NA,NA,NA
5981.5999999996275,NA,NA,NA,NA,survey-likert-extra-labels,16,192384,0.0-11.0-1.0,anomymised,6560c4cfd080ba12b16d8282,6564c8884db0a70f4dc1df91,44372,1A,man,NA,NA,Somebody says<br><em>Beth is being shouted at by Mike</em>,shout_passive,rating_volition,"{""Q0"":4}",[0],The speaker identifies more with <br>Mike than Beth,The speaker identifies more with<br>Beth than Mike,right_to_left
null,Somebody says<br><em>Ruth is shouting at Dave</em>,NA,NA,NA,html-keyboard-response,17,194391,0.0-12.0-0.0,anomymised,6560c4cfd080ba12b16d8282,6564c8884db0a70f4dc1df91,44372,1A,man,NA,null,NAME1 is shouting at NAME2,shout_active,sentence,NA,NA,NA,NA,NA
19759.900000000373,NA,NA,NA,NA,survey-likert-extra-labels,18,214166,0.0-12.0-1.0,anomymised,6560c4cfd080ba12b16d8282,6564c8884db0a70f4dc1df91,44372,1A,man,NA,NA,Somebody says<br><em>Ruth is shouting at Dave</em>,shout_active,rating_volition,"{""Q0"":3}",[0],The speaker identifies more with <br>Dave than Ruth,The speaker identifies more with<br>Ruth than Dave,right_to_left
null,Somebody says<br><em>Beth is arguing with Kate</em>,NA,NA,NA,html-keyboard-response,19,216175,0.0-13.0-0.0,anomymised,6560c4cfd080ba12b16d8282,6564c8884db0a70f4dc1df91,44372,1A,man,NA,null,NAME1 is arguing with NAME2,argue_active,sentence,NA,NA,NA,NA,NA
16380.700000001118,NA,NA,NA,NA,survey-likert-extra-labels,20,232568,0.0-13.0-1.0,anomymised,6560c4cfd080ba12b16d8282,6564c8884db0a70f4dc1df91,44372,1A,man,NA,NA,Somebody says<br><em>Beth is arguing with Kate</em>,argue_active,rating_volition,"{""Q0"":2}",[0],The speaker identifies more with <br>Kate than Beth,The speaker identifies more with<br>Beth than Kate,right_to_left
null,Somebody says<br><em>Fred is talking to Luke</em>,NA,NA,NA,html-keyboard-response,21,234579,0.0-14.0-0.0,anomymised,6560c4cfd080ba12b16d8282,6564c8884db0a70f4dc1df91,44372,1A,man,NA,null,NAME1 is talking to NAME2,talk_active,sentence,NA,NA,NA,NA,NA
4674.699999999255,NA,NA,NA,NA,survey-likert-extra-labels,22,239266,0.0-14.0-1.0,anomymised,6560c4cfd080ba12b16d8282,6564c8884db0a70f4dc1df91,44372,1A,man,NA,NA,Somebody says<br><em>Fred is talking to Luke</em>,talk_active,rating_volition,"{""Q0"":2}",[0],The speaker identifies more with <br>Fred than Luke,The speaker identifies more with<br>Luke than Fred,left_to_right
null,Somebody says<br><em>Dave and Fred are arguing with each other</em>,NA,NA,NA,html-keyboard-response,23,241277,0.0-15.0-0.0,anomymised,6560c4cfd080ba12b16d8282,6564c8884db0a70f4dc1df91,44372,1A,man,NA,null,NAME1 and NAME2 are arguing with each other,argue_conjoined,sentence,NA,NA,NA,NA,NA
3331,NA,NA,NA,NA,survey-likert-extra-labels,24,244621,0.0-15.0-1.0,anomymised,6560c4cfd080ba12b16d8282,6564c8884db0a70f4dc1df91,44372,1A,man,NA,NA,Somebody says<br><em>Dave and Fred are arguing with each other</em>,argue_conjoined,rating_volition,"{""Q0"":3}",[0],The speaker identifies more with <br>Dave than Fred,The speaker identifies more with<br>Fred than Dave,left_to_right
null,Somebody says<br><em>Fred is being opposed by Mike</em>,NA,NA,NA,html-keyboard-response,25,246631,0.0-16.0-0.0,anomymised,6560c4cfd080ba12b16d8282,6564c8884db0a70f4dc1df91,44372,1A,man,NA,null,NAME1 is being opposed by NAME2,oppose_passive,sentence,NA,NA,NA,NA,NA
5518.199999999255,NA,NA,NA,NA,survey-likert-extra-labels,26,252163,0.0-16.0-1.0,anomymised,6560c4cfd080ba12b16d8282,6564c8884db0a70f4dc1df91,44372,1A,man,NA,NA,Somebody says<br><em>Fred is being opposed by Mike</em>,oppose_passive,rating_volition,"{""Q0"":4}",[0],The speaker identifies more with <br>Mike than Fred,The speaker identifies more with<br>Fred than Mike,right_to_left
null,Somebody says<br><em>Ruth is dancing with Fred</em>,NA,NA,NA,html-keyboard-response,27,254173,0.0-17.0-0.0,anomymised,6560c4cfd080ba12b16d8282,6564c8884db0a70f4dc1df91,44372,1A,man,NA,null,NAME1 is dancing with NAME2,dance_active,sentence,NA,NA,NA,NA,NA
4416.0999999996275,NA,NA,NA,NA,survey-likert-extra-labels,28,258599,0.0-17.0-1.0,anomymised,6560c4cfd080ba12b16d8282,6564c8884db0a70f4dc1df91,44372,1A,man,NA,NA,Somebody says<br><em>Ruth is dancing with Fred</em>,dance_active,rating_volition,"{""Q0"":4}",[0],The speaker identifies more with <br>Fred than Ruth,The speaker identifies more with<br>Ruth than Fred,right_to_left
null,Somebody says<br><em>Dave is touching Ruth</em>,NA,NA,NA,html-keyboard-response,29,260605,0.0-18.0-0.0,anomymised,6560c4cfd080ba12b16d8282,6564c8884db0a70f4dc1df91,44372,1A,man,NA,null,NAME1 is touching NAME2,touch_active,sentence,NA,NA,NA,NA,NA
10916.699999999255,NA,NA,NA,NA,survey-likert-extra-labels,30,271535,0.0-18.0-1.0,anomymised,6560c4cfd080ba12b16d8282,6564c8884db0a70f4dc1df91,44372,1A,man,NA,NA,Somebody says<br><em>Dave is touching Ruth</em>,touch_active,rating_volition,"{""Q0"":2}",[0],The speaker identifies more with <br>Ruth than Dave,The speaker identifies more with<br>Dave than Ruth,right_to_left
null,Somebody says<br><em>Fred is kissing Kate</em>,NA,NA,NA,html-keyboard-response,31,273544,0.0-19.0-0.0,anomymised,6560c4cfd080ba12b16d8282,6564c8884db0a70f4dc1df91,44372,1A,man,NA,null,NAME1 is kissing NAME2,kiss_active,sentence,NA,NA,NA,NA,NA
3718.4000000003725,NA,NA,NA,NA,survey-likert-extra-labels,32,277278,0.0-19.0-1.0,anomymised,6560c4cfd080ba12b16d8282,6564c8884db0a70f4dc1df91,44372,1A,man,NA,NA,Somebody says<br><em>Fred is kissing Kate</em>,kiss_active,rating_volition,"{""Q0"":4}",[0],The speaker identifies more with <br>Kate than Fred,The speaker identifies more with<br>Fred than Kate,right_to_left
null,Somebody says<br><em>Mike is being challenged by Dave</em>,NA,NA,NA,html-keyboard-response,33,279287,0.0-20.0-0.0,anomymised,6560c4cfd080ba12b16d8282,6564c8884db0a70f4dc1df91,44372,1A,man,NA,null,NAME1 is being challenged by NAME2,challenge_passive,sentence,NA,NA,NA,NA,NA
11886.599999999627,NA,NA,NA,NA,survey-likert-extra-labels,34,291186,0.0-20.0-1.0,anomymised,6560c4cfd080ba12b16d8282,6564c8884db0a70f4dc1df91,44372,1A,man,NA,NA,Somebody says<br><em>Mike is being challenged by Dave</em>,challenge_passive,rating_volition,"{""Q0"":1}",[0],The speaker identifies more with <br>Mike than Dave,The speaker identifies more with<br>Dave than Mike,left_to_right
null,Somebody says<br><em>Beth and Fred are talking with each other</em>,NA,NA,NA,html-keyboard-response,35,293197,0.0-21.0-0.0,anomymised,6560c4cfd080ba12b16d8282,6564c8884db0a70f4dc1df91,44372,1A,man,NA,null,NAME1 and NAME2 are talking with each other,talk_conjoined,sentence,NA,NA,NA,NA,NA
3315.7999999988824,NA,NA,NA,NA,survey-likert-extra-labels,36,296526,0.0-21.0-1.0,anomymised,6560c4cfd080ba12b16d8282,6564c8884db0a70f4dc1df91,44372,1A,man,NA,NA,Somebody says<br><em>Beth and Fred are talking with each other</em>,talk_conjoined,rating_volition,"{""Q0"":3}",[0],The speaker identifies more with <br>Beth than Fred,The speaker identifies more with<br>Fred than Beth,left_to_right
null,Somebody says<br><em>Ruth is being greeted by Jane</em>,NA,NA,NA,html-keyboard-response,37,298537,0.0-22.0-0.0,anomymised,6560c4cfd080ba12b16d8282,6564c8884db0a70f4dc1df91,44372,1A,man,NA,null,NAME1 is being greeted by NAME2,greet_passive,sentence,NA,NA,NA,NA,NA
8845.700000001118,NA,NA,NA,NA,survey-likert-extra-labels,38,307397,0.0-22.0-1.0,anomymised,6560c4cfd080ba12b16d8282,6564c8884db0a70f4dc1df91,44372,1A,man,NA,NA,Somebody says<br><em>Ruth is being greeted by Jane</em>,greet_passive,rating_volition,"{""Q0"":4}",[0],The speaker identifies more with <br>Jane than Ruth,The speaker identifies more with<br>Ruth than Jane,right_to_left
null,Somebody says<br><em>Mike and Fred are fighting with each other</em>,NA,NA,NA,html-keyboard-response,39,309407,0.0-23.0-0.0,anomymised,6560c4cfd080ba12b16d8282,6564c8884db0a70f4dc1df91,44372,1A,man,NA,null,NAME1 and NAME2 are fighting with each other,fight_conjoined,sentence,NA,NA,NA,NA,NA
5517.700000001118,NA,NA,NA,NA,survey-likert-extra-labels,40,314939,0.0-23.0-1.0,anomymised,6560c4cfd080ba12b16d8282,6564c8884db0a70f4dc1df91,44372,1A,man,NA,NA,Somebody says<br><em>Mike and Fred are fighting with each other</em>,fight_conjoined,rating_volition,"{""Q0"":3}",[0],The speaker identifies more with <br>Mike than Fred,The speaker identifies more with<br>Fred than Mike,left_to_right
null,Somebody says<br><em>Dave is challenging Fred</em>,NA,NA,NA,html-keyboard-response,41,316949,0.0-24.0-0.0,anomymised,6560c4cfd080ba12b16d8282,6564c8884db0a70f4dc1df91,44372,1A,man,NA,null,NAME1 is challenging NAME2,challenge_active,sentence,NA,NA,NA,NA,NA
4785.300000000745,NA,NA,NA,NA,survey-likert-extra-labels,42,321748,0.0-24.0-1.0,anomymised,6560c4cfd080ba12b16d8282,6564c8884db0a70f4dc1df91,44372,1A,man,NA,NA,Somebody says<br><em>Dave is challenging Fred</em>,challenge_active,rating_volition,"{""Q0"":4}",[0],The speaker identifies more with <br>Fred than Dave,The speaker identifies more with<br>Dave than Fred,right_to_left
null,Somebody says<br><em>Beth is fighting with Jane</em>,NA,NA,NA,html-keyboard-response,43,323760,0.0-25.0-0.0,anomymised,6560c4cfd080ba12b16d8282,6564c8884db0a70f4dc1df91,44372,1A,man,NA,null,NAME1 is fighting with NAME2,fight_active,sentence,NA,NA,NA,NA,NA
14009.5,NA,NA,NA,NA,survey-likert-extra-labels,44,337782,0.0-25.0-1.0,anomymised,6560c4cfd080ba12b16d8282,6564c8884db0a70f4dc1df91,44372,1A,man,NA,NA,Somebody says<br><em>Beth is fighting with Jane</em>,fight_active,rating_volition,"{""Q0"":3}",[0],The speaker identifies more with <br>Beth than Jane,The speaker identifies more with<br>Jane than Beth,left_to_right
null,Somebody says<br><em>Kate is shouting at Jane</em>,NA,NA,NA,html-keyboard-response,45,339793,0.0-26.0-0.0,anomymised,6560c4cfd080ba12b16d8282,6564c8884db0a70f4dc1df91,44372,1A,man,NA,null,NAME1 is shouting at NAME2,shout_active,sentence,NA,NA,NA,NA,NA
24221.200000001118,NA,NA,NA,NA,survey-likert-extra-labels,46,364026,0.0-26.0-1.0,anomymised,6560c4cfd080ba12b16d8282,6564c8884db0a70f4dc1df91,44372,1A,man,NA,NA,Somebody says<br><em>Kate is shouting at Jane</em>,shout_active,rating_volition,"{""Q0"":3}",[0],The speaker identifies more with <br>Jane than Kate,The speaker identifies more with<br>Kate than Jane,right_to_left
null,Somebody says<br><em>Mike is marrying Fred</em>,NA,NA,NA,html-keyboard-response,47,366036,0.0-27.0-0.0,anomymised,6560c4cfd080ba12b16d8282,6564c8884db0a70f4dc1df91,44372,1A,man,NA,null,NAME1 is marrying NAME2,marry_active,sentence,NA,NA,NA,NA,NA
5706.9000000003725,NA,NA,NA,NA,survey-likert-extra-labels,48,371751,0.0-27.0-1.0,anomymised,6560c4cfd080ba12b16d8282,6564c8884db0a70f4dc1df91,44372,1A,man,NA,NA,Somebody says<br><em>Mike is marrying Fred</em>,marry_active,rating_volition,"{""Q0"":4}",[0],The speaker identifies more with <br>Fred than Mike,The speaker identifies more with<br>Mike than Fred,right_to_left
null,Somebody says<br><em>Kate is feeding Luke,NA,NA,NA,html-keyboard-response,49,373762,0.0-28.0-0.0,anomymised,6560c4cfd080ba12b16d8282,6564c8884db0a70f4dc1df91,44372,1A,man,NA,null,W3 is feeding M1,feed,sentence,NA,NA,NA,NA,NA
6332.300000000745,NA,NA,NA,NA,survey-likert-extra-labels,50,380107,0.0-28.0-1.0,anomymised,6560c4cfd080ba12b16d8282,6564c8884db0a70f4dc1df91,44372,1A,man,NA,NA,Somebody says<br><em>Kate is feeding Luke,feed,rating_volition,"{""Q0"":2}",[0],Kate cooked for Luke,Luke cooked for Kate,NA
null,Somebody says<br><em>Mike is hugging Jane</em>,NA,NA,NA,html-keyboard-response,51,382118,0.0-29.0-0.0,anomymised,6560c4cfd080ba12b16d8282,6564c8884db0a70f4dc1df91,44372,1A,man,NA,null,NAME1 is hugging NAME2,hug_active,sentence,NA,NA,NA,NA,NA
13133.60000000149,NA,NA,NA,NA,survey-likert-extra-labels,52,395264,0.0-29.0-1.0,anomymised,6560c4cfd080ba12b16d8282,6564c8884db0a70f4dc1df91,44372,1A,man,NA,NA,Somebody says<br><em>Mike is hugging Jane</em>,hug_active,rating_volition,"{""Q0"":3}",[0],The speaker identifies more with <br>Jane than Mike,The speaker identifies more with<br>Mike than Jane,right_to_left
null,Somebody says<br><em>Luke is seducing Kate</em>,NA,NA,NA,html-keyboard-response,53,397274,0.0-30.0-0.0,anomymised,6560c4cfd080ba12b16d8282,6564c8884db0a70f4dc1df91,44372,1A,man,NA,null,NAME1 is seducing NAME2,seduce_active,sentence,NA,NA,NA,NA,NA
13817.39999999851,NA,NA,NA,NA,survey-likert-extra-labels,54,411107,0.0-30.0-1.0,anomymised,6560c4cfd080ba12b16d8282,6564c8884db0a70f4dc1df91,44372,1A,man,NA,NA,Somebody says<br><em>Luke is seducing Kate</em>,seduce_active,rating_volition,"{""Q0"":2}",[0],The speaker identifies more with <br>Kate than Luke,The speaker identifies more with<br>Luke than Kate,right_to_left
null,Somebody says<br><em>Dave and Jane are playing with each other</em>,NA,NA,NA,html-keyboard-response,55,413118,0.0-31.0-0.0,anomymised,6560c4cfd080ba12b16d8282,6564c8884db0a70f4dc1df91,44372,1A,man,NA,null,NAME1 and NAME2 are playing with each other,play_conjoined,sentence,NA,NA,NA,NA,NA
2946.7000000011176,NA,NA,NA,NA,survey-likert-extra-labels,56,416077,0.0-31.0-1.0,anomymised,6560c4cfd080ba12b16d8282,6564c8884db0a70f4dc1df91,44372,1A,man,NA,NA,Somebody says<br><em>Dave and Jane are playing with each other</em>,play_conjoined,rating_volition,"{""Q0"":3}",[0],The speaker identifies more with <br>Dave than Jane,The speaker identifies more with<br>Jane than Dave,left_to_right
null,Somebody says<br><em>Ruth is being seduced by Beth</em>,NA,NA,NA,html-keyboard-response,57,418088,0.0-32.0-0.0,anomymised,6560c4cfd080ba12b16d8282,6564c8884db0a70f4dc1df91,44372,1A,man,NA,null,NAME1 is being seduced by NAME2,seduce_passive,sentence,NA,NA,NA,NA,NA
6464,NA,NA,NA,NA,survey-likert-extra-labels,58,424564,0.0-32.0-1.0,anomymised,6560c4cfd080ba12b16d8282,6564c8884db0a70f4dc1df91,44372,1A,man,NA,NA,Somebody says<br><em>Ruth is being seduced by Beth</em>,seduce_passive,rating_volition,"{""Q0"":2}",[0],The speaker identifies more with <br>Ruth than Beth,The speaker identifies more with<br>Beth than Ruth,left_to_right
null,Somebody says<br><em>Dave and Ruth are dancing with each other</em>,NA,NA,NA,html-keyboard-response,59,426575,0.0-33.0-0.0,anomymised,6560c4cfd080ba12b16d8282,6564c8884db0a70f4dc1df91,44372,1A,man,NA,null,NAME1 and NAME2 are dancing with each other,dance_conjoined,sentence,NA,NA,NA,NA,NA
2397.0999999996275,NA,NA,NA,NA,survey-likert-extra-labels,60,428987,0.0-33.0-1.0,anomymised,6560c4cfd080ba12b16d8282,6564c8884db0a70f4dc1df91,44372,1A,man,NA,NA,Somebody says<br><em>Dave and Ruth are dancing with each other</em>,dance_conjoined,rating_volition,"{""Q0"":3}",[0],The speaker identifies more with <br>Ruth than Dave,The speaker identifies more with<br>Dave than Ruth,right_to_left
null,Somebody says<br><em>Mike is being copied by Ruth</em>,NA,NA,NA,html-keyboard-response,61,430998,0.0-34.0-0.0,anomymised,6560c4cfd080ba12b16d8282,6564c8884db0a70f4dc1df91,44372,1A,man,NA,null,NAME1 is being copied by NAME2,copy_passive,sentence,NA,NA,NA,NA,NA
6130.0999999996275,NA,NA,NA,NA,survey-likert-extra-labels,62,437141,0.0-34.0-1.0,anomymised,6560c4cfd080ba12b16d8282,6564c8884db0a70f4dc1df91,44372,1A,man,NA,NA,Somebody says<br><em>Mike is being copied by Ruth</em>,copy_passive,rating_volition,"{""Q0"":2}",[0],The speaker identifies more with <br>Mike than Ruth,The speaker identifies more with<br>Ruth than Mike,left_to_right
null,Somebody says<br><em>Jane is opposing Mike</em>,NA,NA,NA,html-keyboard-response,63,439151,0.0-35.0-0.0,anomymised,6560c4cfd080ba12b16d8282,6564c8884db0a70f4dc1df91,44372,1A,man,NA,null,NAME1 is opposing NAME2,oppose_active,sentence,NA,NA,NA,NA,NA
3702.2999999988824,NA,NA,NA,NA,survey-likert-extra-labels,64,442865,0.0-35.0-1.0,anomymised,6560c4cfd080ba12b16d8282,6564c8884db0a70f4dc1df91,44372,1A,man,NA,NA,Somebody says<br><em>Jane is opposing Mike</em>,oppose_active,rating_volition,"{""Q0"":4}",[0],The speaker identifies more with <br>Mike than Jane,The speaker identifies more with<br>Jane than Mike,right_to_left
null,Somebody says<br><em>Dave and Ruth are kissing each other</em>,NA,NA,NA,html-keyboard-response,65,444874,0.0-36.0-0.0,anomymised,6560c4cfd080ba12b16d8282,6564c8884db0a70f4dc1df91,44372,1A,man,NA,null,NAME1 and NAME2 are kissing each other,kiss_conjoined,sentence,NA,NA,NA,NA,NA
2626.5999999996275,NA,NA,NA,NA,survey-likert-extra-labels,66,447510,0.0-36.0-1.0,anomymised,6560c4cfd080ba12b16d8282,6564c8884db0a70f4dc1df91,44372,1A,man,NA,NA,Somebody says<br><em>Dave and Ruth are kissing each other</em>,kiss_conjoined,rating_volition,"{""Q0"":3}",[0],The speaker identifies more with <br>Dave than Ruth,The speaker identifies more with<br>Ruth than Dave,left_to_right
null,Somebody says<br><em>Mike is meeting Fred</em>,NA,NA,NA,html-keyboard-response,67,449520,0.0-37.0-0.0,anomymised,6560c4cfd080ba12b16d8282,6564c8884db0a70f4dc1df91,44372,1A,man,NA,null,NAME1 is meeting NAME2,meet_active,sentence,NA,NA,NA,NA,NA
4349.5,NA,NA,NA,NA,survey-likert-extra-labels,68,453878,0.0-37.0-1.0,anomymised,6560c4cfd080ba12b16d8282,6564c8884db0a70f4dc1df91,44372,1A,man,NA,NA,Somebody says<br><em>Mike is meeting Fred</em>,meet_active,rating_volition,"{""Q0"":2}",[0],The speaker identifies more with <br>Mike than Fred,The speaker identifies more with<br>Fred than Mike,left_to_right
null,Somebody says<br><em>Luke and Ruth are flirting with each other</em>,NA,NA,NA,html-keyboard-response,69,455890,0.0-38.0-0.0,anomymised,6560c4cfd080ba12b16d8282,6564c8884db0a70f4dc1df91,44372,1A,man,NA,null,NAME1 and NAME2 are flirting with each other,flirt_conjoined,sentence,NA,NA,NA,NA,NA
2399.0999999996275,NA,NA,NA,NA,survey-likert-extra-labels,70,458302,0.0-38.0-1.0,anomymised,6560c4cfd080ba12b16d8282,6564c8884db0a70f4dc1df91,44372,1A,man,NA,NA,Somebody says<br><em>Luke and Ruth are flirting with each other</em>,flirt_conjoined,rating_volition,"{""Q0"":3}",[0],The speaker identifies more with <br>Luke than Ruth,The speaker identifies more with<br>Ruth than Luke,left_to_right
null,Somebody says<br><em>Fred is being hugged by Jane</em>,NA,NA,NA,html-keyboard-response,71,460311,0.0-39.0-0.0,anomymised,6560c4cfd080ba12b16d8282,6564c8884db0a70f4dc1df91,44372,1A,man,NA,null,NAME1 is being hugged by NAME2,hug_passive,sentence,NA,NA,NA,NA,NA
5233.4000000003725,NA,NA,NA,NA,survey-likert-extra-labels,72,465556,0.0-39.0-1.0,anomymised,6560c4cfd080ba12b16d8282,6564c8884db0a70f4dc1df91,44372,1A,man,NA,NA,Somebody says<br><em>Fred is being hugged by Jane</em>,hug_passive,rating_volition,"{""Q0"":4}",[0],The speaker identifies more with <br>Jane than Fred,The speaker identifies more with<br>Fred than Jane,right_to_left
null,Somebody says<br><em>Jane is teaching Dave,NA,NA,NA,html-keyboard-response,73,467566,0.0-40.0-0.0,anomymised,6560c4cfd080ba12b16d8282,6564c8884db0a70f4dc1df91,44372,1A,man,NA,null,W2 is teaching M4,teach,sentence,NA,NA,NA,NA,NA
4744.9000000003725,NA,NA,NA,NA,survey-likert-extra-labels,74,472323,0.0-40.0-1.0,anomymised,6560c4cfd080ba12b16d8282,6564c8884db0a70f4dc1df91,44372,1A,man,NA,NA,Somebody says<br><em>Jane is teaching Dave,teach,rating_volition,"{""Q0"":2}",[0],Jane is educating Dave,Dave is educating Jane,NA
null,Somebody says<br><em>Luke is driving Fred,NA,NA,NA,html-keyboard-response,75,474333,0.0-41.0-0.0,anomymised,6560c4cfd080ba12b16d8282,6564c8884db0a70f4dc1df91,44372,1A,man,NA,null,M1 is driving M3,drive,sentence,NA,NA,NA,NA,NA
4525.9000000003725,NA,NA,NA,NA,survey-likert-extra-labels,76,478871,0.0-41.0-1.0,anomymised,6560c4cfd080ba12b16d8282,6564c8884db0a70f4dc1df91,44372,1A,man,NA,NA,Somebody says<br><em>Luke is driving Fred,drive,rating_volition,"{""Q0"":2}",[0],Luke is Fred's passenger,Fred is Luke's passenger,NA
null,Somebody says<br><em>Ruth is chasing Kate,NA,NA,NA,html-keyboard-response,77,480880,0.0-42.0-0.0,anomymised,6560c4cfd080ba12b16d8282,6564c8884db0a70f4dc1df91,44372,1A,man,NA,null,W1 is chasing W3,chase,sentence,NA,NA,NA,NA,NA
9525.699999999255,NA,NA,NA,NA,survey-likert-extra-labels,78,490417,0.0-42.0-1.0,anomymised,6560c4cfd080ba12b16d8282,6564c8884db0a70f4dc1df91,44372,1A,man,NA,NA,Somebody says<br><em>Ruth is chasing Kate,chase,rating_volition,"{""Q0"":3}",[0],Ruth is behind Kate,Kate is behind Ruth,NA
null,Somebody says<br><em>Fred is being touched by Kate</em>,NA,NA,NA,html-keyboard-response,79,492428,0.0-43.0-0.0,anomymised,6560c4cfd080ba12b16d8282,6564c8884db0a70f4dc1df91,44372,1A,man,NA,null,NAME1 is being touched by NAME2,touch_passive,sentence,NA,NA,NA,NA,NA
3774.199999999255,NA,NA,NA,NA,survey-likert-extra-labels,80,496215,0.0-43.0-1.0,anomymised,6560c4cfd080ba12b16d8282,6564c8884db0a70f4dc1df91,44372,1A,man,NA,NA,Somebody says<br><em>Fred is being touched by Kate</em>,touch_passive,rating_volition,"{""Q0"":4}",[0],The speaker identifies more with <br>Kate than Fred,The speaker identifies more with<br>Fred than Kate,right_to_left
null,Somebody says<br><em>Fred is copying Ruth</em>,NA,NA,NA,html-keyboard-response,81,498224,0.0-44.0-0.0,anomymised,6560c4cfd080ba12b16d8282,6564c8884db0a70f4dc1df91,44372,1A,man,NA,null,NAME1 is copying NAME2,copy_active,sentence,NA,NA,NA,NA,NA
11096.699999999255,NA,NA,NA,NA,survey-likert-extra-labels,82,509333,0.0-44.0-1.0,anomymised,6560c4cfd080ba12b16d8282,6564c8884db0a70f4dc1df91,44372,1A,man,NA,NA,Somebody says<br><em>Fred is copying Ruth</em>,copy_active,rating_volition,"{""Q0"":3}",[0],The speaker identifies more with <br>Fred than Ruth,The speaker identifies more with<br>Ruth than Fred,left_to_right
null,Somebody says<br><em>Mike is posing for Dave,NA,NA,NA,html-keyboard-response,83,511342,0.0-45.0-0.0,anomymised,6560c4cfd080ba12b16d8282,6564c8884db0a70f4dc1df91,44372,1A,man,NA,null,M2 is posing for M4,pose,sentence,NA,NA,NA,NA,NA
14275.5,NA,NA,NA,NA,survey-likert-extra-labels,84,525630,0.0-45.0-1.0,anomymised,6560c4cfd080ba12b16d8282,6564c8884db0a70f4dc1df91,44372,1A,man,NA,NA,Somebody says<br><em>Mike is posing for Dave,pose,rating_volition,"{""Q0"":0}",[0],Mike is modelling for Dave,Dave is modelling for Mike,NA
null,Somebody says<br><em>Jane and Ruth are shouting at each other</em>,NA,NA,NA,html-keyboard-response,85,527639,0.0-46.0-0.0,anomymised,6560c4cfd080ba12b16d8282,6564c8884db0a70f4dc1df91,44372,1A,man,NA,null,NAME1 and NAME2 are shouting at each other,shout_conjoined,sentence,NA,NA,NA,NA,NA
2354.5999999996275,NA,NA,NA,NA,survey-likert-extra-labels,86,530007,0.0-46.0-1.0,anomymised,6560c4cfd080ba12b16d8282,6564c8884db0a70f4dc1df91,44372,1A,man,NA,NA,Somebody says<br><em>Jane and Ruth are shouting at each other</em>,shout_conjoined,rating_volition,"{""Q0"":3}",[0],The speaker identifies more with <br>Jane than Ruth,The speaker identifies more with<br>Ruth than Jane,left_to_right
null,Somebody says<br><em>Ruth and Kate are marrying each other</em>,NA,NA,NA,html-keyboard-response,87,532018,0.0-47.0-0.0,anomymised,6560c4cfd080ba12b16d8282,6564c8884db0a70f4dc1df91,44372,1A,man,NA,null,NAME1 and NAME2 are marrying each other,marry_conjoined,sentence,NA,NA,NA,NA,NA
11185.900000000373,NA,NA,NA,NA,survey-likert-extra-labels,88,543218,0.0-47.0-1.0,anomymised,6560c4cfd080ba12b16d8282,6564c8884db0a70f4dc1df91,44372,1A,man,NA,NA,Somebody says<br><em>Ruth and Kate are marrying each other</em>,marry_conjoined,rating_volition,"{""Q0"":2}",[0],The speaker identifies more with <br>Ruth than Kate,The speaker identifies more with<br>Kate than Ruth,left_to_right
null,Somebody says<br><em>Jane is greeting Luke</em>,NA,NA,NA,html-keyboard-response,89,545227,0.0-48.0-0.0,anomymised,6560c4cfd080ba12b16d8282,6564c8884db0a70f4dc1df91,44372,1A,man,NA,null,NAME1 is greeting NAME2,greet_active,sentence,NA,NA,NA,NA,NA
3878.7000000011176,NA,NA,NA,NA,survey-likert-extra-labels,90,549118,0.0-48.0-1.0,anomymised,6560c4cfd080ba12b16d8282,6564c8884db0a70f4dc1df91,44372,1A,man,NA,NA,Somebody says<br><em>Jane is greeting Luke</em>,greet_active,rating_volition,"{""Q0"":2}",[0],The speaker identifies more with <br>Jane than Luke,The speaker identifies more with<br>Luke than Jane,left_to_right
null,Somebody says<br><em>Mike and Fred are hugging each other</em>,NA,NA,NA,html-keyboard-response,91,551127,0.0-49.0-0.0,anomymised,6560c4cfd080ba12b16d8282,6564c8884db0a70f4dc1df91,44372,1A,man,NA,null,NAME1 and NAME2 are hugging each other,hug_conjoined,sentence,NA,NA,NA,NA,NA
2472.7999999988824,NA,NA,NA,NA,survey-likert-extra-labels,92,553611,0.0-49.0-1.0,anomymised,6560c4cfd080ba12b16d8282,6564c8884db0a70f4dc1df91,44372,1A,man,NA,NA,Somebody says<br><em>Mike and Fred are hugging each other</em>,hug_conjoined,rating_volition,"{""Q0"":3}",[0],The speaker identifies more with <br>Mike than Fred,The speaker identifies more with<br>Fred than Mike,left_to_right
null,Somebody says<br><em>Mike is reminding Beth,NA,NA,NA,html-keyboard-response,93,555621,0.0-50.0-0.0,anomymised,6560c4cfd080ba12b16d8282,6564c8884db0a70f4dc1df91,44372,1A,man,NA,null,M2 is reminding W4,remind,sentence,NA,NA,NA,NA,NA
28265.39999999851,NA,NA,NA,NA,survey-likert-extra-labels,94,583899,0.0-50.0-1.0,anomymised,6560c4cfd080ba12b16d8282,6564c8884db0a70f4dc1df91,44372,1A,man,NA,NA,Somebody says<br><em>Mike is reminding Beth,remind,rating_volition,"{""Q0"":3}",[0],Mike is telling Beth again,Beth is telling Mike again,NA
null,Somebody says<br><em>Mike is flirting with Fred</em>,NA,NA,NA,html-keyboard-response,95,585906,0.0-51.0-0.0,anomymised,6560c4cfd080ba12b16d8282,6564c8884db0a70f4dc1df91,44372,1A,man,NA,null,NAME1 is flirting with NAME2,flirt_active,sentence,NA,NA,NA,NA,NA
5129.5999999996275,NA,NA,NA,NA,survey-likert-extra-labels,96,591047,0.0-51.0-1.0,anomymised,6560c4cfd080ba12b16d8282,6564c8884db0a70f4dc1df91,44372,1A,man,NA,NA,Somebody says<br><em>Mike is flirting with Fred</em>,flirt_active,rating_volition,"{""Q0"":2}",[0],The speaker identifies more with <br>Mike than Fred,The speaker identifies more with<br>Fred than Mike,left_to_right
null,Somebody says<br><em>Jane is being looked at by Kate</em>,NA,NA,NA,html-keyboard-response,97,593059,0.0-52.0-0.0,anomymised,6560c4cfd080ba12b16d8282,6564c8884db0a70f4dc1df91,44372,1A,man,NA,null,NAME1 is being looked at by NAME2,look_passive,sentence,NA,NA,NA,NA,NA
7140.60000000149,NA,NA,NA,NA,survey-likert-extra-labels,98,600213,0.0-52.0-1.0,anomymised,6560c4cfd080ba12b16d8282,6564c8884db0a70f4dc1df91,44372,1A,man,NA,NA,Somebody says<br><em>Jane is being looked at by Kate</em>,look_passive,rating_volition,"{""Q0"":1}",[0],The speaker identifies more with <br>Jane than Kate,The speaker identifies more with<br>Kate than Jane,left_to_right
null,Somebody says<br><em>Jane is carrying Beth,NA,NA,NA,html-keyboard-response,99,602222,0.0-53.0-0.0,anomymised,6560c4cfd080ba12b16d8282,6564c8884db0a70f4dc1df91,44372,1A,man,NA,null,W2 is carrying W4,carry,sentence,NA,NA,NA,NA,NA
4983.5999999996275,NA,NA,NA,NA,survey-likert-extra-labels,100,607219,0.0-53.0-1.0,anomymised,6560c4cfd080ba12b16d8282,6564c8884db0a70f4dc1df91,44372,1A,man,NA,NA,Somebody says<br><em>Jane is carrying Beth,carry,rating_volition,"{""Q0"":2}",[0],Jane is transporting Beth,Beth is transporting Jane,NA
null,Somebody says<br><em>Mike is looking at Dave</em>,NA,NA,NA,html-keyboard-response,101,609229,0.0-54.0-0.0,anomymised,6560c4cfd080ba12b16d8282,6564c8884db0a70f4dc1df91,44372,1A,man,NA,null,NAME1 is looking at NAME2,look_active,sentence,NA,NA,NA,NA,NA
4893,NA,NA,NA,NA,survey-likert-extra-labels,102,614134,0.0-54.0-1.0,anomymised,6560c4cfd080ba12b16d8282,6564c8884db0a70f4dc1df91,44372,1A,man,NA,NA,Somebody says<br><em>Mike is looking at Dave</em>,look_active,rating_volition,"{""Q0"":2}",[0],The speaker identifies more with <br>Mike than Dave,The speaker identifies more with<br>Dave than Mike,left_to_right
null,Somebody says<br><em>Beth and Kate are touching each other</em>,NA,NA,NA,html-keyboard-response,103,616141,0.0-55.0-0.0,anomymised,6560c4cfd080ba12b16d8282,6564c8884db0a70f4dc1df91,44372,1A,man,NA,null,NAME1 and NAME2 are touching each other,touch_conjoined,sentence,NA,NA,NA,NA,NA
2237.199999999255,NA,NA,NA,NA,survey-likert-extra-labels,104,618387,0.0-55.0-1.0,anomymised,6560c4cfd080ba12b16d8282,6564c8884db0a70f4dc1df91,44372,1A,man,NA,NA,Somebody says<br><em>Beth and Kate are touching each other</em>,touch_conjoined,rating_volition,"{""Q0"":3}",[0],The speaker identifies more with <br>Beth than Kate,The speaker identifies more with<br>Kate than Beth,left_to_right
3239.60000000149,<p>Thank you for completing that task.</p><p>The final part of this session is a short questionnaire.</p><p>Press Continue.</p>,0,Continue,Continue,html-button-response,105,621637,0.0-56.0,anomymised,6560c4cfd080ba12b16d8282,6564c8884db0a70f4dc1df91,44372,1A,man,NA,NA,NA,NA,NA,NA,NA,NA,NA,NA
81448,NA,NA,NA,NA,survey-text,106,704161,0.0-57.0,anomymised,6560c4cfd080ba12b16d8282,6564c8884db0a70f4dc1df91,44372,1A,man,NA,NA,NA,NA,demographics,"{""Q0"":""66"",""Q1"":""English "",""Q2"":""English "",""Q3"":""Uk"",""Q4"":""British "",""Q5"":""Caucasian "",""Q6"":""Male""}",NA,NA,NA,NA
4269.0999999996275,<p>This is the last question - thank you for taking part! Have you lived in the UK for the last 5 years or more?</p>,0,"Yes,No",Yes,html-button-response,107,708440,0.0-58.0,anomymised,6560c4cfd080ba12b16d8282,6564c8884db0a70f4dc1df91,44372,1A,man,NA,NA,NA,NA,fiveyears,NA,NA,NA,NA,NA
