rt,stimulus,button_pressed,choices,ChosenStimulus,trial_type,trial_index,time_elapsed,internal_node_id,subject_id,study_id,session_id,subject,list,ppt_gender,url,key_press,sentence_type,verb,test_part,responses,question_order,left_part,right_part,name_order
5291.5,Welcome to the experiment. Press Continue to begin.,0,Continue,Continue,html-button-response,0,5294,0.0-0.0,anomymised,6564584152624795c40b73cb,65645f4a3a2ef3521cdfec16,44423,1A,woman,NA,NA,NA,NA,NA,NA,NA,NA,NA,NA
5819.899999856949,NA,NA,NA,NA,external-html,1,12278,0.0-1.0,anomymised,6564584152624795c40b73cb,65645f4a3a2ef3521cdfec16,44423,1A,woman,consent.html,NA,NA,NA,NA,NA,NA,NA,NA,NA
39015,"<p>Welcome.</p><p>In this experiment we will ask you to imagine people's motivations for saying sentences.</p><p>Each trial will begin with a sentence that somebody might say to describe an event involving two different people.</p><p>For instance, someone might say <em>Harry is being recruited by Molly</em></p><p>We want you to think about which of those two people (Molly and Harry) the speaker identifies more with. For instance, why did the speaker say <em>Harry is being recruited by Molly</em> rather than <em> Molly is recruiting Harry</em>? Might that mean that the speaker is socially closer to one of the two characters?</p><p>After you have read the sentence, you will rate on a scale which of the two characters the speaker identifies more with.</p><p>You will give your answer by clicking a button on a rating scale.</p><p>Sometimes there will also be catch questions designed to make sure that you are paying attention, which ask about a different topic.</p><p>To do this task, you will have to use your imagination to think about and visualise the events, and how the speaker might relate to the characters.</p><br><p>Ready?</p>",0,Continue,Continue,html-button-response,2,51295,0.0-2.0,anomymised,6564584152624795c40b73cb,65645f4a3a2ef3521cdfec16,44423,1A,woman,NA,NA,NA,NA,NA,NA,NA,NA,NA,NA
5422,"<p>Before the experiment starts, we will show you an example of how you will answer the questions. Press 'Continue'.</p>",0,Continue,Continue,html-button-response,3,57724,0.0-3.0,anomymised,6564584152624795c40b73cb,65645f4a3a2ef3521cdfec16,44423,1A,woman,NA,NA,NA,NA,NA,NA,NA,NA,NA,NA
null,Somebody says <br><em>Samuel is dining with Frank</em>,NA,NA,NA,html-keyboard-response,4,60732,0.0-4.0,anomymised,6564584152624795c40b73cb,65645f4a3a2ef3521cdfec16,44423,1A,woman,NA,null,NA,NA,NA,NA,NA,NA,NA,NA
11173.599999904633,<img src='img/Example-trial.jpg' style='height:550px;''></img>,0,Continue,Continue,html-button-response,5,71907,0.0-5.0,anomymised,6564584152624795c40b73cb,65645f4a3a2ef3521cdfec16,44423,1A,woman,NA,NA,NA,NA,NA,NA,NA,NA,NA,NA
1724,<p>Ready to start the experiment?</p><br><p><strong>Remember to give an answer by clicking a button on the rating scale.</strong></p><p>Press 'Continue' to begin.</p>,0,Continue,Continue,html-button-response,6,74636,0.0-6.0,anomymised,6564584152624795c40b73cb,65645f4a3a2ef3521cdfec16,44423,1A,woman,NA,NA,NA,NA,NA,NA,NA,NA,NA,NA
null,Somebody says<br><em>Luke is driving Fred,NA,NA,NA,html-keyboard-response,7,77646,0.0-7.0-0.0,anomymised,6564584152624795c40b73cb,65645f4a3a2ef3521cdfec16,44423,1A,woman,NA,null,M1 is driving M3,drive,sentence,NA,NA,NA,NA,NA
17019.39999985695,NA,NA,NA,NA,survey-likert-extra-labels,8,94669,0.0-7.0-1.0,anomymised,6564584152624795c40b73cb,65645f4a3a2ef3521cdfec16,44423,1A,woman,NA,NA,Somebody says<br><em>Luke is driving Fred,drive,rating_volition,"{""Q0"":6}",[0],Luke is Fred's passenger,Fred is Luke's passenger,NA
null,Somebody says<br><em>Fred is seducing Beth</em>,NA,NA,NA,html-keyboard-response,9,96670,0.0-8.0-0.0,anomymised,6564584152624795c40b73cb,65645f4a3a2ef3521cdfec16,44423,1A,woman,NA,null,NAME1 is seducing NAME2,seduce_active,sentence,NA,NA,NA,NA,NA
11054.700000047684,NA,NA,NA,NA,survey-likert-extra-labels,10,107727,0.0-8.0-1.0,anomymised,6564584152624795c40b73cb,65645f4a3a2ef3521cdfec16,44423,1A,woman,NA,NA,Somebody says<br><em>Fred is seducing Beth</em>,seduce_active,rating_volition,"{""Q0"":5}",[0],The speaker identifies more with <br>Beth than Fred,The speaker identifies more with<br>Fred than Beth,right_to_left
null,Somebody says<br><em>Dave and Jane are arguing with each other</em>,NA,NA,NA,html-keyboard-response,11,109731,0.0-9.0-0.0,anomymised,6564584152624795c40b73cb,65645f4a3a2ef3521cdfec16,44423,1A,woman,NA,null,NAME1 and NAME2 are arguing with each other,argue_conjoined,sentence,NA,NA,NA,NA,NA
5229.099999904633,NA,NA,NA,NA,survey-likert-extra-labels,12,114962,0.0-9.0-1.0,anomymised,6564584152624795c40b73cb,65645f4a3a2ef3521cdfec16,44423,1A,woman,NA,NA,Somebody says<br><em>Dave and Jane are arguing with each other</em>,argue_conjoined,rating_volition,"{""Q0"":3}",[0],The speaker identifies more with <br>Dave than Jane,The speaker identifies more with<br>Jane than Dave,left_to_right
null,Somebody says<br><em>Jane is kissing Dave</em>,NA,NA,NA,html-keyboard-response,13,116967,0.0-10.0-0.0,anomymised,6564584152624795c40b73cb,65645f4a3a2ef3521cdfec16,44423,1A,woman,NA,null,NAME1 is kissing NAME2,kiss_active,sentence,NA,NA,NA,NA,NA
7437.799999952316,NA,NA,NA,NA,survey-likert-extra-labels,14,124408,0.0-10.0-1.0,anomymised,6564584152624795c40b73cb,65645f4a3a2ef3521cdfec16,44423,1A,woman,NA,NA,Somebody says<br><em>Jane is kissing Dave</em>,kiss_active,rating_volition,"{""Q0"":1}",[0],The speaker identifies more with <br>Jane than Dave,The speaker identifies more with<br>Dave than Jane,left_to_right
null,Somebody says<br><em>Jane is meeting Mike</em>,NA,NA,NA,html-keyboard-response,15,126411,0.0-11.0-0.0,anomymised,6564584152624795c40b73cb,65645f4a3a2ef3521cdfec16,44423,1A,woman,NA,null,NAME1 is meeting NAME2,meet_active,sentence,NA,NA,NA,NA,NA
18669.10000014305,NA,NA,NA,NA,survey-likert-extra-labels,16,145082,0.0-11.0-1.0,anomymised,6564584152624795c40b73cb,65645f4a3a2ef3521cdfec16,44423,1A,woman,NA,NA,Somebody says<br><em>Jane is meeting Mike</em>,meet_active,rating_volition,"{""Q0"":4}",[0],The speaker identifies more with <br>Jane than Mike,The speaker identifies more with<br>Mike than Jane,left_to_right
null,Somebody says<br><em>Kate is dancing with Dave</em>,NA,NA,NA,html-keyboard-response,17,147085,0.0-12.0-0.0,anomymised,6564584152624795c40b73cb,65645f4a3a2ef3521cdfec16,44423,1A,woman,NA,null,NAME1 is dancing with NAME2,dance_active,sentence,NA,NA,NA,NA,NA
4780.799999952316,NA,NA,NA,NA,survey-likert-extra-labels,18,151867,0.0-12.0-1.0,anomymised,6564584152624795c40b73cb,65645f4a3a2ef3521cdfec16,44423,1A,woman,NA,NA,Somebody says<br><em>Kate is dancing with Dave</em>,dance_active,rating_volition,"{""Q0"":5}",[0],The speaker identifies more with <br>Dave than Kate,The speaker identifies more with<br>Kate than Dave,right_to_left
null,Somebody says<br><em>Jane is teaching Dave,NA,NA,NA,html-keyboard-response,19,153871,0.0-13.0-0.0,anomymised,6564584152624795c40b73cb,65645f4a3a2ef3521cdfec16,44423,1A,woman,NA,null,W2 is teaching M4,teach,sentence,NA,NA,NA,NA,NA
7366.599999904633,NA,NA,NA,NA,survey-likert-extra-labels,20,161239,0.0-13.0-1.0,anomymised,6564584152624795c40b73cb,65645f4a3a2ef3521cdfec16,44423,1A,woman,NA,NA,Somebody says<br><em>Jane is teaching Dave,teach,rating_volition,"{""Q0"":0}",[0],Jane is educating Dave,Dave is educating Jane,NA
null,Somebody says<br><em>Jane and Mike are flirting with each other</em>,NA,NA,NA,html-keyboard-response,21,163245,0.0-14.0-0.0,anomymised,6564584152624795c40b73cb,65645f4a3a2ef3521cdfec16,44423,1A,woman,NA,null,NAME1 and NAME2 are flirting with each other,flirt_conjoined,sentence,NA,NA,NA,NA,NA
9151.599999904633,NA,NA,NA,NA,survey-likert-extra-labels,22,172398,0.0-14.0-1.0,anomymised,6564584152624795c40b73cb,65645f4a3a2ef3521cdfec16,44423,1A,woman,NA,NA,Somebody says<br><em>Jane and Mike are flirting with each other</em>,flirt_conjoined,rating_volition,"{""Q0"":2}",[0],The speaker identifies more with <br>Jane than Mike,The speaker identifies more with<br>Mike than Jane,left_to_right
null,Somebody says<br><em>Ruth is being copied by Jane</em>,NA,NA,NA,html-keyboard-response,23,174402,0.0-15.0-0.0,anomymised,6564584152624795c40b73cb,65645f4a3a2ef3521cdfec16,44423,1A,woman,NA,null,NAME1 is being copied by NAME2,copy_passive,sentence,NA,NA,NA,NA,NA
7597.300000190735,NA,NA,NA,NA,survey-likert-extra-labels,24,182001,0.0-15.0-1.0,anomymised,6564584152624795c40b73cb,65645f4a3a2ef3521cdfec16,44423,1A,woman,NA,NA,Somebody says<br><em>Ruth is being copied by Jane</em>,copy_passive,rating_volition,"{""Q0"":0}",[0],The speaker identifies more with <br>Ruth than Jane,The speaker identifies more with<br>Jane than Ruth,left_to_right
null,Somebody says<br><em>Dave and Fred are hugging each other</em>,NA,NA,NA,html-keyboard-response,25,184005,0.0-16.0-0.0,anomymised,6564584152624795c40b73cb,65645f4a3a2ef3521cdfec16,44423,1A,woman,NA,null,NAME1 and NAME2 are hugging each other,hug_conjoined,sentence,NA,NA,NA,NA,NA
3521.2000000476837,NA,NA,NA,NA,survey-likert-extra-labels,26,187528,0.0-16.0-1.0,anomymised,6564584152624795c40b73cb,65645f4a3a2ef3521cdfec16,44423,1A,woman,NA,NA,Somebody says<br><em>Dave and Fred are hugging each other</em>,hug_conjoined,rating_volition,"{""Q0"":3}",[0],The speaker identifies more with <br>Dave than Fred,The speaker identifies more with<br>Fred than Dave,left_to_right
null,Somebody says<br><em>Luke is being greeted by Beth</em>,NA,NA,NA,html-keyboard-response,27,189534,0.0-17.0-0.0,anomymised,6564584152624795c40b73cb,65645f4a3a2ef3521cdfec16,44423,1A,woman,NA,null,NAME1 is being greeted by NAME2,greet_passive,sentence,NA,NA,NA,NA,NA
6673.400000095367,NA,NA,NA,NA,survey-likert-extra-labels,28,196209,0.0-17.0-1.0,anomymised,6564584152624795c40b73cb,65645f4a3a2ef3521cdfec16,44423,1A,woman,NA,NA,Somebody says<br><em>Luke is being greeted by Beth</em>,greet_passive,rating_volition,"{""Q0"":4}",[0],The speaker identifies more with <br>Beth than Luke,The speaker identifies more with<br>Luke than Beth,right_to_left
null,Somebody says<br><em>Mike is posing for Dave,NA,NA,NA,html-keyboard-response,29,198214,0.0-18.0-0.0,anomymised,6564584152624795c40b73cb,65645f4a3a2ef3521cdfec16,44423,1A,woman,NA,null,M2 is posing for M4,pose,sentence,NA,NA,NA,NA,NA
8155.700000047684,NA,NA,NA,NA,survey-likert-extra-labels,30,206371,0.0-18.0-1.0,anomymised,6564584152624795c40b73cb,65645f4a3a2ef3521cdfec16,44423,1A,woman,NA,NA,Somebody says<br><em>Mike is posing for Dave,pose,rating_volition,"{""Q0"":0}",[0],Mike is modelling for Dave,Dave is modelling for Mike,NA
null,Somebody says<br><em>Fred and Beth are playing with each other</em>,NA,NA,NA,html-keyboard-response,31,208376,0.0-19.0-0.0,anomymised,6564584152624795c40b73cb,65645f4a3a2ef3521cdfec16,44423,1A,woman,NA,null,NAME1 and NAME2 are playing with each other,play_conjoined,sentence,NA,NA,NA,NA,NA
8489.300000190735,NA,NA,NA,NA,survey-likert-extra-labels,32,216867,0.0-19.0-1.0,anomymised,6564584152624795c40b73cb,65645f4a3a2ef3521cdfec16,44423,1A,woman,NA,NA,Somebody says<br><em>Fred and Beth are playing with each other</em>,play_conjoined,rating_volition,"{""Q0"":3}",[0],The speaker identifies more with <br>Beth than Fred,The speaker identifies more with<br>Fred than Beth,right_to_left
null,Somebody says<br><em>Mike is copying Dave</em>,NA,NA,NA,html-keyboard-response,33,218870,0.0-20.0-0.0,anomymised,6564584152624795c40b73cb,65645f4a3a2ef3521cdfec16,44423,1A,woman,NA,null,NAME1 is copying NAME2,copy_active,sentence,NA,NA,NA,NA,NA
7117.5,NA,NA,NA,NA,survey-likert-extra-labels,34,225989,0.0-20.0-1.0,anomymised,6564584152624795c40b73cb,65645f4a3a2ef3521cdfec16,44423,1A,woman,NA,NA,Somebody says<br><em>Mike is copying Dave</em>,copy_active,rating_volition,"{""Q0"":4}",[0],The speaker identifies more with <br>Dave than Mike,The speaker identifies more with<br>Mike than Dave,right_to_left
null,Somebody says<br><em>Mike is reminding Beth,NA,NA,NA,html-keyboard-response,35,227993,0.0-21.0-0.0,anomymised,6564584152624795c40b73cb,65645f4a3a2ef3521cdfec16,44423,1A,woman,NA,null,M2 is reminding W4,remind,sentence,NA,NA,NA,NA,NA
8432.099999904633,NA,NA,NA,NA,survey-likert-extra-labels,36,236427,0.0-21.0-1.0,anomymised,6564584152624795c40b73cb,65645f4a3a2ef3521cdfec16,44423,1A,woman,NA,NA,Somebody says<br><em>Mike is reminding Beth,remind,rating_volition,"{""Q0"":0}",[0],Mike is telling Beth again,Beth is telling Mike again,NA
null,Somebody says<br><em>Ruth is chasing Kate,NA,NA,NA,html-keyboard-response,37,238430,0.0-22.0-0.0,anomymised,6564584152624795c40b73cb,65645f4a3a2ef3521cdfec16,44423,1A,woman,NA,null,W1 is chasing W3,chase,sentence,NA,NA,NA,NA,NA
11478.699999809265,NA,NA,NA,NA,survey-likert-extra-labels,38,249910,0.0-22.0-1.0,anomymised,6564584152624795c40b73cb,65645f4a3a2ef3521cdfec16,44423,1A,woman,NA,NA,Somebody says<br><em>Ruth is chasing Kate,chase,rating_volition,"{""Q0"":0}",[0],Ruth is behind Kate,Kate is behind Ruth,NA
null,Somebody says<br><em>Dave is being seduced by Kate</em>,NA,NA,NA,html-keyboard-response,39,251917,0.0-23.0-0.0,anomymised,6564584152624795c40b73cb,65645f4a3a2ef3521cdfec16,44423,1A,woman,NA,null,NAME1 is being seduced by NAME2,seduce_passive,sentence,NA,NA,NA,NA,NA
8173.199999809265,NA,NA,NA,NA,survey-likert-extra-labels,40,260092,0.0-23.0-1.0,anomymised,6564584152624795c40b73cb,65645f4a3a2ef3521cdfec16,44423,1A,woman,NA,NA,Somebody says<br><em>Dave is being seduced by Kate</em>,seduce_passive,rating_volition,"{""Q0"":5}",[0],The speaker identifies more with <br>Kate than Dave,The speaker identifies more with<br>Dave than Kate,right_to_left
null,Somebody says<br><em>Kate is feeding Luke,NA,NA,NA,html-keyboard-response,41,262099,0.0-24.0-0.0,anomymised,6564584152624795c40b73cb,65645f4a3a2ef3521cdfec16,44423,1A,woman,NA,null,W3 is feeding M1,feed,sentence,NA,NA,NA,NA,NA
8031.099999904633,NA,NA,NA,NA,survey-likert-extra-labels,42,270132,0.0-24.0-1.0,anomymised,6564584152624795c40b73cb,65645f4a3a2ef3521cdfec16,44423,1A,woman,NA,NA,Somebody says<br><em>Kate is feeding Luke,feed,rating_volition,"{""Q0"":0}",[0],Kate cooked for Luke,Luke cooked for Kate,NA
null,Somebody says<br><em>Luke and Beth are talking with each other</em>,NA,NA,NA,html-keyboard-response,43,272135,0.0-25.0-0.0,anomymised,6564584152624795c40b73cb,65645f4a3a2ef3521cdfec16,44423,1A,woman,NA,null,NAME1 and NAME2 are talking with each other,talk_conjoined,sentence,NA,NA,NA,NA,NA
20402.299999952316,NA,NA,NA,NA,survey-likert-extra-labels,44,292539,0.0-25.0-1.0,anomymised,6564584152624795c40b73cb,65645f4a3a2ef3521cdfec16,44423,1A,woman,NA,NA,Somebody says<br><em>Luke and Beth are talking with each other</em>,talk_conjoined,rating_volition,"{""Q0"":3}",[0],The speaker identifies more with <br>Beth than Luke,The speaker identifies more with<br>Luke than Beth,right_to_left
null,Somebody says<br><em>Kate is looking at Luke</em>,NA,NA,NA,html-keyboard-response,45,294541,0.0-26.0-0.0,anomymised,6564584152624795c40b73cb,65645f4a3a2ef3521cdfec16,44423,1A,woman,NA,null,NAME1 is looking at NAME2,look_active,sentence,NA,NA,NA,NA,NA
11448.900000095367,NA,NA,NA,NA,survey-likert-extra-labels,46,305992,0.0-26.0-1.0,anomymised,6564584152624795c40b73cb,65645f4a3a2ef3521cdfec16,44423,1A,woman,NA,NA,Somebody says<br><em>Kate is looking at Luke</em>,look_active,rating_volition,"{""Q0"":4}",[0],The speaker identifies more with <br>Kate than Luke,The speaker identifies more with<br>Luke than Kate,left_to_right
null,Somebody says<br><em>Mike is playing with Ruth</em>,NA,NA,NA,html-keyboard-response,47,307997,0.0-27.0-0.0,anomymised,6564584152624795c40b73cb,65645f4a3a2ef3521cdfec16,44423,1A,woman,NA,null,NAME1 is playing with NAME2,play_active,sentence,NA,NA,NA,NA,NA
4002.7999999523163,NA,NA,NA,NA,survey-likert-extra-labels,48,312001,0.0-27.0-1.0,anomymised,6564584152624795c40b73cb,65645f4a3a2ef3521cdfec16,44423,1A,woman,NA,NA,Somebody says<br><em>Mike is playing with Ruth</em>,play_active,rating_volition,"{""Q0"":5}",[0],The speaker identifies more with <br>Ruth than Mike,The speaker identifies more with<br>Mike than Ruth,right_to_left
null,Somebody says<br><em>Luke is hugging Beth</em>,NA,NA,NA,html-keyboard-response,49,314005,0.0-28.0-0.0,anomymised,6564584152624795c40b73cb,65645f4a3a2ef3521cdfec16,44423,1A,woman,NA,null,NAME1 is hugging NAME2,hug_active,sentence,NA,NA,NA,NA,NA
4663.099999904633,NA,NA,NA,NA,survey-likert-extra-labels,50,318670,0.0-28.0-1.0,anomymised,6564584152624795c40b73cb,65645f4a3a2ef3521cdfec16,44423,1A,woman,NA,NA,Somebody says<br><em>Luke is hugging Beth</em>,hug_active,rating_volition,"{""Q0"":5}",[0],The speaker identifies more with <br>Beth than Luke,The speaker identifies more with<br>Luke than Beth,right_to_left
null,Somebody says<br><em>Jane is carrying Beth,NA,NA,NA,html-keyboard-response,51,320672,0.0-29.0-0.0,anomymised,6564584152624795c40b73cb,65645f4a3a2ef3521cdfec16,44423,1A,woman,NA,null,W2 is carrying W4,carry,sentence,NA,NA,NA,NA,NA
4231.400000095367,NA,NA,NA,NA,survey-likert-extra-labels,52,324905,0.0-29.0-1.0,anomymised,6564584152624795c40b73cb,65645f4a3a2ef3521cdfec16,44423,1A,woman,NA,NA,Somebody says<br><em>Jane is carrying Beth,carry,rating_volition,"{""Q0"":0}",[0],Jane is transporting Beth,Beth is transporting Jane,NA
null,Somebody says<br><em>Fred is being looked at by Beth</em>,NA,NA,NA,html-keyboard-response,53,326909,0.0-30.0-0.0,anomymised,6564584152624795c40b73cb,65645f4a3a2ef3521cdfec16,44423,1A,woman,NA,null,NAME1 is being looked at by NAME2,look_passive,sentence,NA,NA,NA,NA,NA
6355.400000095367,NA,NA,NA,NA,survey-likert-extra-labels,54,333266,0.0-30.0-1.0,anomymised,6564584152624795c40b73cb,65645f4a3a2ef3521cdfec16,44423,1A,woman,NA,NA,Somebody says<br><em>Fred is being looked at by Beth</em>,look_passive,rating_volition,"{""Q0"":2}",[0],The speaker identifies more with <br>Beth than Fred,The speaker identifies more with<br>Fred than Beth,right_to_left
null,Somebody says<br><em>Beth is being hugged by Jane</em>,NA,NA,NA,html-keyboard-response,55,335268,0.0-31.0-0.0,anomymised,6564584152624795c40b73cb,65645f4a3a2ef3521cdfec16,44423,1A,woman,NA,null,NAME1 is being hugged by NAME2,hug_passive,sentence,NA,NA,NA,NA,NA
5076.5,NA,NA,NA,NA,survey-likert-extra-labels,56,340347,0.0-31.0-1.0,anomymised,6564584152624795c40b73cb,65645f4a3a2ef3521cdfec16,44423,1A,woman,NA,NA,Somebody says<br><em>Beth is being hugged by Jane</em>,hug_passive,rating_volition,"{""Q0"":5}",[0],The speaker identifies more with <br>Jane than Beth,The speaker identifies more with<br>Beth than Jane,right_to_left
null,Somebody says<br><em>Luke is being shouted at by Fred</em>,NA,NA,NA,html-keyboard-response,57,342350,0.0-32.0-0.0,anomymised,6564584152624795c40b73cb,65645f4a3a2ef3521cdfec16,44423,1A,woman,NA,null,NAME1 is being shouted at by NAME2,shout_passive,sentence,NA,NA,NA,NA,NA
8017.5,NA,NA,NA,NA,survey-likert-extra-labels,58,350369,0.0-32.0-1.0,anomymised,6564584152624795c40b73cb,65645f4a3a2ef3521cdfec16,44423,1A,woman,NA,NA,Somebody says<br><em>Luke is being shouted at by Fred</em>,shout_passive,rating_volition,"{""Q0"":6}",[0],The speaker identifies more with <br>Fred than Luke,The speaker identifies more with<br>Luke than Fred,right_to_left
null,Somebody says<br><em>Beth is flirting with Kate</em>,NA,NA,NA,html-keyboard-response,59,352378,0.0-33.0-0.0,anomymised,6564584152624795c40b73cb,65645f4a3a2ef3521cdfec16,44423,1A,woman,NA,null,NAME1 is flirting with NAME2,flirt_active,sentence,NA,NA,NA,NA,NA
12082.200000047684,NA,NA,NA,NA,survey-likert-extra-labels,60,364462,0.0-33.0-1.0,anomymised,6564584152624795c40b73cb,65645f4a3a2ef3521cdfec16,44423,1A,woman,NA,NA,Somebody says<br><em>Beth is flirting with Kate</em>,flirt_active,rating_volition,"{""Q0"":4}",[0],The speaker identifies more with <br>Beth than Kate,The speaker identifies more with<br>Kate than Beth,left_to_right
null,Somebody says<br><em>Jane is talking to Beth</em>,NA,NA,NA,html-keyboard-response,61,366466,0.0-34.0-0.0,anomymised,6564584152624795c40b73cb,65645f4a3a2ef3521cdfec16,44423,1A,woman,NA,null,NAME1 is talking to NAME2,talk_active,sentence,NA,NA,NA,NA,NA
4328.700000047684,NA,NA,NA,NA,survey-likert-extra-labels,62,370796,0.0-34.0-1.0,anomymised,6564584152624795c40b73cb,65645f4a3a2ef3521cdfec16,44423,1A,woman,NA,NA,Somebody says<br><em>Jane is talking to Beth</em>,talk_active,rating_volition,"{""Q0"":4}",[0],The speaker identifies more with <br>Jane than Beth,The speaker identifies more with<br>Beth than Jane,left_to_right
null,Somebody says<br><em>Dave is challenging Beth</em>,NA,NA,NA,html-keyboard-response,63,372798,0.0-35.0-0.0,anomymised,6564584152624795c40b73cb,65645f4a3a2ef3521cdfec16,44423,1A,woman,NA,null,NAME1 is challenging NAME2,challenge_active,sentence,NA,NA,NA,NA,NA
5594,NA,NA,NA,NA,survey-likert-extra-labels,64,378393,0.0-35.0-1.0,anomymised,6564584152624795c40b73cb,65645f4a3a2ef3521cdfec16,44423,1A,woman,NA,NA,Somebody says<br><em>Dave is challenging Beth</em>,challenge_active,rating_volition,"{""Q0"":2}",[0],The speaker identifies more with <br>Dave than Beth,The speaker identifies more with<br>Beth than Dave,left_to_right
null,Somebody says<br><em>Beth is being touched by Fred</em>,NA,NA,NA,html-keyboard-response,65,380396,0.0-36.0-0.0,anomymised,6564584152624795c40b73cb,65645f4a3a2ef3521cdfec16,44423,1A,woman,NA,null,NAME1 is being touched by NAME2,touch_passive,sentence,NA,NA,NA,NA,NA
7230.399999856949,NA,NA,NA,NA,survey-likert-extra-labels,66,387627,0.0-36.0-1.0,anomymised,6564584152624795c40b73cb,65645f4a3a2ef3521cdfec16,44423,1A,woman,NA,NA,Somebody says<br><em>Beth is being touched by Fred</em>,touch_passive,rating_volition,"{""Q0"":0}",[0],The speaker identifies more with <br>Beth than Fred,The speaker identifies more with<br>Fred than Beth,left_to_right
null,Somebody says<br><em>Dave and Fred are shouting at each other</em>,NA,NA,NA,html-keyboard-response,67,389632,0.0-37.0-0.0,anomymised,6564584152624795c40b73cb,65645f4a3a2ef3521cdfec16,44423,1A,woman,NA,null,NAME1 and NAME2 are shouting at each other,shout_conjoined,sentence,NA,NA,NA,NA,NA
3561.2999999523163,NA,NA,NA,NA,survey-likert-extra-labels,68,393195,0.0-37.0-1.0,anomymised,6564584152624795c40b73cb,65645f4a3a2ef3521cdfec16,44423,1A,woman,NA,NA,Somebody says<br><em>Dave and Fred are shouting at each other</em>,shout_conjoined,rating_volition,"{""Q0"":3}",[0],The speaker identifies more with <br>Dave than Fred,The speaker identifies more with<br>Fred than Dave,left_to_right
null,Somebody says<br><em>Dave and Ruth are dancing with each other</em>,NA,NA,NA,html-keyboard-response,69,395198,0.0-38.0-0.0,anomymised,6564584152624795c40b73cb,65645f4a3a2ef3521cdfec16,44423,1A,woman,NA,null,NAME1 and NAME2 are dancing with each other,dance_conjoined,sentence,NA,NA,NA,NA,NA
5279.600000143051,NA,NA,NA,NA,survey-likert-extra-labels,70,400478,0.0-38.0-1.0,anomymised,6564584152624795c40b73cb,65645f4a3a2ef3521cdfec16,44423,1A,woman,NA,NA,Somebody says<br><em>Dave and Ruth are dancing with each other</em>,dance_conjoined,rating_volition,"{""Q0"":3}",[0],The speaker identifies more with <br>Ruth than Dave,The speaker identifies more with<br>Dave than Ruth,right_to_left
null,Somebody says<br><em>Mike is greeting Dave</em>,NA,NA,NA,html-keyboard-response,71,402485,0.0-39.0-0.0,anomymised,6564584152624795c40b73cb,65645f4a3a2ef3521cdfec16,44423,1A,woman,NA,null,NAME1 is greeting NAME2,greet_active,sentence,NA,NA,NA,NA,NA
5350.400000095367,NA,NA,NA,NA,survey-likert-extra-labels,72,407837,0.0-39.0-1.0,anomymised,6564584152624795c40b73cb,65645f4a3a2ef3521cdfec16,44423,1A,woman,NA,NA,Somebody says<br><em>Mike is greeting Dave</em>,greet_active,rating_volition,"{""Q0"":4}",[0],The speaker identifies more with <br>Dave than Mike,The speaker identifies more with<br>Mike than Dave,right_to_left
null,Somebody says<br><em>Kate and Dave are meeting each other</em>,NA,NA,NA,html-keyboard-response,73,409842,0.0-40.0-0.0,anomymised,6564584152624795c40b73cb,65645f4a3a2ef3521cdfec16,44423,1A,woman,NA,null,NAME1 and NAME2 are meeting each other,meet_conjoined,sentence,NA,NA,NA,NA,NA
8916.399999856949,NA,NA,NA,NA,survey-likert-extra-labels,74,418760,0.0-40.0-1.0,anomymised,6564584152624795c40b73cb,65645f4a3a2ef3521cdfec16,44423,1A,woman,NA,NA,Somebody says<br><em>Kate and Dave are meeting each other</em>,meet_conjoined,rating_volition,"{""Q0"":2}",[0],The speaker identifies more with <br>Kate than Dave,The speaker identifies more with<br>Dave than Kate,left_to_right
null,Somebody says<br><em>Fred is opposing Kate</em>,NA,NA,NA,html-keyboard-response,75,420764,0.0-41.0-0.0,anomymised,6564584152624795c40b73cb,65645f4a3a2ef3521cdfec16,44423,1A,woman,NA,null,NAME1 is opposing NAME2,oppose_active,sentence,NA,NA,NA,NA,NA
4738.700000047684,NA,NA,NA,NA,survey-likert-extra-labels,76,425504,0.0-41.0-1.0,anomymised,6564584152624795c40b73cb,65645f4a3a2ef3521cdfec16,44423,1A,woman,NA,NA,Somebody says<br><em>Fred is opposing Kate</em>,oppose_active,rating_volition,"{""Q0"":2}",[0],The speaker identifies more with <br>Fred than Kate,The speaker identifies more with<br>Kate than Fred,left_to_right
null,Somebody says<br><em>Kate is being kissed by Ruth</em>,NA,NA,NA,html-keyboard-response,77,427509,0.0-42.0-0.0,anomymised,6564584152624795c40b73cb,65645f4a3a2ef3521cdfec16,44423,1A,woman,NA,null,NAME1 is being kissed by NAME2,kiss_passive,sentence,NA,NA,NA,NA,NA
10152.899999856949,NA,NA,NA,NA,survey-likert-extra-labels,78,437664,0.0-42.0-1.0,anomymised,6564584152624795c40b73cb,65645f4a3a2ef3521cdfec16,44423,1A,woman,NA,NA,Somebody says<br><em>Kate is being kissed by Ruth</em>,kiss_passive,rating_volition,"{""Q0"":1}",[0],The speaker identifies more with <br>Kate than Ruth,The speaker identifies more with<br>Ruth than Kate,left_to_right
null,Somebody says<br><em>Dave is arguing with Fred</em>,NA,NA,NA,html-keyboard-response,79,439670,0.0-43.0-0.0,anomymised,6564584152624795c40b73cb,65645f4a3a2ef3521cdfec16,44423,1A,woman,NA,null,NAME1 is arguing with NAME2,argue_active,sentence,NA,NA,NA,NA,NA
29572.299999952316,NA,NA,NA,NA,survey-likert-extra-labels,80,469245,0.0-43.0-1.0,anomymised,6564584152624795c40b73cb,65645f4a3a2ef3521cdfec16,44423,1A,woman,NA,NA,Somebody says<br><em>Dave is arguing with Fred</em>,argue_active,rating_volition,"{""Q0"":1}",[0],The speaker identifies more with <br>Dave than Fred,The speaker identifies more with<br>Fred than Dave,left_to_right
null,Somebody says<br><em>Jane and Kate are kissing each other</em>,NA,NA,NA,html-keyboard-response,81,471248,0.0-44.0-0.0,anomymised,6564584152624795c40b73cb,65645f4a3a2ef3521cdfec16,44423,1A,woman,NA,null,NAME1 and NAME2 are kissing each other,kiss_conjoined,sentence,NA,NA,NA,NA,NA
2354.2000000476837,NA,NA,NA,NA,survey-likert-extra-labels,82,473603,0.0-44.0-1.0,anomymised,6564584152624795c40b73cb,65645f4a3a2ef3521cdfec16,44423,1A,woman,NA,NA,Somebody says<br><em>Jane and Kate are kissing each other</em>,kiss_conjoined,rating_volition,"{""Q0"":3}",[0],The speaker identifies more with <br>Jane than Kate,The speaker identifies more with<br>Kate than Jane,left_to_right
null,Somebody says<br><em>Beth is shouting at Mike</em>,NA,NA,NA,html-keyboard-response,83,475609,0.0-45.0-0.0,anomymised,6564584152624795c40b73cb,65645f4a3a2ef3521cdfec16,44423,1A,woman,NA,null,NAME1 is shouting at NAME2,shout_active,sentence,NA,NA,NA,NA,NA
5400.299999952316,NA,NA,NA,NA,survey-likert-extra-labels,84,481011,0.0-45.0-1.0,anomymised,6564584152624795c40b73cb,65645f4a3a2ef3521cdfec16,44423,1A,woman,NA,NA,Somebody says<br><em>Beth is shouting at Mike</em>,shout_active,rating_volition,"{""Q0"":3}",[0],The speaker identifies more with <br>Mike than Beth,The speaker identifies more with<br>Beth than Mike,right_to_left
null,Somebody says<br><em>Luke is touching Kate</em>,NA,NA,NA,html-keyboard-response,85,483014,0.0-46.0-0.0,anomymised,6564584152624795c40b73cb,65645f4a3a2ef3521cdfec16,44423,1A,woman,NA,null,NAME1 is touching NAME2,touch_active,sentence,NA,NA,NA,NA,NA
3438.699999809265,NA,NA,NA,NA,survey-likert-extra-labels,86,486454,0.0-46.0-1.0,anomymised,6564584152624795c40b73cb,65645f4a3a2ef3521cdfec16,44423,1A,woman,NA,NA,Somebody says<br><em>Luke is touching Kate</em>,touch_active,rating_volition,"{""Q0"":4}",[0],The speaker identifies more with <br>Kate than Luke,The speaker identifies more with<br>Luke than Kate,right_to_left
null,Somebody says<br><em>Dave and Beth are touching each other</em>,NA,NA,NA,html-keyboard-response,87,488458,0.0-47.0-0.0,anomymised,6564584152624795c40b73cb,65645f4a3a2ef3521cdfec16,44423,1A,woman,NA,null,NAME1 and NAME2 are touching each other,touch_conjoined,sentence,NA,NA,NA,NA,NA
3223.399999856949,NA,NA,NA,NA,survey-likert-extra-labels,88,491683,0.0-47.0-1.0,anomymised,6564584152624795c40b73cb,65645f4a3a2ef3521cdfec16,44423,1A,woman,NA,NA,Somebody says<br><em>Dave and Beth are touching each other</em>,touch_conjoined,rating_volition,"{""Q0"":2}",[0],The speaker identifies more with <br>Dave than Beth,The speaker identifies more with<br>Beth than Dave,left_to_right
null,Somebody says<br><em>Jane is fighting with Luke</em>,NA,NA,NA,html-keyboard-response,89,493687,0.0-48.0-0.0,anomymised,6564584152624795c40b73cb,65645f4a3a2ef3521cdfec16,44423,1A,woman,NA,null,NAME1 is fighting with NAME2,fight_active,sentence,NA,NA,NA,NA,NA
5779.5,NA,NA,NA,NA,survey-likert-extra-labels,90,499468,0.0-48.0-1.0,anomymised,6564584152624795c40b73cb,65645f4a3a2ef3521cdfec16,44423,1A,woman,NA,NA,Somebody says<br><em>Jane is fighting with Luke</em>,fight_active,rating_volition,"{""Q0"":5}",[0],The speaker identifies more with <br>Luke than Jane,The speaker identifies more with<br>Jane than Luke,right_to_left
null,Somebody says<br><em>Mike and Luke are fighting with each other</em>,NA,NA,NA,html-keyboard-response,91,501473,0.0-49.0-0.0,anomymised,6564584152624795c40b73cb,65645f4a3a2ef3521cdfec16,44423,1A,woman,NA,null,NAME1 and NAME2 are fighting with each other,fight_conjoined,sentence,NA,NA,NA,NA,NA
13575.200000047684,NA,NA,NA,NA,survey-likert-extra-labels,92,515050,0.0-49.0-1.0,anomymised,6564584152624795c40b73cb,65645f4a3a2ef3521cdfec16,44423,1A,woman,NA,NA,Somebody says<br><em>Mike and Luke are fighting with each other</em>,fight_conjoined,rating_volition,"{""Q0"":3}",[0],The speaker identifies more with <br>Luke than Mike,The speaker identifies more with<br>Mike than Luke,right_to_left
null,Somebody says<br><em>Kate is marrying Luke</em>,NA,NA,NA,html-keyboard-response,93,517057,0.0-50.0-0.0,anomymised,6564584152624795c40b73cb,65645f4a3a2ef3521cdfec16,44423,1A,woman,NA,null,NAME1 is marrying NAME2,marry_active,sentence,NA,NA,NA,NA,NA
5272.299999952316,NA,NA,NA,NA,survey-likert-extra-labels,94,522330,0.0-50.0-1.0,anomymised,6564584152624795c40b73cb,65645f4a3a2ef3521cdfec16,44423,1A,woman,NA,NA,Somebody says<br><em>Kate is marrying Luke</em>,marry_active,rating_volition,"{""Q0"":5}",[0],The speaker identifies more with <br>Luke than Kate,The speaker identifies more with<br>Kate than Luke,right_to_left
null,Somebody says<br><em>Luke is being opposed by Ruth</em>,NA,NA,NA,html-keyboard-response,95,524335,0.0-51.0-0.0,anomymised,6564584152624795c40b73cb,65645f4a3a2ef3521cdfec16,44423,1A,woman,NA,null,NAME1 is being opposed by NAME2,oppose_passive,sentence,NA,NA,NA,NA,NA
5106.600000143051,NA,NA,NA,NA,survey-likert-extra-labels,96,529444,0.0-51.0-1.0,anomymised,6564584152624795c40b73cb,65645f4a3a2ef3521cdfec16,44423,1A,woman,NA,NA,Somebody says<br><em>Luke is being opposed by Ruth</em>,oppose_passive,rating_volition,"{""Q0"":2}",[0],The speaker identifies more with <br>Luke than Ruth,The speaker identifies more with<br>Ruth than Luke,left_to_right
null,Somebody says<br><em>Kate and Mike are marrying each other</em>,NA,NA,NA,html-keyboard-response,97,531452,0.0-52.0-0.0,anomymised,6564584152624795c40b73cb,65645f4a3a2ef3521cdfec16,44423,1A,woman,NA,null,NAME1 and NAME2 are marrying each other,marry_conjoined,sentence,NA,NA,NA,NA,NA
1805.2999999523163,NA,NA,NA,NA,survey-likert-extra-labels,98,533259,0.0-52.0-1.0,anomymised,6564584152624795c40b73cb,65645f4a3a2ef3521cdfec16,44423,1A,woman,NA,NA,Somebody says<br><em>Kate and Mike are marrying each other</em>,marry_conjoined,rating_volition,"{""Q0"":3}",[0],The speaker identifies more with <br>Kate than Mike,The speaker identifies more with<br>Mike than Kate,left_to_right
null,Somebody says<br><em>Kate is shouting at Jane</em>,NA,NA,NA,html-keyboard-response,99,535261,0.0-53.0-0.0,anomymised,6564584152624795c40b73cb,65645f4a3a2ef3521cdfec16,44423,1A,woman,NA,null,NAME1 is shouting at NAME2,shout_active,sentence,NA,NA,NA,NA,NA
4470.699999809265,NA,NA,NA,NA,survey-likert-extra-labels,100,539733,0.0-53.0-1.0,anomymised,6564584152624795c40b73cb,65645f4a3a2ef3521cdfec16,44423,1A,woman,NA,NA,Somebody says<br><em>Kate is shouting at Jane</em>,shout_active,rating_volition,"{""Q0"":1}",[0],The speaker identifies more with <br>Kate than Jane,The speaker identifies more with<br>Jane than Kate,left_to_right
null,Somebody says<br><em>Luke is being challenged by Kate</em>,NA,NA,NA,html-keyboard-response,101,541740,0.0-54.0-0.0,anomymised,6564584152624795c40b73cb,65645f4a3a2ef3521cdfec16,44423,1A,woman,NA,null,NAME1 is being challenged by NAME2,challenge_passive,sentence,NA,NA,NA,NA,NA
16107.5,NA,NA,NA,NA,survey-likert-extra-labels,102,557849,0.0-54.0-1.0,anomymised,6564584152624795c40b73cb,65645f4a3a2ef3521cdfec16,44423,1A,woman,NA,NA,Somebody says<br><em>Luke is being challenged by Kate</em>,challenge_passive,rating_volition,"{""Q0"":1}",[0],The speaker identifies more with <br>Luke than Kate,The speaker identifies more with<br>Kate than Luke,left_to_right
null,Somebody says<br><em>Fred is hiring Ruth,NA,NA,NA,html-keyboard-response,103,559853,0.0-55.0-0.0,anomymised,6564584152624795c40b73cb,65645f4a3a2ef3521cdfec16,44423,1A,woman,NA,null,M3 is hiring W1,hire,sentence,NA,NA,NA,NA,NA
6034.399999856949,NA,NA,NA,NA,survey-likert-extra-labels,104,565889,0.0-55.0-1.0,anomymised,6564584152624795c40b73cb,65645f4a3a2ef3521cdfec16,44423,1A,woman,NA,NA,Somebody says<br><em>Fred is hiring Ruth,hire,rating_volition,"{""Q0"":0}",[0],Fred is employing Ruth,Ruth is employing Fred,NA
1399.8999998569489,<p>Thank you for completing that task.</p><p>The final part of this session is a short questionnaire.</p><p>Press Continue.</p>,0,Continue,Continue,html-button-response,105,567291,0.0-56.0,anomymised,6564584152624795c40b73cb,65645f4a3a2ef3521cdfec16,44423,1A,woman,NA,NA,NA,NA,NA,NA,NA,NA,NA,NA
40697.299999952316,NA,NA,NA,NA,survey-text,106,608999,0.0-57.0,anomymised,6564584152624795c40b73cb,65645f4a3a2ef3521cdfec16,44423,1A,woman,NA,NA,NA,NA,demographics,"{""Q0"":""23"",""Q1"":""English"",""Q2"":""English"",""Q3"":""United Kingdom"",""Q4"":""British"",""Q5"":""White British"",""Q6"":""female""}",NA,NA,NA,NA
5434.100000143051,<p>This is the last question - thank you for taking part! Have you lived in the UK for the last 5 years or more?</p>,0,"Yes,No",Yes,html-button-response,107,614435,0.0-58.0,anomymised,6564584152624795c40b73cb,65645f4a3a2ef3521cdfec16,44423,1A,woman,NA,NA,NA,NA,fiveyears,NA,NA,NA,NA,NA
