rt,stimulus,button_pressed,choices,ChosenStimulus,trial_type,trial_index,time_elapsed,internal_node_id,subject_id,study_id,session_id,subject,list,ppt_gender,url,key_press,sentence_type,verb,test_part,responses,question_order,left_part,right_part,name_order
1752,Welcome to the experiment. Press Continue to begin.,0,Continue,Continue,html-button-response,0,1768,0.0-0.0,anomymised,6560c4cfd080ba12b16d8282,6564c8a28e53636c7e4efc6d,47055,1A,man,NA,NA,NA,NA,NA,NA,NA,NA,NA,NA
3920,NA,NA,NA,NA,external-html,1,6754,0.0-1.0,anomymised,6560c4cfd080ba12b16d8282,6564c8a28e53636c7e4efc6d,47055,1A,man,consent.html,NA,NA,NA,NA,NA,NA,NA,NA,NA
20998,"<p>Welcome.</p><p>In this experiment we will ask you to imagine people's motivations for saying sentences.</p><p>Each trial will begin with a sentence that somebody might say to describe an event involving two different people.</p><p>For instance, someone might say <em>Harry is being recruited by Molly</em></p><p>We want you to think about which of those two people (Molly and Harry) the speaker identifies more with. For instance, why did the speaker say <em>Harry is being recruited by Molly</em> rather than <em> Molly is recruiting Harry</em>? Might that mean that the speaker is socially closer to one of the two characters?</p><p>After you have read the sentence, you will rate on a scale which of the two characters the speaker identifies more with.</p><p>You will give your answer by clicking a button on a rating scale.</p><p>Sometimes there will also be catch questions designed to make sure that you are paying attention, which ask about a different topic.</p><p>To do this task, you will have to use your imagination to think about and visualise the events, and how the speaker might relate to the characters.</p><br><p>Ready?</p>",0,Continue,Continue,html-button-response,2,27755,0.0-2.0,anomymised,6560c4cfd080ba12b16d8282,6564c8a28e53636c7e4efc6d,47055,1A,man,NA,NA,NA,NA,NA,NA,NA,NA,NA,NA
2142,"<p>Before the experiment starts, we will show you an example of how you will answer the questions. Press 'Continue'.</p>",0,Continue,Continue,html-button-response,3,30905,0.0-3.0,anomymised,6560c4cfd080ba12b16d8282,6564c8a28e53636c7e4efc6d,47055,1A,man,NA,NA,NA,NA,NA,NA,NA,NA,NA,NA
null,Somebody says <br><em>Samuel is dining with Frank</em>,NA,NA,NA,html-keyboard-response,4,33914,0.0-4.0,anomymised,6560c4cfd080ba12b16d8282,6564c8a28e53636c7e4efc6d,47055,1A,man,NA,null,NA,NA,NA,NA,NA,NA,NA,NA
6008,<img src='img/Example-trial.jpg' style='height:550px;''></img>,0,Continue,Continue,html-button-response,5,39923,0.0-5.0,anomymised,6560c4cfd080ba12b16d8282,6564c8a28e53636c7e4efc6d,47055,1A,man,NA,NA,NA,NA,NA,NA,NA,NA,NA,NA
2396,<p>Ready to start the experiment?</p><br><p><strong>Remember to give an answer by clicking a button on the rating scale.</strong></p><p>Press 'Continue' to begin.</p>,0,Continue,Continue,html-button-response,6,43322,0.0-6.0,anomymised,6560c4cfd080ba12b16d8282,6564c8a28e53636c7e4efc6d,47055,1A,man,NA,NA,NA,NA,NA,NA,NA,NA,NA,NA
null,Somebody says<br><em>Dave and Jane are arguing with each other</em>,NA,NA,NA,html-keyboard-response,7,46330,0.0-7.0-0.0,anomymised,6560c4cfd080ba12b16d8282,6564c8a28e53636c7e4efc6d,47055,1A,man,NA,null,NAME1 and NAME2 are arguing with each other,argue_conjoined,sentence,NA,NA,NA,NA,NA
8307,NA,NA,NA,NA,survey-likert-extra-labels,8,54639,0.0-7.0-1.0,anomymised,6560c4cfd080ba12b16d8282,6564c8a28e53636c7e4efc6d,47055,1A,man,NA,NA,Somebody says<br><em>Dave and Jane are arguing with each other</em>,argue_conjoined,rating_volition,"{""Q0"":2}",[0],The speaker identifies more with <br>Jane than Dave,The speaker identifies more with<br>Dave than Jane,right_to_left
null,Somebody says<br><em>Kate is looking at Dave</em>,NA,NA,NA,html-keyboard-response,9,56645,0.0-8.0-0.0,anomymised,6560c4cfd080ba12b16d8282,6564c8a28e53636c7e4efc6d,47055,1A,man,NA,null,NAME1 is looking at NAME2,look_active,sentence,NA,NA,NA,NA,NA
10879,NA,NA,NA,NA,survey-likert-extra-labels,10,67526,0.0-8.0-1.0,anomymised,6560c4cfd080ba12b16d8282,6564c8a28e53636c7e4efc6d,47055,1A,man,NA,NA,Somebody says<br><em>Kate is looking at Dave</em>,look_active,rating_volition,"{""Q0"":2}",[0],The speaker identifies more with <br>Kate than Dave,The speaker identifies more with<br>Dave than Kate,left_to_right
null,Somebody says<br><em>Dave and Ruth are shouting at each other</em>,NA,NA,NA,html-keyboard-response,11,69533,0.0-9.0-0.0,anomymised,6560c4cfd080ba12b16d8282,6564c8a28e53636c7e4efc6d,47055,1A,man,NA,null,NAME1 and NAME2 are shouting at each other,shout_conjoined,sentence,NA,NA,NA,NA,NA
4225,NA,NA,NA,NA,survey-likert-extra-labels,12,73761,0.0-9.0-1.0,anomymised,6560c4cfd080ba12b16d8282,6564c8a28e53636c7e4efc6d,47055,1A,man,NA,NA,Somebody says<br><em>Dave and Ruth are shouting at each other</em>,shout_conjoined,rating_volition,"{""Q0"":3}",[0],The speaker identifies more with <br>Dave than Ruth,The speaker identifies more with<br>Ruth than Dave,left_to_right
null,Somebody says<br><em>Jane is arguing with Dave</em>,NA,NA,NA,html-keyboard-response,13,75769,0.0-10.0-0.0,anomymised,6560c4cfd080ba12b16d8282,6564c8a28e53636c7e4efc6d,47055,1A,man,NA,null,NAME1 is arguing with NAME2,argue_active,sentence,NA,NA,NA,NA,NA
6840,NA,NA,NA,NA,survey-likert-extra-labels,14,82610,0.0-10.0-1.0,anomymised,6560c4cfd080ba12b16d8282,6564c8a28e53636c7e4efc6d,47055,1A,man,NA,NA,Somebody says<br><em>Jane is arguing with Dave</em>,argue_active,rating_volition,"{""Q0"":2}",[0],The speaker identifies more with <br>Jane than Dave,The speaker identifies more with<br>Dave than Jane,left_to_right
null,Somebody says<br><em>Fred is talking to Luke</em>,NA,NA,NA,html-keyboard-response,15,84616,0.0-11.0-0.0,anomymised,6560c4cfd080ba12b16d8282,6564c8a28e53636c7e4efc6d,47055,1A,man,NA,null,NAME1 is talking to NAME2,talk_active,sentence,NA,NA,NA,NA,NA
10061,NA,NA,NA,NA,survey-likert-extra-labels,16,94679,0.0-11.0-1.0,anomymised,6560c4cfd080ba12b16d8282,6564c8a28e53636c7e4efc6d,47055,1A,man,NA,NA,Somebody says<br><em>Fred is talking to Luke</em>,talk_active,rating_volition,"{""Q0"":4}",[0],The speaker identifies more with <br>Luke than Fred,The speaker identifies more with<br>Fred than Luke,right_to_left
null,Somebody says<br><em>Mike is hugging Dave</em>,NA,NA,NA,html-keyboard-response,17,96683,0.0-12.0-0.0,anomymised,6560c4cfd080ba12b16d8282,6564c8a28e53636c7e4efc6d,47055,1A,man,NA,null,NAME1 is hugging NAME2,hug_active,sentence,NA,NA,NA,NA,NA
5728,NA,NA,NA,NA,survey-likert-extra-labels,18,102412,0.0-12.0-1.0,anomymised,6560c4cfd080ba12b16d8282,6564c8a28e53636c7e4efc6d,47055,1A,man,NA,NA,Somebody says<br><em>Mike is hugging Dave</em>,hug_active,rating_volition,"{""Q0"":2}",[0],The speaker identifies more with <br>Mike than Dave,The speaker identifies more with<br>Dave than Mike,left_to_right
null,Somebody says<br><em>Dave and Ruth are meeting each other</em>,NA,NA,NA,html-keyboard-response,19,104419,0.0-13.0-0.0,anomymised,6560c4cfd080ba12b16d8282,6564c8a28e53636c7e4efc6d,47055,1A,man,NA,null,NAME1 and NAME2 are meeting each other,meet_conjoined,sentence,NA,NA,NA,NA,NA
5459,NA,NA,NA,NA,survey-likert-extra-labels,20,109879,0.0-13.0-1.0,anomymised,6560c4cfd080ba12b16d8282,6564c8a28e53636c7e4efc6d,47055,1A,man,NA,NA,Somebody says<br><em>Dave and Ruth are meeting each other</em>,meet_conjoined,rating_volition,"{""Q0"":3}",[0],The speaker identifies more with <br>Ruth than Dave,The speaker identifies more with<br>Dave than Ruth,right_to_left
null,Somebody says<br><em>Jane is being shouted at by Beth</em>,NA,NA,NA,html-keyboard-response,21,111893,0.0-14.0-0.0,anomymised,6560c4cfd080ba12b16d8282,6564c8a28e53636c7e4efc6d,47055,1A,man,NA,null,NAME1 is being shouted at by NAME2,shout_passive,sentence,NA,NA,NA,NA,NA
10468,NA,NA,NA,NA,survey-likert-extra-labels,22,122362,0.0-14.0-1.0,anomymised,6560c4cfd080ba12b16d8282,6564c8a28e53636c7e4efc6d,47055,1A,man,NA,NA,Somebody says<br><em>Jane is being shouted at by Beth</em>,shout_passive,rating_volition,"{""Q0"":1}",[0],The speaker identifies more with <br>Jane than Beth,The speaker identifies more with<br>Beth than Jane,left_to_right
null,Somebody says<br><em>Dave is playing with Mike</em>,NA,NA,NA,html-keyboard-response,23,124367,0.0-15.0-0.0,anomymised,6560c4cfd080ba12b16d8282,6564c8a28e53636c7e4efc6d,47055,1A,man,NA,null,NAME1 is playing with NAME2,play_active,sentence,NA,NA,NA,NA,NA
5312,NA,NA,NA,NA,survey-likert-extra-labels,24,129682,0.0-15.0-1.0,anomymised,6560c4cfd080ba12b16d8282,6564c8a28e53636c7e4efc6d,47055,1A,man,NA,NA,Somebody says<br><em>Dave is playing with Mike</em>,play_active,rating_volition,"{""Q0"":4}",[0],The speaker identifies more with <br>Dave than Mike,The speaker identifies more with<br>Mike than Dave,left_to_right
null,Somebody says<br><em>Ruth is flirting with Mike</em>,NA,NA,NA,html-keyboard-response,25,131688,0.0-16.0-0.0,anomymised,6560c4cfd080ba12b16d8282,6564c8a28e53636c7e4efc6d,47055,1A,man,NA,null,NAME1 is flirting with NAME2,flirt_active,sentence,NA,NA,NA,NA,NA
9692,NA,NA,NA,NA,survey-likert-extra-labels,26,141382,0.0-16.0-1.0,anomymised,6560c4cfd080ba12b16d8282,6564c8a28e53636c7e4efc6d,47055,1A,man,NA,NA,Somebody says<br><em>Ruth is flirting with Mike</em>,flirt_active,rating_volition,"{""Q0"":1}",[0],The speaker identifies more with <br>Ruth than Mike,The speaker identifies more with<br>Mike than Ruth,left_to_right
null,Somebody says<br><em>Mike is reminding Beth,NA,NA,NA,html-keyboard-response,27,143584,0.0-17.0-0.0,anomymised,6560c4cfd080ba12b16d8282,6564c8a28e53636c7e4efc6d,47055,1A,man,NA,null,M2 is reminding W4,remind,sentence,NA,NA,NA,NA,NA
22998,NA,NA,NA,NA,survey-likert-extra-labels,28,166584,0.0-17.0-1.0,anomymised,6560c4cfd080ba12b16d8282,6564c8a28e53636c7e4efc6d,47055,1A,man,NA,NA,Somebody says<br><em>Mike is reminding Beth,remind,rating_volition,"{""Q0"":2}",[0],Mike is telling Beth again,Beth is telling Mike again,NA
null,Somebody says<br><em>Kate is challenging Beth</em>,NA,NA,NA,html-keyboard-response,29,168591,0.0-18.0-0.0,anomymised,6560c4cfd080ba12b16d8282,6564c8a28e53636c7e4efc6d,47055,1A,man,NA,null,NAME1 is challenging NAME2,challenge_active,sentence,NA,NA,NA,NA,NA
6160,NA,NA,NA,NA,survey-likert-extra-labels,30,174752,0.0-18.0-1.0,anomymised,6560c4cfd080ba12b16d8282,6564c8a28e53636c7e4efc6d,47055,1A,man,NA,NA,Somebody says<br><em>Kate is challenging Beth</em>,challenge_active,rating_volition,"{""Q0"":1}",[0],The speaker identifies more with <br>Beth than Kate,The speaker identifies more with<br>Kate than Beth,right_to_left
null,Somebody says<br><em>Ruth and Fred are talking with each other</em>,NA,NA,NA,html-keyboard-response,31,176759,0.0-19.0-0.0,anomymised,6560c4cfd080ba12b16d8282,6564c8a28e53636c7e4efc6d,47055,1A,man,NA,null,NAME1 and NAME2 are talking with each other,talk_conjoined,sentence,NA,NA,NA,NA,NA
4825,NA,NA,NA,NA,survey-likert-extra-labels,32,181585,0.0-19.0-1.0,anomymised,6560c4cfd080ba12b16d8282,6564c8a28e53636c7e4efc6d,47055,1A,man,NA,NA,Somebody says<br><em>Ruth and Fred are talking with each other</em>,talk_conjoined,rating_volition,"{""Q0"":3}",[0],The speaker identifies more with <br>Fred than Ruth,The speaker identifies more with<br>Ruth than Fred,right_to_left
null,Somebody says<br><em>Dave and Kate are marrying each other</em>,NA,NA,NA,html-keyboard-response,33,183591,0.0-20.0-0.0,anomymised,6560c4cfd080ba12b16d8282,6564c8a28e53636c7e4efc6d,47055,1A,man,NA,null,NAME1 and NAME2 are marrying each other,marry_conjoined,sentence,NA,NA,NA,NA,NA
4560,NA,NA,NA,NA,survey-likert-extra-labels,34,188153,0.0-20.0-1.0,anomymised,6560c4cfd080ba12b16d8282,6564c8a28e53636c7e4efc6d,47055,1A,man,NA,NA,Somebody says<br><em>Dave and Kate are marrying each other</em>,marry_conjoined,rating_volition,"{""Q0"":3}",[0],The speaker identifies more with <br>Kate than Dave,The speaker identifies more with<br>Dave than Kate,right_to_left
null,Somebody says<br><em>Jane is being seduced by Dave</em>,NA,NA,NA,html-keyboard-response,35,190237,0.0-21.0-0.0,anomymised,6560c4cfd080ba12b16d8282,6564c8a28e53636c7e4efc6d,47055,1A,man,NA,null,NAME1 is being seduced by NAME2,seduce_passive,sentence,NA,NA,NA,NA,NA
3896,NA,NA,NA,NA,survey-likert-extra-labels,36,194136,0.0-21.0-1.0,anomymised,6560c4cfd080ba12b16d8282,6564c8a28e53636c7e4efc6d,47055,1A,man,NA,NA,Somebody says<br><em>Jane is being seduced by Dave</em>,seduce_passive,rating_volition,"{""Q0"":1}",[0],The speaker identifies more with <br>Dave than Jane,The speaker identifies more with<br>Jane than Dave,right_to_left
null,Somebody says<br><em>Luke and Dave are flirting with each other</em>,NA,NA,NA,html-keyboard-response,37,196385,0.0-22.0-0.0,anomymised,6560c4cfd080ba12b16d8282,6564c8a28e53636c7e4efc6d,47055,1A,man,NA,null,NAME1 and NAME2 are flirting with each other,flirt_conjoined,sentence,NA,NA,NA,NA,NA
4937,NA,NA,NA,NA,survey-likert-extra-labels,38,201324,0.0-22.0-1.0,anomymised,6560c4cfd080ba12b16d8282,6564c8a28e53636c7e4efc6d,47055,1A,man,NA,NA,Somebody says<br><em>Luke and Dave are flirting with each other</em>,flirt_conjoined,rating_volition,"{""Q0"":3}",[0],The speaker identifies more with <br>Luke than Dave,The speaker identifies more with<br>Dave than Luke,left_to_right
null,Somebody says<br><em>Luke is being kissed by Jane</em>,NA,NA,NA,html-keyboard-response,39,203329,0.0-23.0-0.0,anomymised,6560c4cfd080ba12b16d8282,6564c8a28e53636c7e4efc6d,47055,1A,man,NA,null,NAME1 is being kissed by NAME2,kiss_passive,sentence,NA,NA,NA,NA,NA
5673,NA,NA,NA,NA,survey-likert-extra-labels,40,209004,0.0-23.0-1.0,anomymised,6560c4cfd080ba12b16d8282,6564c8a28e53636c7e4efc6d,47055,1A,man,NA,NA,Somebody says<br><em>Luke is being kissed by Jane</em>,kiss_passive,rating_volition,"{""Q0"":2}",[0],The speaker identifies more with <br>Luke than Jane,The speaker identifies more with<br>Jane than Luke,left_to_right
null,Somebody says<br><em>Jane is teaching Dave,NA,NA,NA,html-keyboard-response,41,211008,0.0-24.0-0.0,anomymised,6560c4cfd080ba12b16d8282,6564c8a28e53636c7e4efc6d,47055,1A,man,NA,null,W2 is teaching M4,teach,sentence,NA,NA,NA,NA,NA
7661,NA,NA,NA,NA,survey-likert-extra-labels,42,218672,0.0-24.0-1.0,anomymised,6560c4cfd080ba12b16d8282,6564c8a28e53636c7e4efc6d,47055,1A,man,NA,NA,Somebody says<br><em>Jane is teaching Dave,teach,rating_volition,"{""Q0"":1}",[0],Jane is educating Dave,Dave is educating Jane,NA
null,Somebody says<br><em>Dave and Kate are hugging each other</em>,NA,NA,NA,html-keyboard-response,43,220679,0.0-25.0-0.0,anomymised,6560c4cfd080ba12b16d8282,6564c8a28e53636c7e4efc6d,47055,1A,man,NA,null,NAME1 and NAME2 are hugging each other,hug_conjoined,sentence,NA,NA,NA,NA,NA
4459,NA,NA,NA,NA,survey-likert-extra-labels,44,225140,0.0-25.0-1.0,anomymised,6560c4cfd080ba12b16d8282,6564c8a28e53636c7e4efc6d,47055,1A,man,NA,NA,Somebody says<br><em>Dave and Kate are hugging each other</em>,hug_conjoined,rating_volition,"{""Q0"":3}",[0],The speaker identifies more with <br>Dave than Kate,The speaker identifies more with<br>Kate than Dave,left_to_right
null,Somebody says<br><em>Ruth is kissing Beth</em>,NA,NA,NA,html-keyboard-response,45,227143,0.0-26.0-0.0,anomymised,6560c4cfd080ba12b16d8282,6564c8a28e53636c7e4efc6d,47055,1A,man,NA,null,NAME1 is kissing NAME2,kiss_active,sentence,NA,NA,NA,NA,NA
12862,NA,NA,NA,NA,survey-likert-extra-labels,46,240007,0.0-26.0-1.0,anomymised,6560c4cfd080ba12b16d8282,6564c8a28e53636c7e4efc6d,47055,1A,man,NA,NA,Somebody says<br><em>Ruth is kissing Beth</em>,kiss_active,rating_volition,"{""Q0"":4}",[0],The speaker identifies more with <br>Beth than Ruth,The speaker identifies more with<br>Ruth than Beth,right_to_left
null,Somebody says<br><em>Beth is being copied by Ruth</em>,NA,NA,NA,html-keyboard-response,47,242013,0.0-27.0-0.0,anomymised,6560c4cfd080ba12b16d8282,6564c8a28e53636c7e4efc6d,47055,1A,man,NA,null,NAME1 is being copied by NAME2,copy_passive,sentence,NA,NA,NA,NA,NA
6626,NA,NA,NA,NA,survey-likert-extra-labels,48,248640,0.0-27.0-1.0,anomymised,6560c4cfd080ba12b16d8282,6564c8a28e53636c7e4efc6d,47055,1A,man,NA,NA,Somebody says<br><em>Beth is being copied by Ruth</em>,copy_passive,rating_volition,"{""Q0"":5}",[0],The speaker identifies more with <br>Ruth than Beth,The speaker identifies more with<br>Beth than Ruth,right_to_left
null,Somebody says<br><em>Ruth is being opposed by Fred</em>,NA,NA,NA,html-keyboard-response,49,250645,0.0-28.0-0.0,anomymised,6560c4cfd080ba12b16d8282,6564c8a28e53636c7e4efc6d,47055,1A,man,NA,null,NAME1 is being opposed by NAME2,oppose_passive,sentence,NA,NA,NA,NA,NA
5562,NA,NA,NA,NA,survey-likert-extra-labels,50,256208,0.0-28.0-1.0,anomymised,6560c4cfd080ba12b16d8282,6564c8a28e53636c7e4efc6d,47055,1A,man,NA,NA,Somebody says<br><em>Ruth is being opposed by Fred</em>,oppose_passive,rating_volition,"{""Q0"":1}",[0],The speaker identifies more with <br>Ruth than Fred,The speaker identifies more with<br>Fred than Ruth,left_to_right
null,Somebody says<br><em>Fred and Jane are dancing with each other</em>,NA,NA,NA,html-keyboard-response,51,258215,0.0-29.0-0.0,anomymised,6560c4cfd080ba12b16d8282,6564c8a28e53636c7e4efc6d,47055,1A,man,NA,null,NAME1 and NAME2 are dancing with each other,dance_conjoined,sentence,NA,NA,NA,NA,NA
3157,NA,NA,NA,NA,survey-likert-extra-labels,52,261377,0.0-29.0-1.0,anomymised,6560c4cfd080ba12b16d8282,6564c8a28e53636c7e4efc6d,47055,1A,man,NA,NA,Somebody says<br><em>Fred and Jane are dancing with each other</em>,dance_conjoined,rating_volition,"{""Q0"":3}",[0],The speaker identifies more with <br>Fred than Jane,The speaker identifies more with<br>Jane than Fred,left_to_right
null,Somebody says<br><em>Beth and Dave are touching each other</em>,NA,NA,NA,html-keyboard-response,53,263382,0.0-30.0-0.0,anomymised,6560c4cfd080ba12b16d8282,6564c8a28e53636c7e4efc6d,47055,1A,man,NA,null,NAME1 and NAME2 are touching each other,touch_conjoined,sentence,NA,NA,NA,NA,NA
5008,NA,NA,NA,NA,survey-likert-extra-labels,54,268392,0.0-30.0-1.0,anomymised,6560c4cfd080ba12b16d8282,6564c8a28e53636c7e4efc6d,47055,1A,man,NA,NA,Somebody says<br><em>Beth and Dave are touching each other</em>,touch_conjoined,rating_volition,"{""Q0"":3}",[0],The speaker identifies more with <br>Dave than Beth,The speaker identifies more with<br>Beth than Dave,right_to_left
null,Somebody says<br><em>Kate is dancing with Jane</em>,NA,NA,NA,html-keyboard-response,55,270397,0.0-31.0-0.0,anomymised,6560c4cfd080ba12b16d8282,6564c8a28e53636c7e4efc6d,47055,1A,man,NA,null,NAME1 is dancing with NAME2,dance_active,sentence,NA,NA,NA,NA,NA
4361,NA,NA,NA,NA,survey-likert-extra-labels,56,274760,0.0-31.0-1.0,anomymised,6560c4cfd080ba12b16d8282,6564c8a28e53636c7e4efc6d,47055,1A,man,NA,NA,Somebody says<br><em>Kate is dancing with Jane</em>,dance_active,rating_volition,"{""Q0"":2}",[0],The speaker identifies more with <br>Kate than Jane,The speaker identifies more with<br>Jane than Kate,left_to_right
null,Somebody says<br><em>Ruth is chasing Kate,NA,NA,NA,html-keyboard-response,57,276766,0.0-32.0-0.0,anomymised,6560c4cfd080ba12b16d8282,6564c8a28e53636c7e4efc6d,47055,1A,man,NA,null,W1 is chasing W3,chase,sentence,NA,NA,NA,NA,NA
14527,NA,NA,NA,NA,survey-likert-extra-labels,58,291295,0.0-32.0-1.0,anomymised,6560c4cfd080ba12b16d8282,6564c8a28e53636c7e4efc6d,47055,1A,man,NA,NA,Somebody says<br><em>Ruth is chasing Kate,chase,rating_volition,"{""Q0"":0}",[0],Ruth is behind Kate,Kate is behind Ruth,NA
null,Somebody says<br><em>Kate is opposing Fred</em>,NA,NA,NA,html-keyboard-response,59,293302,0.0-33.0-0.0,anomymised,6560c4cfd080ba12b16d8282,6564c8a28e53636c7e4efc6d,47055,1A,man,NA,null,NAME1 is opposing NAME2,oppose_active,sentence,NA,NA,NA,NA,NA
6259,NA,NA,NA,NA,survey-likert-extra-labels,60,299563,0.0-33.0-1.0,anomymised,6560c4cfd080ba12b16d8282,6564c8a28e53636c7e4efc6d,47055,1A,man,NA,NA,Somebody says<br><em>Kate is opposing Fred</em>,oppose_active,rating_volition,"{""Q0"":1}",[0],The speaker identifies more with <br>Kate than Fred,The speaker identifies more with<br>Fred than Kate,left_to_right
null,Somebody says<br><em>Dave is seducing Luke</em>,NA,NA,NA,html-keyboard-response,61,301576,0.0-34.0-0.0,anomymised,6560c4cfd080ba12b16d8282,6564c8a28e53636c7e4efc6d,47055,1A,man,NA,null,NAME1 is seducing NAME2,seduce_active,sentence,NA,NA,NA,NA,NA
6033,NA,NA,NA,NA,survey-likert-extra-labels,62,307612,0.0-34.0-1.0,anomymised,6560c4cfd080ba12b16d8282,6564c8a28e53636c7e4efc6d,47055,1A,man,NA,NA,Somebody says<br><em>Dave is seducing Luke</em>,seduce_active,rating_volition,"{""Q0"":5}",[0],The speaker identifies more with <br>Dave than Luke,The speaker identifies more with<br>Luke than Dave,left_to_right
null,Somebody says<br><em>Luke is being greeted by Beth</em>,NA,NA,NA,html-keyboard-response,63,309619,0.0-35.0-0.0,anomymised,6560c4cfd080ba12b16d8282,6564c8a28e53636c7e4efc6d,47055,1A,man,NA,null,NAME1 is being greeted by NAME2,greet_passive,sentence,NA,NA,NA,NA,NA
7176,NA,NA,NA,NA,survey-likert-extra-labels,64,316797,0.0-35.0-1.0,anomymised,6560c4cfd080ba12b16d8282,6564c8a28e53636c7e4efc6d,47055,1A,man,NA,NA,Somebody says<br><em>Luke is being greeted by Beth</em>,greet_passive,rating_volition,"{""Q0"":4}",[0],The speaker identifies more with <br>Beth than Luke,The speaker identifies more with<br>Luke than Beth,right_to_left
null,Somebody says<br><em>Jane is meeting Dave</em>,NA,NA,NA,html-keyboard-response,65,318803,0.0-36.0-0.0,anomymised,6560c4cfd080ba12b16d8282,6564c8a28e53636c7e4efc6d,47055,1A,man,NA,null,NAME1 is meeting NAME2,meet_active,sentence,NA,NA,NA,NA,NA
9828,NA,NA,NA,NA,survey-likert-extra-labels,66,328633,0.0-36.0-1.0,anomymised,6560c4cfd080ba12b16d8282,6564c8a28e53636c7e4efc6d,47055,1A,man,NA,NA,Somebody says<br><em>Jane is meeting Dave</em>,meet_active,rating_volition,"{""Q0"":2}",[0],The speaker identifies more with <br>Jane than Dave,The speaker identifies more with<br>Dave than Jane,left_to_right
null,Somebody says<br><em>Fred is touching Beth</em>,NA,NA,NA,html-keyboard-response,67,330868,0.0-37.0-0.0,anomymised,6560c4cfd080ba12b16d8282,6564c8a28e53636c7e4efc6d,47055,1A,man,NA,null,NAME1 is touching NAME2,touch_active,sentence,NA,NA,NA,NA,NA
19613,NA,NA,NA,NA,survey-likert-extra-labels,68,350484,0.0-37.0-1.0,anomymised,6560c4cfd080ba12b16d8282,6564c8a28e53636c7e4efc6d,47055,1A,man,NA,NA,Somebody says<br><em>Fred is touching Beth</em>,touch_active,rating_volition,"{""Q0"":1}",[0],The speaker identifies more with <br>Beth than Fred,The speaker identifies more with<br>Fred than Beth,right_to_left
null,Somebody says<br><em>Kate is feeding Luke,NA,NA,NA,html-keyboard-response,69,352490,0.0-38.0-0.0,anomymised,6560c4cfd080ba12b16d8282,6564c8a28e53636c7e4efc6d,47055,1A,man,NA,null,W3 is feeding M1,feed,sentence,NA,NA,NA,NA,NA
31326,NA,NA,NA,NA,survey-likert-extra-labels,70,383819,0.0-38.0-1.0,anomymised,6560c4cfd080ba12b16d8282,6564c8a28e53636c7e4efc6d,47055,1A,man,NA,NA,Somebody says<br><em>Kate is feeding Luke,feed,rating_volition,"{""Q0"":0}",[0],Kate cooked for Luke,Luke cooked for Kate,NA
null,Somebody says<br><em>Kate is being touched by Ruth</em>,NA,NA,NA,html-keyboard-response,71,385823,0.0-39.0-0.0,anomymised,6560c4cfd080ba12b16d8282,6564c8a28e53636c7e4efc6d,47055,1A,man,NA,null,NAME1 is being touched by NAME2,touch_passive,sentence,NA,NA,NA,NA,NA
5193,NA,NA,NA,NA,survey-likert-extra-labels,72,391021,0.0-39.0-1.0,anomymised,6560c4cfd080ba12b16d8282,6564c8a28e53636c7e4efc6d,47055,1A,man,NA,NA,Somebody says<br><em>Kate is being touched by Ruth</em>,touch_passive,rating_volition,"{""Q0"":1}",[0],The speaker identifies more with <br>Kate than Ruth,The speaker identifies more with<br>Ruth than Kate,left_to_right
null,Somebody says<br><em>Luke is shouting at Fred</em>,NA,NA,NA,html-keyboard-response,73,393028,0.0-40.0-0.0,anomymised,6560c4cfd080ba12b16d8282,6564c8a28e53636c7e4efc6d,47055,1A,man,NA,null,NAME1 is shouting at NAME2,shout_active,sentence,NA,NA,NA,NA,NA
4958,NA,NA,NA,NA,survey-likert-extra-labels,74,397987,0.0-40.0-1.0,anomymised,6560c4cfd080ba12b16d8282,6564c8a28e53636c7e4efc6d,47055,1A,man,NA,NA,Somebody says<br><em>Luke is shouting at Fred</em>,shout_active,rating_volition,"{""Q0"":5}",[0],The speaker identifies more with <br>Luke than Fred,The speaker identifies more with<br>Fred than Luke,left_to_right
null,Somebody says<br><em>Kate and Fred are kissing each other</em>,NA,NA,NA,html-keyboard-response,75,399994,0.0-41.0-0.0,anomymised,6560c4cfd080ba12b16d8282,6564c8a28e53636c7e4efc6d,47055,1A,man,NA,null,NAME1 and NAME2 are kissing each other,kiss_conjoined,sentence,NA,NA,NA,NA,NA
3274,NA,NA,NA,NA,survey-likert-extra-labels,76,403271,0.0-41.0-1.0,anomymised,6560c4cfd080ba12b16d8282,6564c8a28e53636c7e4efc6d,47055,1A,man,NA,NA,Somebody says<br><em>Kate and Fred are kissing each other</em>,kiss_conjoined,rating_volition,"{""Q0"":3}",[0],The speaker identifies more with <br>Kate than Fred,The speaker identifies more with<br>Fred than Kate,left_to_right
null,Somebody says<br><em>Dave is shouting at Luke</em>,NA,NA,NA,html-keyboard-response,77,405279,0.0-42.0-0.0,anomymised,6560c4cfd080ba12b16d8282,6564c8a28e53636c7e4efc6d,47055,1A,man,NA,null,NAME1 is shouting at NAME2,shout_active,sentence,NA,NA,NA,NA,NA
3422,NA,NA,NA,NA,survey-likert-extra-labels,78,408703,0.0-42.0-1.0,anomymised,6560c4cfd080ba12b16d8282,6564c8a28e53636c7e4efc6d,47055,1A,man,NA,NA,Somebody says<br><em>Dave is shouting at Luke</em>,shout_active,rating_volition,"{""Q0"":1}",[0],The speaker identifies more with <br>Luke than Dave,The speaker identifies more with<br>Dave than Luke,right_to_left
null,Somebody says<br><em>Jane is greeting Mike</em>,NA,NA,NA,html-keyboard-response,79,410707,0.0-43.0-0.0,anomymised,6560c4cfd080ba12b16d8282,6564c8a28e53636c7e4efc6d,47055,1A,man,NA,null,NAME1 is greeting NAME2,greet_active,sentence,NA,NA,NA,NA,NA
14314,NA,NA,NA,NA,survey-likert-extra-labels,80,425023,0.0-43.0-1.0,anomymised,6560c4cfd080ba12b16d8282,6564c8a28e53636c7e4efc6d,47055,1A,man,NA,NA,Somebody says<br><em>Jane is greeting Mike</em>,greet_active,rating_volition,"{""Q0"":2}",[0],The speaker identifies more with <br>Mike than Jane,The speaker identifies more with<br>Jane than Mike,right_to_left
null,Somebody says<br><em>Dave is marrying Luke</em>,NA,NA,NA,html-keyboard-response,81,427028,0.0-44.0-0.0,anomymised,6560c4cfd080ba12b16d8282,6564c8a28e53636c7e4efc6d,47055,1A,man,NA,null,NAME1 is marrying NAME2,marry_active,sentence,NA,NA,NA,NA,NA
8045,NA,NA,NA,NA,survey-likert-extra-labels,82,435074,0.0-44.0-1.0,anomymised,6560c4cfd080ba12b16d8282,6564c8a28e53636c7e4efc6d,47055,1A,man,NA,NA,Somebody says<br><em>Dave is marrying Luke</em>,marry_active,rating_volition,"{""Q0"":5}",[0],The speaker identifies more with <br>Luke than Dave,The speaker identifies more with<br>Dave than Luke,right_to_left
null,Somebody says<br><em>Fred is being hugged by Dave</em>,NA,NA,NA,html-keyboard-response,83,437078,0.0-45.0-0.0,anomymised,6560c4cfd080ba12b16d8282,6564c8a28e53636c7e4efc6d,47055,1A,man,NA,null,NAME1 is being hugged by NAME2,hug_passive,sentence,NA,NA,NA,NA,NA
3978,NA,NA,NA,NA,survey-likert-extra-labels,84,441058,0.0-45.0-1.0,anomymised,6560c4cfd080ba12b16d8282,6564c8a28e53636c7e4efc6d,47055,1A,man,NA,NA,Somebody says<br><em>Fred is being hugged by Dave</em>,hug_passive,rating_volition,"{""Q0"":1}",[0],The speaker identifies more with <br>Dave than Fred,The speaker identifies more with<br>Fred than Dave,right_to_left
null,Somebody says<br><em>Mike is posing for Dave,NA,NA,NA,html-keyboard-response,85,443199,0.0-46.0-0.0,anomymised,6560c4cfd080ba12b16d8282,6564c8a28e53636c7e4efc6d,47055,1A,man,NA,null,M2 is posing for M4,pose,sentence,NA,NA,NA,NA,NA
5226,NA,NA,NA,NA,survey-likert-extra-labels,86,448427,0.0-46.0-1.0,anomymised,6560c4cfd080ba12b16d8282,6564c8a28e53636c7e4efc6d,47055,1A,man,NA,NA,Somebody says<br><em>Mike is posing for Dave,pose,rating_volition,"{""Q0"":0}",[0],Mike is modelling for Dave,Dave is modelling for Mike,NA
null,Somebody says<br><em>Dave is fighting with Mike</em>,NA,NA,NA,html-keyboard-response,87,450433,0.0-47.0-0.0,anomymised,6560c4cfd080ba12b16d8282,6564c8a28e53636c7e4efc6d,47055,1A,man,NA,null,NAME1 is fighting with NAME2,fight_active,sentence,NA,NA,NA,NA,NA
6240,NA,NA,NA,NA,survey-likert-extra-labels,88,456675,0.0-47.0-1.0,anomymised,6560c4cfd080ba12b16d8282,6564c8a28e53636c7e4efc6d,47055,1A,man,NA,NA,Somebody says<br><em>Dave is fighting with Mike</em>,fight_active,rating_volition,"{""Q0"":2}",[0],The speaker identifies more with <br>Mike than Dave,The speaker identifies more with<br>Dave than Mike,right_to_left
null,Somebody says<br><em>Fred is hiring Ruth,NA,NA,NA,html-keyboard-response,89,458682,0.0-48.0-0.0,anomymised,6560c4cfd080ba12b16d8282,6564c8a28e53636c7e4efc6d,47055,1A,man,NA,null,M3 is hiring W1,hire,sentence,NA,NA,NA,NA,NA
6409,NA,NA,NA,NA,survey-likert-extra-labels,90,465093,0.0-48.0-1.0,anomymised,6560c4cfd080ba12b16d8282,6564c8a28e53636c7e4efc6d,47055,1A,man,NA,NA,Somebody says<br><em>Fred is hiring Ruth,hire,rating_volition,"{""Q0"":0}",[0],Fred is employing Ruth,Ruth is employing Fred,NA
null,Somebody says<br><em>Kate is being challenged by Ruth</em>,NA,NA,NA,html-keyboard-response,91,467094,0.0-49.0-0.0,anomymised,6560c4cfd080ba12b16d8282,6564c8a28e53636c7e4efc6d,47055,1A,man,NA,null,NAME1 is being challenged by NAME2,challenge_passive,sentence,NA,NA,NA,NA,NA
5865,NA,NA,NA,NA,survey-likert-extra-labels,92,472960,0.0-49.0-1.0,anomymised,6560c4cfd080ba12b16d8282,6564c8a28e53636c7e4efc6d,47055,1A,man,NA,NA,Somebody says<br><em>Kate is being challenged by Ruth</em>,challenge_passive,rating_volition,"{""Q0"":5}",[0],The speaker identifies more with <br>Kate than Ruth,The speaker identifies more with<br>Ruth than Kate,left_to_right
null,Somebody says<br><em>Luke is driving Fred,NA,NA,NA,html-keyboard-response,93,474966,0.0-50.0-0.0,anomymised,6560c4cfd080ba12b16d8282,6564c8a28e53636c7e4efc6d,47055,1A,man,NA,null,M1 is driving M3,drive,sentence,NA,NA,NA,NA,NA
6293,NA,NA,NA,NA,survey-likert-extra-labels,94,481262,0.0-50.0-1.0,anomymised,6560c4cfd080ba12b16d8282,6564c8a28e53636c7e4efc6d,47055,1A,man,NA,NA,Somebody says<br><em>Luke is driving Fred,drive,rating_volition,"{""Q0"":6}",[0],Luke is Fred's passenger,Fred is Luke's passenger,NA
null,Somebody says<br><em>Ruth and Kate are fighting with each other</em>,NA,NA,NA,html-keyboard-response,95,483268,0.0-51.0-0.0,anomymised,6560c4cfd080ba12b16d8282,6564c8a28e53636c7e4efc6d,47055,1A,man,NA,null,NAME1 and NAME2 are fighting with each other,fight_conjoined,sentence,NA,NA,NA,NA,NA
3259,NA,NA,NA,NA,survey-likert-extra-labels,96,486528,0.0-51.0-1.0,anomymised,6560c4cfd080ba12b16d8282,6564c8a28e53636c7e4efc6d,47055,1A,man,NA,NA,Somebody says<br><em>Ruth and Kate are fighting with each other</em>,fight_conjoined,rating_volition,"{""Q0"":3}",[0],The speaker identifies more with <br>Kate than Ruth,The speaker identifies more with<br>Ruth than Kate,right_to_left
null,Somebody says<br><em>Kate is copying Ruth</em>,NA,NA,NA,html-keyboard-response,97,488531,0.0-52.0-0.0,anomymised,6560c4cfd080ba12b16d8282,6564c8a28e53636c7e4efc6d,47055,1A,man,NA,null,NAME1 is copying NAME2,copy_active,sentence,NA,NA,NA,NA,NA
5063,NA,NA,NA,NA,survey-likert-extra-labels,98,493595,0.0-52.0-1.0,anomymised,6560c4cfd080ba12b16d8282,6564c8a28e53636c7e4efc6d,47055,1A,man,NA,NA,Somebody says<br><em>Kate is copying Ruth</em>,copy_active,rating_volition,"{""Q0"":5}",[0],The speaker identifies more with <br>Kate than Ruth,The speaker identifies more with<br>Ruth than Kate,left_to_right
null,Somebody says<br><em>Jane is carrying Beth,NA,NA,NA,html-keyboard-response,99,495758,0.0-53.0-0.0,anomymised,6560c4cfd080ba12b16d8282,6564c8a28e53636c7e4efc6d,47055,1A,man,NA,null,W2 is carrying W4,carry,sentence,NA,NA,NA,NA,NA
5902,NA,NA,NA,NA,survey-likert-extra-labels,100,501663,0.0-53.0-1.0,anomymised,6560c4cfd080ba12b16d8282,6564c8a28e53636c7e4efc6d,47055,1A,man,NA,NA,Somebody says<br><em>Jane is carrying Beth,carry,rating_volition,"{""Q0"":0}",[0],Jane is transporting Beth,Beth is transporting Jane,NA
null,Somebody says<br><em>Mike and Dave are playing with each other</em>,NA,NA,NA,html-keyboard-response,101,503666,0.0-54.0-0.0,anomymised,6560c4cfd080ba12b16d8282,6564c8a28e53636c7e4efc6d,47055,1A,man,NA,null,NAME1 and NAME2 are playing with each other,play_conjoined,sentence,NA,NA,NA,NA,NA
3412,NA,NA,NA,NA,survey-likert-extra-labels,102,507080,0.0-54.0-1.0,anomymised,6560c4cfd080ba12b16d8282,6564c8a28e53636c7e4efc6d,47055,1A,man,NA,NA,Somebody says<br><em>Mike and Dave are playing with each other</em>,play_conjoined,rating_volition,"{""Q0"":3}",[0],The speaker identifies more with <br>Mike than Dave,The speaker identifies more with<br>Dave than Mike,left_to_right
null,Somebody says<br><em>Luke is being looked at by Mike</em>,NA,NA,NA,html-keyboard-response,103,509084,0.0-55.0-0.0,anomymised,6560c4cfd080ba12b16d8282,6564c8a28e53636c7e4efc6d,47055,1A,man,NA,null,NAME1 is being looked at by NAME2,look_passive,sentence,NA,NA,NA,NA,NA
6762,NA,NA,NA,NA,survey-likert-extra-labels,104,515849,0.0-55.0-1.0,anomymised,6560c4cfd080ba12b16d8282,6564c8a28e53636c7e4efc6d,47055,1A,man,NA,NA,Somebody says<br><em>Luke is being looked at by Mike</em>,look_passive,rating_volition,"{""Q0"":2}",[0],The speaker identifies more with <br>Mike than Luke,The speaker identifies more with<br>Luke than Mike,right_to_left
2010,<p>Thank you for completing that task.</p><p>The final part of this session is a short questionnaire.</p><p>Press Continue.</p>,0,Continue,Continue,html-button-response,105,517862,0.0-56.0,anomymised,6560c4cfd080ba12b16d8282,6564c8a28e53636c7e4efc6d,47055,1A,man,NA,NA,NA,NA,NA,NA,NA,NA,NA,NA
31041,NA,NA,NA,NA,survey-text,106,549919,0.0-57.0,anomymised,6560c4cfd080ba12b16d8282,6564c8a28e53636c7e4efc6d,47055,1A,man,NA,NA,NA,NA,demographics,"{""Q0"":""48"",""Q1"":""English"",""Q2"":""English"",""Q3"":""Scotland"",""Q4"":""Scottish"",""Q5"":""White"",""Q6"":""Male""}",NA,NA,NA,NA
4145,<p>This is the last question - thank you for taking part! Have you lived in the UK for the last 5 years or more?</p>,0,"Yes,No",Yes,html-button-response,107,554065,0.0-58.0,anomymised,6560c4cfd080ba12b16d8282,6564c8a28e53636c7e4efc6d,47055,1A,man,NA,NA,NA,NA,fiveyears,NA,NA,NA,NA,NA
