rt,stimulus,button_pressed,choices,ChosenStimulus,trial_type,trial_index,time_elapsed,internal_node_id,subject_id,study_id,session_id,subject,list,ppt_gender,url,key_press,sentence_type,verb,test_part,responses,question_order,left_part,right_part,name_order
28114,Welcome to the experiment. Press Continue to begin.,0,Continue,Continue,html-button-response,0,28118,0.0-0.0,anomymised,6560c4cfd080ba12b16d8282,6564c8ac96e6e314977721ed,47593,1A,man,NA,NA,NA,NA,NA,NA,NA,NA,NA,NA
48640,NA,NA,NA,NA,external-html,1,78273,0.0-1.0,anomymised,6560c4cfd080ba12b16d8282,6564c8ac96e6e314977721ed,47593,1A,man,consent.html,NA,NA,NA,NA,NA,NA,NA,NA,NA
18161,"<p>Welcome.</p><p>In this experiment we will ask you to imagine people's motivations for saying sentences.</p><p>Each trial will begin with a sentence that somebody might say to describe an event involving two different people.</p><p>For instance, someone might say <em>Harry is being recruited by Molly</em></p><p>We want you to think about which of those two people (Molly and Harry) the speaker identifies more with. For instance, why did the speaker say <em>Harry is being recruited by Molly</em> rather than <em> Molly is recruiting Harry</em>? Might that mean that the speaker is socially closer to one of the two characters?</p><p>After you have read the sentence, you will rate on a scale which of the two characters the speaker identifies more with.</p><p>You will give your answer by clicking a button on a rating scale.</p><p>Sometimes there will also be catch questions designed to make sure that you are paying attention, which ask about a different topic.</p><p>To do this task, you will have to use your imagination to think about and visualise the events, and how the speaker might relate to the characters.</p><br><p>Ready?</p>",0,Continue,Continue,html-button-response,2,96436,0.0-2.0,anomymised,6560c4cfd080ba12b16d8282,6564c8ac96e6e314977721ed,47593,1A,man,NA,NA,NA,NA,NA,NA,NA,NA,NA,NA
2138,"<p>Before the experiment starts, we will show you an example of how you will answer the questions. Press 'Continue'.</p>",0,Continue,Continue,html-button-response,3,99583,0.0-3.0,anomymised,6560c4cfd080ba12b16d8282,6564c8ac96e6e314977721ed,47593,1A,man,NA,NA,NA,NA,NA,NA,NA,NA,NA,NA
null,Somebody says <br><em>Samuel is dining with Frank</em>,NA,NA,NA,html-keyboard-response,4,102596,0.0-4.0,anomymised,6560c4cfd080ba12b16d8282,6564c8ac96e6e314977721ed,47593,1A,man,NA,null,NA,NA,NA,NA,NA,NA,NA,NA
10016,<img src='img/Example-trial.jpg' style='height:550px;''></img>,0,Continue,Continue,html-button-response,5,112613,0.0-5.0,anomymised,6560c4cfd080ba12b16d8282,6564c8ac96e6e314977721ed,47593,1A,man,NA,NA,NA,NA,NA,NA,NA,NA,NA,NA
12147,<p>Ready to start the experiment?</p><br><p><strong>Remember to give an answer by clicking a button on the rating scale.</strong></p><p>Press 'Continue' to begin.</p>,0,Continue,Continue,html-button-response,6,125769,0.0-6.0,anomymised,6560c4cfd080ba12b16d8282,6564c8ac96e6e314977721ed,47593,1A,man,NA,NA,NA,NA,NA,NA,NA,NA,NA,NA
null,Somebody says<br><em>Ruth is being copied by Dave</em>,NA,NA,NA,html-keyboard-response,7,128782,0.0-7.0-0.0,anomymised,6560c4cfd080ba12b16d8282,6564c8ac96e6e314977721ed,47593,1A,man,NA,null,NAME1 is being copied by NAME2,copy_passive,sentence,NA,NA,NA,NA,NA
4970,NA,NA,NA,NA,survey-likert-extra-labels,8,133753,0.0-7.0-1.0,anomymised,6560c4cfd080ba12b16d8282,6564c8ac96e6e314977721ed,47593,1A,man,NA,NA,Somebody says<br><em>Ruth is being copied by Dave</em>,copy_passive,rating_volition,"{""Q0"":6}",[0],The speaker identifies more with <br>Dave than Ruth,The speaker identifies more with<br>Ruth than Dave,right_to_left
null,Somebody says<br><em>Fred is being opposed by Beth</em>,NA,NA,NA,html-keyboard-response,9,135756,0.0-8.0-0.0,anomymised,6560c4cfd080ba12b16d8282,6564c8ac96e6e314977721ed,47593,1A,man,NA,null,NAME1 is being opposed by NAME2,oppose_passive,sentence,NA,NA,NA,NA,NA
4226,NA,NA,NA,NA,survey-likert-extra-labels,10,139984,0.0-8.0-1.0,anomymised,6560c4cfd080ba12b16d8282,6564c8ac96e6e314977721ed,47593,1A,man,NA,NA,Somebody says<br><em>Fred is being opposed by Beth</em>,oppose_passive,rating_volition,"{""Q0"":6}",[0],The speaker identifies more with <br>Beth than Fred,The speaker identifies more with<br>Fred than Beth,right_to_left
null,Somebody says<br><em>Mike and Jane are playing with each other</em>,NA,NA,NA,html-keyboard-response,11,141999,0.0-9.0-0.0,anomymised,6560c4cfd080ba12b16d8282,6564c8ac96e6e314977721ed,47593,1A,man,NA,null,NAME1 and NAME2 are playing with each other,play_conjoined,sentence,NA,NA,NA,NA,NA
4745,NA,NA,NA,NA,survey-likert-extra-labels,12,146744,0.0-9.0-1.0,anomymised,6560c4cfd080ba12b16d8282,6564c8ac96e6e314977721ed,47593,1A,man,NA,NA,Somebody says<br><em>Mike and Jane are playing with each other</em>,play_conjoined,rating_volition,"{""Q0"":0}",[0],The speaker identifies more with <br>Mike than Jane,The speaker identifies more with<br>Jane than Mike,left_to_right
null,Somebody says<br><em>Fred is copying Jane</em>,NA,NA,NA,html-keyboard-response,13,148937,0.0-10.0-0.0,anomymised,6560c4cfd080ba12b16d8282,6564c8ac96e6e314977721ed,47593,1A,man,NA,null,NAME1 is copying NAME2,copy_active,sentence,NA,NA,NA,NA,NA
7316,NA,NA,NA,NA,survey-likert-extra-labels,14,156256,0.0-10.0-1.0,anomymised,6560c4cfd080ba12b16d8282,6564c8ac96e6e314977721ed,47593,1A,man,NA,NA,Somebody says<br><em>Fred is copying Jane</em>,copy_active,rating_volition,"{""Q0"":6}",[0],The speaker identifies more with <br>Fred than Jane,The speaker identifies more with<br>Jane than Fred,left_to_right
null,Somebody says<br><em>Mike is being greeted by Luke</em>,NA,NA,NA,html-keyboard-response,15,158269,0.0-11.0-0.0,anomymised,6560c4cfd080ba12b16d8282,6564c8ac96e6e314977721ed,47593,1A,man,NA,null,NAME1 is being greeted by NAME2,greet_passive,sentence,NA,NA,NA,NA,NA
3475,NA,NA,NA,NA,survey-likert-extra-labels,16,161744,0.0-11.0-1.0,anomymised,6560c4cfd080ba12b16d8282,6564c8ac96e6e314977721ed,47593,1A,man,NA,NA,Somebody says<br><em>Mike is being greeted by Luke</em>,greet_passive,rating_volition,"{""Q0"":6}",[0],The speaker identifies more with <br>Luke than Mike,The speaker identifies more with<br>Mike than Luke,right_to_left
null,Somebody says<br><em>Ruth is dancing with Fred</em>,NA,NA,NA,html-keyboard-response,17,164003,0.0-12.0-0.0,anomymised,6560c4cfd080ba12b16d8282,6564c8ac96e6e314977721ed,47593,1A,man,NA,null,NAME1 is dancing with NAME2,dance_active,sentence,NA,NA,NA,NA,NA
2454,NA,NA,NA,NA,survey-likert-extra-labels,18,166459,0.0-12.0-1.0,anomymised,6560c4cfd080ba12b16d8282,6564c8ac96e6e314977721ed,47593,1A,man,NA,NA,Somebody says<br><em>Ruth is dancing with Fred</em>,dance_active,rating_volition,"{""Q0"":0}",[0],The speaker identifies more with <br>Ruth than Fred,The speaker identifies more with<br>Fred than Ruth,left_to_right
null,Somebody says<br><em>Jane is teaching Dave,NA,NA,NA,html-keyboard-response,19,168465,0.0-13.0-0.0,anomymised,6560c4cfd080ba12b16d8282,6564c8ac96e6e314977721ed,47593,1A,man,NA,null,W2 is teaching M4,teach,sentence,NA,NA,NA,NA,NA
12031,NA,NA,NA,NA,survey-likert-extra-labels,20,180497,0.0-13.0-1.0,anomymised,6560c4cfd080ba12b16d8282,6564c8ac96e6e314977721ed,47593,1A,man,NA,NA,Somebody says<br><em>Jane is teaching Dave,teach,rating_volition,"{""Q0"":0}",[0],Jane is educating Dave,Dave is educating Jane,NA
null,Somebody says<br><em>Jane is greeting Dave</em>,NA,NA,NA,html-keyboard-response,21,182512,0.0-14.0-0.0,anomymised,6560c4cfd080ba12b16d8282,6564c8ac96e6e314977721ed,47593,1A,man,NA,null,NAME1 is greeting NAME2,greet_active,sentence,NA,NA,NA,NA,NA
4292,NA,NA,NA,NA,survey-likert-extra-labels,22,186805,0.0-14.0-1.0,anomymised,6560c4cfd080ba12b16d8282,6564c8ac96e6e314977721ed,47593,1A,man,NA,NA,Somebody says<br><em>Jane is greeting Dave</em>,greet_active,rating_volition,"{""Q0"":6}",[0],The speaker identifies more with <br>Dave than Jane,The speaker identifies more with<br>Jane than Dave,right_to_left
null,Somebody says<br><em>Dave is seducing Mike</em>,NA,NA,NA,html-keyboard-response,23,188984,0.0-15.0-0.0,anomymised,6560c4cfd080ba12b16d8282,6564c8ac96e6e314977721ed,47593,1A,man,NA,null,NAME1 is seducing NAME2,seduce_active,sentence,NA,NA,NA,NA,NA
7626,NA,NA,NA,NA,survey-likert-extra-labels,24,196612,0.0-15.0-1.0,anomymised,6560c4cfd080ba12b16d8282,6564c8ac96e6e314977721ed,47593,1A,man,NA,NA,Somebody says<br><em>Dave is seducing Mike</em>,seduce_active,rating_volition,"{""Q0"":0}",[0],The speaker identifies more with <br>Dave than Mike,The speaker identifies more with<br>Mike than Dave,left_to_right
null,Somebody says<br><em>Fred is being challenged by Luke</em>,NA,NA,NA,html-keyboard-response,25,198621,0.0-16.0-0.0,anomymised,6560c4cfd080ba12b16d8282,6564c8ac96e6e314977721ed,47593,1A,man,NA,null,NAME1 is being challenged by NAME2,challenge_passive,sentence,NA,NA,NA,NA,NA
6677,NA,NA,NA,NA,survey-likert-extra-labels,26,205299,0.0-16.0-1.0,anomymised,6560c4cfd080ba12b16d8282,6564c8ac96e6e314977721ed,47593,1A,man,NA,NA,Somebody says<br><em>Fred is being challenged by Luke</em>,challenge_passive,rating_volition,"{""Q0"":0}",[0],The speaker identifies more with <br>Fred than Luke,The speaker identifies more with<br>Luke than Fred,left_to_right
null,Somebody says<br><em>Ruth and Dave are fighting with each other</em>,NA,NA,NA,html-keyboard-response,27,207305,0.0-17.0-0.0,anomymised,6560c4cfd080ba12b16d8282,6564c8ac96e6e314977721ed,47593,1A,man,NA,null,NAME1 and NAME2 are fighting with each other,fight_conjoined,sentence,NA,NA,NA,NA,NA
6944,NA,NA,NA,NA,survey-likert-extra-labels,28,214249,0.0-17.0-1.0,anomymised,6560c4cfd080ba12b16d8282,6564c8ac96e6e314977721ed,47593,1A,man,NA,NA,Somebody says<br><em>Ruth and Dave are fighting with each other</em>,fight_conjoined,rating_volition,"{""Q0"":6}",[0],The speaker identifies more with <br>Dave than Ruth,The speaker identifies more with<br>Ruth than Dave,right_to_left
null,Somebody says<br><em>Jane is being shouted at by Beth</em>,NA,NA,NA,html-keyboard-response,29,216260,0.0-18.0-0.0,anomymised,6560c4cfd080ba12b16d8282,6564c8ac96e6e314977721ed,47593,1A,man,NA,null,NAME1 is being shouted at by NAME2,shout_passive,sentence,NA,NA,NA,NA,NA
4252,NA,NA,NA,NA,survey-likert-extra-labels,30,220513,0.0-18.0-1.0,anomymised,6560c4cfd080ba12b16d8282,6564c8ac96e6e314977721ed,47593,1A,man,NA,NA,Somebody says<br><em>Jane is being shouted at by Beth</em>,shout_passive,rating_volition,"{""Q0"":6}",[0],The speaker identifies more with <br>Beth than Jane,The speaker identifies more with<br>Jane than Beth,right_to_left
null,Somebody says<br><em>Ruth is talking to Fred</em>,NA,NA,NA,html-keyboard-response,31,222523,0.0-19.0-0.0,anomymised,6560c4cfd080ba12b16d8282,6564c8ac96e6e314977721ed,47593,1A,man,NA,null,NAME1 is talking to NAME2,talk_active,sentence,NA,NA,NA,NA,NA
3441,NA,NA,NA,NA,survey-likert-extra-labels,32,225964,0.0-19.0-1.0,anomymised,6560c4cfd080ba12b16d8282,6564c8ac96e6e314977721ed,47593,1A,man,NA,NA,Somebody says<br><em>Ruth is talking to Fred</em>,talk_active,rating_volition,"{""Q0"":6}",[0],The speaker identifies more with <br>Fred than Ruth,The speaker identifies more with<br>Ruth than Fred,right_to_left
null,Somebody says<br><em>Kate is being touched by Fred</em>,NA,NA,NA,html-keyboard-response,33,227976,0.0-20.0-0.0,anomymised,6560c4cfd080ba12b16d8282,6564c8ac96e6e314977721ed,47593,1A,man,NA,null,NAME1 is being touched by NAME2,touch_passive,sentence,NA,NA,NA,NA,NA
2882,NA,NA,NA,NA,survey-likert-extra-labels,34,230858,0.0-20.0-1.0,anomymised,6560c4cfd080ba12b16d8282,6564c8ac96e6e314977721ed,47593,1A,man,NA,NA,Somebody says<br><em>Kate is being touched by Fred</em>,touch_passive,rating_volition,"{""Q0"":6}",[0],The speaker identifies more with <br>Fred than Kate,The speaker identifies more with<br>Kate than Fred,right_to_left
null,Somebody says<br><em>Dave and Kate are kissing each other</em>,NA,NA,NA,html-keyboard-response,35,232862,0.0-21.0-0.0,anomymised,6560c4cfd080ba12b16d8282,6564c8ac96e6e314977721ed,47593,1A,man,NA,null,NAME1 and NAME2 are kissing each other,kiss_conjoined,sentence,NA,NA,NA,NA,NA
7028,NA,NA,NA,NA,survey-likert-extra-labels,36,239889,0.0-21.0-1.0,anomymised,6560c4cfd080ba12b16d8282,6564c8ac96e6e314977721ed,47593,1A,man,NA,NA,Somebody says<br><em>Dave and Kate are kissing each other</em>,kiss_conjoined,rating_volition,"{""Q0"":6}",[0],The speaker identifies more with <br>Kate than Dave,The speaker identifies more with<br>Dave than Kate,right_to_left
null,Somebody says<br><em>Mike is shouting at Dave</em>,NA,NA,NA,html-keyboard-response,37,241891,0.0-22.0-0.0,anomymised,6560c4cfd080ba12b16d8282,6564c8ac96e6e314977721ed,47593,1A,man,NA,null,NAME1 is shouting at NAME2,shout_active,sentence,NA,NA,NA,NA,NA
2539,NA,NA,NA,NA,survey-likert-extra-labels,38,244430,0.0-22.0-1.0,anomymised,6560c4cfd080ba12b16d8282,6564c8ac96e6e314977721ed,47593,1A,man,NA,NA,Somebody says<br><em>Mike is shouting at Dave</em>,shout_active,rating_volition,"{""Q0"":6}",[0],The speaker identifies more with <br>Dave than Mike,The speaker identifies more with<br>Mike than Dave,right_to_left
null,Somebody says<br><em>Beth is looking at Ruth</em>,NA,NA,NA,html-keyboard-response,39,246439,0.0-23.0-0.0,anomymised,6560c4cfd080ba12b16d8282,6564c8ac96e6e314977721ed,47593,1A,man,NA,null,NAME1 is looking at NAME2,look_active,sentence,NA,NA,NA,NA,NA
3177,NA,NA,NA,NA,survey-likert-extra-labels,40,249618,0.0-23.0-1.0,anomymised,6560c4cfd080ba12b16d8282,6564c8ac96e6e314977721ed,47593,1A,man,NA,NA,Somebody says<br><em>Beth is looking at Ruth</em>,look_active,rating_volition,"{""Q0"":0}",[0],The speaker identifies more with <br>Beth than Ruth,The speaker identifies more with<br>Ruth than Beth,left_to_right
null,Somebody says<br><em>Luke is arguing with Kate</em>,NA,NA,NA,html-keyboard-response,41,251624,0.0-24.0-0.0,anomymised,6560c4cfd080ba12b16d8282,6564c8ac96e6e314977721ed,47593,1A,man,NA,null,NAME1 is arguing with NAME2,argue_active,sentence,NA,NA,NA,NA,NA
4017,NA,NA,NA,NA,survey-likert-extra-labels,42,255642,0.0-24.0-1.0,anomymised,6560c4cfd080ba12b16d8282,6564c8ac96e6e314977721ed,47593,1A,man,NA,NA,Somebody says<br><em>Luke is arguing with Kate</em>,argue_active,rating_volition,"{""Q0"":6}",[0],The speaker identifies more with <br>Kate than Luke,The speaker identifies more with<br>Luke than Kate,right_to_left
null,Somebody says<br><em>Kate is touching Jane</em>,NA,NA,NA,html-keyboard-response,43,257682,0.0-25.0-0.0,anomymised,6560c4cfd080ba12b16d8282,6564c8ac96e6e314977721ed,47593,1A,man,NA,null,NAME1 is touching NAME2,touch_active,sentence,NA,NA,NA,NA,NA
43779,NA,NA,NA,NA,survey-likert-extra-labels,44,301463,0.0-25.0-1.0,anomymised,6560c4cfd080ba12b16d8282,6564c8ac96e6e314977721ed,47593,1A,man,NA,NA,Somebody says<br><em>Kate is touching Jane</em>,touch_active,rating_volition,"{""Q0"":0}",[0],The speaker identifies more with <br>Kate than Jane,The speaker identifies more with<br>Jane than Kate,left_to_right
null,Somebody says<br><em>Ruth and Kate are meeting each other</em>,NA,NA,NA,html-keyboard-response,45,303468,0.0-26.0-0.0,anomymised,6560c4cfd080ba12b16d8282,6564c8ac96e6e314977721ed,47593,1A,man,NA,null,NAME1 and NAME2 are meeting each other,meet_conjoined,sentence,NA,NA,NA,NA,NA
5602,NA,NA,NA,NA,survey-likert-extra-labels,46,309070,0.0-26.0-1.0,anomymised,6560c4cfd080ba12b16d8282,6564c8ac96e6e314977721ed,47593,1A,man,NA,NA,Somebody says<br><em>Ruth and Kate are meeting each other</em>,meet_conjoined,rating_volition,"{""Q0"":0}",[0],The speaker identifies more with <br>Ruth than Kate,The speaker identifies more with<br>Kate than Ruth,left_to_right
null,Somebody says<br><em>Beth and Ruth are shouting at each other</em>,NA,NA,NA,html-keyboard-response,47,311077,0.0-27.0-0.0,anomymised,6560c4cfd080ba12b16d8282,6564c8ac96e6e314977721ed,47593,1A,man,NA,null,NAME1 and NAME2 are shouting at each other,shout_conjoined,sentence,NA,NA,NA,NA,NA
8952,NA,NA,NA,NA,survey-likert-extra-labels,48,320029,0.0-27.0-1.0,anomymised,6560c4cfd080ba12b16d8282,6564c8ac96e6e314977721ed,47593,1A,man,NA,NA,Somebody says<br><em>Beth and Ruth are shouting at each other</em>,shout_conjoined,rating_volition,"{""Q0"":6}",[0],The speaker identifies more with <br>Ruth than Beth,The speaker identifies more with<br>Beth than Ruth,right_to_left
null,Somebody says<br><em>Jane is shouting at Fred</em>,NA,NA,NA,html-keyboard-response,49,322273,0.0-28.0-0.0,anomymised,6560c4cfd080ba12b16d8282,6564c8ac96e6e314977721ed,47593,1A,man,NA,null,NAME1 is shouting at NAME2,shout_active,sentence,NA,NA,NA,NA,NA
4736,NA,NA,NA,NA,survey-likert-extra-labels,50,327010,0.0-28.0-1.0,anomymised,6560c4cfd080ba12b16d8282,6564c8ac96e6e314977721ed,47593,1A,man,NA,NA,Somebody says<br><em>Jane is shouting at Fred</em>,shout_active,rating_volition,"{""Q0"":6}",[0],The speaker identifies more with <br>Fred than Jane,The speaker identifies more with<br>Jane than Fred,right_to_left
null,Somebody says<br><em>Jane and Mike are talking with each other</em>,NA,NA,NA,html-keyboard-response,51,329025,0.0-29.0-0.0,anomymised,6560c4cfd080ba12b16d8282,6564c8ac96e6e314977721ed,47593,1A,man,NA,null,NAME1 and NAME2 are talking with each other,talk_conjoined,sentence,NA,NA,NA,NA,NA
4842,NA,NA,NA,NA,survey-likert-extra-labels,52,333869,0.0-29.0-1.0,anomymised,6560c4cfd080ba12b16d8282,6564c8ac96e6e314977721ed,47593,1A,man,NA,NA,Somebody says<br><em>Jane and Mike are talking with each other</em>,talk_conjoined,rating_volition,"{""Q0"":0}",[0],The speaker identifies more with <br>Jane than Mike,The speaker identifies more with<br>Mike than Jane,left_to_right
null,Somebody says<br><em>Kate is feeding Luke,NA,NA,NA,html-keyboard-response,53,335879,0.0-30.0-0.0,anomymised,6560c4cfd080ba12b16d8282,6564c8ac96e6e314977721ed,47593,1A,man,NA,null,W3 is feeding M1,feed,sentence,NA,NA,NA,NA,NA
4901,NA,NA,NA,NA,survey-likert-extra-labels,54,340780,0.0-30.0-1.0,anomymised,6560c4cfd080ba12b16d8282,6564c8ac96e6e314977721ed,47593,1A,man,NA,NA,Somebody says<br><em>Kate is feeding Luke,feed,rating_volition,"{""Q0"":0}",[0],Kate cooked for Luke,Luke cooked for Kate,NA
null,Somebody says<br><em>Ruth is opposing Dave</em>,NA,NA,NA,html-keyboard-response,55,342795,0.0-31.0-0.0,anomymised,6560c4cfd080ba12b16d8282,6564c8ac96e6e314977721ed,47593,1A,man,NA,null,NAME1 is opposing NAME2,oppose_active,sentence,NA,NA,NA,NA,NA
9439,NA,NA,NA,NA,survey-likert-extra-labels,56,352235,0.0-31.0-1.0,anomymised,6560c4cfd080ba12b16d8282,6564c8ac96e6e314977721ed,47593,1A,man,NA,NA,Somebody says<br><em>Ruth is opposing Dave</em>,oppose_active,rating_volition,"{""Q0"":6}",[0],The speaker identifies more with <br>Dave than Ruth,The speaker identifies more with<br>Ruth than Dave,right_to_left
null,Somebody says<br><em>Luke and Beth are arguing with each other</em>,NA,NA,NA,html-keyboard-response,57,354246,0.0-32.0-0.0,anomymised,6560c4cfd080ba12b16d8282,6564c8ac96e6e314977721ed,47593,1A,man,NA,null,NAME1 and NAME2 are arguing with each other,argue_conjoined,sentence,NA,NA,NA,NA,NA
3980,NA,NA,NA,NA,survey-likert-extra-labels,58,358227,0.0-32.0-1.0,anomymised,6560c4cfd080ba12b16d8282,6564c8ac96e6e314977721ed,47593,1A,man,NA,NA,Somebody says<br><em>Luke and Beth are arguing with each other</em>,argue_conjoined,rating_volition,"{""Q0"":6}",[0],The speaker identifies more with <br>Beth than Luke,The speaker identifies more with<br>Luke than Beth,right_to_left
null,Somebody says<br><em>Jane is meeting Fred</em>,NA,NA,NA,html-keyboard-response,59,360238,0.0-33.0-0.0,anomymised,6560c4cfd080ba12b16d8282,6564c8ac96e6e314977721ed,47593,1A,man,NA,null,NAME1 is meeting NAME2,meet_active,sentence,NA,NA,NA,NA,NA
3468,NA,NA,NA,NA,survey-likert-extra-labels,60,363707,0.0-33.0-1.0,anomymised,6560c4cfd080ba12b16d8282,6564c8ac96e6e314977721ed,47593,1A,man,NA,NA,Somebody says<br><em>Jane is meeting Fred</em>,meet_active,rating_volition,"{""Q0"":6}",[0],The speaker identifies more with <br>Fred than Jane,The speaker identifies more with<br>Jane than Fred,right_to_left
null,Somebody says<br><em>Luke and Fred are marrying each other</em>,NA,NA,NA,html-keyboard-response,61,365709,0.0-34.0-0.0,anomymised,6560c4cfd080ba12b16d8282,6564c8ac96e6e314977721ed,47593,1A,man,NA,null,NAME1 and NAME2 are marrying each other,marry_conjoined,sentence,NA,NA,NA,NA,NA
4823,NA,NA,NA,NA,survey-likert-extra-labels,62,370532,0.0-34.0-1.0,anomymised,6560c4cfd080ba12b16d8282,6564c8ac96e6e314977721ed,47593,1A,man,NA,NA,Somebody says<br><em>Luke and Fred are marrying each other</em>,marry_conjoined,rating_volition,"{""Q0"":6}",[0],The speaker identifies more with <br>Fred than Luke,The speaker identifies more with<br>Luke than Fred,right_to_left
null,Somebody says<br><em>Luke is fighting with Kate</em>,NA,NA,NA,html-keyboard-response,63,372547,0.0-35.0-0.0,anomymised,6560c4cfd080ba12b16d8282,6564c8ac96e6e314977721ed,47593,1A,man,NA,null,NAME1 is fighting with NAME2,fight_active,sentence,NA,NA,NA,NA,NA
9933,NA,NA,NA,NA,survey-likert-extra-labels,64,382481,0.0-35.0-1.0,anomymised,6560c4cfd080ba12b16d8282,6564c8ac96e6e314977721ed,47593,1A,man,NA,NA,Somebody says<br><em>Luke is fighting with Kate</em>,fight_active,rating_volition,"{""Q0"":6}",[0],The speaker identifies more with <br>Kate than Luke,The speaker identifies more with<br>Luke than Kate,right_to_left
null,Somebody says<br><em>Luke and Mike are touching each other</em>,NA,NA,NA,html-keyboard-response,65,384485,0.0-36.0-0.0,anomymised,6560c4cfd080ba12b16d8282,6564c8ac96e6e314977721ed,47593,1A,man,NA,null,NAME1 and NAME2 are touching each other,touch_conjoined,sentence,NA,NA,NA,NA,NA
6262,NA,NA,NA,NA,survey-likert-extra-labels,66,390749,0.0-36.0-1.0,anomymised,6560c4cfd080ba12b16d8282,6564c8ac96e6e314977721ed,47593,1A,man,NA,NA,Somebody says<br><em>Luke and Mike are touching each other</em>,touch_conjoined,rating_volition,"{""Q0"":6}",[0],The speaker identifies more with <br>Mike than Luke,The speaker identifies more with<br>Luke than Mike,right_to_left
null,Somebody says<br><em>Luke is being kissed by Dave</em>,NA,NA,NA,html-keyboard-response,67,392760,0.0-37.0-0.0,anomymised,6560c4cfd080ba12b16d8282,6564c8ac96e6e314977721ed,47593,1A,man,NA,null,NAME1 is being kissed by NAME2,kiss_passive,sentence,NA,NA,NA,NA,NA
6880,NA,NA,NA,NA,survey-likert-extra-labels,68,399641,0.0-37.0-1.0,anomymised,6560c4cfd080ba12b16d8282,6564c8ac96e6e314977721ed,47593,1A,man,NA,NA,Somebody says<br><em>Luke is being kissed by Dave</em>,kiss_passive,rating_volition,"{""Q0"":6}",[0],The speaker identifies more with <br>Dave than Luke,The speaker identifies more with<br>Luke than Dave,right_to_left
null,Somebody says<br><em>Ruth is chasing Kate,NA,NA,NA,html-keyboard-response,69,401798,0.0-38.0-0.0,anomymised,6560c4cfd080ba12b16d8282,6564c8ac96e6e314977721ed,47593,1A,man,NA,null,W1 is chasing W3,chase,sentence,NA,NA,NA,NA,NA
6604,NA,NA,NA,NA,survey-likert-extra-labels,70,408403,0.0-38.0-1.0,anomymised,6560c4cfd080ba12b16d8282,6564c8ac96e6e314977721ed,47593,1A,man,NA,NA,Somebody says<br><em>Ruth is chasing Kate,chase,rating_volition,"{""Q0"":0}",[0],Ruth is behind Kate,Kate is behind Ruth,NA
null,Somebody says<br><em>Kate is being looked at by Luke</em>,NA,NA,NA,html-keyboard-response,71,410413,0.0-39.0-0.0,anomymised,6560c4cfd080ba12b16d8282,6564c8ac96e6e314977721ed,47593,1A,man,NA,null,NAME1 is being looked at by NAME2,look_passive,sentence,NA,NA,NA,NA,NA
3214,NA,NA,NA,NA,survey-likert-extra-labels,72,413628,0.0-39.0-1.0,anomymised,6560c4cfd080ba12b16d8282,6564c8ac96e6e314977721ed,47593,1A,man,NA,NA,Somebody says<br><em>Kate is being looked at by Luke</em>,look_passive,rating_volition,"{""Q0"":6}",[0],The speaker identifies more with <br>Luke than Kate,The speaker identifies more with<br>Kate than Luke,right_to_left
null,Somebody says<br><em>Jane is carrying Beth,NA,NA,NA,html-keyboard-response,73,416634,0.0-40.0-0.0,anomymised,6560c4cfd080ba12b16d8282,6564c8ac96e6e314977721ed,47593,1A,man,NA,null,W2 is carrying W4,carry,sentence,NA,NA,NA,NA,NA
6722,NA,NA,NA,NA,survey-likert-extra-labels,74,423357,0.0-40.0-1.0,anomymised,6560c4cfd080ba12b16d8282,6564c8ac96e6e314977721ed,47593,1A,man,NA,NA,Somebody says<br><em>Jane is carrying Beth,carry,rating_volition,"{""Q0"":0}",[0],Jane is transporting Beth,Beth is transporting Jane,NA
null,Somebody says<br><em>Fred is hiring Ruth,NA,NA,NA,html-keyboard-response,75,425368,0.0-41.0-0.0,anomymised,6560c4cfd080ba12b16d8282,6564c8ac96e6e314977721ed,47593,1A,man,NA,null,M3 is hiring W1,hire,sentence,NA,NA,NA,NA,NA
3463,NA,NA,NA,NA,survey-likert-extra-labels,76,428831,0.0-41.0-1.0,anomymised,6560c4cfd080ba12b16d8282,6564c8ac96e6e314977721ed,47593,1A,man,NA,NA,Somebody says<br><em>Fred is hiring Ruth,hire,rating_volition,"{""Q0"":0}",[0],Fred is employing Ruth,Ruth is employing Fred,NA
null,Somebody says<br><em>Beth is being hugged by Mike</em>,NA,NA,NA,html-keyboard-response,77,430837,0.0-42.0-0.0,anomymised,6560c4cfd080ba12b16d8282,6564c8ac96e6e314977721ed,47593,1A,man,NA,null,NAME1 is being hugged by NAME2,hug_passive,sentence,NA,NA,NA,NA,NA
5704,NA,NA,NA,NA,survey-likert-extra-labels,78,436541,0.0-42.0-1.0,anomymised,6560c4cfd080ba12b16d8282,6564c8ac96e6e314977721ed,47593,1A,man,NA,NA,Somebody says<br><em>Beth is being hugged by Mike</em>,hug_passive,rating_volition,"{""Q0"":6}",[0],The speaker identifies more with <br>Mike than Beth,The speaker identifies more with<br>Beth than Mike,right_to_left
null,Somebody says<br><em>Fred is flirting with Luke</em>,NA,NA,NA,html-keyboard-response,79,438544,0.0-43.0-0.0,anomymised,6560c4cfd080ba12b16d8282,6564c8ac96e6e314977721ed,47593,1A,man,NA,null,NAME1 is flirting with NAME2,flirt_active,sentence,NA,NA,NA,NA,NA
4645,NA,NA,NA,NA,survey-likert-extra-labels,80,443190,0.0-43.0-1.0,anomymised,6560c4cfd080ba12b16d8282,6564c8ac96e6e314977721ed,47593,1A,man,NA,NA,Somebody says<br><em>Fred is flirting with Luke</em>,flirt_active,rating_volition,"{""Q0"":6}",[0],The speaker identifies more with <br>Luke than Fred,The speaker identifies more with<br>Fred than Luke,right_to_left
null,Somebody says<br><em>Ruth is hugging Luke</em>,NA,NA,NA,html-keyboard-response,81,445198,0.0-44.0-0.0,anomymised,6560c4cfd080ba12b16d8282,6564c8ac96e6e314977721ed,47593,1A,man,NA,null,NAME1 is hugging NAME2,hug_active,sentence,NA,NA,NA,NA,NA
4095,NA,NA,NA,NA,survey-likert-extra-labels,82,449293,0.0-44.0-1.0,anomymised,6560c4cfd080ba12b16d8282,6564c8ac96e6e314977721ed,47593,1A,man,NA,NA,Somebody says<br><em>Ruth is hugging Luke</em>,hug_active,rating_volition,"{""Q0"":0}",[0],The speaker identifies more with <br>Ruth than Luke,The speaker identifies more with<br>Luke than Ruth,left_to_right
null,Somebody says<br><em>Luke is driving Fred,NA,NA,NA,html-keyboard-response,83,451297,0.0-45.0-0.0,anomymised,6560c4cfd080ba12b16d8282,6564c8ac96e6e314977721ed,47593,1A,man,NA,null,M1 is driving M3,drive,sentence,NA,NA,NA,NA,NA
5984,NA,NA,NA,NA,survey-likert-extra-labels,84,457283,0.0-45.0-1.0,anomymised,6560c4cfd080ba12b16d8282,6564c8ac96e6e314977721ed,47593,1A,man,NA,NA,Somebody says<br><em>Luke is driving Fred,drive,rating_volition,"{""Q0"":6}",[0],Luke is Fred's passenger,Fred is Luke's passenger,NA
null,Somebody says<br><em>Mike is posing for Dave,NA,NA,NA,html-keyboard-response,85,459452,0.0-46.0-0.0,anomymised,6560c4cfd080ba12b16d8282,6564c8ac96e6e314977721ed,47593,1A,man,NA,null,M2 is posing for M4,pose,sentence,NA,NA,NA,NA,NA
6776,NA,NA,NA,NA,survey-likert-extra-labels,86,466230,0.0-46.0-1.0,anomymised,6560c4cfd080ba12b16d8282,6564c8ac96e6e314977721ed,47593,1A,man,NA,NA,Somebody says<br><em>Mike is posing for Dave,pose,rating_volition,"{""Q0"":0}",[0],Mike is modelling for Dave,Dave is modelling for Mike,NA
null,Somebody says<br><em>Mike and Luke are dancing with each other</em>,NA,NA,NA,html-keyboard-response,87,468242,0.0-47.0-0.0,anomymised,6560c4cfd080ba12b16d8282,6564c8ac96e6e314977721ed,47593,1A,man,NA,null,NAME1 and NAME2 are dancing with each other,dance_conjoined,sentence,NA,NA,NA,NA,NA
4931,NA,NA,NA,NA,survey-likert-extra-labels,88,473174,0.0-47.0-1.0,anomymised,6560c4cfd080ba12b16d8282,6564c8ac96e6e314977721ed,47593,1A,man,NA,NA,Somebody says<br><em>Mike and Luke are dancing with each other</em>,dance_conjoined,rating_volition,"{""Q0"":0}",[0],The speaker identifies more with <br>Mike than Luke,The speaker identifies more with<br>Luke than Mike,left_to_right
null,Somebody says<br><em>Mike is reminding Beth,NA,NA,NA,html-keyboard-response,89,475177,0.0-48.0-0.0,anomymised,6560c4cfd080ba12b16d8282,6564c8ac96e6e314977721ed,47593,1A,man,NA,null,M2 is reminding W4,remind,sentence,NA,NA,NA,NA,NA
3840,NA,NA,NA,NA,survey-likert-extra-labels,90,479017,0.0-48.0-1.0,anomymised,6560c4cfd080ba12b16d8282,6564c8ac96e6e314977721ed,47593,1A,man,NA,NA,Somebody says<br><em>Mike is reminding Beth,remind,rating_volition,"{""Q0"":0}",[0],Mike is telling Beth again,Beth is telling Mike again,NA
null,Somebody says<br><em>Ruth is being seduced by Kate</em>,NA,NA,NA,html-keyboard-response,91,481269,0.0-49.0-0.0,anomymised,6560c4cfd080ba12b16d8282,6564c8ac96e6e314977721ed,47593,1A,man,NA,null,NAME1 is being seduced by NAME2,seduce_passive,sentence,NA,NA,NA,NA,NA
6237,NA,NA,NA,NA,survey-likert-extra-labels,92,487508,0.0-49.0-1.0,anomymised,6560c4cfd080ba12b16d8282,6564c8ac96e6e314977721ed,47593,1A,man,NA,NA,Somebody says<br><em>Ruth is being seduced by Kate</em>,seduce_passive,rating_volition,"{""Q0"":6}",[0],The speaker identifies more with <br>Kate than Ruth,The speaker identifies more with<br>Ruth than Kate,right_to_left
null,Somebody says<br><em>Jane and Dave are hugging each other</em>,NA,NA,NA,html-keyboard-response,93,489518,0.0-50.0-0.0,anomymised,6560c4cfd080ba12b16d8282,6564c8ac96e6e314977721ed,47593,1A,man,NA,null,NAME1 and NAME2 are hugging each other,hug_conjoined,sentence,NA,NA,NA,NA,NA
15863,NA,NA,NA,NA,survey-likert-extra-labels,94,505383,0.0-50.0-1.0,anomymised,6560c4cfd080ba12b16d8282,6564c8ac96e6e314977721ed,47593,1A,man,NA,NA,Somebody says<br><em>Jane and Dave are hugging each other</em>,hug_conjoined,rating_volition,"{""Q0"":6}",[0],The speaker identifies more with <br>Dave than Jane,The speaker identifies more with<br>Jane than Dave,right_to_left
null,Somebody says<br><em>Kate and Fred are flirting with each other</em>,NA,NA,NA,html-keyboard-response,95,507397,0.0-51.0-0.0,anomymised,6560c4cfd080ba12b16d8282,6564c8ac96e6e314977721ed,47593,1A,man,NA,null,NAME1 and NAME2 are flirting with each other,flirt_conjoined,sentence,NA,NA,NA,NA,NA
5225,NA,NA,NA,NA,survey-likert-extra-labels,96,512624,0.0-51.0-1.0,anomymised,6560c4cfd080ba12b16d8282,6564c8ac96e6e314977721ed,47593,1A,man,NA,NA,Somebody says<br><em>Kate and Fred are flirting with each other</em>,flirt_conjoined,rating_volition,"{""Q0"":6}",[0],The speaker identifies more with <br>Fred than Kate,The speaker identifies more with<br>Kate than Fred,right_to_left
null,Somebody says<br><em>Luke is marrying Kate</em>,NA,NA,NA,html-keyboard-response,97,514726,0.0-52.0-0.0,anomymised,6560c4cfd080ba12b16d8282,6564c8ac96e6e314977721ed,47593,1A,man,NA,null,NAME1 is marrying NAME2,marry_active,sentence,NA,NA,NA,NA,NA
3647,NA,NA,NA,NA,survey-likert-extra-labels,98,518374,0.0-52.0-1.0,anomymised,6560c4cfd080ba12b16d8282,6564c8ac96e6e314977721ed,47593,1A,man,NA,NA,Somebody says<br><em>Luke is marrying Kate</em>,marry_active,rating_volition,"{""Q0"":6}",[0],The speaker identifies more with <br>Kate than Luke,The speaker identifies more with<br>Luke than Kate,right_to_left
null,Somebody says<br><em>Luke is kissing Fred</em>,NA,NA,NA,html-keyboard-response,99,520387,0.0-53.0-0.0,anomymised,6560c4cfd080ba12b16d8282,6564c8ac96e6e314977721ed,47593,1A,man,NA,null,NAME1 is kissing NAME2,kiss_active,sentence,NA,NA,NA,NA,NA
2581,NA,NA,NA,NA,survey-likert-extra-labels,100,522968,0.0-53.0-1.0,anomymised,6560c4cfd080ba12b16d8282,6564c8ac96e6e314977721ed,47593,1A,man,NA,NA,Somebody says<br><em>Luke is kissing Fred</em>,kiss_active,rating_volition,"{""Q0"":6}",[0],The speaker identifies more with <br>Fred than Luke,The speaker identifies more with<br>Luke than Fred,right_to_left
null,Somebody says<br><em>Jane is challenging Beth</em>,NA,NA,NA,html-keyboard-response,101,524979,0.0-54.0-0.0,anomymised,6560c4cfd080ba12b16d8282,6564c8ac96e6e314977721ed,47593,1A,man,NA,null,NAME1 is challenging NAME2,challenge_active,sentence,NA,NA,NA,NA,NA
4564,NA,NA,NA,NA,survey-likert-extra-labels,102,529543,0.0-54.0-1.0,anomymised,6560c4cfd080ba12b16d8282,6564c8ac96e6e314977721ed,47593,1A,man,NA,NA,Somebody says<br><em>Jane is challenging Beth</em>,challenge_active,rating_volition,"{""Q0"":6}",[0],The speaker identifies more with <br>Beth than Jane,The speaker identifies more with<br>Jane than Beth,right_to_left
null,Somebody says<br><em>Kate is playing with Beth</em>,NA,NA,NA,html-keyboard-response,103,531559,0.0-55.0-0.0,anomymised,6560c4cfd080ba12b16d8282,6564c8ac96e6e314977721ed,47593,1A,man,NA,null,NAME1 is playing with NAME2,play_active,sentence,NA,NA,NA,NA,NA
3438,NA,NA,NA,NA,survey-likert-extra-labels,104,534999,0.0-55.0-1.0,anomymised,6560c4cfd080ba12b16d8282,6564c8ac96e6e314977721ed,47593,1A,man,NA,NA,Somebody says<br><em>Kate is playing with Beth</em>,play_active,rating_volition,"{""Q0"":6}",[0],The speaker identifies more with <br>Beth than Kate,The speaker identifies more with<br>Kate than Beth,right_to_left
1980,<p>Thank you for completing that task.</p><p>The final part of this session is a short questionnaire.</p><p>Press Continue.</p>,0,Continue,Continue,html-button-response,105,536980,0.0-56.0,anomymised,6560c4cfd080ba12b16d8282,6564c8ac96e6e314977721ed,47593,1A,man,NA,NA,NA,NA,NA,NA,NA,NA,NA,NA
17908,NA,NA,NA,NA,survey-text,106,555903,0.0-57.0,anomymised,6560c4cfd080ba12b16d8282,6564c8ac96e6e314977721ed,47593,1A,man,NA,NA,NA,NA,demographics,"{""Q0"":""40"",""Q1"":""English"",""Q2"":""English"",""Q3"":""England"",""Q4"":""English"",""Q5"":""White"",""Q6"":""Male""}",NA,NA,NA,NA
2381,<p>This is the last question - thank you for taking part! Have you lived in the UK for the last 5 years or more?</p>,0,"Yes,No",Yes,html-button-response,107,558286,0.0-58.0,anomymised,6560c4cfd080ba12b16d8282,6564c8ac96e6e314977721ed,47593,1A,man,NA,NA,NA,NA,fiveyears,NA,NA,NA,NA,NA
