rt,stimulus,button_pressed,choices,ChosenStimulus,trial_type,trial_index,time_elapsed,internal_node_id,subject_id,study_id,session_id,subject,list,ppt_gender,url,key_press,sentence_type,verb,test_part,responses,question_order,left_part,right_part,name_order
1198,Welcome to the experiment. Press Continue to begin.,0,Continue,Continue,html-button-response,0,1201,0.0-0.0,anomymised,6560c4cfd080ba12b16d8282,6564c83b91c7f6e6e273c0f6,48683,1A,man,NA,NA,NA,NA,NA,NA,NA,NA,NA,NA
4663.5,NA,NA,NA,NA,external-html,1,6903,0.0-1.0,anomymised,6560c4cfd080ba12b16d8282,6564c83b91c7f6e6e273c0f6,48683,1A,man,consent.html,NA,NA,NA,NA,NA,NA,NA,NA,NA
16880.599999999627,"<p>Welcome.</p><p>In this experiment we will ask you to imagine people's motivations for saying sentences.</p><p>Each trial will begin with a sentence that somebody might say to describe an event involving two different people.</p><p>For instance, someone might say <em>Harry is being recruited by Molly</em></p><p>We want you to think about which of those two people (Molly and Harry) the speaker identifies more with. For instance, why did the speaker say <em>Harry is being recruited by Molly</em> rather than <em> Molly is recruiting Harry</em>? Might that mean that the speaker is socially closer to one of the two characters?</p><p>After you have read the sentence, you will rate on a scale which of the two characters the speaker identifies more with.</p><p>You will give your answer by clicking a button on a rating scale.</p><p>Sometimes there will also be catch questions designed to make sure that you are paying attention, which ask about a different topic.</p><p>To do this task, you will have to use your imagination to think about and visualise the events, and how the speaker might relate to the characters.</p><br><p>Ready?</p>",0,Continue,Continue,html-button-response,2,23786,0.0-2.0,anomymised,6560c4cfd080ba12b16d8282,6564c83b91c7f6e6e273c0f6,48683,1A,man,NA,NA,NA,NA,NA,NA,NA,NA,NA,NA
1838.5,"<p>Before the experiment starts, we will show you an example of how you will answer the questions. Press 'Continue'.</p>",0,Continue,Continue,html-button-response,3,26626,0.0-3.0,anomymised,6560c4cfd080ba12b16d8282,6564c83b91c7f6e6e273c0f6,48683,1A,man,NA,NA,NA,NA,NA,NA,NA,NA,NA,NA
null,Somebody says <br><em>Samuel is dining with Frank</em>,NA,NA,NA,html-keyboard-response,4,29629,0.0-4.0,anomymised,6560c4cfd080ba12b16d8282,6564c83b91c7f6e6e273c0f6,48683,1A,man,NA,null,NA,NA,NA,NA,NA,NA,NA,NA
13915.799999999814,<img src='img/Example-trial.jpg' style='height:550px;''></img>,0,Continue,Continue,html-button-response,5,43546,0.0-5.0,anomymised,6560c4cfd080ba12b16d8282,6564c83b91c7f6e6e273c0f6,48683,1A,man,NA,NA,NA,NA,NA,NA,NA,NA,NA,NA
1134.800000000745,<p>Ready to start the experiment?</p><br><p><strong>Remember to give an answer by clicking a button on the rating scale.</strong></p><p>Press 'Continue' to begin.</p>,0,Continue,Continue,html-button-response,6,45682,0.0-6.0,anomymised,6560c4cfd080ba12b16d8282,6564c83b91c7f6e6e273c0f6,48683,1A,man,NA,NA,NA,NA,NA,NA,NA,NA,NA,NA
null,Somebody says<br><em>Mike and Ruth are arguing with each other</em>,NA,NA,NA,html-keyboard-response,7,48685,0.0-7.0-0.0,anomymised,6560c4cfd080ba12b16d8282,6564c83b91c7f6e6e273c0f6,48683,1A,man,NA,null,NAME1 and NAME2 are arguing with each other,argue_conjoined,sentence,NA,NA,NA,NA,NA
3621.600000000559,NA,NA,NA,NA,survey-likert-extra-labels,8,52310,0.0-7.0-1.0,anomymised,6560c4cfd080ba12b16d8282,6564c83b91c7f6e6e273c0f6,48683,1A,man,NA,NA,Somebody says<br><em>Mike and Ruth are arguing with each other</em>,argue_conjoined,rating_volition,"{""Q0"":3}",[0],The speaker identifies more with <br>Mike than Ruth,The speaker identifies more with<br>Ruth than Mike,left_to_right
null,Somebody says<br><em>Jane is teaching Dave,NA,NA,NA,html-keyboard-response,9,54312,0.0-8.0-0.0,anomymised,6560c4cfd080ba12b16d8282,6564c83b91c7f6e6e273c0f6,48683,1A,man,NA,null,W2 is teaching M4,teach,sentence,NA,NA,NA,NA,NA
4459.200000000186,NA,NA,NA,NA,survey-likert-extra-labels,10,58773,0.0-8.0-1.0,anomymised,6560c4cfd080ba12b16d8282,6564c83b91c7f6e6e273c0f6,48683,1A,man,NA,NA,Somebody says<br><em>Jane is teaching Dave,teach,rating_volition,"{""Q0"":0}",[0],Jane is educating Dave,Dave is educating Jane,NA
null,Somebody says<br><em>Ruth and Mike are shouting at each other</em>,NA,NA,NA,html-keyboard-response,11,60775,0.0-9.0-0.0,anomymised,6560c4cfd080ba12b16d8282,6564c83b91c7f6e6e273c0f6,48683,1A,man,NA,null,NAME1 and NAME2 are shouting at each other,shout_conjoined,sentence,NA,NA,NA,NA,NA
4413,NA,NA,NA,NA,survey-likert-extra-labels,12,65190,0.0-9.0-1.0,anomymised,6560c4cfd080ba12b16d8282,6564c83b91c7f6e6e273c0f6,48683,1A,man,NA,NA,Somebody says<br><em>Ruth and Mike are shouting at each other</em>,shout_conjoined,rating_volition,"{""Q0"":3}",[0],The speaker identifies more with <br>Mike than Ruth,The speaker identifies more with<br>Ruth than Mike,right_to_left
null,Somebody says<br><em>Fred is being hugged by Beth</em>,NA,NA,NA,html-keyboard-response,13,67193,0.0-10.0-0.0,anomymised,6560c4cfd080ba12b16d8282,6564c83b91c7f6e6e273c0f6,48683,1A,man,NA,null,NAME1 is being hugged by NAME2,hug_passive,sentence,NA,NA,NA,NA,NA
3099.2999999998137,NA,NA,NA,NA,survey-likert-extra-labels,14,70293,0.0-10.0-1.0,anomymised,6560c4cfd080ba12b16d8282,6564c83b91c7f6e6e273c0f6,48683,1A,man,NA,NA,Somebody says<br><em>Fred is being hugged by Beth</em>,hug_passive,rating_volition,"{""Q0"":1}",[0],The speaker identifies more with <br>Fred than Beth,The speaker identifies more with<br>Beth than Fred,left_to_right
null,Somebody says<br><em>Mike is seducing Jane</em>,NA,NA,NA,html-keyboard-response,15,72296,0.0-11.0-0.0,anomymised,6560c4cfd080ba12b16d8282,6564c83b91c7f6e6e273c0f6,48683,1A,man,NA,null,NAME1 is seducing NAME2,seduce_active,sentence,NA,NA,NA,NA,NA
3134.600000000559,NA,NA,NA,NA,survey-likert-extra-labels,16,75432,0.0-11.0-1.0,anomymised,6560c4cfd080ba12b16d8282,6564c83b91c7f6e6e273c0f6,48683,1A,man,NA,NA,Somebody says<br><em>Mike is seducing Jane</em>,seduce_active,rating_volition,"{""Q0"":1}",[0],The speaker identifies more with <br>Mike than Jane,The speaker identifies more with<br>Jane than Mike,left_to_right
null,Somebody says<br><em>Dave is touching Ruth</em>,NA,NA,NA,html-keyboard-response,17,77433,0.0-12.0-0.0,anomymised,6560c4cfd080ba12b16d8282,6564c83b91c7f6e6e273c0f6,48683,1A,man,NA,null,NAME1 is touching NAME2,touch_active,sentence,NA,NA,NA,NA,NA
5068.799999999814,NA,NA,NA,NA,survey-likert-extra-labels,18,82504,0.0-12.0-1.0,anomymised,6560c4cfd080ba12b16d8282,6564c83b91c7f6e6e273c0f6,48683,1A,man,NA,NA,Somebody says<br><em>Dave is touching Ruth</em>,touch_active,rating_volition,"{""Q0"":5}",[0],The speaker identifies more with <br>Ruth than Dave,The speaker identifies more with<br>Dave than Ruth,right_to_left
null,Somebody says<br><em>Fred and Beth are hugging each other</em>,NA,NA,NA,html-keyboard-response,19,84506,0.0-13.0-0.0,anomymised,6560c4cfd080ba12b16d8282,6564c83b91c7f6e6e273c0f6,48683,1A,man,NA,null,NAME1 and NAME2 are hugging each other,hug_conjoined,sentence,NA,NA,NA,NA,NA
1020.2000000001863,NA,NA,NA,NA,survey-likert-extra-labels,20,85527,0.0-13.0-1.0,anomymised,6560c4cfd080ba12b16d8282,6564c83b91c7f6e6e273c0f6,48683,1A,man,NA,NA,Somebody says<br><em>Fred and Beth are hugging each other</em>,hug_conjoined,rating_volition,"{""Q0"":3}",[0],The speaker identifies more with <br>Fred than Beth,The speaker identifies more with<br>Beth than Fred,left_to_right
null,Somebody says<br><em>Fred is being touched by Dave</em>,NA,NA,NA,html-keyboard-response,21,87529,0.0-14.0-0.0,anomymised,6560c4cfd080ba12b16d8282,6564c83b91c7f6e6e273c0f6,48683,1A,man,NA,null,NAME1 is being touched by NAME2,touch_passive,sentence,NA,NA,NA,NA,NA
2749.899999999441,NA,NA,NA,NA,survey-likert-extra-labels,22,90280,0.0-14.0-1.0,anomymised,6560c4cfd080ba12b16d8282,6564c83b91c7f6e6e273c0f6,48683,1A,man,NA,NA,Somebody says<br><em>Fred is being touched by Dave</em>,touch_passive,rating_volition,"{""Q0"":5}",[0],The speaker identifies more with <br>Dave than Fred,The speaker identifies more with<br>Fred than Dave,right_to_left
null,Somebody says<br><em>Kate is talking to Beth</em>,NA,NA,NA,html-keyboard-response,23,92283,0.0-15.0-0.0,anomymised,6560c4cfd080ba12b16d8282,6564c83b91c7f6e6e273c0f6,48683,1A,man,NA,null,NAME1 is talking to NAME2,talk_active,sentence,NA,NA,NA,NA,NA
2900.800000000745,NA,NA,NA,NA,survey-likert-extra-labels,24,95185,0.0-15.0-1.0,anomymised,6560c4cfd080ba12b16d8282,6564c83b91c7f6e6e273c0f6,48683,1A,man,NA,NA,Somebody says<br><em>Kate is talking to Beth</em>,talk_active,rating_volition,"{""Q0"":0}",[0],The speaker identifies more with <br>Kate than Beth,The speaker identifies more with<br>Beth than Kate,left_to_right
null,Somebody says<br><em>Luke is shouting at Kate</em>,NA,NA,NA,html-keyboard-response,25,97187,0.0-16.0-0.0,anomymised,6560c4cfd080ba12b16d8282,6564c83b91c7f6e6e273c0f6,48683,1A,man,NA,null,NAME1 is shouting at NAME2,shout_active,sentence,NA,NA,NA,NA,NA
2124.5999999996275,NA,NA,NA,NA,survey-likert-extra-labels,26,99313,0.0-16.0-1.0,anomymised,6560c4cfd080ba12b16d8282,6564c83b91c7f6e6e273c0f6,48683,1A,man,NA,NA,Somebody says<br><em>Luke is shouting at Kate</em>,shout_active,rating_volition,"{""Q0"":6}",[0],The speaker identifies more with <br>Kate than Luke,The speaker identifies more with<br>Luke than Kate,right_to_left
null,Somebody says<br><em>Jane is shouting at Ruth</em>,NA,NA,NA,html-keyboard-response,27,101315,0.0-17.0-0.0,anomymised,6560c4cfd080ba12b16d8282,6564c83b91c7f6e6e273c0f6,48683,1A,man,NA,null,NAME1 is shouting at NAME2,shout_active,sentence,NA,NA,NA,NA,NA
3470.5,NA,NA,NA,NA,survey-likert-extra-labels,28,104787,0.0-17.0-1.0,anomymised,6560c4cfd080ba12b16d8282,6564c83b91c7f6e6e273c0f6,48683,1A,man,NA,NA,Somebody says<br><em>Jane is shouting at Ruth</em>,shout_active,rating_volition,"{""Q0"":1}",[0],The speaker identifies more with <br>Jane than Ruth,The speaker identifies more with<br>Ruth than Jane,left_to_right
null,Somebody says<br><em>Fred is being opposed by Jane</em>,NA,NA,NA,html-keyboard-response,29,106789,0.0-18.0-0.0,anomymised,6560c4cfd080ba12b16d8282,6564c83b91c7f6e6e273c0f6,48683,1A,man,NA,null,NAME1 is being opposed by NAME2,oppose_passive,sentence,NA,NA,NA,NA,NA
5035.5,NA,NA,NA,NA,survey-likert-extra-labels,30,111826,0.0-18.0-1.0,anomymised,6560c4cfd080ba12b16d8282,6564c83b91c7f6e6e273c0f6,48683,1A,man,NA,NA,Somebody says<br><em>Fred is being opposed by Jane</em>,oppose_passive,rating_volition,"{""Q0"":5}",[0],The speaker identifies more with <br>Jane than Fred,The speaker identifies more with<br>Fred than Jane,right_to_left
null,Somebody says<br><em>Dave is being copied by Luke</em>,NA,NA,NA,html-keyboard-response,31,113829,0.0-19.0-0.0,anomymised,6560c4cfd080ba12b16d8282,6564c83b91c7f6e6e273c0f6,48683,1A,man,NA,null,NAME1 is being copied by NAME2,copy_passive,sentence,NA,NA,NA,NA,NA
2732.4000000003725,NA,NA,NA,NA,survey-likert-extra-labels,32,116564,0.0-19.0-1.0,anomymised,6560c4cfd080ba12b16d8282,6564c83b91c7f6e6e273c0f6,48683,1A,man,NA,NA,Somebody says<br><em>Dave is being copied by Luke</em>,copy_passive,rating_volition,"{""Q0"":1}",[0],The speaker identifies more with <br>Dave than Luke,The speaker identifies more with<br>Luke than Dave,left_to_right
null,Somebody says<br><em>Ruth is greeting Luke</em>,NA,NA,NA,html-keyboard-response,33,118566,0.0-20.0-0.0,anomymised,6560c4cfd080ba12b16d8282,6564c83b91c7f6e6e273c0f6,48683,1A,man,NA,null,NAME1 is greeting NAME2,greet_active,sentence,NA,NA,NA,NA,NA
2668.2999999998137,NA,NA,NA,NA,survey-likert-extra-labels,34,121236,0.0-20.0-1.0,anomymised,6560c4cfd080ba12b16d8282,6564c83b91c7f6e6e273c0f6,48683,1A,man,NA,NA,Somebody says<br><em>Ruth is greeting Luke</em>,greet_active,rating_volition,"{""Q0"":1}",[0],The speaker identifies more with <br>Ruth than Luke,The speaker identifies more with<br>Luke than Ruth,left_to_right
null,Somebody says<br><em>Luke and Ruth are playing with each other</em>,NA,NA,NA,html-keyboard-response,35,123237,0.0-21.0-0.0,anomymised,6560c4cfd080ba12b16d8282,6564c83b91c7f6e6e273c0f6,48683,1A,man,NA,null,NAME1 and NAME2 are playing with each other,play_conjoined,sentence,NA,NA,NA,NA,NA
797.7000000001863,NA,NA,NA,NA,survey-likert-extra-labels,36,124036,0.0-21.0-1.0,anomymised,6560c4cfd080ba12b16d8282,6564c83b91c7f6e6e273c0f6,48683,1A,man,NA,NA,Somebody says<br><em>Luke and Ruth are playing with each other</em>,play_conjoined,rating_volition,"{""Q0"":3}",[0],The speaker identifies more with <br>Ruth than Luke,The speaker identifies more with<br>Luke than Ruth,right_to_left
null,Somebody says<br><em>Dave is fighting with Beth</em>,NA,NA,NA,html-keyboard-response,37,126038,0.0-22.0-0.0,anomymised,6560c4cfd080ba12b16d8282,6564c83b91c7f6e6e273c0f6,48683,1A,man,NA,null,NAME1 is fighting with NAME2,fight_active,sentence,NA,NA,NA,NA,NA
1915.6000000005588,NA,NA,NA,NA,survey-likert-extra-labels,38,127955,0.0-22.0-1.0,anomymised,6560c4cfd080ba12b16d8282,6564c83b91c7f6e6e273c0f6,48683,1A,man,NA,NA,Somebody says<br><em>Dave is fighting with Beth</em>,fight_active,rating_volition,"{""Q0"":0}",[0],The speaker identifies more with <br>Dave than Beth,The speaker identifies more with<br>Beth than Dave,left_to_right
null,Somebody says<br><em>Luke and Dave are marrying each other</em>,NA,NA,NA,html-keyboard-response,39,129956,0.0-23.0-0.0,anomymised,6560c4cfd080ba12b16d8282,6564c83b91c7f6e6e273c0f6,48683,1A,man,NA,null,NAME1 and NAME2 are marrying each other,marry_conjoined,sentence,NA,NA,NA,NA,NA
1056.7000000001863,NA,NA,NA,NA,survey-likert-extra-labels,40,131014,0.0-23.0-1.0,anomymised,6560c4cfd080ba12b16d8282,6564c83b91c7f6e6e273c0f6,48683,1A,man,NA,NA,Somebody says<br><em>Luke and Dave are marrying each other</em>,marry_conjoined,rating_volition,"{""Q0"":3}",[0],The speaker identifies more with <br>Luke than Dave,The speaker identifies more with<br>Dave than Luke,left_to_right
null,Somebody says<br><em>Beth is copying Jane</em>,NA,NA,NA,html-keyboard-response,41,133016,0.0-24.0-0.0,anomymised,6560c4cfd080ba12b16d8282,6564c83b91c7f6e6e273c0f6,48683,1A,man,NA,null,NAME1 is copying NAME2,copy_active,sentence,NA,NA,NA,NA,NA
5510,NA,NA,NA,NA,survey-likert-extra-labels,42,138527,0.0-24.0-1.0,anomymised,6560c4cfd080ba12b16d8282,6564c83b91c7f6e6e273c0f6,48683,1A,man,NA,NA,Somebody says<br><em>Beth is copying Jane</em>,copy_active,rating_volition,"{""Q0"":1}",[0],The speaker identifies more with <br>Jane than Beth,The speaker identifies more with<br>Beth than Jane,right_to_left
null,Somebody says<br><em>Mike is playing with Beth</em>,NA,NA,NA,html-keyboard-response,43,140530,0.0-25.0-0.0,anomymised,6560c4cfd080ba12b16d8282,6564c83b91c7f6e6e273c0f6,48683,1A,man,NA,null,NAME1 is playing with NAME2,play_active,sentence,NA,NA,NA,NA,NA
3059.2000000001863,NA,NA,NA,NA,survey-likert-extra-labels,44,143591,0.0-25.0-1.0,anomymised,6560c4cfd080ba12b16d8282,6564c83b91c7f6e6e273c0f6,48683,1A,man,NA,NA,Somebody says<br><em>Mike is playing with Beth</em>,play_active,rating_volition,"{""Q0"":5}",[0],The speaker identifies more with <br>Beth than Mike,The speaker identifies more with<br>Mike than Beth,right_to_left
null,Somebody says<br><em>Ruth is challenging Jane</em>,NA,NA,NA,html-keyboard-response,45,145592,0.0-26.0-0.0,anomymised,6560c4cfd080ba12b16d8282,6564c83b91c7f6e6e273c0f6,48683,1A,man,NA,null,NAME1 is challenging NAME2,challenge_active,sentence,NA,NA,NA,NA,NA
1676.7999999998137,NA,NA,NA,NA,survey-likert-extra-labels,46,147271,0.0-26.0-1.0,anomymised,6560c4cfd080ba12b16d8282,6564c83b91c7f6e6e273c0f6,48683,1A,man,NA,NA,Somebody says<br><em>Ruth is challenging Jane</em>,challenge_active,rating_volition,"{""Q0"":1}",[0],The speaker identifies more with <br>Ruth than Jane,The speaker identifies more with<br>Jane than Ruth,left_to_right
null,Somebody says<br><em>Jane is carrying Beth,NA,NA,NA,html-keyboard-response,47,149272,0.0-27.0-0.0,anomymised,6560c4cfd080ba12b16d8282,6564c83b91c7f6e6e273c0f6,48683,1A,man,NA,null,W2 is carrying W4,carry,sentence,NA,NA,NA,NA,NA
5959.0999999996275,NA,NA,NA,NA,survey-likert-extra-labels,48,155233,0.0-27.0-1.0,anomymised,6560c4cfd080ba12b16d8282,6564c83b91c7f6e6e273c0f6,48683,1A,man,NA,NA,Somebody says<br><em>Jane is carrying Beth,carry,rating_volition,"{""Q0"":0}",[0],Jane is transporting Beth,Beth is transporting Jane,NA
null,Somebody says<br><em>Kate is being challenged by Beth</em>,NA,NA,NA,html-keyboard-response,49,157236,0.0-28.0-0.0,anomymised,6560c4cfd080ba12b16d8282,6564c83b91c7f6e6e273c0f6,48683,1A,man,NA,null,NAME1 is being challenged by NAME2,challenge_passive,sentence,NA,NA,NA,NA,NA
2867.7999999998137,NA,NA,NA,NA,survey-likert-extra-labels,50,160105,0.0-28.0-1.0,anomymised,6560c4cfd080ba12b16d8282,6564c83b91c7f6e6e273c0f6,48683,1A,man,NA,NA,Somebody says<br><em>Kate is being challenged by Beth</em>,challenge_passive,rating_volition,"{""Q0"":1}",[0],The speaker identifies more with <br>Kate than Beth,The speaker identifies more with<br>Beth than Kate,left_to_right
null,Somebody says<br><em>Luke is being seduced by Ruth</em>,NA,NA,NA,html-keyboard-response,51,162107,0.0-29.0-0.0,anomymised,6560c4cfd080ba12b16d8282,6564c83b91c7f6e6e273c0f6,48683,1A,man,NA,null,NAME1 is being seduced by NAME2,seduce_passive,sentence,NA,NA,NA,NA,NA
1923.2999999998137,NA,NA,NA,NA,survey-likert-extra-labels,52,164032,0.0-29.0-1.0,anomymised,6560c4cfd080ba12b16d8282,6564c83b91c7f6e6e273c0f6,48683,1A,man,NA,NA,Somebody says<br><em>Luke is being seduced by Ruth</em>,seduce_passive,rating_volition,"{""Q0"":5}",[0],The speaker identifies more with <br>Ruth than Luke,The speaker identifies more with<br>Luke than Ruth,right_to_left
null,Somebody says<br><em>Fred is dancing with Dave</em>,NA,NA,NA,html-keyboard-response,53,166034,0.0-30.0-0.0,anomymised,6560c4cfd080ba12b16d8282,6564c83b91c7f6e6e273c0f6,48683,1A,man,NA,null,NAME1 is dancing with NAME2,dance_active,sentence,NA,NA,NA,NA,NA
1654.2000000001863,NA,NA,NA,NA,survey-likert-extra-labels,54,167689,0.0-30.0-1.0,anomymised,6560c4cfd080ba12b16d8282,6564c83b91c7f6e6e273c0f6,48683,1A,man,NA,NA,Somebody says<br><em>Fred is dancing with Dave</em>,dance_active,rating_volition,"{""Q0"":5}",[0],The speaker identifies more with <br>Dave than Fred,The speaker identifies more with<br>Fred than Dave,right_to_left
null,Somebody says<br><em>Dave is being kissed by Ruth</em>,NA,NA,NA,html-keyboard-response,55,169691,0.0-31.0-0.0,anomymised,6560c4cfd080ba12b16d8282,6564c83b91c7f6e6e273c0f6,48683,1A,man,NA,null,NAME1 is being kissed by NAME2,kiss_passive,sentence,NA,NA,NA,NA,NA
3574.100000000559,NA,NA,NA,NA,survey-likert-extra-labels,56,173267,0.0-31.0-1.0,anomymised,6560c4cfd080ba12b16d8282,6564c83b91c7f6e6e273c0f6,48683,1A,man,NA,NA,Somebody says<br><em>Dave is being kissed by Ruth</em>,kiss_passive,rating_volition,"{""Q0"":5}",[0],The speaker identifies more with <br>Ruth than Dave,The speaker identifies more with<br>Dave than Ruth,right_to_left
null,Somebody says<br><em>Kate is hugging Luke</em>,NA,NA,NA,html-keyboard-response,57,175269,0.0-32.0-0.0,anomymised,6560c4cfd080ba12b16d8282,6564c83b91c7f6e6e273c0f6,48683,1A,man,NA,null,NAME1 is hugging NAME2,hug_active,sentence,NA,NA,NA,NA,NA
2244.2999999998137,NA,NA,NA,NA,survey-likert-extra-labels,58,177515,0.0-32.0-1.0,anomymised,6560c4cfd080ba12b16d8282,6564c83b91c7f6e6e273c0f6,48683,1A,man,NA,NA,Somebody says<br><em>Kate is hugging Luke</em>,hug_active,rating_volition,"{""Q0"":5}",[0],The speaker identifies more with <br>Luke than Kate,The speaker identifies more with<br>Kate than Luke,right_to_left
null,Somebody says<br><em>Fred is hiring Ruth,NA,NA,NA,html-keyboard-response,59,179517,0.0-33.0-0.0,anomymised,6560c4cfd080ba12b16d8282,6564c83b91c7f6e6e273c0f6,48683,1A,man,NA,null,M3 is hiring W1,hire,sentence,NA,NA,NA,NA,NA
2381.300000000745,NA,NA,NA,NA,survey-likert-extra-labels,60,181899,0.0-33.0-1.0,anomymised,6560c4cfd080ba12b16d8282,6564c83b91c7f6e6e273c0f6,48683,1A,man,NA,NA,Somebody says<br><em>Fred is hiring Ruth,hire,rating_volition,"{""Q0"":0}",[0],Fred is employing Ruth,Ruth is employing Fred,NA
null,Somebody says<br><em>Fred is opposing Mike</em>,NA,NA,NA,html-keyboard-response,61,183902,0.0-34.0-0.0,anomymised,6560c4cfd080ba12b16d8282,6564c83b91c7f6e6e273c0f6,48683,1A,man,NA,null,NAME1 is opposing NAME2,oppose_active,sentence,NA,NA,NA,NA,NA
4093.0999999996275,NA,NA,NA,NA,survey-likert-extra-labels,62,187997,0.0-34.0-1.0,anomymised,6560c4cfd080ba12b16d8282,6564c83b91c7f6e6e273c0f6,48683,1A,man,NA,NA,Somebody says<br><em>Fred is opposing Mike</em>,oppose_active,rating_volition,"{""Q0"":5}",[0],The speaker identifies more with <br>Mike than Fred,The speaker identifies more with<br>Fred than Mike,right_to_left
null,Somebody says<br><em>Mike is reminding Beth,NA,NA,NA,html-keyboard-response,63,189999,0.0-35.0-0.0,anomymised,6560c4cfd080ba12b16d8282,6564c83b91c7f6e6e273c0f6,48683,1A,man,NA,null,M2 is reminding W4,remind,sentence,NA,NA,NA,NA,NA
3497,NA,NA,NA,NA,survey-likert-extra-labels,64,193497,0.0-35.0-1.0,anomymised,6560c4cfd080ba12b16d8282,6564c83b91c7f6e6e273c0f6,48683,1A,man,NA,NA,Somebody says<br><em>Mike is reminding Beth,remind,rating_volition,"{""Q0"":0}",[0],Mike is telling Beth again,Beth is telling Mike again,NA
null,Somebody says<br><em>Fred is being shouted at by Kate</em>,NA,NA,NA,html-keyboard-response,65,195499,0.0-36.0-0.0,anomymised,6560c4cfd080ba12b16d8282,6564c83b91c7f6e6e273c0f6,48683,1A,man,NA,null,NAME1 is being shouted at by NAME2,shout_passive,sentence,NA,NA,NA,NA,NA
2252.2999999998137,NA,NA,NA,NA,survey-likert-extra-labels,66,197753,0.0-36.0-1.0,anomymised,6560c4cfd080ba12b16d8282,6564c83b91c7f6e6e273c0f6,48683,1A,man,NA,NA,Somebody says<br><em>Fred is being shouted at by Kate</em>,shout_passive,rating_volition,"{""Q0"":1}",[0],The speaker identifies more with <br>Kate than Fred,The speaker identifies more with<br>Fred than Kate,right_to_left
null,Somebody says<br><em>Mike is posing for Dave,NA,NA,NA,html-keyboard-response,67,199756,0.0-37.0-0.0,anomymised,6560c4cfd080ba12b16d8282,6564c83b91c7f6e6e273c0f6,48683,1A,man,NA,null,M2 is posing for M4,pose,sentence,NA,NA,NA,NA,NA
2292.7999999998137,NA,NA,NA,NA,survey-likert-extra-labels,68,202050,0.0-37.0-1.0,anomymised,6560c4cfd080ba12b16d8282,6564c83b91c7f6e6e273c0f6,48683,1A,man,NA,NA,Somebody says<br><em>Mike is posing for Dave,pose,rating_volition,"{""Q0"":0}",[0],Mike is modelling for Dave,Dave is modelling for Mike,NA
null,Somebody says<br><em>Kate is feeding Luke,NA,NA,NA,html-keyboard-response,69,204052,0.0-38.0-0.0,anomymised,6560c4cfd080ba12b16d8282,6564c83b91c7f6e6e273c0f6,48683,1A,man,NA,null,W3 is feeding M1,feed,sentence,NA,NA,NA,NA,NA
2109.5999999996275,NA,NA,NA,NA,survey-likert-extra-labels,70,206163,0.0-38.0-1.0,anomymised,6560c4cfd080ba12b16d8282,6564c83b91c7f6e6e273c0f6,48683,1A,man,NA,NA,Somebody says<br><em>Kate is feeding Luke,feed,rating_volition,"{""Q0"":0}",[0],Kate cooked for Luke,Luke cooked for Kate,NA
null,Somebody says<br><em>Mike and Luke are fighting with each other</em>,NA,NA,NA,html-keyboard-response,71,208165,0.0-39.0-0.0,anomymised,6560c4cfd080ba12b16d8282,6564c83b91c7f6e6e273c0f6,48683,1A,man,NA,null,NAME1 and NAME2 are fighting with each other,fight_conjoined,sentence,NA,NA,NA,NA,NA
2261,NA,NA,NA,NA,survey-likert-extra-labels,72,210427,0.0-39.0-1.0,anomymised,6560c4cfd080ba12b16d8282,6564c83b91c7f6e6e273c0f6,48683,1A,man,NA,NA,Somebody says<br><em>Mike and Luke are fighting with each other</em>,fight_conjoined,rating_volition,"{""Q0"":3}",[0],The speaker identifies more with <br>Luke than Mike,The speaker identifies more with<br>Mike than Luke,right_to_left
null,Somebody says<br><em>Jane is being looked at by Kate</em>,NA,NA,NA,html-keyboard-response,73,212429,0.0-40.0-0.0,anomymised,6560c4cfd080ba12b16d8282,6564c83b91c7f6e6e273c0f6,48683,1A,man,NA,null,NAME1 is being looked at by NAME2,look_passive,sentence,NA,NA,NA,NA,NA
1582.0999999996275,NA,NA,NA,NA,survey-likert-extra-labels,74,214012,0.0-40.0-1.0,anomymised,6560c4cfd080ba12b16d8282,6564c83b91c7f6e6e273c0f6,48683,1A,man,NA,NA,Somebody says<br><em>Jane is being looked at by Kate</em>,look_passive,rating_volition,"{""Q0"":1}",[0],The speaker identifies more with <br>Jane than Kate,The speaker identifies more with<br>Kate than Jane,left_to_right
null,Somebody says<br><em>Fred and Mike are touching each other</em>,NA,NA,NA,html-keyboard-response,75,216014,0.0-41.0-0.0,anomymised,6560c4cfd080ba12b16d8282,6564c83b91c7f6e6e273c0f6,48683,1A,man,NA,null,NAME1 and NAME2 are touching each other,touch_conjoined,sentence,NA,NA,NA,NA,NA
1116.5999999996275,NA,NA,NA,NA,survey-likert-extra-labels,76,217132,0.0-41.0-1.0,anomymised,6560c4cfd080ba12b16d8282,6564c83b91c7f6e6e273c0f6,48683,1A,man,NA,NA,Somebody says<br><em>Fred and Mike are touching each other</em>,touch_conjoined,rating_volition,"{""Q0"":3}",[0],The speaker identifies more with <br>Fred than Mike,The speaker identifies more with<br>Mike than Fred,left_to_right
null,Somebody says<br><em>Luke and Kate are meeting each other</em>,NA,NA,NA,html-keyboard-response,77,219133,0.0-42.0-0.0,anomymised,6560c4cfd080ba12b16d8282,6564c83b91c7f6e6e273c0f6,48683,1A,man,NA,null,NAME1 and NAME2 are meeting each other,meet_conjoined,sentence,NA,NA,NA,NA,NA
1516.4000000003725,NA,NA,NA,NA,survey-likert-extra-labels,78,220651,0.0-42.0-1.0,anomymised,6560c4cfd080ba12b16d8282,6564c83b91c7f6e6e273c0f6,48683,1A,man,NA,NA,Somebody says<br><em>Luke and Kate are meeting each other</em>,meet_conjoined,rating_volition,"{""Q0"":3}",[0],The speaker identifies more with <br>Kate than Luke,The speaker identifies more with<br>Luke than Kate,right_to_left
null,Somebody says<br><em>Dave is being greeted by Beth</em>,NA,NA,NA,html-keyboard-response,79,222653,0.0-43.0-0.0,anomymised,6560c4cfd080ba12b16d8282,6564c83b91c7f6e6e273c0f6,48683,1A,man,NA,null,NAME1 is being greeted by NAME2,greet_passive,sentence,NA,NA,NA,NA,NA
1566.2999999998137,NA,NA,NA,NA,survey-likert-extra-labels,80,224220,0.0-43.0-1.0,anomymised,6560c4cfd080ba12b16d8282,6564c83b91c7f6e6e273c0f6,48683,1A,man,NA,NA,Somebody says<br><em>Dave is being greeted by Beth</em>,greet_passive,rating_volition,"{""Q0"":1}",[0],The speaker identifies more with <br>Dave than Beth,The speaker identifies more with<br>Beth than Dave,left_to_right
null,Somebody says<br><em>Dave is arguing with Luke</em>,NA,NA,NA,html-keyboard-response,81,226222,0.0-44.0-0.0,anomymised,6560c4cfd080ba12b16d8282,6564c83b91c7f6e6e273c0f6,48683,1A,man,NA,null,NAME1 is arguing with NAME2,argue_active,sentence,NA,NA,NA,NA,NA
1765,NA,NA,NA,NA,survey-likert-extra-labels,82,227989,0.0-44.0-1.0,anomymised,6560c4cfd080ba12b16d8282,6564c83b91c7f6e6e273c0f6,48683,1A,man,NA,NA,Somebody says<br><em>Dave is arguing with Luke</em>,argue_active,rating_volition,"{""Q0"":5}",[0],The speaker identifies more with <br>Luke than Dave,The speaker identifies more with<br>Dave than Luke,right_to_left
null,Somebody says<br><em>Ruth and Luke are dancing with each other</em>,NA,NA,NA,html-keyboard-response,83,229990,0.0-45.0-0.0,anomymised,6560c4cfd080ba12b16d8282,6564c83b91c7f6e6e273c0f6,48683,1A,man,NA,null,NAME1 and NAME2 are dancing with each other,dance_conjoined,sentence,NA,NA,NA,NA,NA
1436.2999999998137,NA,NA,NA,NA,survey-likert-extra-labels,84,231428,0.0-45.0-1.0,anomymised,6560c4cfd080ba12b16d8282,6564c83b91c7f6e6e273c0f6,48683,1A,man,NA,NA,Somebody says<br><em>Ruth and Luke are dancing with each other</em>,dance_conjoined,rating_volition,"{""Q0"":3}",[0],The speaker identifies more with <br>Luke than Ruth,The speaker identifies more with<br>Ruth than Luke,right_to_left
null,Somebody says<br><em>Luke is driving Fred,NA,NA,NA,html-keyboard-response,85,233429,0.0-46.0-0.0,anomymised,6560c4cfd080ba12b16d8282,6564c83b91c7f6e6e273c0f6,48683,1A,man,NA,null,M1 is driving M3,drive,sentence,NA,NA,NA,NA,NA
5014.4000000003725,NA,NA,NA,NA,survey-likert-extra-labels,86,238445,0.0-46.0-1.0,anomymised,6560c4cfd080ba12b16d8282,6564c83b91c7f6e6e273c0f6,48683,1A,man,NA,NA,Somebody says<br><em>Luke is driving Fred,drive,rating_volition,"{""Q0"":6}",[0],Luke is Fred's passenger,Fred is Luke's passenger,NA
null,Somebody says<br><em>Jane is flirting with Beth</em>,NA,NA,NA,html-keyboard-response,87,240448,0.0-47.0-0.0,anomymised,6560c4cfd080ba12b16d8282,6564c83b91c7f6e6e273c0f6,48683,1A,man,NA,null,NAME1 is flirting with NAME2,flirt_active,sentence,NA,NA,NA,NA,NA
3678.5999999996275,NA,NA,NA,NA,survey-likert-extra-labels,88,244128,0.0-47.0-1.0,anomymised,6560c4cfd080ba12b16d8282,6564c83b91c7f6e6e273c0f6,48683,1A,man,NA,NA,Somebody says<br><em>Jane is flirting with Beth</em>,flirt_active,rating_volition,"{""Q0"":1}",[0],The speaker identifies more with <br>Jane than Beth,The speaker identifies more with<br>Beth than Jane,left_to_right
null,Somebody says<br><em>Fred is kissing Jane</em>,NA,NA,NA,html-keyboard-response,89,246131,0.0-48.0-0.0,anomymised,6560c4cfd080ba12b16d8282,6564c83b91c7f6e6e273c0f6,48683,1A,man,NA,null,NAME1 is kissing NAME2,kiss_active,sentence,NA,NA,NA,NA,NA
2860.2000000001863,NA,NA,NA,NA,survey-likert-extra-labels,90,248992,0.0-48.0-1.0,anomymised,6560c4cfd080ba12b16d8282,6564c83b91c7f6e6e273c0f6,48683,1A,man,NA,NA,Somebody says<br><em>Fred is kissing Jane</em>,kiss_active,rating_volition,"{""Q0"":1}",[0],The speaker identifies more with <br>Fred than Jane,The speaker identifies more with<br>Jane than Fred,left_to_right
null,Somebody says<br><em>Fred and Luke are kissing each other</em>,NA,NA,NA,html-keyboard-response,91,250994,0.0-49.0-0.0,anomymised,6560c4cfd080ba12b16d8282,6564c83b91c7f6e6e273c0f6,48683,1A,man,NA,null,NAME1 and NAME2 are kissing each other,kiss_conjoined,sentence,NA,NA,NA,NA,NA
1132.3999999994412,NA,NA,NA,NA,survey-likert-extra-labels,92,252127,0.0-49.0-1.0,anomymised,6560c4cfd080ba12b16d8282,6564c83b91c7f6e6e273c0f6,48683,1A,man,NA,NA,Somebody says<br><em>Fred and Luke are kissing each other</em>,kiss_conjoined,rating_volition,"{""Q0"":3}",[0],The speaker identifies more with <br>Fred than Luke,The speaker identifies more with<br>Luke than Fred,left_to_right
null,Somebody says<br><em>Ruth is marrying Jane</em>,NA,NA,NA,html-keyboard-response,93,254129,0.0-50.0-0.0,anomymised,6560c4cfd080ba12b16d8282,6564c83b91c7f6e6e273c0f6,48683,1A,man,NA,null,NAME1 is marrying NAME2,marry_active,sentence,NA,NA,NA,NA,NA
3490,NA,NA,NA,NA,survey-likert-extra-labels,94,257621,0.0-50.0-1.0,anomymised,6560c4cfd080ba12b16d8282,6564c83b91c7f6e6e273c0f6,48683,1A,man,NA,NA,Somebody says<br><em>Ruth is marrying Jane</em>,marry_active,rating_volition,"{""Q0"":5}",[0],The speaker identifies more with <br>Jane than Ruth,The speaker identifies more with<br>Ruth than Jane,right_to_left
null,Somebody says<br><em>Ruth is meeting Luke</em>,NA,NA,NA,html-keyboard-response,95,259622,0.0-51.0-0.0,anomymised,6560c4cfd080ba12b16d8282,6564c83b91c7f6e6e273c0f6,48683,1A,man,NA,null,NAME1 is meeting NAME2,meet_active,sentence,NA,NA,NA,NA,NA
3710.2000000001863,NA,NA,NA,NA,survey-likert-extra-labels,96,263334,0.0-51.0-1.0,anomymised,6560c4cfd080ba12b16d8282,6564c83b91c7f6e6e273c0f6,48683,1A,man,NA,NA,Somebody says<br><em>Ruth is meeting Luke</em>,meet_active,rating_volition,"{""Q0"":1}",[0],The speaker identifies more with <br>Ruth than Luke,The speaker identifies more with<br>Luke than Ruth,left_to_right
null,Somebody says<br><em>Luke and Dave are talking with each other</em>,NA,NA,NA,html-keyboard-response,97,265336,0.0-52.0-0.0,anomymised,6560c4cfd080ba12b16d8282,6564c83b91c7f6e6e273c0f6,48683,1A,man,NA,null,NAME1 and NAME2 are talking with each other,talk_conjoined,sentence,NA,NA,NA,NA,NA
1020.7000000001863,NA,NA,NA,NA,survey-likert-extra-labels,98,266359,0.0-52.0-1.0,anomymised,6560c4cfd080ba12b16d8282,6564c83b91c7f6e6e273c0f6,48683,1A,man,NA,NA,Somebody says<br><em>Luke and Dave are talking with each other</em>,talk_conjoined,rating_volition,"{""Q0"":3}",[0],The speaker identifies more with <br>Dave than Luke,The speaker identifies more with<br>Luke than Dave,right_to_left
null,Somebody says<br><em>Ruth is looking at Mike</em>,NA,NA,NA,html-keyboard-response,99,268360,0.0-53.0-0.0,anomymised,6560c4cfd080ba12b16d8282,6564c83b91c7f6e6e273c0f6,48683,1A,man,NA,null,NAME1 is looking at NAME2,look_active,sentence,NA,NA,NA,NA,NA
2253.2000000001863,NA,NA,NA,NA,survey-likert-extra-labels,100,270615,0.0-53.0-1.0,anomymised,6560c4cfd080ba12b16d8282,6564c83b91c7f6e6e273c0f6,48683,1A,man,NA,NA,Somebody says<br><em>Ruth is looking at Mike</em>,look_active,rating_volition,"{""Q0"":1}",[0],The speaker identifies more with <br>Ruth than Mike,The speaker identifies more with<br>Mike than Ruth,left_to_right
null,Somebody says<br><em>Ruth is chasing Kate,NA,NA,NA,html-keyboard-response,101,272617,0.0-54.0-0.0,anomymised,6560c4cfd080ba12b16d8282,6564c83b91c7f6e6e273c0f6,48683,1A,man,NA,null,W1 is chasing W3,chase,sentence,NA,NA,NA,NA,NA
3439.2000000001863,NA,NA,NA,NA,survey-likert-extra-labels,102,276057,0.0-54.0-1.0,anomymised,6560c4cfd080ba12b16d8282,6564c83b91c7f6e6e273c0f6,48683,1A,man,NA,NA,Somebody says<br><em>Ruth is chasing Kate,chase,rating_volition,"{""Q0"":0}",[0],Ruth is behind Kate,Kate is behind Ruth,NA
null,Somebody says<br><em>Kate and Luke are flirting with each other</em>,NA,NA,NA,html-keyboard-response,103,278058,0.0-55.0-0.0,anomymised,6560c4cfd080ba12b16d8282,6564c83b91c7f6e6e273c0f6,48683,1A,man,NA,null,NAME1 and NAME2 are flirting with each other,flirt_conjoined,sentence,NA,NA,NA,NA,NA
1315.7999999998137,NA,NA,NA,NA,survey-likert-extra-labels,104,279375,0.0-55.0-1.0,anomymised,6560c4cfd080ba12b16d8282,6564c83b91c7f6e6e273c0f6,48683,1A,man,NA,NA,Somebody says<br><em>Kate and Luke are flirting with each other</em>,flirt_conjoined,rating_volition,"{""Q0"":3}",[0],The speaker identifies more with <br>Luke than Kate,The speaker identifies more with<br>Kate than Luke,right_to_left
2658.2000000001863,<p>Thank you for completing that task.</p><p>The final part of this session is a short questionnaire.</p><p>Press Continue.</p>,0,Continue,Continue,html-button-response,105,282036,0.0-56.0,anomymised,6560c4cfd080ba12b16d8282,6564c83b91c7f6e6e273c0f6,48683,1A,man,NA,NA,NA,NA,NA,NA,NA,NA,NA,NA
22234.200000000186,NA,NA,NA,NA,survey-text,106,305277,0.0-57.0,anomymised,6560c4cfd080ba12b16d8282,6564c83b91c7f6e6e273c0f6,48683,1A,man,NA,NA,NA,NA,demographics,"{""Q0"":""25"",""Q1"":""English"",""Q2"":""English"",""Q3"":""England"",""Q4"":""British "",""Q5"":""White"",""Q6"":""Male""}",NA,NA,NA,NA
2101,<p>This is the last question - thank you for taking part! Have you lived in the UK for the last 5 years or more?</p>,0,"Yes,No",Yes,html-button-response,107,307380,0.0-58.0,anomymised,6560c4cfd080ba12b16d8282,6564c83b91c7f6e6e273c0f6,48683,1A,man,NA,NA,NA,NA,fiveyears,NA,NA,NA,NA,NA
