rt,stimulus,button_pressed,choices,ChosenStimulus,trial_type,trial_index,time_elapsed,internal_node_id,subject_id,study_id,session_id,subject,list,ppt_gender,url,key_press,sentence_type,verb,test_part,responses,question_order,left_part,right_part,name_order
2386,Welcome to the experiment. Press Continue to begin.,0,Continue,Continue,html-button-response,0,2390,0.0-0.0,anomymised,6564584152624795c40b73cb,65646c31d65884804f650027,49027,1A,woman,NA,NA,NA,NA,NA,NA,NA,NA,NA,NA
29296.100000023842,NA,NA,NA,NA,external-html,1,32790,0.0-1.0,anomymised,6564584152624795c40b73cb,65646c31d65884804f650027,49027,1A,woman,consent.html,NA,NA,NA,NA,NA,NA,NA,NA,NA
21663.600000023842,"<p>Welcome.</p><p>In this experiment we will ask you to imagine people's motivations for saying sentences.</p><p>Each trial will begin with a sentence that somebody might say to describe an event involving two different people.</p><p>For instance, someone might say <em>Harry is being recruited by Molly</em></p><p>We want you to think about which of those two people (Molly and Harry) the speaker identifies more with. For instance, why did the speaker say <em>Harry is being recruited by Molly</em> rather than <em> Molly is recruiting Harry</em>? Might that mean that the speaker is socially closer to one of the two characters?</p><p>After you have read the sentence, you will rate on a scale which of the two characters the speaker identifies more with.</p><p>You will give your answer by clicking a button on a rating scale.</p><p>Sometimes there will also be catch questions designed to make sure that you are paying attention, which ask about a different topic.</p><p>To do this task, you will have to use your imagination to think about and visualise the events, and how the speaker might relate to the characters.</p><br><p>Ready?</p>",0,Continue,Continue,html-button-response,2,54455,0.0-2.0,anomymised,6564584152624795c40b73cb,65646c31d65884804f650027,49027,1A,woman,NA,NA,NA,NA,NA,NA,NA,NA,NA,NA
2409.5,"<p>Before the experiment starts, we will show you an example of how you will answer the questions. Press 'Continue'.</p>",0,Continue,Continue,html-button-response,3,57872,0.0-3.0,anomymised,6564584152624795c40b73cb,65646c31d65884804f650027,49027,1A,woman,NA,NA,NA,NA,NA,NA,NA,NA,NA,NA
null,Somebody says <br><em>Samuel is dining with Frank</em>,NA,NA,NA,html-keyboard-response,4,60903,0.0-4.0,anomymised,6564584152624795c40b73cb,65646c31d65884804f650027,49027,1A,woman,NA,null,NA,NA,NA,NA,NA,NA,NA,NA
9802.899999976158,<img src='img/Example-trial.jpg' style='height:550px;''></img>,0,Continue,Continue,html-button-response,5,70708,0.0-5.0,anomymised,6564584152624795c40b73cb,65646c31d65884804f650027,49027,1A,woman,NA,NA,NA,NA,NA,NA,NA,NA,NA,NA
1847.6000000238419,<p>Ready to start the experiment?</p><br><p><strong>Remember to give an answer by clicking a button on the rating scale.</strong></p><p>Press 'Continue' to begin.</p>,0,Continue,Continue,html-button-response,6,73561,0.0-6.0,anomymised,6564584152624795c40b73cb,65646c31d65884804f650027,49027,1A,woman,NA,NA,NA,NA,NA,NA,NA,NA,NA,NA
null,Somebody says<br><em>Luke and Kate are shouting at each other</em>,NA,NA,NA,html-keyboard-response,7,76578,0.0-7.0-0.0,anomymised,6564584152624795c40b73cb,65646c31d65884804f650027,49027,1A,woman,NA,null,NAME1 and NAME2 are shouting at each other,shout_conjoined,sentence,NA,NA,NA,NA,NA
8288.5,NA,NA,NA,NA,survey-likert-extra-labels,8,84870,0.0-7.0-1.0,anomymised,6564584152624795c40b73cb,65646c31d65884804f650027,49027,1A,woman,NA,NA,Somebody says<br><em>Luke and Kate are shouting at each other</em>,shout_conjoined,rating_volition,"{""Q0"":6}",[0],The speaker identifies more with <br>Kate than Luke,The speaker identifies more with<br>Luke than Kate,right_to_left
null,Somebody says<br><em>Luke is talking to Dave</em>,NA,NA,NA,html-keyboard-response,9,86880,0.0-8.0-0.0,anomymised,6564584152624795c40b73cb,65646c31d65884804f650027,49027,1A,woman,NA,null,NAME1 is talking to NAME2,talk_active,sentence,NA,NA,NA,NA,NA
4679,NA,NA,NA,NA,survey-likert-extra-labels,10,91559,0.0-8.0-1.0,anomymised,6564584152624795c40b73cb,65646c31d65884804f650027,49027,1A,woman,NA,NA,Somebody says<br><em>Luke is talking to Dave</em>,talk_active,rating_volition,"{""Q0"":0}",[0],The speaker identifies more with <br>Luke than Dave,The speaker identifies more with<br>Dave than Luke,left_to_right
null,Somebody says<br><em>Ruth is hugging Beth</em>,NA,NA,NA,html-keyboard-response,11,93563,0.0-9.0-0.0,anomymised,6564584152624795c40b73cb,65646c31d65884804f650027,49027,1A,woman,NA,null,NAME1 is hugging NAME2,hug_active,sentence,NA,NA,NA,NA,NA
6158.399999976158,NA,NA,NA,NA,survey-likert-extra-labels,12,99724,0.0-9.0-1.0,anomymised,6564584152624795c40b73cb,65646c31d65884804f650027,49027,1A,woman,NA,NA,Somebody says<br><em>Ruth is hugging Beth</em>,hug_active,rating_volition,"{""Q0"":0}",[0],The speaker identifies more with <br>Ruth than Beth,The speaker identifies more with<br>Beth than Ruth,left_to_right
null,Somebody says<br><em>Jane is being touched by Ruth</em>,NA,NA,NA,html-keyboard-response,13,101736,0.0-10.0-0.0,anomymised,6564584152624795c40b73cb,65646c31d65884804f650027,49027,1A,woman,NA,null,NAME1 is being touched by NAME2,touch_passive,sentence,NA,NA,NA,NA,NA
6531.699999928474,NA,NA,NA,NA,survey-likert-extra-labels,14,108269,0.0-10.0-1.0,anomymised,6564584152624795c40b73cb,65646c31d65884804f650027,49027,1A,woman,NA,NA,Somebody says<br><em>Jane is being touched by Ruth</em>,touch_passive,rating_volition,"{""Q0"":0}",[0],The speaker identifies more with <br>Jane than Ruth,The speaker identifies more with<br>Ruth than Jane,left_to_right
null,Somebody says<br><em>Beth is being kissed by Luke</em>,NA,NA,NA,html-keyboard-response,15,110286,0.0-11.0-0.0,anomymised,6564584152624795c40b73cb,65646c31d65884804f650027,49027,1A,woman,NA,null,NAME1 is being kissed by NAME2,kiss_passive,sentence,NA,NA,NA,NA,NA
4459.099999904633,NA,NA,NA,NA,survey-likert-extra-labels,16,114747,0.0-11.0-1.0,anomymised,6564584152624795c40b73cb,65646c31d65884804f650027,49027,1A,woman,NA,NA,Somebody says<br><em>Beth is being kissed by Luke</em>,kiss_passive,rating_volition,"{""Q0"":6}",[0],The speaker identifies more with <br>Luke than Beth,The speaker identifies more with<br>Beth than Luke,right_to_left
null,Somebody says<br><em>Kate and Dave are flirting with each other</em>,NA,NA,NA,html-keyboard-response,17,116754,0.0-12.0-0.0,anomymised,6564584152624795c40b73cb,65646c31d65884804f650027,49027,1A,woman,NA,null,NAME1 and NAME2 are flirting with each other,flirt_conjoined,sentence,NA,NA,NA,NA,NA
3558.1999999284744,NA,NA,NA,NA,survey-likert-extra-labels,18,120314,0.0-12.0-1.0,anomymised,6564584152624795c40b73cb,65646c31d65884804f650027,49027,1A,woman,NA,NA,Somebody says<br><em>Kate and Dave are flirting with each other</em>,flirt_conjoined,rating_volition,"{""Q0"":0}",[0],The speaker identifies more with <br>Dave than Kate,The speaker identifies more with<br>Kate than Dave,right_to_left
null,Somebody says<br><em>Beth and Dave are touching each other</em>,NA,NA,NA,html-keyboard-response,19,122320,0.0-13.0-0.0,anomymised,6564584152624795c40b73cb,65646c31d65884804f650027,49027,1A,woman,NA,null,NAME1 and NAME2 are touching each other,touch_conjoined,sentence,NA,NA,NA,NA,NA
4638,NA,NA,NA,NA,survey-likert-extra-labels,20,126959,0.0-13.0-1.0,anomymised,6564584152624795c40b73cb,65646c31d65884804f650027,49027,1A,woman,NA,NA,Somebody says<br><em>Beth and Dave are touching each other</em>,touch_conjoined,rating_volition,"{""Q0"":6}",[0],The speaker identifies more with <br>Dave than Beth,The speaker identifies more with<br>Beth than Dave,right_to_left
null,Somebody says<br><em>Dave is playing with Mike</em>,NA,NA,NA,html-keyboard-response,21,128969,0.0-14.0-0.0,anomymised,6564584152624795c40b73cb,65646c31d65884804f650027,49027,1A,woman,NA,null,NAME1 is playing with NAME2,play_active,sentence,NA,NA,NA,NA,NA
4119,NA,NA,NA,NA,survey-likert-extra-labels,22,133089,0.0-14.0-1.0,anomymised,6564584152624795c40b73cb,65646c31d65884804f650027,49027,1A,woman,NA,NA,Somebody says<br><em>Dave is playing with Mike</em>,play_active,rating_volition,"{""Q0"":6}",[0],The speaker identifies more with <br>Mike than Dave,The speaker identifies more with<br>Dave than Mike,right_to_left
null,Somebody says<br><em>Jane is carrying Beth,NA,NA,NA,html-keyboard-response,23,135097,0.0-15.0-0.0,anomymised,6564584152624795c40b73cb,65646c31d65884804f650027,49027,1A,woman,NA,null,W2 is carrying W4,carry,sentence,NA,NA,NA,NA,NA
8830.399999976158,NA,NA,NA,NA,survey-likert-extra-labels,24,143929,0.0-15.0-1.0,anomymised,6564584152624795c40b73cb,65646c31d65884804f650027,49027,1A,woman,NA,NA,Somebody says<br><em>Jane is carrying Beth,carry,rating_volition,"{""Q0"":0}",[0],Jane is transporting Beth,Beth is transporting Jane,NA
null,Somebody says<br><em>Luke is marrying Fred</em>,NA,NA,NA,html-keyboard-response,25,145939,0.0-16.0-0.0,anomymised,6564584152624795c40b73cb,65646c31d65884804f650027,49027,1A,woman,NA,null,NAME1 is marrying NAME2,marry_active,sentence,NA,NA,NA,NA,NA
4476.899999976158,NA,NA,NA,NA,survey-likert-extra-labels,26,150422,0.0-16.0-1.0,anomymised,6564584152624795c40b73cb,65646c31d65884804f650027,49027,1A,woman,NA,NA,Somebody says<br><em>Luke is marrying Fred</em>,marry_active,rating_volition,"{""Q0"":0}",[0],The speaker identifies more with <br>Fred than Luke,The speaker identifies more with<br>Luke than Fred,right_to_left
null,Somebody says<br><em>Dave is arguing with Beth</em>,NA,NA,NA,html-keyboard-response,27,152431,0.0-17.0-0.0,anomymised,6564584152624795c40b73cb,65646c31d65884804f650027,49027,1A,woman,NA,null,NAME1 is arguing with NAME2,argue_active,sentence,NA,NA,NA,NA,NA
4724.899999976158,NA,NA,NA,NA,survey-likert-extra-labels,28,157158,0.0-17.0-1.0,anomymised,6564584152624795c40b73cb,65646c31d65884804f650027,49027,1A,woman,NA,NA,Somebody says<br><em>Dave is arguing with Beth</em>,argue_active,rating_volition,"{""Q0"":6}",[0],The speaker identifies more with <br>Beth than Dave,The speaker identifies more with<br>Dave than Beth,right_to_left
null,Somebody says<br><em>Mike is posing for Dave,NA,NA,NA,html-keyboard-response,29,159169,0.0-18.0-0.0,anomymised,6564584152624795c40b73cb,65646c31d65884804f650027,49027,1A,woman,NA,null,M2 is posing for M4,pose,sentence,NA,NA,NA,NA,NA
4426.200000047684,NA,NA,NA,NA,survey-likert-extra-labels,30,163598,0.0-18.0-1.0,anomymised,6564584152624795c40b73cb,65646c31d65884804f650027,49027,1A,woman,NA,NA,Somebody says<br><em>Mike is posing for Dave,pose,rating_volition,"{""Q0"":0}",[0],Mike is modelling for Dave,Dave is modelling for Mike,NA
null,Somebody says<br><em>Dave and Ruth are marrying each other</em>,NA,NA,NA,html-keyboard-response,31,165613,0.0-19.0-0.0,anomymised,6564584152624795c40b73cb,65646c31d65884804f650027,49027,1A,woman,NA,null,NAME1 and NAME2 are marrying each other,marry_conjoined,sentence,NA,NA,NA,NA,NA
6384.099999904633,NA,NA,NA,NA,survey-likert-extra-labels,32,171999,0.0-19.0-1.0,anomymised,6564584152624795c40b73cb,65646c31d65884804f650027,49027,1A,woman,NA,NA,Somebody says<br><em>Dave and Ruth are marrying each other</em>,marry_conjoined,rating_volition,"{""Q0"":0}",[0],The speaker identifies more with <br>Dave than Ruth,The speaker identifies more with<br>Ruth than Dave,left_to_right
null,Somebody says<br><em>Luke is being challenged by Kate</em>,NA,NA,NA,html-keyboard-response,33,174017,0.0-20.0-0.0,anomymised,6564584152624795c40b73cb,65646c31d65884804f650027,49027,1A,woman,NA,null,NAME1 is being challenged by NAME2,challenge_passive,sentence,NA,NA,NA,NA,NA
6292.799999952316,NA,NA,NA,NA,survey-likert-extra-labels,34,180311,0.0-20.0-1.0,anomymised,6564584152624795c40b73cb,65646c31d65884804f650027,49027,1A,woman,NA,NA,Somebody says<br><em>Luke is being challenged by Kate</em>,challenge_passive,rating_volition,"{""Q0"":6}",[0],The speaker identifies more with <br>Luke than Kate,The speaker identifies more with<br>Kate than Luke,left_to_right
null,Somebody says<br><em>Beth and Fred are talking with each other</em>,NA,NA,NA,html-keyboard-response,35,182321,0.0-21.0-0.0,anomymised,6564584152624795c40b73cb,65646c31d65884804f650027,49027,1A,woman,NA,null,NAME1 and NAME2 are talking with each other,talk_conjoined,sentence,NA,NA,NA,NA,NA
9045.099999904633,NA,NA,NA,NA,survey-likert-extra-labels,36,191368,0.0-21.0-1.0,anomymised,6564584152624795c40b73cb,65646c31d65884804f650027,49027,1A,woman,NA,NA,Somebody says<br><em>Beth and Fred are talking with each other</em>,talk_conjoined,rating_volition,"{""Q0"":0}",[0],The speaker identifies more with <br>Beth than Fred,The speaker identifies more with<br>Fred than Beth,left_to_right
null,Somebody says<br><em>Dave is being copied by Luke</em>,NA,NA,NA,html-keyboard-response,37,193377,0.0-22.0-0.0,anomymised,6564584152624795c40b73cb,65646c31d65884804f650027,49027,1A,woman,NA,null,NAME1 is being copied by NAME2,copy_passive,sentence,NA,NA,NA,NA,NA
5694.399999976158,NA,NA,NA,NA,survey-likert-extra-labels,38,199073,0.0-22.0-1.0,anomymised,6564584152624795c40b73cb,65646c31d65884804f650027,49027,1A,woman,NA,NA,Somebody says<br><em>Dave is being copied by Luke</em>,copy_passive,rating_volition,"{""Q0"":0}",[0],The speaker identifies more with <br>Dave than Luke,The speaker identifies more with<br>Luke than Dave,left_to_right
null,Somebody says<br><em>Mike and Beth are meeting each other</em>,NA,NA,NA,html-keyboard-response,39,201091,0.0-23.0-0.0,anomymised,6564584152624795c40b73cb,65646c31d65884804f650027,49027,1A,woman,NA,null,NAME1 and NAME2 are meeting each other,meet_conjoined,sentence,NA,NA,NA,NA,NA
3250,NA,NA,NA,NA,survey-likert-extra-labels,40,204342,0.0-23.0-1.0,anomymised,6564584152624795c40b73cb,65646c31d65884804f650027,49027,1A,woman,NA,NA,Somebody says<br><em>Mike and Beth are meeting each other</em>,meet_conjoined,rating_volition,"{""Q0"":0}",[0],The speaker identifies more with <br>Beth than Mike,The speaker identifies more with<br>Mike than Beth,right_to_left
null,Somebody says<br><em>Fred and Luke are hugging each other</em>,NA,NA,NA,html-keyboard-response,41,206347,0.0-24.0-0.0,anomymised,6564584152624795c40b73cb,65646c31d65884804f650027,49027,1A,woman,NA,null,NAME1 and NAME2 are hugging each other,hug_conjoined,sentence,NA,NA,NA,NA,NA
4661.600000023842,NA,NA,NA,NA,survey-likert-extra-labels,42,211005,0.0-24.0-1.0,anomymised,6564584152624795c40b73cb,65646c31d65884804f650027,49027,1A,woman,NA,NA,Somebody says<br><em>Fred and Luke are hugging each other</em>,hug_conjoined,rating_volition,"{""Q0"":0}",[0],The speaker identifies more with <br>Fred than Luke,The speaker identifies more with<br>Luke than Fred,left_to_right
null,Somebody says<br><em>Mike is flirting with Fred</em>,NA,NA,NA,html-keyboard-response,43,213010,0.0-25.0-0.0,anomymised,6564584152624795c40b73cb,65646c31d65884804f650027,49027,1A,woman,NA,null,NAME1 is flirting with NAME2,flirt_active,sentence,NA,NA,NA,NA,NA
4545.600000023842,NA,NA,NA,NA,survey-likert-extra-labels,44,217557,0.0-25.0-1.0,anomymised,6564584152624795c40b73cb,65646c31d65884804f650027,49027,1A,woman,NA,NA,Somebody says<br><em>Mike is flirting with Fred</em>,flirt_active,rating_volition,"{""Q0"":0}",[0],The speaker identifies more with <br>Mike than Fred,The speaker identifies more with<br>Fred than Mike,left_to_right
null,Somebody says<br><em>Mike is shouting at Luke</em>,NA,NA,NA,html-keyboard-response,45,219573,0.0-26.0-0.0,anomymised,6564584152624795c40b73cb,65646c31d65884804f650027,49027,1A,woman,NA,null,NAME1 is shouting at NAME2,shout_active,sentence,NA,NA,NA,NA,NA
3182.399999976158,NA,NA,NA,NA,survey-likert-extra-labels,46,222756,0.0-26.0-1.0,anomymised,6564584152624795c40b73cb,65646c31d65884804f650027,49027,1A,woman,NA,NA,Somebody says<br><em>Mike is shouting at Luke</em>,shout_active,rating_volition,"{""Q0"":0}",[0],The speaker identifies more with <br>Mike than Luke,The speaker identifies more with<br>Luke than Mike,left_to_right
null,Somebody says<br><em>Jane is meeting Kate</em>,NA,NA,NA,html-keyboard-response,47,224758,0.0-27.0-0.0,anomymised,6564584152624795c40b73cb,65646c31d65884804f650027,49027,1A,woman,NA,null,NAME1 is meeting NAME2,meet_active,sentence,NA,NA,NA,NA,NA
3493.100000023842,NA,NA,NA,NA,survey-likert-extra-labels,48,228253,0.0-27.0-1.0,anomymised,6564584152624795c40b73cb,65646c31d65884804f650027,49027,1A,woman,NA,NA,Somebody says<br><em>Jane is meeting Kate</em>,meet_active,rating_volition,"{""Q0"":3}",[0],The speaker identifies more with <br>Kate than Jane,The speaker identifies more with<br>Jane than Kate,right_to_left
null,Somebody says<br><em>Kate is dancing with Ruth</em>,NA,NA,NA,html-keyboard-response,49,230266,0.0-28.0-0.0,anomymised,6564584152624795c40b73cb,65646c31d65884804f650027,49027,1A,woman,NA,null,NAME1 is dancing with NAME2,dance_active,sentence,NA,NA,NA,NA,NA
4599.399999976158,NA,NA,NA,NA,survey-likert-extra-labels,50,234867,0.0-28.0-1.0,anomymised,6564584152624795c40b73cb,65646c31d65884804f650027,49027,1A,woman,NA,NA,Somebody says<br><em>Kate is dancing with Ruth</em>,dance_active,rating_volition,"{""Q0"":6}",[0],The speaker identifies more with <br>Ruth than Kate,The speaker identifies more with<br>Kate than Ruth,right_to_left
null,Somebody says<br><em>Mike is being shouted at by Dave</em>,NA,NA,NA,html-keyboard-response,51,236880,0.0-29.0-0.0,anomymised,6564584152624795c40b73cb,65646c31d65884804f650027,49027,1A,woman,NA,null,NAME1 is being shouted at by NAME2,shout_passive,sentence,NA,NA,NA,NA,NA
3279.600000023842,NA,NA,NA,NA,survey-likert-extra-labels,52,240161,0.0-29.0-1.0,anomymised,6564584152624795c40b73cb,65646c31d65884804f650027,49027,1A,woman,NA,NA,Somebody says<br><em>Mike is being shouted at by Dave</em>,shout_passive,rating_volition,"{""Q0"":0}",[0],The speaker identifies more with <br>Mike than Dave,The speaker identifies more with<br>Dave than Mike,left_to_right
null,Somebody says<br><em>Mike is reminding Beth,NA,NA,NA,html-keyboard-response,53,242170,0.0-30.0-0.0,anomymised,6564584152624795c40b73cb,65646c31d65884804f650027,49027,1A,woman,NA,null,M2 is reminding W4,remind,sentence,NA,NA,NA,NA,NA
6723.200000047684,NA,NA,NA,NA,survey-likert-extra-labels,54,248895,0.0-30.0-1.0,anomymised,6564584152624795c40b73cb,65646c31d65884804f650027,49027,1A,woman,NA,NA,Somebody says<br><em>Mike is reminding Beth,remind,rating_volition,"{""Q0"":0}",[0],Mike is telling Beth again,Beth is telling Mike again,NA
null,Somebody says<br><em>Ruth is chasing Kate,NA,NA,NA,html-keyboard-response,55,250904,0.0-31.0-0.0,anomymised,6564584152624795c40b73cb,65646c31d65884804f650027,49027,1A,woman,NA,null,W1 is chasing W3,chase,sentence,NA,NA,NA,NA,NA
4751.600000023842,NA,NA,NA,NA,survey-likert-extra-labels,56,255657,0.0-31.0-1.0,anomymised,6564584152624795c40b73cb,65646c31d65884804f650027,49027,1A,woman,NA,NA,Somebody says<br><em>Ruth is chasing Kate,chase,rating_volition,"{""Q0"":0}",[0],Ruth is behind Kate,Kate is behind Ruth,NA
null,Somebody says<br><em>Luke and Ruth are dancing with each other</em>,NA,NA,NA,html-keyboard-response,57,257670,0.0-32.0-0.0,anomymised,6564584152624795c40b73cb,65646c31d65884804f650027,49027,1A,woman,NA,null,NAME1 and NAME2 are dancing with each other,dance_conjoined,sentence,NA,NA,NA,NA,NA
3934.9000000953674,NA,NA,NA,NA,survey-likert-extra-labels,58,261606,0.0-32.0-1.0,anomymised,6564584152624795c40b73cb,65646c31d65884804f650027,49027,1A,woman,NA,NA,Somebody says<br><em>Luke and Ruth are dancing with each other</em>,dance_conjoined,rating_volition,"{""Q0"":3}",[0],The speaker identifies more with <br>Ruth than Luke,The speaker identifies more with<br>Luke than Ruth,right_to_left
null,Somebody says<br><em>Mike and Dave are kissing each other</em>,NA,NA,NA,html-keyboard-response,59,263608,0.0-33.0-0.0,anomymised,6564584152624795c40b73cb,65646c31d65884804f650027,49027,1A,woman,NA,null,NAME1 and NAME2 are kissing each other,kiss_conjoined,sentence,NA,NA,NA,NA,NA
1999.3999999761581,NA,NA,NA,NA,survey-likert-extra-labels,60,265609,0.0-33.0-1.0,anomymised,6564584152624795c40b73cb,65646c31d65884804f650027,49027,1A,woman,NA,NA,Somebody says<br><em>Mike and Dave are kissing each other</em>,kiss_conjoined,rating_volition,"{""Q0"":3}",[0],The speaker identifies more with <br>Mike than Dave,The speaker identifies more with<br>Dave than Mike,left_to_right
null,Somebody says<br><em>Beth is being looked at by Mike</em>,NA,NA,NA,html-keyboard-response,61,267625,0.0-34.0-0.0,anomymised,6564584152624795c40b73cb,65646c31d65884804f650027,49027,1A,woman,NA,null,NAME1 is being looked at by NAME2,look_passive,sentence,NA,NA,NA,NA,NA
3871.5999999046326,NA,NA,NA,NA,survey-likert-extra-labels,62,271501,0.0-34.0-1.0,anomymised,6564584152624795c40b73cb,65646c31d65884804f650027,49027,1A,woman,NA,NA,Somebody says<br><em>Beth is being looked at by Mike</em>,look_passive,rating_volition,"{""Q0"":6}",[0],The speaker identifies more with <br>Beth than Mike,The speaker identifies more with<br>Mike than Beth,left_to_right
null,Somebody says<br><em>Kate is kissing Fred</em>,NA,NA,NA,html-keyboard-response,63,273507,0.0-35.0-0.0,anomymised,6564584152624795c40b73cb,65646c31d65884804f650027,49027,1A,woman,NA,null,NAME1 is kissing NAME2,kiss_active,sentence,NA,NA,NA,NA,NA
4024.600000023842,NA,NA,NA,NA,survey-likert-extra-labels,64,277534,0.0-35.0-1.0,anomymised,6564584152624795c40b73cb,65646c31d65884804f650027,49027,1A,woman,NA,NA,Somebody says<br><em>Kate is kissing Fred</em>,kiss_active,rating_volition,"{""Q0"":0}",[0],The speaker identifies more with <br>Fred than Kate,The speaker identifies more with<br>Kate than Fred,right_to_left
null,Somebody says<br><em>Luke is being hugged by Fred</em>,NA,NA,NA,html-keyboard-response,65,279544,0.0-36.0-0.0,anomymised,6564584152624795c40b73cb,65646c31d65884804f650027,49027,1A,woman,NA,null,NAME1 is being hugged by NAME2,hug_passive,sentence,NA,NA,NA,NA,NA
5706.300000071526,NA,NA,NA,NA,survey-likert-extra-labels,66,285252,0.0-36.0-1.0,anomymised,6564584152624795c40b73cb,65646c31d65884804f650027,49027,1A,woman,NA,NA,Somebody says<br><em>Luke is being hugged by Fred</em>,hug_passive,rating_volition,"{""Q0"":3}",[0],The speaker identifies more with <br>Luke than Fred,The speaker identifies more with<br>Fred than Luke,left_to_right
null,Somebody says<br><em>Beth is looking at Dave</em>,NA,NA,NA,html-keyboard-response,67,287260,0.0-37.0-0.0,anomymised,6564584152624795c40b73cb,65646c31d65884804f650027,49027,1A,woman,NA,null,NAME1 is looking at NAME2,look_active,sentence,NA,NA,NA,NA,NA
8414.5,NA,NA,NA,NA,survey-likert-extra-labels,68,295677,0.0-37.0-1.0,anomymised,6564584152624795c40b73cb,65646c31d65884804f650027,49027,1A,woman,NA,NA,Somebody says<br><em>Beth is looking at Dave</em>,look_active,rating_volition,"{""Q0"":0}",[0],The speaker identifies more with <br>Dave than Beth,The speaker identifies more with<br>Beth than Dave,right_to_left
null,Somebody says<br><em>Fred is being seduced by Jane</em>,NA,NA,NA,html-keyboard-response,69,297680,0.0-38.0-0.0,anomymised,6564584152624795c40b73cb,65646c31d65884804f650027,49027,1A,woman,NA,null,NAME1 is being seduced by NAME2,seduce_passive,sentence,NA,NA,NA,NA,NA
4722.800000071526,NA,NA,NA,NA,survey-likert-extra-labels,70,302405,0.0-38.0-1.0,anomymised,6564584152624795c40b73cb,65646c31d65884804f650027,49027,1A,woman,NA,NA,Somebody says<br><em>Fred is being seduced by Jane</em>,seduce_passive,rating_volition,"{""Q0"":6}",[0],The speaker identifies more with <br>Jane than Fred,The speaker identifies more with<br>Fred than Jane,right_to_left
null,Somebody says<br><em>Ruth is being greeted by Fred</em>,NA,NA,NA,html-keyboard-response,71,304417,0.0-39.0-0.0,anomymised,6564584152624795c40b73cb,65646c31d65884804f650027,49027,1A,woman,NA,null,NAME1 is being greeted by NAME2,greet_passive,sentence,NA,NA,NA,NA,NA
5031.299999952316,NA,NA,NA,NA,survey-likert-extra-labels,72,309450,0.0-39.0-1.0,anomymised,6564584152624795c40b73cb,65646c31d65884804f650027,49027,1A,woman,NA,NA,Somebody says<br><em>Ruth is being greeted by Fred</em>,greet_passive,rating_volition,"{""Q0"":0}",[0],The speaker identifies more with <br>Ruth than Fred,The speaker identifies more with<br>Fred than Ruth,left_to_right
null,Somebody says<br><em>Luke is driving Fred,NA,NA,NA,html-keyboard-response,73,311457,0.0-40.0-0.0,anomymised,6564584152624795c40b73cb,65646c31d65884804f650027,49027,1A,woman,NA,null,M1 is driving M3,drive,sentence,NA,NA,NA,NA,NA
4197.399999976158,NA,NA,NA,NA,survey-likert-extra-labels,74,315656,0.0-40.0-1.0,anomymised,6564584152624795c40b73cb,65646c31d65884804f650027,49027,1A,woman,NA,NA,Somebody says<br><em>Luke is driving Fred,drive,rating_volition,"{""Q0"":1}",[0],Luke is Fred's passenger,Fred is Luke's passenger,NA
null,Somebody says<br><em>Beth is seducing Ruth</em>,NA,NA,NA,html-keyboard-response,75,319956,0.0-41.0-0.0,anomymised,6564584152624795c40b73cb,65646c31d65884804f650027,49027,1A,woman,NA,null,NAME1 is seducing NAME2,seduce_active,sentence,NA,NA,NA,NA,NA
4542.5,NA,NA,NA,NA,survey-likert-extra-labels,76,324501,0.0-41.0-1.0,anomymised,6564584152624795c40b73cb,65646c31d65884804f650027,49027,1A,woman,NA,NA,Somebody says<br><em>Beth is seducing Ruth</em>,seduce_active,rating_volition,"{""Q0"":0}",[0],The speaker identifies more with <br>Ruth than Beth,The speaker identifies more with<br>Beth than Ruth,right_to_left
null,Somebody says<br><em>Kate and Jane are arguing with each other</em>,NA,NA,NA,html-keyboard-response,77,326506,0.0-42.0-0.0,anomymised,6564584152624795c40b73cb,65646c31d65884804f650027,49027,1A,woman,NA,null,NAME1 and NAME2 are arguing with each other,argue_conjoined,sentence,NA,NA,NA,NA,NA
2222.899999976158,NA,NA,NA,NA,survey-likert-extra-labels,78,328730,0.0-42.0-1.0,anomymised,6564584152624795c40b73cb,65646c31d65884804f650027,49027,1A,woman,NA,NA,Somebody says<br><em>Kate and Jane are arguing with each other</em>,argue_conjoined,rating_volition,"{""Q0"":3}",[0],The speaker identifies more with <br>Kate than Jane,The speaker identifies more with<br>Jane than Kate,left_to_right
null,Somebody says<br><em>Beth is touching Ruth</em>,NA,NA,NA,html-keyboard-response,79,330736,0.0-43.0-0.0,anomymised,6564584152624795c40b73cb,65646c31d65884804f650027,49027,1A,woman,NA,null,NAME1 is touching NAME2,touch_active,sentence,NA,NA,NA,NA,NA
2518.5,NA,NA,NA,NA,survey-likert-extra-labels,80,333257,0.0-43.0-1.0,anomymised,6564584152624795c40b73cb,65646c31d65884804f650027,49027,1A,woman,NA,NA,Somebody says<br><em>Beth is touching Ruth</em>,touch_active,rating_volition,"{""Q0"":0}",[0],The speaker identifies more with <br>Beth than Ruth,The speaker identifies more with<br>Ruth than Beth,left_to_right
null,Somebody says<br><em>Kate is being opposed by Ruth</em>,NA,NA,NA,html-keyboard-response,81,335265,0.0-44.0-0.0,anomymised,6564584152624795c40b73cb,65646c31d65884804f650027,49027,1A,woman,NA,null,NAME1 is being opposed by NAME2,oppose_passive,sentence,NA,NA,NA,NA,NA
4009.6999999284744,NA,NA,NA,NA,survey-likert-extra-labels,82,339277,0.0-44.0-1.0,anomymised,6564584152624795c40b73cb,65646c31d65884804f650027,49027,1A,woman,NA,NA,Somebody says<br><em>Kate is being opposed by Ruth</em>,oppose_passive,rating_volition,"{""Q0"":6}",[0],The speaker identifies more with <br>Ruth than Kate,The speaker identifies more with<br>Kate than Ruth,right_to_left
null,Somebody says<br><em>Luke is shouting at Beth</em>,NA,NA,NA,html-keyboard-response,83,341288,0.0-45.0-0.0,anomymised,6564584152624795c40b73cb,65646c31d65884804f650027,49027,1A,woman,NA,null,NAME1 is shouting at NAME2,shout_active,sentence,NA,NA,NA,NA,NA
3121.2000000476837,NA,NA,NA,NA,survey-likert-extra-labels,84,344411,0.0-45.0-1.0,anomymised,6564584152624795c40b73cb,65646c31d65884804f650027,49027,1A,woman,NA,NA,Somebody says<br><em>Luke is shouting at Beth</em>,shout_active,rating_volition,"{""Q0"":6}",[0],The speaker identifies more with <br>Luke than Beth,The speaker identifies more with<br>Beth than Luke,left_to_right
null,Somebody says<br><em>Beth is copying Fred</em>,NA,NA,NA,html-keyboard-response,85,346423,0.0-46.0-0.0,anomymised,6564584152624795c40b73cb,65646c31d65884804f650027,49027,1A,woman,NA,null,NAME1 is copying NAME2,copy_active,sentence,NA,NA,NA,NA,NA
3174.5,NA,NA,NA,NA,survey-likert-extra-labels,86,349599,0.0-46.0-1.0,anomymised,6564584152624795c40b73cb,65646c31d65884804f650027,49027,1A,woman,NA,NA,Somebody says<br><em>Beth is copying Fred</em>,copy_active,rating_volition,"{""Q0"":0}",[0],The speaker identifies more with <br>Beth than Fred,The speaker identifies more with<br>Fred than Beth,left_to_right
null,Somebody says<br><em>Jane is teaching Dave,NA,NA,NA,html-keyboard-response,87,351604,0.0-47.0-0.0,anomymised,6564584152624795c40b73cb,65646c31d65884804f650027,49027,1A,woman,NA,null,W2 is teaching M4,teach,sentence,NA,NA,NA,NA,NA
4907.699999928474,NA,NA,NA,NA,survey-likert-extra-labels,88,356513,0.0-47.0-1.0,anomymised,6564584152624795c40b73cb,65646c31d65884804f650027,49027,1A,woman,NA,NA,Somebody says<br><em>Jane is teaching Dave,teach,rating_volition,"{""Q0"":0}",[0],Jane is educating Dave,Dave is educating Jane,NA
null,Somebody says<br><em>Fred and Ruth are fighting with each other</em>,NA,NA,NA,html-keyboard-response,89,358524,0.0-48.0-0.0,anomymised,6564584152624795c40b73cb,65646c31d65884804f650027,49027,1A,woman,NA,null,NAME1 and NAME2 are fighting with each other,fight_conjoined,sentence,NA,NA,NA,NA,NA
5080,NA,NA,NA,NA,survey-likert-extra-labels,90,363605,0.0-48.0-1.0,anomymised,6564584152624795c40b73cb,65646c31d65884804f650027,49027,1A,woman,NA,NA,Somebody says<br><em>Fred and Ruth are fighting with each other</em>,fight_conjoined,rating_volition,"{""Q0"":0}",[0],The speaker identifies more with <br>Fred than Ruth,The speaker identifies more with<br>Ruth than Fred,left_to_right
null,Somebody says<br><em>Kate is feeding Luke,NA,NA,NA,html-keyboard-response,91,365619,0.0-49.0-0.0,anomymised,6564584152624795c40b73cb,65646c31d65884804f650027,49027,1A,woman,NA,null,W3 is feeding M1,feed,sentence,NA,NA,NA,NA,NA
5452.399999976158,NA,NA,NA,NA,survey-likert-extra-labels,92,371074,0.0-49.0-1.0,anomymised,6564584152624795c40b73cb,65646c31d65884804f650027,49027,1A,woman,NA,NA,Somebody says<br><em>Kate is feeding Luke,feed,rating_volition,"{""Q0"":0}",[0],Kate cooked for Luke,Luke cooked for Kate,NA
null,Somebody says<br><em>Mike is greeting Dave</em>,NA,NA,NA,html-keyboard-response,93,373082,0.0-50.0-0.0,anomymised,6564584152624795c40b73cb,65646c31d65884804f650027,49027,1A,woman,NA,null,NAME1 is greeting NAME2,greet_active,sentence,NA,NA,NA,NA,NA
4644.300000071526,NA,NA,NA,NA,survey-likert-extra-labels,94,377728,0.0-50.0-1.0,anomymised,6564584152624795c40b73cb,65646c31d65884804f650027,49027,1A,woman,NA,NA,Somebody says<br><em>Mike is greeting Dave</em>,greet_active,rating_volition,"{""Q0"":0}",[0],The speaker identifies more with <br>Dave than Mike,The speaker identifies more with<br>Mike than Dave,right_to_left
null,Somebody says<br><em>Beth is opposing Fred</em>,NA,NA,NA,html-keyboard-response,95,379734,0.0-51.0-0.0,anomymised,6564584152624795c40b73cb,65646c31d65884804f650027,49027,1A,woman,NA,null,NAME1 is opposing NAME2,oppose_active,sentence,NA,NA,NA,NA,NA
3596.7000000476837,NA,NA,NA,NA,survey-likert-extra-labels,96,383333,0.0-51.0-1.0,anomymised,6564584152624795c40b73cb,65646c31d65884804f650027,49027,1A,woman,NA,NA,Somebody says<br><em>Beth is opposing Fred</em>,oppose_active,rating_volition,"{""Q0"":0}",[0],The speaker identifies more with <br>Fred than Beth,The speaker identifies more with<br>Beth than Fred,right_to_left
null,Somebody says<br><em>Fred is fighting with Kate</em>,NA,NA,NA,html-keyboard-response,97,385336,0.0-52.0-0.0,anomymised,6564584152624795c40b73cb,65646c31d65884804f650027,49027,1A,woman,NA,null,NAME1 is fighting with NAME2,fight_active,sentence,NA,NA,NA,NA,NA
2498.3000000715256,NA,NA,NA,NA,survey-likert-extra-labels,98,387836,0.0-52.0-1.0,anomymised,6564584152624795c40b73cb,65646c31d65884804f650027,49027,1A,woman,NA,NA,Somebody says<br><em>Fred is fighting with Kate</em>,fight_active,rating_volition,"{""Q0"":6}",[0],The speaker identifies more with <br>Fred than Kate,The speaker identifies more with<br>Kate than Fred,left_to_right
null,Somebody says<br><em>Beth and Mike are playing with each other</em>,NA,NA,NA,html-keyboard-response,99,389843,0.0-53.0-0.0,anomymised,6564584152624795c40b73cb,65646c31d65884804f650027,49027,1A,woman,NA,null,NAME1 and NAME2 are playing with each other,play_conjoined,sentence,NA,NA,NA,NA,NA
2472.399999976158,NA,NA,NA,NA,survey-likert-extra-labels,100,392317,0.0-53.0-1.0,anomymised,6564584152624795c40b73cb,65646c31d65884804f650027,49027,1A,woman,NA,NA,Somebody says<br><em>Beth and Mike are playing with each other</em>,play_conjoined,rating_volition,"{""Q0"":3}",[0],The speaker identifies more with <br>Mike than Beth,The speaker identifies more with<br>Beth than Mike,right_to_left
null,Somebody says<br><em>Fred is hiring Ruth,NA,NA,NA,html-keyboard-response,101,394324,0.0-54.0-0.0,anomymised,6564584152624795c40b73cb,65646c31d65884804f650027,49027,1A,woman,NA,null,M3 is hiring W1,hire,sentence,NA,NA,NA,NA,NA
3805.6999999284744,NA,NA,NA,NA,survey-likert-extra-labels,102,398132,0.0-54.0-1.0,anomymised,6564584152624795c40b73cb,65646c31d65884804f650027,49027,1A,woman,NA,NA,Somebody says<br><em>Fred is hiring Ruth,hire,rating_volition,"{""Q0"":0}",[0],Fred is employing Ruth,Ruth is employing Fred,NA
null,Somebody says<br><em>Beth is challenging Jane</em>,NA,NA,NA,html-keyboard-response,103,400144,0.0-55.0-0.0,anomymised,6564584152624795c40b73cb,65646c31d65884804f650027,49027,1A,woman,NA,null,NAME1 is challenging NAME2,challenge_active,sentence,NA,NA,NA,NA,NA
4871.5,NA,NA,NA,NA,survey-likert-extra-labels,104,405017,0.0-55.0-1.0,anomymised,6564584152624795c40b73cb,65646c31d65884804f650027,49027,1A,woman,NA,NA,Somebody says<br><em>Beth is challenging Jane</em>,challenge_active,rating_volition,"{""Q0"":0}",[0],The speaker identifies more with <br>Beth than Jane,The speaker identifies more with<br>Jane than Beth,left_to_right
1867.6999999284744,<p>Thank you for completing that task.</p><p>The final part of this session is a short questionnaire.</p><p>Press Continue.</p>,0,Continue,Continue,html-button-response,105,406888,0.0-56.0,anomymised,6564584152624795c40b73cb,65646c31d65884804f650027,49027,1A,woman,NA,NA,NA,NA,NA,NA,NA,NA,NA,NA
29920.200000047684,NA,NA,NA,NA,survey-text,106,437851,0.0-57.0,anomymised,6564584152624795c40b73cb,65646c31d65884804f650027,49027,1A,woman,NA,NA,NA,NA,demographics,"{""Q0"":""34"",""Q1"":""english"",""Q2"":""english"",""Q3"":""scotland"",""Q4"":""british"",""Q5"":""white british"",""Q6"":""female""}",NA,NA,NA,NA
2709,<p>This is the last question - thank you for taking part! Have you lived in the UK for the last 5 years or more?</p>,0,"Yes,No",Yes,html-button-response,107,440566,0.0-58.0,anomymised,6564584152624795c40b73cb,65646c31d65884804f650027,49027,1A,woman,NA,NA,NA,NA,fiveyears,NA,NA,NA,NA,NA
