rt,stimulus,button_pressed,choices,ChosenStimulus,trial_type,trial_index,time_elapsed,internal_node_id,subject_id,study_id,session_id,subject,list,ppt_gender,url,key_press,sentence_type,verb,test_part,responses,question_order,left_part,right_part,name_order
1589.2000000001863,Welcome to the experiment. Press Continue to begin.,0,Continue,Continue,html-button-response,0,1593,0.0-0.0,anomymised,6564584152624795c40b73cb,6564bda710e31be9ba544f41,51860,1A,woman,NA,NA,NA,NA,NA,NA,NA,NA,NA,NA
5193.800000000279,NA,NA,NA,NA,external-html,1,7859,0.0-1.0,anomymised,6564584152624795c40b73cb,6564bda710e31be9ba544f41,51860,1A,woman,consent.html,NA,NA,NA,NA,NA,NA,NA,NA,NA
20807.899999999907,"<p>Welcome.</p><p>In this experiment we will ask you to imagine people's motivations for saying sentences.</p><p>Each trial will begin with a sentence that somebody might say to describe an event involving two different people.</p><p>For instance, someone might say <em>Harry is being recruited by Molly</em></p><p>We want you to think about which of those two people (Molly and Harry) the speaker identifies more with. For instance, why did the speaker say <em>Harry is being recruited by Molly</em> rather than <em> Molly is recruiting Harry</em>? Might that mean that the speaker is socially closer to one of the two characters?</p><p>After you have read the sentence, you will rate on a scale which of the two characters the speaker identifies more with.</p><p>You will give your answer by clicking a button on a rating scale.</p><p>Sometimes there will also be catch questions designed to make sure that you are paying attention, which ask about a different topic.</p><p>To do this task, you will have to use your imagination to think about and visualise the events, and how the speaker might relate to the characters.</p><br><p>Ready?</p>",0,Continue,Continue,html-button-response,2,28667,0.0-2.0,anomymised,6564584152624795c40b73cb,6564bda710e31be9ba544f41,51860,1A,woman,NA,NA,NA,NA,NA,NA,NA,NA,NA,NA
2896.5,"<p>Before the experiment starts, we will show you an example of how you will answer the questions. Press 'Continue'.</p>",0,Continue,Continue,html-button-response,3,32566,0.0-3.0,anomymised,6564584152624795c40b73cb,6564bda710e31be9ba544f41,51860,1A,woman,NA,NA,NA,NA,NA,NA,NA,NA,NA,NA
null,Somebody says <br><em>Samuel is dining with Frank</em>,NA,NA,NA,html-keyboard-response,4,35574,0.0-4.0,anomymised,6564584152624795c40b73cb,6564bda710e31be9ba544f41,51860,1A,woman,NA,null,NA,NA,NA,NA,NA,NA,NA,NA
10667.100000000093,<img src='img/Example-trial.jpg' style='height:550px;''></img>,0,Continue,Continue,html-button-response,5,46243,0.0-5.0,anomymised,6564584152624795c40b73cb,6564bda710e31be9ba544f41,51860,1A,woman,NA,NA,NA,NA,NA,NA,NA,NA,NA,NA
1652.5,<p>Ready to start the experiment?</p><br><p><strong>Remember to give an answer by clicking a button on the rating scale.</strong></p><p>Press 'Continue' to begin.</p>,0,Continue,Continue,html-button-response,6,48905,0.0-6.0,anomymised,6564584152624795c40b73cb,6564bda710e31be9ba544f41,51860,1A,woman,NA,NA,NA,NA,NA,NA,NA,NA,NA,NA
null,Somebody says<br><em>Fred and Ruth are hugging each other</em>,NA,NA,NA,html-keyboard-response,7,51911,0.0-7.0-0.0,anomymised,6564584152624795c40b73cb,6564bda710e31be9ba544f41,51860,1A,woman,NA,null,NAME1 and NAME2 are hugging each other,hug_conjoined,sentence,NA,NA,NA,NA,NA
4546.800000000279,NA,NA,NA,NA,survey-likert-extra-labels,8,56462,0.0-7.0-1.0,anomymised,6564584152624795c40b73cb,6564bda710e31be9ba544f41,51860,1A,woman,NA,NA,Somebody says<br><em>Fred and Ruth are hugging each other</em>,hug_conjoined,rating_volition,"{""Q0"":2}",[0],The speaker identifies more with <br>Fred than Ruth,The speaker identifies more with<br>Ruth than Fred,left_to_right
null,Somebody says<br><em>Mike is hugging Beth</em>,NA,NA,NA,html-keyboard-response,9,58467,0.0-8.0-0.0,anomymised,6564584152624795c40b73cb,6564bda710e31be9ba544f41,51860,1A,woman,NA,null,NAME1 is hugging NAME2,hug_active,sentence,NA,NA,NA,NA,NA
2750,NA,NA,NA,NA,survey-likert-extra-labels,10,61220,0.0-8.0-1.0,anomymised,6564584152624795c40b73cb,6564bda710e31be9ba544f41,51860,1A,woman,NA,NA,Somebody says<br><em>Mike is hugging Beth</em>,hug_active,rating_volition,"{""Q0"":2}",[0],The speaker identifies more with <br>Mike than Beth,The speaker identifies more with<br>Beth than Mike,left_to_right
null,Somebody says<br><em>Luke is marrying Beth</em>,NA,NA,NA,html-keyboard-response,11,63223,0.0-9.0-0.0,anomymised,6564584152624795c40b73cb,6564bda710e31be9ba544f41,51860,1A,woman,NA,null,NAME1 is marrying NAME2,marry_active,sentence,NA,NA,NA,NA,NA
3724.1999999997206,NA,NA,NA,NA,survey-likert-extra-labels,12,66949,0.0-9.0-1.0,anomymised,6564584152624795c40b73cb,6564bda710e31be9ba544f41,51860,1A,woman,NA,NA,Somebody says<br><em>Luke is marrying Beth</em>,marry_active,rating_volition,"{""Q0"":4}",[0],The speaker identifies more with <br>Beth than Luke,The speaker identifies more with<br>Luke than Beth,right_to_left
null,Somebody says<br><em>Ruth and Beth are flirting with each other</em>,NA,NA,NA,html-keyboard-response,13,68952,0.0-10.0-0.0,anomymised,6564584152624795c40b73cb,6564bda710e31be9ba544f41,51860,1A,woman,NA,null,NAME1 and NAME2 are flirting with each other,flirt_conjoined,sentence,NA,NA,NA,NA,NA
3332.1999999997206,NA,NA,NA,NA,survey-likert-extra-labels,14,72286,0.0-10.0-1.0,anomymised,6564584152624795c40b73cb,6564bda710e31be9ba544f41,51860,1A,woman,NA,NA,Somebody says<br><em>Ruth and Beth are flirting with each other</em>,flirt_conjoined,rating_volition,"{""Q0"":3}",[0],The speaker identifies more with <br>Beth than Ruth,The speaker identifies more with<br>Ruth than Beth,right_to_left
null,Somebody says<br><em>Kate is feeding Luke,NA,NA,NA,html-keyboard-response,15,74291,0.0-11.0-0.0,anomymised,6564584152624795c40b73cb,6564bda710e31be9ba544f41,51860,1A,woman,NA,null,W3 is feeding M1,feed,sentence,NA,NA,NA,NA,NA
7166.5,NA,NA,NA,NA,survey-likert-extra-labels,16,81459,0.0-11.0-1.0,anomymised,6564584152624795c40b73cb,6564bda710e31be9ba544f41,51860,1A,woman,NA,NA,Somebody says<br><em>Kate is feeding Luke,feed,rating_volition,"{""Q0"":0}",[0],Kate cooked for Luke,Luke cooked for Kate,NA
null,Somebody says<br><em>Dave is being shouted at by Mike</em>,NA,NA,NA,html-keyboard-response,17,83463,0.0-12.0-0.0,anomymised,6564584152624795c40b73cb,6564bda710e31be9ba544f41,51860,1A,woman,NA,null,NAME1 is being shouted at by NAME2,shout_passive,sentence,NA,NA,NA,NA,NA
9849.69999999972,NA,NA,NA,NA,survey-likert-extra-labels,18,93314,0.0-12.0-1.0,anomymised,6564584152624795c40b73cb,6564bda710e31be9ba544f41,51860,1A,woman,NA,NA,Somebody says<br><em>Dave is being shouted at by Mike</em>,shout_passive,rating_volition,"{""Q0"":1}",[0],The speaker identifies more with <br>Mike than Dave,The speaker identifies more with<br>Dave than Mike,right_to_left
null,Somebody says<br><em>Kate is looking at Beth</em>,NA,NA,NA,html-keyboard-response,19,95317,0.0-13.0-0.0,anomymised,6564584152624795c40b73cb,6564bda710e31be9ba544f41,51860,1A,woman,NA,null,NAME1 is looking at NAME2,look_active,sentence,NA,NA,NA,NA,NA
60260.69999999972,NA,NA,NA,NA,survey-likert-extra-labels,20,155577,0.0-13.0-1.0,anomymised,6564584152624795c40b73cb,6564bda710e31be9ba544f41,51860,1A,woman,NA,NA,Somebody says<br><em>Kate is looking at Beth</em>,look_active,rating_volition,"{""Q0"":3}",[0],The speaker identifies more with <br>Beth than Kate,The speaker identifies more with<br>Kate than Beth,right_to_left
null,Somebody says<br><em>Beth is shouting at Kate</em>,NA,NA,NA,html-keyboard-response,21,157583,0.0-14.0-0.0,anomymised,6564584152624795c40b73cb,6564bda710e31be9ba544f41,51860,1A,woman,NA,null,NAME1 is shouting at NAME2,shout_active,sentence,NA,NA,NA,NA,NA
9720.5,NA,NA,NA,NA,survey-likert-extra-labels,22,167305,0.0-14.0-1.0,anomymised,6564584152624795c40b73cb,6564bda710e31be9ba544f41,51860,1A,woman,NA,NA,Somebody says<br><em>Beth is shouting at Kate</em>,shout_active,rating_volition,"{""Q0"":4}",[0],The speaker identifies more with <br>Kate than Beth,The speaker identifies more with<br>Beth than Kate,right_to_left
null,Somebody says<br><em>Mike is shouting at Beth</em>,NA,NA,NA,html-keyboard-response,23,169311,0.0-15.0-0.0,anomymised,6564584152624795c40b73cb,6564bda710e31be9ba544f41,51860,1A,woman,NA,null,NAME1 is shouting at NAME2,shout_active,sentence,NA,NA,NA,NA,NA
3491.899999999907,NA,NA,NA,NA,survey-likert-extra-labels,24,172805,0.0-15.0-1.0,anomymised,6564584152624795c40b73cb,6564bda710e31be9ba544f41,51860,1A,woman,NA,NA,Somebody says<br><em>Mike is shouting at Beth</em>,shout_active,rating_volition,"{""Q0"":3}",[0],The speaker identifies more with <br>Mike than Beth,The speaker identifies more with<br>Beth than Mike,left_to_right
null,Somebody says<br><em>Ruth is being hugged by Beth</em>,NA,NA,NA,html-keyboard-response,25,174814,0.0-16.0-0.0,anomymised,6564584152624795c40b73cb,6564bda710e31be9ba544f41,51860,1A,woman,NA,null,NAME1 is being hugged by NAME2,hug_passive,sentence,NA,NA,NA,NA,NA
5513.699999999721,NA,NA,NA,NA,survey-likert-extra-labels,26,180329,0.0-16.0-1.0,anomymised,6564584152624795c40b73cb,6564bda710e31be9ba544f41,51860,1A,woman,NA,NA,Somebody says<br><em>Ruth is being hugged by Beth</em>,hug_passive,rating_volition,"{""Q0"":2}",[0],The speaker identifies more with <br>Ruth than Beth,The speaker identifies more with<br>Beth than Ruth,left_to_right
null,Somebody says<br><em>Luke is playing with Fred</em>,NA,NA,NA,html-keyboard-response,27,182334,0.0-17.0-0.0,anomymised,6564584152624795c40b73cb,6564bda710e31be9ba544f41,51860,1A,woman,NA,null,NAME1 is playing with NAME2,play_active,sentence,NA,NA,NA,NA,NA
20793.5,NA,NA,NA,NA,survey-likert-extra-labels,28,203128,0.0-17.0-1.0,anomymised,6564584152624795c40b73cb,6564bda710e31be9ba544f41,51860,1A,woman,NA,NA,Somebody says<br><em>Luke is playing with Fred</em>,play_active,rating_volition,"{""Q0"":3}",[0],The speaker identifies more with <br>Luke than Fred,The speaker identifies more with<br>Fred than Luke,left_to_right
null,Somebody says<br><em>Kate is being challenged by Ruth</em>,NA,NA,NA,html-keyboard-response,29,205133,0.0-18.0-0.0,anomymised,6564584152624795c40b73cb,6564bda710e31be9ba544f41,51860,1A,woman,NA,null,NAME1 is being challenged by NAME2,challenge_passive,sentence,NA,NA,NA,NA,NA
4266.899999999907,NA,NA,NA,NA,survey-likert-extra-labels,30,209402,0.0-18.0-1.0,anomymised,6564584152624795c40b73cb,6564bda710e31be9ba544f41,51860,1A,woman,NA,NA,Somebody says<br><em>Kate is being challenged by Ruth</em>,challenge_passive,rating_volition,"{""Q0"":3}",[0],The speaker identifies more with <br>Ruth than Kate,The speaker identifies more with<br>Kate than Ruth,right_to_left
null,Somebody says<br><em>Beth is fighting with Ruth</em>,NA,NA,NA,html-keyboard-response,31,211404,0.0-19.0-0.0,anomymised,6564584152624795c40b73cb,6564bda710e31be9ba544f41,51860,1A,woman,NA,null,NAME1 is fighting with NAME2,fight_active,sentence,NA,NA,NA,NA,NA
2534.1999999997206,NA,NA,NA,NA,survey-likert-extra-labels,32,213941,0.0-19.0-1.0,anomymised,6564584152624795c40b73cb,6564bda710e31be9ba544f41,51860,1A,woman,NA,NA,Somebody says<br><em>Beth is fighting with Ruth</em>,fight_active,rating_volition,"{""Q0"":4}",[0],The speaker identifies more with <br>Ruth than Beth,The speaker identifies more with<br>Beth than Ruth,right_to_left
null,Somebody says<br><em>Kate is being greeted by Ruth</em>,NA,NA,NA,html-keyboard-response,33,215949,0.0-20.0-0.0,anomymised,6564584152624795c40b73cb,6564bda710e31be9ba544f41,51860,1A,woman,NA,null,NAME1 is being greeted by NAME2,greet_passive,sentence,NA,NA,NA,NA,NA
5864.200000000186,NA,NA,NA,NA,survey-likert-extra-labels,34,221815,0.0-20.0-1.0,anomymised,6564584152624795c40b73cb,6564bda710e31be9ba544f41,51860,1A,woman,NA,NA,Somebody says<br><em>Kate is being greeted by Ruth</em>,greet_passive,rating_volition,"{""Q0"":3}",[0],The speaker identifies more with <br>Kate than Ruth,The speaker identifies more with<br>Ruth than Kate,left_to_right
null,Somebody says<br><em>Luke is being looked at by Fred</em>,NA,NA,NA,html-keyboard-response,35,223821,0.0-21.0-0.0,anomymised,6564584152624795c40b73cb,6564bda710e31be9ba544f41,51860,1A,woman,NA,null,NAME1 is being looked at by NAME2,look_passive,sentence,NA,NA,NA,NA,NA
12894.400000000373,NA,NA,NA,NA,survey-likert-extra-labels,36,236716,0.0-21.0-1.0,anomymised,6564584152624795c40b73cb,6564bda710e31be9ba544f41,51860,1A,woman,NA,NA,Somebody says<br><em>Luke is being looked at by Fred</em>,look_passive,rating_volition,"{""Q0"":2}",[0],The speaker identifies more with <br>Fred than Luke,The speaker identifies more with<br>Luke than Fred,right_to_left
null,Somebody says<br><em>Ruth and Jane are arguing with each other</em>,NA,NA,NA,html-keyboard-response,37,238718,0.0-22.0-0.0,anomymised,6564584152624795c40b73cb,6564bda710e31be9ba544f41,51860,1A,woman,NA,null,NAME1 and NAME2 are arguing with each other,argue_conjoined,sentence,NA,NA,NA,NA,NA
1540.3999999999069,NA,NA,NA,NA,survey-likert-extra-labels,38,240260,0.0-22.0-1.0,anomymised,6564584152624795c40b73cb,6564bda710e31be9ba544f41,51860,1A,woman,NA,NA,Somebody says<br><em>Ruth and Jane are arguing with each other</em>,argue_conjoined,rating_volition,"{""Q0"":3}",[0],The speaker identifies more with <br>Jane than Ruth,The speaker identifies more with<br>Ruth than Jane,right_to_left
null,Somebody says<br><em>Kate and Luke are dancing with each other</em>,NA,NA,NA,html-keyboard-response,39,242265,0.0-23.0-0.0,anomymised,6564584152624795c40b73cb,6564bda710e31be9ba544f41,51860,1A,woman,NA,null,NAME1 and NAME2 are dancing with each other,dance_conjoined,sentence,NA,NA,NA,NA,NA
5136.5,NA,NA,NA,NA,survey-likert-extra-labels,40,247403,0.0-23.0-1.0,anomymised,6564584152624795c40b73cb,6564bda710e31be9ba544f41,51860,1A,woman,NA,NA,Somebody says<br><em>Kate and Luke are dancing with each other</em>,dance_conjoined,rating_volition,"{""Q0"":3}",[0],The speaker identifies more with <br>Luke than Kate,The speaker identifies more with<br>Kate than Luke,right_to_left
null,Somebody says<br><em>Mike is being opposed by Beth</em>,NA,NA,NA,html-keyboard-response,41,249406,0.0-24.0-0.0,anomymised,6564584152624795c40b73cb,6564bda710e31be9ba544f41,51860,1A,woman,NA,null,NAME1 is being opposed by NAME2,oppose_passive,sentence,NA,NA,NA,NA,NA
5578.5,NA,NA,NA,NA,survey-likert-extra-labels,42,254986,0.0-24.0-1.0,anomymised,6564584152624795c40b73cb,6564bda710e31be9ba544f41,51860,1A,woman,NA,NA,Somebody says<br><em>Mike is being opposed by Beth</em>,oppose_passive,rating_volition,"{""Q0"":2}",[0],The speaker identifies more with <br>Mike than Beth,The speaker identifies more with<br>Beth than Mike,left_to_right
null,Somebody says<br><em>Mike is being copied by Fred</em>,NA,NA,NA,html-keyboard-response,43,256989,0.0-25.0-0.0,anomymised,6564584152624795c40b73cb,6564bda710e31be9ba544f41,51860,1A,woman,NA,null,NAME1 is being copied by NAME2,copy_passive,sentence,NA,NA,NA,NA,NA
2051.9000000003725,NA,NA,NA,NA,survey-likert-extra-labels,44,259042,0.0-25.0-1.0,anomymised,6564584152624795c40b73cb,6564bda710e31be9ba544f41,51860,1A,woman,NA,NA,Somebody says<br><em>Mike is being copied by Fred</em>,copy_passive,rating_volition,"{""Q0"":2}",[0],The speaker identifies more with <br>Mike than Fred,The speaker identifies more with<br>Fred than Mike,left_to_right
null,Somebody says<br><em>Beth is being seduced by Ruth</em>,NA,NA,NA,html-keyboard-response,45,261051,0.0-26.0-0.0,anomymised,6564584152624795c40b73cb,6564bda710e31be9ba544f41,51860,1A,woman,NA,null,NAME1 is being seduced by NAME2,seduce_passive,sentence,NA,NA,NA,NA,NA
4372.600000000093,NA,NA,NA,NA,survey-likert-extra-labels,46,265425,0.0-26.0-1.0,anomymised,6564584152624795c40b73cb,6564bda710e31be9ba544f41,51860,1A,woman,NA,NA,Somebody says<br><em>Beth is being seduced by Ruth</em>,seduce_passive,rating_volition,"{""Q0"":2}",[0],The speaker identifies more with <br>Ruth than Beth,The speaker identifies more with<br>Beth than Ruth,right_to_left
null,Somebody says<br><em>Dave is talking to Luke</em>,NA,NA,NA,html-keyboard-response,47,267432,0.0-27.0-0.0,anomymised,6564584152624795c40b73cb,6564bda710e31be9ba544f41,51860,1A,woman,NA,null,NAME1 is talking to NAME2,talk_active,sentence,NA,NA,NA,NA,NA
1435.6000000000931,NA,NA,NA,NA,survey-likert-extra-labels,48,268869,0.0-27.0-1.0,anomymised,6564584152624795c40b73cb,6564bda710e31be9ba544f41,51860,1A,woman,NA,NA,Somebody says<br><em>Dave is talking to Luke</em>,talk_active,rating_volition,"{""Q0"":3}",[0],The speaker identifies more with <br>Luke than Dave,The speaker identifies more with<br>Dave than Luke,right_to_left
null,Somebody says<br><em>Beth and Fred are shouting at each other</em>,NA,NA,NA,html-keyboard-response,49,270872,0.0-28.0-0.0,anomymised,6564584152624795c40b73cb,6564bda710e31be9ba544f41,51860,1A,woman,NA,null,NAME1 and NAME2 are shouting at each other,shout_conjoined,sentence,NA,NA,NA,NA,NA
1292.8999999999069,NA,NA,NA,NA,survey-likert-extra-labels,50,272167,0.0-28.0-1.0,anomymised,6564584152624795c40b73cb,6564bda710e31be9ba544f41,51860,1A,woman,NA,NA,Somebody says<br><em>Beth and Fred are shouting at each other</em>,shout_conjoined,rating_volition,"{""Q0"":3}",[0],The speaker identifies more with <br>Fred than Beth,The speaker identifies more with<br>Beth than Fred,right_to_left
null,Somebody says<br><em>Jane and Dave are talking with each other</em>,NA,NA,NA,html-keyboard-response,51,274170,0.0-29.0-0.0,anomymised,6564584152624795c40b73cb,6564bda710e31be9ba544f41,51860,1A,woman,NA,null,NAME1 and NAME2 are talking with each other,talk_conjoined,sentence,NA,NA,NA,NA,NA
4483.4000000003725,NA,NA,NA,NA,survey-likert-extra-labels,52,278655,0.0-29.0-1.0,anomymised,6564584152624795c40b73cb,6564bda710e31be9ba544f41,51860,1A,woman,NA,NA,Somebody says<br><em>Jane and Dave are talking with each other</em>,talk_conjoined,rating_volition,"{""Q0"":3}",[0],The speaker identifies more with <br>Jane than Dave,The speaker identifies more with<br>Dave than Jane,left_to_right
null,Somebody says<br><em>Mike is meeting Dave</em>,NA,NA,NA,html-keyboard-response,53,280666,0.0-30.0-0.0,anomymised,6564584152624795c40b73cb,6564bda710e31be9ba544f41,51860,1A,woman,NA,null,NAME1 is meeting NAME2,meet_active,sentence,NA,NA,NA,NA,NA
1718.2000000001863,NA,NA,NA,NA,survey-likert-extra-labels,54,282386,0.0-30.0-1.0,anomymised,6564584152624795c40b73cb,6564bda710e31be9ba544f41,51860,1A,woman,NA,NA,Somebody says<br><em>Mike is meeting Dave</em>,meet_active,rating_volition,"{""Q0"":3}",[0],The speaker identifies more with <br>Mike than Dave,The speaker identifies more with<br>Dave than Mike,left_to_right
null,Somebody says<br><em>Beth and Ruth are playing with each other</em>,NA,NA,NA,html-keyboard-response,55,284391,0.0-31.0-0.0,anomymised,6564584152624795c40b73cb,6564bda710e31be9ba544f41,51860,1A,woman,NA,null,NAME1 and NAME2 are playing with each other,play_conjoined,sentence,NA,NA,NA,NA,NA
1517.3999999999069,NA,NA,NA,NA,survey-likert-extra-labels,56,285911,0.0-31.0-1.0,anomymised,6564584152624795c40b73cb,6564bda710e31be9ba544f41,51860,1A,woman,NA,NA,Somebody says<br><em>Beth and Ruth are playing with each other</em>,play_conjoined,rating_volition,"{""Q0"":3}",[0],The speaker identifies more with <br>Ruth than Beth,The speaker identifies more with<br>Beth than Ruth,right_to_left
null,Somebody says<br><em>Ruth is kissing Dave</em>,NA,NA,NA,html-keyboard-response,57,287913,0.0-32.0-0.0,anomymised,6564584152624795c40b73cb,6564bda710e31be9ba544f41,51860,1A,woman,NA,null,NAME1 is kissing NAME2,kiss_active,sentence,NA,NA,NA,NA,NA
3401.5,NA,NA,NA,NA,survey-likert-extra-labels,58,291316,0.0-32.0-1.0,anomymised,6564584152624795c40b73cb,6564bda710e31be9ba544f41,51860,1A,woman,NA,NA,Somebody says<br><em>Ruth is kissing Dave</em>,kiss_active,rating_volition,"{""Q0"":2}",[0],The speaker identifies more with <br>Ruth than Dave,The speaker identifies more with<br>Dave than Ruth,left_to_right
null,Somebody says<br><em>Dave and Jane are meeting each other</em>,NA,NA,NA,html-keyboard-response,59,293322,0.0-33.0-0.0,anomymised,6564584152624795c40b73cb,6564bda710e31be9ba544f41,51860,1A,woman,NA,null,NAME1 and NAME2 are meeting each other,meet_conjoined,sentence,NA,NA,NA,NA,NA
3705.600000000093,NA,NA,NA,NA,survey-likert-extra-labels,60,297029,0.0-33.0-1.0,anomymised,6564584152624795c40b73cb,6564bda710e31be9ba544f41,51860,1A,woman,NA,NA,Somebody says<br><em>Dave and Jane are meeting each other</em>,meet_conjoined,rating_volition,"{""Q0"":3}",[0],The speaker identifies more with <br>Dave than Jane,The speaker identifies more with<br>Jane than Dave,left_to_right
null,Somebody says<br><em>Mike is reminding Beth,NA,NA,NA,html-keyboard-response,61,299033,0.0-34.0-0.0,anomymised,6564584152624795c40b73cb,6564bda710e31be9ba544f41,51860,1A,woman,NA,null,M2 is reminding W4,remind,sentence,NA,NA,NA,NA,NA
5992.899999999907,NA,NA,NA,NA,survey-likert-extra-labels,62,305028,0.0-34.0-1.0,anomymised,6564584152624795c40b73cb,6564bda710e31be9ba544f41,51860,1A,woman,NA,NA,Somebody says<br><em>Mike is reminding Beth,remind,rating_volition,"{""Q0"":0}",[0],Mike is telling Beth again,Beth is telling Mike again,NA
null,Somebody says<br><em>Ruth and Fred are marrying each other</em>,NA,NA,NA,html-keyboard-response,63,307032,0.0-35.0-0.0,anomymised,6564584152624795c40b73cb,6564bda710e31be9ba544f41,51860,1A,woman,NA,null,NAME1 and NAME2 are marrying each other,marry_conjoined,sentence,NA,NA,NA,NA,NA
4056,NA,NA,NA,NA,survey-likert-extra-labels,64,311090,0.0-35.0-1.0,anomymised,6564584152624795c40b73cb,6564bda710e31be9ba544f41,51860,1A,woman,NA,NA,Somebody says<br><em>Ruth and Fred are marrying each other</em>,marry_conjoined,rating_volition,"{""Q0"":3}",[0],The speaker identifies more with <br>Fred than Ruth,The speaker identifies more with<br>Ruth than Fred,right_to_left
null,Somebody says<br><em>Ruth is challenging Mike</em>,NA,NA,NA,html-keyboard-response,65,313097,0.0-36.0-0.0,anomymised,6564584152624795c40b73cb,6564bda710e31be9ba544f41,51860,1A,woman,NA,null,NAME1 is challenging NAME2,challenge_active,sentence,NA,NA,NA,NA,NA
4209.399999999907,NA,NA,NA,NA,survey-likert-extra-labels,66,317308,0.0-36.0-1.0,anomymised,6564584152624795c40b73cb,6564bda710e31be9ba544f41,51860,1A,woman,NA,NA,Somebody says<br><em>Ruth is challenging Mike</em>,challenge_active,rating_volition,"{""Q0"":2}",[0],The speaker identifies more with <br>Ruth than Mike,The speaker identifies more with<br>Mike than Ruth,left_to_right
null,Somebody says<br><em>Kate is touching Dave</em>,NA,NA,NA,html-keyboard-response,67,319320,0.0-37.0-0.0,anomymised,6564584152624795c40b73cb,6564bda710e31be9ba544f41,51860,1A,woman,NA,null,NAME1 is touching NAME2,touch_active,sentence,NA,NA,NA,NA,NA
2688.100000000093,NA,NA,NA,NA,survey-likert-extra-labels,68,322010,0.0-37.0-1.0,anomymised,6564584152624795c40b73cb,6564bda710e31be9ba544f41,51860,1A,woman,NA,NA,Somebody says<br><em>Kate is touching Dave</em>,touch_active,rating_volition,"{""Q0"":4}",[0],The speaker identifies more with <br>Dave than Kate,The speaker identifies more with<br>Kate than Dave,right_to_left
null,Somebody says<br><em>Luke is driving Fred,NA,NA,NA,html-keyboard-response,69,324012,0.0-38.0-0.0,anomymised,6564584152624795c40b73cb,6564bda710e31be9ba544f41,51860,1A,woman,NA,null,M1 is driving M3,drive,sentence,NA,NA,NA,NA,NA
4703.700000000186,NA,NA,NA,NA,survey-likert-extra-labels,70,328718,0.0-38.0-1.0,anomymised,6564584152624795c40b73cb,6564bda710e31be9ba544f41,51860,1A,woman,NA,NA,Somebody says<br><em>Luke is driving Fred,drive,rating_volition,"{""Q0"":6}",[0],Luke is Fred's passenger,Fred is Luke's passenger,NA
null,Somebody says<br><em>Luke is being touched by Kate</em>,NA,NA,NA,html-keyboard-response,71,330728,0.0-39.0-0.0,anomymised,6564584152624795c40b73cb,6564bda710e31be9ba544f41,51860,1A,woman,NA,null,NAME1 is being touched by NAME2,touch_passive,sentence,NA,NA,NA,NA,NA
4695.5,NA,NA,NA,NA,survey-likert-extra-labels,72,335425,0.0-39.0-1.0,anomymised,6564584152624795c40b73cb,6564bda710e31be9ba544f41,51860,1A,woman,NA,NA,Somebody says<br><em>Luke is being touched by Kate</em>,touch_passive,rating_volition,"{""Q0"":2}",[0],The speaker identifies more with <br>Luke than Kate,The speaker identifies more with<br>Kate than Luke,left_to_right
null,Somebody says<br><em>Jane is carrying Beth,NA,NA,NA,html-keyboard-response,73,337431,0.0-40.0-0.0,anomymised,6564584152624795c40b73cb,6564bda710e31be9ba544f41,51860,1A,woman,NA,null,W2 is carrying W4,carry,sentence,NA,NA,NA,NA,NA
3509.5,NA,NA,NA,NA,survey-likert-extra-labels,74,340943,0.0-40.0-1.0,anomymised,6564584152624795c40b73cb,6564bda710e31be9ba544f41,51860,1A,woman,NA,NA,Somebody says<br><em>Jane is carrying Beth,carry,rating_volition,"{""Q0"":0}",[0],Jane is transporting Beth,Beth is transporting Jane,NA
null,Somebody says<br><em>Kate and Beth are kissing each other</em>,NA,NA,NA,html-keyboard-response,75,342952,0.0-41.0-0.0,anomymised,6564584152624795c40b73cb,6564bda710e31be9ba544f41,51860,1A,woman,NA,null,NAME1 and NAME2 are kissing each other,kiss_conjoined,sentence,NA,NA,NA,NA,NA
2085,NA,NA,NA,NA,survey-likert-extra-labels,76,345038,0.0-41.0-1.0,anomymised,6564584152624795c40b73cb,6564bda710e31be9ba544f41,51860,1A,woman,NA,NA,Somebody says<br><em>Kate and Beth are kissing each other</em>,kiss_conjoined,rating_volition,"{""Q0"":3}",[0],The speaker identifies more with <br>Beth than Kate,The speaker identifies more with<br>Kate than Beth,right_to_left
null,Somebody says<br><em>Dave and Fred are fighting with each other</em>,NA,NA,NA,html-keyboard-response,77,347045,0.0-42.0-0.0,anomymised,6564584152624795c40b73cb,6564bda710e31be9ba544f41,51860,1A,woman,NA,null,NAME1 and NAME2 are fighting with each other,fight_conjoined,sentence,NA,NA,NA,NA,NA
1566.2999999998137,NA,NA,NA,NA,survey-likert-extra-labels,78,348613,0.0-42.0-1.0,anomymised,6564584152624795c40b73cb,6564bda710e31be9ba544f41,51860,1A,woman,NA,NA,Somebody says<br><em>Dave and Fred are fighting with each other</em>,fight_conjoined,rating_volition,"{""Q0"":3}",[0],The speaker identifies more with <br>Dave than Fred,The speaker identifies more with<br>Fred than Dave,left_to_right
null,Somebody says<br><em>Dave is opposing Jane</em>,NA,NA,NA,html-keyboard-response,79,350615,0.0-43.0-0.0,anomymised,6564584152624795c40b73cb,6564bda710e31be9ba544f41,51860,1A,woman,NA,null,NAME1 is opposing NAME2,oppose_active,sentence,NA,NA,NA,NA,NA
3564.5,NA,NA,NA,NA,survey-likert-extra-labels,80,354181,0.0-43.0-1.0,anomymised,6564584152624795c40b73cb,6564bda710e31be9ba544f41,51860,1A,woman,NA,NA,Somebody says<br><em>Dave is opposing Jane</em>,oppose_active,rating_volition,"{""Q0"":4}",[0],The speaker identifies more with <br>Jane than Dave,The speaker identifies more with<br>Dave than Jane,right_to_left
null,Somebody says<br><em>Mike and Jane are touching each other</em>,NA,NA,NA,html-keyboard-response,81,356185,0.0-44.0-0.0,anomymised,6564584152624795c40b73cb,6564bda710e31be9ba544f41,51860,1A,woman,NA,null,NAME1 and NAME2 are touching each other,touch_conjoined,sentence,NA,NA,NA,NA,NA
1357.1000000000931,NA,NA,NA,NA,survey-likert-extra-labels,82,357544,0.0-44.0-1.0,anomymised,6564584152624795c40b73cb,6564bda710e31be9ba544f41,51860,1A,woman,NA,NA,Somebody says<br><em>Mike and Jane are touching each other</em>,touch_conjoined,rating_volition,"{""Q0"":3}",[0],The speaker identifies more with <br>Mike than Jane,The speaker identifies more with<br>Jane than Mike,left_to_right
null,Somebody says<br><em>Mike is posing for Dave,NA,NA,NA,html-keyboard-response,83,359546,0.0-45.0-0.0,anomymised,6564584152624795c40b73cb,6564bda710e31be9ba544f41,51860,1A,woman,NA,null,M2 is posing for M4,pose,sentence,NA,NA,NA,NA,NA
3570.7999999998137,NA,NA,NA,NA,survey-likert-extra-labels,84,363119,0.0-45.0-1.0,anomymised,6564584152624795c40b73cb,6564bda710e31be9ba544f41,51860,1A,woman,NA,NA,Somebody says<br><em>Mike is posing for Dave,pose,rating_volition,"{""Q0"":0}",[0],Mike is modelling for Dave,Dave is modelling for Mike,NA
null,Somebody says<br><em>Dave is dancing with Luke</em>,NA,NA,NA,html-keyboard-response,85,365127,0.0-46.0-0.0,anomymised,6564584152624795c40b73cb,6564bda710e31be9ba544f41,51860,1A,woman,NA,null,NAME1 is dancing with NAME2,dance_active,sentence,NA,NA,NA,NA,NA
6518.200000000186,NA,NA,NA,NA,survey-likert-extra-labels,86,371647,0.0-46.0-1.0,anomymised,6564584152624795c40b73cb,6564bda710e31be9ba544f41,51860,1A,woman,NA,NA,Somebody says<br><em>Dave is dancing with Luke</em>,dance_active,rating_volition,"{""Q0"":4}",[0],The speaker identifies more with <br>Luke than Dave,The speaker identifies more with<br>Dave than Luke,right_to_left
null,Somebody says<br><em>Jane is arguing with Fred</em>,NA,NA,NA,html-keyboard-response,87,373653,0.0-47.0-0.0,anomymised,6564584152624795c40b73cb,6564bda710e31be9ba544f41,51860,1A,woman,NA,null,NAME1 is arguing with NAME2,argue_active,sentence,NA,NA,NA,NA,NA
2151.899999999907,NA,NA,NA,NA,survey-likert-extra-labels,88,375807,0.0-47.0-1.0,anomymised,6564584152624795c40b73cb,6564bda710e31be9ba544f41,51860,1A,woman,NA,NA,Somebody says<br><em>Jane is arguing with Fred</em>,argue_active,rating_volition,"{""Q0"":2}",[0],The speaker identifies more with <br>Jane than Fred,The speaker identifies more with<br>Fred than Jane,left_to_right
null,Somebody says<br><em>Ruth is chasing Kate,NA,NA,NA,html-keyboard-response,89,377813,0.0-48.0-0.0,anomymised,6564584152624795c40b73cb,6564bda710e31be9ba544f41,51860,1A,woman,NA,null,W1 is chasing W3,chase,sentence,NA,NA,NA,NA,NA
9618.899999999907,NA,NA,NA,NA,survey-likert-extra-labels,90,387434,0.0-48.0-1.0,anomymised,6564584152624795c40b73cb,6564bda710e31be9ba544f41,51860,1A,woman,NA,NA,Somebody says<br><em>Ruth is chasing Kate,chase,rating_volition,"{""Q0"":0}",[0],Ruth is behind Kate,Kate is behind Ruth,NA
null,Somebody says<br><em>Jane is seducing Beth</em>,NA,NA,NA,html-keyboard-response,91,389446,0.0-49.0-0.0,anomymised,6564584152624795c40b73cb,6564bda710e31be9ba544f41,51860,1A,woman,NA,null,NAME1 is seducing NAME2,seduce_active,sentence,NA,NA,NA,NA,NA
4353.399999999907,NA,NA,NA,NA,survey-likert-extra-labels,92,393801,0.0-49.0-1.0,anomymised,6564584152624795c40b73cb,6564bda710e31be9ba544f41,51860,1A,woman,NA,NA,Somebody says<br><em>Jane is seducing Beth</em>,seduce_active,rating_volition,"{""Q0"":3}",[0],The speaker identifies more with <br>Jane than Beth,The speaker identifies more with<br>Beth than Jane,left_to_right
null,Somebody says<br><em>Dave is greeting Jane</em>,NA,NA,NA,html-keyboard-response,93,395813,0.0-50.0-0.0,anomymised,6564584152624795c40b73cb,6564bda710e31be9ba544f41,51860,1A,woman,NA,null,NAME1 is greeting NAME2,greet_active,sentence,NA,NA,NA,NA,NA
3834.6999999997206,NA,NA,NA,NA,survey-likert-extra-labels,94,399649,0.0-50.0-1.0,anomymised,6564584152624795c40b73cb,6564bda710e31be9ba544f41,51860,1A,woman,NA,NA,Somebody says<br><em>Dave is greeting Jane</em>,greet_active,rating_volition,"{""Q0"":4}",[0],The speaker identifies more with <br>Jane than Dave,The speaker identifies more with<br>Dave than Jane,right_to_left
null,Somebody says<br><em>Kate is flirting with Mike</em>,NA,NA,NA,html-keyboard-response,95,401653,0.0-51.0-0.0,anomymised,6564584152624795c40b73cb,6564bda710e31be9ba544f41,51860,1A,woman,NA,null,NAME1 is flirting with NAME2,flirt_active,sentence,NA,NA,NA,NA,NA
3454,NA,NA,NA,NA,survey-likert-extra-labels,96,405109,0.0-51.0-1.0,anomymised,6564584152624795c40b73cb,6564bda710e31be9ba544f41,51860,1A,woman,NA,NA,Somebody says<br><em>Kate is flirting with Mike</em>,flirt_active,rating_volition,"{""Q0"":4}",[0],The speaker identifies more with <br>Mike than Kate,The speaker identifies more with<br>Kate than Mike,right_to_left
null,Somebody says<br><em>Jane is being kissed by Luke</em>,NA,NA,NA,html-keyboard-response,97,407112,0.0-52.0-0.0,anomymised,6564584152624795c40b73cb,6564bda710e31be9ba544f41,51860,1A,woman,NA,null,NAME1 is being kissed by NAME2,kiss_passive,sentence,NA,NA,NA,NA,NA
3846.7999999998137,NA,NA,NA,NA,survey-likert-extra-labels,98,410960,0.0-52.0-1.0,anomymised,6564584152624795c40b73cb,6564bda710e31be9ba544f41,51860,1A,woman,NA,NA,Somebody says<br><em>Jane is being kissed by Luke</em>,kiss_passive,rating_volition,"{""Q0"":3}",[0],The speaker identifies more with <br>Luke than Jane,The speaker identifies more with<br>Jane than Luke,right_to_left
null,Somebody says<br><em>Fred is hiring Ruth,NA,NA,NA,html-keyboard-response,99,412964,0.0-53.0-0.0,anomymised,6564584152624795c40b73cb,6564bda710e31be9ba544f41,51860,1A,woman,NA,null,M3 is hiring W1,hire,sentence,NA,NA,NA,NA,NA
5143.299999999814,NA,NA,NA,NA,survey-likert-extra-labels,100,418109,0.0-53.0-1.0,anomymised,6564584152624795c40b73cb,6564bda710e31be9ba544f41,51860,1A,woman,NA,NA,Somebody says<br><em>Fred is hiring Ruth,hire,rating_volition,"{""Q0"":0}",[0],Fred is employing Ruth,Ruth is employing Fred,NA
null,Somebody says<br><em>Jane is teaching Dave,NA,NA,NA,html-keyboard-response,101,420116,0.0-54.0-0.0,anomymised,6564584152624795c40b73cb,6564bda710e31be9ba544f41,51860,1A,woman,NA,null,W2 is teaching M4,teach,sentence,NA,NA,NA,NA,NA
11266.899999999907,NA,NA,NA,NA,survey-likert-extra-labels,102,431384,0.0-54.0-1.0,anomymised,6564584152624795c40b73cb,6564bda710e31be9ba544f41,51860,1A,woman,NA,NA,Somebody says<br><em>Jane is teaching Dave,teach,rating_volition,"{""Q0"":0}",[0],Jane is educating Dave,Dave is educating Jane,NA
null,Somebody says<br><em>Mike is copying Jane</em>,NA,NA,NA,html-keyboard-response,103,433396,0.0-55.0-0.0,anomymised,6564584152624795c40b73cb,6564bda710e31be9ba544f41,51860,1A,woman,NA,null,NAME1 is copying NAME2,copy_active,sentence,NA,NA,NA,NA,NA
4723.5,NA,NA,NA,NA,survey-likert-extra-labels,104,438121,0.0-55.0-1.0,anomymised,6564584152624795c40b73cb,6564bda710e31be9ba544f41,51860,1A,woman,NA,NA,Somebody says<br><em>Mike is copying Jane</em>,copy_active,rating_volition,"{""Q0"":2}",[0],The speaker identifies more with <br>Mike than Jane,The speaker identifies more with<br>Jane than Mike,left_to_right
1237.3999999999069,<p>Thank you for completing that task.</p><p>The final part of this session is a short questionnaire.</p><p>Press Continue.</p>,0,Continue,Continue,html-button-response,105,439361,0.0-56.0,anomymised,6564584152624795c40b73cb,6564bda710e31be9ba544f41,51860,1A,woman,NA,NA,NA,NA,NA,NA,NA,NA,NA,NA
24810.399999999907,NA,NA,NA,NA,survey-text,106,465188,0.0-57.0,anomymised,6564584152624795c40b73cb,6564bda710e31be9ba544f41,51860,1A,woman,NA,NA,NA,NA,demographics,"{""Q0"":""21"",""Q1"":""English"",""Q2"":""English"",""Q3"":""UK"",""Q4"":""English"",""Q5"":""White"",""Q6"":""Woman""}",NA,NA,NA,NA
2224.6999999997206,<p>This is the last question - thank you for taking part! Have you lived in the UK for the last 5 years or more?</p>,0,"Yes,No",Yes,html-button-response,107,467414,0.0-58.0,anomymised,6564584152624795c40b73cb,6564bda710e31be9ba544f41,51860,1A,woman,NA,NA,NA,NA,fiveyears,NA,NA,NA,NA,NA
