rt,stimulus,button_pressed,choices,ChosenStimulus,trial_type,trial_index,time_elapsed,internal_node_id,subject_id,study_id,session_id,subject,list,ppt_gender,url,key_press,sentence_type,verb,test_part,responses,question_order,left_part,right_part,name_order
7193,Welcome to the experiment. Press Continue to begin.,0,Continue,Continue,html-button-response,0,7225,0.0-0.0,anomymised,6564584152624795c40b73cb,6564bdb0c02e5ee1d20a6aa3,52193,1A,woman,NA,NA,NA,NA,NA,NA,NA,NA,NA,NA
23659.900000095367,NA,NA,NA,NA,external-html,1,32231,0.0-1.0,anomymised,6564584152624795c40b73cb,6564bdb0c02e5ee1d20a6aa3,52193,1A,woman,consent.html,NA,NA,NA,NA,NA,NA,NA,NA,NA
88495.80000007153,"<p>Welcome.</p><p>In this experiment we will ask you to imagine people's motivations for saying sentences.</p><p>Each trial will begin with a sentence that somebody might say to describe an event involving two different people.</p><p>For instance, someone might say <em>Harry is being recruited by Molly</em></p><p>We want you to think about which of those two people (Molly and Harry) the speaker identifies more with. For instance, why did the speaker say <em>Harry is being recruited by Molly</em> rather than <em> Molly is recruiting Harry</em>? Might that mean that the speaker is socially closer to one of the two characters?</p><p>After you have read the sentence, you will rate on a scale which of the two characters the speaker identifies more with.</p><p>You will give your answer by clicking a button on a rating scale.</p><p>Sometimes there will also be catch questions designed to make sure that you are paying attention, which ask about a different topic.</p><p>To do this task, you will have to use your imagination to think about and visualise the events, and how the speaker might relate to the characters.</p><br><p>Ready?</p>",0,Continue,Continue,html-button-response,2,120733,0.0-2.0,anomymised,6564584152624795c40b73cb,6564bdb0c02e5ee1d20a6aa3,52193,1A,woman,NA,NA,NA,NA,NA,NA,NA,NA,NA,NA
300974.10000002384,"<p>Before the experiment starts, we will show you an example of how you will answer the questions. Press 'Continue'.</p>",0,Continue,Continue,html-button-response,3,422711,0.0-3.0,anomymised,6564584152624795c40b73cb,6564bdb0c02e5ee1d20a6aa3,52193,1A,woman,NA,NA,NA,NA,NA,NA,NA,NA,NA,NA
null,Somebody says <br><em>Samuel is dining with Frank</em>,NA,NA,NA,html-keyboard-response,4,425719,0.0-4.0,anomymised,6564584152624795c40b73cb,6564bdb0c02e5ee1d20a6aa3,52193,1A,woman,NA,null,NA,NA,NA,NA,NA,NA,NA,NA
16617.800000071526,<img src='img/Example-trial.jpg' style='height:550px;''></img>,0,Continue,Continue,html-button-response,5,442340,0.0-5.0,anomymised,6564584152624795c40b73cb,6564bdb0c02e5ee1d20a6aa3,52193,1A,woman,NA,NA,NA,NA,NA,NA,NA,NA,NA,NA
2450,<p>Ready to start the experiment?</p><br><p><strong>Remember to give an answer by clicking a button on the rating scale.</strong></p><p>Press 'Continue' to begin.</p>,0,Continue,Continue,html-button-response,6,445793,0.0-6.0,anomymised,6564584152624795c40b73cb,6564bdb0c02e5ee1d20a6aa3,52193,1A,woman,NA,NA,NA,NA,NA,NA,NA,NA,NA,NA
null,Somebody says<br><em>Fred is flirting with Luke</em>,NA,NA,NA,html-keyboard-response,7,448825,0.0-7.0-0.0,anomymised,6564584152624795c40b73cb,6564bdb0c02e5ee1d20a6aa3,52193,1A,woman,NA,null,NAME1 is flirting with NAME2,flirt_active,sentence,NA,NA,NA,NA,NA
20247.800000071526,NA,NA,NA,NA,survey-likert-extra-labels,8,469079,0.0-7.0-1.0,anomymised,6564584152624795c40b73cb,6564bdb0c02e5ee1d20a6aa3,52193,1A,woman,NA,NA,Somebody says<br><em>Fred is flirting with Luke</em>,flirt_active,rating_volition,"{""Q0"":5}",[0],The speaker identifies more with <br>Luke than Fred,The speaker identifies more with<br>Fred than Luke,right_to_left
null,Somebody says<br><em>Dave is looking at Ruth</em>,NA,NA,NA,html-keyboard-response,9,471098,0.0-8.0-0.0,anomymised,6564584152624795c40b73cb,6564bdb0c02e5ee1d20a6aa3,52193,1A,woman,NA,null,NAME1 is looking at NAME2,look_active,sentence,NA,NA,NA,NA,NA
4333.100000023842,NA,NA,NA,NA,survey-likert-extra-labels,10,475436,0.0-8.0-1.0,anomymised,6564584152624795c40b73cb,6564bdb0c02e5ee1d20a6aa3,52193,1A,woman,NA,NA,Somebody says<br><em>Dave is looking at Ruth</em>,look_active,rating_volition,"{""Q0"":4}",[0],The speaker identifies more with <br>Ruth than Dave,The speaker identifies more with<br>Dave than Ruth,right_to_left
null,Somebody says<br><em>Jane is copying Beth</em>,NA,NA,NA,html-keyboard-response,11,477445,0.0-9.0-0.0,anomymised,6564584152624795c40b73cb,6564bdb0c02e5ee1d20a6aa3,52193,1A,woman,NA,null,NAME1 is copying NAME2,copy_active,sentence,NA,NA,NA,NA,NA
4748.100000023842,NA,NA,NA,NA,survey-likert-extra-labels,12,482197,0.0-9.0-1.0,anomymised,6564584152624795c40b73cb,6564bdb0c02e5ee1d20a6aa3,52193,1A,woman,NA,NA,Somebody says<br><em>Jane is copying Beth</em>,copy_active,rating_volition,"{""Q0"":0}",[0],The speaker identifies more with <br>Jane than Beth,The speaker identifies more with<br>Beth than Jane,left_to_right
null,Somebody says<br><em>Ruth is being kissed by Fred</em>,NA,NA,NA,html-keyboard-response,13,484203,0.0-10.0-0.0,anomymised,6564584152624795c40b73cb,6564bdb0c02e5ee1d20a6aa3,52193,1A,woman,NA,null,NAME1 is being kissed by NAME2,kiss_passive,sentence,NA,NA,NA,NA,NA
4658,NA,NA,NA,NA,survey-likert-extra-labels,14,488864,0.0-10.0-1.0,anomymised,6564584152624795c40b73cb,6564bdb0c02e5ee1d20a6aa3,52193,1A,woman,NA,NA,Somebody says<br><em>Ruth is being kissed by Fred</em>,kiss_passive,rating_volition,"{""Q0"":5}",[0],The speaker identifies more with <br>Fred than Ruth,The speaker identifies more with<br>Ruth than Fred,right_to_left
null,Somebody says<br><em>Luke is being touched by Kate</em>,NA,NA,NA,html-keyboard-response,15,490878,0.0-11.0-0.0,anomymised,6564584152624795c40b73cb,6564bdb0c02e5ee1d20a6aa3,52193,1A,woman,NA,null,NAME1 is being touched by NAME2,touch_passive,sentence,NA,NA,NA,NA,NA
5235.899999976158,NA,NA,NA,NA,survey-likert-extra-labels,16,496118,0.0-11.0-1.0,anomymised,6564584152624795c40b73cb,6564bdb0c02e5ee1d20a6aa3,52193,1A,woman,NA,NA,Somebody says<br><em>Luke is being touched by Kate</em>,touch_passive,rating_volition,"{""Q0"":4}",[0],The speaker identifies more with <br>Kate than Luke,The speaker identifies more with<br>Luke than Kate,right_to_left
null,Somebody says<br><em>Beth is being hugged by Ruth</em>,NA,NA,NA,html-keyboard-response,17,498127,0.0-12.0-0.0,anomymised,6564584152624795c40b73cb,6564bdb0c02e5ee1d20a6aa3,52193,1A,woman,NA,null,NAME1 is being hugged by NAME2,hug_passive,sentence,NA,NA,NA,NA,NA
3409.7000000476837,NA,NA,NA,NA,survey-likert-extra-labels,18,501540,0.0-12.0-1.0,anomymised,6564584152624795c40b73cb,6564bdb0c02e5ee1d20a6aa3,52193,1A,woman,NA,NA,Somebody says<br><em>Beth is being hugged by Ruth</em>,hug_passive,rating_volition,"{""Q0"":1}",[0],The speaker identifies more with <br>Beth than Ruth,The speaker identifies more with<br>Ruth than Beth,left_to_right
null,Somebody says<br><em>Fred is being seduced by Beth</em>,NA,NA,NA,html-keyboard-response,19,503551,0.0-13.0-0.0,anomymised,6564584152624795c40b73cb,6564bdb0c02e5ee1d20a6aa3,52193,1A,woman,NA,null,NAME1 is being seduced by NAME2,seduce_passive,sentence,NA,NA,NA,NA,NA
2119,NA,NA,NA,NA,survey-likert-extra-labels,20,505673,0.0-13.0-1.0,anomymised,6564584152624795c40b73cb,6564bdb0c02e5ee1d20a6aa3,52193,1A,woman,NA,NA,Somebody says<br><em>Fred is being seduced by Beth</em>,seduce_passive,rating_volition,"{""Q0"":5}",[0],The speaker identifies more with <br>Beth than Fred,The speaker identifies more with<br>Fred than Beth,right_to_left
null,Somebody says<br><em>Mike and Jane are fighting with each other</em>,NA,NA,NA,html-keyboard-response,21,507691,0.0-14.0-0.0,anomymised,6564584152624795c40b73cb,6564bdb0c02e5ee1d20a6aa3,52193,1A,woman,NA,null,NAME1 and NAME2 are fighting with each other,fight_conjoined,sentence,NA,NA,NA,NA,NA
3811.899999976158,NA,NA,NA,NA,survey-likert-extra-labels,22,511506,0.0-14.0-1.0,anomymised,6564584152624795c40b73cb,6564bdb0c02e5ee1d20a6aa3,52193,1A,woman,NA,NA,Somebody says<br><em>Mike and Jane are fighting with each other</em>,fight_conjoined,rating_volition,"{""Q0"":3}",[0],The speaker identifies more with <br>Mike than Jane,The speaker identifies more with<br>Jane than Mike,left_to_right
null,Somebody says<br><em>Fred and Kate are playing with each other</em>,NA,NA,NA,html-keyboard-response,23,513521,0.0-15.0-0.0,anomymised,6564584152624795c40b73cb,6564bdb0c02e5ee1d20a6aa3,52193,1A,woman,NA,null,NAME1 and NAME2 are playing with each other,play_conjoined,sentence,NA,NA,NA,NA,NA
2910.4000000953674,NA,NA,NA,NA,survey-likert-extra-labels,24,516435,0.0-15.0-1.0,anomymised,6564584152624795c40b73cb,6564bdb0c02e5ee1d20a6aa3,52193,1A,woman,NA,NA,Somebody says<br><em>Fred and Kate are playing with each other</em>,play_conjoined,rating_volition,"{""Q0"":3}",[0],The speaker identifies more with <br>Kate than Fred,The speaker identifies more with<br>Fred than Kate,right_to_left
null,Somebody says<br><em>Kate is feeding Luke,NA,NA,NA,html-keyboard-response,25,518440,0.0-16.0-0.0,anomymised,6564584152624795c40b73cb,6564bdb0c02e5ee1d20a6aa3,52193,1A,woman,NA,null,W3 is feeding M1,feed,sentence,NA,NA,NA,NA,NA
15200.100000023842,NA,NA,NA,NA,survey-likert-extra-labels,26,533643,0.0-16.0-1.0,anomymised,6564584152624795c40b73cb,6564bdb0c02e5ee1d20a6aa3,52193,1A,woman,NA,NA,Somebody says<br><em>Kate is feeding Luke,feed,rating_volition,"{""Q0"":2}",[0],Kate cooked for Luke,Luke cooked for Kate,NA
null,Somebody says<br><em>Fred is hiring Ruth,NA,NA,NA,html-keyboard-response,27,535656,0.0-17.0-0.0,anomymised,6564584152624795c40b73cb,6564bdb0c02e5ee1d20a6aa3,52193,1A,woman,NA,null,M3 is hiring W1,hire,sentence,NA,NA,NA,NA,NA
9158.199999928474,NA,NA,NA,NA,survey-likert-extra-labels,28,544818,0.0-17.0-1.0,anomymised,6564584152624795c40b73cb,6564bdb0c02e5ee1d20a6aa3,52193,1A,woman,NA,NA,Somebody says<br><em>Fred is hiring Ruth,hire,rating_volition,"{""Q0"":2}",[0],Fred is employing Ruth,Ruth is employing Fred,NA
null,Somebody says<br><em>Fred is being greeted by Mike</em>,NA,NA,NA,html-keyboard-response,29,546824,0.0-18.0-0.0,anomymised,6564584152624795c40b73cb,6564bdb0c02e5ee1d20a6aa3,52193,1A,woman,NA,null,NAME1 is being greeted by NAME2,greet_passive,sentence,NA,NA,NA,NA,NA
8293.100000023842,NA,NA,NA,NA,survey-likert-extra-labels,30,555120,0.0-18.0-1.0,anomymised,6564584152624795c40b73cb,6564bdb0c02e5ee1d20a6aa3,52193,1A,woman,NA,NA,Somebody says<br><em>Fred is being greeted by Mike</em>,greet_passive,rating_volition,"{""Q0"":2}",[0],The speaker identifies more with <br>Fred than Mike,The speaker identifies more with<br>Mike than Fred,left_to_right
null,Somebody says<br><em>Mike is posing for Dave,NA,NA,NA,html-keyboard-response,31,557124,0.0-19.0-0.0,anomymised,6564584152624795c40b73cb,6564bdb0c02e5ee1d20a6aa3,52193,1A,woman,NA,null,M2 is posing for M4,pose,sentence,NA,NA,NA,NA,NA
4724.100000023842,NA,NA,NA,NA,survey-likert-extra-labels,32,561851,0.0-19.0-1.0,anomymised,6564584152624795c40b73cb,6564bdb0c02e5ee1d20a6aa3,52193,1A,woman,NA,NA,Somebody says<br><em>Mike is posing for Dave,pose,rating_volition,"{""Q0"":1}",[0],Mike is modelling for Dave,Dave is modelling for Mike,NA
null,Somebody says<br><em>Kate is being shouted at by Jane</em>,NA,NA,NA,html-keyboard-response,33,563860,0.0-20.0-0.0,anomymised,6564584152624795c40b73cb,6564bdb0c02e5ee1d20a6aa3,52193,1A,woman,NA,null,NAME1 is being shouted at by NAME2,shout_passive,sentence,NA,NA,NA,NA,NA
4774.700000047684,NA,NA,NA,NA,survey-likert-extra-labels,34,568638,0.0-20.0-1.0,anomymised,6564584152624795c40b73cb,6564bdb0c02e5ee1d20a6aa3,52193,1A,woman,NA,NA,Somebody says<br><em>Kate is being shouted at by Jane</em>,shout_passive,rating_volition,"{""Q0"":5}",[0],The speaker identifies more with <br>Jane than Kate,The speaker identifies more with<br>Kate than Jane,right_to_left
null,Somebody says<br><em>Mike is being copied by Kate</em>,NA,NA,NA,html-keyboard-response,35,570651,0.0-21.0-0.0,anomymised,6564584152624795c40b73cb,6564bdb0c02e5ee1d20a6aa3,52193,1A,woman,NA,null,NAME1 is being copied by NAME2,copy_passive,sentence,NA,NA,NA,NA,NA
2312.5,NA,NA,NA,NA,survey-likert-extra-labels,36,572966,0.0-21.0-1.0,anomymised,6564584152624795c40b73cb,6564bdb0c02e5ee1d20a6aa3,52193,1A,woman,NA,NA,Somebody says<br><em>Mike is being copied by Kate</em>,copy_passive,rating_volition,"{""Q0"":2}",[0],The speaker identifies more with <br>Mike than Kate,The speaker identifies more with<br>Kate than Mike,left_to_right
null,Somebody says<br><em>Mike is shouting at Jane</em>,NA,NA,NA,html-keyboard-response,37,574972,0.0-22.0-0.0,anomymised,6564584152624795c40b73cb,6564bdb0c02e5ee1d20a6aa3,52193,1A,woman,NA,null,NAME1 is shouting at NAME2,shout_active,sentence,NA,NA,NA,NA,NA
3142,NA,NA,NA,NA,survey-likert-extra-labels,38,578118,0.0-22.0-1.0,anomymised,6564584152624795c40b73cb,6564bdb0c02e5ee1d20a6aa3,52193,1A,woman,NA,NA,Somebody says<br><em>Mike is shouting at Jane</em>,shout_active,rating_volition,"{""Q0"":1}",[0],The speaker identifies more with <br>Mike than Jane,The speaker identifies more with<br>Jane than Mike,left_to_right
null,Somebody says<br><em>Luke is driving Fred,NA,NA,NA,html-keyboard-response,39,580121,0.0-23.0-0.0,anomymised,6564584152624795c40b73cb,6564bdb0c02e5ee1d20a6aa3,52193,1A,woman,NA,null,M1 is driving M3,drive,sentence,NA,NA,NA,NA,NA
6665.399999976158,NA,NA,NA,NA,survey-likert-extra-labels,40,586790,0.0-23.0-1.0,anomymised,6564584152624795c40b73cb,6564bdb0c02e5ee1d20a6aa3,52193,1A,woman,NA,NA,Somebody says<br><em>Luke is driving Fred,drive,rating_volition,"{""Q0"":6}",[0],Luke is Fred's passenger,Fred is Luke's passenger,NA
null,Somebody says<br><em>Kate is dancing with Fred</em>,NA,NA,NA,html-keyboard-response,41,588802,0.0-24.0-0.0,anomymised,6564584152624795c40b73cb,6564bdb0c02e5ee1d20a6aa3,52193,1A,woman,NA,null,NAME1 is dancing with NAME2,dance_active,sentence,NA,NA,NA,NA,NA
4188.699999928474,NA,NA,NA,NA,survey-likert-extra-labels,42,592994,0.0-24.0-1.0,anomymised,6564584152624795c40b73cb,6564bdb0c02e5ee1d20a6aa3,52193,1A,woman,NA,NA,Somebody says<br><em>Kate is dancing with Fred</em>,dance_active,rating_volition,"{""Q0"":1}",[0],The speaker identifies more with <br>Kate than Fred,The speaker identifies more with<br>Fred than Kate,left_to_right
null,Somebody says<br><em>Kate and Jane are dancing with each other</em>,NA,NA,NA,html-keyboard-response,43,594998,0.0-25.0-0.0,anomymised,6564584152624795c40b73cb,6564bdb0c02e5ee1d20a6aa3,52193,1A,woman,NA,null,NAME1 and NAME2 are dancing with each other,dance_conjoined,sentence,NA,NA,NA,NA,NA
1192.8000000715256,NA,NA,NA,NA,survey-likert-extra-labels,44,596194,0.0-25.0-1.0,anomymised,6564584152624795c40b73cb,6564bdb0c02e5ee1d20a6aa3,52193,1A,woman,NA,NA,Somebody says<br><em>Kate and Jane are dancing with each other</em>,dance_conjoined,rating_volition,"{""Q0"":3}",[0],The speaker identifies more with <br>Kate than Jane,The speaker identifies more with<br>Jane than Kate,left_to_right
null,Somebody says<br><em>Dave and Mike are kissing each other</em>,NA,NA,NA,html-keyboard-response,45,598203,0.0-26.0-0.0,anomymised,6564584152624795c40b73cb,6564bdb0c02e5ee1d20a6aa3,52193,1A,woman,NA,null,NAME1 and NAME2 are kissing each other,kiss_conjoined,sentence,NA,NA,NA,NA,NA
3436.600000023842,NA,NA,NA,NA,survey-likert-extra-labels,46,601644,0.0-26.0-1.0,anomymised,6564584152624795c40b73cb,6564bdb0c02e5ee1d20a6aa3,52193,1A,woman,NA,NA,Somebody says<br><em>Dave and Mike are kissing each other</em>,kiss_conjoined,rating_volition,"{""Q0"":3}",[0],The speaker identifies more with <br>Mike than Dave,The speaker identifies more with<br>Dave than Mike,right_to_left
null,Somebody says<br><em>Jane and Dave are marrying each other</em>,NA,NA,NA,html-keyboard-response,47,603649,0.0-27.0-0.0,anomymised,6564584152624795c40b73cb,6564bdb0c02e5ee1d20a6aa3,52193,1A,woman,NA,null,NAME1 and NAME2 are marrying each other,marry_conjoined,sentence,NA,NA,NA,NA,NA
2358.6999999284744,NA,NA,NA,NA,survey-likert-extra-labels,48,606010,0.0-27.0-1.0,anomymised,6564584152624795c40b73cb,6564bdb0c02e5ee1d20a6aa3,52193,1A,woman,NA,NA,Somebody says<br><em>Jane and Dave are marrying each other</em>,marry_conjoined,rating_volition,"{""Q0"":3}",[0],The speaker identifies more with <br>Dave than Jane,The speaker identifies more with<br>Jane than Dave,right_to_left
null,Somebody says<br><em>Beth is being looked at by Dave</em>,NA,NA,NA,html-keyboard-response,49,608017,0.0-28.0-0.0,anomymised,6564584152624795c40b73cb,6564bdb0c02e5ee1d20a6aa3,52193,1A,woman,NA,null,NAME1 is being looked at by NAME2,look_passive,sentence,NA,NA,NA,NA,NA
2218.6999999284744,NA,NA,NA,NA,survey-likert-extra-labels,50,610238,0.0-28.0-1.0,anomymised,6564584152624795c40b73cb,6564bdb0c02e5ee1d20a6aa3,52193,1A,woman,NA,NA,Somebody says<br><em>Beth is being looked at by Dave</em>,look_passive,rating_volition,"{""Q0"":2}",[0],The speaker identifies more with <br>Beth than Dave,The speaker identifies more with<br>Dave than Beth,left_to_right
null,Somebody says<br><em>Jane is fighting with Kate</em>,NA,NA,NA,html-keyboard-response,51,612253,0.0-29.0-0.0,anomymised,6564584152624795c40b73cb,6564bdb0c02e5ee1d20a6aa3,52193,1A,woman,NA,null,NAME1 is fighting with NAME2,fight_active,sentence,NA,NA,NA,NA,NA
2942.100000023842,NA,NA,NA,NA,survey-likert-extra-labels,52,615198,0.0-29.0-1.0,anomymised,6564584152624795c40b73cb,6564bdb0c02e5ee1d20a6aa3,52193,1A,woman,NA,NA,Somebody says<br><em>Jane is fighting with Kate</em>,fight_active,rating_volition,"{""Q0"":4}",[0],The speaker identifies more with <br>Kate than Jane,The speaker identifies more with<br>Jane than Kate,right_to_left
null,Somebody says<br><em>Luke and Jane are talking with each other</em>,NA,NA,NA,html-keyboard-response,53,617212,0.0-30.0-0.0,anomymised,6564584152624795c40b73cb,6564bdb0c02e5ee1d20a6aa3,52193,1A,woman,NA,null,NAME1 and NAME2 are talking with each other,talk_conjoined,sentence,NA,NA,NA,NA,NA
2190.399999976158,NA,NA,NA,NA,survey-likert-extra-labels,54,619405,0.0-30.0-1.0,anomymised,6564584152624795c40b73cb,6564bdb0c02e5ee1d20a6aa3,52193,1A,woman,NA,NA,Somebody says<br><em>Luke and Jane are talking with each other</em>,talk_conjoined,rating_volition,"{""Q0"":3}",[0],The speaker identifies more with <br>Jane than Luke,The speaker identifies more with<br>Luke than Jane,right_to_left
null,Somebody says<br><em>Jane is opposing Beth</em>,NA,NA,NA,html-keyboard-response,55,621416,0.0-31.0-0.0,anomymised,6564584152624795c40b73cb,6564bdb0c02e5ee1d20a6aa3,52193,1A,woman,NA,null,NAME1 is opposing NAME2,oppose_active,sentence,NA,NA,NA,NA,NA
2792.6999999284744,NA,NA,NA,NA,survey-likert-extra-labels,56,624214,0.0-31.0-1.0,anomymised,6564584152624795c40b73cb,6564bdb0c02e5ee1d20a6aa3,52193,1A,woman,NA,NA,Somebody says<br><em>Jane is opposing Beth</em>,oppose_active,rating_volition,"{""Q0"":1}",[0],The speaker identifies more with <br>Jane than Beth,The speaker identifies more with<br>Beth than Jane,left_to_right
null,Somebody says<br><em>Beth is being opposed by Mike</em>,NA,NA,NA,html-keyboard-response,57,626220,0.0-32.0-0.0,anomymised,6564584152624795c40b73cb,6564bdb0c02e5ee1d20a6aa3,52193,1A,woman,NA,null,NAME1 is being opposed by NAME2,oppose_passive,sentence,NA,NA,NA,NA,NA
7057.100000023842,NA,NA,NA,NA,survey-likert-extra-labels,58,633281,0.0-32.0-1.0,anomymised,6564584152624795c40b73cb,6564bdb0c02e5ee1d20a6aa3,52193,1A,woman,NA,NA,Somebody says<br><em>Beth is being opposed by Mike</em>,oppose_passive,rating_volition,"{""Q0"":2}",[0],The speaker identifies more with <br>Mike than Beth,The speaker identifies more with<br>Beth than Mike,right_to_left
null,Somebody says<br><em>Luke and Kate are flirting with each other</em>,NA,NA,NA,html-keyboard-response,59,635286,0.0-33.0-0.0,anomymised,6564584152624795c40b73cb,6564bdb0c02e5ee1d20a6aa3,52193,1A,woman,NA,null,NAME1 and NAME2 are flirting with each other,flirt_conjoined,sentence,NA,NA,NA,NA,NA
1579.7000000476837,NA,NA,NA,NA,survey-likert-extra-labels,60,636868,0.0-33.0-1.0,anomymised,6564584152624795c40b73cb,6564bdb0c02e5ee1d20a6aa3,52193,1A,woman,NA,NA,Somebody says<br><em>Luke and Kate are flirting with each other</em>,flirt_conjoined,rating_volition,"{""Q0"":3}",[0],The speaker identifies more with <br>Kate than Luke,The speaker identifies more with<br>Luke than Kate,right_to_left
null,Somebody says<br><em>Dave is talking to Kate</em>,NA,NA,NA,html-keyboard-response,61,638872,0.0-34.0-0.0,anomymised,6564584152624795c40b73cb,6564bdb0c02e5ee1d20a6aa3,52193,1A,woman,NA,null,NAME1 is talking to NAME2,talk_active,sentence,NA,NA,NA,NA,NA
3025.4000000953674,NA,NA,NA,NA,survey-likert-extra-labels,62,641902,0.0-34.0-1.0,anomymised,6564584152624795c40b73cb,6564bdb0c02e5ee1d20a6aa3,52193,1A,woman,NA,NA,Somebody says<br><em>Dave is talking to Kate</em>,talk_active,rating_volition,"{""Q0"":2}",[0],The speaker identifies more with <br>Dave than Kate,The speaker identifies more with<br>Kate than Dave,left_to_right
null,Somebody says<br><em>Jane and Luke are meeting each other</em>,NA,NA,NA,html-keyboard-response,63,643912,0.0-35.0-0.0,anomymised,6564584152624795c40b73cb,6564bdb0c02e5ee1d20a6aa3,52193,1A,woman,NA,null,NAME1 and NAME2 are meeting each other,meet_conjoined,sentence,NA,NA,NA,NA,NA
1794.5,NA,NA,NA,NA,survey-likert-extra-labels,64,645710,0.0-35.0-1.0,anomymised,6564584152624795c40b73cb,6564bdb0c02e5ee1d20a6aa3,52193,1A,woman,NA,NA,Somebody says<br><em>Jane and Luke are meeting each other</em>,meet_conjoined,rating_volition,"{""Q0"":3}",[0],The speaker identifies more with <br>Luke than Jane,The speaker identifies more with<br>Jane than Luke,right_to_left
null,Somebody says<br><em>Kate is hugging Dave</em>,NA,NA,NA,html-keyboard-response,65,647717,0.0-36.0-0.0,anomymised,6564584152624795c40b73cb,6564bdb0c02e5ee1d20a6aa3,52193,1A,woman,NA,null,NAME1 is hugging NAME2,hug_active,sentence,NA,NA,NA,NA,NA
2210.7999999523163,NA,NA,NA,NA,survey-likert-extra-labels,66,649930,0.0-36.0-1.0,anomymised,6564584152624795c40b73cb,6564bdb0c02e5ee1d20a6aa3,52193,1A,woman,NA,NA,Somebody says<br><em>Kate is hugging Dave</em>,hug_active,rating_volition,"{""Q0"":1}",[0],The speaker identifies more with <br>Kate than Dave,The speaker identifies more with<br>Dave than Kate,left_to_right
null,Somebody says<br><em>Jane is meeting Ruth</em>,NA,NA,NA,html-keyboard-response,67,651955,0.0-37.0-0.0,anomymised,6564584152624795c40b73cb,6564bdb0c02e5ee1d20a6aa3,52193,1A,woman,NA,null,NAME1 is meeting NAME2,meet_active,sentence,NA,NA,NA,NA,NA
2651.7999999523163,NA,NA,NA,NA,survey-likert-extra-labels,68,654609,0.0-37.0-1.0,anomymised,6564584152624795c40b73cb,6564bdb0c02e5ee1d20a6aa3,52193,1A,woman,NA,NA,Somebody says<br><em>Jane is meeting Ruth</em>,meet_active,rating_volition,"{""Q0"":5}",[0],The speaker identifies more with <br>Ruth than Jane,The speaker identifies more with<br>Jane than Ruth,right_to_left
null,Somebody says<br><em>Jane is seducing Ruth</em>,NA,NA,NA,html-keyboard-response,69,656613,0.0-38.0-0.0,anomymised,6564584152624795c40b73cb,6564bdb0c02e5ee1d20a6aa3,52193,1A,woman,NA,null,NAME1 is seducing NAME2,seduce_active,sentence,NA,NA,NA,NA,NA
2092.5,NA,NA,NA,NA,survey-likert-extra-labels,70,658708,0.0-38.0-1.0,anomymised,6564584152624795c40b73cb,6564bdb0c02e5ee1d20a6aa3,52193,1A,woman,NA,NA,Somebody says<br><em>Jane is seducing Ruth</em>,seduce_active,rating_volition,"{""Q0"":1}",[0],The speaker identifies more with <br>Jane than Ruth,The speaker identifies more with<br>Ruth than Jane,left_to_right
null,Somebody says<br><em>Dave and Ruth are arguing with each other</em>,NA,NA,NA,html-keyboard-response,71,660717,0.0-39.0-0.0,anomymised,6564584152624795c40b73cb,6564bdb0c02e5ee1d20a6aa3,52193,1A,woman,NA,null,NAME1 and NAME2 are arguing with each other,argue_conjoined,sentence,NA,NA,NA,NA,NA
1279.3000000715256,NA,NA,NA,NA,survey-likert-extra-labels,72,661999,0.0-39.0-1.0,anomymised,6564584152624795c40b73cb,6564bdb0c02e5ee1d20a6aa3,52193,1A,woman,NA,NA,Somebody says<br><em>Dave and Ruth are arguing with each other</em>,argue_conjoined,rating_volition,"{""Q0"":3}",[0],The speaker identifies more with <br>Dave than Ruth,The speaker identifies more with<br>Ruth than Dave,left_to_right
null,Somebody says<br><em>Beth is kissing Ruth</em>,NA,NA,NA,html-keyboard-response,73,664007,0.0-40.0-0.0,anomymised,6564584152624795c40b73cb,6564bdb0c02e5ee1d20a6aa3,52193,1A,woman,NA,null,NAME1 is kissing NAME2,kiss_active,sentence,NA,NA,NA,NA,NA
4351.100000023842,NA,NA,NA,NA,survey-likert-extra-labels,74,668361,0.0-40.0-1.0,anomymised,6564584152624795c40b73cb,6564bdb0c02e5ee1d20a6aa3,52193,1A,woman,NA,NA,Somebody says<br><em>Beth is kissing Ruth</em>,kiss_active,rating_volition,"{""Q0"":1}",[0],The speaker identifies more with <br>Beth than Ruth,The speaker identifies more with<br>Ruth than Beth,left_to_right
null,Somebody says<br><em>Kate and Fred are hugging each other</em>,NA,NA,NA,html-keyboard-response,75,670385,0.0-41.0-0.0,anomymised,6564584152624795c40b73cb,6564bdb0c02e5ee1d20a6aa3,52193,1A,woman,NA,null,NAME1 and NAME2 are hugging each other,hug_conjoined,sentence,NA,NA,NA,NA,NA
2113.399999976158,NA,NA,NA,NA,survey-likert-extra-labels,76,672502,0.0-41.0-1.0,anomymised,6564584152624795c40b73cb,6564bdb0c02e5ee1d20a6aa3,52193,1A,woman,NA,NA,Somebody says<br><em>Kate and Fred are hugging each other</em>,hug_conjoined,rating_volition,"{""Q0"":3}",[0],The speaker identifies more with <br>Kate than Fred,The speaker identifies more with<br>Fred than Kate,left_to_right
null,Somebody says<br><em>Ruth is chasing Kate,NA,NA,NA,html-keyboard-response,77,674514,0.0-42.0-0.0,anomymised,6564584152624795c40b73cb,6564bdb0c02e5ee1d20a6aa3,52193,1A,woman,NA,null,W1 is chasing W3,chase,sentence,NA,NA,NA,NA,NA
11391.099999904633,NA,NA,NA,NA,survey-likert-extra-labels,78,685909,0.0-42.0-1.0,anomymised,6564584152624795c40b73cb,6564bdb0c02e5ee1d20a6aa3,52193,1A,woman,NA,NA,Somebody says<br><em>Ruth is chasing Kate,chase,rating_volition,"{""Q0"":0}",[0],Ruth is behind Kate,Kate is behind Ruth,NA
null,Somebody says<br><em>Jane is carrying Beth,NA,NA,NA,html-keyboard-response,79,687921,0.0-43.0-0.0,anomymised,6564584152624795c40b73cb,6564bdb0c02e5ee1d20a6aa3,52193,1A,woman,NA,null,W2 is carrying W4,carry,sentence,NA,NA,NA,NA,NA
5276.100000023842,NA,NA,NA,NA,survey-likert-extra-labels,80,693201,0.0-43.0-1.0,anomymised,6564584152624795c40b73cb,6564bdb0c02e5ee1d20a6aa3,52193,1A,woman,NA,NA,Somebody says<br><em>Jane is carrying Beth,carry,rating_volition,"{""Q0"":2}",[0],Jane is transporting Beth,Beth is transporting Jane,NA
null,Somebody says<br><em>Dave is marrying Ruth</em>,NA,NA,NA,html-keyboard-response,81,695221,0.0-44.0-0.0,anomymised,6564584152624795c40b73cb,6564bdb0c02e5ee1d20a6aa3,52193,1A,woman,NA,null,NAME1 is marrying NAME2,marry_active,sentence,NA,NA,NA,NA,NA
3397.4000000953674,NA,NA,NA,NA,survey-likert-extra-labels,82,698622,0.0-44.0-1.0,anomymised,6564584152624795c40b73cb,6564bdb0c02e5ee1d20a6aa3,52193,1A,woman,NA,NA,Somebody says<br><em>Dave is marrying Ruth</em>,marry_active,rating_volition,"{""Q0"":2}",[0],The speaker identifies more with <br>Dave than Ruth,The speaker identifies more with<br>Ruth than Dave,left_to_right
null,Somebody says<br><em>Mike is reminding Beth,NA,NA,NA,html-keyboard-response,83,700629,0.0-45.0-0.0,anomymised,6564584152624795c40b73cb,6564bdb0c02e5ee1d20a6aa3,52193,1A,woman,NA,null,M2 is reminding W4,remind,sentence,NA,NA,NA,NA,NA
2823.2999999523163,NA,NA,NA,NA,survey-likert-extra-labels,84,703456,0.0-45.0-1.0,anomymised,6564584152624795c40b73cb,6564bdb0c02e5ee1d20a6aa3,52193,1A,woman,NA,NA,Somebody says<br><em>Mike is reminding Beth,remind,rating_volition,"{""Q0"":1}",[0],Mike is telling Beth again,Beth is telling Mike again,NA
null,Somebody says<br><em>Dave is being challenged by Luke</em>,NA,NA,NA,html-keyboard-response,85,705460,0.0-46.0-0.0,anomymised,6564584152624795c40b73cb,6564bdb0c02e5ee1d20a6aa3,52193,1A,woman,NA,null,NAME1 is being challenged by NAME2,challenge_passive,sentence,NA,NA,NA,NA,NA
5306.200000047684,NA,NA,NA,NA,survey-likert-extra-labels,86,710768,0.0-46.0-1.0,anomymised,6564584152624795c40b73cb,6564bdb0c02e5ee1d20a6aa3,52193,1A,woman,NA,NA,Somebody says<br><em>Dave is being challenged by Luke</em>,challenge_passive,rating_volition,"{""Q0"":2}",[0],The speaker identifies more with <br>Luke than Dave,The speaker identifies more with<br>Dave than Luke,right_to_left
null,Somebody says<br><em>Dave and Luke are shouting at each other</em>,NA,NA,NA,html-keyboard-response,87,712785,0.0-47.0-0.0,anomymised,6564584152624795c40b73cb,6564bdb0c02e5ee1d20a6aa3,52193,1A,woman,NA,null,NAME1 and NAME2 are shouting at each other,shout_conjoined,sentence,NA,NA,NA,NA,NA
974.6999999284744,NA,NA,NA,NA,survey-likert-extra-labels,88,713763,0.0-47.0-1.0,anomymised,6564584152624795c40b73cb,6564bdb0c02e5ee1d20a6aa3,52193,1A,woman,NA,NA,Somebody says<br><em>Dave and Luke are shouting at each other</em>,shout_conjoined,rating_volition,"{""Q0"":3}",[0],The speaker identifies more with <br>Luke than Dave,The speaker identifies more with<br>Dave than Luke,right_to_left
null,Somebody says<br><em>Mike is greeting Fred</em>,NA,NA,NA,html-keyboard-response,89,715769,0.0-48.0-0.0,anomymised,6564584152624795c40b73cb,6564bdb0c02e5ee1d20a6aa3,52193,1A,woman,NA,null,NAME1 is greeting NAME2,greet_active,sentence,NA,NA,NA,NA,NA
3598.5,NA,NA,NA,NA,survey-likert-extra-labels,90,719371,0.0-48.0-1.0,anomymised,6564584152624795c40b73cb,6564bdb0c02e5ee1d20a6aa3,52193,1A,woman,NA,NA,Somebody says<br><em>Mike is greeting Fred</em>,greet_active,rating_volition,"{""Q0"":2}",[0],The speaker identifies more with <br>Mike than Fred,The speaker identifies more with<br>Fred than Mike,left_to_right
null,Somebody says<br><em>Jane and Mike are touching each other</em>,NA,NA,NA,html-keyboard-response,91,721377,0.0-49.0-0.0,anomymised,6564584152624795c40b73cb,6564bdb0c02e5ee1d20a6aa3,52193,1A,woman,NA,null,NAME1 and NAME2 are touching each other,touch_conjoined,sentence,NA,NA,NA,NA,NA
2257.2999999523163,NA,NA,NA,NA,survey-likert-extra-labels,92,723637,0.0-49.0-1.0,anomymised,6564584152624795c40b73cb,6564bdb0c02e5ee1d20a6aa3,52193,1A,woman,NA,NA,Somebody says<br><em>Jane and Mike are touching each other</em>,touch_conjoined,rating_volition,"{""Q0"":3}",[0],The speaker identifies more with <br>Jane than Mike,The speaker identifies more with<br>Mike than Jane,left_to_right
null,Somebody says<br><em>Dave is challenging Luke</em>,NA,NA,NA,html-keyboard-response,93,725654,0.0-50.0-0.0,anomymised,6564584152624795c40b73cb,6564bdb0c02e5ee1d20a6aa3,52193,1A,woman,NA,null,NAME1 is challenging NAME2,challenge_active,sentence,NA,NA,NA,NA,NA
3738,NA,NA,NA,NA,survey-likert-extra-labels,94,729395,0.0-50.0-1.0,anomymised,6564584152624795c40b73cb,6564bdb0c02e5ee1d20a6aa3,52193,1A,woman,NA,NA,Somebody says<br><em>Dave is challenging Luke</em>,challenge_active,rating_volition,"{""Q0"":5}",[0],The speaker identifies more with <br>Luke than Dave,The speaker identifies more with<br>Dave than Luke,right_to_left
null,Somebody says<br><em>Luke is playing with Beth</em>,NA,NA,NA,html-keyboard-response,95,731411,0.0-51.0-0.0,anomymised,6564584152624795c40b73cb,6564bdb0c02e5ee1d20a6aa3,52193,1A,woman,NA,null,NAME1 is playing with NAME2,play_active,sentence,NA,NA,NA,NA,NA
2722.399999976158,NA,NA,NA,NA,survey-likert-extra-labels,96,734136,0.0-51.0-1.0,anomymised,6564584152624795c40b73cb,6564bdb0c02e5ee1d20a6aa3,52193,1A,woman,NA,NA,Somebody says<br><em>Luke is playing with Beth</em>,play_active,rating_volition,"{""Q0"":5}",[0],The speaker identifies more with <br>Beth than Luke,The speaker identifies more with<br>Luke than Beth,right_to_left
null,Somebody says<br><em>Mike is arguing with Fred</em>,NA,NA,NA,html-keyboard-response,97,736148,0.0-52.0-0.0,anomymised,6564584152624795c40b73cb,6564bdb0c02e5ee1d20a6aa3,52193,1A,woman,NA,null,NAME1 is arguing with NAME2,argue_active,sentence,NA,NA,NA,NA,NA
2286.2999999523163,NA,NA,NA,NA,survey-likert-extra-labels,98,738438,0.0-52.0-1.0,anomymised,6564584152624795c40b73cb,6564bdb0c02e5ee1d20a6aa3,52193,1A,woman,NA,NA,Somebody says<br><em>Mike is arguing with Fred</em>,argue_active,rating_volition,"{""Q0"":1}",[0],The speaker identifies more with <br>Mike than Fred,The speaker identifies more with<br>Fred than Mike,left_to_right
null,Somebody says<br><em>Fred is touching Luke</em>,NA,NA,NA,html-keyboard-response,99,740444,0.0-53.0-0.0,anomymised,6564584152624795c40b73cb,6564bdb0c02e5ee1d20a6aa3,52193,1A,woman,NA,null,NAME1 is touching NAME2,touch_active,sentence,NA,NA,NA,NA,NA
3891.5,NA,NA,NA,NA,survey-likert-extra-labels,100,744338,0.0-53.0-1.0,anomymised,6564584152624795c40b73cb,6564bdb0c02e5ee1d20a6aa3,52193,1A,woman,NA,NA,Somebody says<br><em>Fred is touching Luke</em>,touch_active,rating_volition,"{""Q0"":4}",[0],The speaker identifies more with <br>Luke than Fred,The speaker identifies more with<br>Fred than Luke,right_to_left
null,Somebody says<br><em>Fred is shouting at Luke</em>,NA,NA,NA,html-keyboard-response,101,746347,0.0-54.0-0.0,anomymised,6564584152624795c40b73cb,6564bdb0c02e5ee1d20a6aa3,52193,1A,woman,NA,null,NAME1 is shouting at NAME2,shout_active,sentence,NA,NA,NA,NA,NA
4129.200000047684,NA,NA,NA,NA,survey-likert-extra-labels,102,750479,0.0-54.0-1.0,anomymised,6564584152624795c40b73cb,6564bdb0c02e5ee1d20a6aa3,52193,1A,woman,NA,NA,Somebody says<br><em>Fred is shouting at Luke</em>,shout_active,rating_volition,"{""Q0"":4}",[0],The speaker identifies more with <br>Luke than Fred,The speaker identifies more with<br>Fred than Luke,right_to_left
null,Somebody says<br><em>Jane is teaching Dave,NA,NA,NA,html-keyboard-response,103,752493,0.0-55.0-0.0,anomymised,6564584152624795c40b73cb,6564bdb0c02e5ee1d20a6aa3,52193,1A,woman,NA,null,W2 is teaching M4,teach,sentence,NA,NA,NA,NA,NA
3549,NA,NA,NA,NA,survey-likert-extra-labels,104,756045,0.0-55.0-1.0,anomymised,6564584152624795c40b73cb,6564bdb0c02e5ee1d20a6aa3,52193,1A,woman,NA,NA,Somebody says<br><em>Jane is teaching Dave,teach,rating_volition,"{""Q0"":0}",[0],Jane is educating Dave,Dave is educating Jane,NA
2158.0999999046326,<p>Thank you for completing that task.</p><p>The final part of this session is a short questionnaire.</p><p>Press Continue.</p>,0,Continue,Continue,html-button-response,105,758209,0.0-56.0,anomymised,6564584152624795c40b73cb,6564bdb0c02e5ee1d20a6aa3,52193,1A,woman,NA,NA,NA,NA,NA,NA,NA,NA,NA,NA
57998.89999997616,NA,NA,NA,NA,survey-text,106,817223,0.0-57.0,anomymised,6564584152624795c40b73cb,6564bdb0c02e5ee1d20a6aa3,52193,1A,woman,NA,NA,NA,NA,demographics,"{""Q0"":""50"",""Q1"":""English"",""Q2"":""English"",""Q3"":""United Kingdom"",""Q4"":""British"",""Q5"":""White British"",""Q6"":""female""}",NA,NA,NA,NA
4540.800000071526,<p>This is the last question - thank you for taking part! Have you lived in the UK for the last 5 years or more?</p>,0,"Yes,No",Yes,html-button-response,107,821767,0.0-58.0,anomymised,6564584152624795c40b73cb,6564bdb0c02e5ee1d20a6aa3,52193,1A,woman,NA,NA,NA,NA,fiveyears,NA,NA,NA,NA,NA
