rt,stimulus,button_pressed,choices,ChosenStimulus,trial_type,trial_index,time_elapsed,internal_node_id,subject_id,study_id,session_id,subject,list,ppt_gender,url,key_press,sentence_type,verb,test_part,responses,question_order,left_part,right_part,name_order
2381.699999988079,Welcome to the experiment. Press Continue to begin.,0,Continue,Continue,html-button-response,0,2388,0.0-0.0,anomymised,6564584152624795c40b73cb,65645f5fe24fe6d9214ba3ba,52859,1A,woman,NA,NA,NA,NA,NA,NA,NA,NA,NA,NA
20163,NA,NA,NA,NA,external-html,1,25234,0.0-1.0,anomymised,6564584152624795c40b73cb,65645f5fe24fe6d9214ba3ba,52859,1A,woman,consent.html,NA,NA,NA,NA,NA,NA,NA,NA,NA
44865.69999998808,"<p>Welcome.</p><p>In this experiment we will ask you to imagine people's motivations for saying sentences.</p><p>Each trial will begin with a sentence that somebody might say to describe an event involving two different people.</p><p>For instance, someone might say <em>Harry is being recruited by Molly</em></p><p>We want you to think about which of those two people (Molly and Harry) the speaker identifies more with. For instance, why did the speaker say <em>Harry is being recruited by Molly</em> rather than <em> Molly is recruiting Harry</em>? Might that mean that the speaker is socially closer to one of the two characters?</p><p>After you have read the sentence, you will rate on a scale which of the two characters the speaker identifies more with.</p><p>You will give your answer by clicking a button on a rating scale.</p><p>Sometimes there will also be catch questions designed to make sure that you are paying attention, which ask about a different topic.</p><p>To do this task, you will have to use your imagination to think about and visualise the events, and how the speaker might relate to the characters.</p><br><p>Ready?</p>",0,Continue,Continue,html-button-response,2,70102,0.0-2.0,anomymised,6564584152624795c40b73cb,65645f5fe24fe6d9214ba3ba,52859,1A,woman,NA,NA,NA,NA,NA,NA,NA,NA,NA,NA
4860.9000000059605,"<p>Before the experiment starts, we will show you an example of how you will answer the questions. Press 'Continue'.</p>",0,Continue,Continue,html-button-response,3,75973,0.0-3.0,anomymised,6564584152624795c40b73cb,65645f5fe24fe6d9214ba3ba,52859,1A,woman,NA,NA,NA,NA,NA,NA,NA,NA,NA,NA
null,Somebody says <br><em>Samuel is dining with Frank</em>,NA,NA,NA,html-keyboard-response,4,78986,0.0-4.0,anomymised,6564584152624795c40b73cb,65645f5fe24fe6d9214ba3ba,52859,1A,woman,NA,null,NA,NA,NA,NA,NA,NA,NA,NA
19725.5,<img src='img/Example-trial.jpg' style='height:550px;''></img>,0,Continue,Continue,html-button-response,5,98713,0.0-5.0,anomymised,6564584152624795c40b73cb,65645f5fe24fe6d9214ba3ba,52859,1A,woman,NA,NA,NA,NA,NA,NA,NA,NA,NA,NA
2650.5,<p>Ready to start the experiment?</p><br><p><strong>Remember to give an answer by clicking a button on the rating scale.</strong></p><p>Press 'Continue' to begin.</p>,0,Continue,Continue,html-button-response,6,102379,0.0-6.0,anomymised,6564584152624795c40b73cb,65645f5fe24fe6d9214ba3ba,52859,1A,woman,NA,NA,NA,NA,NA,NA,NA,NA,NA,NA
null,Somebody says<br><em>Dave is fighting with Fred</em>,NA,NA,NA,html-keyboard-response,7,105403,0.0-7.0-0.0,anomymised,6564584152624795c40b73cb,65645f5fe24fe6d9214ba3ba,52859,1A,woman,NA,null,NAME1 is fighting with NAME2,fight_active,sentence,NA,NA,NA,NA,NA
8723.09999999404,NA,NA,NA,NA,survey-likert-extra-labels,8,114129,0.0-7.0-1.0,anomymised,6564584152624795c40b73cb,65645f5fe24fe6d9214ba3ba,52859,1A,woman,NA,NA,Somebody says<br><em>Dave is fighting with Fred</em>,fight_active,rating_volition,"{""Q0"":5}",[0],The speaker identifies more with <br>Fred than Dave,The speaker identifies more with<br>Dave than Fred,right_to_left
null,Somebody says<br><em>Dave is kissing Luke</em>,NA,NA,NA,html-keyboard-response,9,116133,0.0-8.0-0.0,anomymised,6564584152624795c40b73cb,65645f5fe24fe6d9214ba3ba,52859,1A,woman,NA,null,NAME1 is kissing NAME2,kiss_active,sentence,NA,NA,NA,NA,NA
8446.40000000596,NA,NA,NA,NA,survey-likert-extra-labels,10,124581,0.0-8.0-1.0,anomymised,6564584152624795c40b73cb,65645f5fe24fe6d9214ba3ba,52859,1A,woman,NA,NA,Somebody says<br><em>Dave is kissing Luke</em>,kiss_active,rating_volition,"{""Q0"":1}",[0],The speaker identifies more with <br>Dave than Luke,The speaker identifies more with<br>Luke than Dave,left_to_right
null,Somebody says<br><em>Luke is arguing with Fred</em>,NA,NA,NA,html-keyboard-response,11,126589,0.0-9.0-0.0,anomymised,6564584152624795c40b73cb,65645f5fe24fe6d9214ba3ba,52859,1A,woman,NA,null,NAME1 is arguing with NAME2,argue_active,sentence,NA,NA,NA,NA,NA
15238.59999999404,NA,NA,NA,NA,survey-likert-extra-labels,12,141829,0.0-9.0-1.0,anomymised,6564584152624795c40b73cb,65645f5fe24fe6d9214ba3ba,52859,1A,woman,NA,NA,Somebody says<br><em>Luke is arguing with Fred</em>,argue_active,rating_volition,"{""Q0"":5}",[0],The speaker identifies more with <br>Fred than Luke,The speaker identifies more with<br>Luke than Fred,right_to_left
null,Somebody says<br><em>Fred is being kissed by Mike</em>,NA,NA,NA,html-keyboard-response,13,143832,0.0-10.0-0.0,anomymised,6564584152624795c40b73cb,65645f5fe24fe6d9214ba3ba,52859,1A,woman,NA,null,NAME1 is being kissed by NAME2,kiss_passive,sentence,NA,NA,NA,NA,NA
21128.90000000596,NA,NA,NA,NA,survey-likert-extra-labels,14,164963,0.0-10.0-1.0,anomymised,6564584152624795c40b73cb,65645f5fe24fe6d9214ba3ba,52859,1A,woman,NA,NA,Somebody says<br><em>Fred is being kissed by Mike</em>,kiss_passive,rating_volition,"{""Q0"":5}",[0],The speaker identifies more with <br>Mike than Fred,The speaker identifies more with<br>Fred than Mike,right_to_left
null,Somebody says<br><em>Luke is shouting at Kate</em>,NA,NA,NA,html-keyboard-response,15,166975,0.0-11.0-0.0,anomymised,6564584152624795c40b73cb,65645f5fe24fe6d9214ba3ba,52859,1A,woman,NA,null,NAME1 is shouting at NAME2,shout_active,sentence,NA,NA,NA,NA,NA
6472,NA,NA,NA,NA,survey-likert-extra-labels,16,173449,0.0-11.0-1.0,anomymised,6564584152624795c40b73cb,65645f5fe24fe6d9214ba3ba,52859,1A,woman,NA,NA,Somebody says<br><em>Luke is shouting at Kate</em>,shout_active,rating_volition,"{""Q0"":1}",[0],The speaker identifies more with <br>Kate than Luke,The speaker identifies more with<br>Luke than Kate,right_to_left
null,Somebody says<br><em>Mike is posing for Dave,NA,NA,NA,html-keyboard-response,17,175451,0.0-12.0-0.0,anomymised,6564584152624795c40b73cb,65645f5fe24fe6d9214ba3ba,52859,1A,woman,NA,null,M2 is posing for M4,pose,sentence,NA,NA,NA,NA,NA
5269.5999999940395,NA,NA,NA,NA,survey-likert-extra-labels,18,180722,0.0-12.0-1.0,anomymised,6564584152624795c40b73cb,65645f5fe24fe6d9214ba3ba,52859,1A,woman,NA,NA,Somebody says<br><em>Mike is posing for Dave,pose,rating_volition,"{""Q0"":5}",[0],Mike is modelling for Dave,Dave is modelling for Mike,NA
null,Somebody says<br><em>Fred is being opposed by Ruth</em>,NA,NA,NA,html-keyboard-response,19,182727,0.0-13.0-0.0,anomymised,6564584152624795c40b73cb,65645f5fe24fe6d9214ba3ba,52859,1A,woman,NA,null,NAME1 is being opposed by NAME2,oppose_passive,sentence,NA,NA,NA,NA,NA
5116.199999988079,NA,NA,NA,NA,survey-likert-extra-labels,20,187845,0.0-13.0-1.0,anomymised,6564584152624795c40b73cb,65645f5fe24fe6d9214ba3ba,52859,1A,woman,NA,NA,Somebody says<br><em>Fred is being opposed by Ruth</em>,oppose_passive,rating_volition,"{""Q0"":3}",[0],The speaker identifies more with <br>Fred than Ruth,The speaker identifies more with<br>Ruth than Fred,left_to_right
null,Somebody says<br><em>Beth is talking to Kate</em>,NA,NA,NA,html-keyboard-response,21,189861,0.0-14.0-0.0,anomymised,6564584152624795c40b73cb,65645f5fe24fe6d9214ba3ba,52859,1A,woman,NA,null,NAME1 is talking to NAME2,talk_active,sentence,NA,NA,NA,NA,NA
5642.4000000059605,NA,NA,NA,NA,survey-likert-extra-labels,22,195504,0.0-14.0-1.0,anomymised,6564584152624795c40b73cb,65645f5fe24fe6d9214ba3ba,52859,1A,woman,NA,NA,Somebody says<br><em>Beth is talking to Kate</em>,talk_active,rating_volition,"{""Q0"":5}",[0],The speaker identifies more with <br>Kate than Beth,The speaker identifies more with<br>Beth than Kate,right_to_left
null,Somebody says<br><em>Dave is touching Jane</em>,NA,NA,NA,html-keyboard-response,23,197511,0.0-15.0-0.0,anomymised,6564584152624795c40b73cb,65645f5fe24fe6d9214ba3ba,52859,1A,woman,NA,null,NAME1 is touching NAME2,touch_active,sentence,NA,NA,NA,NA,NA
5516.199999988079,NA,NA,NA,NA,survey-likert-extra-labels,24,203028,0.0-15.0-1.0,anomymised,6564584152624795c40b73cb,65645f5fe24fe6d9214ba3ba,52859,1A,woman,NA,NA,Somebody says<br><em>Dave is touching Jane</em>,touch_active,rating_volition,"{""Q0"":5}",[0],The speaker identifies more with <br>Dave than Jane,The speaker identifies more with<br>Jane than Dave,left_to_right
null,Somebody says<br><em>Ruth is being greeted by Mike</em>,NA,NA,NA,html-keyboard-response,25,205041,0.0-16.0-0.0,anomymised,6564584152624795c40b73cb,65645f5fe24fe6d9214ba3ba,52859,1A,woman,NA,null,NAME1 is being greeted by NAME2,greet_passive,sentence,NA,NA,NA,NA,NA
9248.90000000596,NA,NA,NA,NA,survey-likert-extra-labels,26,214291,0.0-16.0-1.0,anomymised,6564584152624795c40b73cb,65645f5fe24fe6d9214ba3ba,52859,1A,woman,NA,NA,Somebody says<br><em>Ruth is being greeted by Mike</em>,greet_passive,rating_volition,"{""Q0"":5}",[0],The speaker identifies more with <br>Mike than Ruth,The speaker identifies more with<br>Ruth than Mike,right_to_left
null,Somebody says<br><em>Kate is dancing with Luke</em>,NA,NA,NA,html-keyboard-response,27,216304,0.0-17.0-0.0,anomymised,6564584152624795c40b73cb,65645f5fe24fe6d9214ba3ba,52859,1A,woman,NA,null,NAME1 is dancing with NAME2,dance_active,sentence,NA,NA,NA,NA,NA
4733.399999976158,NA,NA,NA,NA,survey-likert-extra-labels,28,221038,0.0-17.0-1.0,anomymised,6564584152624795c40b73cb,65645f5fe24fe6d9214ba3ba,52859,1A,woman,NA,NA,Somebody says<br><em>Kate is dancing with Luke</em>,dance_active,rating_volition,"{""Q0"":5}",[0],The speaker identifies more with <br>Kate than Luke,The speaker identifies more with<br>Luke than Kate,left_to_right
null,Somebody says<br><em>Beth is hugging Luke</em>,NA,NA,NA,html-keyboard-response,29,223055,0.0-18.0-0.0,anomymised,6564584152624795c40b73cb,65645f5fe24fe6d9214ba3ba,52859,1A,woman,NA,null,NAME1 is hugging NAME2,hug_active,sentence,NA,NA,NA,NA,NA
19936,NA,NA,NA,NA,survey-likert-extra-labels,30,242992,0.0-18.0-1.0,anomymised,6564584152624795c40b73cb,65645f5fe24fe6d9214ba3ba,52859,1A,woman,NA,NA,Somebody says<br><em>Beth is hugging Luke</em>,hug_active,rating_volition,"{""Q0"":1}",[0],The speaker identifies more with <br>Luke than Beth,The speaker identifies more with<br>Beth than Luke,right_to_left
null,Somebody says<br><em>Luke and Fred are dancing with each other</em>,NA,NA,NA,html-keyboard-response,31,245000,0.0-19.0-0.0,anomymised,6564584152624795c40b73cb,65645f5fe24fe6d9214ba3ba,52859,1A,woman,NA,null,NAME1 and NAME2 are dancing with each other,dance_conjoined,sentence,NA,NA,NA,NA,NA
7098.399999976158,NA,NA,NA,NA,survey-likert-extra-labels,32,252100,0.0-19.0-1.0,anomymised,6564584152624795c40b73cb,65645f5fe24fe6d9214ba3ba,52859,1A,woman,NA,NA,Somebody says<br><em>Luke and Fred are dancing with each other</em>,dance_conjoined,rating_volition,"{""Q0"":2}",[0],The speaker identifies more with <br>Luke than Fred,The speaker identifies more with<br>Fred than Luke,left_to_right
null,Somebody says<br><em>Kate is feeding Luke,NA,NA,NA,html-keyboard-response,33,254116,0.0-20.0-0.0,anomymised,6564584152624795c40b73cb,65645f5fe24fe6d9214ba3ba,52859,1A,woman,NA,null,W3 is feeding M1,feed,sentence,NA,NA,NA,NA,NA
18831.29999998212,NA,NA,NA,NA,survey-likert-extra-labels,34,272949,0.0-20.0-1.0,anomymised,6564584152624795c40b73cb,65645f5fe24fe6d9214ba3ba,52859,1A,woman,NA,NA,Somebody says<br><em>Kate is feeding Luke,feed,rating_volition,"{""Q0"":3}",[0],Kate cooked for Luke,Luke cooked for Kate,NA
null,Somebody says<br><em>Mike and Jane are kissing each other</em>,NA,NA,NA,html-keyboard-response,35,274962,0.0-21.0-0.0,anomymised,6564584152624795c40b73cb,65645f5fe24fe6d9214ba3ba,52859,1A,woman,NA,null,NAME1 and NAME2 are kissing each other,kiss_conjoined,sentence,NA,NA,NA,NA,NA
7183.5999999940395,NA,NA,NA,NA,survey-likert-extra-labels,36,282147,0.0-21.0-1.0,anomymised,6564584152624795c40b73cb,65645f5fe24fe6d9214ba3ba,52859,1A,woman,NA,NA,Somebody says<br><em>Mike and Jane are kissing each other</em>,kiss_conjoined,rating_volition,"{""Q0"":3}",[0],The speaker identifies more with <br>Mike than Jane,The speaker identifies more with<br>Jane than Mike,left_to_right
null,Somebody says<br><em>Luke is being looked at by Kate</em>,NA,NA,NA,html-keyboard-response,37,284151,0.0-22.0-0.0,anomymised,6564584152624795c40b73cb,65645f5fe24fe6d9214ba3ba,52859,1A,woman,NA,null,NAME1 is being looked at by NAME2,look_passive,sentence,NA,NA,NA,NA,NA
5672.799999982119,NA,NA,NA,NA,survey-likert-extra-labels,38,289825,0.0-22.0-1.0,anomymised,6564584152624795c40b73cb,65645f5fe24fe6d9214ba3ba,52859,1A,woman,NA,NA,Somebody says<br><em>Luke is being looked at by Kate</em>,look_passive,rating_volition,"{""Q0"":5}",[0],The speaker identifies more with <br>Kate than Luke,The speaker identifies more with<br>Luke than Kate,right_to_left
null,Somebody says<br><em>Kate is being seduced by Ruth</em>,NA,NA,NA,html-keyboard-response,39,291842,0.0-23.0-0.0,anomymised,6564584152624795c40b73cb,65645f5fe24fe6d9214ba3ba,52859,1A,woman,NA,null,NAME1 is being seduced by NAME2,seduce_passive,sentence,NA,NA,NA,NA,NA
10037.699999988079,NA,NA,NA,NA,survey-likert-extra-labels,40,301881,0.0-23.0-1.0,anomymised,6564584152624795c40b73cb,65645f5fe24fe6d9214ba3ba,52859,1A,woman,NA,NA,Somebody says<br><em>Kate is being seduced by Ruth</em>,seduce_passive,rating_volition,"{""Q0"":1}",[0],The speaker identifies more with <br>Kate than Ruth,The speaker identifies more with<br>Ruth than Kate,left_to_right
null,Somebody says<br><em>Fred is copying Mike</em>,NA,NA,NA,html-keyboard-response,41,303890,0.0-24.0-0.0,anomymised,6564584152624795c40b73cb,65645f5fe24fe6d9214ba3ba,52859,1A,woman,NA,null,NAME1 is copying NAME2,copy_active,sentence,NA,NA,NA,NA,NA
5097,NA,NA,NA,NA,survey-likert-extra-labels,42,308989,0.0-24.0-1.0,anomymised,6564584152624795c40b73cb,65645f5fe24fe6d9214ba3ba,52859,1A,woman,NA,NA,Somebody says<br><em>Fred is copying Mike</em>,copy_active,rating_volition,"{""Q0"":5}",[0],The speaker identifies more with <br>Fred than Mike,The speaker identifies more with<br>Mike than Fred,left_to_right
null,Somebody says<br><em>Mike is reminding Beth,NA,NA,NA,html-keyboard-response,43,310997,0.0-25.0-0.0,anomymised,6564584152624795c40b73cb,65645f5fe24fe6d9214ba3ba,52859,1A,woman,NA,null,M2 is reminding W4,remind,sentence,NA,NA,NA,NA,NA
7478.5,NA,NA,NA,NA,survey-likert-extra-labels,44,318476,0.0-25.0-1.0,anomymised,6564584152624795c40b73cb,65645f5fe24fe6d9214ba3ba,52859,1A,woman,NA,NA,Somebody says<br><em>Mike is reminding Beth,remind,rating_volition,"{""Q0"":3}",[0],Mike is telling Beth again,Beth is telling Mike again,NA
null,Somebody says<br><em>Jane is seducing Mike</em>,NA,NA,NA,html-keyboard-response,45,320482,0.0-26.0-0.0,anomymised,6564584152624795c40b73cb,65645f5fe24fe6d9214ba3ba,52859,1A,woman,NA,null,NAME1 is seducing NAME2,seduce_active,sentence,NA,NA,NA,NA,NA
5476.9000000059605,NA,NA,NA,NA,survey-likert-extra-labels,46,325960,0.0-26.0-1.0,anomymised,6564584152624795c40b73cb,65645f5fe24fe6d9214ba3ba,52859,1A,woman,NA,NA,Somebody says<br><em>Jane is seducing Mike</em>,seduce_active,rating_volition,"{""Q0"":5}",[0],The speaker identifies more with <br>Jane than Mike,The speaker identifies more with<br>Mike than Jane,left_to_right
null,Somebody says<br><em>Dave is being touched by Fred</em>,NA,NA,NA,html-keyboard-response,47,327965,0.0-27.0-0.0,anomymised,6564584152624795c40b73cb,65645f5fe24fe6d9214ba3ba,52859,1A,woman,NA,null,NAME1 is being touched by NAME2,touch_passive,sentence,NA,NA,NA,NA,NA
6864.5,NA,NA,NA,NA,survey-likert-extra-labels,48,334830,0.0-27.0-1.0,anomymised,6564584152624795c40b73cb,65645f5fe24fe6d9214ba3ba,52859,1A,woman,NA,NA,Somebody says<br><em>Dave is being touched by Fred</em>,touch_passive,rating_volition,"{""Q0"":5}",[0],The speaker identifies more with <br>Fred than Dave,The speaker identifies more with<br>Dave than Fred,right_to_left
null,Somebody says<br><em>Mike is being challenged by Kate</em>,NA,NA,NA,html-keyboard-response,49,336843,0.0-28.0-0.0,anomymised,6564584152624795c40b73cb,65645f5fe24fe6d9214ba3ba,52859,1A,woman,NA,null,NAME1 is being challenged by NAME2,challenge_passive,sentence,NA,NA,NA,NA,NA
3235.699999988079,NA,NA,NA,NA,survey-likert-extra-labels,50,340080,0.0-28.0-1.0,anomymised,6564584152624795c40b73cb,65645f5fe24fe6d9214ba3ba,52859,1A,woman,NA,NA,Somebody says<br><em>Mike is being challenged by Kate</em>,challenge_passive,rating_volition,"{""Q0"":5}",[0],The speaker identifies more with <br>Kate than Mike,The speaker identifies more with<br>Mike than Kate,right_to_left
null,Somebody says<br><em>Jane is shouting at Luke</em>,NA,NA,NA,html-keyboard-response,51,342092,0.0-29.0-0.0,anomymised,6564584152624795c40b73cb,65645f5fe24fe6d9214ba3ba,52859,1A,woman,NA,null,NAME1 is shouting at NAME2,shout_active,sentence,NA,NA,NA,NA,NA
5209.199999988079,NA,NA,NA,NA,survey-likert-extra-labels,52,347302,0.0-29.0-1.0,anomymised,6564584152624795c40b73cb,65645f5fe24fe6d9214ba3ba,52859,1A,woman,NA,NA,Somebody says<br><em>Jane is shouting at Luke</em>,shout_active,rating_volition,"{""Q0"":5}",[0],The speaker identifies more with <br>Jane than Luke,The speaker identifies more with<br>Luke than Jane,left_to_right
null,Somebody says<br><em>Fred and Kate are arguing with each other</em>,NA,NA,NA,html-keyboard-response,53,349316,0.0-30.0-0.0,anomymised,6564584152624795c40b73cb,65645f5fe24fe6d9214ba3ba,52859,1A,woman,NA,null,NAME1 and NAME2 are arguing with each other,argue_conjoined,sentence,NA,NA,NA,NA,NA
2901.5,NA,NA,NA,NA,survey-likert-extra-labels,54,352219,0.0-30.0-1.0,anomymised,6564584152624795c40b73cb,65645f5fe24fe6d9214ba3ba,52859,1A,woman,NA,NA,Somebody says<br><em>Fred and Kate are arguing with each other</em>,argue_conjoined,rating_volition,"{""Q0"":3}",[0],The speaker identifies more with <br>Kate than Fred,The speaker identifies more with<br>Fred than Kate,right_to_left
null,Somebody says<br><em>Jane and Dave are touching each other</em>,NA,NA,NA,html-keyboard-response,55,354229,0.0-31.0-0.0,anomymised,6564584152624795c40b73cb,65645f5fe24fe6d9214ba3ba,52859,1A,woman,NA,null,NAME1 and NAME2 are touching each other,touch_conjoined,sentence,NA,NA,NA,NA,NA
2462.0999999940395,NA,NA,NA,NA,survey-likert-extra-labels,56,356692,0.0-31.0-1.0,anomymised,6564584152624795c40b73cb,65645f5fe24fe6d9214ba3ba,52859,1A,woman,NA,NA,Somebody says<br><em>Jane and Dave are touching each other</em>,touch_conjoined,rating_volition,"{""Q0"":3}",[0],The speaker identifies more with <br>Dave than Jane,The speaker identifies more with<br>Jane than Dave,right_to_left
null,Somebody says<br><em>Jane is teaching Dave,NA,NA,NA,html-keyboard-response,57,358702,0.0-32.0-0.0,anomymised,6564584152624795c40b73cb,65645f5fe24fe6d9214ba3ba,52859,1A,woman,NA,null,W2 is teaching M4,teach,sentence,NA,NA,NA,NA,NA
10813.5,NA,NA,NA,NA,survey-likert-extra-labels,58,369517,0.0-32.0-1.0,anomymised,6564584152624795c40b73cb,65645f5fe24fe6d9214ba3ba,52859,1A,woman,NA,NA,Somebody says<br><em>Jane is teaching Dave,teach,rating_volition,"{""Q0"":1}",[0],Jane is educating Dave,Dave is educating Jane,NA
null,Somebody says<br><em>Fred is meeting Kate</em>,NA,NA,NA,html-keyboard-response,59,371524,0.0-33.0-0.0,anomymised,6564584152624795c40b73cb,65645f5fe24fe6d9214ba3ba,52859,1A,woman,NA,null,NAME1 is meeting NAME2,meet_active,sentence,NA,NA,NA,NA,NA
5900.5999999940395,NA,NA,NA,NA,survey-likert-extra-labels,60,377426,0.0-33.0-1.0,anomymised,6564584152624795c40b73cb,65645f5fe24fe6d9214ba3ba,52859,1A,woman,NA,NA,Somebody says<br><em>Fred is meeting Kate</em>,meet_active,rating_volition,"{""Q0"":1}",[0],The speaker identifies more with <br>Fred than Kate,The speaker identifies more with<br>Kate than Fred,left_to_right
null,Somebody says<br><em>Fred is being copied by Mike</em>,NA,NA,NA,html-keyboard-response,61,379440,0.0-34.0-0.0,anomymised,6564584152624795c40b73cb,65645f5fe24fe6d9214ba3ba,52859,1A,woman,NA,null,NAME1 is being copied by NAME2,copy_passive,sentence,NA,NA,NA,NA,NA
3244.800000011921,NA,NA,NA,NA,survey-likert-extra-labels,62,382686,0.0-34.0-1.0,anomymised,6564584152624795c40b73cb,65645f5fe24fe6d9214ba3ba,52859,1A,woman,NA,NA,Somebody says<br><em>Fred is being copied by Mike</em>,copy_passive,rating_volition,"{""Q0"":1}",[0],The speaker identifies more with <br>Fred than Mike,The speaker identifies more with<br>Mike than Fred,left_to_right
null,Somebody says<br><em>Mike is marrying Dave</em>,NA,NA,NA,html-keyboard-response,63,384698,0.0-35.0-0.0,anomymised,6564584152624795c40b73cb,65645f5fe24fe6d9214ba3ba,52859,1A,woman,NA,null,NAME1 is marrying NAME2,marry_active,sentence,NA,NA,NA,NA,NA
6804.5,NA,NA,NA,NA,survey-likert-extra-labels,64,391504,0.0-35.0-1.0,anomymised,6564584152624795c40b73cb,65645f5fe24fe6d9214ba3ba,52859,1A,woman,NA,NA,Somebody says<br><em>Mike is marrying Dave</em>,marry_active,rating_volition,"{""Q0"":2}",[0],The speaker identifies more with <br>Mike than Dave,The speaker identifies more with<br>Dave than Mike,left_to_right
null,Somebody says<br><em>Beth and Luke are playing with each other</em>,NA,NA,NA,html-keyboard-response,65,393507,0.0-36.0-0.0,anomymised,6564584152624795c40b73cb,65645f5fe24fe6d9214ba3ba,52859,1A,woman,NA,null,NAME1 and NAME2 are playing with each other,play_conjoined,sentence,NA,NA,NA,NA,NA
2078.2999999821186,NA,NA,NA,NA,survey-likert-extra-labels,66,395586,0.0-36.0-1.0,anomymised,6564584152624795c40b73cb,65645f5fe24fe6d9214ba3ba,52859,1A,woman,NA,NA,Somebody says<br><em>Beth and Luke are playing with each other</em>,play_conjoined,rating_volition,"{""Q0"":3}",[0],The speaker identifies more with <br>Beth than Luke,The speaker identifies more with<br>Luke than Beth,left_to_right
null,Somebody says<br><em>Luke and Jane are meeting each other</em>,NA,NA,NA,html-keyboard-response,67,397600,0.0-37.0-0.0,anomymised,6564584152624795c40b73cb,65645f5fe24fe6d9214ba3ba,52859,1A,woman,NA,null,NAME1 and NAME2 are meeting each other,meet_conjoined,sentence,NA,NA,NA,NA,NA
3643.0999999940395,NA,NA,NA,NA,survey-likert-extra-labels,68,401244,0.0-37.0-1.0,anomymised,6564584152624795c40b73cb,65645f5fe24fe6d9214ba3ba,52859,1A,woman,NA,NA,Somebody says<br><em>Luke and Jane are meeting each other</em>,meet_conjoined,rating_volition,"{""Q0"":3}",[0],The speaker identifies more with <br>Jane than Luke,The speaker identifies more with<br>Luke than Jane,right_to_left
null,Somebody says<br><em>Dave is flirting with Ruth</em>,NA,NA,NA,html-keyboard-response,69,403253,0.0-38.0-0.0,anomymised,6564584152624795c40b73cb,65645f5fe24fe6d9214ba3ba,52859,1A,woman,NA,null,NAME1 is flirting with NAME2,flirt_active,sentence,NA,NA,NA,NA,NA
5828.4000000059605,NA,NA,NA,NA,survey-likert-extra-labels,70,409082,0.0-38.0-1.0,anomymised,6564584152624795c40b73cb,65645f5fe24fe6d9214ba3ba,52859,1A,woman,NA,NA,Somebody says<br><em>Dave is flirting with Ruth</em>,flirt_active,rating_volition,"{""Q0"":5}",[0],The speaker identifies more with <br>Ruth than Dave,The speaker identifies more with<br>Dave than Ruth,right_to_left
null,Somebody says<br><em>Fred is hiring Ruth,NA,NA,NA,html-keyboard-response,71,411087,0.0-39.0-0.0,anomymised,6564584152624795c40b73cb,65645f5fe24fe6d9214ba3ba,52859,1A,woman,NA,null,M3 is hiring W1,hire,sentence,NA,NA,NA,NA,NA
9482,NA,NA,NA,NA,survey-likert-extra-labels,72,420570,0.0-39.0-1.0,anomymised,6564584152624795c40b73cb,65645f5fe24fe6d9214ba3ba,52859,1A,woman,NA,NA,Somebody says<br><em>Fred is hiring Ruth,hire,rating_volition,"{""Q0"":0}",[0],Fred is employing Ruth,Ruth is employing Fred,NA
null,Somebody says<br><em>Dave and Jane are marrying each other</em>,NA,NA,NA,html-keyboard-response,73,422575,0.0-40.0-0.0,anomymised,6564584152624795c40b73cb,65645f5fe24fe6d9214ba3ba,52859,1A,woman,NA,null,NAME1 and NAME2 are marrying each other,marry_conjoined,sentence,NA,NA,NA,NA,NA
2804.4000000059605,NA,NA,NA,NA,survey-likert-extra-labels,74,425380,0.0-40.0-1.0,anomymised,6564584152624795c40b73cb,65645f5fe24fe6d9214ba3ba,52859,1A,woman,NA,NA,Somebody says<br><em>Dave and Jane are marrying each other</em>,marry_conjoined,rating_volition,"{""Q0"":3}",[0],The speaker identifies more with <br>Jane than Dave,The speaker identifies more with<br>Dave than Jane,right_to_left
null,Somebody says<br><em>Luke and Kate are fighting with each other</em>,NA,NA,NA,html-keyboard-response,75,427395,0.0-41.0-0.0,anomymised,6564584152624795c40b73cb,65645f5fe24fe6d9214ba3ba,52859,1A,woman,NA,null,NAME1 and NAME2 are fighting with each other,fight_conjoined,sentence,NA,NA,NA,NA,NA
5355.5,NA,NA,NA,NA,survey-likert-extra-labels,76,432753,0.0-41.0-1.0,anomymised,6564584152624795c40b73cb,65645f5fe24fe6d9214ba3ba,52859,1A,woman,NA,NA,Somebody says<br><em>Luke and Kate are fighting with each other</em>,fight_conjoined,rating_volition,"{""Q0"":3}",[0],The speaker identifies more with <br>Luke than Kate,The speaker identifies more with<br>Kate than Luke,left_to_right
null,Somebody says<br><em>Dave and Fred are shouting at each other</em>,NA,NA,NA,html-keyboard-response,77,434765,0.0-42.0-0.0,anomymised,6564584152624795c40b73cb,65645f5fe24fe6d9214ba3ba,52859,1A,woman,NA,null,NAME1 and NAME2 are shouting at each other,shout_conjoined,sentence,NA,NA,NA,NA,NA
4500.299999982119,NA,NA,NA,NA,survey-likert-extra-labels,78,439267,0.0-42.0-1.0,anomymised,6564584152624795c40b73cb,65645f5fe24fe6d9214ba3ba,52859,1A,woman,NA,NA,Somebody says<br><em>Dave and Fred are shouting at each other</em>,shout_conjoined,rating_volition,"{""Q0"":3}",[0],The speaker identifies more with <br>Fred than Dave,The speaker identifies more with<br>Dave than Fred,right_to_left
null,Somebody says<br><em>Dave is opposing Mike</em>,NA,NA,NA,html-keyboard-response,79,441276,0.0-43.0-0.0,anomymised,6564584152624795c40b73cb,65645f5fe24fe6d9214ba3ba,52859,1A,woman,NA,null,NAME1 is opposing NAME2,oppose_active,sentence,NA,NA,NA,NA,NA
5344.699999988079,NA,NA,NA,NA,survey-likert-extra-labels,80,446623,0.0-43.0-1.0,anomymised,6564584152624795c40b73cb,65645f5fe24fe6d9214ba3ba,52859,1A,woman,NA,NA,Somebody says<br><em>Dave is opposing Mike</em>,oppose_active,rating_volition,"{""Q0"":1}",[0],The speaker identifies more with <br>Dave than Mike,The speaker identifies more with<br>Mike than Dave,left_to_right
null,Somebody says<br><em>Kate and Beth are hugging each other</em>,NA,NA,NA,html-keyboard-response,81,448634,0.0-44.0-0.0,anomymised,6564584152624795c40b73cb,65645f5fe24fe6d9214ba3ba,52859,1A,woman,NA,null,NAME1 and NAME2 are hugging each other,hug_conjoined,sentence,NA,NA,NA,NA,NA
2091.699999988079,NA,NA,NA,NA,survey-likert-extra-labels,82,450727,0.0-44.0-1.0,anomymised,6564584152624795c40b73cb,65645f5fe24fe6d9214ba3ba,52859,1A,woman,NA,NA,Somebody says<br><em>Kate and Beth are hugging each other</em>,hug_conjoined,rating_volition,"{""Q0"":3}",[0],The speaker identifies more with <br>Kate than Beth,The speaker identifies more with<br>Beth than Kate,left_to_right
null,Somebody says<br><em>Kate is greeting Dave</em>,NA,NA,NA,html-keyboard-response,83,452743,0.0-45.0-0.0,anomymised,6564584152624795c40b73cb,65645f5fe24fe6d9214ba3ba,52859,1A,woman,NA,null,NAME1 is greeting NAME2,greet_active,sentence,NA,NA,NA,NA,NA
6370.9000000059605,NA,NA,NA,NA,survey-likert-extra-labels,84,459115,0.0-45.0-1.0,anomymised,6564584152624795c40b73cb,65645f5fe24fe6d9214ba3ba,52859,1A,woman,NA,NA,Somebody says<br><em>Kate is greeting Dave</em>,greet_active,rating_volition,"{""Q0"":1}",[0],The speaker identifies more with <br>Kate than Dave,The speaker identifies more with<br>Dave than Kate,left_to_right
null,Somebody says<br><em>Dave is challenging Mike</em>,NA,NA,NA,html-keyboard-response,85,461120,0.0-46.0-0.0,anomymised,6564584152624795c40b73cb,65645f5fe24fe6d9214ba3ba,52859,1A,woman,NA,null,NAME1 is challenging NAME2,challenge_active,sentence,NA,NA,NA,NA,NA
5179.5,NA,NA,NA,NA,survey-likert-extra-labels,86,466300,0.0-46.0-1.0,anomymised,6564584152624795c40b73cb,65645f5fe24fe6d9214ba3ba,52859,1A,woman,NA,NA,Somebody says<br><em>Dave is challenging Mike</em>,challenge_active,rating_volition,"{""Q0"":1}",[0],The speaker identifies more with <br>Dave than Mike,The speaker identifies more with<br>Mike than Dave,left_to_right
null,Somebody says<br><em>Beth is being shouted at by Dave</em>,NA,NA,NA,html-keyboard-response,87,468304,0.0-47.0-0.0,anomymised,6564584152624795c40b73cb,65645f5fe24fe6d9214ba3ba,52859,1A,woman,NA,null,NAME1 is being shouted at by NAME2,shout_passive,sentence,NA,NA,NA,NA,NA
4751.0999999940395,NA,NA,NA,NA,survey-likert-extra-labels,88,473057,0.0-47.0-1.0,anomymised,6564584152624795c40b73cb,65645f5fe24fe6d9214ba3ba,52859,1A,woman,NA,NA,Somebody says<br><em>Beth is being shouted at by Dave</em>,shout_passive,rating_volition,"{""Q0"":5}",[0],The speaker identifies more with <br>Dave than Beth,The speaker identifies more with<br>Beth than Dave,right_to_left
null,Somebody says<br><em>Luke is driving Fred,NA,NA,NA,html-keyboard-response,89,475069,0.0-48.0-0.0,anomymised,6564584152624795c40b73cb,65645f5fe24fe6d9214ba3ba,52859,1A,woman,NA,null,M1 is driving M3,drive,sentence,NA,NA,NA,NA,NA
10144.700000017881,NA,NA,NA,NA,survey-likert-extra-labels,90,485215,0.0-48.0-1.0,anomymised,6564584152624795c40b73cb,65645f5fe24fe6d9214ba3ba,52859,1A,woman,NA,NA,Somebody says<br><em>Luke is driving Fred,drive,rating_volition,"{""Q0"":6}",[0],Luke is Fred's passenger,Fred is Luke's passenger,NA
null,Somebody says<br><em>Ruth is chasing Kate,NA,NA,NA,html-keyboard-response,91,487228,0.0-49.0-0.0,anomymised,6564584152624795c40b73cb,65645f5fe24fe6d9214ba3ba,52859,1A,woman,NA,null,W1 is chasing W3,chase,sentence,NA,NA,NA,NA,NA
8271.200000017881,NA,NA,NA,NA,survey-likert-extra-labels,92,495500,0.0-49.0-1.0,anomymised,6564584152624795c40b73cb,65645f5fe24fe6d9214ba3ba,52859,1A,woman,NA,NA,Somebody says<br><em>Ruth is chasing Kate,chase,rating_volition,"{""Q0"":0}",[0],Ruth is behind Kate,Kate is behind Ruth,NA
null,Somebody says<br><em>Beth and Jane are talking with each other</em>,NA,NA,NA,html-keyboard-response,93,497514,0.0-50.0-0.0,anomymised,6564584152624795c40b73cb,65645f5fe24fe6d9214ba3ba,52859,1A,woman,NA,null,NAME1 and NAME2 are talking with each other,talk_conjoined,sentence,NA,NA,NA,NA,NA
3213.7999999821186,NA,NA,NA,NA,survey-likert-extra-labels,94,500729,0.0-50.0-1.0,anomymised,6564584152624795c40b73cb,65645f5fe24fe6d9214ba3ba,52859,1A,woman,NA,NA,Somebody says<br><em>Beth and Jane are talking with each other</em>,talk_conjoined,rating_volition,"{""Q0"":3}",[0],The speaker identifies more with <br>Beth than Jane,The speaker identifies more with<br>Jane than Beth,left_to_right
null,Somebody says<br><em>Jane and Beth are flirting with each other</em>,NA,NA,NA,html-keyboard-response,95,502744,0.0-51.0-0.0,anomymised,6564584152624795c40b73cb,65645f5fe24fe6d9214ba3ba,52859,1A,woman,NA,null,NAME1 and NAME2 are flirting with each other,flirt_conjoined,sentence,NA,NA,NA,NA,NA
2658.300000011921,NA,NA,NA,NA,survey-likert-extra-labels,96,505403,0.0-51.0-1.0,anomymised,6564584152624795c40b73cb,65645f5fe24fe6d9214ba3ba,52859,1A,woman,NA,NA,Somebody says<br><em>Jane and Beth are flirting with each other</em>,flirt_conjoined,rating_volition,"{""Q0"":3}",[0],The speaker identifies more with <br>Jane than Beth,The speaker identifies more with<br>Beth than Jane,left_to_right
null,Somebody says<br><em>Luke is playing with Ruth</em>,NA,NA,NA,html-keyboard-response,97,507410,0.0-52.0-0.0,anomymised,6564584152624795c40b73cb,65645f5fe24fe6d9214ba3ba,52859,1A,woman,NA,null,NAME1 is playing with NAME2,play_active,sentence,NA,NA,NA,NA,NA
5413.300000011921,NA,NA,NA,NA,survey-likert-extra-labels,98,512824,0.0-52.0-1.0,anomymised,6564584152624795c40b73cb,65645f5fe24fe6d9214ba3ba,52859,1A,woman,NA,NA,Somebody says<br><em>Luke is playing with Ruth</em>,play_active,rating_volition,"{""Q0"":5}",[0],The speaker identifies more with <br>Ruth than Luke,The speaker identifies more with<br>Luke than Ruth,right_to_left
null,Somebody says<br><em>Luke is being hugged by Jane</em>,NA,NA,NA,html-keyboard-response,99,514837,0.0-53.0-0.0,anomymised,6564584152624795c40b73cb,65645f5fe24fe6d9214ba3ba,52859,1A,woman,NA,null,NAME1 is being hugged by NAME2,hug_passive,sentence,NA,NA,NA,NA,NA
4342.5,NA,NA,NA,NA,survey-likert-extra-labels,100,519181,0.0-53.0-1.0,anomymised,6564584152624795c40b73cb,65645f5fe24fe6d9214ba3ba,52859,1A,woman,NA,NA,Somebody says<br><em>Luke is being hugged by Jane</em>,hug_passive,rating_volition,"{""Q0"":5}",[0],The speaker identifies more with <br>Jane than Luke,The speaker identifies more with<br>Luke than Jane,right_to_left
null,Somebody says<br><em>Jane is carrying Beth,NA,NA,NA,html-keyboard-response,101,521196,0.0-54.0-0.0,anomymised,6564584152624795c40b73cb,65645f5fe24fe6d9214ba3ba,52859,1A,woman,NA,null,W2 is carrying W4,carry,sentence,NA,NA,NA,NA,NA
4468.9000000059605,NA,NA,NA,NA,survey-likert-extra-labels,102,525667,0.0-54.0-1.0,anomymised,6564584152624795c40b73cb,65645f5fe24fe6d9214ba3ba,52859,1A,woman,NA,NA,Somebody says<br><em>Jane is carrying Beth,carry,rating_volition,"{""Q0"":0}",[0],Jane is transporting Beth,Beth is transporting Jane,NA
null,Somebody says<br><em>Dave is looking at Fred</em>,NA,NA,NA,html-keyboard-response,103,527678,0.0-55.0-0.0,anomymised,6564584152624795c40b73cb,65645f5fe24fe6d9214ba3ba,52859,1A,woman,NA,null,NAME1 is looking at NAME2,look_active,sentence,NA,NA,NA,NA,NA
5101.199999988079,NA,NA,NA,NA,survey-likert-extra-labels,104,532781,0.0-55.0-1.0,anomymised,6564584152624795c40b73cb,65645f5fe24fe6d9214ba3ba,52859,1A,woman,NA,NA,Somebody says<br><em>Dave is looking at Fred</em>,look_active,rating_volition,"{""Q0"":5}",[0],The speaker identifies more with <br>Fred than Dave,The speaker identifies more with<br>Dave than Fred,right_to_left
2487.800000011921,<p>Thank you for completing that task.</p><p>The final part of this session is a short questionnaire.</p><p>Press Continue.</p>,0,Continue,Continue,html-button-response,105,535271,0.0-56.0,anomymised,6564584152624795c40b73cb,65645f5fe24fe6d9214ba3ba,52859,1A,woman,NA,NA,NA,NA,NA,NA,NA,NA,NA,NA
21703.90000000596,NA,NA,NA,NA,survey-text,106,557981,0.0-57.0,anomymised,6564584152624795c40b73cb,65645f5fe24fe6d9214ba3ba,52859,1A,woman,NA,NA,NA,NA,demographics,"{""Q0"":""66"",""Q1"":""English"",""Q2"":""English"",""Q3"":""England"",""Q4"":""British"",""Q5"":""White"",""Q6"":""Female""}",NA,NA,NA,NA
3465.4000000059605,<p>This is the last question - thank you for taking part! Have you lived in the UK for the last 5 years or more?</p>,0,"Yes,No",Yes,html-button-response,107,561448,0.0-58.0,anomymised,6564584152624795c40b73cb,65645f5fe24fe6d9214ba3ba,52859,1A,woman,NA,NA,NA,NA,fiveyears,NA,NA,NA,NA,NA
