rt,stimulus,button_pressed,choices,ChosenStimulus,trial_type,trial_index,time_elapsed,internal_node_id,subject_id,study_id,session_id,subject,list,ppt_gender,url,key_press,sentence_type,verb,test_part,responses,question_order,left_part,right_part,name_order
1403.6000000000931,Welcome to the experiment. Press Continue to begin.,0,Continue,Continue,html-button-response,0,1406,0.0-0.0,anomymised,6564584152624795c40b73cb,65645ec0ed777f0b06ae7311,54634,1A,woman,NA,NA,NA,NA,NA,NA,NA,NA,NA,NA
3545.3000000000466,NA,NA,NA,NA,external-html,1,6309,0.0-1.0,anomymised,6564584152624795c40b73cb,65645ec0ed777f0b06ae7311,54634,1A,woman,consent.html,NA,NA,NA,NA,NA,NA,NA,NA,NA
23662.399999999907,"<p>Welcome.</p><p>In this experiment we will ask you to imagine people's motivations for saying sentences.</p><p>Each trial will begin with a sentence that somebody might say to describe an event involving two different people.</p><p>For instance, someone might say <em>Harry is being recruited by Molly</em></p><p>We want you to think about which of those two people (Molly and Harry) the speaker identifies more with. For instance, why did the speaker say <em>Harry is being recruited by Molly</em> rather than <em> Molly is recruiting Harry</em>? Might that mean that the speaker is socially closer to one of the two characters?</p><p>After you have read the sentence, you will rate on a scale which of the two characters the speaker identifies more with.</p><p>You will give your answer by clicking a button on a rating scale.</p><p>Sometimes there will also be catch questions designed to make sure that you are paying attention, which ask about a different topic.</p><p>To do this task, you will have to use your imagination to think about and visualise the events, and how the speaker might relate to the characters.</p><br><p>Ready?</p>",0,Continue,Continue,html-button-response,2,29973,0.0-2.0,anomymised,6564584152624795c40b73cb,65645ec0ed777f0b06ae7311,54634,1A,woman,NA,NA,NA,NA,NA,NA,NA,NA,NA,NA
1922.1999999999534,"<p>Before the experiment starts, we will show you an example of how you will answer the questions. Press 'Continue'.</p>",0,Continue,Continue,html-button-response,3,32909,0.0-3.0,anomymised,6564584152624795c40b73cb,65645ec0ed777f0b06ae7311,54634,1A,woman,NA,NA,NA,NA,NA,NA,NA,NA,NA,NA
null,Somebody says <br><em>Samuel is dining with Frank</em>,NA,NA,NA,html-keyboard-response,4,35947,0.0-4.0,anomymised,6564584152624795c40b73cb,65645ec0ed777f0b06ae7311,54634,1A,woman,NA,null,NA,NA,NA,NA,NA,NA,NA,NA
8448.300000000047,<img src='img/Example-trial.jpg' style='height:550px;''></img>,0,Continue,Continue,html-button-response,5,44397,0.0-5.0,anomymised,6564584152624795c40b73cb,65645ec0ed777f0b06ae7311,54634,1A,woman,NA,NA,NA,NA,NA,NA,NA,NA,NA,NA
1964.5,<p>Ready to start the experiment?</p><br><p><strong>Remember to give an answer by clicking a button on the rating scale.</strong></p><p>Press 'Continue' to begin.</p>,0,Continue,Continue,html-button-response,6,47381,0.0-6.0,anomymised,6564584152624795c40b73cb,65645ec0ed777f0b06ae7311,54634,1A,woman,NA,NA,NA,NA,NA,NA,NA,NA,NA,NA
null,Somebody says<br><em>Beth and Dave are kissing each other</em>,NA,NA,NA,html-keyboard-response,7,50404,0.0-7.0-0.0,anomymised,6564584152624795c40b73cb,65645ec0ed777f0b06ae7311,54634,1A,woman,NA,null,NAME1 and NAME2 are kissing each other,kiss_conjoined,sentence,NA,NA,NA,NA,NA
7143.40000000014,NA,NA,NA,NA,survey-likert-extra-labels,8,57549,0.0-7.0-1.0,anomymised,6564584152624795c40b73cb,65645ec0ed777f0b06ae7311,54634,1A,woman,NA,NA,Somebody says<br><em>Beth and Dave are kissing each other</em>,kiss_conjoined,rating_volition,"{""Q0"":3}",[0],The speaker identifies more with <br>Beth than Dave,The speaker identifies more with<br>Dave than Beth,left_to_right
null,Somebody says<br><em>Dave is looking at Luke</em>,NA,NA,NA,html-keyboard-response,9,59568,0.0-8.0-0.0,anomymised,6564584152624795c40b73cb,65645ec0ed777f0b06ae7311,54634,1A,woman,NA,null,NAME1 is looking at NAME2,look_active,sentence,NA,NA,NA,NA,NA
3530.7000000001863,NA,NA,NA,NA,survey-likert-extra-labels,10,63102,0.0-8.0-1.0,anomymised,6564584152624795c40b73cb,65645ec0ed777f0b06ae7311,54634,1A,woman,NA,NA,Somebody says<br><em>Dave is looking at Luke</em>,look_active,rating_volition,"{""Q0"":5}",[0],The speaker identifies more with <br>Luke than Dave,The speaker identifies more with<br>Dave than Luke,right_to_left
null,Somebody says<br><em>Beth is copying Mike</em>,NA,NA,NA,html-keyboard-response,11,65118,0.0-9.0-0.0,anomymised,6564584152624795c40b73cb,65645ec0ed777f0b06ae7311,54634,1A,woman,NA,null,NAME1 is copying NAME2,copy_active,sentence,NA,NA,NA,NA,NA
8037.300000000047,NA,NA,NA,NA,survey-likert-extra-labels,12,73157,0.0-9.0-1.0,anomymised,6564584152624795c40b73cb,65645ec0ed777f0b06ae7311,54634,1A,woman,NA,NA,Somebody says<br><em>Beth is copying Mike</em>,copy_active,rating_volition,"{""Q0"":2}",[0],The speaker identifies more with <br>Beth than Mike,The speaker identifies more with<br>Mike than Beth,left_to_right
null,Somebody says<br><em>Beth is meeting Kate</em>,NA,NA,NA,html-keyboard-response,13,75178,0.0-10.0-0.0,anomymised,6564584152624795c40b73cb,65645ec0ed777f0b06ae7311,54634,1A,woman,NA,null,NAME1 is meeting NAME2,meet_active,sentence,NA,NA,NA,NA,NA
2649.6999999999534,NA,NA,NA,NA,survey-likert-extra-labels,14,77830,0.0-10.0-1.0,anomymised,6564584152624795c40b73cb,65645ec0ed777f0b06ae7311,54634,1A,woman,NA,NA,Somebody says<br><em>Beth is meeting Kate</em>,meet_active,rating_volition,"{""Q0"":5}",[0],The speaker identifies more with <br>Kate than Beth,The speaker identifies more with<br>Beth than Kate,right_to_left
null,Somebody says<br><em>Mike is being touched by Ruth</em>,NA,NA,NA,html-keyboard-response,15,79838,0.0-11.0-0.0,anomymised,6564584152624795c40b73cb,65645ec0ed777f0b06ae7311,54634,1A,woman,NA,null,NAME1 is being touched by NAME2,touch_passive,sentence,NA,NA,NA,NA,NA
3390.5,NA,NA,NA,NA,survey-likert-extra-labels,16,83229,0.0-11.0-1.0,anomymised,6564584152624795c40b73cb,65645ec0ed777f0b06ae7311,54634,1A,woman,NA,NA,Somebody says<br><em>Mike is being touched by Ruth</em>,touch_passive,rating_volition,"{""Q0"":1}",[0],The speaker identifies more with <br>Mike than Ruth,The speaker identifies more with<br>Ruth than Mike,left_to_right
null,Somebody says<br><em>Jane is carrying Beth,NA,NA,NA,html-keyboard-response,17,85231,0.0-12.0-0.0,anomymised,6564584152624795c40b73cb,65645ec0ed777f0b06ae7311,54634,1A,woman,NA,null,W2 is carrying W4,carry,sentence,NA,NA,NA,NA,NA
23628.300000000047,NA,NA,NA,NA,survey-likert-extra-labels,18,108861,0.0-12.0-1.0,anomymised,6564584152624795c40b73cb,65645ec0ed777f0b06ae7311,54634,1A,woman,NA,NA,Somebody says<br><em>Jane is carrying Beth,carry,rating_volition,"{""Q0"":2}",[0],Jane is transporting Beth,Beth is transporting Jane,NA
null,Somebody says<br><em>Jane is being seduced by Kate</em>,NA,NA,NA,html-keyboard-response,19,110878,0.0-13.0-0.0,anomymised,6564584152624795c40b73cb,65645ec0ed777f0b06ae7311,54634,1A,woman,NA,null,NAME1 is being seduced by NAME2,seduce_passive,sentence,NA,NA,NA,NA,NA
5557.800000000047,NA,NA,NA,NA,survey-likert-extra-labels,20,116437,0.0-13.0-1.0,anomymised,6564584152624795c40b73cb,65645ec0ed777f0b06ae7311,54634,1A,woman,NA,NA,Somebody says<br><em>Jane is being seduced by Kate</em>,seduce_passive,rating_volition,"{""Q0"":4}",[0],The speaker identifies more with <br>Kate than Jane,The speaker identifies more with<br>Jane than Kate,right_to_left
null,Somebody says<br><em>Dave and Ruth are marrying each other</em>,NA,NA,NA,html-keyboard-response,21,118444,0.0-14.0-0.0,anomymised,6564584152624795c40b73cb,65645ec0ed777f0b06ae7311,54634,1A,woman,NA,null,NAME1 and NAME2 are marrying each other,marry_conjoined,sentence,NA,NA,NA,NA,NA
6222.100000000093,NA,NA,NA,NA,survey-likert-extra-labels,22,124668,0.0-14.0-1.0,anomymised,6564584152624795c40b73cb,65645ec0ed777f0b06ae7311,54634,1A,woman,NA,NA,Somebody says<br><em>Dave and Ruth are marrying each other</em>,marry_conjoined,rating_volition,"{""Q0"":3}",[0],The speaker identifies more with <br>Ruth than Dave,The speaker identifies more with<br>Dave than Ruth,right_to_left
null,Somebody says<br><em>Jane is being challenged by Ruth</em>,NA,NA,NA,html-keyboard-response,23,126688,0.0-15.0-0.0,anomymised,6564584152624795c40b73cb,65645ec0ed777f0b06ae7311,54634,1A,woman,NA,null,NAME1 is being challenged by NAME2,challenge_passive,sentence,NA,NA,NA,NA,NA
11690.800000000047,NA,NA,NA,NA,survey-likert-extra-labels,24,138381,0.0-15.0-1.0,anomymised,6564584152624795c40b73cb,65645ec0ed777f0b06ae7311,54634,1A,woman,NA,NA,Somebody says<br><em>Jane is being challenged by Ruth</em>,challenge_passive,rating_volition,"{""Q0"":4}",[0],The speaker identifies more with <br>Ruth than Jane,The speaker identifies more with<br>Jane than Ruth,right_to_left
null,Somebody says<br><em>Fred and Beth are talking with each other</em>,NA,NA,NA,html-keyboard-response,25,140383,0.0-16.0-0.0,anomymised,6564584152624795c40b73cb,65645ec0ed777f0b06ae7311,54634,1A,woman,NA,null,NAME1 and NAME2 are talking with each other,talk_conjoined,sentence,NA,NA,NA,NA,NA
1181.0999999998603,NA,NA,NA,NA,survey-likert-extra-labels,26,141565,0.0-16.0-1.0,anomymised,6564584152624795c40b73cb,65645ec0ed777f0b06ae7311,54634,1A,woman,NA,NA,Somebody says<br><em>Fred and Beth are talking with each other</em>,talk_conjoined,rating_volition,"{""Q0"":3}",[0],The speaker identifies more with <br>Beth than Fred,The speaker identifies more with<br>Fred than Beth,right_to_left
null,Somebody says<br><em>Dave and Mike are hugging each other</em>,NA,NA,NA,html-keyboard-response,27,143576,0.0-17.0-0.0,anomymised,6564584152624795c40b73cb,65645ec0ed777f0b06ae7311,54634,1A,woman,NA,null,NAME1 and NAME2 are hugging each other,hug_conjoined,sentence,NA,NA,NA,NA,NA
1570.5,NA,NA,NA,NA,survey-likert-extra-labels,28,145149,0.0-17.0-1.0,anomymised,6564584152624795c40b73cb,65645ec0ed777f0b06ae7311,54634,1A,woman,NA,NA,Somebody says<br><em>Dave and Mike are hugging each other</em>,hug_conjoined,rating_volition,"{""Q0"":3}",[0],The speaker identifies more with <br>Mike than Dave,The speaker identifies more with<br>Dave than Mike,right_to_left
null,Somebody says<br><em>Fred is challenging Ruth</em>,NA,NA,NA,html-keyboard-response,29,147167,0.0-18.0-0.0,anomymised,6564584152624795c40b73cb,65645ec0ed777f0b06ae7311,54634,1A,woman,NA,null,NAME1 is challenging NAME2,challenge_active,sentence,NA,NA,NA,NA,NA
2627.899999999907,NA,NA,NA,NA,survey-likert-extra-labels,30,149797,0.0-18.0-1.0,anomymised,6564584152624795c40b73cb,65645ec0ed777f0b06ae7311,54634,1A,woman,NA,NA,Somebody says<br><em>Fred is challenging Ruth</em>,challenge_active,rating_volition,"{""Q0"":2}",[0],The speaker identifies more with <br>Fred than Ruth,The speaker identifies more with<br>Ruth than Fred,left_to_right
null,Somebody says<br><em>Beth is arguing with Jane</em>,NA,NA,NA,html-keyboard-response,31,151807,0.0-19.0-0.0,anomymised,6564584152624795c40b73cb,65645ec0ed777f0b06ae7311,54634,1A,woman,NA,null,NAME1 is arguing with NAME2,argue_active,sentence,NA,NA,NA,NA,NA
2691.3000000000466,NA,NA,NA,NA,survey-likert-extra-labels,32,154501,0.0-19.0-1.0,anomymised,6564584152624795c40b73cb,65645ec0ed777f0b06ae7311,54634,1A,woman,NA,NA,Somebody says<br><em>Beth is arguing with Jane</em>,argue_active,rating_volition,"{""Q0"":2}",[0],The speaker identifies more with <br>Beth than Jane,The speaker identifies more with<br>Jane than Beth,left_to_right
null,Somebody says<br><em>Luke is driving Fred,NA,NA,NA,html-keyboard-response,33,156508,0.0-20.0-0.0,anomymised,6564584152624795c40b73cb,65645ec0ed777f0b06ae7311,54634,1A,woman,NA,null,M1 is driving M3,drive,sentence,NA,NA,NA,NA,NA
5734.200000000186,NA,NA,NA,NA,survey-likert-extra-labels,34,162244,0.0-20.0-1.0,anomymised,6564584152624795c40b73cb,65645ec0ed777f0b06ae7311,54634,1A,woman,NA,NA,Somebody says<br><em>Luke is driving Fred,drive,rating_volition,"{""Q0"":6}",[0],Luke is Fred's passenger,Fred is Luke's passenger,NA
null,Somebody says<br><em>Fred is talking to Kate</em>,NA,NA,NA,html-keyboard-response,35,164257,0.0-21.0-0.0,anomymised,6564584152624795c40b73cb,65645ec0ed777f0b06ae7311,54634,1A,woman,NA,null,NAME1 is talking to NAME2,talk_active,sentence,NA,NA,NA,NA,NA
16890,NA,NA,NA,NA,survey-likert-extra-labels,36,181150,0.0-21.0-1.0,anomymised,6564584152624795c40b73cb,65645ec0ed777f0b06ae7311,54634,1A,woman,NA,NA,Somebody says<br><em>Fred is talking to Kate</em>,talk_active,rating_volition,"{""Q0"":1}",[0],The speaker identifies more with <br>Fred than Kate,The speaker identifies more with<br>Kate than Fred,left_to_right
null,Somebody says<br><em>Ruth is flirting with Dave</em>,NA,NA,NA,html-keyboard-response,37,183907,0.0-22.0-0.0,anomymised,6564584152624795c40b73cb,65645ec0ed777f0b06ae7311,54634,1A,woman,NA,null,NAME1 is flirting with NAME2,flirt_active,sentence,NA,NA,NA,NA,NA
11008.600000000093,NA,NA,NA,NA,survey-likert-extra-labels,38,194917,0.0-22.0-1.0,anomymised,6564584152624795c40b73cb,65645ec0ed777f0b06ae7311,54634,1A,woman,NA,NA,Somebody says<br><em>Ruth is flirting with Dave</em>,flirt_active,rating_volition,"{""Q0"":4}",[0],The speaker identifies more with <br>Dave than Ruth,The speaker identifies more with<br>Ruth than Dave,right_to_left
null,Somebody says<br><em>Luke is fighting with Kate</em>,NA,NA,NA,html-keyboard-response,39,196922,0.0-23.0-0.0,anomymised,6564584152624795c40b73cb,65645ec0ed777f0b06ae7311,54634,1A,woman,NA,null,NAME1 is fighting with NAME2,fight_active,sentence,NA,NA,NA,NA,NA
1824.3999999999069,NA,NA,NA,NA,survey-likert-extra-labels,40,198749,0.0-23.0-1.0,anomymised,6564584152624795c40b73cb,65645ec0ed777f0b06ae7311,54634,1A,woman,NA,NA,Somebody says<br><em>Luke is fighting with Kate</em>,fight_active,rating_volition,"{""Q0"":1}",[0],The speaker identifies more with <br>Luke than Kate,The speaker identifies more with<br>Kate than Luke,left_to_right
null,Somebody says<br><em>Jane is teaching Dave,NA,NA,NA,html-keyboard-response,41,200767,0.0-24.0-0.0,anomymised,6564584152624795c40b73cb,65645ec0ed777f0b06ae7311,54634,1A,woman,NA,null,W2 is teaching M4,teach,sentence,NA,NA,NA,NA,NA
5867.5,NA,NA,NA,NA,survey-likert-extra-labels,42,206637,0.0-24.0-1.0,anomymised,6564584152624795c40b73cb,65645ec0ed777f0b06ae7311,54634,1A,woman,NA,NA,Somebody says<br><em>Jane is teaching Dave,teach,rating_volition,"{""Q0"":0}",[0],Jane is educating Dave,Dave is educating Jane,NA
null,Somebody says<br><em>Luke is opposing Jane</em>,NA,NA,NA,html-keyboard-response,43,208639,0.0-25.0-0.0,anomymised,6564584152624795c40b73cb,65645ec0ed777f0b06ae7311,54634,1A,woman,NA,null,NAME1 is opposing NAME2,oppose_active,sentence,NA,NA,NA,NA,NA
31611.399999999907,NA,NA,NA,NA,survey-likert-extra-labels,44,240252,0.0-25.0-1.0,anomymised,6564584152624795c40b73cb,65645ec0ed777f0b06ae7311,54634,1A,woman,NA,NA,Somebody says<br><em>Luke is opposing Jane</em>,oppose_active,rating_volition,"{""Q0"":1}",[0],The speaker identifies more with <br>Luke than Jane,The speaker identifies more with<br>Jane than Luke,left_to_right
null,Somebody says<br><em>Jane is seducing Dave</em>,NA,NA,NA,html-keyboard-response,45,242257,0.0-26.0-0.0,anomymised,6564584152624795c40b73cb,65645ec0ed777f0b06ae7311,54634,1A,woman,NA,null,NAME1 is seducing NAME2,seduce_active,sentence,NA,NA,NA,NA,NA
3105.8000000000466,NA,NA,NA,NA,survey-likert-extra-labels,46,245365,0.0-26.0-1.0,anomymised,6564584152624795c40b73cb,65645ec0ed777f0b06ae7311,54634,1A,woman,NA,NA,Somebody says<br><em>Jane is seducing Dave</em>,seduce_active,rating_volition,"{""Q0"":1}",[0],The speaker identifies more with <br>Jane than Dave,The speaker identifies more with<br>Dave than Jane,left_to_right
null,Somebody says<br><em>Jane and Kate are playing with each other</em>,NA,NA,NA,html-keyboard-response,47,247367,0.0-27.0-0.0,anomymised,6564584152624795c40b73cb,65645ec0ed777f0b06ae7311,54634,1A,woman,NA,null,NAME1 and NAME2 are playing with each other,play_conjoined,sentence,NA,NA,NA,NA,NA
1148.5,NA,NA,NA,NA,survey-likert-extra-labels,48,248517,0.0-27.0-1.0,anomymised,6564584152624795c40b73cb,65645ec0ed777f0b06ae7311,54634,1A,woman,NA,NA,Somebody says<br><em>Jane and Kate are playing with each other</em>,play_conjoined,rating_volition,"{""Q0"":3}",[0],The speaker identifies more with <br>Jane than Kate,The speaker identifies more with<br>Kate than Jane,left_to_right
null,Somebody says<br><em>Jane is dancing with Ruth</em>,NA,NA,NA,html-keyboard-response,49,250533,0.0-28.0-0.0,anomymised,6564584152624795c40b73cb,65645ec0ed777f0b06ae7311,54634,1A,woman,NA,null,NAME1 is dancing with NAME2,dance_active,sentence,NA,NA,NA,NA,NA
1844.6999999999534,NA,NA,NA,NA,survey-likert-extra-labels,50,252380,0.0-28.0-1.0,anomymised,6564584152624795c40b73cb,65645ec0ed777f0b06ae7311,54634,1A,woman,NA,NA,Somebody says<br><em>Jane is dancing with Ruth</em>,dance_active,rating_volition,"{""Q0"":5}",[0],The speaker identifies more with <br>Ruth than Jane,The speaker identifies more with<br>Jane than Ruth,right_to_left
null,Somebody says<br><em>Kate is being shouted at by Luke</em>,NA,NA,NA,html-keyboard-response,51,254397,0.0-29.0-0.0,anomymised,6564584152624795c40b73cb,65645ec0ed777f0b06ae7311,54634,1A,woman,NA,null,NAME1 is being shouted at by NAME2,shout_passive,sentence,NA,NA,NA,NA,NA
4260.300000000047,NA,NA,NA,NA,survey-likert-extra-labels,52,258660,0.0-29.0-1.0,anomymised,6564584152624795c40b73cb,65645ec0ed777f0b06ae7311,54634,1A,woman,NA,NA,Somebody says<br><em>Kate is being shouted at by Luke</em>,shout_passive,rating_volition,"{""Q0"":5}",[0],The speaker identifies more with <br>Luke than Kate,The speaker identifies more with<br>Kate than Luke,right_to_left
null,Somebody says<br><em>Kate is feeding Luke,NA,NA,NA,html-keyboard-response,53,260677,0.0-30.0-0.0,anomymised,6564584152624795c40b73cb,65645ec0ed777f0b06ae7311,54634,1A,woman,NA,null,W3 is feeding M1,feed,sentence,NA,NA,NA,NA,NA
3637.899999999907,NA,NA,NA,NA,survey-likert-extra-labels,54,264317,0.0-30.0-1.0,anomymised,6564584152624795c40b73cb,65645ec0ed777f0b06ae7311,54634,1A,woman,NA,NA,Somebody says<br><em>Kate is feeding Luke,feed,rating_volition,"{""Q0"":0}",[0],Kate cooked for Luke,Luke cooked for Kate,NA
null,Somebody says<br><em>Ruth is touching Jane</em>,NA,NA,NA,html-keyboard-response,55,266327,0.0-31.0-0.0,anomymised,6564584152624795c40b73cb,65645ec0ed777f0b06ae7311,54634,1A,woman,NA,null,NAME1 is touching NAME2,touch_active,sentence,NA,NA,NA,NA,NA
23204.100000000093,NA,NA,NA,NA,survey-likert-extra-labels,56,289532,0.0-31.0-1.0,anomymised,6564584152624795c40b73cb,65645ec0ed777f0b06ae7311,54634,1A,woman,NA,NA,Somebody says<br><em>Ruth is touching Jane</em>,touch_active,rating_volition,"{""Q0"":1}",[0],The speaker identifies more with <br>Ruth than Jane,The speaker identifies more with<br>Jane than Ruth,left_to_right
null,Somebody says<br><em>Beth is being opposed by Dave</em>,NA,NA,NA,html-keyboard-response,57,292017,0.0-32.0-0.0,anomymised,6564584152624795c40b73cb,65645ec0ed777f0b06ae7311,54634,1A,woman,NA,null,NAME1 is being opposed by NAME2,oppose_passive,sentence,NA,NA,NA,NA,NA
6344.699999999953,NA,NA,NA,NA,survey-likert-extra-labels,58,298364,0.0-32.0-1.0,anomymised,6564584152624795c40b73cb,65645ec0ed777f0b06ae7311,54634,1A,woman,NA,NA,Somebody says<br><em>Beth is being opposed by Dave</em>,oppose_passive,rating_volition,"{""Q0"":5}",[0],The speaker identifies more with <br>Dave than Beth,The speaker identifies more with<br>Beth than Dave,right_to_left
null,Somebody says<br><em>Ruth and Jane are shouting at each other</em>,NA,NA,NA,html-keyboard-response,59,300377,0.0-33.0-0.0,anomymised,6564584152624795c40b73cb,65645ec0ed777f0b06ae7311,54634,1A,woman,NA,null,NAME1 and NAME2 are shouting at each other,shout_conjoined,sentence,NA,NA,NA,NA,NA
858.1999999999534,NA,NA,NA,NA,survey-likert-extra-labels,60,301236,0.0-33.0-1.0,anomymised,6564584152624795c40b73cb,65645ec0ed777f0b06ae7311,54634,1A,woman,NA,NA,Somebody says<br><em>Ruth and Jane are shouting at each other</em>,shout_conjoined,rating_volition,"{""Q0"":3}",[0],The speaker identifies more with <br>Ruth than Jane,The speaker identifies more with<br>Jane than Ruth,left_to_right
null,Somebody says<br><em>Dave and Luke are meeting each other</em>,NA,NA,NA,html-keyboard-response,61,303257,0.0-34.0-0.0,anomymised,6564584152624795c40b73cb,65645ec0ed777f0b06ae7311,54634,1A,woman,NA,null,NAME1 and NAME2 are meeting each other,meet_conjoined,sentence,NA,NA,NA,NA,NA
1785.5,NA,NA,NA,NA,survey-likert-extra-labels,62,305045,0.0-34.0-1.0,anomymised,6564584152624795c40b73cb,65645ec0ed777f0b06ae7311,54634,1A,woman,NA,NA,Somebody says<br><em>Dave and Luke are meeting each other</em>,meet_conjoined,rating_volition,"{""Q0"":3}",[0],The speaker identifies more with <br>Dave than Luke,The speaker identifies more with<br>Luke than Dave,left_to_right
null,Somebody says<br><em>Ruth is chasing Kate,NA,NA,NA,html-keyboard-response,63,307057,0.0-35.0-0.0,anomymised,6564584152624795c40b73cb,65645ec0ed777f0b06ae7311,54634,1A,woman,NA,null,W1 is chasing W3,chase,sentence,NA,NA,NA,NA,NA
3657.7999999998137,NA,NA,NA,NA,survey-likert-extra-labels,64,310716,0.0-35.0-1.0,anomymised,6564584152624795c40b73cb,65645ec0ed777f0b06ae7311,54634,1A,woman,NA,NA,Somebody says<br><em>Ruth is chasing Kate,chase,rating_volition,"{""Q0"":0}",[0],Ruth is behind Kate,Kate is behind Ruth,NA
null,Somebody says<br><em>Jane is shouting at Dave</em>,NA,NA,NA,html-keyboard-response,65,312725,0.0-36.0-0.0,anomymised,6564584152624795c40b73cb,65645ec0ed777f0b06ae7311,54634,1A,woman,NA,null,NAME1 is shouting at NAME2,shout_active,sentence,NA,NA,NA,NA,NA
5398.200000000186,NA,NA,NA,NA,survey-likert-extra-labels,66,318124,0.0-36.0-1.0,anomymised,6564584152624795c40b73cb,65645ec0ed777f0b06ae7311,54634,1A,woman,NA,NA,Somebody says<br><em>Jane is shouting at Dave</em>,shout_active,rating_volition,"{""Q0"":5}",[0],The speaker identifies more with <br>Dave than Jane,The speaker identifies more with<br>Jane than Dave,right_to_left
null,Somebody says<br><em>Beth is kissing Ruth</em>,NA,NA,NA,html-keyboard-response,67,320142,0.0-37.0-0.0,anomymised,6564584152624795c40b73cb,65645ec0ed777f0b06ae7311,54634,1A,woman,NA,null,NAME1 is kissing NAME2,kiss_active,sentence,NA,NA,NA,NA,NA
2061.8000000000466,NA,NA,NA,NA,survey-likert-extra-labels,68,322205,0.0-37.0-1.0,anomymised,6564584152624795c40b73cb,65645ec0ed777f0b06ae7311,54634,1A,woman,NA,NA,Somebody says<br><em>Beth is kissing Ruth</em>,kiss_active,rating_volition,"{""Q0"":1}",[0],The speaker identifies more with <br>Beth than Ruth,The speaker identifies more with<br>Ruth than Beth,left_to_right
null,Somebody says<br><em>Fred is hiring Ruth,NA,NA,NA,html-keyboard-response,69,324217,0.0-38.0-0.0,anomymised,6564584152624795c40b73cb,65645ec0ed777f0b06ae7311,54634,1A,woman,NA,null,M3 is hiring W1,hire,sentence,NA,NA,NA,NA,NA
2977.899999999907,NA,NA,NA,NA,survey-likert-extra-labels,70,327197,0.0-38.0-1.0,anomymised,6564584152624795c40b73cb,65645ec0ed777f0b06ae7311,54634,1A,woman,NA,NA,Somebody says<br><em>Fred is hiring Ruth,hire,rating_volition,"{""Q0"":0}",[0],Fred is employing Ruth,Ruth is employing Fred,NA
null,Somebody says<br><em>Kate is being kissed by Mike</em>,NA,NA,NA,html-keyboard-response,71,329217,0.0-39.0-0.0,anomymised,6564584152624795c40b73cb,65645ec0ed777f0b06ae7311,54634,1A,woman,NA,null,NAME1 is being kissed by NAME2,kiss_passive,sentence,NA,NA,NA,NA,NA
2145,NA,NA,NA,NA,survey-likert-extra-labels,72,331364,0.0-39.0-1.0,anomymised,6564584152624795c40b73cb,65645ec0ed777f0b06ae7311,54634,1A,woman,NA,NA,Somebody says<br><em>Kate is being kissed by Mike</em>,kiss_passive,rating_volition,"{""Q0"":5}",[0],The speaker identifies more with <br>Mike than Kate,The speaker identifies more with<br>Kate than Mike,right_to_left
null,Somebody says<br><em>Dave and Fred are touching each other</em>,NA,NA,NA,html-keyboard-response,73,333366,0.0-40.0-0.0,anomymised,6564584152624795c40b73cb,65645ec0ed777f0b06ae7311,54634,1A,woman,NA,null,NAME1 and NAME2 are touching each other,touch_conjoined,sentence,NA,NA,NA,NA,NA
1724.5999999998603,NA,NA,NA,NA,survey-likert-extra-labels,74,335092,0.0-40.0-1.0,anomymised,6564584152624795c40b73cb,65645ec0ed777f0b06ae7311,54634,1A,woman,NA,NA,Somebody says<br><em>Dave and Fred are touching each other</em>,touch_conjoined,rating_volition,"{""Q0"":3}",[0],The speaker identifies more with <br>Dave than Fred,The speaker identifies more with<br>Fred than Dave,left_to_right
null,Somebody says<br><em>Fred and Ruth are flirting with each other</em>,NA,NA,NA,html-keyboard-response,75,337093,0.0-41.0-0.0,anomymised,6564584152624795c40b73cb,65645ec0ed777f0b06ae7311,54634,1A,woman,NA,null,NAME1 and NAME2 are flirting with each other,flirt_conjoined,sentence,NA,NA,NA,NA,NA
1533.6999999999534,NA,NA,NA,NA,survey-likert-extra-labels,76,338628,0.0-41.0-1.0,anomymised,6564584152624795c40b73cb,65645ec0ed777f0b06ae7311,54634,1A,woman,NA,NA,Somebody says<br><em>Fred and Ruth are flirting with each other</em>,flirt_conjoined,rating_volition,"{""Q0"":3}",[0],The speaker identifies more with <br>Ruth than Fred,The speaker identifies more with<br>Fred than Ruth,right_to_left
null,Somebody says<br><em>Mike is posing for Dave,NA,NA,NA,html-keyboard-response,77,340647,0.0-42.0-0.0,anomymised,6564584152624795c40b73cb,65645ec0ed777f0b06ae7311,54634,1A,woman,NA,null,M2 is posing for M4,pose,sentence,NA,NA,NA,NA,NA
3595.6999999999534,NA,NA,NA,NA,survey-likert-extra-labels,78,344243,0.0-42.0-1.0,anomymised,6564584152624795c40b73cb,65645ec0ed777f0b06ae7311,54634,1A,woman,NA,NA,Somebody says<br><em>Mike is posing for Dave,pose,rating_volition,"{""Q0"":0}",[0],Mike is modelling for Dave,Dave is modelling for Mike,NA
null,Somebody says<br><em>Dave and Ruth are dancing with each other</em>,NA,NA,NA,html-keyboard-response,79,346260,0.0-43.0-0.0,anomymised,6564584152624795c40b73cb,65645ec0ed777f0b06ae7311,54634,1A,woman,NA,null,NAME1 and NAME2 are dancing with each other,dance_conjoined,sentence,NA,NA,NA,NA,NA
1022.8000000000466,NA,NA,NA,NA,survey-likert-extra-labels,80,347284,0.0-43.0-1.0,anomymised,6564584152624795c40b73cb,65645ec0ed777f0b06ae7311,54634,1A,woman,NA,NA,Somebody says<br><em>Dave and Ruth are dancing with each other</em>,dance_conjoined,rating_volition,"{""Q0"":3}",[0],The speaker identifies more with <br>Dave than Ruth,The speaker identifies more with<br>Ruth than Dave,left_to_right
null,Somebody says<br><em>Dave is being copied by Jane</em>,NA,NA,NA,html-keyboard-response,81,349297,0.0-44.0-0.0,anomymised,6564584152624795c40b73cb,65645ec0ed777f0b06ae7311,54634,1A,woman,NA,null,NAME1 is being copied by NAME2,copy_passive,sentence,NA,NA,NA,NA,NA
3745.7999999998137,NA,NA,NA,NA,survey-likert-extra-labels,82,353045,0.0-44.0-1.0,anomymised,6564584152624795c40b73cb,65645ec0ed777f0b06ae7311,54634,1A,woman,NA,NA,Somebody says<br><em>Dave is being copied by Jane</em>,copy_passive,rating_volition,"{""Q0"":5}",[0],The speaker identifies more with <br>Jane than Dave,The speaker identifies more with<br>Dave than Jane,right_to_left
null,Somebody says<br><em>Kate is playing with Fred</em>,NA,NA,NA,html-keyboard-response,83,355062,0.0-45.0-0.0,anomymised,6564584152624795c40b73cb,65645ec0ed777f0b06ae7311,54634,1A,woman,NA,null,NAME1 is playing with NAME2,play_active,sentence,NA,NA,NA,NA,NA
1836.3000000000466,NA,NA,NA,NA,survey-likert-extra-labels,84,356901,0.0-45.0-1.0,anomymised,6564584152624795c40b73cb,65645ec0ed777f0b06ae7311,54634,1A,woman,NA,NA,Somebody says<br><em>Kate is playing with Fred</em>,play_active,rating_volition,"{""Q0"":5}",[0],The speaker identifies more with <br>Fred than Kate,The speaker identifies more with<br>Kate than Fred,right_to_left
null,Somebody says<br><em>Ruth is being hugged by Fred</em>,NA,NA,NA,html-keyboard-response,85,359031,0.0-46.0-0.0,anomymised,6564584152624795c40b73cb,65645ec0ed777f0b06ae7311,54634,1A,woman,NA,null,NAME1 is being hugged by NAME2,hug_passive,sentence,NA,NA,NA,NA,NA
8395.100000000093,NA,NA,NA,NA,survey-likert-extra-labels,86,367429,0.0-46.0-1.0,anomymised,6564584152624795c40b73cb,65645ec0ed777f0b06ae7311,54634,1A,woman,NA,NA,Somebody says<br><em>Ruth is being hugged by Fred</em>,hug_passive,rating_volition,"{""Q0"":1}",[0],The speaker identifies more with <br>Ruth than Fred,The speaker identifies more with<br>Fred than Ruth,left_to_right
null,Somebody says<br><em>Luke is being greeted by Beth</em>,NA,NA,NA,html-keyboard-response,87,369436,0.0-47.0-0.0,anomymised,6564584152624795c40b73cb,65645ec0ed777f0b06ae7311,54634,1A,woman,NA,null,NAME1 is being greeted by NAME2,greet_passive,sentence,NA,NA,NA,NA,NA
2534.6999999999534,NA,NA,NA,NA,survey-likert-extra-labels,88,371973,0.0-47.0-1.0,anomymised,6564584152624795c40b73cb,65645ec0ed777f0b06ae7311,54634,1A,woman,NA,NA,Somebody says<br><em>Luke is being greeted by Beth</em>,greet_passive,rating_volition,"{""Q0"":5}",[0],The speaker identifies more with <br>Beth than Luke,The speaker identifies more with<br>Luke than Beth,right_to_left
null,Somebody says<br><em>Fred is marrying Beth</em>,NA,NA,NA,html-keyboard-response,89,374029,0.0-48.0-0.0,anomymised,6564584152624795c40b73cb,65645ec0ed777f0b06ae7311,54634,1A,woman,NA,null,NAME1 is marrying NAME2,marry_active,sentence,NA,NA,NA,NA,NA
9198.199999999953,NA,NA,NA,NA,survey-likert-extra-labels,90,383229,0.0-48.0-1.0,anomymised,6564584152624795c40b73cb,65645ec0ed777f0b06ae7311,54634,1A,woman,NA,NA,Somebody says<br><em>Fred is marrying Beth</em>,marry_active,rating_volition,"{""Q0"":1}",[0],The speaker identifies more with <br>Fred than Beth,The speaker identifies more with<br>Beth than Fred,left_to_right
null,Somebody says<br><em>Luke is being looked at by Jane</em>,NA,NA,NA,html-keyboard-response,91,385237,0.0-49.0-0.0,anomymised,6564584152624795c40b73cb,65645ec0ed777f0b06ae7311,54634,1A,woman,NA,null,NAME1 is being looked at by NAME2,look_passive,sentence,NA,NA,NA,NA,NA
3219.8000000000466,NA,NA,NA,NA,survey-likert-extra-labels,92,388459,0.0-49.0-1.0,anomymised,6564584152624795c40b73cb,65645ec0ed777f0b06ae7311,54634,1A,woman,NA,NA,Somebody says<br><em>Luke is being looked at by Jane</em>,look_passive,rating_volition,"{""Q0"":5}",[0],The speaker identifies more with <br>Jane than Luke,The speaker identifies more with<br>Luke than Jane,right_to_left
null,Somebody says<br><em>Jane and Ruth are fighting with each other</em>,NA,NA,NA,html-keyboard-response,93,390463,0.0-50.0-0.0,anomymised,6564584152624795c40b73cb,65645ec0ed777f0b06ae7311,54634,1A,woman,NA,null,NAME1 and NAME2 are fighting with each other,fight_conjoined,sentence,NA,NA,NA,NA,NA
4981.300000000047,NA,NA,NA,NA,survey-likert-extra-labels,94,395445,0.0-50.0-1.0,anomymised,6564584152624795c40b73cb,65645ec0ed777f0b06ae7311,54634,1A,woman,NA,NA,Somebody says<br><em>Jane and Ruth are fighting with each other</em>,fight_conjoined,rating_volition,"{""Q0"":3}",[0],The speaker identifies more with <br>Ruth than Jane,The speaker identifies more with<br>Jane than Ruth,right_to_left
null,Somebody says<br><em>Mike is reminding Beth,NA,NA,NA,html-keyboard-response,95,397448,0.0-51.0-0.0,anomymised,6564584152624795c40b73cb,65645ec0ed777f0b06ae7311,54634,1A,woman,NA,null,M2 is reminding W4,remind,sentence,NA,NA,NA,NA,NA
4419.300000000047,NA,NA,NA,NA,survey-likert-extra-labels,96,401868,0.0-51.0-1.0,anomymised,6564584152624795c40b73cb,65645ec0ed777f0b06ae7311,54634,1A,woman,NA,NA,Somebody says<br><em>Mike is reminding Beth,remind,rating_volition,"{""Q0"":0}",[0],Mike is telling Beth again,Beth is telling Mike again,NA
null,Somebody says<br><em>Jane and Beth are arguing with each other</em>,NA,NA,NA,html-keyboard-response,97,403876,0.0-52.0-0.0,anomymised,6564584152624795c40b73cb,65645ec0ed777f0b06ae7311,54634,1A,woman,NA,null,NAME1 and NAME2 are arguing with each other,argue_conjoined,sentence,NA,NA,NA,NA,NA
1070.9000000001397,NA,NA,NA,NA,survey-likert-extra-labels,98,404949,0.0-52.0-1.0,anomymised,6564584152624795c40b73cb,65645ec0ed777f0b06ae7311,54634,1A,woman,NA,NA,Somebody says<br><em>Jane and Beth are arguing with each other</em>,argue_conjoined,rating_volition,"{""Q0"":3}",[0],The speaker identifies more with <br>Jane than Beth,The speaker identifies more with<br>Beth than Jane,left_to_right
null,Somebody says<br><em>Kate is shouting at Jane</em>,NA,NA,NA,html-keyboard-response,99,406965,0.0-53.0-0.0,anomymised,6564584152624795c40b73cb,65645ec0ed777f0b06ae7311,54634,1A,woman,NA,null,NAME1 is shouting at NAME2,shout_active,sentence,NA,NA,NA,NA,NA
1893,NA,NA,NA,NA,survey-likert-extra-labels,100,408860,0.0-53.0-1.0,anomymised,6564584152624795c40b73cb,65645ec0ed777f0b06ae7311,54634,1A,woman,NA,NA,Somebody says<br><em>Kate is shouting at Jane</em>,shout_active,rating_volition,"{""Q0"":5}",[0],The speaker identifies more with <br>Jane than Kate,The speaker identifies more with<br>Kate than Jane,right_to_left
null,Somebody says<br><em>Beth is greeting Luke</em>,NA,NA,NA,html-keyboard-response,101,410865,0.0-54.0-0.0,anomymised,6564584152624795c40b73cb,65645ec0ed777f0b06ae7311,54634,1A,woman,NA,null,NAME1 is greeting NAME2,greet_active,sentence,NA,NA,NA,NA,NA
3121,NA,NA,NA,NA,survey-likert-extra-labels,102,413988,0.0-54.0-1.0,anomymised,6564584152624795c40b73cb,65645ec0ed777f0b06ae7311,54634,1A,woman,NA,NA,Somebody says<br><em>Beth is greeting Luke</em>,greet_active,rating_volition,"{""Q0"":1}",[0],The speaker identifies more with <br>Beth than Luke,The speaker identifies more with<br>Luke than Beth,left_to_right
null,Somebody says<br><em>Fred is hugging Luke</em>,NA,NA,NA,html-keyboard-response,103,415990,0.0-55.0-0.0,anomymised,6564584152624795c40b73cb,65645ec0ed777f0b06ae7311,54634,1A,woman,NA,null,NAME1 is hugging NAME2,hug_active,sentence,NA,NA,NA,NA,NA
1612,NA,NA,NA,NA,survey-likert-extra-labels,104,417603,0.0-55.0-1.0,anomymised,6564584152624795c40b73cb,65645ec0ed777f0b06ae7311,54634,1A,woman,NA,NA,Somebody says<br><em>Fred is hugging Luke</em>,hug_active,rating_volition,"{""Q0"":1}",[0],The speaker identifies more with <br>Fred than Luke,The speaker identifies more with<br>Luke than Fred,left_to_right
1790.5999999998603,<p>Thank you for completing that task.</p><p>The final part of this session is a short questionnaire.</p><p>Press Continue.</p>,0,Continue,Continue,html-button-response,105,419396,0.0-56.0,anomymised,6564584152624795c40b73cb,65645ec0ed777f0b06ae7311,54634,1A,woman,NA,NA,NA,NA,NA,NA,NA,NA,NA,NA
18016.09999999986,NA,NA,NA,NA,survey-text,106,438419,0.0-57.0,anomymised,6564584152624795c40b73cb,65645ec0ed777f0b06ae7311,54634,1A,woman,NA,NA,NA,NA,demographics,"{""Q0"":""30"",""Q1"":""English"",""Q2"":""English"",""Q3"":""England"",""Q4"":""White British"",""Q5"":""Caucasian"",""Q6"":""Female""}",NA,NA,NA,NA
2215.100000000093,<p>This is the last question - thank you for taking part! Have you lived in the UK for the last 5 years or more?</p>,0,"Yes,No",Yes,html-button-response,107,440635,0.0-58.0,anomymised,6564584152624795c40b73cb,65645ec0ed777f0b06ae7311,54634,1A,woman,NA,NA,NA,NA,fiveyears,NA,NA,NA,NA,NA
