rt,stimulus,button_pressed,choices,ChosenStimulus,trial_type,trial_index,time_elapsed,internal_node_id,subject_id,study_id,session_id,subject,list,ppt_gender,url,key_press,sentence_type,verb,test_part,responses,question_order,left_part,right_part,name_order
3305.0000000000005,Welcome to the experiment. Press Continue to begin.,0,Continue,Continue,html-button-response,0,3307,0.0-0.0,anomymised,6560c4cfd080ba12b16d8282,6564c8cc9edc8715cbc46ca1,58676,1A,man,NA,NA,NA,NA,NA,NA,NA,NA,NA,NA
21178.000000000004,NA,NA,NA,NA,external-html,1,25555,0.0-1.0,anomymised,6560c4cfd080ba12b16d8282,6564c8cc9edc8715cbc46ca1,58676,1A,man,consent.html,NA,NA,NA,NA,NA,NA,NA,NA,NA
21998,"<p>Welcome.</p><p>In this experiment we will ask you to imagine people's motivations for saying sentences.</p><p>Each trial will begin with a sentence that somebody might say to describe an event involving two different people.</p><p>For instance, someone might say <em>Harry is being recruited by Molly</em></p><p>We want you to think about which of those two people (Molly and Harry) the speaker identifies more with. For instance, why did the speaker say <em>Harry is being recruited by Molly</em> rather than <em> Molly is recruiting Harry</em>? Might that mean that the speaker is socially closer to one of the two characters?</p><p>After you have read the sentence, you will rate on a scale which of the two characters the speaker identifies more with.</p><p>You will give your answer by clicking a button on a rating scale.</p><p>Sometimes there will also be catch questions designed to make sure that you are paying attention, which ask about a different topic.</p><p>To do this task, you will have to use your imagination to think about and visualise the events, and how the speaker might relate to the characters.</p><br><p>Ready?</p>",0,Continue,Continue,html-button-response,2,47555,0.0-2.0,anomymised,6560c4cfd080ba12b16d8282,6564c8cc9edc8715cbc46ca1,58676,1A,man,NA,NA,NA,NA,NA,NA,NA,NA,NA,NA
3048,"<p>Before the experiment starts, we will show you an example of how you will answer the questions. Press 'Continue'.</p>",0,Continue,Continue,html-button-response,3,51605,0.0-3.0,anomymised,6560c4cfd080ba12b16d8282,6564c8cc9edc8715cbc46ca1,58676,1A,man,NA,NA,NA,NA,NA,NA,NA,NA,NA,NA
null,Somebody says <br><em>Samuel is dining with Frank</em>,NA,NA,NA,html-keyboard-response,4,54609,0.0-4.0,anomymised,6560c4cfd080ba12b16d8282,6564c8cc9edc8715cbc46ca1,58676,1A,man,NA,null,NA,NA,NA,NA,NA,NA,NA,NA
25991,<img src='img/Example-trial.jpg' style='height:550px;''></img>,0,Continue,Continue,html-button-response,5,80608,0.0-5.0,anomymised,6560c4cfd080ba12b16d8282,6564c8cc9edc8715cbc46ca1,58676,1A,man,NA,NA,NA,NA,NA,NA,NA,NA,NA,NA
111177,<p>Ready to start the experiment?</p><br><p><strong>Remember to give an answer by clicking a button on the rating scale.</strong></p><p>Press 'Continue' to begin.</p>,0,Continue,Continue,html-button-response,6,192786,0.0-6.0,anomymised,6560c4cfd080ba12b16d8282,6564c8cc9edc8715cbc46ca1,58676,1A,man,NA,NA,NA,NA,NA,NA,NA,NA,NA,NA
null,Somebody says<br><em>Luke and Fred are marrying each other</em>,NA,NA,NA,html-keyboard-response,7,195790,0.0-7.0-0.0,anomymised,6560c4cfd080ba12b16d8282,6564c8cc9edc8715cbc46ca1,58676,1A,man,NA,null,NAME1 and NAME2 are marrying each other,marry_conjoined,sentence,NA,NA,NA,NA,NA
6983,NA,NA,NA,NA,survey-likert-extra-labels,8,202776,0.0-7.0-1.0,anomymised,6560c4cfd080ba12b16d8282,6564c8cc9edc8715cbc46ca1,58676,1A,man,NA,NA,Somebody says<br><em>Luke and Fred are marrying each other</em>,marry_conjoined,rating_volition,"{""Q0"":3}",[0],The speaker identifies more with <br>Luke than Fred,The speaker identifies more with<br>Fred than Luke,left_to_right
null,Somebody says<br><em>Luke is driving Fred,NA,NA,NA,html-keyboard-response,9,204789,0.0-8.0-0.0,anomymised,6560c4cfd080ba12b16d8282,6564c8cc9edc8715cbc46ca1,58676,1A,man,NA,null,M1 is driving M3,drive,sentence,NA,NA,NA,NA,NA
14031.00000000003,NA,NA,NA,NA,survey-likert-extra-labels,10,218822,0.0-8.0-1.0,anomymised,6560c4cfd080ba12b16d8282,6564c8cc9edc8715cbc46ca1,58676,1A,man,NA,NA,Somebody says<br><em>Luke is driving Fred,drive,rating_volition,"{""Q0"":6}",[0],Luke is Fred's passenger,Fred is Luke's passenger,NA
null,Somebody says<br><em>Jane and Dave are touching each other</em>,NA,NA,NA,html-keyboard-response,11,220833,0.0-9.0-0.0,anomymised,6560c4cfd080ba12b16d8282,6564c8cc9edc8715cbc46ca1,58676,1A,man,NA,null,NAME1 and NAME2 are touching each other,touch_conjoined,sentence,NA,NA,NA,NA,NA
11705,NA,NA,NA,NA,survey-likert-extra-labels,12,232540,0.0-9.0-1.0,anomymised,6560c4cfd080ba12b16d8282,6564c8cc9edc8715cbc46ca1,58676,1A,man,NA,NA,Somebody says<br><em>Jane and Dave are touching each other</em>,touch_conjoined,rating_volition,"{""Q0"":3}",[0],The speaker identifies more with <br>Dave than Jane,The speaker identifies more with<br>Jane than Dave,right_to_left
null,Somebody says<br><em>Dave is being touched by Kate</em>,NA,NA,NA,html-keyboard-response,13,234554,0.0-10.0-0.0,anomymised,6560c4cfd080ba12b16d8282,6564c8cc9edc8715cbc46ca1,58676,1A,man,NA,null,NAME1 is being touched by NAME2,touch_passive,sentence,NA,NA,NA,NA,NA
11585,NA,NA,NA,NA,survey-likert-extra-labels,14,246141,0.0-10.0-1.0,anomymised,6560c4cfd080ba12b16d8282,6564c8cc9edc8715cbc46ca1,58676,1A,man,NA,NA,Somebody says<br><em>Dave is being touched by Kate</em>,touch_passive,rating_volition,"{""Q0"":4}",[0],The speaker identifies more with <br>Dave than Kate,The speaker identifies more with<br>Kate than Dave,left_to_right
null,Somebody says<br><em>Luke is fighting with Beth</em>,NA,NA,NA,html-keyboard-response,15,248158,0.0-11.0-0.0,anomymised,6560c4cfd080ba12b16d8282,6564c8cc9edc8715cbc46ca1,58676,1A,man,NA,null,NAME1 is fighting with NAME2,fight_active,sentence,NA,NA,NA,NA,NA
6478.000000000029,NA,NA,NA,NA,survey-likert-extra-labels,16,254637,0.0-11.0-1.0,anomymised,6560c4cfd080ba12b16d8282,6564c8cc9edc8715cbc46ca1,58676,1A,man,NA,NA,Somebody says<br><em>Luke is fighting with Beth</em>,fight_active,rating_volition,"{""Q0"":3}",[0],The speaker identifies more with <br>Luke than Beth,The speaker identifies more with<br>Beth than Luke,left_to_right
null,Somebody says<br><em>Jane is being opposed by Ruth</em>,NA,NA,NA,html-keyboard-response,17,256647,0.0-12.0-0.0,anomymised,6560c4cfd080ba12b16d8282,6564c8cc9edc8715cbc46ca1,58676,1A,man,NA,null,NAME1 is being opposed by NAME2,oppose_passive,sentence,NA,NA,NA,NA,NA
11123.000000000087,NA,NA,NA,NA,survey-likert-extra-labels,18,267772,0.0-12.0-1.0,anomymised,6560c4cfd080ba12b16d8282,6564c8cc9edc8715cbc46ca1,58676,1A,man,NA,NA,Somebody says<br><em>Jane is being opposed by Ruth</em>,oppose_passive,rating_volition,"{""Q0"":4}",[0],The speaker identifies more with <br>Ruth than Jane,The speaker identifies more with<br>Jane than Ruth,right_to_left
null,Somebody says<br><em>Mike and Dave are meeting each other</em>,NA,NA,NA,html-keyboard-response,19,269782,0.0-13.0-0.0,anomymised,6560c4cfd080ba12b16d8282,6564c8cc9edc8715cbc46ca1,58676,1A,man,NA,null,NAME1 and NAME2 are meeting each other,meet_conjoined,sentence,NA,NA,NA,NA,NA
2758,NA,NA,NA,NA,survey-likert-extra-labels,20,272542,0.0-13.0-1.0,anomymised,6560c4cfd080ba12b16d8282,6564c8cc9edc8715cbc46ca1,58676,1A,man,NA,NA,Somebody says<br><em>Mike and Dave are meeting each other</em>,meet_conjoined,rating_volition,"{""Q0"":3}",[0],The speaker identifies more with <br>Dave than Mike,The speaker identifies more with<br>Mike than Dave,right_to_left
null,Somebody says<br><em>Jane is hugging Kate</em>,NA,NA,NA,html-keyboard-response,21,274558,0.0-14.0-0.0,anomymised,6560c4cfd080ba12b16d8282,6564c8cc9edc8715cbc46ca1,58676,1A,man,NA,null,NAME1 is hugging NAME2,hug_active,sentence,NA,NA,NA,NA,NA
5830,NA,NA,NA,NA,survey-likert-extra-labels,22,280391,0.0-14.0-1.0,anomymised,6560c4cfd080ba12b16d8282,6564c8cc9edc8715cbc46ca1,58676,1A,man,NA,NA,Somebody says<br><em>Jane is hugging Kate</em>,hug_active,rating_volition,"{""Q0"":4}",[0],The speaker identifies more with <br>Kate than Jane,The speaker identifies more with<br>Jane than Kate,right_to_left
null,Somebody says<br><em>Ruth is chasing Kate,NA,NA,NA,html-keyboard-response,23,282406,0.0-15.0-0.0,anomymised,6560c4cfd080ba12b16d8282,6564c8cc9edc8715cbc46ca1,58676,1A,man,NA,null,W1 is chasing W3,chase,sentence,NA,NA,NA,NA,NA
14396.999999999942,NA,NA,NA,NA,survey-likert-extra-labels,24,296806,0.0-15.0-1.0,anomymised,6560c4cfd080ba12b16d8282,6564c8cc9edc8715cbc46ca1,58676,1A,man,NA,NA,Somebody says<br><em>Ruth is chasing Kate,chase,rating_volition,"{""Q0"":0}",[0],Ruth is behind Kate,Kate is behind Ruth,NA
null,Somebody says<br><em>Fred is challenging Luke</em>,NA,NA,NA,html-keyboard-response,25,298819,0.0-16.0-0.0,anomymised,6560c4cfd080ba12b16d8282,6564c8cc9edc8715cbc46ca1,58676,1A,man,NA,null,NAME1 is challenging NAME2,challenge_active,sentence,NA,NA,NA,NA,NA
6534,NA,NA,NA,NA,survey-likert-extra-labels,26,305355,0.0-16.0-1.0,anomymised,6560c4cfd080ba12b16d8282,6564c8cc9edc8715cbc46ca1,58676,1A,man,NA,NA,Somebody says<br><em>Fred is challenging Luke</em>,challenge_active,rating_volition,"{""Q0"":2}",[0],The speaker identifies more with <br>Fred than Luke,The speaker identifies more with<br>Luke than Fred,left_to_right
null,Somebody says<br><em>Luke and Mike are playing with each other</em>,NA,NA,NA,html-keyboard-response,27,307367,0.0-17.0-0.0,anomymised,6560c4cfd080ba12b16d8282,6564c8cc9edc8715cbc46ca1,58676,1A,man,NA,null,NAME1 and NAME2 are playing with each other,play_conjoined,sentence,NA,NA,NA,NA,NA
5304,NA,NA,NA,NA,survey-likert-extra-labels,28,312673,0.0-17.0-1.0,anomymised,6560c4cfd080ba12b16d8282,6564c8cc9edc8715cbc46ca1,58676,1A,man,NA,NA,Somebody says<br><em>Luke and Mike are playing with each other</em>,play_conjoined,rating_volition,"{""Q0"":3}",[0],The speaker identifies more with <br>Luke than Mike,The speaker identifies more with<br>Mike than Luke,left_to_right
null,Somebody says<br><em>Kate is arguing with Dave</em>,NA,NA,NA,html-keyboard-response,29,314690,0.0-18.0-0.0,anomymised,6560c4cfd080ba12b16d8282,6564c8cc9edc8715cbc46ca1,58676,1A,man,NA,null,NAME1 is arguing with NAME2,argue_active,sentence,NA,NA,NA,NA,NA
4964,NA,NA,NA,NA,survey-likert-extra-labels,30,319656,0.0-18.0-1.0,anomymised,6560c4cfd080ba12b16d8282,6564c8cc9edc8715cbc46ca1,58676,1A,man,NA,NA,Somebody says<br><em>Kate is arguing with Dave</em>,argue_active,rating_volition,"{""Q0"":3}",[0],The speaker identifies more with <br>Kate than Dave,The speaker identifies more with<br>Dave than Kate,left_to_right
null,Somebody says<br><em>Kate is copying Mike</em>,NA,NA,NA,html-keyboard-response,31,321670,0.0-19.0-0.0,anomymised,6560c4cfd080ba12b16d8282,6564c8cc9edc8715cbc46ca1,58676,1A,man,NA,null,NAME1 is copying NAME2,copy_active,sentence,NA,NA,NA,NA,NA
6733,NA,NA,NA,NA,survey-likert-extra-labels,32,328405,0.0-19.0-1.0,anomymised,6560c4cfd080ba12b16d8282,6564c8cc9edc8715cbc46ca1,58676,1A,man,NA,NA,Somebody says<br><em>Kate is copying Mike</em>,copy_active,rating_volition,"{""Q0"":2}",[0],The speaker identifies more with <br>Mike than Kate,The speaker identifies more with<br>Kate than Mike,right_to_left
null,Somebody says<br><em>Mike is seducing Dave</em>,NA,NA,NA,html-keyboard-response,33,330413,0.0-20.0-0.0,anomymised,6560c4cfd080ba12b16d8282,6564c8cc9edc8715cbc46ca1,58676,1A,man,NA,null,NAME1 is seducing NAME2,seduce_active,sentence,NA,NA,NA,NA,NA
5624,NA,NA,NA,NA,survey-likert-extra-labels,34,336038,0.0-20.0-1.0,anomymised,6560c4cfd080ba12b16d8282,6564c8cc9edc8715cbc46ca1,58676,1A,man,NA,NA,Somebody says<br><em>Mike is seducing Dave</em>,seduce_active,rating_volition,"{""Q0"":4}",[0],The speaker identifies more with <br>Mike than Dave,The speaker identifies more with<br>Dave than Mike,left_to_right
null,Somebody says<br><em>Dave is looking at Kate</em>,NA,NA,NA,html-keyboard-response,35,338051,0.0-21.0-0.0,anomymised,6560c4cfd080ba12b16d8282,6564c8cc9edc8715cbc46ca1,58676,1A,man,NA,null,NAME1 is looking at NAME2,look_active,sentence,NA,NA,NA,NA,NA
10668,NA,NA,NA,NA,survey-likert-extra-labels,36,348721,0.0-21.0-1.0,anomymised,6560c4cfd080ba12b16d8282,6564c8cc9edc8715cbc46ca1,58676,1A,man,NA,NA,Somebody says<br><em>Dave is looking at Kate</em>,look_active,rating_volition,"{""Q0"":2}",[0],The speaker identifies more with <br>Dave than Kate,The speaker identifies more with<br>Kate than Dave,left_to_right
null,Somebody says<br><em>Luke and Fred are kissing each other</em>,NA,NA,NA,html-keyboard-response,37,350730,0.0-22.0-0.0,anomymised,6560c4cfd080ba12b16d8282,6564c8cc9edc8715cbc46ca1,58676,1A,man,NA,null,NAME1 and NAME2 are kissing each other,kiss_conjoined,sentence,NA,NA,NA,NA,NA
6839,NA,NA,NA,NA,survey-likert-extra-labels,38,357570,0.0-22.0-1.0,anomymised,6560c4cfd080ba12b16d8282,6564c8cc9edc8715cbc46ca1,58676,1A,man,NA,NA,Somebody says<br><em>Luke and Fred are kissing each other</em>,kiss_conjoined,rating_volition,"{""Q0"":3}",[0],The speaker identifies more with <br>Fred than Luke,The speaker identifies more with<br>Luke than Fred,right_to_left
null,Somebody says<br><em>Mike and Jane are fighting with each other</em>,NA,NA,NA,html-keyboard-response,39,359581,0.0-23.0-0.0,anomymised,6560c4cfd080ba12b16d8282,6564c8cc9edc8715cbc46ca1,58676,1A,man,NA,null,NAME1 and NAME2 are fighting with each other,fight_conjoined,sentence,NA,NA,NA,NA,NA
4706.999999999942,NA,NA,NA,NA,survey-likert-extra-labels,40,364289,0.0-23.0-1.0,anomymised,6560c4cfd080ba12b16d8282,6564c8cc9edc8715cbc46ca1,58676,1A,man,NA,NA,Somebody says<br><em>Mike and Jane are fighting with each other</em>,fight_conjoined,rating_volition,"{""Q0"":3}",[0],The speaker identifies more with <br>Mike than Jane,The speaker identifies more with<br>Jane than Mike,left_to_right
null,Somebody says<br><em>Mike is marrying Fred</em>,NA,NA,NA,html-keyboard-response,41,366303,0.0-24.0-0.0,anomymised,6560c4cfd080ba12b16d8282,6564c8cc9edc8715cbc46ca1,58676,1A,man,NA,null,NAME1 is marrying NAME2,marry_active,sentence,NA,NA,NA,NA,NA
6199,NA,NA,NA,NA,survey-likert-extra-labels,42,372504,0.0-24.0-1.0,anomymised,6560c4cfd080ba12b16d8282,6564c8cc9edc8715cbc46ca1,58676,1A,man,NA,NA,Somebody says<br><em>Mike is marrying Fred</em>,marry_active,rating_volition,"{""Q0"":3}",[0],The speaker identifies more with <br>Mike than Fred,The speaker identifies more with<br>Fred than Mike,left_to_right
null,Somebody says<br><em>Kate is flirting with Luke</em>,NA,NA,NA,html-keyboard-response,43,374514,0.0-25.0-0.0,anomymised,6560c4cfd080ba12b16d8282,6564c8cc9edc8715cbc46ca1,58676,1A,man,NA,null,NAME1 is flirting with NAME2,flirt_active,sentence,NA,NA,NA,NA,NA
9122,NA,NA,NA,NA,survey-likert-extra-labels,44,383637,0.0-25.0-1.0,anomymised,6560c4cfd080ba12b16d8282,6564c8cc9edc8715cbc46ca1,58676,1A,man,NA,NA,Somebody says<br><em>Kate is flirting with Luke</em>,flirt_active,rating_volition,"{""Q0"":2}",[0],The speaker identifies more with <br>Kate than Luke,The speaker identifies more with<br>Luke than Kate,left_to_right
null,Somebody says<br><em>Kate and Ruth are arguing with each other</em>,NA,NA,NA,html-keyboard-response,45,385647,0.0-26.0-0.0,anomymised,6560c4cfd080ba12b16d8282,6564c8cc9edc8715cbc46ca1,58676,1A,man,NA,null,NAME1 and NAME2 are arguing with each other,argue_conjoined,sentence,NA,NA,NA,NA,NA
5939,NA,NA,NA,NA,survey-likert-extra-labels,46,391588,0.0-26.0-1.0,anomymised,6560c4cfd080ba12b16d8282,6564c8cc9edc8715cbc46ca1,58676,1A,man,NA,NA,Somebody says<br><em>Kate and Ruth are arguing with each other</em>,argue_conjoined,rating_volition,"{""Q0"":3}",[0],The speaker identifies more with <br>Kate than Ruth,The speaker identifies more with<br>Ruth than Kate,left_to_right
null,Somebody says<br><em>Jane is playing with Mike</em>,NA,NA,NA,html-keyboard-response,47,393602,0.0-27.0-0.0,anomymised,6560c4cfd080ba12b16d8282,6564c8cc9edc8715cbc46ca1,58676,1A,man,NA,null,NAME1 is playing with NAME2,play_active,sentence,NA,NA,NA,NA,NA
6069,NA,NA,NA,NA,survey-likert-extra-labels,48,399672,0.0-27.0-1.0,anomymised,6560c4cfd080ba12b16d8282,6564c8cc9edc8715cbc46ca1,58676,1A,man,NA,NA,Somebody says<br><em>Jane is playing with Mike</em>,play_active,rating_volition,"{""Q0"":2}",[0],The speaker identifies more with <br>Jane than Mike,The speaker identifies more with<br>Mike than Jane,left_to_right
null,Somebody says<br><em>Luke is dancing with Dave</em>,NA,NA,NA,html-keyboard-response,49,401686,0.0-28.0-0.0,anomymised,6560c4cfd080ba12b16d8282,6564c8cc9edc8715cbc46ca1,58676,1A,man,NA,null,NAME1 is dancing with NAME2,dance_active,sentence,NA,NA,NA,NA,NA
4466,NA,NA,NA,NA,survey-likert-extra-labels,50,406153,0.0-28.0-1.0,anomymised,6560c4cfd080ba12b16d8282,6564c8cc9edc8715cbc46ca1,58676,1A,man,NA,NA,Somebody says<br><em>Luke is dancing with Dave</em>,dance_active,rating_volition,"{""Q0"":3}",[0],The speaker identifies more with <br>Dave than Luke,The speaker identifies more with<br>Luke than Dave,right_to_left
null,Somebody says<br><em>Kate is talking to Ruth</em>,NA,NA,NA,html-keyboard-response,51,408162,0.0-29.0-0.0,anomymised,6560c4cfd080ba12b16d8282,6564c8cc9edc8715cbc46ca1,58676,1A,man,NA,null,NAME1 is talking to NAME2,talk_active,sentence,NA,NA,NA,NA,NA
3025,NA,NA,NA,NA,survey-likert-extra-labels,52,411188,0.0-29.0-1.0,anomymised,6560c4cfd080ba12b16d8282,6564c8cc9edc8715cbc46ca1,58676,1A,man,NA,NA,Somebody says<br><em>Kate is talking to Ruth</em>,talk_active,rating_volition,"{""Q0"":3}",[0],The speaker identifies more with <br>Ruth than Kate,The speaker identifies more with<br>Kate than Ruth,right_to_left
null,Somebody says<br><em>Kate and Dave are flirting with each other</em>,NA,NA,NA,html-keyboard-response,53,413199,0.0-30.0-0.0,anomymised,6560c4cfd080ba12b16d8282,6564c8cc9edc8715cbc46ca1,58676,1A,man,NA,null,NAME1 and NAME2 are flirting with each other,flirt_conjoined,sentence,NA,NA,NA,NA,NA
3554,NA,NA,NA,NA,survey-likert-extra-labels,54,416754,0.0-30.0-1.0,anomymised,6560c4cfd080ba12b16d8282,6564c8cc9edc8715cbc46ca1,58676,1A,man,NA,NA,Somebody says<br><em>Kate and Dave are flirting with each other</em>,flirt_conjoined,rating_volition,"{""Q0"":3}",[0],The speaker identifies more with <br>Kate than Dave,The speaker identifies more with<br>Dave than Kate,left_to_right
null,Somebody says<br><em>Ruth is being kissed by Beth</em>,NA,NA,NA,html-keyboard-response,55,418765,0.0-31.0-0.0,anomymised,6560c4cfd080ba12b16d8282,6564c8cc9edc8715cbc46ca1,58676,1A,man,NA,null,NAME1 is being kissed by NAME2,kiss_passive,sentence,NA,NA,NA,NA,NA
13323,NA,NA,NA,NA,survey-likert-extra-labels,56,432089,0.0-31.0-1.0,anomymised,6560c4cfd080ba12b16d8282,6564c8cc9edc8715cbc46ca1,58676,1A,man,NA,NA,Somebody says<br><em>Ruth is being kissed by Beth</em>,kiss_passive,rating_volition,"{""Q0"":4}",[0],The speaker identifies more with <br>Ruth than Beth,The speaker identifies more with<br>Beth than Ruth,left_to_right
null,Somebody says<br><em>Fred is shouting at Mike</em>,NA,NA,NA,html-keyboard-response,57,434105,0.0-32.0-0.0,anomymised,6560c4cfd080ba12b16d8282,6564c8cc9edc8715cbc46ca1,58676,1A,man,NA,null,NAME1 is shouting at NAME2,shout_active,sentence,NA,NA,NA,NA,NA
4766.000000000058,NA,NA,NA,NA,survey-likert-extra-labels,58,438873,0.0-32.0-1.0,anomymised,6560c4cfd080ba12b16d8282,6564c8cc9edc8715cbc46ca1,58676,1A,man,NA,NA,Somebody says<br><em>Fred is shouting at Mike</em>,shout_active,rating_volition,"{""Q0"":4}",[0],The speaker identifies more with <br>Mike than Fred,The speaker identifies more with<br>Fred than Mike,right_to_left
null,Somebody says<br><em>Jane is being shouted at by Ruth</em>,NA,NA,NA,html-keyboard-response,59,440889,0.0-33.0-0.0,anomymised,6560c4cfd080ba12b16d8282,6564c8cc9edc8715cbc46ca1,58676,1A,man,NA,null,NAME1 is being shouted at by NAME2,shout_passive,sentence,NA,NA,NA,NA,NA
5982.000000000058,NA,NA,NA,NA,survey-likert-extra-labels,60,446873,0.0-33.0-1.0,anomymised,6560c4cfd080ba12b16d8282,6564c8cc9edc8715cbc46ca1,58676,1A,man,NA,NA,Somebody says<br><em>Jane is being shouted at by Ruth</em>,shout_passive,rating_volition,"{""Q0"":2}",[0],The speaker identifies more with <br>Ruth than Jane,The speaker identifies more with<br>Jane than Ruth,right_to_left
null,Somebody says<br><em>Beth and Ruth are talking with each other</em>,NA,NA,NA,html-keyboard-response,61,448883,0.0-34.0-0.0,anomymised,6560c4cfd080ba12b16d8282,6564c8cc9edc8715cbc46ca1,58676,1A,man,NA,null,NAME1 and NAME2 are talking with each other,talk_conjoined,sentence,NA,NA,NA,NA,NA
2517.999999999942,NA,NA,NA,NA,survey-likert-extra-labels,62,451403,0.0-34.0-1.0,anomymised,6560c4cfd080ba12b16d8282,6564c8cc9edc8715cbc46ca1,58676,1A,man,NA,NA,Somebody says<br><em>Beth and Ruth are talking with each other</em>,talk_conjoined,rating_volition,"{""Q0"":3}",[0],The speaker identifies more with <br>Beth than Ruth,The speaker identifies more with<br>Ruth than Beth,left_to_right
null,Somebody says<br><em>Kate is feeding Luke,NA,NA,NA,html-keyboard-response,63,453416,0.0-35.0-0.0,anomymised,6560c4cfd080ba12b16d8282,6564c8cc9edc8715cbc46ca1,58676,1A,man,NA,null,W3 is feeding M1,feed,sentence,NA,NA,NA,NA,NA
5220,NA,NA,NA,NA,survey-likert-extra-labels,64,458638,0.0-35.0-1.0,anomymised,6560c4cfd080ba12b16d8282,6564c8cc9edc8715cbc46ca1,58676,1A,man,NA,NA,Somebody says<br><em>Kate is feeding Luke,feed,rating_volition,"{""Q0"":2}",[0],Kate cooked for Luke,Luke cooked for Kate,NA
null,Somebody says<br><em>Fred is being looked at by Jane</em>,NA,NA,NA,html-keyboard-response,65,460649,0.0-36.0-0.0,anomymised,6560c4cfd080ba12b16d8282,6564c8cc9edc8715cbc46ca1,58676,1A,man,NA,null,NAME1 is being looked at by NAME2,look_passive,sentence,NA,NA,NA,NA,NA
8555,NA,NA,NA,NA,survey-likert-extra-labels,66,469205,0.0-36.0-1.0,anomymised,6560c4cfd080ba12b16d8282,6564c8cc9edc8715cbc46ca1,58676,1A,man,NA,NA,Somebody says<br><em>Fred is being looked at by Jane</em>,look_passive,rating_volition,"{""Q0"":4}",[0],The speaker identifies more with <br>Fred than Jane,The speaker identifies more with<br>Jane than Fred,left_to_right
null,Somebody says<br><em>Kate and Ruth are dancing with each other</em>,NA,NA,NA,html-keyboard-response,67,471221,0.0-37.0-0.0,anomymised,6560c4cfd080ba12b16d8282,6564c8cc9edc8715cbc46ca1,58676,1A,man,NA,null,NAME1 and NAME2 are dancing with each other,dance_conjoined,sentence,NA,NA,NA,NA,NA
9848.000000000058,NA,NA,NA,NA,survey-likert-extra-labels,68,481071,0.0-37.0-1.0,anomymised,6560c4cfd080ba12b16d8282,6564c8cc9edc8715cbc46ca1,58676,1A,man,NA,NA,Somebody says<br><em>Kate and Ruth are dancing with each other</em>,dance_conjoined,rating_volition,"{""Q0"":3}",[0],The speaker identifies more with <br>Kate than Ruth,The speaker identifies more with<br>Ruth than Kate,left_to_right
null,Somebody says<br><em>Jane is carrying Beth,NA,NA,NA,html-keyboard-response,69,483083,0.0-38.0-0.0,anomymised,6560c4cfd080ba12b16d8282,6564c8cc9edc8715cbc46ca1,58676,1A,man,NA,null,W2 is carrying W4,carry,sentence,NA,NA,NA,NA,NA
23435,NA,NA,NA,NA,survey-likert-extra-labels,70,506521,0.0-38.0-1.0,anomymised,6560c4cfd080ba12b16d8282,6564c8cc9edc8715cbc46ca1,58676,1A,man,NA,NA,Somebody says<br><em>Jane is carrying Beth,carry,rating_volition,"{""Q0"":2}",[0],Jane is transporting Beth,Beth is transporting Jane,NA
null,Somebody says<br><em>Ruth is being seduced by Luke</em>,NA,NA,NA,html-keyboard-response,71,508533,0.0-39.0-0.0,anomymised,6560c4cfd080ba12b16d8282,6564c8cc9edc8715cbc46ca1,58676,1A,man,NA,null,NAME1 is being seduced by NAME2,seduce_passive,sentence,NA,NA,NA,NA,NA
10635,NA,NA,NA,NA,survey-likert-extra-labels,72,519170,0.0-39.0-1.0,anomymised,6560c4cfd080ba12b16d8282,6564c8cc9edc8715cbc46ca1,58676,1A,man,NA,NA,Somebody says<br><em>Ruth is being seduced by Luke</em>,seduce_passive,rating_volition,"{""Q0"":2}",[0],The speaker identifies more with <br>Luke than Ruth,The speaker identifies more with<br>Ruth than Luke,right_to_left
null,Somebody says<br><em>Jane is being challenged by Ruth</em>,NA,NA,NA,html-keyboard-response,73,521181,0.0-40.0-0.0,anomymised,6560c4cfd080ba12b16d8282,6564c8cc9edc8715cbc46ca1,58676,1A,man,NA,null,NAME1 is being challenged by NAME2,challenge_passive,sentence,NA,NA,NA,NA,NA
7806.999999999942,NA,NA,NA,NA,survey-likert-extra-labels,74,528990,0.0-40.0-1.0,anomymised,6560c4cfd080ba12b16d8282,6564c8cc9edc8715cbc46ca1,58676,1A,man,NA,NA,Somebody says<br><em>Jane is being challenged by Ruth</em>,challenge_passive,rating_volition,"{""Q0"":4}",[0],The speaker identifies more with <br>Jane than Ruth,The speaker identifies more with<br>Ruth than Jane,left_to_right
null,Somebody says<br><em>Ruth is shouting at Dave</em>,NA,NA,NA,html-keyboard-response,75,531005,0.0-41.0-0.0,anomymised,6560c4cfd080ba12b16d8282,6564c8cc9edc8715cbc46ca1,58676,1A,man,NA,null,NAME1 is shouting at NAME2,shout_active,sentence,NA,NA,NA,NA,NA
5664,NA,NA,NA,NA,survey-likert-extra-labels,76,536670,0.0-41.0-1.0,anomymised,6560c4cfd080ba12b16d8282,6564c8cc9edc8715cbc46ca1,58676,1A,man,NA,NA,Somebody says<br><em>Ruth is shouting at Dave</em>,shout_active,rating_volition,"{""Q0"":4}",[0],The speaker identifies more with <br>Dave than Ruth,The speaker identifies more with<br>Ruth than Dave,right_to_left
null,Somebody says<br><em>Jane is teaching Dave,NA,NA,NA,html-keyboard-response,77,538683,0.0-42.0-0.0,anomymised,6560c4cfd080ba12b16d8282,6564c8cc9edc8715cbc46ca1,58676,1A,man,NA,null,W2 is teaching M4,teach,sentence,NA,NA,NA,NA,NA
13419,NA,NA,NA,NA,survey-likert-extra-labels,78,552103,0.0-42.0-1.0,anomymised,6560c4cfd080ba12b16d8282,6564c8cc9edc8715cbc46ca1,58676,1A,man,NA,NA,Somebody says<br><em>Jane is teaching Dave,teach,rating_volition,"{""Q0"":0}",[0],Jane is educating Dave,Dave is educating Jane,NA
null,Somebody says<br><em>Fred and Luke are hugging each other</em>,NA,NA,NA,html-keyboard-response,79,554112,0.0-43.0-0.0,anomymised,6560c4cfd080ba12b16d8282,6564c8cc9edc8715cbc46ca1,58676,1A,man,NA,null,NAME1 and NAME2 are hugging each other,hug_conjoined,sentence,NA,NA,NA,NA,NA
5873,NA,NA,NA,NA,survey-likert-extra-labels,80,559986,0.0-43.0-1.0,anomymised,6560c4cfd080ba12b16d8282,6564c8cc9edc8715cbc46ca1,58676,1A,man,NA,NA,Somebody says<br><em>Fred and Luke are hugging each other</em>,hug_conjoined,rating_volition,"{""Q0"":3}",[0],The speaker identifies more with <br>Fred than Luke,The speaker identifies more with<br>Luke than Fred,left_to_right
null,Somebody says<br><em>Beth is being greeted by Ruth</em>,NA,NA,NA,html-keyboard-response,81,561997,0.0-44.0-0.0,anomymised,6560c4cfd080ba12b16d8282,6564c8cc9edc8715cbc46ca1,58676,1A,man,NA,null,NAME1 is being greeted by NAME2,greet_passive,sentence,NA,NA,NA,NA,NA
8591,NA,NA,NA,NA,survey-likert-extra-labels,82,570589,0.0-44.0-1.0,anomymised,6560c4cfd080ba12b16d8282,6564c8cc9edc8715cbc46ca1,58676,1A,man,NA,NA,Somebody says<br><em>Beth is being greeted by Ruth</em>,greet_passive,rating_volition,"{""Q0"":2}",[0],The speaker identifies more with <br>Ruth than Beth,The speaker identifies more with<br>Beth than Ruth,right_to_left
null,Somebody says<br><em>Fred is hiring Ruth,NA,NA,NA,html-keyboard-response,83,572604,0.0-45.0-0.0,anomymised,6560c4cfd080ba12b16d8282,6564c8cc9edc8715cbc46ca1,58676,1A,man,NA,null,M3 is hiring W1,hire,sentence,NA,NA,NA,NA,NA
9148,NA,NA,NA,NA,survey-likert-extra-labels,84,581754,0.0-45.0-1.0,anomymised,6560c4cfd080ba12b16d8282,6564c8cc9edc8715cbc46ca1,58676,1A,man,NA,NA,Somebody says<br><em>Fred is hiring Ruth,hire,rating_volition,"{""Q0"":2}",[0],Fred is employing Ruth,Ruth is employing Fred,NA
null,Somebody says<br><em>Beth is being copied by Kate</em>,NA,NA,NA,html-keyboard-response,85,583764,0.0-46.0-0.0,anomymised,6560c4cfd080ba12b16d8282,6564c8cc9edc8715cbc46ca1,58676,1A,man,NA,null,NAME1 is being copied by NAME2,copy_passive,sentence,NA,NA,NA,NA,NA
7939,NA,NA,NA,NA,survey-likert-extra-labels,86,591705,0.0-46.0-1.0,anomymised,6560c4cfd080ba12b16d8282,6564c8cc9edc8715cbc46ca1,58676,1A,man,NA,NA,Somebody says<br><em>Beth is being copied by Kate</em>,copy_passive,rating_volition,"{""Q0"":2}",[0],The speaker identifies more with <br>Kate than Beth,The speaker identifies more with<br>Beth than Kate,right_to_left
null,Somebody says<br><em>Luke is opposing Jane</em>,NA,NA,NA,html-keyboard-response,87,593720,0.0-47.0-0.0,anomymised,6560c4cfd080ba12b16d8282,6564c8cc9edc8715cbc46ca1,58676,1A,man,NA,null,NAME1 is opposing NAME2,oppose_active,sentence,NA,NA,NA,NA,NA
10483.999999999884,NA,NA,NA,NA,survey-likert-extra-labels,88,604206,0.0-47.0-1.0,anomymised,6560c4cfd080ba12b16d8282,6564c8cc9edc8715cbc46ca1,58676,1A,man,NA,NA,Somebody says<br><em>Luke is opposing Jane</em>,oppose_active,rating_volition,"{""Q0"":4}",[0],The speaker identifies more with <br>Jane than Luke,The speaker identifies more with<br>Luke than Jane,right_to_left
null,Somebody says<br><em>Kate and Mike are shouting at each other</em>,NA,NA,NA,html-keyboard-response,89,606221,0.0-48.0-0.0,anomymised,6560c4cfd080ba12b16d8282,6564c8cc9edc8715cbc46ca1,58676,1A,man,NA,null,NAME1 and NAME2 are shouting at each other,shout_conjoined,sentence,NA,NA,NA,NA,NA
3932.0000000001164,NA,NA,NA,NA,survey-likert-extra-labels,90,610155,0.0-48.0-1.0,anomymised,6560c4cfd080ba12b16d8282,6564c8cc9edc8715cbc46ca1,58676,1A,man,NA,NA,Somebody says<br><em>Kate and Mike are shouting at each other</em>,shout_conjoined,rating_volition,"{""Q0"":3}",[0],The speaker identifies more with <br>Mike than Kate,The speaker identifies more with<br>Kate than Mike,right_to_left
null,Somebody says<br><em>Dave is greeting Kate</em>,NA,NA,NA,html-keyboard-response,91,612164,0.0-49.0-0.0,anomymised,6560c4cfd080ba12b16d8282,6564c8cc9edc8715cbc46ca1,58676,1A,man,NA,null,NAME1 is greeting NAME2,greet_active,sentence,NA,NA,NA,NA,NA
4125,NA,NA,NA,NA,survey-likert-extra-labels,92,616291,0.0-49.0-1.0,anomymised,6560c4cfd080ba12b16d8282,6564c8cc9edc8715cbc46ca1,58676,1A,man,NA,NA,Somebody says<br><em>Dave is greeting Kate</em>,greet_active,rating_volition,"{""Q0"":4}",[0],The speaker identifies more with <br>Kate than Dave,The speaker identifies more with<br>Dave than Kate,right_to_left
null,Somebody says<br><em>Dave is kissing Mike</em>,NA,NA,NA,html-keyboard-response,93,618307,0.0-50.0-0.0,anomymised,6560c4cfd080ba12b16d8282,6564c8cc9edc8715cbc46ca1,58676,1A,man,NA,null,NAME1 is kissing NAME2,kiss_active,sentence,NA,NA,NA,NA,NA
5780,NA,NA,NA,NA,survey-likert-extra-labels,94,624090,0.0-50.0-1.0,anomymised,6560c4cfd080ba12b16d8282,6564c8cc9edc8715cbc46ca1,58676,1A,man,NA,NA,Somebody says<br><em>Dave is kissing Mike</em>,kiss_active,rating_volition,"{""Q0"":2}",[0],The speaker identifies more with <br>Dave than Mike,The speaker identifies more with<br>Mike than Dave,left_to_right
null,Somebody says<br><em>Mike is posing for Dave,NA,NA,NA,html-keyboard-response,95,626100,0.0-51.0-0.0,anomymised,6560c4cfd080ba12b16d8282,6564c8cc9edc8715cbc46ca1,58676,1A,man,NA,null,M2 is posing for M4,pose,sentence,NA,NA,NA,NA,NA
6555.000000000116,NA,NA,NA,NA,survey-likert-extra-labels,96,632657,0.0-51.0-1.0,anomymised,6560c4cfd080ba12b16d8282,6564c8cc9edc8715cbc46ca1,58676,1A,man,NA,NA,Somebody says<br><em>Mike is posing for Dave,pose,rating_volition,"{""Q0"":2}",[0],Mike is modelling for Dave,Dave is modelling for Mike,NA
null,Somebody says<br><em>Ruth is meeting Mike</em>,NA,NA,NA,html-keyboard-response,97,634671,0.0-52.0-0.0,anomymised,6560c4cfd080ba12b16d8282,6564c8cc9edc8715cbc46ca1,58676,1A,man,NA,null,NAME1 is meeting NAME2,meet_active,sentence,NA,NA,NA,NA,NA
4452,NA,NA,NA,NA,survey-likert-extra-labels,98,639124,0.0-52.0-1.0,anomymised,6560c4cfd080ba12b16d8282,6564c8cc9edc8715cbc46ca1,58676,1A,man,NA,NA,Somebody says<br><em>Ruth is meeting Mike</em>,meet_active,rating_volition,"{""Q0"":3}",[0],The speaker identifies more with <br>Ruth than Mike,The speaker identifies more with<br>Mike than Ruth,left_to_right
null,Somebody says<br><em>Beth is touching Dave</em>,NA,NA,NA,html-keyboard-response,99,641141,0.0-53.0-0.0,anomymised,6560c4cfd080ba12b16d8282,6564c8cc9edc8715cbc46ca1,58676,1A,man,NA,null,NAME1 is touching NAME2,touch_active,sentence,NA,NA,NA,NA,NA
11097,NA,NA,NA,NA,survey-likert-extra-labels,100,652240,0.0-53.0-1.0,anomymised,6560c4cfd080ba12b16d8282,6564c8cc9edc8715cbc46ca1,58676,1A,man,NA,NA,Somebody says<br><em>Beth is touching Dave</em>,touch_active,rating_volition,"{""Q0"":4}",[0],The speaker identifies more with <br>Dave than Beth,The speaker identifies more with<br>Beth than Dave,right_to_left
null,Somebody says<br><em>Mike is reminding Beth,NA,NA,NA,html-keyboard-response,101,654250,0.0-54.0-0.0,anomymised,6560c4cfd080ba12b16d8282,6564c8cc9edc8715cbc46ca1,58676,1A,man,NA,null,M2 is reminding W4,remind,sentence,NA,NA,NA,NA,NA
11821,NA,NA,NA,NA,survey-likert-extra-labels,102,666073,0.0-54.0-1.0,anomymised,6560c4cfd080ba12b16d8282,6564c8cc9edc8715cbc46ca1,58676,1A,man,NA,NA,Somebody says<br><em>Mike is reminding Beth,remind,rating_volition,"{""Q0"":0}",[0],Mike is telling Beth again,Beth is telling Mike again,NA
null,Somebody says<br><em>Fred is being hugged by Jane</em>,NA,NA,NA,html-keyboard-response,103,668086,0.0-55.0-0.0,anomymised,6560c4cfd080ba12b16d8282,6564c8cc9edc8715cbc46ca1,58676,1A,man,NA,null,NAME1 is being hugged by NAME2,hug_passive,sentence,NA,NA,NA,NA,NA
5820.000000000116,NA,NA,NA,NA,survey-likert-extra-labels,104,673908,0.0-55.0-1.0,anomymised,6560c4cfd080ba12b16d8282,6564c8cc9edc8715cbc46ca1,58676,1A,man,NA,NA,Somebody says<br><em>Fred is being hugged by Jane</em>,hug_passive,rating_volition,"{""Q0"":2}",[0],The speaker identifies more with <br>Jane than Fred,The speaker identifies more with<br>Fred than Jane,right_to_left
4338,<p>Thank you for completing that task.</p><p>The final part of this session is a short questionnaire.</p><p>Press Continue.</p>,0,Continue,Continue,html-button-response,105,678257,0.0-56.0,anomymised,6560c4cfd080ba12b16d8282,6564c8cc9edc8715cbc46ca1,58676,1A,man,NA,NA,NA,NA,NA,NA,NA,NA,NA,NA
69578,NA,NA,NA,NA,survey-text,106,748860,0.0-57.0,anomymised,6560c4cfd080ba12b16d8282,6564c8cc9edc8715cbc46ca1,58676,1A,man,NA,NA,NA,NA,demographics,"{""Q0"":""80"",""Q1"":""english"",""Q2"":""english"",""Q3"":""england"",""Q4"":""british"",""Q5"":""white british"",""Q6"":""male""}",NA,NA,NA,NA
5862,<p>This is the last question - thank you for taking part! Have you lived in the UK for the last 5 years or more?</p>,0,"Yes,No",Yes,html-button-response,107,754724,0.0-58.0,anomymised,6560c4cfd080ba12b16d8282,6564c8cc9edc8715cbc46ca1,58676,1A,man,NA,NA,NA,NA,fiveyears,NA,NA,NA,NA,NA
