rt,stimulus,button_pressed,choices,ChosenStimulus,trial_type,trial_index,time_elapsed,internal_node_id,subject_id,study_id,session_id,subject,list,ppt_gender,url,key_press,sentence_type,verb,test_part,responses,question_order,left_part,right_part,name_order
6655.699999999255,Welcome to the experiment. Press Continue to begin.,0,Continue,Continue,html-button-response,0,6658,0.0-0.0,anomymised,6564584152624795c40b73cb,6564bda6ce81f2d248073031,59026,1A,woman,NA,NA,NA,NA,NA,NA,NA,NA,NA,NA
14058.599999997765,NA,NA,NA,NA,external-html,1,21897,0.0-1.0,anomymised,6564584152624795c40b73cb,6564bda6ce81f2d248073031,59026,1A,woman,consent.html,NA,NA,NA,NA,NA,NA,NA,NA,NA
20838,"<p>Welcome.</p><p>In this experiment we will ask you to imagine people's motivations for saying sentences.</p><p>Each trial will begin with a sentence that somebody might say to describe an event involving two different people.</p><p>For instance, someone might say <em>Harry is being recruited by Molly</em></p><p>We want you to think about which of those two people (Molly and Harry) the speaker identifies more with. For instance, why did the speaker say <em>Harry is being recruited by Molly</em> rather than <em> Molly is recruiting Harry</em>? Might that mean that the speaker is socially closer to one of the two characters?</p><p>After you have read the sentence, you will rate on a scale which of the two characters the speaker identifies more with.</p><p>You will give your answer by clicking a button on a rating scale.</p><p>Sometimes there will also be catch questions designed to make sure that you are paying attention, which ask about a different topic.</p><p>To do this task, you will have to use your imagination to think about and visualise the events, and how the speaker might relate to the characters.</p><br><p>Ready?</p>",0,Continue,Continue,html-button-response,2,42737,0.0-2.0,anomymised,6564584152624795c40b73cb,6564bda6ce81f2d248073031,59026,1A,woman,NA,NA,NA,NA,NA,NA,NA,NA,NA,NA
9655.699999999255,"<p>Before the experiment starts, we will show you an example of how you will answer the questions. Press 'Continue'.</p>",0,Continue,Continue,html-button-response,3,53401,0.0-3.0,anomymised,6564584152624795c40b73cb,6564bda6ce81f2d248073031,59026,1A,woman,NA,NA,NA,NA,NA,NA,NA,NA,NA,NA
null,Somebody says <br><em>Samuel is dining with Frank</em>,NA,NA,NA,html-keyboard-response,4,56404,0.0-4.0,anomymised,6564584152624795c40b73cb,6564bda6ce81f2d248073031,59026,1A,woman,NA,null,NA,NA,NA,NA,NA,NA,NA,NA
71828,<img src='img/Example-trial.jpg' style='height:550px;''></img>,0,Continue,Continue,html-button-response,5,128234,0.0-5.0,anomymised,6564584152624795c40b73cb,6564bda6ce81f2d248073031,59026,1A,woman,NA,NA,NA,NA,NA,NA,NA,NA,NA,NA
1599.300000000745,<p>Ready to start the experiment?</p><br><p><strong>Remember to give an answer by clicking a button on the rating scale.</strong></p><p>Press 'Continue' to begin.</p>,0,Continue,Continue,html-button-response,6,130842,0.0-6.0,anomymised,6564584152624795c40b73cb,6564bda6ce81f2d248073031,59026,1A,woman,NA,NA,NA,NA,NA,NA,NA,NA,NA,NA
null,Somebody says<br><em>Mike is seducing Jane</em>,NA,NA,NA,html-keyboard-response,7,133850,0.0-7.0-0.0,anomymised,6564584152624795c40b73cb,6564bda6ce81f2d248073031,59026,1A,woman,NA,null,NAME1 is seducing NAME2,seduce_active,sentence,NA,NA,NA,NA,NA
6998.10000000149,NA,NA,NA,NA,survey-likert-extra-labels,8,140852,0.0-7.0-1.0,anomymised,6564584152624795c40b73cb,6564bda6ce81f2d248073031,59026,1A,woman,NA,NA,Somebody says<br><em>Mike is seducing Jane</em>,seduce_active,rating_volition,"{""Q0"":4}",[0],The speaker identifies more with <br>Jane than Mike,The speaker identifies more with<br>Mike than Jane,right_to_left
null,Somebody says<br><em>Dave is greeting Jane</em>,NA,NA,NA,html-keyboard-response,9,142859,0.0-8.0-0.0,anomymised,6564584152624795c40b73cb,6564bda6ce81f2d248073031,59026,1A,woman,NA,null,NAME1 is greeting NAME2,greet_active,sentence,NA,NA,NA,NA,NA
5727.89999999851,NA,NA,NA,NA,survey-likert-extra-labels,10,148589,0.0-8.0-1.0,anomymised,6564584152624795c40b73cb,6564bda6ce81f2d248073031,59026,1A,woman,NA,NA,Somebody says<br><em>Dave is greeting Jane</em>,greet_active,rating_volition,"{""Q0"":4}",[0],The speaker identifies more with <br>Jane than Dave,The speaker identifies more with<br>Dave than Jane,right_to_left
null,Somebody says<br><em>Jane and Ruth are talking with each other</em>,NA,NA,NA,html-keyboard-response,11,150596,0.0-9.0-0.0,anomymised,6564584152624795c40b73cb,6564bda6ce81f2d248073031,59026,1A,woman,NA,null,NAME1 and NAME2 are talking with each other,talk_conjoined,sentence,NA,NA,NA,NA,NA
2999.60000000149,NA,NA,NA,NA,survey-likert-extra-labels,12,153597,0.0-9.0-1.0,anomymised,6564584152624795c40b73cb,6564bda6ce81f2d248073031,59026,1A,woman,NA,NA,Somebody says<br><em>Jane and Ruth are talking with each other</em>,talk_conjoined,rating_volition,"{""Q0"":3}",[0],The speaker identifies more with <br>Jane than Ruth,The speaker identifies more with<br>Ruth than Jane,left_to_right
null,Somebody says<br><em>Mike and Fred are shouting at each other</em>,NA,NA,NA,html-keyboard-response,13,155600,0.0-10.0-0.0,anomymised,6564584152624795c40b73cb,6564bda6ce81f2d248073031,59026,1A,woman,NA,null,NAME1 and NAME2 are shouting at each other,shout_conjoined,sentence,NA,NA,NA,NA,NA
3290,NA,NA,NA,NA,survey-likert-extra-labels,14,158892,0.0-10.0-1.0,anomymised,6564584152624795c40b73cb,6564bda6ce81f2d248073031,59026,1A,woman,NA,NA,Somebody says<br><em>Mike and Fred are shouting at each other</em>,shout_conjoined,rating_volition,"{""Q0"":3}",[0],The speaker identifies more with <br>Mike than Fred,The speaker identifies more with<br>Fred than Mike,left_to_right
null,Somebody says<br><em>Jane is hugging Kate</em>,NA,NA,NA,html-keyboard-response,15,160899,0.0-11.0-0.0,anomymised,6564584152624795c40b73cb,6564bda6ce81f2d248073031,59026,1A,woman,NA,null,NAME1 is hugging NAME2,hug_active,sentence,NA,NA,NA,NA,NA
3344.099999997765,NA,NA,NA,NA,survey-likert-extra-labels,16,164245,0.0-11.0-1.0,anomymised,6564584152624795c40b73cb,6564bda6ce81f2d248073031,59026,1A,woman,NA,NA,Somebody says<br><em>Jane is hugging Kate</em>,hug_active,rating_volition,"{""Q0"":1}",[0],The speaker identifies more with <br>Jane than Kate,The speaker identifies more with<br>Kate than Jane,left_to_right
null,Somebody says<br><em>Kate and Jane are touching each other</em>,NA,NA,NA,html-keyboard-response,17,166252,0.0-12.0-0.0,anomymised,6564584152624795c40b73cb,6564bda6ce81f2d248073031,59026,1A,woman,NA,null,NAME1 and NAME2 are touching each other,touch_conjoined,sentence,NA,NA,NA,NA,NA
1486.800000000745,NA,NA,NA,NA,survey-likert-extra-labels,18,167741,0.0-12.0-1.0,anomymised,6564584152624795c40b73cb,6564bda6ce81f2d248073031,59026,1A,woman,NA,NA,Somebody says<br><em>Kate and Jane are touching each other</em>,touch_conjoined,rating_volition,"{""Q0"":3}",[0],The speaker identifies more with <br>Jane than Kate,The speaker identifies more with<br>Kate than Jane,right_to_left
null,Somebody says<br><em>Mike is playing with Kate</em>,NA,NA,NA,html-keyboard-response,19,169747,0.0-13.0-0.0,anomymised,6564584152624795c40b73cb,6564bda6ce81f2d248073031,59026,1A,woman,NA,null,NAME1 is playing with NAME2,play_active,sentence,NA,NA,NA,NA,NA
5655.10000000149,NA,NA,NA,NA,survey-likert-extra-labels,20,175404,0.0-13.0-1.0,anomymised,6564584152624795c40b73cb,6564bda6ce81f2d248073031,59026,1A,woman,NA,NA,Somebody says<br><em>Mike is playing with Kate</em>,play_active,rating_volition,"{""Q0"":1}",[0],The speaker identifies more with <br>Mike than Kate,The speaker identifies more with<br>Kate than Mike,left_to_right
null,Somebody says<br><em>Kate is being kissed by Dave</em>,NA,NA,NA,html-keyboard-response,21,177412,0.0-14.0-0.0,anomymised,6564584152624795c40b73cb,6564bda6ce81f2d248073031,59026,1A,woman,NA,null,NAME1 is being kissed by NAME2,kiss_passive,sentence,NA,NA,NA,NA,NA
7842.699999999255,NA,NA,NA,NA,survey-likert-extra-labels,22,185256,0.0-14.0-1.0,anomymised,6564584152624795c40b73cb,6564bda6ce81f2d248073031,59026,1A,woman,NA,NA,Somebody says<br><em>Kate is being kissed by Dave</em>,kiss_passive,rating_volition,"{""Q0"":1}",[0],The speaker identifies more with <br>Kate than Dave,The speaker identifies more with<br>Dave than Kate,left_to_right
null,Somebody says<br><em>Dave and Kate are marrying each other</em>,NA,NA,NA,html-keyboard-response,23,187265,0.0-15.0-0.0,anomymised,6564584152624795c40b73cb,6564bda6ce81f2d248073031,59026,1A,woman,NA,null,NAME1 and NAME2 are marrying each other,marry_conjoined,sentence,NA,NA,NA,NA,NA
2089.800000000745,NA,NA,NA,NA,survey-likert-extra-labels,24,189356,0.0-15.0-1.0,anomymised,6564584152624795c40b73cb,6564bda6ce81f2d248073031,59026,1A,woman,NA,NA,Somebody says<br><em>Dave and Kate are marrying each other</em>,marry_conjoined,rating_volition,"{""Q0"":3}",[0],The speaker identifies more with <br>Dave than Kate,The speaker identifies more with<br>Kate than Dave,left_to_right
null,Somebody says<br><em>Kate is touching Beth</em>,NA,NA,NA,html-keyboard-response,25,191360,0.0-16.0-0.0,anomymised,6564584152624795c40b73cb,6564bda6ce81f2d248073031,59026,1A,woman,NA,null,NAME1 is touching NAME2,touch_active,sentence,NA,NA,NA,NA,NA
4731.699999999255,NA,NA,NA,NA,survey-likert-extra-labels,26,196093,0.0-16.0-1.0,anomymised,6564584152624795c40b73cb,6564bda6ce81f2d248073031,59026,1A,woman,NA,NA,Somebody says<br><em>Kate is touching Beth</em>,touch_active,rating_volition,"{""Q0"":4}",[0],The speaker identifies more with <br>Beth than Kate,The speaker identifies more with<br>Kate than Beth,right_to_left
null,Somebody says<br><em>Dave and Jane are fighting with each other</em>,NA,NA,NA,html-keyboard-response,27,198096,0.0-17.0-0.0,anomymised,6564584152624795c40b73cb,6564bda6ce81f2d248073031,59026,1A,woman,NA,null,NAME1 and NAME2 are fighting with each other,fight_conjoined,sentence,NA,NA,NA,NA,NA
2274.7999999970198,NA,NA,NA,NA,survey-likert-extra-labels,28,200373,0.0-17.0-1.0,anomymised,6564584152624795c40b73cb,6564bda6ce81f2d248073031,59026,1A,woman,NA,NA,Somebody says<br><em>Dave and Jane are fighting with each other</em>,fight_conjoined,rating_volition,"{""Q0"":3}",[0],The speaker identifies more with <br>Dave than Jane,The speaker identifies more with<br>Jane than Dave,left_to_right
null,Somebody says<br><em>Fred is shouting at Dave</em>,NA,NA,NA,html-keyboard-response,29,202376,0.0-18.0-0.0,anomymised,6564584152624795c40b73cb,6564bda6ce81f2d248073031,59026,1A,woman,NA,null,NAME1 is shouting at NAME2,shout_active,sentence,NA,NA,NA,NA,NA
3274.800000000745,NA,NA,NA,NA,survey-likert-extra-labels,30,205653,0.0-18.0-1.0,anomymised,6564584152624795c40b73cb,6564bda6ce81f2d248073031,59026,1A,woman,NA,NA,Somebody says<br><em>Fred is shouting at Dave</em>,shout_active,rating_volition,"{""Q0"":3}",[0],The speaker identifies more with <br>Fred than Dave,The speaker identifies more with<br>Dave than Fred,left_to_right
null,Somebody says<br><em>Beth is talking to Dave</em>,NA,NA,NA,html-keyboard-response,31,207657,0.0-19.0-0.0,anomymised,6564584152624795c40b73cb,6564bda6ce81f2d248073031,59026,1A,woman,NA,null,NAME1 is talking to NAME2,talk_active,sentence,NA,NA,NA,NA,NA
2057.699999999255,NA,NA,NA,NA,survey-likert-extra-labels,32,209717,0.0-19.0-1.0,anomymised,6564584152624795c40b73cb,6564bda6ce81f2d248073031,59026,1A,woman,NA,NA,Somebody says<br><em>Beth is talking to Dave</em>,talk_active,rating_volition,"{""Q0"":4}",[0],The speaker identifies more with <br>Dave than Beth,The speaker identifies more with<br>Beth than Dave,right_to_left
null,Somebody says<br><em>Fred is being touched by Ruth</em>,NA,NA,NA,html-keyboard-response,33,211720,0.0-20.0-0.0,anomymised,6564584152624795c40b73cb,6564bda6ce81f2d248073031,59026,1A,woman,NA,null,NAME1 is being touched by NAME2,touch_passive,sentence,NA,NA,NA,NA,NA
22554.10000000149,NA,NA,NA,NA,survey-likert-extra-labels,34,234277,0.0-20.0-1.0,anomymised,6564584152624795c40b73cb,6564bda6ce81f2d248073031,59026,1A,woman,NA,NA,Somebody says<br><em>Fred is being touched by Ruth</em>,touch_passive,rating_volition,"{""Q0"":1}",[0],The speaker identifies more with <br>Fred than Ruth,The speaker identifies more with<br>Ruth than Fred,left_to_right
null,Somebody says<br><em>Fred is hiring Ruth,NA,NA,NA,html-keyboard-response,35,236280,0.0-21.0-0.0,anomymised,6564584152624795c40b73cb,6564bda6ce81f2d248073031,59026,1A,woman,NA,null,M3 is hiring W1,hire,sentence,NA,NA,NA,NA,NA
1547.699999999255,NA,NA,NA,NA,survey-likert-extra-labels,36,237829,0.0-21.0-1.0,anomymised,6564584152624795c40b73cb,6564bda6ce81f2d248073031,59026,1A,woman,NA,NA,Somebody says<br><em>Fred is hiring Ruth,hire,rating_volition,"{""Q0"":1}",[0],Fred is employing Ruth,Ruth is employing Fred,NA
null,Somebody says<br><em>Mike is posing for Dave,NA,NA,NA,html-keyboard-response,37,239833,0.0-22.0-0.0,anomymised,6564584152624795c40b73cb,6564bda6ce81f2d248073031,59026,1A,woman,NA,null,M2 is posing for M4,pose,sentence,NA,NA,NA,NA,NA
2746.300000000745,NA,NA,NA,NA,survey-likert-extra-labels,38,242582,0.0-22.0-1.0,anomymised,6564584152624795c40b73cb,6564bda6ce81f2d248073031,59026,1A,woman,NA,NA,Somebody says<br><em>Mike is posing for Dave,pose,rating_volition,"{""Q0"":1}",[0],Mike is modelling for Dave,Dave is modelling for Mike,NA
null,Somebody says<br><em>Mike and Fred are arguing with each other</em>,NA,NA,NA,html-keyboard-response,39,244585,0.0-23.0-0.0,anomymised,6564584152624795c40b73cb,6564bda6ce81f2d248073031,59026,1A,woman,NA,null,NAME1 and NAME2 are arguing with each other,argue_conjoined,sentence,NA,NA,NA,NA,NA
1226.0999999977648,NA,NA,NA,NA,survey-likert-extra-labels,40,245813,0.0-23.0-1.0,anomymised,6564584152624795c40b73cb,6564bda6ce81f2d248073031,59026,1A,woman,NA,NA,Somebody says<br><em>Mike and Fred are arguing with each other</em>,argue_conjoined,rating_volition,"{""Q0"":3}",[0],The speaker identifies more with <br>Mike than Fred,The speaker identifies more with<br>Fred than Mike,left_to_right
null,Somebody says<br><em>Dave is being seduced by Jane</em>,NA,NA,NA,html-keyboard-response,41,247820,0.0-24.0-0.0,anomymised,6564584152624795c40b73cb,6564bda6ce81f2d248073031,59026,1A,woman,NA,null,NAME1 is being seduced by NAME2,seduce_passive,sentence,NA,NA,NA,NA,NA
2463.89999999851,NA,NA,NA,NA,survey-likert-extra-labels,42,250286,0.0-24.0-1.0,anomymised,6564584152624795c40b73cb,6564bda6ce81f2d248073031,59026,1A,woman,NA,NA,Somebody says<br><em>Dave is being seduced by Jane</em>,seduce_passive,rating_volition,"{""Q0"":1}",[0],The speaker identifies more with <br>Dave than Jane,The speaker identifies more with<br>Jane than Dave,left_to_right
null,Somebody says<br><em>Ruth is opposing Kate</em>,NA,NA,NA,html-keyboard-response,43,252293,0.0-25.0-0.0,anomymised,6564584152624795c40b73cb,6564bda6ce81f2d248073031,59026,1A,woman,NA,null,NAME1 is opposing NAME2,oppose_active,sentence,NA,NA,NA,NA,NA
6838.5,NA,NA,NA,NA,survey-likert-extra-labels,44,259134,0.0-25.0-1.0,anomymised,6564584152624795c40b73cb,6564bda6ce81f2d248073031,59026,1A,woman,NA,NA,Somebody says<br><em>Ruth is opposing Kate</em>,oppose_active,rating_volition,"{""Q0"":1}",[0],The speaker identifies more with <br>Kate than Ruth,The speaker identifies more with<br>Ruth than Kate,right_to_left
null,Somebody says<br><em>Dave is being challenged by Luke</em>,NA,NA,NA,html-keyboard-response,45,261136,0.0-26.0-0.0,anomymised,6564584152624795c40b73cb,6564bda6ce81f2d248073031,59026,1A,woman,NA,null,NAME1 is being challenged by NAME2,challenge_passive,sentence,NA,NA,NA,NA,NA
4436.89999999851,NA,NA,NA,NA,survey-likert-extra-labels,46,265575,0.0-26.0-1.0,anomymised,6564584152624795c40b73cb,6564bda6ce81f2d248073031,59026,1A,woman,NA,NA,Somebody says<br><em>Dave is being challenged by Luke</em>,challenge_passive,rating_volition,"{""Q0"":2}",[0],The speaker identifies more with <br>Dave than Luke,The speaker identifies more with<br>Luke than Dave,left_to_right
null,Somebody says<br><em>Kate is feeding Luke,NA,NA,NA,html-keyboard-response,47,267582,0.0-27.0-0.0,anomymised,6564584152624795c40b73cb,6564bda6ce81f2d248073031,59026,1A,woman,NA,null,W3 is feeding M1,feed,sentence,NA,NA,NA,NA,NA
8485.89999999851,NA,NA,NA,NA,survey-likert-extra-labels,48,276069,0.0-27.0-1.0,anomymised,6564584152624795c40b73cb,6564bda6ce81f2d248073031,59026,1A,woman,NA,NA,Somebody says<br><em>Kate is feeding Luke,feed,rating_volition,"{""Q0"":1}",[0],Kate cooked for Luke,Luke cooked for Kate,NA
null,Somebody says<br><em>Luke is kissing Kate</em>,NA,NA,NA,html-keyboard-response,49,278077,0.0-28.0-0.0,anomymised,6564584152624795c40b73cb,6564bda6ce81f2d248073031,59026,1A,woman,NA,null,NAME1 is kissing NAME2,kiss_active,sentence,NA,NA,NA,NA,NA
4710.400000002235,NA,NA,NA,NA,survey-likert-extra-labels,50,282789,0.0-28.0-1.0,anomymised,6564584152624795c40b73cb,6564bda6ce81f2d248073031,59026,1A,woman,NA,NA,Somebody says<br><em>Luke is kissing Kate</em>,kiss_active,rating_volition,"{""Q0"":4}",[0],The speaker identifies more with <br>Kate than Luke,The speaker identifies more with<br>Luke than Kate,right_to_left
null,Somebody says<br><em>Jane is carrying Beth,NA,NA,NA,html-keyboard-response,51,284794,0.0-29.0-0.0,anomymised,6564584152624795c40b73cb,6564bda6ce81f2d248073031,59026,1A,woman,NA,null,W2 is carrying W4,carry,sentence,NA,NA,NA,NA,NA
2561.199999999255,NA,NA,NA,NA,survey-likert-extra-labels,52,287358,0.0-29.0-1.0,anomymised,6564584152624795c40b73cb,6564bda6ce81f2d248073031,59026,1A,woman,NA,NA,Somebody says<br><em>Jane is carrying Beth,carry,rating_volition,"{""Q0"":2}",[0],Jane is transporting Beth,Beth is transporting Jane,NA
null,Somebody says<br><em>Fred and Beth are hugging each other</em>,NA,NA,NA,html-keyboard-response,53,289365,0.0-30.0-0.0,anomymised,6564584152624795c40b73cb,6564bda6ce81f2d248073031,59026,1A,woman,NA,null,NAME1 and NAME2 are hugging each other,hug_conjoined,sentence,NA,NA,NA,NA,NA
4740.800000000745,NA,NA,NA,NA,survey-likert-extra-labels,54,294108,0.0-30.0-1.0,anomymised,6564584152624795c40b73cb,6564bda6ce81f2d248073031,59026,1A,woman,NA,NA,Somebody says<br><em>Fred and Beth are hugging each other</em>,hug_conjoined,rating_volition,"{""Q0"":3}",[0],The speaker identifies more with <br>Fred than Beth,The speaker identifies more with<br>Beth than Fred,left_to_right
null,Somebody says<br><em>Dave and Luke are flirting with each other</em>,NA,NA,NA,html-keyboard-response,55,296115,0.0-31.0-0.0,anomymised,6564584152624795c40b73cb,6564bda6ce81f2d248073031,59026,1A,woman,NA,null,NAME1 and NAME2 are flirting with each other,flirt_conjoined,sentence,NA,NA,NA,NA,NA
2695.800000000745,NA,NA,NA,NA,survey-likert-extra-labels,56,298813,0.0-31.0-1.0,anomymised,6564584152624795c40b73cb,6564bda6ce81f2d248073031,59026,1A,woman,NA,NA,Somebody says<br><em>Dave and Luke are flirting with each other</em>,flirt_conjoined,rating_volition,"{""Q0"":3}",[0],The speaker identifies more with <br>Dave than Luke,The speaker identifies more with<br>Luke than Dave,left_to_right
null,Somebody says<br><em>Luke is shouting at Dave</em>,NA,NA,NA,html-keyboard-response,57,300821,0.0-32.0-0.0,anomymised,6564584152624795c40b73cb,6564bda6ce81f2d248073031,59026,1A,woman,NA,null,NAME1 is shouting at NAME2,shout_active,sentence,NA,NA,NA,NA,NA
2726.7000000029802,NA,NA,NA,NA,survey-likert-extra-labels,58,303550,0.0-32.0-1.0,anomymised,6564584152624795c40b73cb,6564bda6ce81f2d248073031,59026,1A,woman,NA,NA,Somebody says<br><em>Luke is shouting at Dave</em>,shout_active,rating_volition,"{""Q0"":2}",[0],The speaker identifies more with <br>Luke than Dave,The speaker identifies more with<br>Dave than Luke,left_to_right
null,Somebody says<br><em>Luke is driving Fred,NA,NA,NA,html-keyboard-response,59,305556,0.0-33.0-0.0,anomymised,6564584152624795c40b73cb,6564bda6ce81f2d248073031,59026,1A,woman,NA,null,M1 is driving M3,drive,sentence,NA,NA,NA,NA,NA
7272.5,NA,NA,NA,NA,survey-likert-extra-labels,60,312830,0.0-33.0-1.0,anomymised,6564584152624795c40b73cb,6564bda6ce81f2d248073031,59026,1A,woman,NA,NA,Somebody says<br><em>Luke is driving Fred,drive,rating_volition,"{""Q0"":6}",[0],Luke is Fred's passenger,Fred is Luke's passenger,NA
null,Somebody says<br><em>Luke is being opposed by Ruth</em>,NA,NA,NA,html-keyboard-response,61,314838,0.0-34.0-0.0,anomymised,6564584152624795c40b73cb,6564bda6ce81f2d248073031,59026,1A,woman,NA,null,NAME1 is being opposed by NAME2,oppose_passive,sentence,NA,NA,NA,NA,NA
17958.20000000298,NA,NA,NA,NA,survey-likert-extra-labels,62,332798,0.0-34.0-1.0,anomymised,6564584152624795c40b73cb,6564bda6ce81f2d248073031,59026,1A,woman,NA,NA,Somebody says<br><em>Luke is being opposed by Ruth</em>,oppose_passive,rating_volition,"{""Q0"":4}",[0],The speaker identifies more with <br>Ruth than Luke,The speaker identifies more with<br>Luke than Ruth,right_to_left
null,Somebody says<br><em>Jane is challenging Luke</em>,NA,NA,NA,html-keyboard-response,63,334803,0.0-35.0-0.0,anomymised,6564584152624795c40b73cb,6564bda6ce81f2d248073031,59026,1A,woman,NA,null,NAME1 is challenging NAME2,challenge_active,sentence,NA,NA,NA,NA,NA
3945.599999997765,NA,NA,NA,NA,survey-likert-extra-labels,64,338750,0.0-35.0-1.0,anomymised,6564584152624795c40b73cb,6564bda6ce81f2d248073031,59026,1A,woman,NA,NA,Somebody says<br><em>Jane is challenging Luke</em>,challenge_active,rating_volition,"{""Q0"":2}",[0],The speaker identifies more with <br>Jane than Luke,The speaker identifies more with<br>Luke than Jane,left_to_right
null,Somebody says<br><em>Ruth is being shouted at by Jane</em>,NA,NA,NA,html-keyboard-response,65,340757,0.0-36.0-0.0,anomymised,6564584152624795c40b73cb,6564bda6ce81f2d248073031,59026,1A,woman,NA,null,NAME1 is being shouted at by NAME2,shout_passive,sentence,NA,NA,NA,NA,NA
4487.39999999851,NA,NA,NA,NA,survey-likert-extra-labels,66,345246,0.0-36.0-1.0,anomymised,6564584152624795c40b73cb,6564bda6ce81f2d248073031,59026,1A,woman,NA,NA,Somebody says<br><em>Ruth is being shouted at by Jane</em>,shout_passive,rating_volition,"{""Q0"":4}",[0],The speaker identifies more with <br>Jane than Ruth,The speaker identifies more with<br>Ruth than Jane,right_to_left
null,Somebody says<br><em>Jane is teaching Dave,NA,NA,NA,html-keyboard-response,67,347254,0.0-37.0-0.0,anomymised,6564584152624795c40b73cb,6564bda6ce81f2d248073031,59026,1A,woman,NA,null,W2 is teaching M4,teach,sentence,NA,NA,NA,NA,NA
4414.5,NA,NA,NA,NA,survey-likert-extra-labels,68,351671,0.0-37.0-1.0,anomymised,6564584152624795c40b73cb,6564bda6ce81f2d248073031,59026,1A,woman,NA,NA,Somebody says<br><em>Jane is teaching Dave,teach,rating_volition,"{""Q0"":3}",[0],Jane is educating Dave,Dave is educating Jane,NA
null,Somebody says<br><em>Ruth is chasing Kate,NA,NA,NA,html-keyboard-response,69,353674,0.0-38.0-0.0,anomymised,6564584152624795c40b73cb,6564bda6ce81f2d248073031,59026,1A,woman,NA,null,W1 is chasing W3,chase,sentence,NA,NA,NA,NA,NA
14203.5,NA,NA,NA,NA,survey-likert-extra-labels,70,367879,0.0-38.0-1.0,anomymised,6564584152624795c40b73cb,6564bda6ce81f2d248073031,59026,1A,woman,NA,NA,Somebody says<br><em>Ruth is chasing Kate,chase,rating_volition,"{""Q0"":0}",[0],Ruth is behind Kate,Kate is behind Ruth,NA
null,Somebody says<br><em>Fred is marrying Kate</em>,NA,NA,NA,html-keyboard-response,71,369882,0.0-39.0-0.0,anomymised,6564584152624795c40b73cb,6564bda6ce81f2d248073031,59026,1A,woman,NA,null,NAME1 is marrying NAME2,marry_active,sentence,NA,NA,NA,NA,NA
2610.60000000149,NA,NA,NA,NA,survey-likert-extra-labels,72,372495,0.0-39.0-1.0,anomymised,6564584152624795c40b73cb,6564bda6ce81f2d248073031,59026,1A,woman,NA,NA,Somebody says<br><em>Fred is marrying Kate</em>,marry_active,rating_volition,"{""Q0"":1}",[0],The speaker identifies more with <br>Fred than Kate,The speaker identifies more with<br>Kate than Fred,left_to_right
null,Somebody says<br><em>Fred is being looked at by Kate</em>,NA,NA,NA,html-keyboard-response,73,374502,0.0-40.0-0.0,anomymised,6564584152624795c40b73cb,6564bda6ce81f2d248073031,59026,1A,woman,NA,null,NAME1 is being looked at by NAME2,look_passive,sentence,NA,NA,NA,NA,NA
4238.599999997765,NA,NA,NA,NA,survey-likert-extra-labels,74,378743,0.0-40.0-1.0,anomymised,6564584152624795c40b73cb,6564bda6ce81f2d248073031,59026,1A,woman,NA,NA,Somebody says<br><em>Fred is being looked at by Kate</em>,look_passive,rating_volition,"{""Q0"":2}",[0],The speaker identifies more with <br>Fred than Kate,The speaker identifies more with<br>Kate than Fred,left_to_right
null,Somebody says<br><em>Kate is fighting with Fred</em>,NA,NA,NA,html-keyboard-response,75,380750,0.0-41.0-0.0,anomymised,6564584152624795c40b73cb,6564bda6ce81f2d248073031,59026,1A,woman,NA,null,NAME1 is fighting with NAME2,fight_active,sentence,NA,NA,NA,NA,NA
2750.900000002235,NA,NA,NA,NA,survey-likert-extra-labels,76,383503,0.0-41.0-1.0,anomymised,6564584152624795c40b73cb,6564bda6ce81f2d248073031,59026,1A,woman,NA,NA,Somebody says<br><em>Kate is fighting with Fred</em>,fight_active,rating_volition,"{""Q0"":4}",[0],The speaker identifies more with <br>Fred than Kate,The speaker identifies more with<br>Kate than Fred,right_to_left
null,Somebody says<br><em>Beth is looking at Mike</em>,NA,NA,NA,html-keyboard-response,77,385510,0.0-42.0-0.0,anomymised,6564584152624795c40b73cb,6564bda6ce81f2d248073031,59026,1A,woman,NA,null,NAME1 is looking at NAME2,look_active,sentence,NA,NA,NA,NA,NA
16239,NA,NA,NA,NA,survey-likert-extra-labels,78,401751,0.0-42.0-1.0,anomymised,6564584152624795c40b73cb,6564bda6ce81f2d248073031,59026,1A,woman,NA,NA,Somebody says<br><em>Beth is looking at Mike</em>,look_active,rating_volition,"{""Q0"":4}",[0],The speaker identifies more with <br>Mike than Beth,The speaker identifies more with<br>Beth than Mike,right_to_left
null,Somebody says<br><em>Kate and Beth are playing with each other</em>,NA,NA,NA,html-keyboard-response,79,403754,0.0-43.0-0.0,anomymised,6564584152624795c40b73cb,6564bda6ce81f2d248073031,59026,1A,woman,NA,null,NAME1 and NAME2 are playing with each other,play_conjoined,sentence,NA,NA,NA,NA,NA
1290.7999999970198,NA,NA,NA,NA,survey-likert-extra-labels,80,405047,0.0-43.0-1.0,anomymised,6564584152624795c40b73cb,6564bda6ce81f2d248073031,59026,1A,woman,NA,NA,Somebody says<br><em>Kate and Beth are playing with each other</em>,play_conjoined,rating_volition,"{""Q0"":3}",[0],The speaker identifies more with <br>Kate than Beth,The speaker identifies more with<br>Beth than Kate,left_to_right
null,Somebody says<br><em>Kate is flirting with Luke</em>,NA,NA,NA,html-keyboard-response,81,407054,0.0-44.0-0.0,anomymised,6564584152624795c40b73cb,6564bda6ce81f2d248073031,59026,1A,woman,NA,null,NAME1 is flirting with NAME2,flirt_active,sentence,NA,NA,NA,NA,NA
2342.800000000745,NA,NA,NA,NA,survey-likert-extra-labels,82,409399,0.0-44.0-1.0,anomymised,6564584152624795c40b73cb,6564bda6ce81f2d248073031,59026,1A,woman,NA,NA,Somebody says<br><em>Kate is flirting with Luke</em>,flirt_active,rating_volition,"{""Q0"":1}",[0],The speaker identifies more with <br>Kate than Luke,The speaker identifies more with<br>Luke than Kate,left_to_right
null,Somebody says<br><em>Fred is being copied by Kate</em>,NA,NA,NA,html-keyboard-response,83,411406,0.0-45.0-0.0,anomymised,6564584152624795c40b73cb,6564bda6ce81f2d248073031,59026,1A,woman,NA,null,NAME1 is being copied by NAME2,copy_passive,sentence,NA,NA,NA,NA,NA
2637.89999999851,NA,NA,NA,NA,survey-likert-extra-labels,84,414046,0.0-45.0-1.0,anomymised,6564584152624795c40b73cb,6564bda6ce81f2d248073031,59026,1A,woman,NA,NA,Somebody says<br><em>Fred is being copied by Kate</em>,copy_passive,rating_volition,"{""Q0"":5}",[0],The speaker identifies more with <br>Kate than Fred,The speaker identifies more with<br>Fred than Kate,right_to_left
null,Somebody says<br><em>Jane and Beth are kissing each other</em>,NA,NA,NA,html-keyboard-response,85,416054,0.0-46.0-0.0,anomymised,6564584152624795c40b73cb,6564bda6ce81f2d248073031,59026,1A,woman,NA,null,NAME1 and NAME2 are kissing each other,kiss_conjoined,sentence,NA,NA,NA,NA,NA
1028.1000000014901,NA,NA,NA,NA,survey-likert-extra-labels,86,417084,0.0-46.0-1.0,anomymised,6564584152624795c40b73cb,6564bda6ce81f2d248073031,59026,1A,woman,NA,NA,Somebody says<br><em>Jane and Beth are kissing each other</em>,kiss_conjoined,rating_volition,"{""Q0"":3}",[0],The speaker identifies more with <br>Jane than Beth,The speaker identifies more with<br>Beth than Jane,left_to_right
null,Somebody says<br><em>Jane and Dave are meeting each other</em>,NA,NA,NA,html-keyboard-response,87,419089,0.0-47.0-0.0,anomymised,6564584152624795c40b73cb,6564bda6ce81f2d248073031,59026,1A,woman,NA,null,NAME1 and NAME2 are meeting each other,meet_conjoined,sentence,NA,NA,NA,NA,NA
1379.199999999255,NA,NA,NA,NA,survey-likert-extra-labels,88,420470,0.0-47.0-1.0,anomymised,6564584152624795c40b73cb,6564bda6ce81f2d248073031,59026,1A,woman,NA,NA,Somebody says<br><em>Jane and Dave are meeting each other</em>,meet_conjoined,rating_volition,"{""Q0"":3}",[0],The speaker identifies more with <br>Dave than Jane,The speaker identifies more with<br>Jane than Dave,right_to_left
null,Somebody says<br><em>Jane is being greeted by Mike</em>,NA,NA,NA,html-keyboard-response,89,422472,0.0-48.0-0.0,anomymised,6564584152624795c40b73cb,6564bda6ce81f2d248073031,59026,1A,woman,NA,null,NAME1 is being greeted by NAME2,greet_passive,sentence,NA,NA,NA,NA,NA
2468.300000000745,NA,NA,NA,NA,survey-likert-extra-labels,90,424943,0.0-48.0-1.0,anomymised,6564584152624795c40b73cb,6564bda6ce81f2d248073031,59026,1A,woman,NA,NA,Somebody says<br><em>Jane is being greeted by Mike</em>,greet_passive,rating_volition,"{""Q0"":1}",[0],The speaker identifies more with <br>Jane than Mike,The speaker identifies more with<br>Mike than Jane,left_to_right
null,Somebody says<br><em>Fred is being hugged by Kate</em>,NA,NA,NA,html-keyboard-response,91,426951,0.0-49.0-0.0,anomymised,6564584152624795c40b73cb,6564bda6ce81f2d248073031,59026,1A,woman,NA,null,NAME1 is being hugged by NAME2,hug_passive,sentence,NA,NA,NA,NA,NA
2238.599999997765,NA,NA,NA,NA,survey-likert-extra-labels,92,429192,0.0-49.0-1.0,anomymised,6564584152624795c40b73cb,6564bda6ce81f2d248073031,59026,1A,woman,NA,NA,Somebody says<br><em>Fred is being hugged by Kate</em>,hug_passive,rating_volition,"{""Q0"":1}",[0],The speaker identifies more with <br>Fred than Kate,The speaker identifies more with<br>Kate than Fred,left_to_right
null,Somebody says<br><em>Mike is reminding Beth,NA,NA,NA,html-keyboard-response,93,431195,0.0-50.0-0.0,anomymised,6564584152624795c40b73cb,6564bda6ce81f2d248073031,59026,1A,woman,NA,null,M2 is reminding W4,remind,sentence,NA,NA,NA,NA,NA
8970.300000000745,NA,NA,NA,NA,survey-likert-extra-labels,94,440167,0.0-50.0-1.0,anomymised,6564584152624795c40b73cb,6564bda6ce81f2d248073031,59026,1A,woman,NA,NA,Somebody says<br><em>Mike is reminding Beth,remind,rating_volition,"{""Q0"":0}",[0],Mike is telling Beth again,Beth is telling Mike again,NA
null,Somebody says<br><em>Fred and Kate are dancing with each other</em>,NA,NA,NA,html-keyboard-response,95,442174,0.0-51.0-0.0,anomymised,6564584152624795c40b73cb,6564bda6ce81f2d248073031,59026,1A,woman,NA,null,NAME1 and NAME2 are dancing with each other,dance_conjoined,sentence,NA,NA,NA,NA,NA
1983,NA,NA,NA,NA,survey-likert-extra-labels,96,444159,0.0-51.0-1.0,anomymised,6564584152624795c40b73cb,6564bda6ce81f2d248073031,59026,1A,woman,NA,NA,Somebody says<br><em>Fred and Kate are dancing with each other</em>,dance_conjoined,rating_volition,"{""Q0"":3}",[0],The speaker identifies more with <br>Fred than Kate,The speaker identifies more with<br>Kate than Fred,left_to_right
null,Somebody says<br><em>Kate is dancing with Jane</em>,NA,NA,NA,html-keyboard-response,97,446166,0.0-52.0-0.0,anomymised,6564584152624795c40b73cb,6564bda6ce81f2d248073031,59026,1A,woman,NA,null,NAME1 is dancing with NAME2,dance_active,sentence,NA,NA,NA,NA,NA
2663.099999997765,NA,NA,NA,NA,survey-likert-extra-labels,98,448831,0.0-52.0-1.0,anomymised,6564584152624795c40b73cb,6564bda6ce81f2d248073031,59026,1A,woman,NA,NA,Somebody says<br><em>Kate is dancing with Jane</em>,dance_active,rating_volition,"{""Q0"":1}",[0],The speaker identifies more with <br>Kate than Jane,The speaker identifies more with<br>Jane than Kate,left_to_right
null,Somebody says<br><em>Beth is arguing with Jane</em>,NA,NA,NA,html-keyboard-response,99,450839,0.0-53.0-0.0,anomymised,6564584152624795c40b73cb,6564bda6ce81f2d248073031,59026,1A,woman,NA,null,NAME1 is arguing with NAME2,argue_active,sentence,NA,NA,NA,NA,NA
1917.699999999255,NA,NA,NA,NA,survey-likert-extra-labels,100,452759,0.0-53.0-1.0,anomymised,6564584152624795c40b73cb,6564bda6ce81f2d248073031,59026,1A,woman,NA,NA,Somebody says<br><em>Beth is arguing with Jane</em>,argue_active,rating_volition,"{""Q0"":1}",[0],The speaker identifies more with <br>Beth than Jane,The speaker identifies more with<br>Jane than Beth,left_to_right
null,Somebody says<br><em>Luke is meeting Ruth</em>,NA,NA,NA,html-keyboard-response,101,454766,0.0-54.0-0.0,anomymised,6564584152624795c40b73cb,6564bda6ce81f2d248073031,59026,1A,woman,NA,null,NAME1 is meeting NAME2,meet_active,sentence,NA,NA,NA,NA,NA
5759,NA,NA,NA,NA,survey-likert-extra-labels,102,460528,0.0-54.0-1.0,anomymised,6564584152624795c40b73cb,6564bda6ce81f2d248073031,59026,1A,woman,NA,NA,Somebody says<br><em>Luke is meeting Ruth</em>,meet_active,rating_volition,"{""Q0"":5}",[0],The speaker identifies more with <br>Ruth than Luke,The speaker identifies more with<br>Luke than Ruth,right_to_left
null,Somebody says<br><em>Dave is copying Mike</em>,NA,NA,NA,html-keyboard-response,103,462532,0.0-55.0-0.0,anomymised,6564584152624795c40b73cb,6564bda6ce81f2d248073031,59026,1A,woman,NA,null,NAME1 is copying NAME2,copy_active,sentence,NA,NA,NA,NA,NA
2385.699999999255,NA,NA,NA,NA,survey-likert-extra-labels,104,464920,0.0-55.0-1.0,anomymised,6564584152624795c40b73cb,6564bda6ce81f2d248073031,59026,1A,woman,NA,NA,Somebody says<br><em>Dave is copying Mike</em>,copy_active,rating_volition,"{""Q0"":1}",[0],The speaker identifies more with <br>Dave than Mike,The speaker identifies more with<br>Mike than Dave,left_to_right
1602.8999999985099,<p>Thank you for completing that task.</p><p>The final part of this session is a short questionnaire.</p><p>Press Continue.</p>,0,Continue,Continue,html-button-response,105,466525,0.0-56.0,anomymised,6564584152624795c40b73cb,6564bda6ce81f2d248073031,59026,1A,woman,NA,NA,NA,NA,NA,NA,NA,NA,NA,NA
21117.79999999702,NA,NA,NA,NA,survey-text,106,488651,0.0-57.0,anomymised,6564584152624795c40b73cb,6564bda6ce81f2d248073031,59026,1A,woman,NA,NA,NA,NA,demographics,"{""Q0"":""41"",""Q1"":""English"",""Q2"":""English"",""Q3"":""United Kingdom"",""Q4"":""British"",""Q5"":""White"",""Q6"":""Female""}",NA,NA,NA,NA
2840.300000000745,<p>This is the last question - thank you for taking part! Have you lived in the UK for the last 5 years or more?</p>,0,"Yes,No",Yes,html-button-response,107,491494,0.0-58.0,anomymised,6564584152624795c40b73cb,6564bda6ce81f2d248073031,59026,1A,woman,NA,NA,NA,NA,fiveyears,NA,NA,NA,NA,NA
