rt,stimulus,button_pressed,choices,ChosenStimulus,trial_type,trial_index,time_elapsed,internal_node_id,subject_id,study_id,session_id,subject,list,ppt_gender,url,key_press,sentence_type,verb,test_part,responses,question_order,left_part,right_part,name_order
2434.199999988079,Welcome to the experiment. Press Continue to begin.,0,Continue,Continue,html-button-response,0,2437,0.0-0.0,anomymised,6564584152624795c40b73cb,6564bda091a670bca0366f1b,61817,1A,woman,NA,NA,NA,NA,NA,NA,NA,NA,NA,NA
42579.70000000298,NA,NA,NA,NA,external-html,1,46083,0.0-1.0,anomymised,6564584152624795c40b73cb,6564bda091a670bca0366f1b,61817,1A,woman,consent.html,NA,NA,NA,NA,NA,NA,NA,NA,NA
60926,"<p>Welcome.</p><p>In this experiment we will ask you to imagine people's motivations for saying sentences.</p><p>Each trial will begin with a sentence that somebody might say to describe an event involving two different people.</p><p>For instance, someone might say <em>Harry is being recruited by Molly</em></p><p>We want you to think about which of those two people (Molly and Harry) the speaker identifies more with. For instance, why did the speaker say <em>Harry is being recruited by Molly</em> rather than <em> Molly is recruiting Harry</em>? Might that mean that the speaker is socially closer to one of the two characters?</p><p>After you have read the sentence, you will rate on a scale which of the two characters the speaker identifies more with.</p><p>You will give your answer by clicking a button on a rating scale.</p><p>Sometimes there will also be catch questions designed to make sure that you are paying attention, which ask about a different topic.</p><p>To do this task, you will have to use your imagination to think about and visualise the events, and how the speaker might relate to the characters.</p><br><p>Ready?</p>",0,Continue,Continue,html-button-response,2,107011,0.0-2.0,anomymised,6564584152624795c40b73cb,6564bda091a670bca0366f1b,61817,1A,woman,NA,NA,NA,NA,NA,NA,NA,NA,NA,NA
4630.70000000298,"<p>Before the experiment starts, we will show you an example of how you will answer the questions. Press 'Continue'.</p>",0,Continue,Continue,html-button-response,3,112643,0.0-3.0,anomymised,6564584152624795c40b73cb,6564bda091a670bca0366f1b,61817,1A,woman,NA,NA,NA,NA,NA,NA,NA,NA,NA,NA
null,Somebody says <br><em>Samuel is dining with Frank</em>,NA,NA,NA,html-keyboard-response,4,115645,0.0-4.0,anomymised,6564584152624795c40b73cb,6564bda091a670bca0366f1b,61817,1A,woman,NA,null,NA,NA,NA,NA,NA,NA,NA,NA
38404.10000000894,<img src='img/Example-trial.jpg' style='height:550px;''></img>,0,Continue,Continue,html-button-response,5,154050,0.0-5.0,anomymised,6564584152624795c40b73cb,6564bda091a670bca0366f1b,61817,1A,woman,NA,NA,NA,NA,NA,NA,NA,NA,NA,NA
19870.39999999106,<p>Ready to start the experiment?</p><br><p><strong>Remember to give an answer by clicking a button on the rating scale.</strong></p><p>Press 'Continue' to begin.</p>,0,Continue,Continue,html-button-response,6,174922,0.0-6.0,anomymised,6564584152624795c40b73cb,6564bda091a670bca0366f1b,61817,1A,woman,NA,NA,NA,NA,NA,NA,NA,NA,NA,NA
null,Somebody says<br><em>Kate is feeding Luke,NA,NA,NA,html-keyboard-response,7,177926,0.0-7.0-0.0,anomymised,6564584152624795c40b73cb,6564bda091a670bca0366f1b,61817,1A,woman,NA,null,W3 is feeding M1,feed,sentence,NA,NA,NA,NA,NA
19306.79999999702,NA,NA,NA,NA,survey-likert-extra-labels,8,197235,0.0-7.0-1.0,anomymised,6564584152624795c40b73cb,6564bda091a670bca0366f1b,61817,1A,woman,NA,NA,Somebody says<br><em>Kate is feeding Luke,feed,rating_volition,"{""Q0"":0}",[0],Kate cooked for Luke,Luke cooked for Kate,NA
null,Somebody says<br><em>Ruth is kissing Dave</em>,NA,NA,NA,html-keyboard-response,9,199250,0.0-8.0-0.0,anomymised,6564584152624795c40b73cb,6564bda091a670bca0366f1b,61817,1A,woman,NA,null,NAME1 is kissing NAME2,kiss_active,sentence,NA,NA,NA,NA,NA
17574.79999999702,NA,NA,NA,NA,survey-likert-extra-labels,10,216826,0.0-8.0-1.0,anomymised,6564584152624795c40b73cb,6564bda091a670bca0366f1b,61817,1A,woman,NA,NA,Somebody says<br><em>Ruth is kissing Dave</em>,kiss_active,rating_volition,"{""Q0"":4}",[0],The speaker identifies more with <br>Dave than Ruth,The speaker identifies more with<br>Ruth than Dave,right_to_left
null,Somebody says<br><em>Jane is teaching Dave,NA,NA,NA,html-keyboard-response,11,218828,0.0-9.0-0.0,anomymised,6564584152624795c40b73cb,6564bda091a670bca0366f1b,61817,1A,woman,NA,null,W2 is teaching M4,teach,sentence,NA,NA,NA,NA,NA
9484.59999999404,NA,NA,NA,NA,survey-likert-extra-labels,12,228314,0.0-9.0-1.0,anomymised,6564584152624795c40b73cb,6564bda091a670bca0366f1b,61817,1A,woman,NA,NA,Somebody says<br><em>Jane is teaching Dave,teach,rating_volition,"{""Q0"":0}",[0],Jane is educating Dave,Dave is educating Jane,NA
null,Somebody says<br><em>Luke is flirting with Kate</em>,NA,NA,NA,html-keyboard-response,13,230330,0.0-10.0-0.0,anomymised,6564584152624795c40b73cb,6564bda091a670bca0366f1b,61817,1A,woman,NA,null,NAME1 is flirting with NAME2,flirt_active,sentence,NA,NA,NA,NA,NA
14838.40000000596,NA,NA,NA,NA,survey-likert-extra-labels,14,245170,0.0-10.0-1.0,anomymised,6564584152624795c40b73cb,6564bda091a670bca0366f1b,61817,1A,woman,NA,NA,Somebody says<br><em>Luke is flirting with Kate</em>,flirt_active,rating_volition,"{""Q0"":4}",[0],The speaker identifies more with <br>Kate than Luke,The speaker identifies more with<br>Luke than Kate,right_to_left
null,Somebody says<br><em>Fred and Beth are playing with each other</em>,NA,NA,NA,html-keyboard-response,15,247182,0.0-11.0-0.0,anomymised,6564584152624795c40b73cb,6564bda091a670bca0366f1b,61817,1A,woman,NA,null,NAME1 and NAME2 are playing with each other,play_conjoined,sentence,NA,NA,NA,NA,NA
19106.79999999702,NA,NA,NA,NA,survey-likert-extra-labels,16,266290,0.0-11.0-1.0,anomymised,6564584152624795c40b73cb,6564bda091a670bca0366f1b,61817,1A,woman,NA,NA,Somebody says<br><em>Fred and Beth are playing with each other</em>,play_conjoined,rating_volition,"{""Q0"":4}",[0],The speaker identifies more with <br>Beth than Fred,The speaker identifies more with<br>Fred than Beth,right_to_left
null,Somebody says<br><em>Ruth is playing with Luke</em>,NA,NA,NA,html-keyboard-response,17,268307,0.0-12.0-0.0,anomymised,6564584152624795c40b73cb,6564bda091a670bca0366f1b,61817,1A,woman,NA,null,NAME1 is playing with NAME2,play_active,sentence,NA,NA,NA,NA,NA
7477.800000011921,NA,NA,NA,NA,survey-likert-extra-labels,18,275785,0.0-12.0-1.0,anomymised,6564584152624795c40b73cb,6564bda091a670bca0366f1b,61817,1A,woman,NA,NA,Somebody says<br><em>Ruth is playing with Luke</em>,play_active,rating_volition,"{""Q0"":2}",[0],The speaker identifies more with <br>Ruth than Luke,The speaker identifies more with<br>Luke than Ruth,left_to_right
null,Somebody says<br><em>Ruth is chasing Kate,NA,NA,NA,html-keyboard-response,19,277787,0.0-13.0-0.0,anomymised,6564584152624795c40b73cb,6564bda091a670bca0366f1b,61817,1A,woman,NA,null,W1 is chasing W3,chase,sentence,NA,NA,NA,NA,NA
16493.29999999702,NA,NA,NA,NA,survey-likert-extra-labels,20,294281,0.0-13.0-1.0,anomymised,6564584152624795c40b73cb,6564bda091a670bca0366f1b,61817,1A,woman,NA,NA,Somebody says<br><em>Ruth is chasing Kate,chase,rating_volition,"{""Q0"":0}",[0],Ruth is behind Kate,Kate is behind Ruth,NA
null,Somebody says<br><em>Luke is arguing with Fred</em>,NA,NA,NA,html-keyboard-response,21,296282,0.0-14.0-0.0,anomymised,6564584152624795c40b73cb,6564bda091a670bca0366f1b,61817,1A,woman,NA,null,NAME1 is arguing with NAME2,argue_active,sentence,NA,NA,NA,NA,NA
22205.29999999702,NA,NA,NA,NA,survey-likert-extra-labels,22,318488,0.0-14.0-1.0,anomymised,6564584152624795c40b73cb,6564bda091a670bca0366f1b,61817,1A,woman,NA,NA,Somebody says<br><em>Luke is arguing with Fred</em>,argue_active,rating_volition,"{""Q0"":2}",[0],The speaker identifies more with <br>Luke than Fred,The speaker identifies more with<br>Fred than Luke,left_to_right
null,Somebody says<br><em>Fred is being challenged by Ruth</em>,NA,NA,NA,html-keyboard-response,23,320491,0.0-15.0-0.0,anomymised,6564584152624795c40b73cb,6564bda091a670bca0366f1b,61817,1A,woman,NA,null,NAME1 is being challenged by NAME2,challenge_passive,sentence,NA,NA,NA,NA,NA
26164.60000000894,NA,NA,NA,NA,survey-likert-extra-labels,24,346656,0.0-15.0-1.0,anomymised,6564584152624795c40b73cb,6564bda091a670bca0366f1b,61817,1A,woman,NA,NA,Somebody says<br><em>Fred is being challenged by Ruth</em>,challenge_passive,rating_volition,"{""Q0"":5}",[0],The speaker identifies more with <br>Ruth than Fred,The speaker identifies more with<br>Fred than Ruth,right_to_left
null,Somebody says<br><em>Jane and Fred are flirting with each other</em>,NA,NA,NA,html-keyboard-response,25,348664,0.0-16.0-0.0,anomymised,6564584152624795c40b73cb,6564bda091a670bca0366f1b,61817,1A,woman,NA,null,NAME1 and NAME2 are flirting with each other,flirt_conjoined,sentence,NA,NA,NA,NA,NA
6031.4000000059605,NA,NA,NA,NA,survey-likert-extra-labels,26,354696,0.0-16.0-1.0,anomymised,6564584152624795c40b73cb,6564bda091a670bca0366f1b,61817,1A,woman,NA,NA,Somebody says<br><em>Jane and Fred are flirting with each other</em>,flirt_conjoined,rating_volition,"{""Q0"":2}",[0],The speaker identifies more with <br>Jane than Fred,The speaker identifies more with<br>Fred than Jane,left_to_right
null,Somebody says<br><em>Kate and Luke are hugging each other</em>,NA,NA,NA,html-keyboard-response,27,356698,0.0-17.0-0.0,anomymised,6564584152624795c40b73cb,6564bda091a670bca0366f1b,61817,1A,woman,NA,null,NAME1 and NAME2 are hugging each other,hug_conjoined,sentence,NA,NA,NA,NA,NA
7364.600000008941,NA,NA,NA,NA,survey-likert-extra-labels,28,364064,0.0-17.0-1.0,anomymised,6564584152624795c40b73cb,6564bda091a670bca0366f1b,61817,1A,woman,NA,NA,Somebody says<br><em>Kate and Luke are hugging each other</em>,hug_conjoined,rating_volition,"{""Q0"":4}",[0],The speaker identifies more with <br>Luke than Kate,The speaker identifies more with<br>Kate than Luke,right_to_left
null,Somebody says<br><em>Jane is shouting at Luke</em>,NA,NA,NA,html-keyboard-response,29,366065,0.0-18.0-0.0,anomymised,6564584152624795c40b73cb,6564bda091a670bca0366f1b,61817,1A,woman,NA,null,NAME1 is shouting at NAME2,shout_active,sentence,NA,NA,NA,NA,NA
11045.5,NA,NA,NA,NA,survey-likert-extra-labels,30,377112,0.0-18.0-1.0,anomymised,6564584152624795c40b73cb,6564bda091a670bca0366f1b,61817,1A,woman,NA,NA,Somebody says<br><em>Jane is shouting at Luke</em>,shout_active,rating_volition,"{""Q0"":4}",[0],The speaker identifies more with <br>Luke than Jane,The speaker identifies more with<br>Jane than Luke,right_to_left
null,Somebody says<br><em>Ruth is being opposed by Mike</em>,NA,NA,NA,html-keyboard-response,31,379122,0.0-19.0-0.0,anomymised,6564584152624795c40b73cb,6564bda091a670bca0366f1b,61817,1A,woman,NA,null,NAME1 is being opposed by NAME2,oppose_passive,sentence,NA,NA,NA,NA,NA
14892.60000000894,NA,NA,NA,NA,survey-likert-extra-labels,32,394016,0.0-19.0-1.0,anomymised,6564584152624795c40b73cb,6564bda091a670bca0366f1b,61817,1A,woman,NA,NA,Somebody says<br><em>Ruth is being opposed by Mike</em>,oppose_passive,rating_volition,"{""Q0"":2}",[0],The speaker identifies more with <br>Ruth than Mike,The speaker identifies more with<br>Mike than Ruth,left_to_right
null,Somebody says<br><em>Kate is dancing with Luke</em>,NA,NA,NA,html-keyboard-response,33,396023,0.0-20.0-0.0,anomymised,6564584152624795c40b73cb,6564bda091a670bca0366f1b,61817,1A,woman,NA,null,NAME1 is dancing with NAME2,dance_active,sentence,NA,NA,NA,NA,NA
17247.89999999106,NA,NA,NA,NA,survey-likert-extra-labels,34,413272,0.0-20.0-1.0,anomymised,6564584152624795c40b73cb,6564bda091a670bca0366f1b,61817,1A,woman,NA,NA,Somebody says<br><em>Kate is dancing with Luke</em>,dance_active,rating_volition,"{""Q0"":2}",[0],The speaker identifies more with <br>Kate than Luke,The speaker identifies more with<br>Luke than Kate,left_to_right
null,Somebody says<br><em>Dave is being shouted at by Jane</em>,NA,NA,NA,html-keyboard-response,35,415276,0.0-21.0-0.0,anomymised,6564584152624795c40b73cb,6564bda091a670bca0366f1b,61817,1A,woman,NA,null,NAME1 is being shouted at by NAME2,shout_passive,sentence,NA,NA,NA,NA,NA
17290.20000000298,NA,NA,NA,NA,survey-likert-extra-labels,36,432567,0.0-21.0-1.0,anomymised,6564584152624795c40b73cb,6564bda091a670bca0366f1b,61817,1A,woman,NA,NA,Somebody says<br><em>Dave is being shouted at by Jane</em>,shout_passive,rating_volition,"{""Q0"":1}",[0],The speaker identifies more with <br>Dave than Jane,The speaker identifies more with<br>Jane than Dave,left_to_right
null,Somebody says<br><em>Jane is carrying Beth,NA,NA,NA,html-keyboard-response,37,434575,0.0-22.0-0.0,anomymised,6564584152624795c40b73cb,6564bda091a670bca0366f1b,61817,1A,woman,NA,null,W2 is carrying W4,carry,sentence,NA,NA,NA,NA,NA
6415.70000000298,NA,NA,NA,NA,survey-likert-extra-labels,38,440991,0.0-22.0-1.0,anomymised,6564584152624795c40b73cb,6564bda091a670bca0366f1b,61817,1A,woman,NA,NA,Somebody says<br><em>Jane is carrying Beth,carry,rating_volition,"{""Q0"":0}",[0],Jane is transporting Beth,Beth is transporting Jane,NA
null,Somebody says<br><em>Fred is meeting Ruth</em>,NA,NA,NA,html-keyboard-response,39,442993,0.0-23.0-0.0,anomymised,6564584152624795c40b73cb,6564bda091a670bca0366f1b,61817,1A,woman,NA,null,NAME1 is meeting NAME2,meet_active,sentence,NA,NA,NA,NA,NA
7533.79999999702,NA,NA,NA,NA,survey-likert-extra-labels,40,450527,0.0-23.0-1.0,anomymised,6564584152624795c40b73cb,6564bda091a670bca0366f1b,61817,1A,woman,NA,NA,Somebody says<br><em>Fred is meeting Ruth</em>,meet_active,rating_volition,"{""Q0"":2}",[0],The speaker identifies more with <br>Fred than Ruth,The speaker identifies more with<br>Ruth than Fred,left_to_right
null,Somebody says<br><em>Mike is being seduced by Ruth</em>,NA,NA,NA,html-keyboard-response,41,452531,0.0-24.0-0.0,anomymised,6564584152624795c40b73cb,6564bda091a670bca0366f1b,61817,1A,woman,NA,null,NAME1 is being seduced by NAME2,seduce_passive,sentence,NA,NA,NA,NA,NA
10762.800000011921,NA,NA,NA,NA,survey-likert-extra-labels,42,463295,0.0-24.0-1.0,anomymised,6564584152624795c40b73cb,6564bda091a670bca0366f1b,61817,1A,woman,NA,NA,Somebody says<br><em>Mike is being seduced by Ruth</em>,seduce_passive,rating_volition,"{""Q0"":2}",[0],The speaker identifies more with <br>Mike than Ruth,The speaker identifies more with<br>Ruth than Mike,left_to_right
null,Somebody says<br><em>Mike is being greeted by Ruth</em>,NA,NA,NA,html-keyboard-response,43,465307,0.0-25.0-0.0,anomymised,6564584152624795c40b73cb,6564bda091a670bca0366f1b,61817,1A,woman,NA,null,NAME1 is being greeted by NAME2,greet_passive,sentence,NA,NA,NA,NA,NA
10691.09999999404,NA,NA,NA,NA,survey-likert-extra-labels,44,475999,0.0-25.0-1.0,anomymised,6564584152624795c40b73cb,6564bda091a670bca0366f1b,61817,1A,woman,NA,NA,Somebody says<br><em>Mike is being greeted by Ruth</em>,greet_passive,rating_volition,"{""Q0"":2}",[0],The speaker identifies more with <br>Mike than Ruth,The speaker identifies more with<br>Ruth than Mike,left_to_right
null,Somebody says<br><em>Mike is seducing Beth</em>,NA,NA,NA,html-keyboard-response,45,478005,0.0-26.0-0.0,anomymised,6564584152624795c40b73cb,6564bda091a670bca0366f1b,61817,1A,woman,NA,null,NAME1 is seducing NAME2,seduce_active,sentence,NA,NA,NA,NA,NA
8361.5,NA,NA,NA,NA,survey-likert-extra-labels,46,486367,0.0-26.0-1.0,anomymised,6564584152624795c40b73cb,6564bda091a670bca0366f1b,61817,1A,woman,NA,NA,Somebody says<br><em>Mike is seducing Beth</em>,seduce_active,rating_volition,"{""Q0"":4}",[0],The speaker identifies more with <br>Beth than Mike,The speaker identifies more with<br>Mike than Beth,right_to_left
null,Somebody says<br><em>Luke is driving Fred,NA,NA,NA,html-keyboard-response,47,488373,0.0-27.0-0.0,anomymised,6564584152624795c40b73cb,6564bda091a670bca0366f1b,61817,1A,woman,NA,null,M1 is driving M3,drive,sentence,NA,NA,NA,NA,NA
10040.60000000894,NA,NA,NA,NA,survey-likert-extra-labels,48,498415,0.0-27.0-1.0,anomymised,6564584152624795c40b73cb,6564bda091a670bca0366f1b,61817,1A,woman,NA,NA,Somebody says<br><em>Luke is driving Fred,drive,rating_volition,"{""Q0"":6}",[0],Luke is Fred's passenger,Fred is Luke's passenger,NA
null,Somebody says<br><em>Beth is looking at Dave</em>,NA,NA,NA,html-keyboard-response,49,500431,0.0-28.0-0.0,anomymised,6564584152624795c40b73cb,6564bda091a670bca0366f1b,61817,1A,woman,NA,null,NAME1 is looking at NAME2,look_active,sentence,NA,NA,NA,NA,NA
10191.20000000298,NA,NA,NA,NA,survey-likert-extra-labels,50,510623,0.0-28.0-1.0,anomymised,6564584152624795c40b73cb,6564bda091a670bca0366f1b,61817,1A,woman,NA,NA,Somebody says<br><em>Beth is looking at Dave</em>,look_active,rating_volition,"{""Q0"":3}",[0],The speaker identifies more with <br>Beth than Dave,The speaker identifies more with<br>Dave than Beth,left_to_right
null,Somebody says<br><em>Beth and Mike are dancing with each other</em>,NA,NA,NA,html-keyboard-response,51,512637,0.0-29.0-0.0,anomymised,6564584152624795c40b73cb,6564bda091a670bca0366f1b,61817,1A,woman,NA,null,NAME1 and NAME2 are dancing with each other,dance_conjoined,sentence,NA,NA,NA,NA,NA
9088.60000000894,NA,NA,NA,NA,survey-likert-extra-labels,52,521726,0.0-29.0-1.0,anomymised,6564584152624795c40b73cb,6564bda091a670bca0366f1b,61817,1A,woman,NA,NA,Somebody says<br><em>Beth and Mike are dancing with each other</em>,dance_conjoined,rating_volition,"{""Q0"":2}",[0],The speaker identifies more with <br>Beth than Mike,The speaker identifies more with<br>Mike than Beth,left_to_right
null,Somebody says<br><em>Beth is copying Ruth</em>,NA,NA,NA,html-keyboard-response,53,523728,0.0-30.0-0.0,anomymised,6564584152624795c40b73cb,6564bda091a670bca0366f1b,61817,1A,woman,NA,null,NAME1 is copying NAME2,copy_active,sentence,NA,NA,NA,NA,NA
6845.4000000059605,NA,NA,NA,NA,survey-likert-extra-labels,54,530574,0.0-30.0-1.0,anomymised,6564584152624795c40b73cb,6564bda091a670bca0366f1b,61817,1A,woman,NA,NA,Somebody says<br><em>Beth is copying Ruth</em>,copy_active,rating_volition,"{""Q0"":3}",[0],The speaker identifies more with <br>Ruth than Beth,The speaker identifies more with<br>Beth than Ruth,right_to_left
null,Somebody says<br><em>Dave and Jane are meeting each other</em>,NA,NA,NA,html-keyboard-response,55,532585,0.0-31.0-0.0,anomymised,6564584152624795c40b73cb,6564bda091a670bca0366f1b,61817,1A,woman,NA,null,NAME1 and NAME2 are meeting each other,meet_conjoined,sentence,NA,NA,NA,NA,NA
6572.699999988079,NA,NA,NA,NA,survey-likert-extra-labels,56,539158,0.0-31.0-1.0,anomymised,6564584152624795c40b73cb,6564bda091a670bca0366f1b,61817,1A,woman,NA,NA,Somebody says<br><em>Dave and Jane are meeting each other</em>,meet_conjoined,rating_volition,"{""Q0"":4}",[0],The speaker identifies more with <br>Jane than Dave,The speaker identifies more with<br>Dave than Jane,right_to_left
null,Somebody says<br><em>Dave is fighting with Jane</em>,NA,NA,NA,html-keyboard-response,57,541160,0.0-32.0-0.0,anomymised,6564584152624795c40b73cb,6564bda091a670bca0366f1b,61817,1A,woman,NA,null,NAME1 is fighting with NAME2,fight_active,sentence,NA,NA,NA,NA,NA
16333.10000000894,NA,NA,NA,NA,survey-likert-extra-labels,58,557494,0.0-32.0-1.0,anomymised,6564584152624795c40b73cb,6564bda091a670bca0366f1b,61817,1A,woman,NA,NA,Somebody says<br><em>Dave is fighting with Jane</em>,fight_active,rating_volition,"{""Q0"":2}",[0],The speaker identifies more with <br>Dave than Jane,The speaker identifies more with<br>Jane than Dave,left_to_right
null,Somebody says<br><em>Mike is posing for Dave,NA,NA,NA,html-keyboard-response,59,559499,0.0-33.0-0.0,anomymised,6564584152624795c40b73cb,6564bda091a670bca0366f1b,61817,1A,woman,NA,null,M2 is posing for M4,pose,sentence,NA,NA,NA,NA,NA
10545.79999999702,NA,NA,NA,NA,survey-likert-extra-labels,60,570046,0.0-33.0-1.0,anomymised,6564584152624795c40b73cb,6564bda091a670bca0366f1b,61817,1A,woman,NA,NA,Somebody says<br><em>Mike is posing for Dave,pose,rating_volition,"{""Q0"":0}",[0],Mike is modelling for Dave,Dave is modelling for Mike,NA
null,Somebody says<br><em>Luke is touching Mike</em>,NA,NA,NA,html-keyboard-response,61,572048,0.0-34.0-0.0,anomymised,6564584152624795c40b73cb,6564bda091a670bca0366f1b,61817,1A,woman,NA,null,NAME1 is touching NAME2,touch_active,sentence,NA,NA,NA,NA,NA
7372.399999991059,NA,NA,NA,NA,survey-likert-extra-labels,62,579422,0.0-34.0-1.0,anomymised,6564584152624795c40b73cb,6564bda091a670bca0366f1b,61817,1A,woman,NA,NA,Somebody says<br><em>Luke is touching Mike</em>,touch_active,rating_volition,"{""Q0"":2}",[0],The speaker identifies more with <br>Luke than Mike,The speaker identifies more with<br>Mike than Luke,left_to_right
null,Somebody says<br><em>Dave is opposing Luke</em>,NA,NA,NA,html-keyboard-response,63,581423,0.0-35.0-0.0,anomymised,6564584152624795c40b73cb,6564bda091a670bca0366f1b,61817,1A,woman,NA,null,NAME1 is opposing NAME2,oppose_active,sentence,NA,NA,NA,NA,NA
7101.4000000059605,NA,NA,NA,NA,survey-likert-extra-labels,64,588526,0.0-35.0-1.0,anomymised,6564584152624795c40b73cb,6564bda091a670bca0366f1b,61817,1A,woman,NA,NA,Somebody says<br><em>Dave is opposing Luke</em>,oppose_active,rating_volition,"{""Q0"":4}",[0],The speaker identifies more with <br>Luke than Dave,The speaker identifies more with<br>Dave than Luke,right_to_left
null,Somebody says<br><em>Fred is being copied by Mike</em>,NA,NA,NA,html-keyboard-response,65,590540,0.0-36.0-0.0,anomymised,6564584152624795c40b73cb,6564bda091a670bca0366f1b,61817,1A,woman,NA,null,NAME1 is being copied by NAME2,copy_passive,sentence,NA,NA,NA,NA,NA
14945,NA,NA,NA,NA,survey-likert-extra-labels,66,605486,0.0-36.0-1.0,anomymised,6564584152624795c40b73cb,6564bda091a670bca0366f1b,61817,1A,woman,NA,NA,Somebody says<br><em>Fred is being copied by Mike</em>,copy_passive,rating_volition,"{""Q0"":5}",[0],The speaker identifies more with <br>Mike than Fred,The speaker identifies more with<br>Fred than Mike,right_to_left
null,Somebody says<br><em>Ruth is shouting at Dave</em>,NA,NA,NA,html-keyboard-response,67,607502,0.0-37.0-0.0,anomymised,6564584152624795c40b73cb,6564bda091a670bca0366f1b,61817,1A,woman,NA,null,NAME1 is shouting at NAME2,shout_active,sentence,NA,NA,NA,NA,NA
16886.89999999106,NA,NA,NA,NA,survey-likert-extra-labels,68,624389,0.0-37.0-1.0,anomymised,6564584152624795c40b73cb,6564bda091a670bca0366f1b,61817,1A,woman,NA,NA,Somebody says<br><em>Ruth is shouting at Dave</em>,shout_active,rating_volition,"{""Q0"":3}",[0],The speaker identifies more with <br>Ruth than Dave,The speaker identifies more with<br>Dave than Ruth,left_to_right
null,Somebody says<br><em>Fred is being looked at by Jane</em>,NA,NA,NA,html-keyboard-response,69,626391,0.0-38.0-0.0,anomymised,6564584152624795c40b73cb,6564bda091a670bca0366f1b,61817,1A,woman,NA,null,NAME1 is being looked at by NAME2,look_passive,sentence,NA,NA,NA,NA,NA
11013.40000000596,NA,NA,NA,NA,survey-likert-extra-labels,70,637405,0.0-38.0-1.0,anomymised,6564584152624795c40b73cb,6564bda091a670bca0366f1b,61817,1A,woman,NA,NA,Somebody says<br><em>Fred is being looked at by Jane</em>,look_passive,rating_volition,"{""Q0"":4}",[0],The speaker identifies more with <br>Jane than Fred,The speaker identifies more with<br>Fred than Jane,right_to_left
null,Somebody says<br><em>Kate is marrying Mike</em>,NA,NA,NA,html-keyboard-response,71,639417,0.0-39.0-0.0,anomymised,6564584152624795c40b73cb,6564bda091a670bca0366f1b,61817,1A,woman,NA,null,NAME1 is marrying NAME2,marry_active,sentence,NA,NA,NA,NA,NA
10851.5,NA,NA,NA,NA,survey-likert-extra-labels,72,650269,0.0-39.0-1.0,anomymised,6564584152624795c40b73cb,6564bda091a670bca0366f1b,61817,1A,woman,NA,NA,Somebody says<br><em>Kate is marrying Mike</em>,marry_active,rating_volition,"{""Q0"":2}",[0],The speaker identifies more with <br>Kate than Mike,The speaker identifies more with<br>Mike than Kate,left_to_right
null,Somebody says<br><em>Mike is reminding Beth,NA,NA,NA,html-keyboard-response,73,652277,0.0-40.0-0.0,anomymised,6564584152624795c40b73cb,6564bda091a670bca0366f1b,61817,1A,woman,NA,null,M2 is reminding W4,remind,sentence,NA,NA,NA,NA,NA
9223.60000000894,NA,NA,NA,NA,survey-likert-extra-labels,74,661501,0.0-40.0-1.0,anomymised,6564584152624795c40b73cb,6564bda091a670bca0366f1b,61817,1A,woman,NA,NA,Somebody says<br><em>Mike is reminding Beth,remind,rating_volition,"{""Q0"":0}",[0],Mike is telling Beth again,Beth is telling Mike again,NA
null,Somebody says<br><em>Mike and Luke are fighting with each other</em>,NA,NA,NA,html-keyboard-response,75,663506,0.0-41.0-0.0,anomymised,6564584152624795c40b73cb,6564bda091a670bca0366f1b,61817,1A,woman,NA,null,NAME1 and NAME2 are fighting with each other,fight_conjoined,sentence,NA,NA,NA,NA,NA
5649.9000000059605,NA,NA,NA,NA,survey-likert-extra-labels,76,669157,0.0-41.0-1.0,anomymised,6564584152624795c40b73cb,6564bda091a670bca0366f1b,61817,1A,woman,NA,NA,Somebody says<br><em>Mike and Luke are fighting with each other</em>,fight_conjoined,rating_volition,"{""Q0"":2}",[0],The speaker identifies more with <br>Mike than Luke,The speaker identifies more with<br>Luke than Mike,left_to_right
null,Somebody says<br><em>Luke and Jane are arguing with each other</em>,NA,NA,NA,html-keyboard-response,77,671160,0.0-42.0-0.0,anomymised,6564584152624795c40b73cb,6564bda091a670bca0366f1b,61817,1A,woman,NA,null,NAME1 and NAME2 are arguing with each other,argue_conjoined,sentence,NA,NA,NA,NA,NA
4075.7999999970198,NA,NA,NA,NA,survey-likert-extra-labels,78,675237,0.0-42.0-1.0,anomymised,6564584152624795c40b73cb,6564bda091a670bca0366f1b,61817,1A,woman,NA,NA,Somebody says<br><em>Luke and Jane are arguing with each other</em>,argue_conjoined,rating_volition,"{""Q0"":2}",[0],The speaker identifies more with <br>Luke than Jane,The speaker identifies more with<br>Jane than Luke,left_to_right
null,Somebody says<br><em>Fred is hiring Ruth,NA,NA,NA,html-keyboard-response,79,677239,0.0-43.0-0.0,anomymised,6564584152624795c40b73cb,6564bda091a670bca0366f1b,61817,1A,woman,NA,null,M3 is hiring W1,hire,sentence,NA,NA,NA,NA,NA
6949.100000008941,NA,NA,NA,NA,survey-likert-extra-labels,80,684189,0.0-43.0-1.0,anomymised,6564584152624795c40b73cb,6564bda091a670bca0366f1b,61817,1A,woman,NA,NA,Somebody says<br><em>Fred is hiring Ruth,hire,rating_volition,"{""Q0"":0}",[0],Fred is employing Ruth,Ruth is employing Fred,NA
null,Somebody says<br><em>Beth and Jane are talking with each other</em>,NA,NA,NA,html-keyboard-response,81,686192,0.0-44.0-0.0,anomymised,6564584152624795c40b73cb,6564bda091a670bca0366f1b,61817,1A,woman,NA,null,NAME1 and NAME2 are talking with each other,talk_conjoined,sentence,NA,NA,NA,NA,NA
5884,NA,NA,NA,NA,survey-likert-extra-labels,82,692077,0.0-44.0-1.0,anomymised,6564584152624795c40b73cb,6564bda091a670bca0366f1b,61817,1A,woman,NA,NA,Somebody says<br><em>Beth and Jane are talking with each other</em>,talk_conjoined,rating_volition,"{""Q0"":4}",[0],The speaker identifies more with <br>Jane than Beth,The speaker identifies more with<br>Beth than Jane,right_to_left
null,Somebody says<br><em>Mike and Jane are marrying each other</em>,NA,NA,NA,html-keyboard-response,83,694090,0.0-45.0-0.0,anomymised,6564584152624795c40b73cb,6564bda091a670bca0366f1b,61817,1A,woman,NA,null,NAME1 and NAME2 are marrying each other,marry_conjoined,sentence,NA,NA,NA,NA,NA
11433.5,NA,NA,NA,NA,survey-likert-extra-labels,84,705524,0.0-45.0-1.0,anomymised,6564584152624795c40b73cb,6564bda091a670bca0366f1b,61817,1A,woman,NA,NA,Somebody says<br><em>Mike and Jane are marrying each other</em>,marry_conjoined,rating_volition,"{""Q0"":1}",[0],The speaker identifies more with <br>Mike than Jane,The speaker identifies more with<br>Jane than Mike,left_to_right
null,Somebody says<br><em>Beth and Kate are touching each other</em>,NA,NA,NA,html-keyboard-response,85,707539,0.0-46.0-0.0,anomymised,6564584152624795c40b73cb,6564bda091a670bca0366f1b,61817,1A,woman,NA,null,NAME1 and NAME2 are touching each other,touch_conjoined,sentence,NA,NA,NA,NA,NA
5448.4000000059605,NA,NA,NA,NA,survey-likert-extra-labels,86,712988,0.0-46.0-1.0,anomymised,6564584152624795c40b73cb,6564bda091a670bca0366f1b,61817,1A,woman,NA,NA,Somebody says<br><em>Beth and Kate are touching each other</em>,touch_conjoined,rating_volition,"{""Q0"":4}",[0],The speaker identifies more with <br>Kate than Beth,The speaker identifies more with<br>Beth than Kate,right_to_left
null,Somebody says<br><em>Dave is talking to Jane</em>,NA,NA,NA,html-keyboard-response,87,714992,0.0-47.0-0.0,anomymised,6564584152624795c40b73cb,6564bda091a670bca0366f1b,61817,1A,woman,NA,null,NAME1 is talking to NAME2,talk_active,sentence,NA,NA,NA,NA,NA
6635.699999988079,NA,NA,NA,NA,survey-likert-extra-labels,88,721628,0.0-47.0-1.0,anomymised,6564584152624795c40b73cb,6564bda091a670bca0366f1b,61817,1A,woman,NA,NA,Somebody says<br><em>Dave is talking to Jane</em>,talk_active,rating_volition,"{""Q0"":4}",[0],The speaker identifies more with <br>Jane than Dave,The speaker identifies more with<br>Dave than Jane,right_to_left
null,Somebody says<br><em>Luke and Beth are kissing each other</em>,NA,NA,NA,html-keyboard-response,89,723637,0.0-48.0-0.0,anomymised,6564584152624795c40b73cb,6564bda091a670bca0366f1b,61817,1A,woman,NA,null,NAME1 and NAME2 are kissing each other,kiss_conjoined,sentence,NA,NA,NA,NA,NA
8173.600000008941,NA,NA,NA,NA,survey-likert-extra-labels,90,731812,0.0-48.0-1.0,anomymised,6564584152624795c40b73cb,6564bda091a670bca0366f1b,61817,1A,woman,NA,NA,Somebody says<br><em>Luke and Beth are kissing each other</em>,kiss_conjoined,rating_volition,"{""Q0"":2}",[0],The speaker identifies more with <br>Luke than Beth,The speaker identifies more with<br>Beth than Luke,left_to_right
null,Somebody says<br><em>Fred is hugging Luke</em>,NA,NA,NA,html-keyboard-response,91,733817,0.0-49.0-0.0,anomymised,6564584152624795c40b73cb,6564bda091a670bca0366f1b,61817,1A,woman,NA,null,NAME1 is hugging NAME2,hug_active,sentence,NA,NA,NA,NA,NA
9249.70000000298,NA,NA,NA,NA,survey-likert-extra-labels,92,743068,0.0-49.0-1.0,anomymised,6564584152624795c40b73cb,6564bda091a670bca0366f1b,61817,1A,woman,NA,NA,Somebody says<br><em>Fred is hugging Luke</em>,hug_active,rating_volition,"{""Q0"":2}",[0],The speaker identifies more with <br>Fred than Luke,The speaker identifies more with<br>Luke than Fred,left_to_right
null,Somebody says<br><em>Fred is greeting Beth</em>,NA,NA,NA,html-keyboard-response,93,745085,0.0-50.0-0.0,anomymised,6564584152624795c40b73cb,6564bda091a670bca0366f1b,61817,1A,woman,NA,null,NAME1 is greeting NAME2,greet_active,sentence,NA,NA,NA,NA,NA
4662.20000000298,NA,NA,NA,NA,survey-likert-extra-labels,94,749748,0.0-50.0-1.0,anomymised,6564584152624795c40b73cb,6564bda091a670bca0366f1b,61817,1A,woman,NA,NA,Somebody says<br><em>Fred is greeting Beth</em>,greet_active,rating_volition,"{""Q0"":4}",[0],The speaker identifies more with <br>Beth than Fred,The speaker identifies more with<br>Fred than Beth,right_to_left
null,Somebody says<br><em>Mike is being touched by Jane</em>,NA,NA,NA,html-keyboard-response,95,751753,0.0-51.0-0.0,anomymised,6564584152624795c40b73cb,6564bda091a670bca0366f1b,61817,1A,woman,NA,null,NAME1 is being touched by NAME2,touch_passive,sentence,NA,NA,NA,NA,NA
8610.09999999404,NA,NA,NA,NA,survey-likert-extra-labels,96,760364,0.0-51.0-1.0,anomymised,6564584152624795c40b73cb,6564bda091a670bca0366f1b,61817,1A,woman,NA,NA,Somebody says<br><em>Mike is being touched by Jane</em>,touch_passive,rating_volition,"{""Q0"":2}",[0],The speaker identifies more with <br>Mike than Jane,The speaker identifies more with<br>Jane than Mike,left_to_right
null,Somebody says<br><em>Mike is challenging Kate</em>,NA,NA,NA,html-keyboard-response,97,762368,0.0-52.0-0.0,anomymised,6564584152624795c40b73cb,6564bda091a670bca0366f1b,61817,1A,woman,NA,null,NAME1 is challenging NAME2,challenge_active,sentence,NA,NA,NA,NA,NA
6602.5,NA,NA,NA,NA,survey-likert-extra-labels,98,768972,0.0-52.0-1.0,anomymised,6564584152624795c40b73cb,6564bda091a670bca0366f1b,61817,1A,woman,NA,NA,Somebody says<br><em>Mike is challenging Kate</em>,challenge_active,rating_volition,"{""Q0"":2}",[0],The speaker identifies more with <br>Mike than Kate,The speaker identifies more with<br>Kate than Mike,left_to_right
null,Somebody says<br><em>Jane is being kissed by Ruth</em>,NA,NA,NA,html-keyboard-response,99,770987,0.0-53.0-0.0,anomymised,6564584152624795c40b73cb,6564bda091a670bca0366f1b,61817,1A,woman,NA,null,NAME1 is being kissed by NAME2,kiss_passive,sentence,NA,NA,NA,NA,NA
5911.5999999940395,NA,NA,NA,NA,survey-likert-extra-labels,100,776899,0.0-53.0-1.0,anomymised,6564584152624795c40b73cb,6564bda091a670bca0366f1b,61817,1A,woman,NA,NA,Somebody says<br><em>Jane is being kissed by Ruth</em>,kiss_passive,rating_volition,"{""Q0"":2}",[0],The speaker identifies more with <br>Jane than Ruth,The speaker identifies more with<br>Ruth than Jane,left_to_right
null,Somebody says<br><em>Kate and Jane are shouting at each other</em>,NA,NA,NA,html-keyboard-response,101,778915,0.0-54.0-0.0,anomymised,6564584152624795c40b73cb,6564bda091a670bca0366f1b,61817,1A,woman,NA,null,NAME1 and NAME2 are shouting at each other,shout_conjoined,sentence,NA,NA,NA,NA,NA
5527.79999999702,NA,NA,NA,NA,survey-likert-extra-labels,102,784443,0.0-54.0-1.0,anomymised,6564584152624795c40b73cb,6564bda091a670bca0366f1b,61817,1A,woman,NA,NA,Somebody says<br><em>Kate and Jane are shouting at each other</em>,shout_conjoined,rating_volition,"{""Q0"":1}",[0],The speaker identifies more with <br>Kate than Jane,The speaker identifies more with<br>Jane than Kate,left_to_right
null,Somebody says<br><em>Ruth is being hugged by Mike</em>,NA,NA,NA,html-keyboard-response,103,786458,0.0-55.0-0.0,anomymised,6564584152624795c40b73cb,6564bda091a670bca0366f1b,61817,1A,woman,NA,null,NAME1 is being hugged by NAME2,hug_passive,sentence,NA,NA,NA,NA,NA
6112.5,NA,NA,NA,NA,survey-likert-extra-labels,104,792571,0.0-55.0-1.0,anomymised,6564584152624795c40b73cb,6564bda091a670bca0366f1b,61817,1A,woman,NA,NA,Somebody says<br><em>Ruth is being hugged by Mike</em>,hug_passive,rating_volition,"{""Q0"":2}",[0],The speaker identifies more with <br>Ruth than Mike,The speaker identifies more with<br>Mike than Ruth,left_to_right
3182.7000000029802,<p>Thank you for completing that task.</p><p>The final part of this session is a short questionnaire.</p><p>Press Continue.</p>,0,Continue,Continue,html-button-response,105,795755,0.0-56.0,anomymised,6564584152624795c40b73cb,6564bda091a670bca0366f1b,61817,1A,woman,NA,NA,NA,NA,NA,NA,NA,NA,NA,NA
42429.20000000298,NA,NA,NA,NA,survey-text,106,839203,0.0-57.0,anomymised,6564584152624795c40b73cb,6564bda091a670bca0366f1b,61817,1A,woman,NA,NA,NA,NA,demographics,"{""Q0"":""59"",""Q1"":""English "",""Q2"":""English "",""Q3"":""United Kingdom"",""Q4"":""British"",""Q5"":""White "",""Q6"":""Female""}",NA,NA,NA,NA
3981.7999999970198,<p>This is the last question - thank you for taking part! Have you lived in the UK for the last 5 years or more?</p>,0,"Yes,No",Yes,html-button-response,107,843187,0.0-58.0,anomymised,6564584152624795c40b73cb,6564bda091a670bca0366f1b,61817,1A,woman,NA,NA,NA,NA,fiveyears,NA,NA,NA,NA,NA
