rt,stimulus,button_pressed,choices,ChosenStimulus,trial_type,trial_index,time_elapsed,internal_node_id,subject_id,study_id,session_id,subject,list,ppt_gender,url,key_press,sentence_type,verb,test_part,responses,question_order,left_part,right_part,name_order
1862.5999999996275,Welcome to the experiment. Press Continue to begin.,0,Continue,Continue,html-button-response,0,1864,0.0-0.0,anomymised,6564584152624795c40b73cb,65645f6aea18e2fca1c760bc,63607,1A,woman,NA,NA,NA,NA,NA,NA,NA,NA,NA,NA
5498.600000000559,NA,NA,NA,NA,external-html,1,8439,0.0-1.0,anomymised,6564584152624795c40b73cb,65645f6aea18e2fca1c760bc,63607,1A,woman,consent.html,NA,NA,NA,NA,NA,NA,NA,NA,NA
31768.400000000373,"<p>Welcome.</p><p>In this experiment we will ask you to imagine people's motivations for saying sentences.</p><p>Each trial will begin with a sentence that somebody might say to describe an event involving two different people.</p><p>For instance, someone might say <em>Harry is being recruited by Molly</em></p><p>We want you to think about which of those two people (Molly and Harry) the speaker identifies more with. For instance, why did the speaker say <em>Harry is being recruited by Molly</em> rather than <em> Molly is recruiting Harry</em>? Might that mean that the speaker is socially closer to one of the two characters?</p><p>After you have read the sentence, you will rate on a scale which of the two characters the speaker identifies more with.</p><p>You will give your answer by clicking a button on a rating scale.</p><p>Sometimes there will also be catch questions designed to make sure that you are paying attention, which ask about a different topic.</p><p>To do this task, you will have to use your imagination to think about and visualise the events, and how the speaker might relate to the characters.</p><br><p>Ready?</p>",0,Continue,Continue,html-button-response,2,40208,0.0-2.0,anomymised,6564584152624795c40b73cb,65645f6aea18e2fca1c760bc,63607,1A,woman,NA,NA,NA,NA,NA,NA,NA,NA,NA,NA
1966,"<p>Before the experiment starts, we will show you an example of how you will answer the questions. Press 'Continue'.</p>",0,Continue,Continue,html-button-response,3,43176,0.0-3.0,anomymised,6564584152624795c40b73cb,65645f6aea18e2fca1c760bc,63607,1A,woman,NA,NA,NA,NA,NA,NA,NA,NA,NA,NA
null,Somebody says <br><em>Samuel is dining with Frank</em>,NA,NA,NA,html-keyboard-response,4,46196,0.0-4.0,anomymised,6564584152624795c40b73cb,65645f6aea18e2fca1c760bc,63607,1A,woman,NA,null,NA,NA,NA,NA,NA,NA,NA,NA
40924.09999999963,<img src='img/Example-trial.jpg' style='height:550px;''></img>,0,Continue,Continue,html-button-response,5,87122,0.0-5.0,anomymised,6564584152624795c40b73cb,65645f6aea18e2fca1c760bc,63607,1A,woman,NA,NA,NA,NA,NA,NA,NA,NA,NA,NA
2011.5,<p>Ready to start the experiment?</p><br><p><strong>Remember to give an answer by clicking a button on the rating scale.</strong></p><p>Press 'Continue' to begin.</p>,0,Continue,Continue,html-button-response,6,90138,0.0-6.0,anomymised,6564584152624795c40b73cb,65645f6aea18e2fca1c760bc,63607,1A,woman,NA,NA,NA,NA,NA,NA,NA,NA,NA,NA
null,Somebody says<br><em>Kate is challenging Luke</em>,NA,NA,NA,html-keyboard-response,7,93160,0.0-7.0-0.0,anomymised,6564584152624795c40b73cb,65645f6aea18e2fca1c760bc,63607,1A,woman,NA,null,NAME1 is challenging NAME2,challenge_active,sentence,NA,NA,NA,NA,NA
10594,NA,NA,NA,NA,survey-likert-extra-labels,8,103755,0.0-7.0-1.0,anomymised,6564584152624795c40b73cb,65645f6aea18e2fca1c760bc,63607,1A,woman,NA,NA,Somebody says<br><em>Kate is challenging Luke</em>,challenge_active,rating_volition,"{""Q0"":0}",[0],The speaker identifies more with <br>Kate than Luke,The speaker identifies more with<br>Luke than Kate,left_to_right
null,Somebody says<br><em>Kate is being hugged by Luke</em>,NA,NA,NA,html-keyboard-response,9,105758,0.0-8.0-0.0,anomymised,6564584152624795c40b73cb,65645f6aea18e2fca1c760bc,63607,1A,woman,NA,null,NAME1 is being hugged by NAME2,hug_passive,sentence,NA,NA,NA,NA,NA
3915.7999999998137,NA,NA,NA,NA,survey-likert-extra-labels,10,109675,0.0-8.0-1.0,anomymised,6564584152624795c40b73cb,65645f6aea18e2fca1c760bc,63607,1A,woman,NA,NA,Somebody says<br><em>Kate is being hugged by Luke</em>,hug_passive,rating_volition,"{""Q0"":6}",[0],The speaker identifies more with <br>Luke than Kate,The speaker identifies more with<br>Kate than Luke,right_to_left
null,Somebody says<br><em>Beth is meeting Fred</em>,NA,NA,NA,html-keyboard-response,11,111683,0.0-9.0-0.0,anomymised,6564584152624795c40b73cb,65645f6aea18e2fca1c760bc,63607,1A,woman,NA,null,NAME1 is meeting NAME2,meet_active,sentence,NA,NA,NA,NA,NA
5447.200000000186,NA,NA,NA,NA,survey-likert-extra-labels,12,117132,0.0-9.0-1.0,anomymised,6564584152624795c40b73cb,65645f6aea18e2fca1c760bc,63607,1A,woman,NA,NA,Somebody says<br><em>Beth is meeting Fred</em>,meet_active,rating_volition,"{""Q0"":6}",[0],The speaker identifies more with <br>Fred than Beth,The speaker identifies more with<br>Beth than Fred,right_to_left
null,Somebody says<br><em>Luke and Ruth are flirting with each other</em>,NA,NA,NA,html-keyboard-response,13,119136,0.0-10.0-0.0,anomymised,6564584152624795c40b73cb,65645f6aea18e2fca1c760bc,63607,1A,woman,NA,null,NAME1 and NAME2 are flirting with each other,flirt_conjoined,sentence,NA,NA,NA,NA,NA
7674.299999999814,NA,NA,NA,NA,survey-likert-extra-labels,14,126812,0.0-10.0-1.0,anomymised,6564584152624795c40b73cb,65645f6aea18e2fca1c760bc,63607,1A,woman,NA,NA,Somebody says<br><em>Luke and Ruth are flirting with each other</em>,flirt_conjoined,rating_volition,"{""Q0"":6}",[0],The speaker identifies more with <br>Ruth than Luke,The speaker identifies more with<br>Luke than Ruth,right_to_left
null,Somebody says<br><em>Mike is posing for Dave,NA,NA,NA,html-keyboard-response,15,128824,0.0-11.0-0.0,anomymised,6564584152624795c40b73cb,65645f6aea18e2fca1c760bc,63607,1A,woman,NA,null,M2 is posing for M4,pose,sentence,NA,NA,NA,NA,NA
11403.200000000186,NA,NA,NA,NA,survey-likert-extra-labels,16,140228,0.0-11.0-1.0,anomymised,6564584152624795c40b73cb,65645f6aea18e2fca1c760bc,63607,1A,woman,NA,NA,Somebody says<br><em>Mike is posing for Dave,pose,rating_volition,"{""Q0"":0}",[0],Mike is modelling for Dave,Dave is modelling for Mike,NA
null,Somebody says<br><em>Kate is playing with Mike</em>,NA,NA,NA,html-keyboard-response,17,142243,0.0-12.0-0.0,anomymised,6564584152624795c40b73cb,65645f6aea18e2fca1c760bc,63607,1A,woman,NA,null,NAME1 is playing with NAME2,play_active,sentence,NA,NA,NA,NA,NA
3663.800000000745,NA,NA,NA,NA,survey-likert-extra-labels,18,145908,0.0-12.0-1.0,anomymised,6564584152624795c40b73cb,65645f6aea18e2fca1c760bc,63607,1A,woman,NA,NA,Somebody says<br><em>Kate is playing with Mike</em>,play_active,rating_volition,"{""Q0"":6}",[0],The speaker identifies more with <br>Mike than Kate,The speaker identifies more with<br>Kate than Mike,right_to_left
null,Somebody says<br><em>Beth is being shouted at by Kate</em>,NA,NA,NA,html-keyboard-response,19,147918,0.0-13.0-0.0,anomymised,6564584152624795c40b73cb,65645f6aea18e2fca1c760bc,63607,1A,woman,NA,null,NAME1 is being shouted at by NAME2,shout_passive,sentence,NA,NA,NA,NA,NA
9957,NA,NA,NA,NA,survey-likert-extra-labels,20,157876,0.0-13.0-1.0,anomymised,6564584152624795c40b73cb,65645f6aea18e2fca1c760bc,63607,1A,woman,NA,NA,Somebody says<br><em>Beth is being shouted at by Kate</em>,shout_passive,rating_volition,"{""Q0"":0}",[0],The speaker identifies more with <br>Beth than Kate,The speaker identifies more with<br>Kate than Beth,left_to_right
null,Somebody says<br><em>Kate is feeding Luke,NA,NA,NA,html-keyboard-response,21,159879,0.0-14.0-0.0,anomymised,6564584152624795c40b73cb,65645f6aea18e2fca1c760bc,63607,1A,woman,NA,null,W3 is feeding M1,feed,sentence,NA,NA,NA,NA,NA
5579.9000000003725,NA,NA,NA,NA,survey-likert-extra-labels,22,165460,0.0-14.0-1.0,anomymised,6564584152624795c40b73cb,65645f6aea18e2fca1c760bc,63607,1A,woman,NA,NA,Somebody says<br><em>Kate is feeding Luke,feed,rating_volition,"{""Q0"":0}",[0],Kate cooked for Luke,Luke cooked for Kate,NA
null,Somebody says<br><em>Mike is being copied by Luke</em>,NA,NA,NA,html-keyboard-response,23,167469,0.0-15.0-0.0,anomymised,6564584152624795c40b73cb,65645f6aea18e2fca1c760bc,63607,1A,woman,NA,null,NAME1 is being copied by NAME2,copy_passive,sentence,NA,NA,NA,NA,NA
3830.2999999998137,NA,NA,NA,NA,survey-likert-extra-labels,24,171300,0.0-15.0-1.0,anomymised,6564584152624795c40b73cb,65645f6aea18e2fca1c760bc,63607,1A,woman,NA,NA,Somebody says<br><em>Mike is being copied by Luke</em>,copy_passive,rating_volition,"{""Q0"":6}",[0],The speaker identifies more with <br>Luke than Mike,The speaker identifies more with<br>Mike than Luke,right_to_left
null,Somebody says<br><em>Dave and Fred are kissing each other</em>,NA,NA,NA,html-keyboard-response,25,173304,0.0-16.0-0.0,anomymised,6564584152624795c40b73cb,65645f6aea18e2fca1c760bc,63607,1A,woman,NA,null,NAME1 and NAME2 are kissing each other,kiss_conjoined,sentence,NA,NA,NA,NA,NA
3634.600000000559,NA,NA,NA,NA,survey-likert-extra-labels,26,176940,0.0-16.0-1.0,anomymised,6564584152624795c40b73cb,65645f6aea18e2fca1c760bc,63607,1A,woman,NA,NA,Somebody says<br><em>Dave and Fred are kissing each other</em>,kiss_conjoined,rating_volition,"{""Q0"":0}",[0],The speaker identifies more with <br>Dave than Fred,The speaker identifies more with<br>Fred than Dave,left_to_right
null,Somebody says<br><em>Kate is touching Beth</em>,NA,NA,NA,html-keyboard-response,27,178946,0.0-17.0-0.0,anomymised,6564584152624795c40b73cb,65645f6aea18e2fca1c760bc,63607,1A,woman,NA,null,NAME1 is touching NAME2,touch_active,sentence,NA,NA,NA,NA,NA
4385.200000000186,NA,NA,NA,NA,survey-likert-extra-labels,28,183333,0.0-17.0-1.0,anomymised,6564584152624795c40b73cb,65645f6aea18e2fca1c760bc,63607,1A,woman,NA,NA,Somebody says<br><em>Kate is touching Beth</em>,touch_active,rating_volition,"{""Q0"":6}",[0],The speaker identifies more with <br>Beth than Kate,The speaker identifies more with<br>Kate than Beth,right_to_left
null,Somebody says<br><em>Kate is copying Dave</em>,NA,NA,NA,html-keyboard-response,29,185342,0.0-18.0-0.0,anomymised,6564584152624795c40b73cb,65645f6aea18e2fca1c760bc,63607,1A,woman,NA,null,NAME1 is copying NAME2,copy_active,sentence,NA,NA,NA,NA,NA
4837.799999999814,NA,NA,NA,NA,survey-likert-extra-labels,30,190181,0.0-18.0-1.0,anomymised,6564584152624795c40b73cb,65645f6aea18e2fca1c760bc,63607,1A,woman,NA,NA,Somebody says<br><em>Kate is copying Dave</em>,copy_active,rating_volition,"{""Q0"":6}",[0],The speaker identifies more with <br>Dave than Kate,The speaker identifies more with<br>Kate than Dave,right_to_left
null,Somebody says<br><em>Kate and Jane are shouting at each other</em>,NA,NA,NA,html-keyboard-response,31,192191,0.0-19.0-0.0,anomymised,6564584152624795c40b73cb,65645f6aea18e2fca1c760bc,63607,1A,woman,NA,null,NAME1 and NAME2 are shouting at each other,shout_conjoined,sentence,NA,NA,NA,NA,NA
9861,NA,NA,NA,NA,survey-likert-extra-labels,32,202053,0.0-19.0-1.0,anomymised,6564584152624795c40b73cb,65645f6aea18e2fca1c760bc,63607,1A,woman,NA,NA,Somebody says<br><em>Kate and Jane are shouting at each other</em>,shout_conjoined,rating_volition,"{""Q0"":4}",[0],The speaker identifies more with <br>Jane than Kate,The speaker identifies more with<br>Kate than Jane,right_to_left
null,Somebody says<br><em>Jane is teaching Dave,NA,NA,NA,html-keyboard-response,33,204068,0.0-20.0-0.0,anomymised,6564584152624795c40b73cb,65645f6aea18e2fca1c760bc,63607,1A,woman,NA,null,W2 is teaching M4,teach,sentence,NA,NA,NA,NA,NA
3408.2999999998137,NA,NA,NA,NA,survey-likert-extra-labels,34,207478,0.0-20.0-1.0,anomymised,6564584152624795c40b73cb,65645f6aea18e2fca1c760bc,63607,1A,woman,NA,NA,Somebody says<br><em>Jane is teaching Dave,teach,rating_volition,"{""Q0"":0}",[0],Jane is educating Dave,Dave is educating Jane,NA
null,Somebody says<br><em>Ruth is greeting Dave</em>,NA,NA,NA,html-keyboard-response,35,209493,0.0-21.0-0.0,anomymised,6564584152624795c40b73cb,65645f6aea18e2fca1c760bc,63607,1A,woman,NA,null,NAME1 is greeting NAME2,greet_active,sentence,NA,NA,NA,NA,NA
4407.799999999814,NA,NA,NA,NA,survey-likert-extra-labels,36,213902,0.0-21.0-1.0,anomymised,6564584152624795c40b73cb,65645f6aea18e2fca1c760bc,63607,1A,woman,NA,NA,Somebody says<br><em>Ruth is greeting Dave</em>,greet_active,rating_volition,"{""Q0"":0}",[0],The speaker identifies more with <br>Ruth than Dave,The speaker identifies more with<br>Dave than Ruth,left_to_right
null,Somebody says<br><em>Fred is marrying Jane</em>,NA,NA,NA,html-keyboard-response,37,215912,0.0-22.0-0.0,anomymised,6564584152624795c40b73cb,65645f6aea18e2fca1c760bc,63607,1A,woman,NA,null,NAME1 is marrying NAME2,marry_active,sentence,NA,NA,NA,NA,NA
3660.7000000001863,NA,NA,NA,NA,survey-likert-extra-labels,38,219574,0.0-22.0-1.0,anomymised,6564584152624795c40b73cb,65645f6aea18e2fca1c760bc,63607,1A,woman,NA,NA,Somebody says<br><em>Fred is marrying Jane</em>,marry_active,rating_volition,"{""Q0"":0}",[0],The speaker identifies more with <br>Fred than Jane,The speaker identifies more with<br>Jane than Fred,left_to_right
null,Somebody says<br><em>Mike is reminding Beth,NA,NA,NA,html-keyboard-response,39,221591,0.0-23.0-0.0,anomymised,6564584152624795c40b73cb,65645f6aea18e2fca1c760bc,63607,1A,woman,NA,null,M2 is reminding W4,remind,sentence,NA,NA,NA,NA,NA
5606.4000000003725,NA,NA,NA,NA,survey-likert-extra-labels,40,227198,0.0-23.0-1.0,anomymised,6564584152624795c40b73cb,65645f6aea18e2fca1c760bc,63607,1A,woman,NA,NA,Somebody says<br><em>Mike is reminding Beth,remind,rating_volition,"{""Q0"":0}",[0],Mike is telling Beth again,Beth is telling Mike again,NA
null,Somebody says<br><em>Beth is being challenged by Mike</em>,NA,NA,NA,html-keyboard-response,41,229209,0.0-24.0-0.0,anomymised,6564584152624795c40b73cb,65645f6aea18e2fca1c760bc,63607,1A,woman,NA,null,NAME1 is being challenged by NAME2,challenge_passive,sentence,NA,NA,NA,NA,NA
7220.799999999814,NA,NA,NA,NA,survey-likert-extra-labels,42,236430,0.0-24.0-1.0,anomymised,6564584152624795c40b73cb,65645f6aea18e2fca1c760bc,63607,1A,woman,NA,NA,Somebody says<br><em>Beth is being challenged by Mike</em>,challenge_passive,rating_volition,"{""Q0"":4}",[0],The speaker identifies more with <br>Mike than Beth,The speaker identifies more with<br>Beth than Mike,right_to_left
null,Somebody says<br><em>Dave is being greeted by Kate</em>,NA,NA,NA,html-keyboard-response,43,238436,0.0-25.0-0.0,anomymised,6564584152624795c40b73cb,65645f6aea18e2fca1c760bc,63607,1A,woman,NA,null,NAME1 is being greeted by NAME2,greet_passive,sentence,NA,NA,NA,NA,NA
3321.2000000001863,NA,NA,NA,NA,survey-likert-extra-labels,44,241759,0.0-25.0-1.0,anomymised,6564584152624795c40b73cb,65645f6aea18e2fca1c760bc,63607,1A,woman,NA,NA,Somebody says<br><em>Dave is being greeted by Kate</em>,greet_passive,rating_volition,"{""Q0"":0}",[0],The speaker identifies more with <br>Dave than Kate,The speaker identifies more with<br>Kate than Dave,left_to_right
null,Somebody says<br><em>Jane is carrying Beth,NA,NA,NA,html-keyboard-response,45,243769,0.0-26.0-0.0,anomymised,6564584152624795c40b73cb,65645f6aea18e2fca1c760bc,63607,1A,woman,NA,null,W2 is carrying W4,carry,sentence,NA,NA,NA,NA,NA
2700.5,NA,NA,NA,NA,survey-likert-extra-labels,46,246471,0.0-26.0-1.0,anomymised,6564584152624795c40b73cb,65645f6aea18e2fca1c760bc,63607,1A,woman,NA,NA,Somebody says<br><em>Jane is carrying Beth,carry,rating_volition,"{""Q0"":0}",[0],Jane is transporting Beth,Beth is transporting Jane,NA
null,Somebody says<br><em>Ruth and Beth are meeting each other</em>,NA,NA,NA,html-keyboard-response,47,248478,0.0-27.0-0.0,anomymised,6564584152624795c40b73cb,65645f6aea18e2fca1c760bc,63607,1A,woman,NA,null,NAME1 and NAME2 are meeting each other,meet_conjoined,sentence,NA,NA,NA,NA,NA
3295.9000000003725,NA,NA,NA,NA,survey-likert-extra-labels,48,251775,0.0-27.0-1.0,anomymised,6564584152624795c40b73cb,65645f6aea18e2fca1c760bc,63607,1A,woman,NA,NA,Somebody says<br><em>Ruth and Beth are meeting each other</em>,meet_conjoined,rating_volition,"{""Q0"":1}",[0],The speaker identifies more with <br>Ruth than Beth,The speaker identifies more with<br>Beth than Ruth,left_to_right
null,Somebody says<br><em>Kate is shouting at Luke</em>,NA,NA,NA,html-keyboard-response,49,253789,0.0-28.0-0.0,anomymised,6564584152624795c40b73cb,65645f6aea18e2fca1c760bc,63607,1A,woman,NA,null,NAME1 is shouting at NAME2,shout_active,sentence,NA,NA,NA,NA,NA
3280.2999999998137,NA,NA,NA,NA,survey-likert-extra-labels,50,257071,0.0-28.0-1.0,anomymised,6564584152624795c40b73cb,65645f6aea18e2fca1c760bc,63607,1A,woman,NA,NA,Somebody says<br><em>Kate is shouting at Luke</em>,shout_active,rating_volition,"{""Q0"":6}",[0],The speaker identifies more with <br>Luke than Kate,The speaker identifies more with<br>Kate than Luke,right_to_left
null,Somebody says<br><em>Luke and Jane are talking with each other</em>,NA,NA,NA,html-keyboard-response,51,259086,0.0-29.0-0.0,anomymised,6564584152624795c40b73cb,65645f6aea18e2fca1c760bc,63607,1A,woman,NA,null,NAME1 and NAME2 are talking with each other,talk_conjoined,sentence,NA,NA,NA,NA,NA
5048.299999999814,NA,NA,NA,NA,survey-likert-extra-labels,52,264135,0.0-29.0-1.0,anomymised,6564584152624795c40b73cb,65645f6aea18e2fca1c760bc,63607,1A,woman,NA,NA,Somebody says<br><em>Luke and Jane are talking with each other</em>,talk_conjoined,rating_volition,"{""Q0"":4}",[0],The speaker identifies more with <br>Jane than Luke,The speaker identifies more with<br>Luke than Jane,right_to_left
null,Somebody says<br><em>Ruth is looking at Dave</em>,NA,NA,NA,html-keyboard-response,53,266137,0.0-30.0-0.0,anomymised,6564584152624795c40b73cb,65645f6aea18e2fca1c760bc,63607,1A,woman,NA,null,NAME1 is looking at NAME2,look_active,sentence,NA,NA,NA,NA,NA
3621.399999999441,NA,NA,NA,NA,survey-likert-extra-labels,54,269759,0.0-30.0-1.0,anomymised,6564584152624795c40b73cb,65645f6aea18e2fca1c760bc,63607,1A,woman,NA,NA,Somebody says<br><em>Ruth is looking at Dave</em>,look_active,rating_volition,"{""Q0"":0}",[0],The speaker identifies more with <br>Ruth than Dave,The speaker identifies more with<br>Dave than Ruth,left_to_right
null,Somebody says<br><em>Kate is dancing with Luke</em>,NA,NA,NA,html-keyboard-response,55,271771,0.0-31.0-0.0,anomymised,6564584152624795c40b73cb,65645f6aea18e2fca1c760bc,63607,1A,woman,NA,null,NAME1 is dancing with NAME2,dance_active,sentence,NA,NA,NA,NA,NA
3354,NA,NA,NA,NA,survey-likert-extra-labels,56,275126,0.0-31.0-1.0,anomymised,6564584152624795c40b73cb,65645f6aea18e2fca1c760bc,63607,1A,woman,NA,NA,Somebody says<br><em>Kate is dancing with Luke</em>,dance_active,rating_volition,"{""Q0"":5}",[0],The speaker identifies more with <br>Luke than Kate,The speaker identifies more with<br>Kate than Luke,right_to_left
null,Somebody says<br><em>Luke is hugging Kate</em>,NA,NA,NA,html-keyboard-response,57,277141,0.0-32.0-0.0,anomymised,6564584152624795c40b73cb,65645f6aea18e2fca1c760bc,63607,1A,woman,NA,null,NAME1 is hugging NAME2,hug_active,sentence,NA,NA,NA,NA,NA
4625.399999999441,NA,NA,NA,NA,survey-likert-extra-labels,58,281767,0.0-32.0-1.0,anomymised,6564584152624795c40b73cb,65645f6aea18e2fca1c760bc,63607,1A,woman,NA,NA,Somebody says<br><em>Luke is hugging Kate</em>,hug_active,rating_volition,"{""Q0"":6}",[0],The speaker identifies more with <br>Kate than Luke,The speaker identifies more with<br>Luke than Kate,right_to_left
null,Somebody says<br><em>Dave is being kissed by Beth</em>,NA,NA,NA,html-keyboard-response,59,283777,0.0-33.0-0.0,anomymised,6564584152624795c40b73cb,65645f6aea18e2fca1c760bc,63607,1A,woman,NA,null,NAME1 is being kissed by NAME2,kiss_passive,sentence,NA,NA,NA,NA,NA
5861.299999999814,NA,NA,NA,NA,survey-likert-extra-labels,60,289639,0.0-33.0-1.0,anomymised,6564584152624795c40b73cb,65645f6aea18e2fca1c760bc,63607,1A,woman,NA,NA,Somebody says<br><em>Dave is being kissed by Beth</em>,kiss_passive,rating_volition,"{""Q0"":0}",[0],The speaker identifies more with <br>Dave than Beth,The speaker identifies more with<br>Beth than Dave,left_to_right
null,Somebody says<br><em>Luke is being opposed by Dave</em>,NA,NA,NA,html-keyboard-response,61,291648,0.0-34.0-0.0,anomymised,6564584152624795c40b73cb,65645f6aea18e2fca1c760bc,63607,1A,woman,NA,null,NAME1 is being opposed by NAME2,oppose_passive,sentence,NA,NA,NA,NA,NA
2725.9000000003725,NA,NA,NA,NA,survey-likert-extra-labels,62,294375,0.0-34.0-1.0,anomymised,6564584152624795c40b73cb,65645f6aea18e2fca1c760bc,63607,1A,woman,NA,NA,Somebody says<br><em>Luke is being opposed by Dave</em>,oppose_passive,rating_volition,"{""Q0"":0}",[0],The speaker identifies more with <br>Luke than Dave,The speaker identifies more with<br>Dave than Luke,left_to_right
null,Somebody says<br><em>Kate is flirting with Jane</em>,NA,NA,NA,html-keyboard-response,63,296384,0.0-35.0-0.0,anomymised,6564584152624795c40b73cb,65645f6aea18e2fca1c760bc,63607,1A,woman,NA,null,NAME1 is flirting with NAME2,flirt_active,sentence,NA,NA,NA,NA,NA
3334.0999999996275,NA,NA,NA,NA,survey-likert-extra-labels,64,299719,0.0-35.0-1.0,anomymised,6564584152624795c40b73cb,65645f6aea18e2fca1c760bc,63607,1A,woman,NA,NA,Somebody says<br><em>Kate is flirting with Jane</em>,flirt_active,rating_volition,"{""Q0"":6}",[0],The speaker identifies more with <br>Jane than Kate,The speaker identifies more with<br>Kate than Jane,right_to_left
null,Somebody says<br><em>Mike is seducing Kate</em>,NA,NA,NA,html-keyboard-response,65,301721,0.0-36.0-0.0,anomymised,6564584152624795c40b73cb,65645f6aea18e2fca1c760bc,63607,1A,woman,NA,null,NAME1 is seducing NAME2,seduce_active,sentence,NA,NA,NA,NA,NA
7717.4000000003725,NA,NA,NA,NA,survey-likert-extra-labels,66,309440,0.0-36.0-1.0,anomymised,6564584152624795c40b73cb,65645f6aea18e2fca1c760bc,63607,1A,woman,NA,NA,Somebody says<br><em>Mike is seducing Kate</em>,seduce_active,rating_volition,"{""Q0"":0}",[0],The speaker identifies more with <br>Mike than Kate,The speaker identifies more with<br>Kate than Mike,left_to_right
null,Somebody says<br><em>Fred and Ruth are playing with each other</em>,NA,NA,NA,html-keyboard-response,67,311454,0.0-37.0-0.0,anomymised,6564584152624795c40b73cb,65645f6aea18e2fca1c760bc,63607,1A,woman,NA,null,NAME1 and NAME2 are playing with each other,play_conjoined,sentence,NA,NA,NA,NA,NA
7729.199999999255,NA,NA,NA,NA,survey-likert-extra-labels,68,319184,0.0-37.0-1.0,anomymised,6564584152624795c40b73cb,65645f6aea18e2fca1c760bc,63607,1A,woman,NA,NA,Somebody says<br><em>Fred and Ruth are playing with each other</em>,play_conjoined,rating_volition,"{""Q0"":2}",[0],The speaker identifies more with <br>Fred than Ruth,The speaker identifies more with<br>Ruth than Fred,left_to_right
null,Somebody says<br><em>Jane and Beth are fighting with each other</em>,NA,NA,NA,html-keyboard-response,69,321185,0.0-38.0-0.0,anomymised,6564584152624795c40b73cb,65645f6aea18e2fca1c760bc,63607,1A,woman,NA,null,NAME1 and NAME2 are fighting with each other,fight_conjoined,sentence,NA,NA,NA,NA,NA
9101.900000000373,NA,NA,NA,NA,survey-likert-extra-labels,70,330289,0.0-38.0-1.0,anomymised,6564584152624795c40b73cb,65645f6aea18e2fca1c760bc,63607,1A,woman,NA,NA,Somebody says<br><em>Jane and Beth are fighting with each other</em>,fight_conjoined,rating_volition,"{""Q0"":5}",[0],The speaker identifies more with <br>Beth than Jane,The speaker identifies more with<br>Jane than Beth,right_to_left
null,Somebody says<br><em>Jane is arguing with Kate</em>,NA,NA,NA,html-keyboard-response,71,332304,0.0-39.0-0.0,anomymised,6564584152624795c40b73cb,65645f6aea18e2fca1c760bc,63607,1A,woman,NA,null,NAME1 is arguing with NAME2,argue_active,sentence,NA,NA,NA,NA,NA
2691.7999999998137,NA,NA,NA,NA,survey-likert-extra-labels,72,335000,0.0-39.0-1.0,anomymised,6564584152624795c40b73cb,65645f6aea18e2fca1c760bc,63607,1A,woman,NA,NA,Somebody says<br><em>Jane is arguing with Kate</em>,argue_active,rating_volition,"{""Q0"":1}",[0],The speaker identifies more with <br>Jane than Kate,The speaker identifies more with<br>Kate than Jane,left_to_right
null,Somebody says<br><em>Ruth is talking to Kate</em>,NA,NA,NA,html-keyboard-response,73,337017,0.0-40.0-0.0,anomymised,6564584152624795c40b73cb,65645f6aea18e2fca1c760bc,63607,1A,woman,NA,null,NAME1 is talking to NAME2,talk_active,sentence,NA,NA,NA,NA,NA
3495.100000000559,NA,NA,NA,NA,survey-likert-extra-labels,74,340512,0.0-40.0-1.0,anomymised,6564584152624795c40b73cb,65645f6aea18e2fca1c760bc,63607,1A,woman,NA,NA,Somebody says<br><em>Ruth is talking to Kate</em>,talk_active,rating_volition,"{""Q0"":0}",[0],The speaker identifies more with <br>Ruth than Kate,The speaker identifies more with<br>Kate than Ruth,left_to_right
null,Somebody says<br><em>Beth and Ruth are marrying each other</em>,NA,NA,NA,html-keyboard-response,75,342522,0.0-41.0-0.0,anomymised,6564584152624795c40b73cb,65645f6aea18e2fca1c760bc,63607,1A,woman,NA,null,NAME1 and NAME2 are marrying each other,marry_conjoined,sentence,NA,NA,NA,NA,NA
4589.9000000003725,NA,NA,NA,NA,survey-likert-extra-labels,76,347113,0.0-41.0-1.0,anomymised,6564584152624795c40b73cb,65645f6aea18e2fca1c760bc,63607,1A,woman,NA,NA,Somebody says<br><em>Beth and Ruth are marrying each other</em>,marry_conjoined,rating_volition,"{""Q0"":4}",[0],The speaker identifies more with <br>Ruth than Beth,The speaker identifies more with<br>Beth than Ruth,right_to_left
null,Somebody says<br><em>Ruth is chasing Kate,NA,NA,NA,html-keyboard-response,77,349129,0.0-42.0-0.0,anomymised,6564584152624795c40b73cb,65645f6aea18e2fca1c760bc,63607,1A,woman,NA,null,W1 is chasing W3,chase,sentence,NA,NA,NA,NA,NA
3902.5,NA,NA,NA,NA,survey-likert-extra-labels,78,353032,0.0-42.0-1.0,anomymised,6564584152624795c40b73cb,65645f6aea18e2fca1c760bc,63607,1A,woman,NA,NA,Somebody says<br><em>Ruth is chasing Kate,chase,rating_volition,"{""Q0"":0}",[0],Ruth is behind Kate,Kate is behind Ruth,NA
null,Somebody says<br><em>Fred is kissing Mike</em>,NA,NA,NA,html-keyboard-response,79,355041,0.0-43.0-0.0,anomymised,6564584152624795c40b73cb,65645f6aea18e2fca1c760bc,63607,1A,woman,NA,null,NAME1 is kissing NAME2,kiss_active,sentence,NA,NA,NA,NA,NA
3903.9000000003725,NA,NA,NA,NA,survey-likert-extra-labels,80,358945,0.0-43.0-1.0,anomymised,6564584152624795c40b73cb,65645f6aea18e2fca1c760bc,63607,1A,woman,NA,NA,Somebody says<br><em>Fred is kissing Mike</em>,kiss_active,rating_volition,"{""Q0"":6}",[0],The speaker identifies more with <br>Mike than Fred,The speaker identifies more with<br>Fred than Mike,right_to_left
null,Somebody says<br><em>Fred and Jane are touching each other</em>,NA,NA,NA,html-keyboard-response,81,360956,0.0-44.0-0.0,anomymised,6564584152624795c40b73cb,65645f6aea18e2fca1c760bc,63607,1A,woman,NA,null,NAME1 and NAME2 are touching each other,touch_conjoined,sentence,NA,NA,NA,NA,NA
5140.299999999814,NA,NA,NA,NA,survey-likert-extra-labels,82,366097,0.0-44.0-1.0,anomymised,6564584152624795c40b73cb,65645f6aea18e2fca1c760bc,63607,1A,woman,NA,NA,Somebody says<br><em>Fred and Jane are touching each other</em>,touch_conjoined,rating_volition,"{""Q0"":5}",[0],The speaker identifies more with <br>Jane than Fred,The speaker identifies more with<br>Fred than Jane,right_to_left
null,Somebody says<br><em>Ruth is fighting with Fred</em>,NA,NA,NA,html-keyboard-response,83,368105,0.0-45.0-0.0,anomymised,6564584152624795c40b73cb,65645f6aea18e2fca1c760bc,63607,1A,woman,NA,null,NAME1 is fighting with NAME2,fight_active,sentence,NA,NA,NA,NA,NA
47880.5,NA,NA,NA,NA,survey-likert-extra-labels,84,415986,0.0-45.0-1.0,anomymised,6564584152624795c40b73cb,65645f6aea18e2fca1c760bc,63607,1A,woman,NA,NA,Somebody says<br><em>Ruth is fighting with Fred</em>,fight_active,rating_volition,"{""Q0"":0}",[0],The speaker identifies more with <br>Ruth than Fred,The speaker identifies more with<br>Fred than Ruth,left_to_right
null,Somebody says<br><em>Fred is hiring Ruth,NA,NA,NA,html-keyboard-response,85,417989,0.0-46.0-0.0,anomymised,6564584152624795c40b73cb,65645f6aea18e2fca1c760bc,63607,1A,woman,NA,null,M3 is hiring W1,hire,sentence,NA,NA,NA,NA,NA
4812.699999999255,NA,NA,NA,NA,survey-likert-extra-labels,86,422803,0.0-46.0-1.0,anomymised,6564584152624795c40b73cb,65645f6aea18e2fca1c760bc,63607,1A,woman,NA,NA,Somebody says<br><em>Fred is hiring Ruth,hire,rating_volition,"{""Q0"":0}",[0],Fred is employing Ruth,Ruth is employing Fred,NA
null,Somebody says<br><em>Kate and Mike are hugging each other</em>,NA,NA,NA,html-keyboard-response,87,424808,0.0-47.0-0.0,anomymised,6564584152624795c40b73cb,65645f6aea18e2fca1c760bc,63607,1A,woman,NA,null,NAME1 and NAME2 are hugging each other,hug_conjoined,sentence,NA,NA,NA,NA,NA
16353.700000000186,NA,NA,NA,NA,survey-likert-extra-labels,88,441163,0.0-47.0-1.0,anomymised,6564584152624795c40b73cb,65645f6aea18e2fca1c760bc,63607,1A,woman,NA,NA,Somebody says<br><em>Kate and Mike are hugging each other</em>,hug_conjoined,rating_volition,"{""Q0"":2}",[0],The speaker identifies more with <br>Kate than Mike,The speaker identifies more with<br>Mike than Kate,left_to_right
null,Somebody says<br><em>Ruth is shouting at Dave</em>,NA,NA,NA,html-keyboard-response,89,443177,0.0-48.0-0.0,anomymised,6564584152624795c40b73cb,65645f6aea18e2fca1c760bc,63607,1A,woman,NA,null,NAME1 is shouting at NAME2,shout_active,sentence,NA,NA,NA,NA,NA
4113.299999999814,NA,NA,NA,NA,survey-likert-extra-labels,90,447291,0.0-48.0-1.0,anomymised,6564584152624795c40b73cb,65645f6aea18e2fca1c760bc,63607,1A,woman,NA,NA,Somebody says<br><em>Ruth is shouting at Dave</em>,shout_active,rating_volition,"{""Q0"":0}",[0],The speaker identifies more with <br>Ruth than Dave,The speaker identifies more with<br>Dave than Ruth,left_to_right
null,Somebody says<br><em>Mike is being seduced by Fred</em>,NA,NA,NA,html-keyboard-response,91,449434,0.0-49.0-0.0,anomymised,6564584152624795c40b73cb,65645f6aea18e2fca1c760bc,63607,1A,woman,NA,null,NAME1 is being seduced by NAME2,seduce_passive,sentence,NA,NA,NA,NA,NA
50408.800000000745,NA,NA,NA,NA,survey-likert-extra-labels,92,499845,0.0-49.0-1.0,anomymised,6564584152624795c40b73cb,65645f6aea18e2fca1c760bc,63607,1A,woman,NA,NA,Somebody says<br><em>Mike is being seduced by Fred</em>,seduce_passive,rating_volition,"{""Q0"":0}",[0],The speaker identifies more with <br>Mike than Fred,The speaker identifies more with<br>Fred than Mike,left_to_right
null,Somebody says<br><em>Beth and Kate are arguing with each other</em>,NA,NA,NA,html-keyboard-response,93,501858,0.0-50.0-0.0,anomymised,6564584152624795c40b73cb,65645f6aea18e2fca1c760bc,63607,1A,woman,NA,null,NAME1 and NAME2 are arguing with each other,argue_conjoined,sentence,NA,NA,NA,NA,NA
4210.700000000186,NA,NA,NA,NA,survey-likert-extra-labels,94,506070,0.0-50.0-1.0,anomymised,6564584152624795c40b73cb,65645f6aea18e2fca1c760bc,63607,1A,woman,NA,NA,Somebody says<br><em>Beth and Kate are arguing with each other</em>,argue_conjoined,rating_volition,"{""Q0"":2}",[0],The speaker identifies more with <br>Beth than Kate,The speaker identifies more with<br>Kate than Beth,left_to_right
null,Somebody says<br><em>Luke is being looked at by Dave</em>,NA,NA,NA,html-keyboard-response,95,508083,0.0-51.0-0.0,anomymised,6564584152624795c40b73cb,65645f6aea18e2fca1c760bc,63607,1A,woman,NA,null,NAME1 is being looked at by NAME2,look_passive,sentence,NA,NA,NA,NA,NA
92307.79999999981,NA,NA,NA,NA,survey-likert-extra-labels,96,600392,0.0-51.0-1.0,anomymised,6564584152624795c40b73cb,65645f6aea18e2fca1c760bc,63607,1A,woman,NA,NA,Somebody says<br><em>Luke is being looked at by Dave</em>,look_passive,rating_volition,"{""Q0"":0}",[0],The speaker identifies more with <br>Luke than Dave,The speaker identifies more with<br>Dave than Luke,left_to_right
null,Somebody says<br><em>Jane is being touched by Ruth</em>,NA,NA,NA,html-keyboard-response,97,602394,0.0-52.0-0.0,anomymised,6564584152624795c40b73cb,65645f6aea18e2fca1c760bc,63607,1A,woman,NA,null,NAME1 is being touched by NAME2,touch_passive,sentence,NA,NA,NA,NA,NA
3917.699999999255,NA,NA,NA,NA,survey-likert-extra-labels,98,606312,0.0-52.0-1.0,anomymised,6564584152624795c40b73cb,65645f6aea18e2fca1c760bc,63607,1A,woman,NA,NA,Somebody says<br><em>Jane is being touched by Ruth</em>,touch_passive,rating_volition,"{""Q0"":0}",[0],The speaker identifies more with <br>Jane than Ruth,The speaker identifies more with<br>Ruth than Jane,left_to_right
null,Somebody says<br><em>Luke and Jane are dancing with each other</em>,NA,NA,NA,html-keyboard-response,99,608325,0.0-53.0-0.0,anomymised,6564584152624795c40b73cb,65645f6aea18e2fca1c760bc,63607,1A,woman,NA,null,NAME1 and NAME2 are dancing with each other,dance_conjoined,sentence,NA,NA,NA,NA,NA
3090,NA,NA,NA,NA,survey-likert-extra-labels,100,611416,0.0-53.0-1.0,anomymised,6564584152624795c40b73cb,65645f6aea18e2fca1c760bc,63607,1A,woman,NA,NA,Somebody says<br><em>Luke and Jane are dancing with each other</em>,dance_conjoined,rating_volition,"{""Q0"":2}",[0],The speaker identifies more with <br>Luke than Jane,The speaker identifies more with<br>Jane than Luke,left_to_right
null,Somebody says<br><em>Beth is opposing Mike</em>,NA,NA,NA,html-keyboard-response,101,613425,0.0-54.0-0.0,anomymised,6564584152624795c40b73cb,65645f6aea18e2fca1c760bc,63607,1A,woman,NA,null,NAME1 is opposing NAME2,oppose_active,sentence,NA,NA,NA,NA,NA
5149.799999999814,NA,NA,NA,NA,survey-likert-extra-labels,102,618576,0.0-54.0-1.0,anomymised,6564584152624795c40b73cb,65645f6aea18e2fca1c760bc,63607,1A,woman,NA,NA,Somebody says<br><em>Beth is opposing Mike</em>,oppose_active,rating_volition,"{""Q0"":1}",[0],The speaker identifies more with <br>Beth than Mike,The speaker identifies more with<br>Mike than Beth,left_to_right
null,Somebody says<br><em>Luke is driving Fred,NA,NA,NA,html-keyboard-response,103,621439,0.0-55.0-0.0,anomymised,6564584152624795c40b73cb,65645f6aea18e2fca1c760bc,63607,1A,woman,NA,null,M1 is driving M3,drive,sentence,NA,NA,NA,NA,NA
74849.90000000037,NA,NA,NA,NA,survey-likert-extra-labels,104,696289,0.0-55.0-1.0,anomymised,6564584152624795c40b73cb,65645f6aea18e2fca1c760bc,63607,1A,woman,NA,NA,Somebody says<br><em>Luke is driving Fred,drive,rating_volition,"{""Q0"":6}",[0],Luke is Fred's passenger,Fred is Luke's passenger,NA
1608,<p>Thank you for completing that task.</p><p>The final part of this session is a short questionnaire.</p><p>Press Continue.</p>,0,Continue,Continue,html-button-response,105,697898,0.0-56.0,anomymised,6564584152624795c40b73cb,65645f6aea18e2fca1c760bc,63607,1A,woman,NA,NA,NA,NA,NA,NA,NA,NA,NA,NA
26716,NA,NA,NA,NA,survey-text,106,725620,0.0-57.0,anomymised,6564584152624795c40b73cb,65645f6aea18e2fca1c760bc,63607,1A,woman,NA,NA,NA,NA,demographics,"{""Q0"":""35"",""Q1"":""english"",""Q2"":""english"",""Q3"":""england"",""Q4"":""english"",""Q5"":""white"",""Q6"":""female""}",NA,NA,NA,NA
3086.2000000001863,<p>This is the last question - thank you for taking part! Have you lived in the UK for the last 5 years or more?</p>,0,"Yes,No",Yes,html-button-response,107,728707,0.0-58.0,anomymised,6564584152624795c40b73cb,65645f6aea18e2fca1c760bc,63607,1A,woman,NA,NA,NA,NA,fiveyears,NA,NA,NA,NA,NA
