rt,stimulus,button_pressed,choices,ChosenStimulus,trial_type,trial_index,time_elapsed,internal_node_id,subject_id,study_id,session_id,subject,list,ppt_gender,url,key_press,sentence_type,verb,test_part,responses,question_order,left_part,right_part,name_order
3388,Welcome to the experiment. Press Continue to begin.,0,Continue,Continue,html-button-response,0,3421,0.0-0.0,anomymised,6564584152624795c40b73cb,6564bda73ee2d46c7c1ae260,64264,1A,woman,NA,NA,NA,NA,NA,NA,NA,NA,NA,NA
23794,NA,NA,NA,NA,external-html,1,29329,0.0-1.0,anomymised,6564584152624795c40b73cb,6564bda73ee2d46c7c1ae260,64264,1A,woman,consent.html,NA,NA,NA,NA,NA,NA,NA,NA,NA
52681,"<p>Welcome.</p><p>In this experiment we will ask you to imagine people's motivations for saying sentences.</p><p>Each trial will begin with a sentence that somebody might say to describe an event involving two different people.</p><p>For instance, someone might say <em>Harry is being recruited by Molly</em></p><p>We want you to think about which of those two people (Molly and Harry) the speaker identifies more with. For instance, why did the speaker say <em>Harry is being recruited by Molly</em> rather than <em> Molly is recruiting Harry</em>? Might that mean that the speaker is socially closer to one of the two characters?</p><p>After you have read the sentence, you will rate on a scale which of the two characters the speaker identifies more with.</p><p>You will give your answer by clicking a button on a rating scale.</p><p>Sometimes there will also be catch questions designed to make sure that you are paying attention, which ask about a different topic.</p><p>To do this task, you will have to use your imagination to think about and visualise the events, and how the speaker might relate to the characters.</p><br><p>Ready?</p>",0,Continue,Continue,html-button-response,2,82013,0.0-2.0,anomymised,6564584152624795c40b73cb,6564bda73ee2d46c7c1ae260,64264,1A,woman,NA,NA,NA,NA,NA,NA,NA,NA,NA,NA
2548,"<p>Before the experiment starts, we will show you an example of how you will answer the questions. Press 'Continue'.</p>",0,Continue,Continue,html-button-response,3,85693,0.0-3.0,anomymised,6564584152624795c40b73cb,6564bda73ee2d46c7c1ae260,64264,1A,woman,NA,NA,NA,NA,NA,NA,NA,NA,NA,NA
null,Somebody says <br><em>Samuel is dining with Frank</em>,NA,NA,NA,html-keyboard-response,4,88768,0.0-4.0,anomymised,6564584152624795c40b73cb,6564bda73ee2d46c7c1ae260,64264,1A,woman,NA,null,NA,NA,NA,NA,NA,NA,NA,NA
12043,<img src='img/Example-trial.jpg' style='height:550px;''></img>,0,Continue,Continue,html-button-response,5,100812,0.0-5.0,anomymised,6564584152624795c40b73cb,6564bda73ee2d46c7c1ae260,64264,1A,woman,NA,NA,NA,NA,NA,NA,NA,NA,NA,NA
3476,<p>Ready to start the experiment?</p><br><p><strong>Remember to give an answer by clicking a button on the rating scale.</strong></p><p>Press 'Continue' to begin.</p>,0,Continue,Continue,html-button-response,6,105338,0.0-6.0,anomymised,6564584152624795c40b73cb,6564bda73ee2d46c7c1ae260,64264,1A,woman,NA,NA,NA,NA,NA,NA,NA,NA,NA,NA
null,Somebody says<br><em>Mike is posing for Dave,NA,NA,NA,html-keyboard-response,7,108371,0.0-7.0-0.0,anomymised,6564584152624795c40b73cb,6564bda73ee2d46c7c1ae260,64264,1A,woman,NA,null,M2 is posing for M4,pose,sentence,NA,NA,NA,NA,NA
10123,NA,NA,NA,NA,survey-likert-extra-labels,8,118499,0.0-7.0-1.0,anomymised,6564584152624795c40b73cb,6564bda73ee2d46c7c1ae260,64264,1A,woman,NA,NA,Somebody says<br><em>Mike is posing for Dave,pose,rating_volition,"{""Q0"":1}",[0],Mike is modelling for Dave,Dave is modelling for Mike,NA
null,Somebody says<br><em>Fred is hiring Ruth,NA,NA,NA,html-keyboard-response,9,120744,0.0-8.0-0.0,anomymised,6564584152624795c40b73cb,6564bda73ee2d46c7c1ae260,64264,1A,woman,NA,null,M3 is hiring W1,hire,sentence,NA,NA,NA,NA,NA
14017,NA,NA,NA,NA,survey-likert-extra-labels,10,134763,0.0-8.0-1.0,anomymised,6564584152624795c40b73cb,6564bda73ee2d46c7c1ae260,64264,1A,woman,NA,NA,Somebody says<br><em>Fred is hiring Ruth,hire,rating_volition,"{""Q0"":0}",[0],Fred is employing Ruth,Ruth is employing Fred,NA
null,Somebody says<br><em>Dave and Beth are fighting with each other</em>,NA,NA,NA,html-keyboard-response,11,136908,0.0-9.0-0.0,anomymised,6564584152624795c40b73cb,6564bda73ee2d46c7c1ae260,64264,1A,woman,NA,null,NAME1 and NAME2 are fighting with each other,fight_conjoined,sentence,NA,NA,NA,NA,NA
7077,NA,NA,NA,NA,survey-likert-extra-labels,12,143986,0.0-9.0-1.0,anomymised,6564584152624795c40b73cb,6564bda73ee2d46c7c1ae260,64264,1A,woman,NA,NA,Somebody says<br><em>Dave and Beth are fighting with each other</em>,fight_conjoined,rating_volition,"{""Q0"":3}",[0],The speaker identifies more with <br>Beth than Dave,The speaker identifies more with<br>Dave than Beth,right_to_left
null,Somebody says<br><em>Luke is hugging Jane</em>,NA,NA,NA,html-keyboard-response,13,145995,0.0-10.0-0.0,anomymised,6564584152624795c40b73cb,6564bda73ee2d46c7c1ae260,64264,1A,woman,NA,null,NAME1 is hugging NAME2,hug_active,sentence,NA,NA,NA,NA,NA
10102,NA,NA,NA,NA,survey-likert-extra-labels,14,156098,0.0-10.0-1.0,anomymised,6564584152624795c40b73cb,6564bda73ee2d46c7c1ae260,64264,1A,woman,NA,NA,Somebody says<br><em>Luke is hugging Jane</em>,hug_active,rating_volition,"{""Q0"":6}",[0],The speaker identifies more with <br>Jane than Luke,The speaker identifies more with<br>Luke than Jane,right_to_left
null,Somebody says<br><em>Jane is carrying Beth,NA,NA,NA,html-keyboard-response,15,158105,0.0-11.0-0.0,anomymised,6564584152624795c40b73cb,6564bda73ee2d46c7c1ae260,64264,1A,woman,NA,null,W2 is carrying W4,carry,sentence,NA,NA,NA,NA,NA
5282,NA,NA,NA,NA,survey-likert-extra-labels,16,163388,0.0-11.0-1.0,anomymised,6564584152624795c40b73cb,6564bda73ee2d46c7c1ae260,64264,1A,woman,NA,NA,Somebody says<br><em>Jane is carrying Beth,carry,rating_volition,"{""Q0"":0}",[0],Jane is transporting Beth,Beth is transporting Jane,NA
null,Somebody says<br><em>Fred and Dave are playing with each other</em>,NA,NA,NA,html-keyboard-response,17,165391,0.0-12.0-0.0,anomymised,6564584152624795c40b73cb,6564bda73ee2d46c7c1ae260,64264,1A,woman,NA,null,NAME1 and NAME2 are playing with each other,play_conjoined,sentence,NA,NA,NA,NA,NA
3824,NA,NA,NA,NA,survey-likert-extra-labels,18,169219,0.0-12.0-1.0,anomymised,6564584152624795c40b73cb,6564bda73ee2d46c7c1ae260,64264,1A,woman,NA,NA,Somebody says<br><em>Fred and Dave are playing with each other</em>,play_conjoined,rating_volition,"{""Q0"":3}",[0],The speaker identifies more with <br>Dave than Fred,The speaker identifies more with<br>Fred than Dave,right_to_left
null,Somebody says<br><em>Luke is being seduced by Jane</em>,NA,NA,NA,html-keyboard-response,19,171333,0.0-13.0-0.0,anomymised,6564584152624795c40b73cb,6564bda73ee2d46c7c1ae260,64264,1A,woman,NA,null,NAME1 is being seduced by NAME2,seduce_passive,sentence,NA,NA,NA,NA,NA
7931,NA,NA,NA,NA,survey-likert-extra-labels,20,179266,0.0-13.0-1.0,anomymised,6564584152624795c40b73cb,6564bda73ee2d46c7c1ae260,64264,1A,woman,NA,NA,Somebody says<br><em>Luke is being seduced by Jane</em>,seduce_passive,rating_volition,"{""Q0"":6}",[0],The speaker identifies more with <br>Jane than Luke,The speaker identifies more with<br>Luke than Jane,right_to_left
null,Somebody says<br><em>Mike is reminding Beth,NA,NA,NA,html-keyboard-response,21,181294,0.0-14.0-0.0,anomymised,6564584152624795c40b73cb,6564bda73ee2d46c7c1ae260,64264,1A,woman,NA,null,M2 is reminding W4,remind,sentence,NA,NA,NA,NA,NA
5839,NA,NA,NA,NA,survey-likert-extra-labels,22,187134,0.0-14.0-1.0,anomymised,6564584152624795c40b73cb,6564bda73ee2d46c7c1ae260,64264,1A,woman,NA,NA,Somebody says<br><em>Mike is reminding Beth,remind,rating_volition,"{""Q0"":0}",[0],Mike is telling Beth again,Beth is telling Mike again,NA
null,Somebody says<br><em>Fred is challenging Kate</em>,NA,NA,NA,html-keyboard-response,23,189138,0.0-15.0-0.0,anomymised,6564584152624795c40b73cb,6564bda73ee2d46c7c1ae260,64264,1A,woman,NA,null,NAME1 is challenging NAME2,challenge_active,sentence,NA,NA,NA,NA,NA
6419,NA,NA,NA,NA,survey-likert-extra-labels,24,195558,0.0-15.0-1.0,anomymised,6564584152624795c40b73cb,6564bda73ee2d46c7c1ae260,64264,1A,woman,NA,NA,Somebody says<br><em>Fred is challenging Kate</em>,challenge_active,rating_volition,"{""Q0"":6}",[0],The speaker identifies more with <br>Kate than Fred,The speaker identifies more with<br>Fred than Kate,right_to_left
null,Somebody says<br><em>Jane is teaching Dave,NA,NA,NA,html-keyboard-response,25,197563,0.0-16.0-0.0,anomymised,6564584152624795c40b73cb,6564bda73ee2d46c7c1ae260,64264,1A,woman,NA,null,W2 is teaching M4,teach,sentence,NA,NA,NA,NA,NA
5701,NA,NA,NA,NA,survey-likert-extra-labels,26,203267,0.0-16.0-1.0,anomymised,6564584152624795c40b73cb,6564bda73ee2d46c7c1ae260,64264,1A,woman,NA,NA,Somebody says<br><em>Jane is teaching Dave,teach,rating_volition,"{""Q0"":0}",[0],Jane is educating Dave,Dave is educating Jane,NA
null,Somebody says<br><em>Kate is feeding Luke,NA,NA,NA,html-keyboard-response,27,205280,0.0-17.0-0.0,anomymised,6564584152624795c40b73cb,6564bda73ee2d46c7c1ae260,64264,1A,woman,NA,null,W3 is feeding M1,feed,sentence,NA,NA,NA,NA,NA
4865,NA,NA,NA,NA,survey-likert-extra-labels,28,210147,0.0-17.0-1.0,anomymised,6564584152624795c40b73cb,6564bda73ee2d46c7c1ae260,64264,1A,woman,NA,NA,Somebody says<br><em>Kate is feeding Luke,feed,rating_volition,"{""Q0"":0}",[0],Kate cooked for Luke,Luke cooked for Kate,NA
null,Somebody says<br><em>Mike is playing with Kate</em>,NA,NA,NA,html-keyboard-response,29,212155,0.0-18.0-0.0,anomymised,6564584152624795c40b73cb,6564bda73ee2d46c7c1ae260,64264,1A,woman,NA,null,NAME1 is playing with NAME2,play_active,sentence,NA,NA,NA,NA,NA
5040,NA,NA,NA,NA,survey-likert-extra-labels,30,217197,0.0-18.0-1.0,anomymised,6564584152624795c40b73cb,6564bda73ee2d46c7c1ae260,64264,1A,woman,NA,NA,Somebody says<br><em>Mike is playing with Kate</em>,play_active,rating_volition,"{""Q0"":3}",[0],The speaker identifies more with <br>Mike than Kate,The speaker identifies more with<br>Kate than Mike,left_to_right
null,Somebody says<br><em>Fred is being greeted by Ruth</em>,NA,NA,NA,html-keyboard-response,31,219420,0.0-19.0-0.0,anomymised,6564584152624795c40b73cb,6564bda73ee2d46c7c1ae260,64264,1A,woman,NA,null,NAME1 is being greeted by NAME2,greet_passive,sentence,NA,NA,NA,NA,NA
11444,NA,NA,NA,NA,survey-likert-extra-labels,32,230866,0.0-19.0-1.0,anomymised,6564584152624795c40b73cb,6564bda73ee2d46c7c1ae260,64264,1A,woman,NA,NA,Somebody says<br><em>Fred is being greeted by Ruth</em>,greet_passive,rating_volition,"{""Q0"":5}",[0],The speaker identifies more with <br>Ruth than Fred,The speaker identifies more with<br>Fred than Ruth,right_to_left
null,Somebody says<br><em>Kate is arguing with Luke</em>,NA,NA,NA,html-keyboard-response,33,232877,0.0-20.0-0.0,anomymised,6564584152624795c40b73cb,6564bda73ee2d46c7c1ae260,64264,1A,woman,NA,null,NAME1 is arguing with NAME2,argue_active,sentence,NA,NA,NA,NA,NA
6779,NA,NA,NA,NA,survey-likert-extra-labels,34,239657,0.0-20.0-1.0,anomymised,6564584152624795c40b73cb,6564bda73ee2d46c7c1ae260,64264,1A,woman,NA,NA,Somebody says<br><em>Kate is arguing with Luke</em>,argue_active,rating_volition,"{""Q0"":1}",[0],The speaker identifies more with <br>Kate than Luke,The speaker identifies more with<br>Luke than Kate,left_to_right
null,Somebody says<br><em>Beth is kissing Dave</em>,NA,NA,NA,html-keyboard-response,35,241711,0.0-21.0-0.0,anomymised,6564584152624795c40b73cb,6564bda73ee2d46c7c1ae260,64264,1A,woman,NA,null,NAME1 is kissing NAME2,kiss_active,sentence,NA,NA,NA,NA,NA
10898,NA,NA,NA,NA,survey-likert-extra-labels,36,252611,0.0-21.0-1.0,anomymised,6564584152624795c40b73cb,6564bda73ee2d46c7c1ae260,64264,1A,woman,NA,NA,Somebody says<br><em>Beth is kissing Dave</em>,kiss_active,rating_volition,"{""Q0"":0}",[0],The speaker identifies more with <br>Beth than Dave,The speaker identifies more with<br>Dave than Beth,left_to_right
null,Somebody says<br><em>Jane is greeting Ruth</em>,NA,NA,NA,html-keyboard-response,37,254614,0.0-22.0-0.0,anomymised,6564584152624795c40b73cb,6564bda73ee2d46c7c1ae260,64264,1A,woman,NA,null,NAME1 is greeting NAME2,greet_active,sentence,NA,NA,NA,NA,NA
8027,NA,NA,NA,NA,survey-likert-extra-labels,38,262641,0.0-22.0-1.0,anomymised,6564584152624795c40b73cb,6564bda73ee2d46c7c1ae260,64264,1A,woman,NA,NA,Somebody says<br><em>Jane is greeting Ruth</em>,greet_active,rating_volition,"{""Q0"":0}",[0],The speaker identifies more with <br>Jane than Ruth,The speaker identifies more with<br>Ruth than Jane,left_to_right
null,Somebody says<br><em>Kate is being shouted at by Ruth</em>,NA,NA,NA,html-keyboard-response,39,264650,0.0-23.0-0.0,anomymised,6564584152624795c40b73cb,6564bda73ee2d46c7c1ae260,64264,1A,woman,NA,null,NAME1 is being shouted at by NAME2,shout_passive,sentence,NA,NA,NA,NA,NA
16318,NA,NA,NA,NA,survey-likert-extra-labels,40,280970,0.0-23.0-1.0,anomymised,6564584152624795c40b73cb,6564bda73ee2d46c7c1ae260,64264,1A,woman,NA,NA,Somebody says<br><em>Kate is being shouted at by Ruth</em>,shout_passive,rating_volition,"{""Q0"":1}",[0],The speaker identifies more with <br>Ruth than Kate,The speaker identifies more with<br>Kate than Ruth,right_to_left
null,Somebody says<br><em>Fred is flirting with Beth</em>,NA,NA,NA,html-keyboard-response,41,282978,0.0-24.0-0.0,anomymised,6564584152624795c40b73cb,6564bda73ee2d46c7c1ae260,64264,1A,woman,NA,null,NAME1 is flirting with NAME2,flirt_active,sentence,NA,NA,NA,NA,NA
7412,NA,NA,NA,NA,survey-likert-extra-labels,42,290392,0.0-24.0-1.0,anomymised,6564584152624795c40b73cb,6564bda73ee2d46c7c1ae260,64264,1A,woman,NA,NA,Somebody says<br><em>Fred is flirting with Beth</em>,flirt_active,rating_volition,"{""Q0"":0}",[0],The speaker identifies more with <br>Fred than Beth,The speaker identifies more with<br>Beth than Fred,left_to_right
null,Somebody says<br><em>Ruth is shouting at Dave</em>,NA,NA,NA,html-keyboard-response,43,292561,0.0-25.0-0.0,anomymised,6564584152624795c40b73cb,6564bda73ee2d46c7c1ae260,64264,1A,woman,NA,null,NAME1 is shouting at NAME2,shout_active,sentence,NA,NA,NA,NA,NA
2996,NA,NA,NA,NA,survey-likert-extra-labels,44,295558,0.0-25.0-1.0,anomymised,6564584152624795c40b73cb,6564bda73ee2d46c7c1ae260,64264,1A,woman,NA,NA,Somebody says<br><em>Ruth is shouting at Dave</em>,shout_active,rating_volition,"{""Q0"":0}",[0],The speaker identifies more with <br>Ruth than Dave,The speaker identifies more with<br>Dave than Ruth,left_to_right
null,Somebody says<br><em>Mike and Beth are touching each other</em>,NA,NA,NA,html-keyboard-response,45,297567,0.0-26.0-0.0,anomymised,6564584152624795c40b73cb,6564bda73ee2d46c7c1ae260,64264,1A,woman,NA,null,NAME1 and NAME2 are touching each other,touch_conjoined,sentence,NA,NA,NA,NA,NA
3484,NA,NA,NA,NA,survey-likert-extra-labels,46,301053,0.0-26.0-1.0,anomymised,6564584152624795c40b73cb,6564bda73ee2d46c7c1ae260,64264,1A,woman,NA,NA,Somebody says<br><em>Mike and Beth are touching each other</em>,touch_conjoined,rating_volition,"{""Q0"":3}",[0],The speaker identifies more with <br>Mike than Beth,The speaker identifies more with<br>Beth than Mike,left_to_right
null,Somebody says<br><em>Dave is being touched by Luke</em>,NA,NA,NA,html-keyboard-response,47,303062,0.0-27.0-0.0,anomymised,6564584152624795c40b73cb,6564bda73ee2d46c7c1ae260,64264,1A,woman,NA,null,NAME1 is being touched by NAME2,touch_passive,sentence,NA,NA,NA,NA,NA
6760,NA,NA,NA,NA,survey-likert-extra-labels,48,309823,0.0-27.0-1.0,anomymised,6564584152624795c40b73cb,6564bda73ee2d46c7c1ae260,64264,1A,woman,NA,NA,Somebody says<br><em>Dave is being touched by Luke</em>,touch_passive,rating_volition,"{""Q0"":1}",[0],The speaker identifies more with <br>Dave than Luke,The speaker identifies more with<br>Luke than Dave,left_to_right
null,Somebody says<br><em>Jane is being opposed by Dave</em>,NA,NA,NA,html-keyboard-response,49,312013,0.0-28.0-0.0,anomymised,6564584152624795c40b73cb,6564bda73ee2d46c7c1ae260,64264,1A,woman,NA,null,NAME1 is being opposed by NAME2,oppose_passive,sentence,NA,NA,NA,NA,NA
5406,NA,NA,NA,NA,survey-likert-extra-labels,50,317421,0.0-28.0-1.0,anomymised,6564584152624795c40b73cb,6564bda73ee2d46c7c1ae260,64264,1A,woman,NA,NA,Somebody says<br><em>Jane is being opposed by Dave</em>,oppose_passive,rating_volition,"{""Q0"":5}",[0],The speaker identifies more with <br>Dave than Jane,The speaker identifies more with<br>Jane than Dave,right_to_left
null,Somebody says<br><em>Kate and Jane are hugging each other</em>,NA,NA,NA,html-keyboard-response,51,319426,0.0-29.0-0.0,anomymised,6564584152624795c40b73cb,6564bda73ee2d46c7c1ae260,64264,1A,woman,NA,null,NAME1 and NAME2 are hugging each other,hug_conjoined,sentence,NA,NA,NA,NA,NA
2603,NA,NA,NA,NA,survey-likert-extra-labels,52,322030,0.0-29.0-1.0,anomymised,6564584152624795c40b73cb,6564bda73ee2d46c7c1ae260,64264,1A,woman,NA,NA,Somebody says<br><em>Kate and Jane are hugging each other</em>,hug_conjoined,rating_volition,"{""Q0"":3}",[0],The speaker identifies more with <br>Kate than Jane,The speaker identifies more with<br>Jane than Kate,left_to_right
null,Somebody says<br><em>Mike is shouting at Jane</em>,NA,NA,NA,html-keyboard-response,53,324044,0.0-30.0-0.0,anomymised,6564584152624795c40b73cb,6564bda73ee2d46c7c1ae260,64264,1A,woman,NA,null,NAME1 is shouting at NAME2,shout_active,sentence,NA,NA,NA,NA,NA
5684,NA,NA,NA,NA,survey-likert-extra-labels,54,329730,0.0-30.0-1.0,anomymised,6564584152624795c40b73cb,6564bda73ee2d46c7c1ae260,64264,1A,woman,NA,NA,Somebody says<br><em>Mike is shouting at Jane</em>,shout_active,rating_volition,"{""Q0"":5}",[0],The speaker identifies more with <br>Jane than Mike,The speaker identifies more with<br>Mike than Jane,right_to_left
null,Somebody says<br><em>Dave is being looked at by Kate</em>,NA,NA,NA,html-keyboard-response,55,331773,0.0-31.0-0.0,anomymised,6564584152624795c40b73cb,6564bda73ee2d46c7c1ae260,64264,1A,woman,NA,null,NAME1 is being looked at by NAME2,look_passive,sentence,NA,NA,NA,NA,NA
6748,NA,NA,NA,NA,survey-likert-extra-labels,56,338522,0.0-31.0-1.0,anomymised,6564584152624795c40b73cb,6564bda73ee2d46c7c1ae260,64264,1A,woman,NA,NA,Somebody says<br><em>Dave is being looked at by Kate</em>,look_passive,rating_volition,"{""Q0"":1}",[0],The speaker identifies more with <br>Kate than Dave,The speaker identifies more with<br>Dave than Kate,right_to_left
null,Somebody says<br><em>Ruth is talking to Fred</em>,NA,NA,NA,html-keyboard-response,57,340535,0.0-32.0-0.0,anomymised,6564584152624795c40b73cb,6564bda73ee2d46c7c1ae260,64264,1A,woman,NA,null,NAME1 is talking to NAME2,talk_active,sentence,NA,NA,NA,NA,NA
4367,NA,NA,NA,NA,survey-likert-extra-labels,58,344903,0.0-32.0-1.0,anomymised,6564584152624795c40b73cb,6564bda73ee2d46c7c1ae260,64264,1A,woman,NA,NA,Somebody says<br><em>Ruth is talking to Fred</em>,talk_active,rating_volition,"{""Q0"":5}",[0],The speaker identifies more with <br>Fred than Ruth,The speaker identifies more with<br>Ruth than Fred,right_to_left
null,Somebody says<br><em>Kate is opposing Dave</em>,NA,NA,NA,html-keyboard-response,59,346917,0.0-33.0-0.0,anomymised,6564584152624795c40b73cb,6564bda73ee2d46c7c1ae260,64264,1A,woman,NA,null,NAME1 is opposing NAME2,oppose_active,sentence,NA,NA,NA,NA,NA
5207,NA,NA,NA,NA,survey-likert-extra-labels,60,352127,0.0-33.0-1.0,anomymised,6564584152624795c40b73cb,6564bda73ee2d46c7c1ae260,64264,1A,woman,NA,NA,Somebody says<br><em>Kate is opposing Dave</em>,oppose_active,rating_volition,"{""Q0"":5}",[0],The speaker identifies more with <br>Dave than Kate,The speaker identifies more with<br>Kate than Dave,right_to_left
null,Somebody says<br><em>Mike is copying Beth</em>,NA,NA,NA,html-keyboard-response,61,354260,0.0-34.0-0.0,anomymised,6564584152624795c40b73cb,6564bda73ee2d46c7c1ae260,64264,1A,woman,NA,null,NAME1 is copying NAME2,copy_active,sentence,NA,NA,NA,NA,NA
4668,NA,NA,NA,NA,survey-likert-extra-labels,62,358929,0.0-34.0-1.0,anomymised,6564584152624795c40b73cb,6564bda73ee2d46c7c1ae260,64264,1A,woman,NA,NA,Somebody says<br><em>Mike is copying Beth</em>,copy_active,rating_volition,"{""Q0"":6}",[0],The speaker identifies more with <br>Mike than Beth,The speaker identifies more with<br>Beth than Mike,left_to_right
null,Somebody says<br><em>Kate is seducing Fred</em>,NA,NA,NA,html-keyboard-response,63,360943,0.0-35.0-0.0,anomymised,6564584152624795c40b73cb,6564bda73ee2d46c7c1ae260,64264,1A,woman,NA,null,NAME1 is seducing NAME2,seduce_active,sentence,NA,NA,NA,NA,NA
7491,NA,NA,NA,NA,survey-likert-extra-labels,64,368435,0.0-35.0-1.0,anomymised,6564584152624795c40b73cb,6564bda73ee2d46c7c1ae260,64264,1A,woman,NA,NA,Somebody says<br><em>Kate is seducing Fred</em>,seduce_active,rating_volition,"{""Q0"":6}",[0],The speaker identifies more with <br>Fred than Kate,The speaker identifies more with<br>Kate than Fred,right_to_left
null,Somebody says<br><em>Ruth and Jane are flirting with each other</em>,NA,NA,NA,html-keyboard-response,65,370443,0.0-36.0-0.0,anomymised,6564584152624795c40b73cb,6564bda73ee2d46c7c1ae260,64264,1A,woman,NA,null,NAME1 and NAME2 are flirting with each other,flirt_conjoined,sentence,NA,NA,NA,NA,NA
2853,NA,NA,NA,NA,survey-likert-extra-labels,66,373297,0.0-36.0-1.0,anomymised,6564584152624795c40b73cb,6564bda73ee2d46c7c1ae260,64264,1A,woman,NA,NA,Somebody says<br><em>Ruth and Jane are flirting with each other</em>,flirt_conjoined,rating_volition,"{""Q0"":3}",[0],The speaker identifies more with <br>Ruth than Jane,The speaker identifies more with<br>Jane than Ruth,left_to_right
null,Somebody says<br><em>Jane is being copied by Mike</em>,NA,NA,NA,html-keyboard-response,67,375301,0.0-37.0-0.0,anomymised,6564584152624795c40b73cb,6564bda73ee2d46c7c1ae260,64264,1A,woman,NA,null,NAME1 is being copied by NAME2,copy_passive,sentence,NA,NA,NA,NA,NA
8743,NA,NA,NA,NA,survey-likert-extra-labels,68,384046,0.0-37.0-1.0,anomymised,6564584152624795c40b73cb,6564bda73ee2d46c7c1ae260,64264,1A,woman,NA,NA,Somebody says<br><em>Jane is being copied by Mike</em>,copy_passive,rating_volition,"{""Q0"":0}",[0],The speaker identifies more with <br>Jane than Mike,The speaker identifies more with<br>Mike than Jane,left_to_right
null,Somebody says<br><em>Mike is fighting with Kate</em>,NA,NA,NA,html-keyboard-response,69,386048,0.0-38.0-0.0,anomymised,6564584152624795c40b73cb,6564bda73ee2d46c7c1ae260,64264,1A,woman,NA,null,NAME1 is fighting with NAME2,fight_active,sentence,NA,NA,NA,NA,NA
4693,NA,NA,NA,NA,survey-likert-extra-labels,70,390743,0.0-38.0-1.0,anomymised,6564584152624795c40b73cb,6564bda73ee2d46c7c1ae260,64264,1A,woman,NA,NA,Somebody says<br><em>Mike is fighting with Kate</em>,fight_active,rating_volition,"{""Q0"":0}",[0],The speaker identifies more with <br>Kate than Mike,The speaker identifies more with<br>Mike than Kate,right_to_left
null,Somebody says<br><em>Luke and Jane are marrying each other</em>,NA,NA,NA,html-keyboard-response,71,392798,0.0-39.0-0.0,anomymised,6564584152624795c40b73cb,6564bda73ee2d46c7c1ae260,64264,1A,woman,NA,null,NAME1 and NAME2 are marrying each other,marry_conjoined,sentence,NA,NA,NA,NA,NA
2434,NA,NA,NA,NA,survey-likert-extra-labels,72,395234,0.0-39.0-1.0,anomymised,6564584152624795c40b73cb,6564bda73ee2d46c7c1ae260,64264,1A,woman,NA,NA,Somebody says<br><em>Luke and Jane are marrying each other</em>,marry_conjoined,rating_volition,"{""Q0"":3}",[0],The speaker identifies more with <br>Luke than Jane,The speaker identifies more with<br>Jane than Luke,left_to_right
null,Somebody says<br><em>Kate and Jane are meeting each other</em>,NA,NA,NA,html-keyboard-response,73,397247,0.0-40.0-0.0,anomymised,6564584152624795c40b73cb,6564bda73ee2d46c7c1ae260,64264,1A,woman,NA,null,NAME1 and NAME2 are meeting each other,meet_conjoined,sentence,NA,NA,NA,NA,NA
9851,NA,NA,NA,NA,survey-likert-extra-labels,74,407098,0.0-40.0-1.0,anomymised,6564584152624795c40b73cb,6564bda73ee2d46c7c1ae260,64264,1A,woman,NA,NA,Somebody says<br><em>Kate and Jane are meeting each other</em>,meet_conjoined,rating_volition,"{""Q0"":3}",[0],The speaker identifies more with <br>Jane than Kate,The speaker identifies more with<br>Kate than Jane,right_to_left
null,Somebody says<br><em>Fred and Jane are shouting at each other</em>,NA,NA,NA,html-keyboard-response,75,409110,0.0-41.0-0.0,anomymised,6564584152624795c40b73cb,6564bda73ee2d46c7c1ae260,64264,1A,woman,NA,null,NAME1 and NAME2 are shouting at each other,shout_conjoined,sentence,NA,NA,NA,NA,NA
2003,NA,NA,NA,NA,survey-likert-extra-labels,76,411115,0.0-41.0-1.0,anomymised,6564584152624795c40b73cb,6564bda73ee2d46c7c1ae260,64264,1A,woman,NA,NA,Somebody says<br><em>Fred and Jane are shouting at each other</em>,shout_conjoined,rating_volition,"{""Q0"":3}",[0],The speaker identifies more with <br>Fred than Jane,The speaker identifies more with<br>Jane than Fred,left_to_right
null,Somebody says<br><em>Luke and Ruth are arguing with each other</em>,NA,NA,NA,html-keyboard-response,77,413164,0.0-42.0-0.0,anomymised,6564584152624795c40b73cb,6564bda73ee2d46c7c1ae260,64264,1A,woman,NA,null,NAME1 and NAME2 are arguing with each other,argue_conjoined,sentence,NA,NA,NA,NA,NA
2917,NA,NA,NA,NA,survey-likert-extra-labels,78,416082,0.0-42.0-1.0,anomymised,6564584152624795c40b73cb,6564bda73ee2d46c7c1ae260,64264,1A,woman,NA,NA,Somebody says<br><em>Luke and Ruth are arguing with each other</em>,argue_conjoined,rating_volition,"{""Q0"":3}",[0],The speaker identifies more with <br>Ruth than Luke,The speaker identifies more with<br>Luke than Ruth,right_to_left
null,Somebody says<br><em>Ruth and Mike are talking with each other</em>,NA,NA,NA,html-keyboard-response,79,418111,0.0-43.0-0.0,anomymised,6564584152624795c40b73cb,6564bda73ee2d46c7c1ae260,64264,1A,woman,NA,null,NAME1 and NAME2 are talking with each other,talk_conjoined,sentence,NA,NA,NA,NA,NA
2199,NA,NA,NA,NA,survey-likert-extra-labels,80,420311,0.0-43.0-1.0,anomymised,6564584152624795c40b73cb,6564bda73ee2d46c7c1ae260,64264,1A,woman,NA,NA,Somebody says<br><em>Ruth and Mike are talking with each other</em>,talk_conjoined,rating_volition,"{""Q0"":3}",[0],The speaker identifies more with <br>Ruth than Mike,The speaker identifies more with<br>Mike than Ruth,left_to_right
null,Somebody says<br><em>Beth is touching Dave</em>,NA,NA,NA,html-keyboard-response,81,422339,0.0-44.0-0.0,anomymised,6564584152624795c40b73cb,6564bda73ee2d46c7c1ae260,64264,1A,woman,NA,null,NAME1 is touching NAME2,touch_active,sentence,NA,NA,NA,NA,NA
8121,NA,NA,NA,NA,survey-likert-extra-labels,82,430462,0.0-44.0-1.0,anomymised,6564584152624795c40b73cb,6564bda73ee2d46c7c1ae260,64264,1A,woman,NA,NA,Somebody says<br><em>Beth is touching Dave</em>,touch_active,rating_volition,"{""Q0"":1}",[0],The speaker identifies more with <br>Beth than Dave,The speaker identifies more with<br>Dave than Beth,left_to_right
null,Somebody says<br><em>Fred is looking at Dave</em>,NA,NA,NA,html-keyboard-response,83,432669,0.0-45.0-0.0,anomymised,6564584152624795c40b73cb,6564bda73ee2d46c7c1ae260,64264,1A,woman,NA,null,NAME1 is looking at NAME2,look_active,sentence,NA,NA,NA,NA,NA
8570,NA,NA,NA,NA,survey-likert-extra-labels,84,441241,0.0-45.0-1.0,anomymised,6564584152624795c40b73cb,6564bda73ee2d46c7c1ae260,64264,1A,woman,NA,NA,Somebody says<br><em>Fred is looking at Dave</em>,look_active,rating_volition,"{""Q0"":1}",[0],The speaker identifies more with <br>Fred than Dave,The speaker identifies more with<br>Dave than Fred,left_to_right
null,Somebody says<br><em>Mike is marrying Jane</em>,NA,NA,NA,html-keyboard-response,85,443255,0.0-46.0-0.0,anomymised,6564584152624795c40b73cb,6564bda73ee2d46c7c1ae260,64264,1A,woman,NA,null,NAME1 is marrying NAME2,marry_active,sentence,NA,NA,NA,NA,NA
5761,NA,NA,NA,NA,survey-likert-extra-labels,86,449018,0.0-46.0-1.0,anomymised,6564584152624795c40b73cb,6564bda73ee2d46c7c1ae260,64264,1A,woman,NA,NA,Somebody says<br><em>Mike is marrying Jane</em>,marry_active,rating_volition,"{""Q0"":1}",[0],The speaker identifies more with <br>Mike than Jane,The speaker identifies more with<br>Jane than Mike,left_to_right
null,Somebody says<br><em>Dave and Fred are dancing with each other</em>,NA,NA,NA,html-keyboard-response,87,451247,0.0-47.0-0.0,anomymised,6564584152624795c40b73cb,6564bda73ee2d46c7c1ae260,64264,1A,woman,NA,null,NAME1 and NAME2 are dancing with each other,dance_conjoined,sentence,NA,NA,NA,NA,NA
2710,NA,NA,NA,NA,survey-likert-extra-labels,88,453957,0.0-47.0-1.0,anomymised,6564584152624795c40b73cb,6564bda73ee2d46c7c1ae260,64264,1A,woman,NA,NA,Somebody says<br><em>Dave and Fred are dancing with each other</em>,dance_conjoined,rating_volition,"{""Q0"":3}",[0],The speaker identifies more with <br>Fred than Dave,The speaker identifies more with<br>Dave than Fred,right_to_left
null,Somebody says<br><em>Dave is meeting Kate</em>,NA,NA,NA,html-keyboard-response,89,456092,0.0-48.0-0.0,anomymised,6564584152624795c40b73cb,6564bda73ee2d46c7c1ae260,64264,1A,woman,NA,null,NAME1 is meeting NAME2,meet_active,sentence,NA,NA,NA,NA,NA
7801,NA,NA,NA,NA,survey-likert-extra-labels,90,463895,0.0-48.0-1.0,anomymised,6564584152624795c40b73cb,6564bda73ee2d46c7c1ae260,64264,1A,woman,NA,NA,Somebody says<br><em>Dave is meeting Kate</em>,meet_active,rating_volition,"{""Q0"":5}",[0],The speaker identifies more with <br>Dave than Kate,The speaker identifies more with<br>Kate than Dave,left_to_right
null,Somebody says<br><em>Ruth is being hugged by Kate</em>,NA,NA,NA,html-keyboard-response,91,465902,0.0-49.0-0.0,anomymised,6564584152624795c40b73cb,6564bda73ee2d46c7c1ae260,64264,1A,woman,NA,null,NAME1 is being hugged by NAME2,hug_passive,sentence,NA,NA,NA,NA,NA
7395,NA,NA,NA,NA,survey-likert-extra-labels,92,473298,0.0-49.0-1.0,anomymised,6564584152624795c40b73cb,6564bda73ee2d46c7c1ae260,64264,1A,woman,NA,NA,Somebody says<br><em>Ruth is being hugged by Kate</em>,hug_passive,rating_volition,"{""Q0"":5}",[0],The speaker identifies more with <br>Ruth than Kate,The speaker identifies more with<br>Kate than Ruth,left_to_right
null,Somebody says<br><em>Ruth is chasing Kate,NA,NA,NA,html-keyboard-response,93,475312,0.0-50.0-0.0,anomymised,6564584152624795c40b73cb,6564bda73ee2d46c7c1ae260,64264,1A,woman,NA,null,W1 is chasing W3,chase,sentence,NA,NA,NA,NA,NA
15435,NA,NA,NA,NA,survey-likert-extra-labels,94,490751,0.0-50.0-1.0,anomymised,6564584152624795c40b73cb,6564bda73ee2d46c7c1ae260,64264,1A,woman,NA,NA,Somebody says<br><em>Ruth is chasing Kate,chase,rating_volition,"{""Q0"":0}",[0],Ruth is behind Kate,Kate is behind Ruth,NA
null,Somebody says<br><em>Fred is being kissed by Jane</em>,NA,NA,NA,html-keyboard-response,95,492755,0.0-51.0-0.0,anomymised,6564584152624795c40b73cb,6564bda73ee2d46c7c1ae260,64264,1A,woman,NA,null,NAME1 is being kissed by NAME2,kiss_passive,sentence,NA,NA,NA,NA,NA
5510,NA,NA,NA,NA,survey-likert-extra-labels,96,498267,0.0-51.0-1.0,anomymised,6564584152624795c40b73cb,6564bda73ee2d46c7c1ae260,64264,1A,woman,NA,NA,Somebody says<br><em>Fred is being kissed by Jane</em>,kiss_passive,rating_volition,"{""Q0"":0}",[0],The speaker identifies more with <br>Fred than Jane,The speaker identifies more with<br>Jane than Fred,left_to_right
null,Somebody says<br><em>Luke is driving Fred,NA,NA,NA,html-keyboard-response,97,500445,0.0-52.0-0.0,anomymised,6564584152624795c40b73cb,6564bda73ee2d46c7c1ae260,64264,1A,woman,NA,null,M1 is driving M3,drive,sentence,NA,NA,NA,NA,NA
10374,NA,NA,NA,NA,survey-likert-extra-labels,98,510822,0.0-52.0-1.0,anomymised,6564584152624795c40b73cb,6564bda73ee2d46c7c1ae260,64264,1A,woman,NA,NA,Somebody says<br><em>Luke is driving Fred,drive,rating_volition,"{""Q0"":6}",[0],Luke is Fred's passenger,Fred is Luke's passenger,NA
null,Somebody says<br><em>Fred and Ruth are kissing each other</em>,NA,NA,NA,html-keyboard-response,99,512838,0.0-53.0-0.0,anomymised,6564584152624795c40b73cb,6564bda73ee2d46c7c1ae260,64264,1A,woman,NA,null,NAME1 and NAME2 are kissing each other,kiss_conjoined,sentence,NA,NA,NA,NA,NA
2408,NA,NA,NA,NA,survey-likert-extra-labels,100,515250,0.0-53.0-1.0,anomymised,6564584152624795c40b73cb,6564bda73ee2d46c7c1ae260,64264,1A,woman,NA,NA,Somebody says<br><em>Fred and Ruth are kissing each other</em>,kiss_conjoined,rating_volition,"{""Q0"":3}",[0],The speaker identifies more with <br>Ruth than Fred,The speaker identifies more with<br>Fred than Ruth,right_to_left
null,Somebody says<br><em>Jane is dancing with Ruth</em>,NA,NA,NA,html-keyboard-response,101,517253,0.0-54.0-0.0,anomymised,6564584152624795c40b73cb,6564bda73ee2d46c7c1ae260,64264,1A,woman,NA,null,NAME1 is dancing with NAME2,dance_active,sentence,NA,NA,NA,NA,NA
7519,NA,NA,NA,NA,survey-likert-extra-labels,102,524773,0.0-54.0-1.0,anomymised,6564584152624795c40b73cb,6564bda73ee2d46c7c1ae260,64264,1A,woman,NA,NA,Somebody says<br><em>Jane is dancing with Ruth</em>,dance_active,rating_volition,"{""Q0"":1}",[0],The speaker identifies more with <br>Ruth than Jane,The speaker identifies more with<br>Jane than Ruth,right_to_left
null,Somebody says<br><em>Jane is being challenged by Mike</em>,NA,NA,NA,html-keyboard-response,103,526791,0.0-55.0-0.0,anomymised,6564584152624795c40b73cb,6564bda73ee2d46c7c1ae260,64264,1A,woman,NA,null,NAME1 is being challenged by NAME2,challenge_passive,sentence,NA,NA,NA,NA,NA
6407,NA,NA,NA,NA,survey-likert-extra-labels,104,533197,0.0-55.0-1.0,anomymised,6564584152624795c40b73cb,6564bda73ee2d46c7c1ae260,64264,1A,woman,NA,NA,Somebody says<br><em>Jane is being challenged by Mike</em>,challenge_passive,rating_volition,"{""Q0"":6}",[0],The speaker identifies more with <br>Mike than Jane,The speaker identifies more with<br>Jane than Mike,right_to_left
2493,<p>Thank you for completing that task.</p><p>The final part of this session is a short questionnaire.</p><p>Press Continue.</p>,0,Continue,Continue,html-button-response,105,535693,0.0-56.0,anomymised,6564584152624795c40b73cb,6564bda73ee2d46c7c1ae260,64264,1A,woman,NA,NA,NA,NA,NA,NA,NA,NA,NA,NA
53870,NA,NA,NA,NA,survey-text,106,590581,0.0-57.0,anomymised,6564584152624795c40b73cb,6564bda73ee2d46c7c1ae260,64264,1A,woman,NA,NA,NA,NA,demographics,"{""Q0"":""67"",""Q1"":""English"",""Q2"":""English"",""Q3"":""Wales"",""Q4"":""Welsh"",""Q5"":""Caucasian"",""Q6"":""Female""}",NA,NA,NA,NA
3041,<p>This is the last question - thank you for taking part! Have you lived in the UK for the last 5 years or more?</p>,0,"Yes,No",Yes,html-button-response,107,593624,0.0-58.0,anomymised,6564584152624795c40b73cb,6564bda73ee2d46c7c1ae260,64264,1A,woman,NA,NA,NA,NA,fiveyears,NA,NA,NA,NA,NA
