rt,stimulus,button_pressed,choices,ChosenStimulus,trial_type,trial_index,time_elapsed,internal_node_id,subject_id,study_id,session_id,subject,list,ppt_gender,url,key_press,sentence_type,verb,test_part,responses,question_order,left_part,right_part,name_order
1910,Welcome to the experiment. Press Continue to begin.,0,Continue,Continue,html-button-response,0,1917,0.0-0.0,anomymised,6560c4cfd080ba12b16d8282,6564c8bba33bdd88834ed7dd,64270,1A,man,NA,NA,NA,NA,NA,NA,NA,NA,NA,NA
5721,NA,NA,NA,NA,external-html,1,8777,0.0-1.0,anomymised,6560c4cfd080ba12b16d8282,6564c8bba33bdd88834ed7dd,64270,1A,man,consent.html,NA,NA,NA,NA,NA,NA,NA,NA,NA
3696,"<p>Welcome.</p><p>In this experiment we will ask you to imagine people's motivations for saying sentences.</p><p>Each trial will begin with a sentence that somebody might say to describe an event involving two different people.</p><p>For instance, someone might say <em>Harry is being recruited by Molly</em></p><p>We want you to think about which of those two people (Molly and Harry) the speaker identifies more with. For instance, why did the speaker say <em>Harry is being recruited by Molly</em> rather than <em> Molly is recruiting Harry</em>? Might that mean that the speaker is socially closer to one of the two characters?</p><p>After you have read the sentence, you will rate on a scale which of the two characters the speaker identifies more with.</p><p>You will give your answer by clicking a button on a rating scale.</p><p>Sometimes there will also be catch questions designed to make sure that you are paying attention, which ask about a different topic.</p><p>To do this task, you will have to use your imagination to think about and visualise the events, and how the speaker might relate to the characters.</p><br><p>Ready?</p>",0,Continue,Continue,html-button-response,2,12476,0.0-2.0,anomymised,6560c4cfd080ba12b16d8282,6564c8bba33bdd88834ed7dd,64270,1A,man,NA,NA,NA,NA,NA,NA,NA,NA,NA,NA
2198,"<p>Before the experiment starts, we will show you an example of how you will answer the questions. Press 'Continue'.</p>",0,Continue,Continue,html-button-response,3,15681,0.0-3.0,anomymised,6560c4cfd080ba12b16d8282,6564c8bba33bdd88834ed7dd,64270,1A,man,NA,NA,NA,NA,NA,NA,NA,NA,NA,NA
null,Somebody says <br><em>Samuel is dining with Frank</em>,NA,NA,NA,html-keyboard-response,4,18692,0.0-4.0,anomymised,6560c4cfd080ba12b16d8282,6564c8bba33bdd88834ed7dd,64270,1A,man,NA,null,NA,NA,NA,NA,NA,NA,NA,NA
22127,<img src='img/Example-trial.jpg' style='height:550px;''></img>,0,Continue,Continue,html-button-response,5,40822,0.0-5.0,anomymised,6560c4cfd080ba12b16d8282,6564c8bba33bdd88834ed7dd,64270,1A,man,NA,NA,NA,NA,NA,NA,NA,NA,NA,NA
2888,<p>Ready to start the experiment?</p><br><p><strong>Remember to give an answer by clicking a button on the rating scale.</strong></p><p>Press 'Continue' to begin.</p>,0,Continue,Continue,html-button-response,6,44717,0.0-6.0,anomymised,6560c4cfd080ba12b16d8282,6564c8bba33bdd88834ed7dd,64270,1A,man,NA,NA,NA,NA,NA,NA,NA,NA,NA,NA
null,Somebody says<br><em>Dave is kissing Mike</em>,NA,NA,NA,html-keyboard-response,7,47739,0.0-7.0-0.0,anomymised,6560c4cfd080ba12b16d8282,6564c8bba33bdd88834ed7dd,64270,1A,man,NA,null,NAME1 is kissing NAME2,kiss_active,sentence,NA,NA,NA,NA,NA
6899,NA,NA,NA,NA,survey-likert-extra-labels,8,54641,0.0-7.0-1.0,anomymised,6560c4cfd080ba12b16d8282,6564c8bba33bdd88834ed7dd,64270,1A,man,NA,NA,Somebody says<br><em>Dave is kissing Mike</em>,kiss_active,rating_volition,"{""Q0"":3}",[0],The speaker identifies more with <br>Mike than Dave,The speaker identifies more with<br>Dave than Mike,right_to_left
null,Somebody says<br><em>Luke and Dave are flirting with each other</em>,NA,NA,NA,html-keyboard-response,9,56645,0.0-8.0-0.0,anomymised,6560c4cfd080ba12b16d8282,6564c8bba33bdd88834ed7dd,64270,1A,man,NA,null,NAME1 and NAME2 are flirting with each other,flirt_conjoined,sentence,NA,NA,NA,NA,NA
4716,NA,NA,NA,NA,survey-likert-extra-labels,10,61362,0.0-8.0-1.0,anomymised,6560c4cfd080ba12b16d8282,6564c8bba33bdd88834ed7dd,64270,1A,man,NA,NA,Somebody says<br><em>Luke and Dave are flirting with each other</em>,flirt_conjoined,rating_volition,"{""Q0"":3}",[0],The speaker identifies more with <br>Dave than Luke,The speaker identifies more with<br>Luke than Dave,right_to_left
null,Somebody says<br><em>Kate is flirting with Luke</em>,NA,NA,NA,html-keyboard-response,11,63369,0.0-9.0-0.0,anomymised,6560c4cfd080ba12b16d8282,6564c8bba33bdd88834ed7dd,64270,1A,man,NA,null,NAME1 is flirting with NAME2,flirt_active,sentence,NA,NA,NA,NA,NA
7550,NA,NA,NA,NA,survey-likert-extra-labels,12,70922,0.0-9.0-1.0,anomymised,6560c4cfd080ba12b16d8282,6564c8bba33bdd88834ed7dd,64270,1A,man,NA,NA,Somebody says<br><em>Kate is flirting with Luke</em>,flirt_active,rating_volition,"{""Q0"":3}",[0],The speaker identifies more with <br>Kate than Luke,The speaker identifies more with<br>Luke than Kate,left_to_right
null,Somebody says<br><em>Dave is copying Fred</em>,NA,NA,NA,html-keyboard-response,13,72927,0.0-10.0-0.0,anomymised,6560c4cfd080ba12b16d8282,6564c8bba33bdd88834ed7dd,64270,1A,man,NA,null,NAME1 is copying NAME2,copy_active,sentence,NA,NA,NA,NA,NA
9861,NA,NA,NA,NA,survey-likert-extra-labels,14,82790,0.0-10.0-1.0,anomymised,6560c4cfd080ba12b16d8282,6564c8bba33bdd88834ed7dd,64270,1A,man,NA,NA,Somebody says<br><em>Dave is copying Fred</em>,copy_active,rating_volition,"{""Q0"":4}",[0],The speaker identifies more with <br>Fred than Dave,The speaker identifies more with<br>Dave than Fred,right_to_left
null,Somebody says<br><em>Mike is shouting at Jane</em>,NA,NA,NA,html-keyboard-response,15,84806,0.0-11.0-0.0,anomymised,6560c4cfd080ba12b16d8282,6564c8bba33bdd88834ed7dd,64270,1A,man,NA,null,NAME1 is shouting at NAME2,shout_active,sentence,NA,NA,NA,NA,NA
7652,NA,NA,NA,NA,survey-likert-extra-labels,16,92460,0.0-11.0-1.0,anomymised,6560c4cfd080ba12b16d8282,6564c8bba33bdd88834ed7dd,64270,1A,man,NA,NA,Somebody says<br><em>Mike is shouting at Jane</em>,shout_active,rating_volition,"{""Q0"":4}",[0],The speaker identifies more with <br>Mike than Jane,The speaker identifies more with<br>Jane than Mike,left_to_right
null,Somebody says<br><em>Mike is dancing with Dave</em>,NA,NA,NA,html-keyboard-response,17,94476,0.0-12.0-0.0,anomymised,6560c4cfd080ba12b16d8282,6564c8bba33bdd88834ed7dd,64270,1A,man,NA,null,NAME1 is dancing with NAME2,dance_active,sentence,NA,NA,NA,NA,NA
2348,NA,NA,NA,NA,survey-likert-extra-labels,18,96827,0.0-12.0-1.0,anomymised,6560c4cfd080ba12b16d8282,6564c8bba33bdd88834ed7dd,64270,1A,man,NA,NA,Somebody says<br><em>Mike is dancing with Dave</em>,dance_active,rating_volition,"{""Q0"":3}",[0],The speaker identifies more with <br>Mike than Dave,The speaker identifies more with<br>Dave than Mike,left_to_right
null,Somebody says<br><em>Fred is being opposed by Jane</em>,NA,NA,NA,html-keyboard-response,19,98830,0.0-13.0-0.0,anomymised,6560c4cfd080ba12b16d8282,6564c8bba33bdd88834ed7dd,64270,1A,man,NA,null,NAME1 is being opposed by NAME2,oppose_passive,sentence,NA,NA,NA,NA,NA
26630,NA,NA,NA,NA,survey-likert-extra-labels,20,125461,0.0-13.0-1.0,anomymised,6560c4cfd080ba12b16d8282,6564c8bba33bdd88834ed7dd,64270,1A,man,NA,NA,Somebody says<br><em>Fred is being opposed by Jane</em>,oppose_passive,rating_volition,"{""Q0"":2}",[0],The speaker identifies more with <br>Fred than Jane,The speaker identifies more with<br>Jane than Fred,left_to_right
null,Somebody says<br><em>Ruth is fighting with Fred</em>,NA,NA,NA,html-keyboard-response,21,127468,0.0-14.0-0.0,anomymised,6560c4cfd080ba12b16d8282,6564c8bba33bdd88834ed7dd,64270,1A,man,NA,null,NAME1 is fighting with NAME2,fight_active,sentence,NA,NA,NA,NA,NA
5006,NA,NA,NA,NA,survey-likert-extra-labels,22,132475,0.0-14.0-1.0,anomymised,6560c4cfd080ba12b16d8282,6564c8bba33bdd88834ed7dd,64270,1A,man,NA,NA,Somebody says<br><em>Ruth is fighting with Fred</em>,fight_active,rating_volition,"{""Q0"":3}",[0],The speaker identifies more with <br>Fred than Ruth,The speaker identifies more with<br>Ruth than Fred,right_to_left
null,Somebody says<br><em>Luke and Beth are touching each other</em>,NA,NA,NA,html-keyboard-response,23,134484,0.0-15.0-0.0,anomymised,6560c4cfd080ba12b16d8282,6564c8bba33bdd88834ed7dd,64270,1A,man,NA,null,NAME1 and NAME2 are touching each other,touch_conjoined,sentence,NA,NA,NA,NA,NA
1968,NA,NA,NA,NA,survey-likert-extra-labels,24,136454,0.0-15.0-1.0,anomymised,6560c4cfd080ba12b16d8282,6564c8bba33bdd88834ed7dd,64270,1A,man,NA,NA,Somebody says<br><em>Luke and Beth are touching each other</em>,touch_conjoined,rating_volition,"{""Q0"":3}",[0],The speaker identifies more with <br>Beth than Luke,The speaker identifies more with<br>Luke than Beth,right_to_left
null,Somebody says<br><em>Fred is being greeted by Dave</em>,NA,NA,NA,html-keyboard-response,25,138457,0.0-16.0-0.0,anomymised,6560c4cfd080ba12b16d8282,6564c8bba33bdd88834ed7dd,64270,1A,man,NA,null,NAME1 is being greeted by NAME2,greet_passive,sentence,NA,NA,NA,NA,NA
2388,NA,NA,NA,NA,survey-likert-extra-labels,26,140847,0.0-16.0-1.0,anomymised,6560c4cfd080ba12b16d8282,6564c8bba33bdd88834ed7dd,64270,1A,man,NA,NA,Somebody says<br><em>Fred is being greeted by Dave</em>,greet_passive,rating_volition,"{""Q0"":3}",[0],The speaker identifies more with <br>Fred than Dave,The speaker identifies more with<br>Dave than Fred,left_to_right
null,Somebody says<br><em>Ruth is touching Jane</em>,NA,NA,NA,html-keyboard-response,27,142852,0.0-17.0-0.0,anomymised,6560c4cfd080ba12b16d8282,6564c8bba33bdd88834ed7dd,64270,1A,man,NA,null,NAME1 is touching NAME2,touch_active,sentence,NA,NA,NA,NA,NA
2626,NA,NA,NA,NA,survey-likert-extra-labels,28,145481,0.0-17.0-1.0,anomymised,6560c4cfd080ba12b16d8282,6564c8bba33bdd88834ed7dd,64270,1A,man,NA,NA,Somebody says<br><em>Ruth is touching Jane</em>,touch_active,rating_volition,"{""Q0"":3}",[0],The speaker identifies more with <br>Jane than Ruth,The speaker identifies more with<br>Ruth than Jane,right_to_left
null,Somebody says<br><em>Luke is being touched by Dave</em>,NA,NA,NA,html-keyboard-response,29,147489,0.0-18.0-0.0,anomymised,6560c4cfd080ba12b16d8282,6564c8bba33bdd88834ed7dd,64270,1A,man,NA,null,NAME1 is being touched by NAME2,touch_passive,sentence,NA,NA,NA,NA,NA
4756,NA,NA,NA,NA,survey-likert-extra-labels,30,152247,0.0-18.0-1.0,anomymised,6560c4cfd080ba12b16d8282,6564c8bba33bdd88834ed7dd,64270,1A,man,NA,NA,Somebody says<br><em>Luke is being touched by Dave</em>,touch_passive,rating_volition,"{""Q0"":3}",[0],The speaker identifies more with <br>Luke than Dave,The speaker identifies more with<br>Dave than Luke,left_to_right
null,Somebody says<br><em>Ruth and Mike are hugging each other</em>,NA,NA,NA,html-keyboard-response,31,154255,0.0-19.0-0.0,anomymised,6560c4cfd080ba12b16d8282,6564c8bba33bdd88834ed7dd,64270,1A,man,NA,null,NAME1 and NAME2 are hugging each other,hug_conjoined,sentence,NA,NA,NA,NA,NA
6177,NA,NA,NA,NA,survey-likert-extra-labels,32,160434,0.0-19.0-1.0,anomymised,6560c4cfd080ba12b16d8282,6564c8bba33bdd88834ed7dd,64270,1A,man,NA,NA,Somebody says<br><em>Ruth and Mike are hugging each other</em>,hug_conjoined,rating_volition,"{""Q0"":3}",[0],The speaker identifies more with <br>Mike than Ruth,The speaker identifies more with<br>Ruth than Mike,right_to_left
null,Somebody says<br><em>Fred is challenging Dave</em>,NA,NA,NA,html-keyboard-response,33,162438,0.0-20.0-0.0,anomymised,6560c4cfd080ba12b16d8282,6564c8bba33bdd88834ed7dd,64270,1A,man,NA,null,NAME1 is challenging NAME2,challenge_active,sentence,NA,NA,NA,NA,NA
7536,NA,NA,NA,NA,survey-likert-extra-labels,34,169975,0.0-20.0-1.0,anomymised,6560c4cfd080ba12b16d8282,6564c8bba33bdd88834ed7dd,64270,1A,man,NA,NA,Somebody says<br><em>Fred is challenging Dave</em>,challenge_active,rating_volition,"{""Q0"":2}",[0],The speaker identifies more with <br>Dave than Fred,The speaker identifies more with<br>Fred than Dave,right_to_left
null,Somebody says<br><em>Mike and Luke are marrying each other</em>,NA,NA,NA,html-keyboard-response,35,171978,0.0-21.0-0.0,anomymised,6560c4cfd080ba12b16d8282,6564c8bba33bdd88834ed7dd,64270,1A,man,NA,null,NAME1 and NAME2 are marrying each other,marry_conjoined,sentence,NA,NA,NA,NA,NA
11363,NA,NA,NA,NA,survey-likert-extra-labels,36,183342,0.0-21.0-1.0,anomymised,6560c4cfd080ba12b16d8282,6564c8bba33bdd88834ed7dd,64270,1A,man,NA,NA,Somebody says<br><em>Mike and Luke are marrying each other</em>,marry_conjoined,rating_volition,"{""Q0"":3}",[0],The speaker identifies more with <br>Luke than Mike,The speaker identifies more with<br>Mike than Luke,right_to_left
null,Somebody says<br><em>Luke is driving Fred,NA,NA,NA,html-keyboard-response,37,185348,0.0-22.0-0.0,anomymised,6560c4cfd080ba12b16d8282,6564c8bba33bdd88834ed7dd,64270,1A,man,NA,null,M1 is driving M3,drive,sentence,NA,NA,NA,NA,NA
13536,NA,NA,NA,NA,survey-likert-extra-labels,38,198887,0.0-22.0-1.0,anomymised,6560c4cfd080ba12b16d8282,6564c8bba33bdd88834ed7dd,64270,1A,man,NA,NA,Somebody says<br><em>Luke is driving Fred,drive,rating_volition,"{""Q0"":6}",[0],Luke is Fred's passenger,Fred is Luke's passenger,NA
null,Somebody says<br><em>Jane and Dave are arguing with each other</em>,NA,NA,NA,html-keyboard-response,39,200891,0.0-23.0-0.0,anomymised,6560c4cfd080ba12b16d8282,6564c8bba33bdd88834ed7dd,64270,1A,man,NA,null,NAME1 and NAME2 are arguing with each other,argue_conjoined,sentence,NA,NA,NA,NA,NA
26849,NA,NA,NA,NA,survey-likert-extra-labels,40,227740,0.0-23.0-1.0,anomymised,6560c4cfd080ba12b16d8282,6564c8bba33bdd88834ed7dd,64270,1A,man,NA,NA,Somebody says<br><em>Jane and Dave are arguing with each other</em>,argue_conjoined,rating_volition,"{""Q0"":3}",[0],The speaker identifies more with <br>Jane than Dave,The speaker identifies more with<br>Dave than Jane,left_to_right
null,Somebody says<br><em>Jane is arguing with Fred</em>,NA,NA,NA,html-keyboard-response,41,229751,0.0-24.0-0.0,anomymised,6560c4cfd080ba12b16d8282,6564c8bba33bdd88834ed7dd,64270,1A,man,NA,null,NAME1 is arguing with NAME2,argue_active,sentence,NA,NA,NA,NA,NA
7496,NA,NA,NA,NA,survey-likert-extra-labels,42,237249,0.0-24.0-1.0,anomymised,6560c4cfd080ba12b16d8282,6564c8bba33bdd88834ed7dd,64270,1A,man,NA,NA,Somebody says<br><em>Jane is arguing with Fred</em>,argue_active,rating_volition,"{""Q0"":4}",[0],The speaker identifies more with <br>Jane than Fred,The speaker identifies more with<br>Fred than Jane,left_to_right
null,Somebody says<br><em>Mike and Beth are shouting at each other</em>,NA,NA,NA,html-keyboard-response,43,239263,0.0-25.0-0.0,anomymised,6560c4cfd080ba12b16d8282,6564c8bba33bdd88834ed7dd,64270,1A,man,NA,null,NAME1 and NAME2 are shouting at each other,shout_conjoined,sentence,NA,NA,NA,NA,NA
4502,NA,NA,NA,NA,survey-likert-extra-labels,44,243766,0.0-25.0-1.0,anomymised,6560c4cfd080ba12b16d8282,6564c8bba33bdd88834ed7dd,64270,1A,man,NA,NA,Somebody says<br><em>Mike and Beth are shouting at each other</em>,shout_conjoined,rating_volition,"{""Q0"":3}",[0],The speaker identifies more with <br>Beth than Mike,The speaker identifies more with<br>Mike than Beth,right_to_left
null,Somebody says<br><em>Luke is hugging Mike</em>,NA,NA,NA,html-keyboard-response,45,245774,0.0-26.0-0.0,anomymised,6560c4cfd080ba12b16d8282,6564c8bba33bdd88834ed7dd,64270,1A,man,NA,null,NAME1 is hugging NAME2,hug_active,sentence,NA,NA,NA,NA,NA
8237,NA,NA,NA,NA,survey-likert-extra-labels,46,254012,0.0-26.0-1.0,anomymised,6560c4cfd080ba12b16d8282,6564c8bba33bdd88834ed7dd,64270,1A,man,NA,NA,Somebody says<br><em>Luke is hugging Mike</em>,hug_active,rating_volition,"{""Q0"":3}",[0],The speaker identifies more with <br>Luke than Mike,The speaker identifies more with<br>Mike than Luke,left_to_right
null,Somebody says<br><em>Jane is meeting Fred</em>,NA,NA,NA,html-keyboard-response,47,256022,0.0-27.0-0.0,anomymised,6560c4cfd080ba12b16d8282,6564c8bba33bdd88834ed7dd,64270,1A,man,NA,null,NAME1 is meeting NAME2,meet_active,sentence,NA,NA,NA,NA,NA
2237,NA,NA,NA,NA,survey-likert-extra-labels,48,258260,0.0-27.0-1.0,anomymised,6560c4cfd080ba12b16d8282,6564c8bba33bdd88834ed7dd,64270,1A,man,NA,NA,Somebody says<br><em>Jane is meeting Fred</em>,meet_active,rating_volition,"{""Q0"":3}",[0],The speaker identifies more with <br>Jane than Fred,The speaker identifies more with<br>Fred than Jane,left_to_right
null,Somebody says<br><em>Ruth is chasing Kate,NA,NA,NA,html-keyboard-response,49,260277,0.0-28.0-0.0,anomymised,6560c4cfd080ba12b16d8282,6564c8bba33bdd88834ed7dd,64270,1A,man,NA,null,W1 is chasing W3,chase,sentence,NA,NA,NA,NA,NA
21677,NA,NA,NA,NA,survey-likert-extra-labels,50,281955,0.0-28.0-1.0,anomymised,6560c4cfd080ba12b16d8282,6564c8bba33bdd88834ed7dd,64270,1A,man,NA,NA,Somebody says<br><em>Ruth is chasing Kate,chase,rating_volition,"{""Q0"":0}",[0],Ruth is behind Kate,Kate is behind Ruth,NA
null,Somebody says<br><em>Jane is teaching Dave,NA,NA,NA,html-keyboard-response,51,283969,0.0-29.0-0.0,anomymised,6560c4cfd080ba12b16d8282,6564c8bba33bdd88834ed7dd,64270,1A,man,NA,null,W2 is teaching M4,teach,sentence,NA,NA,NA,NA,NA
6206,NA,NA,NA,NA,survey-likert-extra-labels,52,290178,0.0-29.0-1.0,anomymised,6560c4cfd080ba12b16d8282,6564c8bba33bdd88834ed7dd,64270,1A,man,NA,NA,Somebody says<br><em>Jane is teaching Dave,teach,rating_volition,"{""Q0"":0}",[0],Jane is educating Dave,Dave is educating Jane,NA
null,Somebody says<br><em>Mike and Fred are talking with each other</em>,NA,NA,NA,html-keyboard-response,53,292186,0.0-30.0-0.0,anomymised,6560c4cfd080ba12b16d8282,6564c8bba33bdd88834ed7dd,64270,1A,man,NA,null,NAME1 and NAME2 are talking with each other,talk_conjoined,sentence,NA,NA,NA,NA,NA
4611,NA,NA,NA,NA,survey-likert-extra-labels,54,296799,0.0-30.0-1.0,anomymised,6560c4cfd080ba12b16d8282,6564c8bba33bdd88834ed7dd,64270,1A,man,NA,NA,Somebody says<br><em>Mike and Fred are talking with each other</em>,talk_conjoined,rating_volition,"{""Q0"":3}",[0],The speaker identifies more with <br>Fred than Mike,The speaker identifies more with<br>Mike than Fred,right_to_left
null,Somebody says<br><em>Mike is seducing Dave</em>,NA,NA,NA,html-keyboard-response,55,298814,0.0-31.0-0.0,anomymised,6560c4cfd080ba12b16d8282,6564c8bba33bdd88834ed7dd,64270,1A,man,NA,null,NAME1 is seducing NAME2,seduce_active,sentence,NA,NA,NA,NA,NA
7462,NA,NA,NA,NA,survey-likert-extra-labels,56,306278,0.0-31.0-1.0,anomymised,6560c4cfd080ba12b16d8282,6564c8bba33bdd88834ed7dd,64270,1A,man,NA,NA,Somebody says<br><em>Mike is seducing Dave</em>,seduce_active,rating_volition,"{""Q0"":2}",[0],The speaker identifies more with <br>Dave than Mike,The speaker identifies more with<br>Mike than Dave,right_to_left
null,Somebody says<br><em>Jane is opposing Kate</em>,NA,NA,NA,html-keyboard-response,57,308282,0.0-32.0-0.0,anomymised,6560c4cfd080ba12b16d8282,6564c8bba33bdd88834ed7dd,64270,1A,man,NA,null,NAME1 is opposing NAME2,oppose_active,sentence,NA,NA,NA,NA,NA
11088,NA,NA,NA,NA,survey-likert-extra-labels,58,319370,0.0-32.0-1.0,anomymised,6560c4cfd080ba12b16d8282,6564c8bba33bdd88834ed7dd,64270,1A,man,NA,NA,Somebody says<br><em>Jane is opposing Kate</em>,oppose_active,rating_volition,"{""Q0"":3}",[0],The speaker identifies more with <br>Jane than Kate,The speaker identifies more with<br>Kate than Jane,left_to_right
null,Somebody says<br><em>Fred is marrying Luke</em>,NA,NA,NA,html-keyboard-response,59,321378,0.0-33.0-0.0,anomymised,6560c4cfd080ba12b16d8282,6564c8bba33bdd88834ed7dd,64270,1A,man,NA,null,NAME1 is marrying NAME2,marry_active,sentence,NA,NA,NA,NA,NA
3481,NA,NA,NA,NA,survey-likert-extra-labels,60,324860,0.0-33.0-1.0,anomymised,6560c4cfd080ba12b16d8282,6564c8bba33bdd88834ed7dd,64270,1A,man,NA,NA,Somebody says<br><em>Fred is marrying Luke</em>,marry_active,rating_volition,"{""Q0"":3}",[0],The speaker identifies more with <br>Luke than Fred,The speaker identifies more with<br>Fred than Luke,right_to_left
null,Somebody says<br><em>Luke and Ruth are kissing each other</em>,NA,NA,NA,html-keyboard-response,61,326867,0.0-34.0-0.0,anomymised,6560c4cfd080ba12b16d8282,6564c8bba33bdd88834ed7dd,64270,1A,man,NA,null,NAME1 and NAME2 are kissing each other,kiss_conjoined,sentence,NA,NA,NA,NA,NA
9521,NA,NA,NA,NA,survey-likert-extra-labels,62,336390,0.0-34.0-1.0,anomymised,6560c4cfd080ba12b16d8282,6564c8bba33bdd88834ed7dd,64270,1A,man,NA,NA,Somebody says<br><em>Luke and Ruth are kissing each other</em>,kiss_conjoined,rating_volition,"{""Q0"":3}",[0],The speaker identifies more with <br>Luke than Ruth,The speaker identifies more with<br>Ruth than Luke,left_to_right
null,Somebody says<br><em>Mike is shouting at Luke</em>,NA,NA,NA,html-keyboard-response,63,338396,0.0-35.0-0.0,anomymised,6560c4cfd080ba12b16d8282,6564c8bba33bdd88834ed7dd,64270,1A,man,NA,null,NAME1 is shouting at NAME2,shout_active,sentence,NA,NA,NA,NA,NA
7038,NA,NA,NA,NA,survey-likert-extra-labels,64,345435,0.0-35.0-1.0,anomymised,6560c4cfd080ba12b16d8282,6564c8bba33bdd88834ed7dd,64270,1A,man,NA,NA,Somebody says<br><em>Mike is shouting at Luke</em>,shout_active,rating_volition,"{""Q0"":5}",[0],The speaker identifies more with <br>Mike than Luke,The speaker identifies more with<br>Luke than Mike,left_to_right
null,Somebody says<br><em>Mike is reminding Beth,NA,NA,NA,html-keyboard-response,65,347445,0.0-36.0-0.0,anomymised,6560c4cfd080ba12b16d8282,6564c8bba33bdd88834ed7dd,64270,1A,man,NA,null,M2 is reminding W4,remind,sentence,NA,NA,NA,NA,NA
7710,NA,NA,NA,NA,survey-likert-extra-labels,66,355157,0.0-36.0-1.0,anomymised,6560c4cfd080ba12b16d8282,6564c8bba33bdd88834ed7dd,64270,1A,man,NA,NA,Somebody says<br><em>Mike is reminding Beth,remind,rating_volition,"{""Q0"":0}",[0],Mike is telling Beth again,Beth is telling Mike again,NA
null,Somebody says<br><em>Beth and Kate are meeting each other</em>,NA,NA,NA,html-keyboard-response,67,357171,0.0-37.0-0.0,anomymised,6560c4cfd080ba12b16d8282,6564c8bba33bdd88834ed7dd,64270,1A,man,NA,null,NAME1 and NAME2 are meeting each other,meet_conjoined,sentence,NA,NA,NA,NA,NA
2579,NA,NA,NA,NA,survey-likert-extra-labels,68,359751,0.0-37.0-1.0,anomymised,6560c4cfd080ba12b16d8282,6564c8bba33bdd88834ed7dd,64270,1A,man,NA,NA,Somebody says<br><em>Beth and Kate are meeting each other</em>,meet_conjoined,rating_volition,"{""Q0"":3}",[0],The speaker identifies more with <br>Beth than Kate,The speaker identifies more with<br>Kate than Beth,left_to_right
null,Somebody says<br><em>Kate is being seduced by Dave</em>,NA,NA,NA,html-keyboard-response,69,361765,0.0-38.0-0.0,anomymised,6560c4cfd080ba12b16d8282,6564c8bba33bdd88834ed7dd,64270,1A,man,NA,null,NAME1 is being seduced by NAME2,seduce_passive,sentence,NA,NA,NA,NA,NA
5260,NA,NA,NA,NA,survey-likert-extra-labels,70,367027,0.0-38.0-1.0,anomymised,6560c4cfd080ba12b16d8282,6564c8bba33bdd88834ed7dd,64270,1A,man,NA,NA,Somebody says<br><em>Kate is being seduced by Dave</em>,seduce_passive,rating_volition,"{""Q0"":3}",[0],The speaker identifies more with <br>Dave than Kate,The speaker identifies more with<br>Kate than Dave,right_to_left
null,Somebody says<br><em>Jane is carrying Beth,NA,NA,NA,html-keyboard-response,71,369034,0.0-39.0-0.0,anomymised,6560c4cfd080ba12b16d8282,6564c8bba33bdd88834ed7dd,64270,1A,man,NA,null,W2 is carrying W4,carry,sentence,NA,NA,NA,NA,NA
4037,NA,NA,NA,NA,survey-likert-extra-labels,72,373072,0.0-39.0-1.0,anomymised,6560c4cfd080ba12b16d8282,6564c8bba33bdd88834ed7dd,64270,1A,man,NA,NA,Somebody says<br><em>Jane is carrying Beth,carry,rating_volition,"{""Q0"":0}",[0],Jane is transporting Beth,Beth is transporting Jane,NA
null,Somebody says<br><em>Luke is being challenged by Beth</em>,NA,NA,NA,html-keyboard-response,73,375076,0.0-40.0-0.0,anomymised,6560c4cfd080ba12b16d8282,6564c8bba33bdd88834ed7dd,64270,1A,man,NA,null,NAME1 is being challenged by NAME2,challenge_passive,sentence,NA,NA,NA,NA,NA
5684,NA,NA,NA,NA,survey-likert-extra-labels,74,380761,0.0-40.0-1.0,anomymised,6560c4cfd080ba12b16d8282,6564c8bba33bdd88834ed7dd,64270,1A,man,NA,NA,Somebody says<br><em>Luke is being challenged by Beth</em>,challenge_passive,rating_volition,"{""Q0"":2}",[0],The speaker identifies more with <br>Luke than Beth,The speaker identifies more with<br>Beth than Luke,left_to_right
null,Somebody says<br><em>Fred is being hugged by Jane</em>,NA,NA,NA,html-keyboard-response,75,382776,0.0-41.0-0.0,anomymised,6560c4cfd080ba12b16d8282,6564c8bba33bdd88834ed7dd,64270,1A,man,NA,null,NAME1 is being hugged by NAME2,hug_passive,sentence,NA,NA,NA,NA,NA
6529,NA,NA,NA,NA,survey-likert-extra-labels,76,389307,0.0-41.0-1.0,anomymised,6560c4cfd080ba12b16d8282,6564c8bba33bdd88834ed7dd,64270,1A,man,NA,NA,Somebody says<br><em>Fred is being hugged by Jane</em>,hug_passive,rating_volition,"{""Q0"":3}",[0],The speaker identifies more with <br>Jane than Fred,The speaker identifies more with<br>Fred than Jane,right_to_left
null,Somebody says<br><em>Kate is feeding Luke,NA,NA,NA,html-keyboard-response,77,391321,0.0-42.0-0.0,anomymised,6560c4cfd080ba12b16d8282,6564c8bba33bdd88834ed7dd,64270,1A,man,NA,null,W3 is feeding M1,feed,sentence,NA,NA,NA,NA,NA
6429,NA,NA,NA,NA,survey-likert-extra-labels,78,397753,0.0-42.0-1.0,anomymised,6560c4cfd080ba12b16d8282,6564c8bba33bdd88834ed7dd,64270,1A,man,NA,NA,Somebody says<br><em>Kate is feeding Luke,feed,rating_volition,"{""Q0"":0}",[0],Kate cooked for Luke,Luke cooked for Kate,NA
null,Somebody says<br><em>Luke is being kissed by Kate</em>,NA,NA,NA,html-keyboard-response,79,399757,0.0-43.0-0.0,anomymised,6560c4cfd080ba12b16d8282,6564c8bba33bdd88834ed7dd,64270,1A,man,NA,null,NAME1 is being kissed by NAME2,kiss_passive,sentence,NA,NA,NA,NA,NA
3401,NA,NA,NA,NA,survey-likert-extra-labels,80,403159,0.0-43.0-1.0,anomymised,6560c4cfd080ba12b16d8282,6564c8bba33bdd88834ed7dd,64270,1A,man,NA,NA,Somebody says<br><em>Luke is being kissed by Kate</em>,kiss_passive,rating_volition,"{""Q0"":3}",[0],The speaker identifies more with <br>Luke than Kate,The speaker identifies more with<br>Kate than Luke,left_to_right
null,Somebody says<br><em>Mike and Jane are fighting with each other</em>,NA,NA,NA,html-keyboard-response,81,405166,0.0-44.0-0.0,anomymised,6560c4cfd080ba12b16d8282,6564c8bba33bdd88834ed7dd,64270,1A,man,NA,null,NAME1 and NAME2 are fighting with each other,fight_conjoined,sentence,NA,NA,NA,NA,NA
7452,NA,NA,NA,NA,survey-likert-extra-labels,82,412621,0.0-44.0-1.0,anomymised,6560c4cfd080ba12b16d8282,6564c8bba33bdd88834ed7dd,64270,1A,man,NA,NA,Somebody says<br><em>Mike and Jane are fighting with each other</em>,fight_conjoined,rating_volition,"{""Q0"":3}",[0],The speaker identifies more with <br>Mike than Jane,The speaker identifies more with<br>Jane than Mike,left_to_right
null,Somebody says<br><em>Beth and Dave are dancing with each other</em>,NA,NA,NA,html-keyboard-response,83,414627,0.0-45.0-0.0,anomymised,6560c4cfd080ba12b16d8282,6564c8bba33bdd88834ed7dd,64270,1A,man,NA,null,NAME1 and NAME2 are dancing with each other,dance_conjoined,sentence,NA,NA,NA,NA,NA
1896,NA,NA,NA,NA,survey-likert-extra-labels,84,416524,0.0-45.0-1.0,anomymised,6560c4cfd080ba12b16d8282,6564c8bba33bdd88834ed7dd,64270,1A,man,NA,NA,Somebody says<br><em>Beth and Dave are dancing with each other</em>,dance_conjoined,rating_volition,"{""Q0"":3}",[0],The speaker identifies more with <br>Beth than Dave,The speaker identifies more with<br>Dave than Beth,left_to_right
null,Somebody says<br><em>Jane and Dave are playing with each other</em>,NA,NA,NA,html-keyboard-response,85,418526,0.0-46.0-0.0,anomymised,6560c4cfd080ba12b16d8282,6564c8bba33bdd88834ed7dd,64270,1A,man,NA,null,NAME1 and NAME2 are playing with each other,play_conjoined,sentence,NA,NA,NA,NA,NA
14187,NA,NA,NA,NA,survey-likert-extra-labels,86,432714,0.0-46.0-1.0,anomymised,6560c4cfd080ba12b16d8282,6564c8bba33bdd88834ed7dd,64270,1A,man,NA,NA,Somebody says<br><em>Jane and Dave are playing with each other</em>,play_conjoined,rating_volition,"{""Q0"":3}",[0],The speaker identifies more with <br>Dave than Jane,The speaker identifies more with<br>Jane than Dave,right_to_left
null,Somebody says<br><em>Fred is hiring Ruth,NA,NA,NA,html-keyboard-response,87,434719,0.0-47.0-0.0,anomymised,6560c4cfd080ba12b16d8282,6564c8bba33bdd88834ed7dd,64270,1A,man,NA,null,M3 is hiring W1,hire,sentence,NA,NA,NA,NA,NA
4744,NA,NA,NA,NA,survey-likert-extra-labels,88,439466,0.0-47.0-1.0,anomymised,6560c4cfd080ba12b16d8282,6564c8bba33bdd88834ed7dd,64270,1A,man,NA,NA,Somebody says<br><em>Fred is hiring Ruth,hire,rating_volition,"{""Q0"":0}",[0],Fred is employing Ruth,Ruth is employing Fred,NA
null,Somebody says<br><em>Jane is being shouted at by Fred</em>,NA,NA,NA,html-keyboard-response,89,441470,0.0-48.0-0.0,anomymised,6560c4cfd080ba12b16d8282,6564c8bba33bdd88834ed7dd,64270,1A,man,NA,null,NAME1 is being shouted at by NAME2,shout_passive,sentence,NA,NA,NA,NA,NA
4510,NA,NA,NA,NA,survey-likert-extra-labels,90,445981,0.0-48.0-1.0,anomymised,6560c4cfd080ba12b16d8282,6564c8bba33bdd88834ed7dd,64270,1A,man,NA,NA,Somebody says<br><em>Jane is being shouted at by Fred</em>,shout_passive,rating_volition,"{""Q0"":1}",[0],The speaker identifies more with <br>Jane than Fred,The speaker identifies more with<br>Fred than Jane,left_to_right
null,Somebody says<br><em>Mike is playing with Jane</em>,NA,NA,NA,html-keyboard-response,91,448000,0.0-49.0-0.0,anomymised,6560c4cfd080ba12b16d8282,6564c8bba33bdd88834ed7dd,64270,1A,man,NA,null,NAME1 is playing with NAME2,play_active,sentence,NA,NA,NA,NA,NA
7283,NA,NA,NA,NA,survey-likert-extra-labels,92,455285,0.0-49.0-1.0,anomymised,6560c4cfd080ba12b16d8282,6564c8bba33bdd88834ed7dd,64270,1A,man,NA,NA,Somebody says<br><em>Mike is playing with Jane</em>,play_active,rating_volition,"{""Q0"":3}",[0],The speaker identifies more with <br>Jane than Mike,The speaker identifies more with<br>Mike than Jane,right_to_left
null,Somebody says<br><em>Mike is posing for Dave,NA,NA,NA,html-keyboard-response,93,457300,0.0-50.0-0.0,anomymised,6560c4cfd080ba12b16d8282,6564c8bba33bdd88834ed7dd,64270,1A,man,NA,null,M2 is posing for M4,pose,sentence,NA,NA,NA,NA,NA
4258,NA,NA,NA,NA,survey-likert-extra-labels,94,461559,0.0-50.0-1.0,anomymised,6560c4cfd080ba12b16d8282,6564c8bba33bdd88834ed7dd,64270,1A,man,NA,NA,Somebody says<br><em>Mike is posing for Dave,pose,rating_volition,"{""Q0"":0}",[0],Mike is modelling for Dave,Dave is modelling for Mike,NA
null,Somebody says<br><em>Beth is talking to Ruth</em>,NA,NA,NA,html-keyboard-response,95,463572,0.0-51.0-0.0,anomymised,6560c4cfd080ba12b16d8282,6564c8bba33bdd88834ed7dd,64270,1A,man,NA,null,NAME1 is talking to NAME2,talk_active,sentence,NA,NA,NA,NA,NA
9229,NA,NA,NA,NA,survey-likert-extra-labels,96,472803,0.0-51.0-1.0,anomymised,6560c4cfd080ba12b16d8282,6564c8bba33bdd88834ed7dd,64270,1A,man,NA,NA,Somebody says<br><em>Beth is talking to Ruth</em>,talk_active,rating_volition,"{""Q0"":4}",[0],The speaker identifies more with <br>Ruth than Beth,The speaker identifies more with<br>Beth than Ruth,right_to_left
null,Somebody says<br><em>Mike is being copied by Beth</em>,NA,NA,NA,html-keyboard-response,97,474816,0.0-52.0-0.0,anomymised,6560c4cfd080ba12b16d8282,6564c8bba33bdd88834ed7dd,64270,1A,man,NA,null,NAME1 is being copied by NAME2,copy_passive,sentence,NA,NA,NA,NA,NA
6932,NA,NA,NA,NA,survey-likert-extra-labels,98,481749,0.0-52.0-1.0,anomymised,6560c4cfd080ba12b16d8282,6564c8bba33bdd88834ed7dd,64270,1A,man,NA,NA,Somebody says<br><em>Mike is being copied by Beth</em>,copy_passive,rating_volition,"{""Q0"":2}",[0],The speaker identifies more with <br>Mike than Beth,The speaker identifies more with<br>Beth than Mike,left_to_right
null,Somebody says<br><em>Beth is looking at Mike</em>,NA,NA,NA,html-keyboard-response,99,483766,0.0-53.0-0.0,anomymised,6560c4cfd080ba12b16d8282,6564c8bba33bdd88834ed7dd,64270,1A,man,NA,null,NAME1 is looking at NAME2,look_active,sentence,NA,NA,NA,NA,NA
8318,NA,NA,NA,NA,survey-likert-extra-labels,100,492085,0.0-53.0-1.0,anomymised,6560c4cfd080ba12b16d8282,6564c8bba33bdd88834ed7dd,64270,1A,man,NA,NA,Somebody says<br><em>Beth is looking at Mike</em>,look_active,rating_volition,"{""Q0"":2}",[0],The speaker identifies more with <br>Mike than Beth,The speaker identifies more with<br>Beth than Mike,right_to_left
null,Somebody says<br><em>Mike is greeting Ruth</em>,NA,NA,NA,html-keyboard-response,101,494099,0.0-54.0-0.0,anomymised,6560c4cfd080ba12b16d8282,6564c8bba33bdd88834ed7dd,64270,1A,man,NA,null,NAME1 is greeting NAME2,greet_active,sentence,NA,NA,NA,NA,NA
7606,NA,NA,NA,NA,survey-likert-extra-labels,102,501711,0.0-54.0-1.0,anomymised,6560c4cfd080ba12b16d8282,6564c8bba33bdd88834ed7dd,64270,1A,man,NA,NA,Somebody says<br><em>Mike is greeting Ruth</em>,greet_active,rating_volition,"{""Q0"":5}",[0],The speaker identifies more with <br>Ruth than Mike,The speaker identifies more with<br>Mike than Ruth,right_to_left
null,Somebody says<br><em>Ruth is being looked at by Luke</em>,NA,NA,NA,html-keyboard-response,103,503717,0.0-55.0-0.0,anomymised,6560c4cfd080ba12b16d8282,6564c8bba33bdd88834ed7dd,64270,1A,man,NA,null,NAME1 is being looked at by NAME2,look_passive,sentence,NA,NA,NA,NA,NA
10269,NA,NA,NA,NA,survey-likert-extra-labels,104,513988,0.0-55.0-1.0,anomymised,6560c4cfd080ba12b16d8282,6564c8bba33bdd88834ed7dd,64270,1A,man,NA,NA,Somebody says<br><em>Ruth is being looked at by Luke</em>,look_passive,rating_volition,"{""Q0"":2}",[0],The speaker identifies more with <br>Ruth than Luke,The speaker identifies more with<br>Luke than Ruth,left_to_right
2184,<p>Thank you for completing that task.</p><p>The final part of this session is a short questionnaire.</p><p>Press Continue.</p>,0,Continue,Continue,html-button-response,105,516172,0.0-56.0,anomymised,6560c4cfd080ba12b16d8282,6564c8bba33bdd88834ed7dd,64270,1A,man,NA,NA,NA,NA,NA,NA,NA,NA,NA,NA
18322,NA,NA,NA,NA,survey-text,106,535523,0.0-57.0,anomymised,6560c4cfd080ba12b16d8282,6564c8bba33bdd88834ed7dd,64270,1A,man,NA,NA,NA,NA,demographics,"{""Q0"":""29"",""Q1"":""English"",""Q2"":""English"",""Q3"":""UK"",""Q4"":""British"",""Q5"":""White"",""Q6"":""Male""}",NA,NA,NA,NA
2657,<p>This is the last question - thank you for taking part! Have you lived in the UK for the last 5 years or more?</p>,0,"Yes,No",Yes,html-button-response,107,538181,0.0-58.0,anomymised,6560c4cfd080ba12b16d8282,6564c8bba33bdd88834ed7dd,64270,1A,man,NA,NA,NA,NA,fiveyears,NA,NA,NA,NA,NA
