rt,stimulus,button_pressed,choices,ChosenStimulus,trial_type,trial_index,time_elapsed,internal_node_id,subject_id,study_id,session_id,subject,list,ppt_gender,url,key_press,sentence_type,verb,test_part,responses,question_order,left_part,right_part,name_order
3414.7000000029802,Welcome to the experiment. Press Continue to begin.,0,Continue,Continue,html-button-response,0,3418,0.0-0.0,anomymised,6564584152624795c40b73cb,65645f2eb624bf71c4f20cb0,66845,1A,woman,NA,NA,NA,NA,NA,NA,NA,NA,NA,NA
43892.29999999702,NA,NA,NA,NA,external-html,1,48418,0.0-1.0,anomymised,6564584152624795c40b73cb,65645f2eb624bf71c4f20cb0,66845,1A,woman,consent.html,NA,NA,NA,NA,NA,NA,NA,NA,NA
59797.59999999404,"<p>Welcome.</p><p>In this experiment we will ask you to imagine people's motivations for saying sentences.</p><p>Each trial will begin with a sentence that somebody might say to describe an event involving two different people.</p><p>For instance, someone might say <em>Harry is being recruited by Molly</em></p><p>We want you to think about which of those two people (Molly and Harry) the speaker identifies more with. For instance, why did the speaker say <em>Harry is being recruited by Molly</em> rather than <em> Molly is recruiting Harry</em>? Might that mean that the speaker is socially closer to one of the two characters?</p><p>After you have read the sentence, you will rate on a scale which of the two characters the speaker identifies more with.</p><p>You will give your answer by clicking a button on a rating scale.</p><p>Sometimes there will also be catch questions designed to make sure that you are paying attention, which ask about a different topic.</p><p>To do this task, you will have to use your imagination to think about and visualise the events, and how the speaker might relate to the characters.</p><br><p>Ready?</p>",0,Continue,Continue,html-button-response,2,108217,0.0-2.0,anomymised,6564584152624795c40b73cb,65645f2eb624bf71c4f20cb0,66845,1A,woman,NA,NA,NA,NA,NA,NA,NA,NA,NA,NA
4566.20000000298,"<p>Before the experiment starts, we will show you an example of how you will answer the questions. Press 'Continue'.</p>",0,Continue,Continue,html-button-response,3,113793,0.0-3.0,anomymised,6564584152624795c40b73cb,65645f2eb624bf71c4f20cb0,66845,1A,woman,NA,NA,NA,NA,NA,NA,NA,NA,NA,NA
null,Somebody says <br><em>Samuel is dining with Frank</em>,NA,NA,NA,html-keyboard-response,4,116827,0.0-4.0,anomymised,6564584152624795c40b73cb,65645f2eb624bf71c4f20cb0,66845,1A,woman,NA,null,NA,NA,NA,NA,NA,NA,NA,NA
52180.29999999702,<img src='img/Example-trial.jpg' style='height:550px;''></img>,0,Continue,Continue,html-button-response,5,169009,0.0-5.0,anomymised,6564584152624795c40b73cb,65645f2eb624bf71c4f20cb0,66845,1A,woman,NA,NA,NA,NA,NA,NA,NA,NA,NA,NA
5564.399999991059,<p>Ready to start the experiment?</p><br><p><strong>Remember to give an answer by clicking a button on the rating scale.</strong></p><p>Press 'Continue' to begin.</p>,0,Continue,Continue,html-button-response,6,175593,0.0-6.0,anomymised,6564584152624795c40b73cb,65645f2eb624bf71c4f20cb0,66845,1A,woman,NA,NA,NA,NA,NA,NA,NA,NA,NA,NA
null,Somebody says<br><em>Mike and Luke are kissing each other</em>,NA,NA,NA,html-keyboard-response,7,178620,0.0-7.0-0.0,anomymised,6564584152624795c40b73cb,65645f2eb624bf71c4f20cb0,66845,1A,woman,NA,null,NAME1 and NAME2 are kissing each other,kiss_conjoined,sentence,NA,NA,NA,NA,NA
18327.80000001192,NA,NA,NA,NA,survey-likert-extra-labels,8,196953,0.0-7.0-1.0,anomymised,6564584152624795c40b73cb,65645f2eb624bf71c4f20cb0,66845,1A,woman,NA,NA,Somebody says<br><em>Mike and Luke are kissing each other</em>,kiss_conjoined,rating_volition,"{""Q0"":4}",[0],The speaker identifies more with <br>Luke than Mike,The speaker identifies more with<br>Mike than Luke,right_to_left
null,Somebody says<br><em>Dave and Jane are shouting at each other</em>,NA,NA,NA,html-keyboard-response,9,198958,0.0-8.0-0.0,anomymised,6564584152624795c40b73cb,65645f2eb624bf71c4f20cb0,66845,1A,woman,NA,null,NAME1 and NAME2 are shouting at each other,shout_conjoined,sentence,NA,NA,NA,NA,NA
13209,NA,NA,NA,NA,survey-likert-extra-labels,10,212169,0.0-8.0-1.0,anomymised,6564584152624795c40b73cb,65645f2eb624bf71c4f20cb0,66845,1A,woman,NA,NA,Somebody says<br><em>Dave and Jane are shouting at each other</em>,shout_conjoined,rating_volition,"{""Q0"":4}",[0],The speaker identifies more with <br>Jane than Dave,The speaker identifies more with<br>Dave than Jane,right_to_left
null,Somebody says<br><em>Kate is feeding Luke,NA,NA,NA,html-keyboard-response,11,214185,0.0-9.0-0.0,anomymised,6564584152624795c40b73cb,65645f2eb624bf71c4f20cb0,66845,1A,woman,NA,null,W3 is feeding M1,feed,sentence,NA,NA,NA,NA,NA
14909,NA,NA,NA,NA,survey-likert-extra-labels,12,229097,0.0-9.0-1.0,anomymised,6564584152624795c40b73cb,65645f2eb624bf71c4f20cb0,66845,1A,woman,NA,NA,Somebody says<br><em>Kate is feeding Luke,feed,rating_volition,"{""Q0"":1}",[0],Kate cooked for Luke,Luke cooked for Kate,NA
null,Somebody says<br><em>Beth is being shouted at by Luke</em>,NA,NA,NA,html-keyboard-response,13,231109,0.0-10.0-0.0,anomymised,6564584152624795c40b73cb,65645f2eb624bf71c4f20cb0,66845,1A,woman,NA,null,NAME1 is being shouted at by NAME2,shout_passive,sentence,NA,NA,NA,NA,NA
12577.09999999404,NA,NA,NA,NA,survey-likert-extra-labels,14,243689,0.0-10.0-1.0,anomymised,6564584152624795c40b73cb,65645f2eb624bf71c4f20cb0,66845,1A,woman,NA,NA,Somebody says<br><em>Beth is being shouted at by Luke</em>,shout_passive,rating_volition,"{""Q0"":4}",[0],The speaker identifies more with <br>Luke than Beth,The speaker identifies more with<br>Beth than Luke,right_to_left
null,Somebody says<br><em>Mike and Fred are fighting with each other</em>,NA,NA,NA,html-keyboard-response,15,245695,0.0-11.0-0.0,anomymised,6564584152624795c40b73cb,65645f2eb624bf71c4f20cb0,66845,1A,woman,NA,null,NAME1 and NAME2 are fighting with each other,fight_conjoined,sentence,NA,NA,NA,NA,NA
12424,NA,NA,NA,NA,survey-likert-extra-labels,16,258121,0.0-11.0-1.0,anomymised,6564584152624795c40b73cb,65645f2eb624bf71c4f20cb0,66845,1A,woman,NA,NA,Somebody says<br><em>Mike and Fred are fighting with each other</em>,fight_conjoined,rating_volition,"{""Q0"":5}",[0],The speaker identifies more with <br>Fred than Mike,The speaker identifies more with<br>Mike than Fred,right_to_left
null,Somebody says<br><em>Ruth is chasing Kate,NA,NA,NA,html-keyboard-response,17,260126,0.0-12.0-0.0,anomymised,6564584152624795c40b73cb,65645f2eb624bf71c4f20cb0,66845,1A,woman,NA,null,W1 is chasing W3,chase,sentence,NA,NA,NA,NA,NA
13401.40000000596,NA,NA,NA,NA,survey-likert-extra-labels,18,273530,0.0-12.0-1.0,anomymised,6564584152624795c40b73cb,65645f2eb624bf71c4f20cb0,66845,1A,woman,NA,NA,Somebody says<br><em>Ruth is chasing Kate,chase,rating_volition,"{""Q0"":1}",[0],Ruth is behind Kate,Kate is behind Ruth,NA
null,Somebody says<br><em>Luke is marrying Beth</em>,NA,NA,NA,html-keyboard-response,19,275547,0.0-13.0-0.0,anomymised,6564584152624795c40b73cb,65645f2eb624bf71c4f20cb0,66845,1A,woman,NA,null,NAME1 is marrying NAME2,marry_active,sentence,NA,NA,NA,NA,NA
10123.90000000596,NA,NA,NA,NA,survey-likert-extra-labels,20,285674,0.0-13.0-1.0,anomymised,6564584152624795c40b73cb,65645f2eb624bf71c4f20cb0,66845,1A,woman,NA,NA,Somebody says<br><em>Luke is marrying Beth</em>,marry_active,rating_volition,"{""Q0"":1}",[0],The speaker identifies more with <br>Beth than Luke,The speaker identifies more with<br>Luke than Beth,right_to_left
null,Somebody says<br><em>Mike and Fred are arguing with each other</em>,NA,NA,NA,html-keyboard-response,21,287680,0.0-14.0-0.0,anomymised,6564584152624795c40b73cb,65645f2eb624bf71c4f20cb0,66845,1A,woman,NA,null,NAME1 and NAME2 are arguing with each other,argue_conjoined,sentence,NA,NA,NA,NA,NA
6399,NA,NA,NA,NA,survey-likert-extra-labels,22,294082,0.0-14.0-1.0,anomymised,6564584152624795c40b73cb,65645f2eb624bf71c4f20cb0,66845,1A,woman,NA,NA,Somebody says<br><em>Mike and Fred are arguing with each other</em>,argue_conjoined,rating_volition,"{""Q0"":3}",[0],The speaker identifies more with <br>Mike than Fred,The speaker identifies more with<br>Fred than Mike,left_to_right
null,Somebody says<br><em>Jane is teaching Dave,NA,NA,NA,html-keyboard-response,23,296093,0.0-15.0-0.0,anomymised,6564584152624795c40b73cb,65645f2eb624bf71c4f20cb0,66845,1A,woman,NA,null,W2 is teaching M4,teach,sentence,NA,NA,NA,NA,NA
8554.29999999702,NA,NA,NA,NA,survey-likert-extra-labels,24,304650,0.0-15.0-1.0,anomymised,6564584152624795c40b73cb,65645f2eb624bf71c4f20cb0,66845,1A,woman,NA,NA,Somebody says<br><em>Jane is teaching Dave,teach,rating_volition,"{""Q0"":1}",[0],Jane is educating Dave,Dave is educating Jane,NA
null,Somebody says<br><em>Jane is being copied by Ruth</em>,NA,NA,NA,html-keyboard-response,25,306659,0.0-16.0-0.0,anomymised,6564584152624795c40b73cb,65645f2eb624bf71c4f20cb0,66845,1A,woman,NA,null,NAME1 is being copied by NAME2,copy_passive,sentence,NA,NA,NA,NA,NA
8235.79999999702,NA,NA,NA,NA,survey-likert-extra-labels,26,314898,0.0-16.0-1.0,anomymised,6564584152624795c40b73cb,65645f2eb624bf71c4f20cb0,66845,1A,woman,NA,NA,Somebody says<br><em>Jane is being copied by Ruth</em>,copy_passive,rating_volition,"{""Q0"":4}",[0],The speaker identifies more with <br>Jane than Ruth,The speaker identifies more with<br>Ruth than Jane,left_to_right
null,Somebody says<br><em>Dave and Beth are hugging each other</em>,NA,NA,NA,html-keyboard-response,27,316908,0.0-17.0-0.0,anomymised,6564584152624795c40b73cb,65645f2eb624bf71c4f20cb0,66845,1A,woman,NA,null,NAME1 and NAME2 are hugging each other,hug_conjoined,sentence,NA,NA,NA,NA,NA
11691,NA,NA,NA,NA,survey-likert-extra-labels,28,328602,0.0-17.0-1.0,anomymised,6564584152624795c40b73cb,65645f2eb624bf71c4f20cb0,66845,1A,woman,NA,NA,Somebody says<br><em>Dave and Beth are hugging each other</em>,hug_conjoined,rating_volition,"{""Q0"":4}",[0],The speaker identifies more with <br>Dave than Beth,The speaker identifies more with<br>Beth than Dave,left_to_right
null,Somebody says<br><em>Fred is looking at Luke</em>,NA,NA,NA,html-keyboard-response,29,330610,0.0-18.0-0.0,anomymised,6564584152624795c40b73cb,65645f2eb624bf71c4f20cb0,66845,1A,woman,NA,null,NAME1 is looking at NAME2,look_active,sentence,NA,NA,NA,NA,NA
10844.59999999404,NA,NA,NA,NA,survey-likert-extra-labels,30,341457,0.0-18.0-1.0,anomymised,6564584152624795c40b73cb,65645f2eb624bf71c4f20cb0,66845,1A,woman,NA,NA,Somebody says<br><em>Fred is looking at Luke</em>,look_active,rating_volition,"{""Q0"":1}",[0],The speaker identifies more with <br>Fred than Luke,The speaker identifies more with<br>Luke than Fred,left_to_right
null,Somebody says<br><em>Fred is being challenged by Ruth</em>,NA,NA,NA,html-keyboard-response,31,343461,0.0-19.0-0.0,anomymised,6564584152624795c40b73cb,65645f2eb624bf71c4f20cb0,66845,1A,woman,NA,null,NAME1 is being challenged by NAME2,challenge_passive,sentence,NA,NA,NA,NA,NA
10266.70000000298,NA,NA,NA,NA,survey-likert-extra-labels,32,353729,0.0-19.0-1.0,anomymised,6564584152624795c40b73cb,65645f2eb624bf71c4f20cb0,66845,1A,woman,NA,NA,Somebody says<br><em>Fred is being challenged by Ruth</em>,challenge_passive,rating_volition,"{""Q0"":2}",[0],The speaker identifies more with <br>Ruth than Fred,The speaker identifies more with<br>Fred than Ruth,right_to_left
null,Somebody says<br><em>Dave is shouting at Ruth</em>,NA,NA,NA,html-keyboard-response,33,355747,0.0-20.0-0.0,anomymised,6564584152624795c40b73cb,65645f2eb624bf71c4f20cb0,66845,1A,woman,NA,null,NAME1 is shouting at NAME2,shout_active,sentence,NA,NA,NA,NA,NA
9628.20000000298,NA,NA,NA,NA,survey-likert-extra-labels,34,365377,0.0-20.0-1.0,anomymised,6564584152624795c40b73cb,65645f2eb624bf71c4f20cb0,66845,1A,woman,NA,NA,Somebody says<br><em>Dave is shouting at Ruth</em>,shout_active,rating_volition,"{""Q0"":4}",[0],The speaker identifies more with <br>Dave than Ruth,The speaker identifies more with<br>Ruth than Dave,left_to_right
null,Somebody says<br><em>Jane is opposing Beth</em>,NA,NA,NA,html-keyboard-response,35,367391,0.0-21.0-0.0,anomymised,6564584152624795c40b73cb,65645f2eb624bf71c4f20cb0,66845,1A,woman,NA,null,NAME1 is opposing NAME2,oppose_active,sentence,NA,NA,NA,NA,NA
8103.0999999940395,NA,NA,NA,NA,survey-likert-extra-labels,36,375496,0.0-21.0-1.0,anomymised,6564584152624795c40b73cb,65645f2eb624bf71c4f20cb0,66845,1A,woman,NA,NA,Somebody says<br><em>Jane is opposing Beth</em>,oppose_active,rating_volition,"{""Q0"":1}",[0],The speaker identifies more with <br>Beth than Jane,The speaker identifies more with<br>Jane than Beth,right_to_left
null,Somebody says<br><em>Kate and Jane are talking with each other</em>,NA,NA,NA,html-keyboard-response,37,377508,0.0-22.0-0.0,anomymised,6564584152624795c40b73cb,65645f2eb624bf71c4f20cb0,66845,1A,woman,NA,null,NAME1 and NAME2 are talking with each other,talk_conjoined,sentence,NA,NA,NA,NA,NA
3722.2999999970198,NA,NA,NA,NA,survey-likert-extra-labels,38,381233,0.0-22.0-1.0,anomymised,6564584152624795c40b73cb,65645f2eb624bf71c4f20cb0,66845,1A,woman,NA,NA,Somebody says<br><em>Kate and Jane are talking with each other</em>,talk_conjoined,rating_volition,"{""Q0"":3}",[0],The speaker identifies more with <br>Kate than Jane,The speaker identifies more with<br>Jane than Kate,left_to_right
null,Somebody says<br><em>Luke is being hugged by Dave</em>,NA,NA,NA,html-keyboard-response,39,383250,0.0-23.0-0.0,anomymised,6564584152624795c40b73cb,65645f2eb624bf71c4f20cb0,66845,1A,woman,NA,null,NAME1 is being hugged by NAME2,hug_passive,sentence,NA,NA,NA,NA,NA
10556.09999999404,NA,NA,NA,NA,survey-likert-extra-labels,40,393808,0.0-23.0-1.0,anomymised,6564584152624795c40b73cb,65645f2eb624bf71c4f20cb0,66845,1A,woman,NA,NA,Somebody says<br><em>Luke is being hugged by Dave</em>,hug_passive,rating_volition,"{""Q0"":1}",[0],The speaker identifies more with <br>Dave than Luke,The speaker identifies more with<br>Luke than Dave,right_to_left
null,Somebody says<br><em>Ruth is being greeted by Kate</em>,NA,NA,NA,html-keyboard-response,41,395813,0.0-24.0-0.0,anomymised,6564584152624795c40b73cb,65645f2eb624bf71c4f20cb0,66845,1A,woman,NA,null,NAME1 is being greeted by NAME2,greet_passive,sentence,NA,NA,NA,NA,NA
18913.5,NA,NA,NA,NA,survey-likert-extra-labels,42,414729,0.0-24.0-1.0,anomymised,6564584152624795c40b73cb,65645f2eb624bf71c4f20cb0,66845,1A,woman,NA,NA,Somebody says<br><em>Ruth is being greeted by Kate</em>,greet_passive,rating_volition,"{""Q0"":2}",[0],The speaker identifies more with <br>Kate than Ruth,The speaker identifies more with<br>Ruth than Kate,right_to_left
null,Somebody says<br><em>Fred and Kate are marrying each other</em>,NA,NA,NA,html-keyboard-response,43,416739,0.0-25.0-0.0,anomymised,6564584152624795c40b73cb,65645f2eb624bf71c4f20cb0,66845,1A,woman,NA,null,NAME1 and NAME2 are marrying each other,marry_conjoined,sentence,NA,NA,NA,NA,NA
9035,NA,NA,NA,NA,survey-likert-extra-labels,44,425777,0.0-25.0-1.0,anomymised,6564584152624795c40b73cb,65645f2eb624bf71c4f20cb0,66845,1A,woman,NA,NA,Somebody says<br><em>Fred and Kate are marrying each other</em>,marry_conjoined,rating_volition,"{""Q0"":3}",[0],The speaker identifies more with <br>Fred than Kate,The speaker identifies more with<br>Kate than Fred,left_to_right
null,Somebody says<br><em>Jane is carrying Beth,NA,NA,NA,html-keyboard-response,45,427779,0.0-26.0-0.0,anomymised,6564584152624795c40b73cb,65645f2eb624bf71c4f20cb0,66845,1A,woman,NA,null,W2 is carrying W4,carry,sentence,NA,NA,NA,NA,NA
25714.89999999106,NA,NA,NA,NA,survey-likert-extra-labels,46,453496,0.0-26.0-1.0,anomymised,6564584152624795c40b73cb,65645f2eb624bf71c4f20cb0,66845,1A,woman,NA,NA,Somebody says<br><em>Jane is carrying Beth,carry,rating_volition,"{""Q0"":1}",[0],Jane is transporting Beth,Beth is transporting Jane,NA
null,Somebody says<br><em>Fred is hiring Ruth,NA,NA,NA,html-keyboard-response,47,455508,0.0-27.0-0.0,anomymised,6564584152624795c40b73cb,65645f2eb624bf71c4f20cb0,66845,1A,woman,NA,null,M3 is hiring W1,hire,sentence,NA,NA,NA,NA,NA
12401.90000000596,NA,NA,NA,NA,survey-likert-extra-labels,48,467913,0.0-27.0-1.0,anomymised,6564584152624795c40b73cb,65645f2eb624bf71c4f20cb0,66845,1A,woman,NA,NA,Somebody says<br><em>Fred is hiring Ruth,hire,rating_volition,"{""Q0"":0}",[0],Fred is employing Ruth,Ruth is employing Fred,NA
null,Somebody says<br><em>Luke is arguing with Mike</em>,NA,NA,NA,html-keyboard-response,49,469924,0.0-28.0-0.0,anomymised,6564584152624795c40b73cb,65645f2eb624bf71c4f20cb0,66845,1A,woman,NA,null,NAME1 is arguing with NAME2,argue_active,sentence,NA,NA,NA,NA,NA
17521.70000000298,NA,NA,NA,NA,survey-likert-extra-labels,50,487449,0.0-28.0-1.0,anomymised,6564584152624795c40b73cb,65645f2eb624bf71c4f20cb0,66845,1A,woman,NA,NA,Somebody says<br><em>Luke is arguing with Mike</em>,argue_active,rating_volition,"{""Q0"":1}",[0],The speaker identifies more with <br>Luke than Mike,The speaker identifies more with<br>Mike than Luke,left_to_right
null,Somebody says<br><em>Luke is driving Fred,NA,NA,NA,html-keyboard-response,51,489458,0.0-29.0-0.0,anomymised,6564584152624795c40b73cb,65645f2eb624bf71c4f20cb0,66845,1A,woman,NA,null,M1 is driving M3,drive,sentence,NA,NA,NA,NA,NA
11508,NA,NA,NA,NA,survey-likert-extra-labels,52,500969,0.0-29.0-1.0,anomymised,6564584152624795c40b73cb,65645f2eb624bf71c4f20cb0,66845,1A,woman,NA,NA,Somebody says<br><em>Luke is driving Fred,drive,rating_volition,"{""Q0"":0}",[0],Luke is Fred's passenger,Fred is Luke's passenger,NA
null,Somebody says<br><em>Kate is greeting Fred</em>,NA,NA,NA,html-keyboard-response,53,502977,0.0-30.0-0.0,anomymised,6564584152624795c40b73cb,65645f2eb624bf71c4f20cb0,66845,1A,woman,NA,null,NAME1 is greeting NAME2,greet_active,sentence,NA,NA,NA,NA,NA
18238,NA,NA,NA,NA,survey-likert-extra-labels,54,521217,0.0-30.0-1.0,anomymised,6564584152624795c40b73cb,65645f2eb624bf71c4f20cb0,66845,1A,woman,NA,NA,Somebody says<br><em>Kate is greeting Fred</em>,greet_active,rating_volition,"{""Q0"":5}",[0],The speaker identifies more with <br>Fred than Kate,The speaker identifies more with<br>Kate than Fred,right_to_left
null,Somebody says<br><em>Ruth is hugging Mike</em>,NA,NA,NA,html-keyboard-response,55,523226,0.0-31.0-0.0,anomymised,6564584152624795c40b73cb,65645f2eb624bf71c4f20cb0,66845,1A,woman,NA,null,NAME1 is hugging NAME2,hug_active,sentence,NA,NA,NA,NA,NA
10180.40000000596,NA,NA,NA,NA,survey-likert-extra-labels,56,533409,0.0-31.0-1.0,anomymised,6564584152624795c40b73cb,65645f2eb624bf71c4f20cb0,66845,1A,woman,NA,NA,Somebody says<br><em>Ruth is hugging Mike</em>,hug_active,rating_volition,"{""Q0"":4}",[0],The speaker identifies more with <br>Mike than Ruth,The speaker identifies more with<br>Ruth than Mike,right_to_left
null,Somebody says<br><em>Ruth is kissing Luke</em>,NA,NA,NA,html-keyboard-response,57,535425,0.0-32.0-0.0,anomymised,6564584152624795c40b73cb,65645f2eb624bf71c4f20cb0,66845,1A,woman,NA,null,NAME1 is kissing NAME2,kiss_active,sentence,NA,NA,NA,NA,NA
7557.5999999940395,NA,NA,NA,NA,survey-likert-extra-labels,58,542985,0.0-32.0-1.0,anomymised,6564584152624795c40b73cb,65645f2eb624bf71c4f20cb0,66845,1A,woman,NA,NA,Somebody says<br><em>Ruth is kissing Luke</em>,kiss_active,rating_volition,"{""Q0"":5}",[0],The speaker identifies more with <br>Luke than Ruth,The speaker identifies more with<br>Ruth than Luke,right_to_left
null,Somebody says<br><em>Luke and Ruth are flirting with each other</em>,NA,NA,NA,html-keyboard-response,59,544996,0.0-33.0-0.0,anomymised,6564584152624795c40b73cb,65645f2eb624bf71c4f20cb0,66845,1A,woman,NA,null,NAME1 and NAME2 are flirting with each other,flirt_conjoined,sentence,NA,NA,NA,NA,NA
8243.20000000298,NA,NA,NA,NA,survey-likert-extra-labels,60,553241,0.0-33.0-1.0,anomymised,6564584152624795c40b73cb,65645f2eb624bf71c4f20cb0,66845,1A,woman,NA,NA,Somebody says<br><em>Luke and Ruth are flirting with each other</em>,flirt_conjoined,rating_volition,"{""Q0"":3}",[0],The speaker identifies more with <br>Luke than Ruth,The speaker identifies more with<br>Ruth than Luke,left_to_right
null,Somebody says<br><em>Mike is posing for Dave,NA,NA,NA,html-keyboard-response,61,555248,0.0-34.0-0.0,anomymised,6564584152624795c40b73cb,65645f2eb624bf71c4f20cb0,66845,1A,woman,NA,null,M2 is posing for M4,pose,sentence,NA,NA,NA,NA,NA
8246.5,NA,NA,NA,NA,survey-likert-extra-labels,62,563497,0.0-34.0-1.0,anomymised,6564584152624795c40b73cb,65645f2eb624bf71c4f20cb0,66845,1A,woman,NA,NA,Somebody says<br><em>Mike is posing for Dave,pose,rating_volition,"{""Q0"":0}",[0],Mike is modelling for Dave,Dave is modelling for Mike,NA
null,Somebody says<br><em>Dave is playing with Mike</em>,NA,NA,NA,html-keyboard-response,63,565510,0.0-35.0-0.0,anomymised,6564584152624795c40b73cb,65645f2eb624bf71c4f20cb0,66845,1A,woman,NA,null,NAME1 is playing with NAME2,play_active,sentence,NA,NA,NA,NA,NA
7921.29999999702,NA,NA,NA,NA,survey-likert-extra-labels,64,573434,0.0-35.0-1.0,anomymised,6564584152624795c40b73cb,65645f2eb624bf71c4f20cb0,66845,1A,woman,NA,NA,Somebody says<br><em>Dave is playing with Mike</em>,play_active,rating_volition,"{""Q0"":3}",[0],The speaker identifies more with <br>Dave than Mike,The speaker identifies more with<br>Mike than Dave,left_to_right
null,Somebody says<br><em>Dave is challenging Beth</em>,NA,NA,NA,html-keyboard-response,65,575443,0.0-36.0-0.0,anomymised,6564584152624795c40b73cb,65645f2eb624bf71c4f20cb0,66845,1A,woman,NA,null,NAME1 is challenging NAME2,challenge_active,sentence,NA,NA,NA,NA,NA
11836.20000000298,NA,NA,NA,NA,survey-likert-extra-labels,66,587281,0.0-36.0-1.0,anomymised,6564584152624795c40b73cb,65645f2eb624bf71c4f20cb0,66845,1A,woman,NA,NA,Somebody says<br><em>Dave is challenging Beth</em>,challenge_active,rating_volition,"{""Q0"":5}",[0],The speaker identifies more with <br>Beth than Dave,The speaker identifies more with<br>Dave than Beth,right_to_left
null,Somebody says<br><em>Ruth is being kissed by Dave</em>,NA,NA,NA,html-keyboard-response,67,589296,0.0-37.0-0.0,anomymised,6564584152624795c40b73cb,65645f2eb624bf71c4f20cb0,66845,1A,woman,NA,null,NAME1 is being kissed by NAME2,kiss_passive,sentence,NA,NA,NA,NA,NA
8879.90000000596,NA,NA,NA,NA,survey-likert-extra-labels,68,598178,0.0-37.0-1.0,anomymised,6564584152624795c40b73cb,65645f2eb624bf71c4f20cb0,66845,1A,woman,NA,NA,Somebody says<br><em>Ruth is being kissed by Dave</em>,kiss_passive,rating_volition,"{""Q0"":1}",[0],The speaker identifies more with <br>Dave than Ruth,The speaker identifies more with<br>Ruth than Dave,right_to_left
null,Somebody says<br><em>Jane and Kate are meeting each other</em>,NA,NA,NA,html-keyboard-response,69,600182,0.0-38.0-0.0,anomymised,6564584152624795c40b73cb,65645f2eb624bf71c4f20cb0,66845,1A,woman,NA,null,NAME1 and NAME2 are meeting each other,meet_conjoined,sentence,NA,NA,NA,NA,NA
4978.300000011921,NA,NA,NA,NA,survey-likert-extra-labels,70,605162,0.0-38.0-1.0,anomymised,6564584152624795c40b73cb,65645f2eb624bf71c4f20cb0,66845,1A,woman,NA,NA,Somebody says<br><em>Jane and Kate are meeting each other</em>,meet_conjoined,rating_volition,"{""Q0"":3}",[0],The speaker identifies more with <br>Jane than Kate,The speaker identifies more with<br>Kate than Jane,left_to_right
null,Somebody says<br><em>Mike is meeting Fred</em>,NA,NA,NA,html-keyboard-response,71,607176,0.0-39.0-0.0,anomymised,6564584152624795c40b73cb,65645f2eb624bf71c4f20cb0,66845,1A,woman,NA,null,NAME1 is meeting NAME2,meet_active,sentence,NA,NA,NA,NA,NA
10479.5,NA,NA,NA,NA,survey-likert-extra-labels,72,617658,0.0-39.0-1.0,anomymised,6564584152624795c40b73cb,65645f2eb624bf71c4f20cb0,66845,1A,woman,NA,NA,Somebody says<br><em>Mike is meeting Fred</em>,meet_active,rating_volition,"{""Q0"":6}",[0],The speaker identifies more with <br>Fred than Mike,The speaker identifies more with<br>Mike than Fred,right_to_left
null,Somebody says<br><em>Beth and Jane are dancing with each other</em>,NA,NA,NA,html-keyboard-response,73,619672,0.0-40.0-0.0,anomymised,6564584152624795c40b73cb,65645f2eb624bf71c4f20cb0,66845,1A,woman,NA,null,NAME1 and NAME2 are dancing with each other,dance_conjoined,sentence,NA,NA,NA,NA,NA
4048.2999999970198,NA,NA,NA,NA,survey-likert-extra-labels,74,623722,0.0-40.0-1.0,anomymised,6564584152624795c40b73cb,65645f2eb624bf71c4f20cb0,66845,1A,woman,NA,NA,Somebody says<br><em>Beth and Jane are dancing with each other</em>,dance_conjoined,rating_volition,"{""Q0"":3}",[0],The speaker identifies more with <br>Jane than Beth,The speaker identifies more with<br>Beth than Jane,right_to_left
null,Somebody says<br><em>Mike is being seduced by Fred</em>,NA,NA,NA,html-keyboard-response,75,625727,0.0-41.0-0.0,anomymised,6564584152624795c40b73cb,65645f2eb624bf71c4f20cb0,66845,1A,woman,NA,null,NAME1 is being seduced by NAME2,seduce_passive,sentence,NA,NA,NA,NA,NA
23832.20000000298,NA,NA,NA,NA,survey-likert-extra-labels,76,649561,0.0-41.0-1.0,anomymised,6564584152624795c40b73cb,65645f2eb624bf71c4f20cb0,66845,1A,woman,NA,NA,Somebody says<br><em>Mike is being seduced by Fred</em>,seduce_passive,rating_volition,"{""Q0"":1}",[0],The speaker identifies more with <br>Fred than Mike,The speaker identifies more with<br>Mike than Fred,right_to_left
null,Somebody says<br><em>Ruth is seducing Dave</em>,NA,NA,NA,html-keyboard-response,77,651577,0.0-42.0-0.0,anomymised,6564584152624795c40b73cb,65645f2eb624bf71c4f20cb0,66845,1A,woman,NA,null,NAME1 is seducing NAME2,seduce_active,sentence,NA,NA,NA,NA,NA
10518.39999999106,NA,NA,NA,NA,survey-likert-extra-labels,78,662097,0.0-42.0-1.0,anomymised,6564584152624795c40b73cb,65645f2eb624bf71c4f20cb0,66845,1A,woman,NA,NA,Somebody says<br><em>Ruth is seducing Dave</em>,seduce_active,rating_volition,"{""Q0"":5}",[0],The speaker identifies more with <br>Dave than Ruth,The speaker identifies more with<br>Ruth than Dave,right_to_left
null,Somebody says<br><em>Beth is talking to Fred</em>,NA,NA,NA,html-keyboard-response,79,664110,0.0-43.0-0.0,anomymised,6564584152624795c40b73cb,65645f2eb624bf71c4f20cb0,66845,1A,woman,NA,null,NAME1 is talking to NAME2,talk_active,sentence,NA,NA,NA,NA,NA
8457.70000000298,NA,NA,NA,NA,survey-likert-extra-labels,80,672569,0.0-43.0-1.0,anomymised,6564584152624795c40b73cb,65645f2eb624bf71c4f20cb0,66845,1A,woman,NA,NA,Somebody says<br><em>Beth is talking to Fred</em>,talk_active,rating_volition,"{""Q0"":5}",[0],The speaker identifies more with <br>Fred than Beth,The speaker identifies more with<br>Beth than Fred,right_to_left
null,Somebody says<br><em>Dave is being opposed by Luke</em>,NA,NA,NA,html-keyboard-response,81,674576,0.0-44.0-0.0,anomymised,6564584152624795c40b73cb,65645f2eb624bf71c4f20cb0,66845,1A,woman,NA,null,NAME1 is being opposed by NAME2,oppose_passive,sentence,NA,NA,NA,NA,NA
18806.70000000298,NA,NA,NA,NA,survey-likert-extra-labels,82,693385,0.0-44.0-1.0,anomymised,6564584152624795c40b73cb,65645f2eb624bf71c4f20cb0,66845,1A,woman,NA,NA,Somebody says<br><em>Dave is being opposed by Luke</em>,oppose_passive,rating_volition,"{""Q0"":1}",[0],The speaker identifies more with <br>Luke than Dave,The speaker identifies more with<br>Dave than Luke,right_to_left
null,Somebody says<br><em>Ruth is being touched by Fred</em>,NA,NA,NA,html-keyboard-response,83,695395,0.0-45.0-0.0,anomymised,6564584152624795c40b73cb,65645f2eb624bf71c4f20cb0,66845,1A,woman,NA,null,NAME1 is being touched by NAME2,touch_passive,sentence,NA,NA,NA,NA,NA
16836.90000000596,NA,NA,NA,NA,survey-likert-extra-labels,84,712233,0.0-45.0-1.0,anomymised,6564584152624795c40b73cb,65645f2eb624bf71c4f20cb0,66845,1A,woman,NA,NA,Somebody says<br><em>Ruth is being touched by Fred</em>,touch_passive,rating_volition,"{""Q0"":4}",[0],The speaker identifies more with <br>Ruth than Fred,The speaker identifies more with<br>Fred than Ruth,left_to_right
null,Somebody says<br><em>Jane is shouting at Luke</em>,NA,NA,NA,html-keyboard-response,85,714242,0.0-46.0-0.0,anomymised,6564584152624795c40b73cb,65645f2eb624bf71c4f20cb0,66845,1A,woman,NA,null,NAME1 is shouting at NAME2,shout_active,sentence,NA,NA,NA,NA,NA
10115.90000000596,NA,NA,NA,NA,survey-likert-extra-labels,86,724361,0.0-46.0-1.0,anomymised,6564584152624795c40b73cb,65645f2eb624bf71c4f20cb0,66845,1A,woman,NA,NA,Somebody says<br><em>Jane is shouting at Luke</em>,shout_active,rating_volition,"{""Q0"":5}",[0],The speaker identifies more with <br>Luke than Jane,The speaker identifies more with<br>Jane than Luke,right_to_left
null,Somebody says<br><em>Mike is touching Kate</em>,NA,NA,NA,html-keyboard-response,87,726374,0.0-47.0-0.0,anomymised,6564584152624795c40b73cb,65645f2eb624bf71c4f20cb0,66845,1A,woman,NA,null,NAME1 is touching NAME2,touch_active,sentence,NA,NA,NA,NA,NA
7937.70000000298,NA,NA,NA,NA,survey-likert-extra-labels,88,734313,0.0-47.0-1.0,anomymised,6564584152624795c40b73cb,65645f2eb624bf71c4f20cb0,66845,1A,woman,NA,NA,Somebody says<br><em>Mike is touching Kate</em>,touch_active,rating_volition,"{""Q0"":5}",[0],The speaker identifies more with <br>Kate than Mike,The speaker identifies more with<br>Mike than Kate,right_to_left
null,Somebody says<br><em>Mike is reminding Beth,NA,NA,NA,html-keyboard-response,89,736325,0.0-48.0-0.0,anomymised,6564584152624795c40b73cb,65645f2eb624bf71c4f20cb0,66845,1A,woman,NA,null,M2 is reminding W4,remind,sentence,NA,NA,NA,NA,NA
16545.5,NA,NA,NA,NA,survey-likert-extra-labels,90,752873,0.0-48.0-1.0,anomymised,6564584152624795c40b73cb,65645f2eb624bf71c4f20cb0,66845,1A,woman,NA,NA,Somebody says<br><em>Mike is reminding Beth,remind,rating_volition,"{""Q0"":0}",[0],Mike is telling Beth again,Beth is telling Mike again,NA
null,Somebody says<br><em>Luke and Dave are playing with each other</em>,NA,NA,NA,html-keyboard-response,91,754877,0.0-49.0-0.0,anomymised,6564584152624795c40b73cb,65645f2eb624bf71c4f20cb0,66845,1A,woman,NA,null,NAME1 and NAME2 are playing with each other,play_conjoined,sentence,NA,NA,NA,NA,NA
6569.5,NA,NA,NA,NA,survey-likert-extra-labels,92,761449,0.0-49.0-1.0,anomymised,6564584152624795c40b73cb,65645f2eb624bf71c4f20cb0,66845,1A,woman,NA,NA,Somebody says<br><em>Luke and Dave are playing with each other</em>,play_conjoined,rating_volition,"{""Q0"":3}",[0],The speaker identifies more with <br>Dave than Luke,The speaker identifies more with<br>Luke than Dave,right_to_left
null,Somebody says<br><em>Luke is flirting with Dave</em>,NA,NA,NA,html-keyboard-response,93,763459,0.0-50.0-0.0,anomymised,6564584152624795c40b73cb,65645f2eb624bf71c4f20cb0,66845,1A,woman,NA,null,NAME1 is flirting with NAME2,flirt_active,sentence,NA,NA,NA,NA,NA
8043.20000000298,NA,NA,NA,NA,survey-likert-extra-labels,94,771505,0.0-50.0-1.0,anomymised,6564584152624795c40b73cb,65645f2eb624bf71c4f20cb0,66845,1A,woman,NA,NA,Somebody says<br><em>Luke is flirting with Dave</em>,flirt_active,rating_volition,"{""Q0"":1}",[0],The speaker identifies more with <br>Luke than Dave,The speaker identifies more with<br>Dave than Luke,left_to_right
null,Somebody says<br><em>Dave is being looked at by Fred</em>,NA,NA,NA,html-keyboard-response,95,773510,0.0-51.0-0.0,anomymised,6564584152624795c40b73cb,65645f2eb624bf71c4f20cb0,66845,1A,woman,NA,null,NAME1 is being looked at by NAME2,look_passive,sentence,NA,NA,NA,NA,NA
9424.5,NA,NA,NA,NA,survey-likert-extra-labels,96,782937,0.0-51.0-1.0,anomymised,6564584152624795c40b73cb,65645f2eb624bf71c4f20cb0,66845,1A,woman,NA,NA,Somebody says<br><em>Dave is being looked at by Fred</em>,look_passive,rating_volition,"{""Q0"":6}",[0],The speaker identifies more with <br>Dave than Fred,The speaker identifies more with<br>Fred than Dave,left_to_right
null,Somebody says<br><em>Kate is copying Beth</em>,NA,NA,NA,html-keyboard-response,97,784943,0.0-52.0-0.0,anomymised,6564584152624795c40b73cb,65645f2eb624bf71c4f20cb0,66845,1A,woman,NA,null,NAME1 is copying NAME2,copy_active,sentence,NA,NA,NA,NA,NA
11463.5,NA,NA,NA,NA,survey-likert-extra-labels,98,796409,0.0-52.0-1.0,anomymised,6564584152624795c40b73cb,65645f2eb624bf71c4f20cb0,66845,1A,woman,NA,NA,Somebody says<br><em>Kate is copying Beth</em>,copy_active,rating_volition,"{""Q0"":5}",[0],The speaker identifies more with <br>Kate than Beth,The speaker identifies more with<br>Beth than Kate,left_to_right
null,Somebody says<br><em>Fred is fighting with Jane</em>,NA,NA,NA,html-keyboard-response,99,798424,0.0-53.0-0.0,anomymised,6564584152624795c40b73cb,65645f2eb624bf71c4f20cb0,66845,1A,woman,NA,null,NAME1 is fighting with NAME2,fight_active,sentence,NA,NA,NA,NA,NA
7662,NA,NA,NA,NA,survey-likert-extra-labels,100,806089,0.0-53.0-1.0,anomymised,6564584152624795c40b73cb,65645f2eb624bf71c4f20cb0,66845,1A,woman,NA,NA,Somebody says<br><em>Fred is fighting with Jane</em>,fight_active,rating_volition,"{""Q0"":6}",[0],The speaker identifies more with <br>Jane than Fred,The speaker identifies more with<br>Fred than Jane,right_to_left
null,Somebody says<br><em>Mike is dancing with Luke</em>,NA,NA,NA,html-keyboard-response,101,808092,0.0-54.0-0.0,anomymised,6564584152624795c40b73cb,65645f2eb624bf71c4f20cb0,66845,1A,woman,NA,null,NAME1 is dancing with NAME2,dance_active,sentence,NA,NA,NA,NA,NA
10362.40000000596,NA,NA,NA,NA,survey-likert-extra-labels,102,818457,0.0-54.0-1.0,anomymised,6564584152624795c40b73cb,65645f2eb624bf71c4f20cb0,66845,1A,woman,NA,NA,Somebody says<br><em>Mike is dancing with Luke</em>,dance_active,rating_volition,"{""Q0"":3}",[0],The speaker identifies more with <br>Mike than Luke,The speaker identifies more with<br>Luke than Mike,left_to_right
null,Somebody says<br><em>Beth and Mike are touching each other</em>,NA,NA,NA,html-keyboard-response,103,820462,0.0-55.0-0.0,anomymised,6564584152624795c40b73cb,65645f2eb624bf71c4f20cb0,66845,1A,woman,NA,null,NAME1 and NAME2 are touching each other,touch_conjoined,sentence,NA,NA,NA,NA,NA
4841.399999991059,NA,NA,NA,NA,survey-likert-extra-labels,104,825306,0.0-55.0-1.0,anomymised,6564584152624795c40b73cb,65645f2eb624bf71c4f20cb0,66845,1A,woman,NA,NA,Somebody says<br><em>Beth and Mike are touching each other</em>,touch_conjoined,rating_volition,"{""Q0"":3}",[0],The speaker identifies more with <br>Beth than Mike,The speaker identifies more with<br>Mike than Beth,left_to_right
4189.29999999702,<p>Thank you for completing that task.</p><p>The final part of this session is a short questionnaire.</p><p>Press Continue.</p>,0,Continue,Continue,html-button-response,105,829496,0.0-56.0,anomymised,6564584152624795c40b73cb,65645f2eb624bf71c4f20cb0,66845,1A,woman,NA,NA,NA,NA,NA,NA,NA,NA,NA,NA
106820.30000001192,NA,NA,NA,NA,survey-text,106,937341,0.0-57.0,anomymised,6564584152624795c40b73cb,65645f2eb624bf71c4f20cb0,66845,1A,woman,NA,NA,NA,NA,demographics,"{""Q0"":""61"",""Q1"":""English"",""Q2"":""English"",""Q3"":""United Kingdom"",""Q4"":""British"",""Q5"":""White"",""Q6"":""Female""}",NA,NA,NA,NA
5705.4000000059605,<p>This is the last question - thank you for taking part! Have you lived in the UK for the last 5 years or more?</p>,0,"Yes,No",Yes,html-button-response,107,943048,0.0-58.0,anomymised,6564584152624795c40b73cb,65645f2eb624bf71c4f20cb0,66845,1A,woman,NA,NA,NA,NA,fiveyears,NA,NA,NA,NA,NA
