rt,stimulus,button_pressed,choices,ChosenStimulus,trial_type,trial_index,time_elapsed,internal_node_id,subject_id,study_id,session_id,subject,list,ppt_gender,url,key_press,sentence_type,verb,test_part,responses,question_order,left_part,right_part,name_order
2884.899999976158,Welcome to the experiment. Press Continue to begin.,0,Continue,Continue,html-button-response,0,2886,0.0-0.0,anomymised,6564584152624795c40b73cb,65645f3f7da5b0e8cdcab5f6,67167,1A,woman,NA,NA,NA,NA,NA,NA,NA,NA,NA,NA
19272.30000001192,NA,NA,NA,NA,external-html,1,23202,0.0-1.0,anomymised,6564584152624795c40b73cb,65645f3f7da5b0e8cdcab5f6,67167,1A,woman,consent.html,NA,NA,NA,NA,NA,NA,NA,NA,NA
7462.799999952316,"<p>Welcome.</p><p>In this experiment we will ask you to imagine people's motivations for saying sentences.</p><p>Each trial will begin with a sentence that somebody might say to describe an event involving two different people.</p><p>For instance, someone might say <em>Harry is being recruited by Molly</em></p><p>We want you to think about which of those two people (Molly and Harry) the speaker identifies more with. For instance, why did the speaker say <em>Harry is being recruited by Molly</em> rather than <em> Molly is recruiting Harry</em>? Might that mean that the speaker is socially closer to one of the two characters?</p><p>After you have read the sentence, you will rate on a scale which of the two characters the speaker identifies more with.</p><p>You will give your answer by clicking a button on a rating scale.</p><p>Sometimes there will also be catch questions designed to make sure that you are paying attention, which ask about a different topic.</p><p>To do this task, you will have to use your imagination to think about and visualise the events, and how the speaker might relate to the characters.</p><br><p>Ready?</p>",0,Continue,Continue,html-button-response,2,30665,0.0-2.0,anomymised,6564584152624795c40b73cb,65645f3f7da5b0e8cdcab5f6,67167,1A,woman,NA,NA,NA,NA,NA,NA,NA,NA,NA,NA
2281,"<p>Before the experiment starts, we will show you an example of how you will answer the questions. Press 'Continue'.</p>",0,Continue,Continue,html-button-response,3,33954,0.0-3.0,anomymised,6564584152624795c40b73cb,65645f3f7da5b0e8cdcab5f6,67167,1A,woman,NA,NA,NA,NA,NA,NA,NA,NA,NA,NA
null,Somebody says <br><em>Samuel is dining with Frank</em>,NA,NA,NA,html-keyboard-response,4,36973,0.0-4.0,anomymised,6564584152624795c40b73cb,65645f3f7da5b0e8cdcab5f6,67167,1A,woman,NA,null,NA,NA,NA,NA,NA,NA,NA,NA
21071.5,<img src='img/Example-trial.jpg' style='height:550px;''></img>,0,Continue,Continue,html-button-response,5,58045,0.0-5.0,anomymised,6564584152624795c40b73cb,65645f3f7da5b0e8cdcab5f6,67167,1A,woman,NA,NA,NA,NA,NA,NA,NA,NA,NA,NA
2606.400000035763,<p>Ready to start the experiment?</p><br><p><strong>Remember to give an answer by clicking a button on the rating scale.</strong></p><p>Press 'Continue' to begin.</p>,0,Continue,Continue,html-button-response,6,61653,0.0-6.0,anomymised,6564584152624795c40b73cb,65645f3f7da5b0e8cdcab5f6,67167,1A,woman,NA,NA,NA,NA,NA,NA,NA,NA,NA,NA
null,Somebody says<br><em>Dave is meeting Luke</em>,NA,NA,NA,html-keyboard-response,7,64661,0.0-7.0-0.0,anomymised,6564584152624795c40b73cb,65645f3f7da5b0e8cdcab5f6,67167,1A,woman,NA,null,NAME1 is meeting NAME2,meet_active,sentence,NA,NA,NA,NA,NA
6799.599999964237,NA,NA,NA,NA,survey-likert-extra-labels,8,71462,0.0-7.0-1.0,anomymised,6564584152624795c40b73cb,65645f3f7da5b0e8cdcab5f6,67167,1A,woman,NA,NA,Somebody says<br><em>Dave is meeting Luke</em>,meet_active,rating_volition,"{""Q0"":5}",[0],The speaker identifies more with <br>Luke than Dave,The speaker identifies more with<br>Dave than Luke,right_to_left
null,Somebody says<br><em>Mike is hugging Luke</em>,NA,NA,NA,html-keyboard-response,9,73468,0.0-8.0-0.0,anomymised,6564584152624795c40b73cb,65645f3f7da5b0e8cdcab5f6,67167,1A,woman,NA,null,NAME1 is hugging NAME2,hug_active,sentence,NA,NA,NA,NA,NA
4264.400000035763,NA,NA,NA,NA,survey-likert-extra-labels,10,77733,0.0-8.0-1.0,anomymised,6564584152624795c40b73cb,65645f3f7da5b0e8cdcab5f6,67167,1A,woman,NA,NA,Somebody says<br><em>Mike is hugging Luke</em>,hug_active,rating_volition,"{""Q0"":1}",[0],The speaker identifies more with <br>Mike than Luke,The speaker identifies more with<br>Luke than Mike,left_to_right
null,Somebody says<br><em>Fred is playing with Jane</em>,NA,NA,NA,html-keyboard-response,11,79749,0.0-9.0-0.0,anomymised,6564584152624795c40b73cb,65645f3f7da5b0e8cdcab5f6,67167,1A,woman,NA,null,NAME1 is playing with NAME2,play_active,sentence,NA,NA,NA,NA,NA
3467.400000035763,NA,NA,NA,NA,survey-likert-extra-labels,12,83218,0.0-9.0-1.0,anomymised,6564584152624795c40b73cb,65645f3f7da5b0e8cdcab5f6,67167,1A,woman,NA,NA,Somebody says<br><em>Fred is playing with Jane</em>,play_active,rating_volition,"{""Q0"":4}",[0],The speaker identifies more with <br>Jane than Fred,The speaker identifies more with<br>Fred than Jane,right_to_left
null,Somebody says<br><em>Mike is reminding Beth,NA,NA,NA,html-keyboard-response,13,85223,0.0-10.0-0.0,anomymised,6564584152624795c40b73cb,65645f3f7da5b0e8cdcab5f6,67167,1A,woman,NA,null,M2 is reminding W4,remind,sentence,NA,NA,NA,NA,NA
11261.199999988079,NA,NA,NA,NA,survey-likert-extra-labels,14,96485,0.0-10.0-1.0,anomymised,6564584152624795c40b73cb,65645f3f7da5b0e8cdcab5f6,67167,1A,woman,NA,NA,Somebody says<br><em>Mike is reminding Beth,remind,rating_volition,"{""Q0"":1}",[0],Mike is telling Beth again,Beth is telling Mike again,NA
null,Somebody says<br><em>Beth and Fred are dancing with each other</em>,NA,NA,NA,html-keyboard-response,15,98487,0.0-11.0-0.0,anomymised,6564584152624795c40b73cb,65645f3f7da5b0e8cdcab5f6,67167,1A,woman,NA,null,NAME1 and NAME2 are dancing with each other,dance_conjoined,sentence,NA,NA,NA,NA,NA
8728.800000011921,NA,NA,NA,NA,survey-likert-extra-labels,16,107217,0.0-11.0-1.0,anomymised,6564584152624795c40b73cb,65645f3f7da5b0e8cdcab5f6,67167,1A,woman,NA,NA,Somebody says<br><em>Beth and Fred are dancing with each other</em>,dance_conjoined,rating_volition,"{""Q0"":3}",[0],The speaker identifies more with <br>Fred than Beth,The speaker identifies more with<br>Beth than Fred,right_to_left
null,Somebody says<br><em>Mike and Ruth are fighting with each other</em>,NA,NA,NA,html-keyboard-response,17,109228,0.0-12.0-0.0,anomymised,6564584152624795c40b73cb,65645f3f7da5b0e8cdcab5f6,67167,1A,woman,NA,null,NAME1 and NAME2 are fighting with each other,fight_conjoined,sentence,NA,NA,NA,NA,NA
11376.800000011921,NA,NA,NA,NA,survey-likert-extra-labels,18,120605,0.0-12.0-1.0,anomymised,6564584152624795c40b73cb,65645f3f7da5b0e8cdcab5f6,67167,1A,woman,NA,NA,Somebody says<br><em>Mike and Ruth are fighting with each other</em>,fight_conjoined,rating_volition,"{""Q0"":5}",[0],The speaker identifies more with <br>Ruth than Mike,The speaker identifies more with<br>Mike than Ruth,right_to_left
null,Somebody says<br><em>Mike and Fred are shouting at each other</em>,NA,NA,NA,html-keyboard-response,19,122618,0.0-13.0-0.0,anomymised,6564584152624795c40b73cb,65645f3f7da5b0e8cdcab5f6,67167,1A,woman,NA,null,NAME1 and NAME2 are shouting at each other,shout_conjoined,sentence,NA,NA,NA,NA,NA
7098.100000023842,NA,NA,NA,NA,survey-likert-extra-labels,20,129717,0.0-13.0-1.0,anomymised,6564584152624795c40b73cb,65645f3f7da5b0e8cdcab5f6,67167,1A,woman,NA,NA,Somebody says<br><em>Mike and Fred are shouting at each other</em>,shout_conjoined,rating_volition,"{""Q0"":5}",[0],The speaker identifies more with <br>Fred than Mike,The speaker identifies more with<br>Mike than Fred,right_to_left
null,Somebody says<br><em>Dave and Mike are marrying each other</em>,NA,NA,NA,html-keyboard-response,21,131731,0.0-14.0-0.0,anomymised,6564584152624795c40b73cb,65645f3f7da5b0e8cdcab5f6,67167,1A,woman,NA,null,NAME1 and NAME2 are marrying each other,marry_conjoined,sentence,NA,NA,NA,NA,NA
4821,NA,NA,NA,NA,survey-likert-extra-labels,22,136554,0.0-14.0-1.0,anomymised,6564584152624795c40b73cb,65645f3f7da5b0e8cdcab5f6,67167,1A,woman,NA,NA,Somebody says<br><em>Dave and Mike are marrying each other</em>,marry_conjoined,rating_volition,"{""Q0"":1}",[0],The speaker identifies more with <br>Dave than Mike,The speaker identifies more with<br>Mike than Dave,left_to_right
null,Somebody says<br><em>Kate is flirting with Beth</em>,NA,NA,NA,html-keyboard-response,23,138562,0.0-15.0-0.0,anomymised,6564584152624795c40b73cb,65645f3f7da5b0e8cdcab5f6,67167,1A,woman,NA,null,NAME1 is flirting with NAME2,flirt_active,sentence,NA,NA,NA,NA,NA
4682.199999988079,NA,NA,NA,NA,survey-likert-extra-labels,24,143245,0.0-15.0-1.0,anomymised,6564584152624795c40b73cb,65645f3f7da5b0e8cdcab5f6,67167,1A,woman,NA,NA,Somebody says<br><em>Kate is flirting with Beth</em>,flirt_active,rating_volition,"{""Q0"":2}",[0],The speaker identifies more with <br>Kate than Beth,The speaker identifies more with<br>Beth than Kate,left_to_right
null,Somebody says<br><em>Mike and Jane are meeting each other</em>,NA,NA,NA,html-keyboard-response,25,145253,0.0-16.0-0.0,anomymised,6564584152624795c40b73cb,65645f3f7da5b0e8cdcab5f6,67167,1A,woman,NA,null,NAME1 and NAME2 are meeting each other,meet_conjoined,sentence,NA,NA,NA,NA,NA
5242.5,NA,NA,NA,NA,survey-likert-extra-labels,26,150496,0.0-16.0-1.0,anomymised,6564584152624795c40b73cb,65645f3f7da5b0e8cdcab5f6,67167,1A,woman,NA,NA,Somebody says<br><em>Mike and Jane are meeting each other</em>,meet_conjoined,rating_volition,"{""Q0"":3}",[0],The speaker identifies more with <br>Mike than Jane,The speaker identifies more with<br>Jane than Mike,left_to_right
null,Somebody says<br><em>Fred is being touched by Jane</em>,NA,NA,NA,html-keyboard-response,27,152509,0.0-17.0-0.0,anomymised,6564584152624795c40b73cb,65645f3f7da5b0e8cdcab5f6,67167,1A,woman,NA,null,NAME1 is being touched by NAME2,touch_passive,sentence,NA,NA,NA,NA,NA
12018.199999988079,NA,NA,NA,NA,survey-likert-extra-labels,28,164528,0.0-17.0-1.0,anomymised,6564584152624795c40b73cb,65645f3f7da5b0e8cdcab5f6,67167,1A,woman,NA,NA,Somebody says<br><em>Fred is being touched by Jane</em>,touch_passive,rating_volition,"{""Q0"":5}",[0],The speaker identifies more with <br>Jane than Fred,The speaker identifies more with<br>Fred than Jane,right_to_left
null,Somebody says<br><em>Ruth and Jane are arguing with each other</em>,NA,NA,NA,html-keyboard-response,29,166533,0.0-18.0-0.0,anomymised,6564584152624795c40b73cb,65645f3f7da5b0e8cdcab5f6,67167,1A,woman,NA,null,NAME1 and NAME2 are arguing with each other,argue_conjoined,sentence,NA,NA,NA,NA,NA
4531.5,NA,NA,NA,NA,survey-likert-extra-labels,30,171065,0.0-18.0-1.0,anomymised,6564584152624795c40b73cb,65645f3f7da5b0e8cdcab5f6,67167,1A,woman,NA,NA,Somebody says<br><em>Ruth and Jane are arguing with each other</em>,argue_conjoined,rating_volition,"{""Q0"":1}",[0],The speaker identifies more with <br>Ruth than Jane,The speaker identifies more with<br>Jane than Ruth,left_to_right
null,Somebody says<br><em>Mike and Luke are touching each other</em>,NA,NA,NA,html-keyboard-response,31,173078,0.0-19.0-0.0,anomymised,6564584152624795c40b73cb,65645f3f7da5b0e8cdcab5f6,67167,1A,woman,NA,null,NAME1 and NAME2 are touching each other,touch_conjoined,sentence,NA,NA,NA,NA,NA
4617.199999988079,NA,NA,NA,NA,survey-likert-extra-labels,32,177697,0.0-19.0-1.0,anomymised,6564584152624795c40b73cb,65645f3f7da5b0e8cdcab5f6,67167,1A,woman,NA,NA,Somebody says<br><em>Mike and Luke are touching each other</em>,touch_conjoined,rating_volition,"{""Q0"":4}",[0],The speaker identifies more with <br>Luke than Mike,The speaker identifies more with<br>Mike than Luke,right_to_left
null,Somebody says<br><em>Dave and Fred are hugging each other</em>,NA,NA,NA,html-keyboard-response,33,179713,0.0-20.0-0.0,anomymised,6564584152624795c40b73cb,65645f3f7da5b0e8cdcab5f6,67167,1A,woman,NA,null,NAME1 and NAME2 are hugging each other,hug_conjoined,sentence,NA,NA,NA,NA,NA
20503.399999976158,NA,NA,NA,NA,survey-likert-extra-labels,34,200217,0.0-20.0-1.0,anomymised,6564584152624795c40b73cb,65645f3f7da5b0e8cdcab5f6,67167,1A,woman,NA,NA,Somebody says<br><em>Dave and Fred are hugging each other</em>,hug_conjoined,rating_volition,"{""Q0"":5}",[0],The speaker identifies more with <br>Fred than Dave,The speaker identifies more with<br>Dave than Fred,right_to_left
null,Somebody says<br><em>Luke is being seduced by Kate</em>,NA,NA,NA,html-keyboard-response,35,202230,0.0-21.0-0.0,anomymised,6564584152624795c40b73cb,65645f3f7da5b0e8cdcab5f6,67167,1A,woman,NA,null,NAME1 is being seduced by NAME2,seduce_passive,sentence,NA,NA,NA,NA,NA
4064.899999976158,NA,NA,NA,NA,survey-likert-extra-labels,36,206296,0.0-21.0-1.0,anomymised,6564584152624795c40b73cb,65645f3f7da5b0e8cdcab5f6,67167,1A,woman,NA,NA,Somebody says<br><em>Luke is being seduced by Kate</em>,seduce_passive,rating_volition,"{""Q0"":1}",[0],The speaker identifies more with <br>Luke than Kate,The speaker identifies more with<br>Kate than Luke,left_to_right
null,Somebody says<br><em>Dave and Fred are kissing each other</em>,NA,NA,NA,html-keyboard-response,37,208311,0.0-22.0-0.0,anomymised,6564584152624795c40b73cb,65645f3f7da5b0e8cdcab5f6,67167,1A,woman,NA,null,NAME1 and NAME2 are kissing each other,kiss_conjoined,sentence,NA,NA,NA,NA,NA
6759.699999988079,NA,NA,NA,NA,survey-likert-extra-labels,38,215072,0.0-22.0-1.0,anomymised,6564584152624795c40b73cb,65645f3f7da5b0e8cdcab5f6,67167,1A,woman,NA,NA,Somebody says<br><em>Dave and Fred are kissing each other</em>,kiss_conjoined,rating_volition,"{""Q0"":5}",[0],The speaker identifies more with <br>Fred than Dave,The speaker identifies more with<br>Dave than Fred,right_to_left
null,Somebody says<br><em>Jane is teaching Dave,NA,NA,NA,html-keyboard-response,39,217080,0.0-23.0-0.0,anomymised,6564584152624795c40b73cb,65645f3f7da5b0e8cdcab5f6,67167,1A,woman,NA,null,W2 is teaching M4,teach,sentence,NA,NA,NA,NA,NA
12352.100000023842,NA,NA,NA,NA,survey-likert-extra-labels,40,229433,0.0-23.0-1.0,anomymised,6564584152624795c40b73cb,65645f3f7da5b0e8cdcab5f6,67167,1A,woman,NA,NA,Somebody says<br><em>Jane is teaching Dave,teach,rating_volition,"{""Q0"":0}",[0],Jane is educating Dave,Dave is educating Jane,NA
null,Somebody says<br><em>Kate and Beth are playing with each other</em>,NA,NA,NA,html-keyboard-response,41,231436,0.0-24.0-0.0,anomymised,6564584152624795c40b73cb,65645f3f7da5b0e8cdcab5f6,67167,1A,woman,NA,null,NAME1 and NAME2 are playing with each other,play_conjoined,sentence,NA,NA,NA,NA,NA
5087.400000035763,NA,NA,NA,NA,survey-likert-extra-labels,42,236524,0.0-24.0-1.0,anomymised,6564584152624795c40b73cb,65645f3f7da5b0e8cdcab5f6,67167,1A,woman,NA,NA,Somebody says<br><em>Kate and Beth are playing with each other</em>,play_conjoined,rating_volition,"{""Q0"":2}",[0],The speaker identifies more with <br>Kate than Beth,The speaker identifies more with<br>Beth than Kate,left_to_right
null,Somebody says<br><em>Fred is being opposed by Ruth</em>,NA,NA,NA,html-keyboard-response,43,238536,0.0-25.0-0.0,anomymised,6564584152624795c40b73cb,65645f3f7da5b0e8cdcab5f6,67167,1A,woman,NA,null,NAME1 is being opposed by NAME2,oppose_passive,sentence,NA,NA,NA,NA,NA
6727.599999964237,NA,NA,NA,NA,survey-likert-extra-labels,44,245264,0.0-25.0-1.0,anomymised,6564584152624795c40b73cb,65645f3f7da5b0e8cdcab5f6,67167,1A,woman,NA,NA,Somebody says<br><em>Fred is being opposed by Ruth</em>,oppose_passive,rating_volition,"{""Q0"":5}",[0],The speaker identifies more with <br>Ruth than Fred,The speaker identifies more with<br>Fred than Ruth,right_to_left
null,Somebody says<br><em>Mike is arguing with Fred</em>,NA,NA,NA,html-keyboard-response,45,247277,0.0-26.0-0.0,anomymised,6564584152624795c40b73cb,65645f3f7da5b0e8cdcab5f6,67167,1A,woman,NA,null,NAME1 is arguing with NAME2,argue_active,sentence,NA,NA,NA,NA,NA
8349.5,NA,NA,NA,NA,survey-likert-extra-labels,46,255628,0.0-26.0-1.0,anomymised,6564584152624795c40b73cb,65645f3f7da5b0e8cdcab5f6,67167,1A,woman,NA,NA,Somebody says<br><em>Mike is arguing with Fred</em>,argue_active,rating_volition,"{""Q0"":2}",[0],The speaker identifies more with <br>Mike than Fred,The speaker identifies more with<br>Fred than Mike,left_to_right
null,Somebody says<br><em>Ruth is being hugged by Jane</em>,NA,NA,NA,html-keyboard-response,47,257632,0.0-27.0-0.0,anomymised,6564584152624795c40b73cb,65645f3f7da5b0e8cdcab5f6,67167,1A,woman,NA,null,NAME1 is being hugged by NAME2,hug_passive,sentence,NA,NA,NA,NA,NA
3390.699999988079,NA,NA,NA,NA,survey-likert-extra-labels,48,261024,0.0-27.0-1.0,anomymised,6564584152624795c40b73cb,65645f3f7da5b0e8cdcab5f6,67167,1A,woman,NA,NA,Somebody says<br><em>Ruth is being hugged by Jane</em>,hug_passive,rating_volition,"{""Q0"":1}",[0],The speaker identifies more with <br>Ruth than Jane,The speaker identifies more with<br>Jane than Ruth,left_to_right
null,Somebody says<br><em>Beth is looking at Dave</em>,NA,NA,NA,html-keyboard-response,49,263032,0.0-28.0-0.0,anomymised,6564584152624795c40b73cb,65645f3f7da5b0e8cdcab5f6,67167,1A,woman,NA,null,NAME1 is looking at NAME2,look_active,sentence,NA,NA,NA,NA,NA
5770.600000023842,NA,NA,NA,NA,survey-likert-extra-labels,50,268804,0.0-28.0-1.0,anomymised,6564584152624795c40b73cb,65645f3f7da5b0e8cdcab5f6,67167,1A,woman,NA,NA,Somebody says<br><em>Beth is looking at Dave</em>,look_active,rating_volition,"{""Q0"":2}",[0],The speaker identifies more with <br>Beth than Dave,The speaker identifies more with<br>Dave than Beth,left_to_right
null,Somebody says<br><em>Ruth is chasing Kate,NA,NA,NA,html-keyboard-response,51,270811,0.0-29.0-0.0,anomymised,6564584152624795c40b73cb,65645f3f7da5b0e8cdcab5f6,67167,1A,woman,NA,null,W1 is chasing W3,chase,sentence,NA,NA,NA,NA,NA
11123.5,NA,NA,NA,NA,survey-likert-extra-labels,52,281935,0.0-29.0-1.0,anomymised,6564584152624795c40b73cb,65645f3f7da5b0e8cdcab5f6,67167,1A,woman,NA,NA,Somebody says<br><em>Ruth is chasing Kate,chase,rating_volition,"{""Q0"":0}",[0],Ruth is behind Kate,Kate is behind Ruth,NA
null,Somebody says<br><em>Beth and Mike are talking with each other</em>,NA,NA,NA,html-keyboard-response,53,283942,0.0-30.0-0.0,anomymised,6564584152624795c40b73cb,65645f3f7da5b0e8cdcab5f6,67167,1A,woman,NA,null,NAME1 and NAME2 are talking with each other,talk_conjoined,sentence,NA,NA,NA,NA,NA
3824.699999988079,NA,NA,NA,NA,survey-likert-extra-labels,54,287767,0.0-30.0-1.0,anomymised,6564584152624795c40b73cb,65645f3f7da5b0e8cdcab5f6,67167,1A,woman,NA,NA,Somebody says<br><em>Beth and Mike are talking with each other</em>,talk_conjoined,rating_volition,"{""Q0"":2}",[0],The speaker identifies more with <br>Beth than Mike,The speaker identifies more with<br>Mike than Beth,left_to_right
null,Somebody says<br><em>Jane is carrying Beth,NA,NA,NA,html-keyboard-response,55,289783,0.0-31.0-0.0,anomymised,6564584152624795c40b73cb,65645f3f7da5b0e8cdcab5f6,67167,1A,woman,NA,null,W2 is carrying W4,carry,sentence,NA,NA,NA,NA,NA
8238.800000011921,NA,NA,NA,NA,survey-likert-extra-labels,56,298023,0.0-31.0-1.0,anomymised,6564584152624795c40b73cb,65645f3f7da5b0e8cdcab5f6,67167,1A,woman,NA,NA,Somebody says<br><em>Jane is carrying Beth,carry,rating_volition,"{""Q0"":0}",[0],Jane is transporting Beth,Beth is transporting Jane,NA
null,Somebody says<br><em>Kate is feeding Luke,NA,NA,NA,html-keyboard-response,57,300034,0.0-32.0-0.0,anomymised,6564584152624795c40b73cb,65645f3f7da5b0e8cdcab5f6,67167,1A,woman,NA,null,W3 is feeding M1,feed,sentence,NA,NA,NA,NA,NA
8836.899999976158,NA,NA,NA,NA,survey-likert-extra-labels,58,308872,0.0-32.0-1.0,anomymised,6564584152624795c40b73cb,65645f3f7da5b0e8cdcab5f6,67167,1A,woman,NA,NA,Somebody says<br><em>Kate is feeding Luke,feed,rating_volition,"{""Q0"":0}",[0],Kate cooked for Luke,Luke cooked for Kate,NA
null,Somebody says<br><em>Fred is hiring Ruth,NA,NA,NA,html-keyboard-response,59,310880,0.0-33.0-0.0,anomymised,6564584152624795c40b73cb,65645f3f7da5b0e8cdcab5f6,67167,1A,woman,NA,null,M3 is hiring W1,hire,sentence,NA,NA,NA,NA,NA
8754.599999964237,NA,NA,NA,NA,survey-likert-extra-labels,60,319636,0.0-33.0-1.0,anomymised,6564584152624795c40b73cb,65645f3f7da5b0e8cdcab5f6,67167,1A,woman,NA,NA,Somebody says<br><em>Fred is hiring Ruth,hire,rating_volition,"{""Q0"":0}",[0],Fred is employing Ruth,Ruth is employing Fred,NA
null,Somebody says<br><em>Luke is touching Dave</em>,NA,NA,NA,html-keyboard-response,61,321637,0.0-34.0-0.0,anomymised,6564584152624795c40b73cb,65645f3f7da5b0e8cdcab5f6,67167,1A,woman,NA,null,NAME1 is touching NAME2,touch_active,sentence,NA,NA,NA,NA,NA
4166,NA,NA,NA,NA,survey-likert-extra-labels,62,325804,0.0-34.0-1.0,anomymised,6564584152624795c40b73cb,65645f3f7da5b0e8cdcab5f6,67167,1A,woman,NA,NA,Somebody says<br><em>Luke is touching Dave</em>,touch_active,rating_volition,"{""Q0"":4}",[0],The speaker identifies more with <br>Dave than Luke,The speaker identifies more with<br>Luke than Dave,right_to_left
null,Somebody says<br><em>Mike is being shouted at by Luke</em>,NA,NA,NA,html-keyboard-response,63,327808,0.0-35.0-0.0,anomymised,6564584152624795c40b73cb,65645f3f7da5b0e8cdcab5f6,67167,1A,woman,NA,null,NAME1 is being shouted at by NAME2,shout_passive,sentence,NA,NA,NA,NA,NA
3958.800000011921,NA,NA,NA,NA,survey-likert-extra-labels,64,331767,0.0-35.0-1.0,anomymised,6564584152624795c40b73cb,65645f3f7da5b0e8cdcab5f6,67167,1A,woman,NA,NA,Somebody says<br><em>Mike is being shouted at by Luke</em>,shout_passive,rating_volition,"{""Q0"":2}",[0],The speaker identifies more with <br>Mike than Luke,The speaker identifies more with<br>Luke than Mike,left_to_right
null,Somebody says<br><em>Kate is talking to Mike</em>,NA,NA,NA,html-keyboard-response,65,333773,0.0-36.0-0.0,anomymised,6564584152624795c40b73cb,65645f3f7da5b0e8cdcab5f6,67167,1A,woman,NA,null,NAME1 is talking to NAME2,talk_active,sentence,NA,NA,NA,NA,NA
7978.300000011921,NA,NA,NA,NA,survey-likert-extra-labels,66,341752,0.0-36.0-1.0,anomymised,6564584152624795c40b73cb,65645f3f7da5b0e8cdcab5f6,67167,1A,woman,NA,NA,Somebody says<br><em>Kate is talking to Mike</em>,talk_active,rating_volition,"{""Q0"":5}",[0],The speaker identifies more with <br>Mike than Kate,The speaker identifies more with<br>Kate than Mike,right_to_left
null,Somebody says<br><em>Kate is shouting at Fred</em>,NA,NA,NA,html-keyboard-response,67,343766,0.0-37.0-0.0,anomymised,6564584152624795c40b73cb,65645f3f7da5b0e8cdcab5f6,67167,1A,woman,NA,null,NAME1 is shouting at NAME2,shout_active,sentence,NA,NA,NA,NA,NA
5604.699999988079,NA,NA,NA,NA,survey-likert-extra-labels,68,349372,0.0-37.0-1.0,anomymised,6564584152624795c40b73cb,65645f3f7da5b0e8cdcab5f6,67167,1A,woman,NA,NA,Somebody says<br><em>Kate is shouting at Fred</em>,shout_active,rating_volition,"{""Q0"":4}",[0],The speaker identifies more with <br>Fred than Kate,The speaker identifies more with<br>Kate than Fred,right_to_left
null,Somebody says<br><em>Mike is greeting Luke</em>,NA,NA,NA,html-keyboard-response,69,351377,0.0-38.0-0.0,anomymised,6564584152624795c40b73cb,65645f3f7da5b0e8cdcab5f6,67167,1A,woman,NA,null,NAME1 is greeting NAME2,greet_active,sentence,NA,NA,NA,NA,NA
4513.399999976158,NA,NA,NA,NA,survey-likert-extra-labels,70,355891,0.0-38.0-1.0,anomymised,6564584152624795c40b73cb,65645f3f7da5b0e8cdcab5f6,67167,1A,woman,NA,NA,Somebody says<br><em>Mike is greeting Luke</em>,greet_active,rating_volition,"{""Q0"":1}",[0],The speaker identifies more with <br>Mike than Luke,The speaker identifies more with<br>Luke than Mike,left_to_right
null,Somebody says<br><em>Jane and Ruth are flirting with each other</em>,NA,NA,NA,html-keyboard-response,71,357895,0.0-39.0-0.0,anomymised,6564584152624795c40b73cb,65645f3f7da5b0e8cdcab5f6,67167,1A,woman,NA,null,NAME1 and NAME2 are flirting with each other,flirt_conjoined,sentence,NA,NA,NA,NA,NA
11155.400000035763,NA,NA,NA,NA,survey-likert-extra-labels,72,369051,0.0-39.0-1.0,anomymised,6564584152624795c40b73cb,65645f3f7da5b0e8cdcab5f6,67167,1A,woman,NA,NA,Somebody says<br><em>Jane and Ruth are flirting with each other</em>,flirt_conjoined,rating_volition,"{""Q0"":5}",[0],The speaker identifies more with <br>Ruth than Jane,The speaker identifies more with<br>Jane than Ruth,right_to_left
null,Somebody says<br><em>Kate is seducing Luke</em>,NA,NA,NA,html-keyboard-response,73,371058,0.0-40.0-0.0,anomymised,6564584152624795c40b73cb,65645f3f7da5b0e8cdcab5f6,67167,1A,woman,NA,null,NAME1 is seducing NAME2,seduce_active,sentence,NA,NA,NA,NA,NA
3131.800000011921,NA,NA,NA,NA,survey-likert-extra-labels,74,374191,0.0-40.0-1.0,anomymised,6564584152624795c40b73cb,65645f3f7da5b0e8cdcab5f6,67167,1A,woman,NA,NA,Somebody says<br><em>Kate is seducing Luke</em>,seduce_active,rating_volition,"{""Q0"":1}",[0],The speaker identifies more with <br>Kate than Luke,The speaker identifies more with<br>Luke than Kate,left_to_right
null,Somebody says<br><em>Fred is being kissed by Mike</em>,NA,NA,NA,html-keyboard-response,75,376196,0.0-41.0-0.0,anomymised,6564584152624795c40b73cb,65645f3f7da5b0e8cdcab5f6,67167,1A,woman,NA,null,NAME1 is being kissed by NAME2,kiss_passive,sentence,NA,NA,NA,NA,NA
3745.699999988079,NA,NA,NA,NA,survey-likert-extra-labels,76,379943,0.0-41.0-1.0,anomymised,6564584152624795c40b73cb,65645f3f7da5b0e8cdcab5f6,67167,1A,woman,NA,NA,Somebody says<br><em>Fred is being kissed by Mike</em>,kiss_passive,rating_volition,"{""Q0"":1}",[0],The speaker identifies more with <br>Fred than Mike,The speaker identifies more with<br>Mike than Fred,left_to_right
null,Somebody says<br><em>Kate is marrying Fred</em>,NA,NA,NA,html-keyboard-response,77,381959,0.0-42.0-0.0,anomymised,6564584152624795c40b73cb,65645f3f7da5b0e8cdcab5f6,67167,1A,woman,NA,null,NAME1 is marrying NAME2,marry_active,sentence,NA,NA,NA,NA,NA
5843.300000011921,NA,NA,NA,NA,survey-likert-extra-labels,78,387803,0.0-42.0-1.0,anomymised,6564584152624795c40b73cb,65645f3f7da5b0e8cdcab5f6,67167,1A,woman,NA,NA,Somebody says<br><em>Kate is marrying Fred</em>,marry_active,rating_volition,"{""Q0"":2}",[0],The speaker identifies more with <br>Kate than Fred,The speaker identifies more with<br>Fred than Kate,left_to_right
null,Somebody says<br><em>Kate is shouting at Beth</em>,NA,NA,NA,html-keyboard-response,79,389816,0.0-43.0-0.0,anomymised,6564584152624795c40b73cb,65645f3f7da5b0e8cdcab5f6,67167,1A,woman,NA,null,NAME1 is shouting at NAME2,shout_active,sentence,NA,NA,NA,NA,NA
7177.600000023842,NA,NA,NA,NA,survey-likert-extra-labels,80,396995,0.0-43.0-1.0,anomymised,6564584152624795c40b73cb,65645f3f7da5b0e8cdcab5f6,67167,1A,woman,NA,NA,Somebody says<br><em>Kate is shouting at Beth</em>,shout_active,rating_volition,"{""Q0"":1}",[0],The speaker identifies more with <br>Kate than Beth,The speaker identifies more with<br>Beth than Kate,left_to_right
null,Somebody says<br><em>Fred is being greeted by Beth</em>,NA,NA,NA,html-keyboard-response,81,399003,0.0-44.0-0.0,anomymised,6564584152624795c40b73cb,65645f3f7da5b0e8cdcab5f6,67167,1A,woman,NA,null,NAME1 is being greeted by NAME2,greet_passive,sentence,NA,NA,NA,NA,NA
5283.800000011921,NA,NA,NA,NA,survey-likert-extra-labels,82,404288,0.0-44.0-1.0,anomymised,6564584152624795c40b73cb,65645f3f7da5b0e8cdcab5f6,67167,1A,woman,NA,NA,Somebody says<br><em>Fred is being greeted by Beth</em>,greet_passive,rating_volition,"{""Q0"":5}",[0],The speaker identifies more with <br>Beth than Fred,The speaker identifies more with<br>Fred than Beth,right_to_left
null,Somebody says<br><em>Kate is opposing Dave</em>,NA,NA,NA,html-keyboard-response,83,406299,0.0-45.0-0.0,anomymised,6564584152624795c40b73cb,65645f3f7da5b0e8cdcab5f6,67167,1A,woman,NA,null,NAME1 is opposing NAME2,oppose_active,sentence,NA,NA,NA,NA,NA
3371.099999964237,NA,NA,NA,NA,survey-likert-extra-labels,84,409671,0.0-45.0-1.0,anomymised,6564584152624795c40b73cb,65645f3f7da5b0e8cdcab5f6,67167,1A,woman,NA,NA,Somebody says<br><em>Kate is opposing Dave</em>,oppose_active,rating_volition,"{""Q0"":4}",[0],The speaker identifies more with <br>Dave than Kate,The speaker identifies more with<br>Kate than Dave,right_to_left
null,Somebody says<br><em>Beth is being copied by Mike</em>,NA,NA,NA,html-keyboard-response,85,411686,0.0-46.0-0.0,anomymised,6564584152624795c40b73cb,65645f3f7da5b0e8cdcab5f6,67167,1A,woman,NA,null,NAME1 is being copied by NAME2,copy_passive,sentence,NA,NA,NA,NA,NA
3739.5,NA,NA,NA,NA,survey-likert-extra-labels,86,415426,0.0-46.0-1.0,anomymised,6564584152624795c40b73cb,65645f3f7da5b0e8cdcab5f6,67167,1A,woman,NA,NA,Somebody says<br><em>Beth is being copied by Mike</em>,copy_passive,rating_volition,"{""Q0"":2}",[0],The speaker identifies more with <br>Beth than Mike,The speaker identifies more with<br>Mike than Beth,left_to_right
null,Somebody says<br><em>Luke is dancing with Beth</em>,NA,NA,NA,html-keyboard-response,87,417433,0.0-47.0-0.0,anomymised,6564584152624795c40b73cb,65645f3f7da5b0e8cdcab5f6,67167,1A,woman,NA,null,NAME1 is dancing with NAME2,dance_active,sentence,NA,NA,NA,NA,NA
5061,NA,NA,NA,NA,survey-likert-extra-labels,88,422495,0.0-47.0-1.0,anomymised,6564584152624795c40b73cb,65645f3f7da5b0e8cdcab5f6,67167,1A,woman,NA,NA,Somebody says<br><em>Luke is dancing with Beth</em>,dance_active,rating_volition,"{""Q0"":5}",[0],The speaker identifies more with <br>Beth than Luke,The speaker identifies more with<br>Luke than Beth,right_to_left
null,Somebody says<br><em>Mike is challenging Ruth</em>,NA,NA,NA,html-keyboard-response,89,424502,0.0-48.0-0.0,anomymised,6564584152624795c40b73cb,65645f3f7da5b0e8cdcab5f6,67167,1A,woman,NA,null,NAME1 is challenging NAME2,challenge_active,sentence,NA,NA,NA,NA,NA
4995.899999976158,NA,NA,NA,NA,survey-likert-extra-labels,90,429498,0.0-48.0-1.0,anomymised,6564584152624795c40b73cb,65645f3f7da5b0e8cdcab5f6,67167,1A,woman,NA,NA,Somebody says<br><em>Mike is challenging Ruth</em>,challenge_active,rating_volition,"{""Q0"":2}",[0],The speaker identifies more with <br>Mike than Ruth,The speaker identifies more with<br>Ruth than Mike,left_to_right
null,Somebody says<br><em>Jane is copying Ruth</em>,NA,NA,NA,html-keyboard-response,91,431514,0.0-49.0-0.0,anomymised,6564584152624795c40b73cb,65645f3f7da5b0e8cdcab5f6,67167,1A,woman,NA,null,NAME1 is copying NAME2,copy_active,sentence,NA,NA,NA,NA,NA
3039.7000000476837,NA,NA,NA,NA,survey-likert-extra-labels,92,434555,0.0-49.0-1.0,anomymised,6564584152624795c40b73cb,65645f3f7da5b0e8cdcab5f6,67167,1A,woman,NA,NA,Somebody says<br><em>Jane is copying Ruth</em>,copy_active,rating_volition,"{""Q0"":2}",[0],The speaker identifies more with <br>Jane than Ruth,The speaker identifies more with<br>Ruth than Jane,left_to_right
null,Somebody says<br><em>Ruth is being looked at by Dave</em>,NA,NA,NA,html-keyboard-response,93,436562,0.0-50.0-0.0,anomymised,6564584152624795c40b73cb,65645f3f7da5b0e8cdcab5f6,67167,1A,woman,NA,null,NAME1 is being looked at by NAME2,look_passive,sentence,NA,NA,NA,NA,NA
3423.400000035763,NA,NA,NA,NA,survey-likert-extra-labels,94,439986,0.0-50.0-1.0,anomymised,6564584152624795c40b73cb,65645f3f7da5b0e8cdcab5f6,67167,1A,woman,NA,NA,Somebody says<br><em>Ruth is being looked at by Dave</em>,look_passive,rating_volition,"{""Q0"":1}",[0],The speaker identifies more with <br>Ruth than Dave,The speaker identifies more with<br>Dave than Ruth,left_to_right
null,Somebody says<br><em>Luke is driving Fred,NA,NA,NA,html-keyboard-response,95,441998,0.0-51.0-0.0,anomymised,6564584152624795c40b73cb,65645f3f7da5b0e8cdcab5f6,67167,1A,woman,NA,null,M1 is driving M3,drive,sentence,NA,NA,NA,NA,NA
4999.399999976158,NA,NA,NA,NA,survey-likert-extra-labels,96,446999,0.0-51.0-1.0,anomymised,6564584152624795c40b73cb,65645f3f7da5b0e8cdcab5f6,67167,1A,woman,NA,NA,Somebody says<br><em>Luke is driving Fred,drive,rating_volition,"{""Q0"":6}",[0],Luke is Fred's passenger,Fred is Luke's passenger,NA
null,Somebody says<br><em>Kate is being challenged by Beth</em>,NA,NA,NA,html-keyboard-response,97,449001,0.0-52.0-0.0,anomymised,6564584152624795c40b73cb,65645f3f7da5b0e8cdcab5f6,67167,1A,woman,NA,null,NAME1 is being challenged by NAME2,challenge_passive,sentence,NA,NA,NA,NA,NA
3324.599999964237,NA,NA,NA,NA,survey-likert-extra-labels,98,452327,0.0-52.0-1.0,anomymised,6564584152624795c40b73cb,65645f3f7da5b0e8cdcab5f6,67167,1A,woman,NA,NA,Somebody says<br><em>Kate is being challenged by Beth</em>,challenge_passive,rating_volition,"{""Q0"":1}",[0],The speaker identifies more with <br>Kate than Beth,The speaker identifies more with<br>Beth than Kate,left_to_right
null,Somebody says<br><em>Beth is fighting with Jane</em>,NA,NA,NA,html-keyboard-response,99,454340,0.0-53.0-0.0,anomymised,6564584152624795c40b73cb,65645f3f7da5b0e8cdcab5f6,67167,1A,woman,NA,null,NAME1 is fighting with NAME2,fight_active,sentence,NA,NA,NA,NA,NA
2569.199999988079,NA,NA,NA,NA,survey-likert-extra-labels,100,456910,0.0-53.0-1.0,anomymised,6564584152624795c40b73cb,65645f3f7da5b0e8cdcab5f6,67167,1A,woman,NA,NA,Somebody says<br><em>Beth is fighting with Jane</em>,fight_active,rating_volition,"{""Q0"":1}",[0],The speaker identifies more with <br>Beth than Jane,The speaker identifies more with<br>Jane than Beth,left_to_right
null,Somebody says<br><em>Mike is posing for Dave,NA,NA,NA,html-keyboard-response,101,458913,0.0-54.0-0.0,anomymised,6564584152624795c40b73cb,65645f3f7da5b0e8cdcab5f6,67167,1A,woman,NA,null,M2 is posing for M4,pose,sentence,NA,NA,NA,NA,NA
7048.300000011921,NA,NA,NA,NA,survey-likert-extra-labels,102,465962,0.0-54.0-1.0,anomymised,6564584152624795c40b73cb,65645f3f7da5b0e8cdcab5f6,67167,1A,woman,NA,NA,Somebody says<br><em>Mike is posing for Dave,pose,rating_volition,"{""Q0"":0}",[0],Mike is modelling for Dave,Dave is modelling for Mike,NA
null,Somebody says<br><em>Jane is kissing Kate</em>,NA,NA,NA,html-keyboard-response,103,467979,0.0-55.0-0.0,anomymised,6564584152624795c40b73cb,65645f3f7da5b0e8cdcab5f6,67167,1A,woman,NA,null,NAME1 is kissing NAME2,kiss_active,sentence,NA,NA,NA,NA,NA
3366.400000035763,NA,NA,NA,NA,survey-likert-extra-labels,104,471347,0.0-55.0-1.0,anomymised,6564584152624795c40b73cb,65645f3f7da5b0e8cdcab5f6,67167,1A,woman,NA,NA,Somebody says<br><em>Jane is kissing Kate</em>,kiss_active,rating_volition,"{""Q0"":2}",[0],The speaker identifies more with <br>Jane than Kate,The speaker identifies more with<br>Kate than Jane,left_to_right
2578.300000011921,<p>Thank you for completing that task.</p><p>The final part of this session is a short questionnaire.</p><p>Press Continue.</p>,0,Continue,Continue,html-button-response,105,473926,0.0-56.0,anomymised,6564584152624795c40b73cb,65645f3f7da5b0e8cdcab5f6,67167,1A,woman,NA,NA,NA,NA,NA,NA,NA,NA,NA,NA
33964.40000003576,NA,NA,NA,NA,survey-text,106,508894,0.0-57.0,anomymised,6564584152624795c40b73cb,65645f3f7da5b0e8cdcab5f6,67167,1A,woman,NA,NA,NA,NA,demographics,"{""Q0"":""36"",""Q1"":""English"",""Q2"":""English"",""Q3"":""United Kingdom"",""Q4"":""British"",""Q5"":""White British"",""Q6"":""Female""}",NA,NA,NA,NA
4966.399999976158,<p>This is the last question - thank you for taking part! Have you lived in the UK for the last 5 years or more?</p>,0,"Yes,No",Yes,html-button-response,107,513862,0.0-58.0,anomymised,6564584152624795c40b73cb,65645f3f7da5b0e8cdcab5f6,67167,1A,woman,NA,NA,NA,NA,fiveyears,NA,NA,NA,NA,NA
