rt,stimulus,button_pressed,choices,ChosenStimulus,trial_type,trial_index,time_elapsed,internal_node_id,subject_id,study_id,session_id,subject,list,ppt_gender,url,key_press,sentence_type,verb,test_part,responses,question_order,left_part,right_part,name_order
6713.799999998882,Welcome to the experiment. Press Continue to begin.,0,Continue,Continue,html-button-response,0,6716,0.0-0.0,anomymised,6560c4cfd080ba12b16d8282,6564c8cbe92f88c7d78e4dd5,80124,1A,man,NA,NA,NA,NA,NA,NA,NA,NA,NA,NA
4557.5,NA,NA,NA,NA,external-html,1,12557,0.0-1.0,anomymised,6560c4cfd080ba12b16d8282,6564c8cbe92f88c7d78e4dd5,80124,1A,man,consent.html,NA,NA,NA,NA,NA,NA,NA,NA,NA
117979.09999999963,"<p>Welcome.</p><p>In this experiment we will ask you to imagine people's motivations for saying sentences.</p><p>Each trial will begin with a sentence that somebody might say to describe an event involving two different people.</p><p>For instance, someone might say <em>Harry is being recruited by Molly</em></p><p>We want you to think about which of those two people (Molly and Harry) the speaker identifies more with. For instance, why did the speaker say <em>Harry is being recruited by Molly</em> rather than <em> Molly is recruiting Harry</em>? Might that mean that the speaker is socially closer to one of the two characters?</p><p>After you have read the sentence, you will rate on a scale which of the two characters the speaker identifies more with.</p><p>You will give your answer by clicking a button on a rating scale.</p><p>Sometimes there will also be catch questions designed to make sure that you are paying attention, which ask about a different topic.</p><p>To do this task, you will have to use your imagination to think about and visualise the events, and how the speaker might relate to the characters.</p><br><p>Ready?</p>",0,Continue,Continue,html-button-response,2,130536,0.0-2.0,anomymised,6560c4cfd080ba12b16d8282,6564c8cbe92f88c7d78e4dd5,80124,1A,man,NA,NA,NA,NA,NA,NA,NA,NA,NA,NA
1982.800000000745,"<p>Before the experiment starts, we will show you an example of how you will answer the questions. Press 'Continue'.</p>",0,Continue,Continue,html-button-response,3,133523,0.0-3.0,anomymised,6560c4cfd080ba12b16d8282,6564c8cbe92f88c7d78e4dd5,80124,1A,man,NA,NA,NA,NA,NA,NA,NA,NA,NA,NA
null,Somebody says <br><em>Samuel is dining with Frank</em>,NA,NA,NA,html-keyboard-response,4,136536,0.0-4.0,anomymised,6560c4cfd080ba12b16d8282,6564c8cbe92f88c7d78e4dd5,80124,1A,man,NA,null,NA,NA,NA,NA,NA,NA,NA,NA
13909.89999999851,<img src='img/Example-trial.jpg' style='height:550px;''></img>,0,Continue,Continue,html-button-response,5,150446,0.0-5.0,anomymised,6560c4cfd080ba12b16d8282,6564c8cbe92f88c7d78e4dd5,80124,1A,man,NA,NA,NA,NA,NA,NA,NA,NA,NA,NA
1431.7000000011176,<p>Ready to start the experiment?</p><br><p><strong>Remember to give an answer by clicking a button on the rating scale.</strong></p><p>Press 'Continue' to begin.</p>,0,Continue,Continue,html-button-response,6,152892,0.0-6.0,anomymised,6560c4cfd080ba12b16d8282,6564c8cbe92f88c7d78e4dd5,80124,1A,man,NA,NA,NA,NA,NA,NA,NA,NA,NA,NA
null,Somebody says<br><em>Ruth and Mike are marrying each other</em>,NA,NA,NA,html-keyboard-response,7,155900,0.0-7.0-0.0,anomymised,6560c4cfd080ba12b16d8282,6564c8cbe92f88c7d78e4dd5,80124,1A,man,NA,null,NAME1 and NAME2 are marrying each other,marry_conjoined,sentence,NA,NA,NA,NA,NA
6083.60000000149,NA,NA,NA,NA,survey-likert-extra-labels,8,161985,0.0-7.0-1.0,anomymised,6560c4cfd080ba12b16d8282,6564c8cbe92f88c7d78e4dd5,80124,1A,man,NA,NA,Somebody says<br><em>Ruth and Mike are marrying each other</em>,marry_conjoined,rating_volition,"{""Q0"":3}",[0],The speaker identifies more with <br>Mike than Ruth,The speaker identifies more with<br>Ruth than Mike,right_to_left
null,Somebody says<br><em>Luke is being hugged by Ruth</em>,NA,NA,NA,html-keyboard-response,9,163999,0.0-8.0-0.0,anomymised,6560c4cfd080ba12b16d8282,6564c8cbe92f88c7d78e4dd5,80124,1A,man,NA,null,NAME1 is being hugged by NAME2,hug_passive,sentence,NA,NA,NA,NA,NA
5313.5,NA,NA,NA,NA,survey-likert-extra-labels,10,169313,0.0-8.0-1.0,anomymised,6560c4cfd080ba12b16d8282,6564c8cbe92f88c7d78e4dd5,80124,1A,man,NA,NA,Somebody says<br><em>Luke is being hugged by Ruth</em>,hug_passive,rating_volition,"{""Q0"":2}",[0],The speaker identifies more with <br>Luke than Ruth,The speaker identifies more with<br>Ruth than Luke,left_to_right
null,Somebody says<br><em>Beth and Fred are fighting with each other</em>,NA,NA,NA,html-keyboard-response,11,171315,0.0-9.0-0.0,anomymised,6560c4cfd080ba12b16d8282,6564c8cbe92f88c7d78e4dd5,80124,1A,man,NA,null,NAME1 and NAME2 are fighting with each other,fight_conjoined,sentence,NA,NA,NA,NA,NA
5332.0999999996275,NA,NA,NA,NA,survey-likert-extra-labels,12,176647,0.0-9.0-1.0,anomymised,6560c4cfd080ba12b16d8282,6564c8cbe92f88c7d78e4dd5,80124,1A,man,NA,NA,Somebody says<br><em>Beth and Fred are fighting with each other</em>,fight_conjoined,rating_volition,"{""Q0"":3}",[0],The speaker identifies more with <br>Fred than Beth,The speaker identifies more with<br>Beth than Fred,right_to_left
null,Somebody says<br><em>Kate is being shouted at by Jane</em>,NA,NA,NA,html-keyboard-response,13,178662,0.0-10.0-0.0,anomymised,6560c4cfd080ba12b16d8282,6564c8cbe92f88c7d78e4dd5,80124,1A,man,NA,null,NAME1 is being shouted at by NAME2,shout_passive,sentence,NA,NA,NA,NA,NA
5786.300000000745,NA,NA,NA,NA,survey-likert-extra-labels,14,184449,0.0-10.0-1.0,anomymised,6560c4cfd080ba12b16d8282,6564c8cbe92f88c7d78e4dd5,80124,1A,man,NA,NA,Somebody says<br><em>Kate is being shouted at by Jane</em>,shout_passive,rating_volition,"{""Q0"":5}",[0],The speaker identifies more with <br>Jane than Kate,The speaker identifies more with<br>Kate than Jane,right_to_left
null,Somebody says<br><em>Dave and Jane are arguing with each other</em>,NA,NA,NA,html-keyboard-response,15,186461,0.0-11.0-0.0,anomymised,6560c4cfd080ba12b16d8282,6564c8cbe92f88c7d78e4dd5,80124,1A,man,NA,null,NAME1 and NAME2 are arguing with each other,argue_conjoined,sentence,NA,NA,NA,NA,NA
1868.199999999255,NA,NA,NA,NA,survey-likert-extra-labels,16,188330,0.0-11.0-1.0,anomymised,6560c4cfd080ba12b16d8282,6564c8cbe92f88c7d78e4dd5,80124,1A,man,NA,NA,Somebody says<br><em>Dave and Jane are arguing with each other</em>,argue_conjoined,rating_volition,"{""Q0"":3}",[0],The speaker identifies more with <br>Dave than Jane,The speaker identifies more with<br>Jane than Dave,left_to_right
null,Somebody says<br><em>Luke is being opposed by Kate</em>,NA,NA,NA,html-keyboard-response,17,190344,0.0-12.0-0.0,anomymised,6560c4cfd080ba12b16d8282,6564c8cbe92f88c7d78e4dd5,80124,1A,man,NA,null,NAME1 is being opposed by NAME2,oppose_passive,sentence,NA,NA,NA,NA,NA
1932,NA,NA,NA,NA,survey-likert-extra-labels,18,192276,0.0-12.0-1.0,anomymised,6560c4cfd080ba12b16d8282,6564c8cbe92f88c7d78e4dd5,80124,1A,man,NA,NA,Somebody says<br><em>Luke is being opposed by Kate</em>,oppose_passive,rating_volition,"{""Q0"":1}",[0],The speaker identifies more with <br>Luke than Kate,The speaker identifies more with<br>Kate than Luke,left_to_right
null,Somebody says<br><em>Jane is copying Kate</em>,NA,NA,NA,html-keyboard-response,19,194280,0.0-13.0-0.0,anomymised,6560c4cfd080ba12b16d8282,6564c8cbe92f88c7d78e4dd5,80124,1A,man,NA,null,NAME1 is copying NAME2,copy_active,sentence,NA,NA,NA,NA,NA
2158,NA,NA,NA,NA,survey-likert-extra-labels,20,196438,0.0-13.0-1.0,anomymised,6560c4cfd080ba12b16d8282,6564c8cbe92f88c7d78e4dd5,80124,1A,man,NA,NA,Somebody says<br><em>Jane is copying Kate</em>,copy_active,rating_volition,"{""Q0"":1}",[0],The speaker identifies more with <br>Jane than Kate,The speaker identifies more with<br>Kate than Jane,left_to_right
null,Somebody says<br><em>Ruth and Luke are meeting each other</em>,NA,NA,NA,html-keyboard-response,21,198451,0.0-14.0-0.0,anomymised,6560c4cfd080ba12b16d8282,6564c8cbe92f88c7d78e4dd5,80124,1A,man,NA,null,NAME1 and NAME2 are meeting each other,meet_conjoined,sentence,NA,NA,NA,NA,NA
1745.5999999996275,NA,NA,NA,NA,survey-likert-extra-labels,22,200197,0.0-14.0-1.0,anomymised,6560c4cfd080ba12b16d8282,6564c8cbe92f88c7d78e4dd5,80124,1A,man,NA,NA,Somebody says<br><em>Ruth and Luke are meeting each other</em>,meet_conjoined,rating_volition,"{""Q0"":3}",[0],The speaker identifies more with <br>Luke than Ruth,The speaker identifies more with<br>Ruth than Luke,right_to_left
null,Somebody says<br><em>Fred is touching Beth</em>,NA,NA,NA,html-keyboard-response,23,202205,0.0-15.0-0.0,anomymised,6560c4cfd080ba12b16d8282,6564c8cbe92f88c7d78e4dd5,80124,1A,man,NA,null,NAME1 is touching NAME2,touch_active,sentence,NA,NA,NA,NA,NA
3282.0999999996275,NA,NA,NA,NA,survey-likert-extra-labels,24,205487,0.0-15.0-1.0,anomymised,6560c4cfd080ba12b16d8282,6564c8cbe92f88c7d78e4dd5,80124,1A,man,NA,NA,Somebody says<br><em>Fred is touching Beth</em>,touch_active,rating_volition,"{""Q0"":4}",[0],The speaker identifies more with <br>Beth than Fred,The speaker identifies more with<br>Fred than Beth,right_to_left
null,Somebody says<br><em>Beth is meeting Kate</em>,NA,NA,NA,html-keyboard-response,25,207495,0.0-16.0-0.0,anomymised,6560c4cfd080ba12b16d8282,6564c8cbe92f88c7d78e4dd5,80124,1A,man,NA,null,NAME1 is meeting NAME2,meet_active,sentence,NA,NA,NA,NA,NA
2866.4000000003725,NA,NA,NA,NA,survey-likert-extra-labels,26,210362,0.0-16.0-1.0,anomymised,6560c4cfd080ba12b16d8282,6564c8cbe92f88c7d78e4dd5,80124,1A,man,NA,NA,Somebody says<br><em>Beth is meeting Kate</em>,meet_active,rating_volition,"{""Q0"":2}",[0],The speaker identifies more with <br>Beth than Kate,The speaker identifies more with<br>Kate than Beth,left_to_right
null,Somebody says<br><em>Mike is talking to Luke</em>,NA,NA,NA,html-keyboard-response,27,212370,0.0-17.0-0.0,anomymised,6560c4cfd080ba12b16d8282,6564c8cbe92f88c7d78e4dd5,80124,1A,man,NA,null,NAME1 is talking to NAME2,talk_active,sentence,NA,NA,NA,NA,NA
1980,NA,NA,NA,NA,survey-likert-extra-labels,28,214350,0.0-17.0-1.0,anomymised,6560c4cfd080ba12b16d8282,6564c8cbe92f88c7d78e4dd5,80124,1A,man,NA,NA,Somebody says<br><em>Mike is talking to Luke</em>,talk_active,rating_volition,"{""Q0"":2}",[0],The speaker identifies more with <br>Mike than Luke,The speaker identifies more with<br>Luke than Mike,left_to_right
null,Somebody says<br><em>Ruth is being touched by Mike</em>,NA,NA,NA,html-keyboard-response,29,216366,0.0-18.0-0.0,anomymised,6560c4cfd080ba12b16d8282,6564c8cbe92f88c7d78e4dd5,80124,1A,man,NA,null,NAME1 is being touched by NAME2,touch_passive,sentence,NA,NA,NA,NA,NA
2061.0999999996275,NA,NA,NA,NA,survey-likert-extra-labels,30,218428,0.0-18.0-1.0,anomymised,6560c4cfd080ba12b16d8282,6564c8cbe92f88c7d78e4dd5,80124,1A,man,NA,NA,Somebody says<br><em>Ruth is being touched by Mike</em>,touch_passive,rating_volition,"{""Q0"":1}",[0],The speaker identifies more with <br>Ruth than Mike,The speaker identifies more with<br>Mike than Ruth,left_to_right
null,Somebody says<br><em>Kate is feeding Luke,NA,NA,NA,html-keyboard-response,31,220433,0.0-19.0-0.0,anomymised,6560c4cfd080ba12b16d8282,6564c8cbe92f88c7d78e4dd5,80124,1A,man,NA,null,W3 is feeding M1,feed,sentence,NA,NA,NA,NA,NA
7038,NA,NA,NA,NA,survey-likert-extra-labels,32,227472,0.0-19.0-1.0,anomymised,6560c4cfd080ba12b16d8282,6564c8cbe92f88c7d78e4dd5,80124,1A,man,NA,NA,Somebody says<br><em>Kate is feeding Luke,feed,rating_volition,"{""Q0"":3}",[0],Kate cooked for Luke,Luke cooked for Kate,NA
null,Somebody says<br><em>Fred is kissing Luke</em>,NA,NA,NA,html-keyboard-response,33,229482,0.0-20.0-0.0,anomymised,6560c4cfd080ba12b16d8282,6564c8cbe92f88c7d78e4dd5,80124,1A,man,NA,null,NAME1 is kissing NAME2,kiss_active,sentence,NA,NA,NA,NA,NA
4574,NA,NA,NA,NA,survey-likert-extra-labels,34,234056,0.0-20.0-1.0,anomymised,6560c4cfd080ba12b16d8282,6564c8cbe92f88c7d78e4dd5,80124,1A,man,NA,NA,Somebody says<br><em>Fred is kissing Luke</em>,kiss_active,rating_volition,"{""Q0"":3}",[0],The speaker identifies more with <br>Fred than Luke,The speaker identifies more with<br>Luke than Fred,left_to_right
null,Somebody says<br><em>Luke and Kate are dancing with each other</em>,NA,NA,NA,html-keyboard-response,35,236058,0.0-21.0-0.0,anomymised,6560c4cfd080ba12b16d8282,6564c8cbe92f88c7d78e4dd5,80124,1A,man,NA,null,NAME1 and NAME2 are dancing with each other,dance_conjoined,sentence,NA,NA,NA,NA,NA
3611.5999999996275,NA,NA,NA,NA,survey-likert-extra-labels,36,239670,0.0-21.0-1.0,anomymised,6560c4cfd080ba12b16d8282,6564c8cbe92f88c7d78e4dd5,80124,1A,man,NA,NA,Somebody says<br><em>Luke and Kate are dancing with each other</em>,dance_conjoined,rating_volition,"{""Q0"":3}",[0],The speaker identifies more with <br>Luke than Kate,The speaker identifies more with<br>Kate than Luke,left_to_right
null,Somebody says<br><em>Fred is being seduced by Kate</em>,NA,NA,NA,html-keyboard-response,37,241680,0.0-22.0-0.0,anomymised,6560c4cfd080ba12b16d8282,6564c8cbe92f88c7d78e4dd5,80124,1A,man,NA,null,NAME1 is being seduced by NAME2,seduce_passive,sentence,NA,NA,NA,NA,NA
4405.5,NA,NA,NA,NA,survey-likert-extra-labels,38,246086,0.0-22.0-1.0,anomymised,6560c4cfd080ba12b16d8282,6564c8cbe92f88c7d78e4dd5,80124,1A,man,NA,NA,Somebody says<br><em>Fred is being seduced by Kate</em>,seduce_passive,rating_volition,"{""Q0"":1}",[0],The speaker identifies more with <br>Fred than Kate,The speaker identifies more with<br>Kate than Fred,left_to_right
null,Somebody says<br><em>Beth is hugging Jane</em>,NA,NA,NA,html-keyboard-response,39,248090,0.0-23.0-0.0,anomymised,6560c4cfd080ba12b16d8282,6564c8cbe92f88c7d78e4dd5,80124,1A,man,NA,null,NAME1 is hugging NAME2,hug_active,sentence,NA,NA,NA,NA,NA
1772.800000000745,NA,NA,NA,NA,survey-likert-extra-labels,40,249864,0.0-23.0-1.0,anomymised,6560c4cfd080ba12b16d8282,6564c8cbe92f88c7d78e4dd5,80124,1A,man,NA,NA,Somebody says<br><em>Beth is hugging Jane</em>,hug_active,rating_volition,"{""Q0"":2}",[0],The speaker identifies more with <br>Beth than Jane,The speaker identifies more with<br>Jane than Beth,left_to_right
null,Somebody says<br><em>Jane is teaching Dave,NA,NA,NA,html-keyboard-response,41,251868,0.0-24.0-0.0,anomymised,6560c4cfd080ba12b16d8282,6564c8cbe92f88c7d78e4dd5,80124,1A,man,NA,null,W2 is teaching M4,teach,sentence,NA,NA,NA,NA,NA
8243.5,NA,NA,NA,NA,survey-likert-extra-labels,42,260112,0.0-24.0-1.0,anomymised,6560c4cfd080ba12b16d8282,6564c8cbe92f88c7d78e4dd5,80124,1A,man,NA,NA,Somebody says<br><em>Jane is teaching Dave,teach,rating_volition,"{""Q0"":0}",[0],Jane is educating Dave,Dave is educating Jane,NA
null,Somebody says<br><em>Mike is being challenged by Fred</em>,NA,NA,NA,html-keyboard-response,43,262126,0.0-25.0-0.0,anomymised,6560c4cfd080ba12b16d8282,6564c8cbe92f88c7d78e4dd5,80124,1A,man,NA,null,NAME1 is being challenged by NAME2,challenge_passive,sentence,NA,NA,NA,NA,NA
6158,NA,NA,NA,NA,survey-likert-extra-labels,44,268284,0.0-25.0-1.0,anomymised,6560c4cfd080ba12b16d8282,6564c8cbe92f88c7d78e4dd5,80124,1A,man,NA,NA,Somebody says<br><em>Mike is being challenged by Fred</em>,challenge_passive,rating_volition,"{""Q0"":5}",[0],The speaker identifies more with <br>Fred than Mike,The speaker identifies more with<br>Mike than Fred,right_to_left
null,Somebody says<br><em>Jane and Beth are playing with each other</em>,NA,NA,NA,html-keyboard-response,45,270298,0.0-26.0-0.0,anomymised,6560c4cfd080ba12b16d8282,6564c8cbe92f88c7d78e4dd5,80124,1A,man,NA,null,NAME1 and NAME2 are playing with each other,play_conjoined,sentence,NA,NA,NA,NA,NA
3839.5,NA,NA,NA,NA,survey-likert-extra-labels,46,274138,0.0-26.0-1.0,anomymised,6560c4cfd080ba12b16d8282,6564c8cbe92f88c7d78e4dd5,80124,1A,man,NA,NA,Somebody says<br><em>Jane and Beth are playing with each other</em>,play_conjoined,rating_volition,"{""Q0"":3}",[0],The speaker identifies more with <br>Beth than Jane,The speaker identifies more with<br>Jane than Beth,right_to_left
null,Somebody says<br><em>Luke is driving Fred,NA,NA,NA,html-keyboard-response,47,276145,0.0-27.0-0.0,anomymised,6560c4cfd080ba12b16d8282,6564c8cbe92f88c7d78e4dd5,80124,1A,man,NA,null,M1 is driving M3,drive,sentence,NA,NA,NA,NA,NA
6118.300000000745,NA,NA,NA,NA,survey-likert-extra-labels,48,282264,0.0-27.0-1.0,anomymised,6560c4cfd080ba12b16d8282,6564c8cbe92f88c7d78e4dd5,80124,1A,man,NA,NA,Somebody says<br><em>Luke is driving Fred,drive,rating_volition,"{""Q0"":6}",[0],Luke is Fred's passenger,Fred is Luke's passenger,NA
null,Somebody says<br><em>Ruth is being copied by Fred</em>,NA,NA,NA,html-keyboard-response,49,284271,0.0-28.0-0.0,anomymised,6560c4cfd080ba12b16d8282,6564c8cbe92f88c7d78e4dd5,80124,1A,man,NA,null,NAME1 is being copied by NAME2,copy_passive,sentence,NA,NA,NA,NA,NA
4247.5999999996275,NA,NA,NA,NA,survey-likert-extra-labels,50,288519,0.0-28.0-1.0,anomymised,6560c4cfd080ba12b16d8282,6564c8cbe92f88c7d78e4dd5,80124,1A,man,NA,NA,Somebody says<br><em>Ruth is being copied by Fred</em>,copy_passive,rating_volition,"{""Q0"":2}",[0],The speaker identifies more with <br>Ruth than Fred,The speaker identifies more with<br>Fred than Ruth,left_to_right
null,Somebody says<br><em>Fred is hiring Ruth,NA,NA,NA,html-keyboard-response,51,290519,0.0-29.0-0.0,anomymised,6560c4cfd080ba12b16d8282,6564c8cbe92f88c7d78e4dd5,80124,1A,man,NA,null,M3 is hiring W1,hire,sentence,NA,NA,NA,NA,NA
6166.5999999996275,NA,NA,NA,NA,survey-likert-extra-labels,52,296686,0.0-29.0-1.0,anomymised,6560c4cfd080ba12b16d8282,6564c8cbe92f88c7d78e4dd5,80124,1A,man,NA,NA,Somebody says<br><em>Fred is hiring Ruth,hire,rating_volition,"{""Q0"":0}",[0],Fred is employing Ruth,Ruth is employing Fred,NA
null,Somebody says<br><em>Fred is greeting Ruth</em>,NA,NA,NA,html-keyboard-response,53,298701,0.0-30.0-0.0,anomymised,6560c4cfd080ba12b16d8282,6564c8cbe92f88c7d78e4dd5,80124,1A,man,NA,null,NAME1 is greeting NAME2,greet_active,sentence,NA,NA,NA,NA,NA
2146.60000000149,NA,NA,NA,NA,survey-likert-extra-labels,54,300848,0.0-30.0-1.0,anomymised,6560c4cfd080ba12b16d8282,6564c8cbe92f88c7d78e4dd5,80124,1A,man,NA,NA,Somebody says<br><em>Fred is greeting Ruth</em>,greet_active,rating_volition,"{""Q0"":2}",[0],The speaker identifies more with <br>Fred than Ruth,The speaker identifies more with<br>Ruth than Fred,left_to_right
null,Somebody says<br><em>Luke is arguing with Fred</em>,NA,NA,NA,html-keyboard-response,55,302856,0.0-31.0-0.0,anomymised,6560c4cfd080ba12b16d8282,6564c8cbe92f88c7d78e4dd5,80124,1A,man,NA,null,NAME1 is arguing with NAME2,argue_active,sentence,NA,NA,NA,NA,NA
7670.5,NA,NA,NA,NA,survey-likert-extra-labels,56,310527,0.0-31.0-1.0,anomymised,6560c4cfd080ba12b16d8282,6564c8cbe92f88c7d78e4dd5,80124,1A,man,NA,NA,Somebody says<br><em>Luke is arguing with Fred</em>,argue_active,rating_volition,"{""Q0"":3}",[0],The speaker identifies more with <br>Luke than Fred,The speaker identifies more with<br>Fred than Luke,left_to_right
null,Somebody says<br><em>Beth and Ruth are shouting at each other</em>,NA,NA,NA,html-keyboard-response,57,312534,0.0-32.0-0.0,anomymised,6560c4cfd080ba12b16d8282,6564c8cbe92f88c7d78e4dd5,80124,1A,man,NA,null,NAME1 and NAME2 are shouting at each other,shout_conjoined,sentence,NA,NA,NA,NA,NA
10471.900000000373,NA,NA,NA,NA,survey-likert-extra-labels,58,323006,0.0-32.0-1.0,anomymised,6560c4cfd080ba12b16d8282,6564c8cbe92f88c7d78e4dd5,80124,1A,man,NA,NA,Somebody says<br><em>Beth and Ruth are shouting at each other</em>,shout_conjoined,rating_volition,"{""Q0"":3}",[0],The speaker identifies more with <br>Beth than Ruth,The speaker identifies more with<br>Ruth than Beth,left_to_right
null,Somebody says<br><em>Fred is opposing Beth</em>,NA,NA,NA,html-keyboard-response,59,325021,0.0-33.0-0.0,anomymised,6560c4cfd080ba12b16d8282,6564c8cbe92f88c7d78e4dd5,80124,1A,man,NA,null,NAME1 is opposing NAME2,oppose_active,sentence,NA,NA,NA,NA,NA
20851.300000000745,NA,NA,NA,NA,survey-likert-extra-labels,60,345873,0.0-33.0-1.0,anomymised,6560c4cfd080ba12b16d8282,6564c8cbe92f88c7d78e4dd5,80124,1A,man,NA,NA,Somebody says<br><em>Fred is opposing Beth</em>,oppose_active,rating_volition,"{""Q0"":3}",[0],The speaker identifies more with <br>Fred than Beth,The speaker identifies more with<br>Beth than Fred,left_to_right
null,Somebody says<br><em>Mike and Fred are hugging each other</em>,NA,NA,NA,html-keyboard-response,61,347877,0.0-34.0-0.0,anomymised,6560c4cfd080ba12b16d8282,6564c8cbe92f88c7d78e4dd5,80124,1A,man,NA,null,NAME1 and NAME2 are hugging each other,hug_conjoined,sentence,NA,NA,NA,NA,NA
2492.0999999996275,NA,NA,NA,NA,survey-likert-extra-labels,62,350370,0.0-34.0-1.0,anomymised,6560c4cfd080ba12b16d8282,6564c8cbe92f88c7d78e4dd5,80124,1A,man,NA,NA,Somebody says<br><em>Mike and Fred are hugging each other</em>,hug_conjoined,rating_volition,"{""Q0"":3}",[0],The speaker identifies more with <br>Mike than Fred,The speaker identifies more with<br>Fred than Mike,left_to_right
null,Somebody says<br><em>Ruth is chasing Kate,NA,NA,NA,html-keyboard-response,63,352382,0.0-35.0-0.0,anomymised,6560c4cfd080ba12b16d8282,6564c8cbe92f88c7d78e4dd5,80124,1A,man,NA,null,W1 is chasing W3,chase,sentence,NA,NA,NA,NA,NA
3816.800000000745,NA,NA,NA,NA,survey-likert-extra-labels,64,356199,0.0-35.0-1.0,anomymised,6560c4cfd080ba12b16d8282,6564c8cbe92f88c7d78e4dd5,80124,1A,man,NA,NA,Somebody says<br><em>Ruth is chasing Kate,chase,rating_volition,"{""Q0"":0}",[0],Ruth is behind Kate,Kate is behind Ruth,NA
null,Somebody says<br><em>Fred is shouting at Luke</em>,NA,NA,NA,html-keyboard-response,65,358207,0.0-36.0-0.0,anomymised,6560c4cfd080ba12b16d8282,6564c8cbe92f88c7d78e4dd5,80124,1A,man,NA,null,NAME1 is shouting at NAME2,shout_active,sentence,NA,NA,NA,NA,NA
3076.800000000745,NA,NA,NA,NA,survey-likert-extra-labels,66,361284,0.0-36.0-1.0,anomymised,6560c4cfd080ba12b16d8282,6564c8cbe92f88c7d78e4dd5,80124,1A,man,NA,NA,Somebody says<br><em>Fred is shouting at Luke</em>,shout_active,rating_volition,"{""Q0"":5}",[0],The speaker identifies more with <br>Luke than Fred,The speaker identifies more with<br>Fred than Luke,right_to_left
null,Somebody says<br><em>Fred and Luke are flirting with each other</em>,NA,NA,NA,html-keyboard-response,67,363296,0.0-37.0-0.0,anomymised,6560c4cfd080ba12b16d8282,6564c8cbe92f88c7d78e4dd5,80124,1A,man,NA,null,NAME1 and NAME2 are flirting with each other,flirt_conjoined,sentence,NA,NA,NA,NA,NA
1237.7999999988824,NA,NA,NA,NA,survey-likert-extra-labels,68,364534,0.0-37.0-1.0,anomymised,6560c4cfd080ba12b16d8282,6564c8cbe92f88c7d78e4dd5,80124,1A,man,NA,NA,Somebody says<br><em>Fred and Luke are flirting with each other</em>,flirt_conjoined,rating_volition,"{""Q0"":3}",[0],The speaker identifies more with <br>Fred than Luke,The speaker identifies more with<br>Luke than Fred,left_to_right
null,Somebody says<br><em>Jane is being kissed by Dave</em>,NA,NA,NA,html-keyboard-response,69,366536,0.0-38.0-0.0,anomymised,6560c4cfd080ba12b16d8282,6564c8cbe92f88c7d78e4dd5,80124,1A,man,NA,null,NAME1 is being kissed by NAME2,kiss_passive,sentence,NA,NA,NA,NA,NA
4239.699999999255,NA,NA,NA,NA,survey-likert-extra-labels,70,370776,0.0-38.0-1.0,anomymised,6560c4cfd080ba12b16d8282,6564c8cbe92f88c7d78e4dd5,80124,1A,man,NA,NA,Somebody says<br><em>Jane is being kissed by Dave</em>,kiss_passive,rating_volition,"{""Q0"":5}",[0],The speaker identifies more with <br>Dave than Jane,The speaker identifies more with<br>Jane than Dave,right_to_left
null,Somebody says<br><em>Dave and Luke are talking with each other</em>,NA,NA,NA,html-keyboard-response,71,372786,0.0-39.0-0.0,anomymised,6560c4cfd080ba12b16d8282,6564c8cbe92f88c7d78e4dd5,80124,1A,man,NA,null,NAME1 and NAME2 are talking with each other,talk_conjoined,sentence,NA,NA,NA,NA,NA
8675.900000000373,NA,NA,NA,NA,survey-likert-extra-labels,72,381462,0.0-39.0-1.0,anomymised,6560c4cfd080ba12b16d8282,6564c8cbe92f88c7d78e4dd5,80124,1A,man,NA,NA,Somebody says<br><em>Dave and Luke are talking with each other</em>,talk_conjoined,rating_volition,"{""Q0"":3}",[0],The speaker identifies more with <br>Luke than Dave,The speaker identifies more with<br>Dave than Luke,right_to_left
null,Somebody says<br><em>Jane is being greeted by Mike</em>,NA,NA,NA,html-keyboard-response,73,383478,0.0-40.0-0.0,anomymised,6560c4cfd080ba12b16d8282,6564c8cbe92f88c7d78e4dd5,80124,1A,man,NA,null,NAME1 is being greeted by NAME2,greet_passive,sentence,NA,NA,NA,NA,NA
2450.5,NA,NA,NA,NA,survey-likert-extra-labels,74,385929,0.0-40.0-1.0,anomymised,6560c4cfd080ba12b16d8282,6564c8cbe92f88c7d78e4dd5,80124,1A,man,NA,NA,Somebody says<br><em>Jane is being greeted by Mike</em>,greet_passive,rating_volition,"{""Q0"":5}",[0],The speaker identifies more with <br>Mike than Jane,The speaker identifies more with<br>Jane than Mike,right_to_left
null,Somebody says<br><em>Luke is challenging Ruth</em>,NA,NA,NA,html-keyboard-response,75,387935,0.0-41.0-0.0,anomymised,6560c4cfd080ba12b16d8282,6564c8cbe92f88c7d78e4dd5,80124,1A,man,NA,null,NAME1 is challenging NAME2,challenge_active,sentence,NA,NA,NA,NA,NA
6064.800000000745,NA,NA,NA,NA,survey-likert-extra-labels,76,394000,0.0-41.0-1.0,anomymised,6560c4cfd080ba12b16d8282,6564c8cbe92f88c7d78e4dd5,80124,1A,man,NA,NA,Somebody says<br><em>Luke is challenging Ruth</em>,challenge_active,rating_volition,"{""Q0"":1}",[0],The speaker identifies more with <br>Luke than Ruth,The speaker identifies more with<br>Ruth than Luke,left_to_right
null,Somebody says<br><em>Fred is shouting at Mike</em>,NA,NA,NA,html-keyboard-response,77,396001,0.0-42.0-0.0,anomymised,6560c4cfd080ba12b16d8282,6564c8cbe92f88c7d78e4dd5,80124,1A,man,NA,null,NAME1 is shouting at NAME2,shout_active,sentence,NA,NA,NA,NA,NA
1968.4000000003725,NA,NA,NA,NA,survey-likert-extra-labels,78,397970,0.0-42.0-1.0,anomymised,6560c4cfd080ba12b16d8282,6564c8cbe92f88c7d78e4dd5,80124,1A,man,NA,NA,Somebody says<br><em>Fred is shouting at Mike</em>,shout_active,rating_volition,"{""Q0"":1}",[0],The speaker identifies more with <br>Fred than Mike,The speaker identifies more with<br>Mike than Fred,left_to_right
null,Somebody says<br><em>Mike is reminding Beth,NA,NA,NA,html-keyboard-response,79,399973,0.0-43.0-0.0,anomymised,6560c4cfd080ba12b16d8282,6564c8cbe92f88c7d78e4dd5,80124,1A,man,NA,null,M2 is reminding W4,remind,sentence,NA,NA,NA,NA,NA
6187.300000000745,NA,NA,NA,NA,survey-likert-extra-labels,80,406161,0.0-43.0-1.0,anomymised,6560c4cfd080ba12b16d8282,6564c8cbe92f88c7d78e4dd5,80124,1A,man,NA,NA,Somebody says<br><em>Mike is reminding Beth,remind,rating_volition,"{""Q0"":0}",[0],Mike is telling Beth again,Beth is telling Mike again,NA
null,Somebody says<br><em>Beth is flirting with Dave</em>,NA,NA,NA,html-keyboard-response,81,408167,0.0-44.0-0.0,anomymised,6560c4cfd080ba12b16d8282,6564c8cbe92f88c7d78e4dd5,80124,1A,man,NA,null,NAME1 is flirting with NAME2,flirt_active,sentence,NA,NA,NA,NA,NA
2072.0999999996275,NA,NA,NA,NA,survey-likert-extra-labels,82,410239,0.0-44.0-1.0,anomymised,6560c4cfd080ba12b16d8282,6564c8cbe92f88c7d78e4dd5,80124,1A,man,NA,NA,Somebody says<br><em>Beth is flirting with Dave</em>,flirt_active,rating_volition,"{""Q0"":5}",[0],The speaker identifies more with <br>Dave than Beth,The speaker identifies more with<br>Beth than Dave,right_to_left
null,Somebody says<br><em>Fred and Luke are touching each other</em>,NA,NA,NA,html-keyboard-response,83,412244,0.0-45.0-0.0,anomymised,6560c4cfd080ba12b16d8282,6564c8cbe92f88c7d78e4dd5,80124,1A,man,NA,null,NAME1 and NAME2 are touching each other,touch_conjoined,sentence,NA,NA,NA,NA,NA
1336,NA,NA,NA,NA,survey-likert-extra-labels,84,413580,0.0-45.0-1.0,anomymised,6560c4cfd080ba12b16d8282,6564c8cbe92f88c7d78e4dd5,80124,1A,man,NA,NA,Somebody says<br><em>Fred and Luke are touching each other</em>,touch_conjoined,rating_volition,"{""Q0"":3}",[0],The speaker identifies more with <br>Fred than Luke,The speaker identifies more with<br>Luke than Fred,left_to_right
null,Somebody says<br><em>Mike is marrying Beth</em>,NA,NA,NA,html-keyboard-response,85,415594,0.0-46.0-0.0,anomymised,6560c4cfd080ba12b16d8282,6564c8cbe92f88c7d78e4dd5,80124,1A,man,NA,null,NAME1 is marrying NAME2,marry_active,sentence,NA,NA,NA,NA,NA
2248.7000000011176,NA,NA,NA,NA,survey-likert-extra-labels,86,417843,0.0-46.0-1.0,anomymised,6560c4cfd080ba12b16d8282,6564c8cbe92f88c7d78e4dd5,80124,1A,man,NA,NA,Somebody says<br><em>Mike is marrying Beth</em>,marry_active,rating_volition,"{""Q0"":5}",[0],The speaker identifies more with <br>Beth than Mike,The speaker identifies more with<br>Mike than Beth,right_to_left
null,Somebody says<br><em>Jane and Kate are kissing each other</em>,NA,NA,NA,html-keyboard-response,87,419844,0.0-47.0-0.0,anomymised,6560c4cfd080ba12b16d8282,6564c8cbe92f88c7d78e4dd5,80124,1A,man,NA,null,NAME1 and NAME2 are kissing each other,kiss_conjoined,sentence,NA,NA,NA,NA,NA
1194.699999999255,NA,NA,NA,NA,survey-likert-extra-labels,88,421039,0.0-47.0-1.0,anomymised,6560c4cfd080ba12b16d8282,6564c8cbe92f88c7d78e4dd5,80124,1A,man,NA,NA,Somebody says<br><em>Jane and Kate are kissing each other</em>,kiss_conjoined,rating_volition,"{""Q0"":3}",[0],The speaker identifies more with <br>Jane than Kate,The speaker identifies more with<br>Kate than Jane,left_to_right
null,Somebody says<br><em>Dave is looking at Kate</em>,NA,NA,NA,html-keyboard-response,89,423047,0.0-48.0-0.0,anomymised,6560c4cfd080ba12b16d8282,6564c8cbe92f88c7d78e4dd5,80124,1A,man,NA,null,NAME1 is looking at NAME2,look_active,sentence,NA,NA,NA,NA,NA
1709.9000000003725,NA,NA,NA,NA,survey-likert-extra-labels,90,424757,0.0-48.0-1.0,anomymised,6560c4cfd080ba12b16d8282,6564c8cbe92f88c7d78e4dd5,80124,1A,man,NA,NA,Somebody says<br><em>Dave is looking at Kate</em>,look_active,rating_volition,"{""Q0"":1}",[0],The speaker identifies more with <br>Dave than Kate,The speaker identifies more with<br>Kate than Dave,left_to_right
null,Somebody says<br><em>Luke is fighting with Kate</em>,NA,NA,NA,html-keyboard-response,91,426758,0.0-49.0-0.0,anomymised,6560c4cfd080ba12b16d8282,6564c8cbe92f88c7d78e4dd5,80124,1A,man,NA,null,NAME1 is fighting with NAME2,fight_active,sentence,NA,NA,NA,NA,NA
1818.5999999996275,NA,NA,NA,NA,survey-likert-extra-labels,92,428577,0.0-49.0-1.0,anomymised,6560c4cfd080ba12b16d8282,6564c8cbe92f88c7d78e4dd5,80124,1A,man,NA,NA,Somebody says<br><em>Luke is fighting with Kate</em>,fight_active,rating_volition,"{""Q0"":6}",[0],The speaker identifies more with <br>Kate than Luke,The speaker identifies more with<br>Luke than Kate,right_to_left
null,Somebody says<br><em>Mike is posing for Dave,NA,NA,NA,html-keyboard-response,93,430584,0.0-50.0-0.0,anomymised,6560c4cfd080ba12b16d8282,6564c8cbe92f88c7d78e4dd5,80124,1A,man,NA,null,M2 is posing for M4,pose,sentence,NA,NA,NA,NA,NA
3144.2000000011176,NA,NA,NA,NA,survey-likert-extra-labels,94,433729,0.0-50.0-1.0,anomymised,6560c4cfd080ba12b16d8282,6564c8cbe92f88c7d78e4dd5,80124,1A,man,NA,NA,Somebody says<br><em>Mike is posing for Dave,pose,rating_volition,"{""Q0"":0}",[0],Mike is modelling for Dave,Dave is modelling for Mike,NA
null,Somebody says<br><em>Beth is dancing with Jane</em>,NA,NA,NA,html-keyboard-response,95,435731,0.0-51.0-0.0,anomymised,6560c4cfd080ba12b16d8282,6564c8cbe92f88c7d78e4dd5,80124,1A,man,NA,null,NAME1 is dancing with NAME2,dance_active,sentence,NA,NA,NA,NA,NA
1529.5,NA,NA,NA,NA,survey-likert-extra-labels,96,437261,0.0-51.0-1.0,anomymised,6560c4cfd080ba12b16d8282,6564c8cbe92f88c7d78e4dd5,80124,1A,man,NA,NA,Somebody says<br><em>Beth is dancing with Jane</em>,dance_active,rating_volition,"{""Q0"":1}",[0],The speaker identifies more with <br>Beth than Jane,The speaker identifies more with<br>Jane than Beth,left_to_right
null,Somebody says<br><em>Jane is carrying Beth,NA,NA,NA,html-keyboard-response,97,439264,0.0-52.0-0.0,anomymised,6560c4cfd080ba12b16d8282,6564c8cbe92f88c7d78e4dd5,80124,1A,man,NA,null,W2 is carrying W4,carry,sentence,NA,NA,NA,NA,NA
2775.7999999988824,NA,NA,NA,NA,survey-likert-extra-labels,98,442041,0.0-52.0-1.0,anomymised,6560c4cfd080ba12b16d8282,6564c8cbe92f88c7d78e4dd5,80124,1A,man,NA,NA,Somebody says<br><em>Jane is carrying Beth,carry,rating_volition,"{""Q0"":0}",[0],Jane is transporting Beth,Beth is transporting Jane,NA
null,Somebody says<br><em>Fred is being looked at by Mike</em>,NA,NA,NA,html-keyboard-response,99,444047,0.0-53.0-0.0,anomymised,6560c4cfd080ba12b16d8282,6564c8cbe92f88c7d78e4dd5,80124,1A,man,NA,null,NAME1 is being looked at by NAME2,look_passive,sentence,NA,NA,NA,NA,NA
3036.39999999851,NA,NA,NA,NA,survey-likert-extra-labels,100,447084,0.0-53.0-1.0,anomymised,6560c4cfd080ba12b16d8282,6564c8cbe92f88c7d78e4dd5,80124,1A,man,NA,NA,Somebody says<br><em>Fred is being looked at by Mike</em>,look_passive,rating_volition,"{""Q0"":5}",[0],The speaker identifies more with <br>Mike than Fred,The speaker identifies more with<br>Fred than Mike,right_to_left
null,Somebody says<br><em>Fred is seducing Dave</em>,NA,NA,NA,html-keyboard-response,101,449095,0.0-54.0-0.0,anomymised,6560c4cfd080ba12b16d8282,6564c8cbe92f88c7d78e4dd5,80124,1A,man,NA,null,NAME1 is seducing NAME2,seduce_active,sentence,NA,NA,NA,NA,NA
1730.4000000003725,NA,NA,NA,NA,survey-likert-extra-labels,102,450826,0.0-54.0-1.0,anomymised,6560c4cfd080ba12b16d8282,6564c8cbe92f88c7d78e4dd5,80124,1A,man,NA,NA,Somebody says<br><em>Fred is seducing Dave</em>,seduce_active,rating_volition,"{""Q0"":6}",[0],The speaker identifies more with <br>Dave than Fred,The speaker identifies more with<br>Fred than Dave,right_to_left
null,Somebody says<br><em>Mike is playing with Jane</em>,NA,NA,NA,html-keyboard-response,103,452834,0.0-55.0-0.0,anomymised,6560c4cfd080ba12b16d8282,6564c8cbe92f88c7d78e4dd5,80124,1A,man,NA,null,NAME1 is playing with NAME2,play_active,sentence,NA,NA,NA,NA,NA
11029.400000000373,NA,NA,NA,NA,survey-likert-extra-labels,104,463864,0.0-55.0-1.0,anomymised,6560c4cfd080ba12b16d8282,6564c8cbe92f88c7d78e4dd5,80124,1A,man,NA,NA,Somebody says<br><em>Mike is playing with Jane</em>,play_active,rating_volition,"{""Q0"":6}",[0],The speaker identifies more with <br>Jane than Mike,The speaker identifies more with<br>Mike than Jane,right_to_left
1372.800000000745,<p>Thank you for completing that task.</p><p>The final part of this session is a short questionnaire.</p><p>Press Continue.</p>,0,Continue,Continue,html-button-response,105,465238,0.0-56.0,anomymised,6560c4cfd080ba12b16d8282,6564c8cbe92f88c7d78e4dd5,80124,1A,man,NA,NA,NA,NA,NA,NA,NA,NA,NA,NA
14463.400000000373,NA,NA,NA,NA,survey-text,106,480716,0.0-57.0,anomymised,6560c4cfd080ba12b16d8282,6564c8cbe92f88c7d78e4dd5,80124,1A,man,NA,NA,NA,NA,demographics,"{""Q0"":""29"",""Q1"":""English"",""Q2"":""English"",""Q3"":""United Kingdom"",""Q4"":""British"",""Q5"":""White"",""Q6"":""Male""}",NA,NA,NA,NA
2721.9000000003725,<p>This is the last question - thank you for taking part! Have you lived in the UK for the last 5 years or more?</p>,0,"Yes,No",Yes,html-button-response,107,483438,0.0-58.0,anomymised,6560c4cfd080ba12b16d8282,6564c8cbe92f88c7d78e4dd5,80124,1A,man,NA,NA,NA,NA,fiveyears,NA,NA,NA,NA,NA
