rt,stimulus,button_pressed,choices,ChosenStimulus,trial_type,trial_index,time_elapsed,internal_node_id,subject_id,study_id,session_id,subject,list,ppt_gender,url,key_press,sentence_type,verb,test_part,responses,question_order,left_part,right_part,name_order
4241,Welcome to the experiment. Press Continue to begin.,0,Continue,Continue,html-button-response,0,4244,0.0-0.0,anomymised,6564584152624795c40b73cb,65645eb23a2ef3521cdfec04,80565,1A,woman,NA,NA,NA,NA,NA,NA,NA,NA,NA,NA
30743.000000000007,NA,NA,NA,NA,external-html,1,36026,0.0-1.0,anomymised,6564584152624795c40b73cb,65645eb23a2ef3521cdfec04,80565,1A,woman,consent.html,NA,NA,NA,NA,NA,NA,NA,NA,NA
2499,"<p>Welcome.</p><p>In this experiment we will ask you to imagine people's motivations for saying sentences.</p><p>Each trial will begin with a sentence that somebody might say to describe an event involving two different people.</p><p>For instance, someone might say <em>Harry is being recruited by Molly</em></p><p>We want you to think about which of those two people (Molly and Harry) the speaker identifies more with. For instance, why did the speaker say <em>Harry is being recruited by Molly</em> rather than <em> Molly is recruiting Harry</em>? Might that mean that the speaker is socially closer to one of the two characters?</p><p>After you have read the sentence, you will rate on a scale which of the two characters the speaker identifies more with.</p><p>You will give your answer by clicking a button on a rating scale.</p><p>Sometimes there will also be catch questions designed to make sure that you are paying attention, which ask about a different topic.</p><p>To do this task, you will have to use your imagination to think about and visualise the events, and how the speaker might relate to the characters.</p><br><p>Ready?</p>",0,Continue,Continue,html-button-response,2,38526,0.0-2.0,anomymised,6564584152624795c40b73cb,65645eb23a2ef3521cdfec04,80565,1A,woman,NA,NA,NA,NA,NA,NA,NA,NA,NA,NA
3564,"<p>Before the experiment starts, we will show you an example of how you will answer the questions. Press 'Continue'.</p>",0,Continue,Continue,html-button-response,3,43092,0.0-3.0,anomymised,6564584152624795c40b73cb,65645eb23a2ef3521cdfec04,80565,1A,woman,NA,NA,NA,NA,NA,NA,NA,NA,NA,NA
null,Somebody says <br><em>Samuel is dining with Frank</em>,NA,NA,NA,html-keyboard-response,4,46097,0.0-4.0,anomymised,6564584152624795c40b73cb,65645eb23a2ef3521cdfec04,80565,1A,woman,NA,null,NA,NA,NA,NA,NA,NA,NA,NA
14591,<img src='img/Example-trial.jpg' style='height:550px;''></img>,0,Continue,Continue,html-button-response,5,60691,0.0-5.0,anomymised,6564584152624795c40b73cb,65645eb23a2ef3521cdfec04,80565,1A,woman,NA,NA,NA,NA,NA,NA,NA,NA,NA,NA
1932,<p>Ready to start the experiment?</p><br><p><strong>Remember to give an answer by clicking a button on the rating scale.</strong></p><p>Press 'Continue' to begin.</p>,0,Continue,Continue,html-button-response,6,63626,0.0-6.0,anomymised,6564584152624795c40b73cb,65645eb23a2ef3521cdfec04,80565,1A,woman,NA,NA,NA,NA,NA,NA,NA,NA,NA,NA
null,Somebody says<br><em>Jane and Beth are touching each other</em>,NA,NA,NA,html-keyboard-response,7,66630,0.0-7.0-0.0,anomymised,6564584152624795c40b73cb,65645eb23a2ef3521cdfec04,80565,1A,woman,NA,null,NAME1 and NAME2 are touching each other,touch_conjoined,sentence,NA,NA,NA,NA,NA
5192,NA,NA,NA,NA,survey-likert-extra-labels,8,71827,0.0-7.0-1.0,anomymised,6564584152624795c40b73cb,65645eb23a2ef3521cdfec04,80565,1A,woman,NA,NA,Somebody says<br><em>Jane and Beth are touching each other</em>,touch_conjoined,rating_volition,"{""Q0"":3}",[0],The speaker identifies more with <br>Beth than Jane,The speaker identifies more with<br>Jane than Beth,right_to_left
null,Somebody says<br><em>Beth is looking at Jane</em>,NA,NA,NA,html-keyboard-response,9,73829,0.0-8.0-0.0,anomymised,6564584152624795c40b73cb,65645eb23a2ef3521cdfec04,80565,1A,woman,NA,null,NAME1 is looking at NAME2,look_active,sentence,NA,NA,NA,NA,NA
5342,NA,NA,NA,NA,survey-likert-extra-labels,10,79176,0.0-8.0-1.0,anomymised,6564584152624795c40b73cb,65645eb23a2ef3521cdfec04,80565,1A,woman,NA,NA,Somebody says<br><em>Beth is looking at Jane</em>,look_active,rating_volition,"{""Q0"":1}",[0],The speaker identifies more with <br>Beth than Jane,The speaker identifies more with<br>Jane than Beth,left_to_right
null,Somebody says<br><em>Jane is carrying Beth,NA,NA,NA,html-keyboard-response,11,81178,0.0-9.0-0.0,anomymised,6564584152624795c40b73cb,65645eb23a2ef3521cdfec04,80565,1A,woman,NA,null,W2 is carrying W4,carry,sentence,NA,NA,NA,NA,NA
7226,NA,NA,NA,NA,survey-likert-extra-labels,12,88407,0.0-9.0-1.0,anomymised,6564584152624795c40b73cb,65645eb23a2ef3521cdfec04,80565,1A,woman,NA,NA,Somebody says<br><em>Jane is carrying Beth,carry,rating_volition,"{""Q0"":1}",[0],Jane is transporting Beth,Beth is transporting Jane,NA
null,Somebody says<br><em>Beth is shouting at Dave</em>,NA,NA,NA,html-keyboard-response,13,90409,0.0-10.0-0.0,anomymised,6564584152624795c40b73cb,65645eb23a2ef3521cdfec04,80565,1A,woman,NA,null,NAME1 is shouting at NAME2,shout_active,sentence,NA,NA,NA,NA,NA
9063,NA,NA,NA,NA,survey-likert-extra-labels,14,99474,0.0-10.0-1.0,anomymised,6564584152624795c40b73cb,65645eb23a2ef3521cdfec04,80565,1A,woman,NA,NA,Somebody says<br><em>Beth is shouting at Dave</em>,shout_active,rating_volition,"{""Q0"":5}",[0],The speaker identifies more with <br>Dave than Beth,The speaker identifies more with<br>Beth than Dave,right_to_left
null,Somebody says<br><em>Mike is posing for Dave,NA,NA,NA,html-keyboard-response,15,101475,0.0-11.0-0.0,anomymised,6564584152624795c40b73cb,65645eb23a2ef3521cdfec04,80565,1A,woman,NA,null,M2 is posing for M4,pose,sentence,NA,NA,NA,NA,NA
4866,NA,NA,NA,NA,survey-likert-extra-labels,16,106343,0.0-11.0-1.0,anomymised,6564584152624795c40b73cb,65645eb23a2ef3521cdfec04,80565,1A,woman,NA,NA,Somebody says<br><em>Mike is posing for Dave,pose,rating_volition,"{""Q0"":0}",[0],Mike is modelling for Dave,Dave is modelling for Mike,NA
null,Somebody says<br><em>Mike and Jane are playing with each other</em>,NA,NA,NA,html-keyboard-response,17,108345,0.0-12.0-0.0,anomymised,6564584152624795c40b73cb,65645eb23a2ef3521cdfec04,80565,1A,woman,NA,null,NAME1 and NAME2 are playing with each other,play_conjoined,sentence,NA,NA,NA,NA,NA
4311,NA,NA,NA,NA,survey-likert-extra-labels,18,112659,0.0-12.0-1.0,anomymised,6564584152624795c40b73cb,65645eb23a2ef3521cdfec04,80565,1A,woman,NA,NA,Somebody says<br><em>Mike and Jane are playing with each other</em>,play_conjoined,rating_volition,"{""Q0"":3}",[0],The speaker identifies more with <br>Jane than Mike,The speaker identifies more with<br>Mike than Jane,right_to_left
null,Somebody says<br><em>Beth is hugging Jane</em>,NA,NA,NA,html-keyboard-response,19,114661,0.0-13.0-0.0,anomymised,6564584152624795c40b73cb,65645eb23a2ef3521cdfec04,80565,1A,woman,NA,null,NAME1 is hugging NAME2,hug_active,sentence,NA,NA,NA,NA,NA
2963,NA,NA,NA,NA,survey-likert-extra-labels,20,117626,0.0-13.0-1.0,anomymised,6564584152624795c40b73cb,65645eb23a2ef3521cdfec04,80565,1A,woman,NA,NA,Somebody says<br><em>Beth is hugging Jane</em>,hug_active,rating_volition,"{""Q0"":1}",[0],The speaker identifies more with <br>Beth than Jane,The speaker identifies more with<br>Jane than Beth,left_to_right
null,Somebody says<br><em>Jane is dancing with Fred</em>,NA,NA,NA,html-keyboard-response,21,119628,0.0-14.0-0.0,anomymised,6564584152624795c40b73cb,65645eb23a2ef3521cdfec04,80565,1A,woman,NA,null,NAME1 is dancing with NAME2,dance_active,sentence,NA,NA,NA,NA,NA
6346.999999999985,NA,NA,NA,NA,survey-likert-extra-labels,22,125978,0.0-14.0-1.0,anomymised,6564584152624795c40b73cb,65645eb23a2ef3521cdfec04,80565,1A,woman,NA,NA,Somebody says<br><em>Jane is dancing with Fred</em>,dance_active,rating_volition,"{""Q0"":3}",[0],The speaker identifies more with <br>Fred than Jane,The speaker identifies more with<br>Jane than Fred,right_to_left
null,Somebody says<br><em>Jane is being shouted at by Luke</em>,NA,NA,NA,html-keyboard-response,23,127980,0.0-15.0-0.0,anomymised,6564584152624795c40b73cb,65645eb23a2ef3521cdfec04,80565,1A,woman,NA,null,NAME1 is being shouted at by NAME2,shout_passive,sentence,NA,NA,NA,NA,NA
3460.9999999999854,NA,NA,NA,NA,survey-likert-extra-labels,24,131444,0.0-15.0-1.0,anomymised,6564584152624795c40b73cb,65645eb23a2ef3521cdfec04,80565,1A,woman,NA,NA,Somebody says<br><em>Jane is being shouted at by Luke</em>,shout_passive,rating_volition,"{""Q0"":0}",[0],The speaker identifies more with <br>Jane than Luke,The speaker identifies more with<br>Luke than Jane,left_to_right
null,Somebody says<br><em>Mike is being kissed by Jane</em>,NA,NA,NA,html-keyboard-response,25,133445,0.0-16.0-0.0,anomymised,6564584152624795c40b73cb,65645eb23a2ef3521cdfec04,80565,1A,woman,NA,null,NAME1 is being kissed by NAME2,kiss_passive,sentence,NA,NA,NA,NA,NA
4093.999999999971,NA,NA,NA,NA,survey-likert-extra-labels,26,137541,0.0-16.0-1.0,anomymised,6564584152624795c40b73cb,65645eb23a2ef3521cdfec04,80565,1A,woman,NA,NA,Somebody says<br><em>Mike is being kissed by Jane</em>,kiss_passive,rating_volition,"{""Q0"":1}",[0],The speaker identifies more with <br>Jane than Mike,The speaker identifies more with<br>Mike than Jane,right_to_left
null,Somebody says<br><em>Mike is meeting Fred</em>,NA,NA,NA,html-keyboard-response,27,139544,0.0-17.0-0.0,anomymised,6564584152624795c40b73cb,65645eb23a2ef3521cdfec04,80565,1A,woman,NA,null,NAME1 is meeting NAME2,meet_active,sentence,NA,NA,NA,NA,NA
3599,NA,NA,NA,NA,survey-likert-extra-labels,28,143145,0.0-17.0-1.0,anomymised,6564584152624795c40b73cb,65645eb23a2ef3521cdfec04,80565,1A,woman,NA,NA,Somebody says<br><em>Mike is meeting Fred</em>,meet_active,rating_volition,"{""Q0"":1}",[0],The speaker identifies more with <br>Mike than Fred,The speaker identifies more with<br>Fred than Mike,left_to_right
null,Somebody says<br><em>Mike is talking to Kate</em>,NA,NA,NA,html-keyboard-response,29,145147,0.0-18.0-0.0,anomymised,6564584152624795c40b73cb,65645eb23a2ef3521cdfec04,80565,1A,woman,NA,null,NAME1 is talking to NAME2,talk_active,sentence,NA,NA,NA,NA,NA
10645,NA,NA,NA,NA,survey-likert-extra-labels,30,155794,0.0-18.0-1.0,anomymised,6564584152624795c40b73cb,65645eb23a2ef3521cdfec04,80565,1A,woman,NA,NA,Somebody says<br><em>Mike is talking to Kate</em>,talk_active,rating_volition,"{""Q0"":6}",[0],The speaker identifies more with <br>Kate than Mike,The speaker identifies more with<br>Mike than Kate,right_to_left
null,Somebody says<br><em>Fred and Kate are meeting each other</em>,NA,NA,NA,html-keyboard-response,31,157796,0.0-19.0-0.0,anomymised,6564584152624795c40b73cb,65645eb23a2ef3521cdfec04,80565,1A,woman,NA,null,NAME1 and NAME2 are meeting each other,meet_conjoined,sentence,NA,NA,NA,NA,NA
2794,NA,NA,NA,NA,survey-likert-extra-labels,32,160591,0.0-19.0-1.0,anomymised,6564584152624795c40b73cb,65645eb23a2ef3521cdfec04,80565,1A,woman,NA,NA,Somebody says<br><em>Fred and Kate are meeting each other</em>,meet_conjoined,rating_volition,"{""Q0"":3}",[0],The speaker identifies more with <br>Fred than Kate,The speaker identifies more with<br>Kate than Fred,left_to_right
null,Somebody says<br><em>Beth is greeting Mike</em>,NA,NA,NA,html-keyboard-response,33,162594,0.0-20.0-0.0,anomymised,6564584152624795c40b73cb,65645eb23a2ef3521cdfec04,80565,1A,woman,NA,null,NAME1 is greeting NAME2,greet_active,sentence,NA,NA,NA,NA,NA
9865.99999999997,NA,NA,NA,NA,survey-likert-extra-labels,34,172461,0.0-20.0-1.0,anomymised,6564584152624795c40b73cb,65645eb23a2ef3521cdfec04,80565,1A,woman,NA,NA,Somebody says<br><em>Beth is greeting Mike</em>,greet_active,rating_volition,"{""Q0"":1}",[0],The speaker identifies more with <br>Beth than Mike,The speaker identifies more with<br>Mike than Beth,left_to_right
null,Somebody says<br><em>Jane is kissing Luke</em>,NA,NA,NA,html-keyboard-response,35,174464,0.0-21.0-0.0,anomymised,6564584152624795c40b73cb,65645eb23a2ef3521cdfec04,80565,1A,woman,NA,null,NAME1 is kissing NAME2,kiss_active,sentence,NA,NA,NA,NA,NA
3010.000000000029,NA,NA,NA,NA,survey-likert-extra-labels,36,177477,0.0-21.0-1.0,anomymised,6564584152624795c40b73cb,65645eb23a2ef3521cdfec04,80565,1A,woman,NA,NA,Somebody says<br><em>Jane is kissing Luke</em>,kiss_active,rating_volition,"{""Q0"":5}",[0],The speaker identifies more with <br>Luke than Jane,The speaker identifies more with<br>Jane than Luke,right_to_left
null,Somebody says<br><em>Ruth is being challenged by Luke</em>,NA,NA,NA,html-keyboard-response,37,179480,0.0-22.0-0.0,anomymised,6564584152624795c40b73cb,65645eb23a2ef3521cdfec04,80565,1A,woman,NA,null,NAME1 is being challenged by NAME2,challenge_passive,sentence,NA,NA,NA,NA,NA
9028.99999999997,NA,NA,NA,NA,survey-likert-extra-labels,38,188511,0.0-22.0-1.0,anomymised,6564584152624795c40b73cb,65645eb23a2ef3521cdfec04,80565,1A,woman,NA,NA,Somebody says<br><em>Ruth is being challenged by Luke</em>,challenge_passive,rating_volition,"{""Q0"":6}",[0],The speaker identifies more with <br>Ruth than Luke,The speaker identifies more with<br>Luke than Ruth,left_to_right
null,Somebody says<br><em>Ruth and Kate are arguing with each other</em>,NA,NA,NA,html-keyboard-response,39,190513,0.0-23.0-0.0,anomymised,6564584152624795c40b73cb,65645eb23a2ef3521cdfec04,80565,1A,woman,NA,null,NAME1 and NAME2 are arguing with each other,argue_conjoined,sentence,NA,NA,NA,NA,NA
2628.000000000029,NA,NA,NA,NA,survey-likert-extra-labels,40,193143,0.0-23.0-1.0,anomymised,6564584152624795c40b73cb,65645eb23a2ef3521cdfec04,80565,1A,woman,NA,NA,Somebody says<br><em>Ruth and Kate are arguing with each other</em>,argue_conjoined,rating_volition,"{""Q0"":3}",[0],The speaker identifies more with <br>Ruth than Kate,The speaker identifies more with<br>Kate than Ruth,left_to_right
null,Somebody says<br><em>Kate is feeding Luke,NA,NA,NA,html-keyboard-response,41,195145,0.0-24.0-0.0,anomymised,6564584152624795c40b73cb,65645eb23a2ef3521cdfec04,80565,1A,woman,NA,null,W3 is feeding M1,feed,sentence,NA,NA,NA,NA,NA
3880,NA,NA,NA,NA,survey-likert-extra-labels,42,199027,0.0-24.0-1.0,anomymised,6564584152624795c40b73cb,65645eb23a2ef3521cdfec04,80565,1A,woman,NA,NA,Somebody says<br><em>Kate is feeding Luke,feed,rating_volition,"{""Q0"":1}",[0],Kate cooked for Luke,Luke cooked for Kate,NA
null,Somebody says<br><em>Jane is teaching Dave,NA,NA,NA,html-keyboard-response,43,201029,0.0-25.0-0.0,anomymised,6564584152624795c40b73cb,65645eb23a2ef3521cdfec04,80565,1A,woman,NA,null,W2 is teaching M4,teach,sentence,NA,NA,NA,NA,NA
4625,NA,NA,NA,NA,survey-likert-extra-labels,44,205657,0.0-25.0-1.0,anomymised,6564584152624795c40b73cb,65645eb23a2ef3521cdfec04,80565,1A,woman,NA,NA,Somebody says<br><em>Jane is teaching Dave,teach,rating_volition,"{""Q0"":1}",[0],Jane is educating Dave,Dave is educating Jane,NA
null,Somebody says<br><em>Beth is playing with Luke</em>,NA,NA,NA,html-keyboard-response,45,207659,0.0-26.0-0.0,anomymised,6564584152624795c40b73cb,65645eb23a2ef3521cdfec04,80565,1A,woman,NA,null,NAME1 is playing with NAME2,play_active,sentence,NA,NA,NA,NA,NA
3929,NA,NA,NA,NA,survey-likert-extra-labels,46,211590,0.0-26.0-1.0,anomymised,6564584152624795c40b73cb,65645eb23a2ef3521cdfec04,80565,1A,woman,NA,NA,Somebody says<br><em>Beth is playing with Luke</em>,play_active,rating_volition,"{""Q0"":3}",[0],The speaker identifies more with <br>Luke than Beth,The speaker identifies more with<br>Beth than Luke,right_to_left
null,Somebody says<br><em>Fred and Jane are dancing with each other</em>,NA,NA,NA,html-keyboard-response,47,213593,0.0-27.0-0.0,anomymised,6564584152624795c40b73cb,65645eb23a2ef3521cdfec04,80565,1A,woman,NA,null,NAME1 and NAME2 are dancing with each other,dance_conjoined,sentence,NA,NA,NA,NA,NA
2164,NA,NA,NA,NA,survey-likert-extra-labels,48,215760,0.0-27.0-1.0,anomymised,6564584152624795c40b73cb,65645eb23a2ef3521cdfec04,80565,1A,woman,NA,NA,Somebody says<br><em>Fred and Jane are dancing with each other</em>,dance_conjoined,rating_volition,"{""Q0"":3}",[0],The speaker identifies more with <br>Jane than Fred,The speaker identifies more with<br>Fred than Jane,right_to_left
null,Somebody says<br><em>Fred is being seduced by Mike</em>,NA,NA,NA,html-keyboard-response,49,217762,0.0-28.0-0.0,anomymised,6564584152624795c40b73cb,65645eb23a2ef3521cdfec04,80565,1A,woman,NA,null,NAME1 is being seduced by NAME2,seduce_passive,sentence,NA,NA,NA,NA,NA
6111.000000000029,NA,NA,NA,NA,survey-likert-extra-labels,50,223874,0.0-28.0-1.0,anomymised,6564584152624795c40b73cb,65645eb23a2ef3521cdfec04,80565,1A,woman,NA,NA,Somebody says<br><em>Fred is being seduced by Mike</em>,seduce_passive,rating_volition,"{""Q0"":6}",[0],The speaker identifies more with <br>Fred than Mike,The speaker identifies more with<br>Mike than Fred,left_to_right
null,Somebody says<br><em>Luke is being opposed by Fred</em>,NA,NA,NA,html-keyboard-response,51,225876,0.0-29.0-0.0,anomymised,6564584152624795c40b73cb,65645eb23a2ef3521cdfec04,80565,1A,woman,NA,null,NAME1 is being opposed by NAME2,oppose_passive,sentence,NA,NA,NA,NA,NA
7195,NA,NA,NA,NA,survey-likert-extra-labels,52,233073,0.0-29.0-1.0,anomymised,6564584152624795c40b73cb,65645eb23a2ef3521cdfec04,80565,1A,woman,NA,NA,Somebody says<br><em>Luke is being opposed by Fred</em>,oppose_passive,rating_volition,"{""Q0"":5}",[0],The speaker identifies more with <br>Luke than Fred,The speaker identifies more with<br>Fred than Luke,left_to_right
null,Somebody says<br><em>Beth is being touched by Fred</em>,NA,NA,NA,html-keyboard-response,53,235075,0.0-30.0-0.0,anomymised,6564584152624795c40b73cb,65645eb23a2ef3521cdfec04,80565,1A,woman,NA,null,NAME1 is being touched by NAME2,touch_passive,sentence,NA,NA,NA,NA,NA
3880.000000000029,NA,NA,NA,NA,survey-likert-extra-labels,54,238957,0.0-30.0-1.0,anomymised,6564584152624795c40b73cb,65645eb23a2ef3521cdfec04,80565,1A,woman,NA,NA,Somebody says<br><em>Beth is being touched by Fred</em>,touch_passive,rating_volition,"{""Q0"":1}",[0],The speaker identifies more with <br>Beth than Fred,The speaker identifies more with<br>Fred than Beth,left_to_right
null,Somebody says<br><em>Ruth is challenging Kate</em>,NA,NA,NA,html-keyboard-response,55,240958,0.0-31.0-0.0,anomymised,6564584152624795c40b73cb,65645eb23a2ef3521cdfec04,80565,1A,woman,NA,null,NAME1 is challenging NAME2,challenge_active,sentence,NA,NA,NA,NA,NA
4465,NA,NA,NA,NA,survey-likert-extra-labels,56,245425,0.0-31.0-1.0,anomymised,6564584152624795c40b73cb,65645eb23a2ef3521cdfec04,80565,1A,woman,NA,NA,Somebody says<br><em>Ruth is challenging Kate</em>,challenge_active,rating_volition,"{""Q0"":0}",[0],The speaker identifies more with <br>Ruth than Kate,The speaker identifies more with<br>Kate than Ruth,left_to_right
null,Somebody says<br><em>Dave is opposing Beth</em>,NA,NA,NA,html-keyboard-response,57,247427,0.0-32.0-0.0,anomymised,6564584152624795c40b73cb,65645eb23a2ef3521cdfec04,80565,1A,woman,NA,null,NAME1 is opposing NAME2,oppose_active,sentence,NA,NA,NA,NA,NA
2897,NA,NA,NA,NA,survey-likert-extra-labels,58,250327,0.0-32.0-1.0,anomymised,6564584152624795c40b73cb,65645eb23a2ef3521cdfec04,80565,1A,woman,NA,NA,Somebody says<br><em>Dave is opposing Beth</em>,oppose_active,rating_volition,"{""Q0"":0}",[0],The speaker identifies more with <br>Dave than Beth,The speaker identifies more with<br>Beth than Dave,left_to_right
null,Somebody says<br><em>Mike and Kate are flirting with each other</em>,NA,NA,NA,html-keyboard-response,59,252329,0.0-33.0-0.0,anomymised,6564584152624795c40b73cb,65645eb23a2ef3521cdfec04,80565,1A,woman,NA,null,NAME1 and NAME2 are flirting with each other,flirt_conjoined,sentence,NA,NA,NA,NA,NA
2195.999999999971,NA,NA,NA,NA,survey-likert-extra-labels,60,254527,0.0-33.0-1.0,anomymised,6564584152624795c40b73cb,65645eb23a2ef3521cdfec04,80565,1A,woman,NA,NA,Somebody says<br><em>Mike and Kate are flirting with each other</em>,flirt_conjoined,rating_volition,"{""Q0"":3}",[0],The speaker identifies more with <br>Mike than Kate,The speaker identifies more with<br>Kate than Mike,left_to_right
null,Somebody says<br><em>Luke is shouting at Kate</em>,NA,NA,NA,html-keyboard-response,61,256529,0.0-34.0-0.0,anomymised,6564584152624795c40b73cb,65645eb23a2ef3521cdfec04,80565,1A,woman,NA,null,NAME1 is shouting at NAME2,shout_active,sentence,NA,NA,NA,NA,NA
3444.000000000029,NA,NA,NA,NA,survey-likert-extra-labels,62,259976,0.0-34.0-1.0,anomymised,6564584152624795c40b73cb,65645eb23a2ef3521cdfec04,80565,1A,woman,NA,NA,Somebody says<br><em>Luke is shouting at Kate</em>,shout_active,rating_volition,"{""Q0"":0}",[0],The speaker identifies more with <br>Kate than Luke,The speaker identifies more with<br>Luke than Kate,right_to_left
null,Somebody says<br><em>Fred is hiring Ruth,NA,NA,NA,html-keyboard-response,63,261979,0.0-35.0-0.0,anomymised,6564584152624795c40b73cb,65645eb23a2ef3521cdfec04,80565,1A,woman,NA,null,M3 is hiring W1,hire,sentence,NA,NA,NA,NA,NA
3942,NA,NA,NA,NA,survey-likert-extra-labels,64,265923,0.0-35.0-1.0,anomymised,6564584152624795c40b73cb,65645eb23a2ef3521cdfec04,80565,1A,woman,NA,NA,Somebody says<br><em>Fred is hiring Ruth,hire,rating_volition,"{""Q0"":0}",[0],Fred is employing Ruth,Ruth is employing Fred,NA
null,Somebody says<br><em>Jane is copying Fred</em>,NA,NA,NA,html-keyboard-response,65,267925,0.0-36.0-0.0,anomymised,6564584152624795c40b73cb,65645eb23a2ef3521cdfec04,80565,1A,woman,NA,null,NAME1 is copying NAME2,copy_active,sentence,NA,NA,NA,NA,NA
4014.000000000058,NA,NA,NA,NA,survey-likert-extra-labels,66,271941,0.0-36.0-1.0,anomymised,6564584152624795c40b73cb,65645eb23a2ef3521cdfec04,80565,1A,woman,NA,NA,Somebody says<br><em>Jane is copying Fred</em>,copy_active,rating_volition,"{""Q0"":6}",[0],The speaker identifies more with <br>Fred than Jane,The speaker identifies more with<br>Jane than Fred,right_to_left
null,Somebody says<br><em>Mike is flirting with Kate</em>,NA,NA,NA,html-keyboard-response,67,273943,0.0-37.0-0.0,anomymised,6564584152624795c40b73cb,65645eb23a2ef3521cdfec04,80565,1A,woman,NA,null,NAME1 is flirting with NAME2,flirt_active,sentence,NA,NA,NA,NA,NA
6914,NA,NA,NA,NA,survey-likert-extra-labels,68,280859,0.0-37.0-1.0,anomymised,6564584152624795c40b73cb,65645eb23a2ef3521cdfec04,80565,1A,woman,NA,NA,Somebody says<br><em>Mike is flirting with Kate</em>,flirt_active,rating_volition,"{""Q0"":6}",[0],The speaker identifies more with <br>Kate than Mike,The speaker identifies more with<br>Mike than Kate,right_to_left
null,Somebody says<br><em>Mike and Beth are shouting at each other</em>,NA,NA,NA,html-keyboard-response,69,282861,0.0-38.0-0.0,anomymised,6564584152624795c40b73cb,65645eb23a2ef3521cdfec04,80565,1A,woman,NA,null,NAME1 and NAME2 are shouting at each other,shout_conjoined,sentence,NA,NA,NA,NA,NA
2726.999999999942,NA,NA,NA,NA,survey-likert-extra-labels,70,285590,0.0-38.0-1.0,anomymised,6564584152624795c40b73cb,65645eb23a2ef3521cdfec04,80565,1A,woman,NA,NA,Somebody says<br><em>Mike and Beth are shouting at each other</em>,shout_conjoined,rating_volition,"{""Q0"":3}",[0],The speaker identifies more with <br>Beth than Mike,The speaker identifies more with<br>Mike than Beth,right_to_left
null,Somebody says<br><em>Luke and Kate are kissing each other</em>,NA,NA,NA,html-keyboard-response,71,287592,0.0-39.0-0.0,anomymised,6564584152624795c40b73cb,65645eb23a2ef3521cdfec04,80565,1A,woman,NA,null,NAME1 and NAME2 are kissing each other,kiss_conjoined,sentence,NA,NA,NA,NA,NA
3550,NA,NA,NA,NA,survey-likert-extra-labels,72,291143,0.0-39.0-1.0,anomymised,6564584152624795c40b73cb,65645eb23a2ef3521cdfec04,80565,1A,woman,NA,NA,Somebody says<br><em>Luke and Kate are kissing each other</em>,kiss_conjoined,rating_volition,"{""Q0"":5}",[0],The speaker identifies more with <br>Kate than Luke,The speaker identifies more with<br>Luke than Kate,right_to_left
null,Somebody says<br><em>Luke is driving Fred,NA,NA,NA,html-keyboard-response,73,293146,0.0-40.0-0.0,anomymised,6564584152624795c40b73cb,65645eb23a2ef3521cdfec04,80565,1A,woman,NA,null,M1 is driving M3,drive,sentence,NA,NA,NA,NA,NA
25194,NA,NA,NA,NA,survey-likert-extra-labels,74,318341,0.0-40.0-1.0,anomymised,6564584152624795c40b73cb,65645eb23a2ef3521cdfec04,80565,1A,woman,NA,NA,Somebody says<br><em>Luke is driving Fred,drive,rating_volition,"{""Q0"":5}",[0],Luke is Fred's passenger,Fred is Luke's passenger,NA
null,Somebody says<br><em>Dave is marrying Mike</em>,NA,NA,NA,html-keyboard-response,75,320344,0.0-41.0-0.0,anomymised,6564584152624795c40b73cb,65645eb23a2ef3521cdfec04,80565,1A,woman,NA,null,NAME1 is marrying NAME2,marry_active,sentence,NA,NA,NA,NA,NA
4428.000000000058,NA,NA,NA,NA,survey-likert-extra-labels,76,324773,0.0-41.0-1.0,anomymised,6564584152624795c40b73cb,65645eb23a2ef3521cdfec04,80565,1A,woman,NA,NA,Somebody says<br><em>Dave is marrying Mike</em>,marry_active,rating_volition,"{""Q0"":5}",[0],The speaker identifies more with <br>Mike than Dave,The speaker identifies more with<br>Dave than Mike,right_to_left
null,Somebody says<br><em>Jane and Ruth are marrying each other</em>,NA,NA,NA,html-keyboard-response,77,326775,0.0-42.0-0.0,anomymised,6564584152624795c40b73cb,65645eb23a2ef3521cdfec04,80565,1A,woman,NA,null,NAME1 and NAME2 are marrying each other,marry_conjoined,sentence,NA,NA,NA,NA,NA
2264,NA,NA,NA,NA,survey-likert-extra-labels,78,329042,0.0-42.0-1.0,anomymised,6564584152624795c40b73cb,65645eb23a2ef3521cdfec04,80565,1A,woman,NA,NA,Somebody says<br><em>Jane and Ruth are marrying each other</em>,marry_conjoined,rating_volition,"{""Q0"":3}",[0],The speaker identifies more with <br>Jane than Ruth,The speaker identifies more with<br>Ruth than Jane,left_to_right
null,Somebody says<br><em>Luke is being hugged by Beth</em>,NA,NA,NA,html-keyboard-response,79,331044,0.0-43.0-0.0,anomymised,6564584152624795c40b73cb,65645eb23a2ef3521cdfec04,80565,1A,woman,NA,null,NAME1 is being hugged by NAME2,hug_passive,sentence,NA,NA,NA,NA,NA
3594,NA,NA,NA,NA,survey-likert-extra-labels,80,334640,0.0-43.0-1.0,anomymised,6564584152624795c40b73cb,65645eb23a2ef3521cdfec04,80565,1A,woman,NA,NA,Somebody says<br><em>Luke is being hugged by Beth</em>,hug_passive,rating_volition,"{""Q0"":5}",[0],The speaker identifies more with <br>Luke than Beth,The speaker identifies more with<br>Beth than Luke,left_to_right
null,Somebody says<br><em>Beth is being greeted by Fred</em>,NA,NA,NA,html-keyboard-response,81,336642,0.0-44.0-0.0,anomymised,6564584152624795c40b73cb,65645eb23a2ef3521cdfec04,80565,1A,woman,NA,null,NAME1 is being greeted by NAME2,greet_passive,sentence,NA,NA,NA,NA,NA
3815,NA,NA,NA,NA,survey-likert-extra-labels,82,340459,0.0-44.0-1.0,anomymised,6564584152624795c40b73cb,65645eb23a2ef3521cdfec04,80565,1A,woman,NA,NA,Somebody says<br><em>Beth is being greeted by Fred</em>,greet_passive,rating_volition,"{""Q0"":5}",[0],The speaker identifies more with <br>Beth than Fred,The speaker identifies more with<br>Fred than Beth,left_to_right
null,Somebody says<br><em>Mike is reminding Beth,NA,NA,NA,html-keyboard-response,83,342462,0.0-45.0-0.0,anomymised,6564584152624795c40b73cb,65645eb23a2ef3521cdfec04,80565,1A,woman,NA,null,M2 is reminding W4,remind,sentence,NA,NA,NA,NA,NA
4926,NA,NA,NA,NA,survey-likert-extra-labels,84,347390,0.0-45.0-1.0,anomymised,6564584152624795c40b73cb,65645eb23a2ef3521cdfec04,80565,1A,woman,NA,NA,Somebody says<br><em>Mike is reminding Beth,remind,rating_volition,"{""Q0"":5}",[0],Mike is telling Beth again,Beth is telling Mike again,NA
null,Somebody says<br><em>Luke and Jane are hugging each other</em>,NA,NA,NA,html-keyboard-response,85,349392,0.0-46.0-0.0,anomymised,6564584152624795c40b73cb,65645eb23a2ef3521cdfec04,80565,1A,woman,NA,null,NAME1 and NAME2 are hugging each other,hug_conjoined,sentence,NA,NA,NA,NA,NA
4380.000000000058,NA,NA,NA,NA,survey-likert-extra-labels,86,353773,0.0-46.0-1.0,anomymised,6564584152624795c40b73cb,65645eb23a2ef3521cdfec04,80565,1A,woman,NA,NA,Somebody says<br><em>Luke and Jane are hugging each other</em>,hug_conjoined,rating_volition,"{""Q0"":5}",[0],The speaker identifies more with <br>Luke than Jane,The speaker identifies more with<br>Jane than Luke,left_to_right
null,Somebody says<br><em>Beth is being looked at by Mike</em>,NA,NA,NA,html-keyboard-response,87,355775,0.0-47.0-0.0,anomymised,6564584152624795c40b73cb,65645eb23a2ef3521cdfec04,80565,1A,woman,NA,null,NAME1 is being looked at by NAME2,look_passive,sentence,NA,NA,NA,NA,NA
2547,NA,NA,NA,NA,survey-likert-extra-labels,88,358323,0.0-47.0-1.0,anomymised,6564584152624795c40b73cb,65645eb23a2ef3521cdfec04,80565,1A,woman,NA,NA,Somebody says<br><em>Beth is being looked at by Mike</em>,look_passive,rating_volition,"{""Q0"":5}",[0],The speaker identifies more with <br>Beth than Mike,The speaker identifies more with<br>Mike than Beth,left_to_right
null,Somebody says<br><em>Ruth is chasing Kate,NA,NA,NA,html-keyboard-response,89,360325,0.0-48.0-0.0,anomymised,6564584152624795c40b73cb,65645eb23a2ef3521cdfec04,80565,1A,woman,NA,null,W1 is chasing W3,chase,sentence,NA,NA,NA,NA,NA
6314,NA,NA,NA,NA,survey-likert-extra-labels,90,366641,0.0-48.0-1.0,anomymised,6564584152624795c40b73cb,65645eb23a2ef3521cdfec04,80565,1A,woman,NA,NA,Somebody says<br><em>Ruth is chasing Kate,chase,rating_volition,"{""Q0"":0}",[0],Ruth is behind Kate,Kate is behind Ruth,NA
null,Somebody says<br><em>Ruth is arguing with Dave</em>,NA,NA,NA,html-keyboard-response,91,368642,0.0-49.0-0.0,anomymised,6564584152624795c40b73cb,65645eb23a2ef3521cdfec04,80565,1A,woman,NA,null,NAME1 is arguing with NAME2,argue_active,sentence,NA,NA,NA,NA,NA
2845,NA,NA,NA,NA,survey-likert-extra-labels,92,371489,0.0-49.0-1.0,anomymised,6564584152624795c40b73cb,65645eb23a2ef3521cdfec04,80565,1A,woman,NA,NA,Somebody says<br><em>Ruth is arguing with Dave</em>,argue_active,rating_volition,"{""Q0"":5}",[0],The speaker identifies more with <br>Dave than Ruth,The speaker identifies more with<br>Ruth than Dave,right_to_left
null,Somebody says<br><em>Luke is seducing Fred</em>,NA,NA,NA,html-keyboard-response,93,373491,0.0-50.0-0.0,anomymised,6564584152624795c40b73cb,65645eb23a2ef3521cdfec04,80565,1A,woman,NA,null,NAME1 is seducing NAME2,seduce_active,sentence,NA,NA,NA,NA,NA
5247,NA,NA,NA,NA,survey-likert-extra-labels,94,378740,0.0-50.0-1.0,anomymised,6564584152624795c40b73cb,65645eb23a2ef3521cdfec04,80565,1A,woman,NA,NA,Somebody says<br><em>Luke is seducing Fred</em>,seduce_active,rating_volition,"{""Q0"":5}",[0],The speaker identifies more with <br>Luke than Fred,The speaker identifies more with<br>Fred than Luke,left_to_right
null,Somebody says<br><em>Beth is touching Dave</em>,NA,NA,NA,html-keyboard-response,95,380742,0.0-51.0-0.0,anomymised,6564584152624795c40b73cb,65645eb23a2ef3521cdfec04,80565,1A,woman,NA,null,NAME1 is touching NAME2,touch_active,sentence,NA,NA,NA,NA,NA
3196,NA,NA,NA,NA,survey-likert-extra-labels,96,383940,0.0-51.0-1.0,anomymised,6564584152624795c40b73cb,65645eb23a2ef3521cdfec04,80565,1A,woman,NA,NA,Somebody says<br><em>Beth is touching Dave</em>,touch_active,rating_volition,"{""Q0"":1}",[0],The speaker identifies more with <br>Beth than Dave,The speaker identifies more with<br>Dave than Beth,left_to_right
null,Somebody says<br><em>Mike is fighting with Kate</em>,NA,NA,NA,html-keyboard-response,97,385942,0.0-52.0-0.0,anomymised,6564584152624795c40b73cb,65645eb23a2ef3521cdfec04,80565,1A,woman,NA,null,NAME1 is fighting with NAME2,fight_active,sentence,NA,NA,NA,NA,NA
3830,NA,NA,NA,NA,survey-likert-extra-labels,98,389774,0.0-52.0-1.0,anomymised,6564584152624795c40b73cb,65645eb23a2ef3521cdfec04,80565,1A,woman,NA,NA,Somebody says<br><em>Mike is fighting with Kate</em>,fight_active,rating_volition,"{""Q0"":3}",[0],The speaker identifies more with <br>Mike than Kate,The speaker identifies more with<br>Kate than Mike,left_to_right
null,Somebody says<br><em>Fred and Ruth are talking with each other</em>,NA,NA,NA,html-keyboard-response,99,391776,0.0-53.0-0.0,anomymised,6564584152624795c40b73cb,65645eb23a2ef3521cdfec04,80565,1A,woman,NA,null,NAME1 and NAME2 are talking with each other,talk_conjoined,sentence,NA,NA,NA,NA,NA
3064,NA,NA,NA,NA,survey-likert-extra-labels,100,394843,0.0-53.0-1.0,anomymised,6564584152624795c40b73cb,65645eb23a2ef3521cdfec04,80565,1A,woman,NA,NA,Somebody says<br><em>Fred and Ruth are talking with each other</em>,talk_conjoined,rating_volition,"{""Q0"":1}",[0],The speaker identifies more with <br>Fred than Ruth,The speaker identifies more with<br>Ruth than Fred,left_to_right
null,Somebody says<br><em>Mike is being copied by Jane</em>,NA,NA,NA,html-keyboard-response,101,396846,0.0-54.0-0.0,anomymised,6564584152624795c40b73cb,65645eb23a2ef3521cdfec04,80565,1A,woman,NA,null,NAME1 is being copied by NAME2,copy_passive,sentence,NA,NA,NA,NA,NA
5943,NA,NA,NA,NA,survey-likert-extra-labels,102,402790,0.0-54.0-1.0,anomymised,6564584152624795c40b73cb,65645eb23a2ef3521cdfec04,80565,1A,woman,NA,NA,Somebody says<br><em>Mike is being copied by Jane</em>,copy_passive,rating_volition,"{""Q0"":5}",[0],The speaker identifies more with <br>Jane than Mike,The speaker identifies more with<br>Mike than Jane,right_to_left
null,Somebody says<br><em>Beth and Luke are fighting with each other</em>,NA,NA,NA,html-keyboard-response,103,404792,0.0-55.0-0.0,anomymised,6564584152624795c40b73cb,65645eb23a2ef3521cdfec04,80565,1A,woman,NA,null,NAME1 and NAME2 are fighting with each other,fight_conjoined,sentence,NA,NA,NA,NA,NA
7050.000000000058,NA,NA,NA,NA,survey-likert-extra-labels,104,411844,0.0-55.0-1.0,anomymised,6564584152624795c40b73cb,65645eb23a2ef3521cdfec04,80565,1A,woman,NA,NA,Somebody says<br><em>Beth and Luke are fighting with each other</em>,fight_conjoined,rating_volition,"{""Q0"":5}",[0],The speaker identifies more with <br>Luke than Beth,The speaker identifies more with<br>Beth than Luke,right_to_left
1661,<p>Thank you for completing that task.</p><p>The final part of this session is a short questionnaire.</p><p>Press Continue.</p>,0,Continue,Continue,html-button-response,105,413508,0.0-56.0,anomymised,6564584152624795c40b73cb,65645eb23a2ef3521cdfec04,80565,1A,woman,NA,NA,NA,NA,NA,NA,NA,NA,NA,NA
62411,NA,NA,NA,NA,survey-text,106,476942,0.0-57.0,anomymised,6564584152624795c40b73cb,65645eb23a2ef3521cdfec04,80565,1A,woman,NA,NA,NA,NA,demographics,"{""Q0"":""64"",""Q1"":""English"",""Q2"":""English"",""Q3"":""uk"",""Q4"":""British"",""Q5"":""Caucasian"",""Q6"":""Female""}",NA,NA,NA,NA
3262.999999999942,<p>This is the last question - thank you for taking part! Have you lived in the UK for the last 5 years or more?</p>,0,"Yes,No",Yes,html-button-response,107,480206,0.0-58.0,anomymised,6564584152624795c40b73cb,65645eb23a2ef3521cdfec04,80565,1A,woman,NA,NA,NA,NA,fiveyears,NA,NA,NA,NA,NA
