rt,stimulus,button_pressed,choices,ChosenStimulus,trial_type,trial_index,time_elapsed,internal_node_id,subject_id,study_id,session_id,subject,list,ppt_gender,url,key_press,sentence_type,verb,test_part,responses,question_order,left_part,right_part,name_order
11375.200000047684,Welcome to the experiment. Press Continue to begin.,0,Continue,Continue,html-button-response,0,11381,0.0-0.0,anomymised,6560c4cfd080ba12b16d8282,6564c91e96bf7c9509892edb,87972,1A,man,NA,NA,NA,NA,NA,NA,NA,NA,NA,NA
280362.2999999523,NA,NA,NA,NA,external-html,1,292943,0.0-1.0,anomymised,6560c4cfd080ba12b16d8282,6564c91e96bf7c9509892edb,87972,1A,man,consent.html,NA,NA,NA,NA,NA,NA,NA,NA,NA
42426.90000009537,"<p>Welcome.</p><p>In this experiment we will ask you to imagine people's motivations for saying sentences.</p><p>Each trial will begin with a sentence that somebody might say to describe an event involving two different people.</p><p>For instance, someone might say <em>Harry is being recruited by Molly</em></p><p>We want you to think about which of those two people (Molly and Harry) the speaker identifies more with. For instance, why did the speaker say <em>Harry is being recruited by Molly</em> rather than <em> Molly is recruiting Harry</em>? Might that mean that the speaker is socially closer to one of the two characters?</p><p>After you have read the sentence, you will rate on a scale which of the two characters the speaker identifies more with.</p><p>You will give your answer by clicking a button on a rating scale.</p><p>Sometimes there will also be catch questions designed to make sure that you are paying attention, which ask about a different topic.</p><p>To do this task, you will have to use your imagination to think about and visualise the events, and how the speaker might relate to the characters.</p><br><p>Ready?</p>",0,Continue,Continue,html-button-response,2,335372,0.0-2.0,anomymised,6560c4cfd080ba12b16d8282,6564c91e96bf7c9509892edb,87972,1A,man,NA,NA,NA,NA,NA,NA,NA,NA,NA,NA
2952.2000000476837,"<p>Before the experiment starts, we will show you an example of how you will answer the questions. Press 'Continue'.</p>",0,Continue,Continue,html-button-response,3,339334,0.0-3.0,anomymised,6560c4cfd080ba12b16d8282,6564c91e96bf7c9509892edb,87972,1A,man,NA,NA,NA,NA,NA,NA,NA,NA,NA,NA
null,Somebody says <br><em>Samuel is dining with Frank</em>,NA,NA,NA,html-keyboard-response,4,342349,0.0-4.0,anomymised,6560c4cfd080ba12b16d8282,6564c91e96bf7c9509892edb,87972,1A,man,NA,null,NA,NA,NA,NA,NA,NA,NA,NA
35362.800000071526,<img src='img/Example-trial.jpg' style='height:550px;''></img>,0,Continue,Continue,html-button-response,5,377713,0.0-5.0,anomymised,6560c4cfd080ba12b16d8282,6564c91e96bf7c9509892edb,87972,1A,man,NA,NA,NA,NA,NA,NA,NA,NA,NA,NA
4551.800000071526,<p>Ready to start the experiment?</p><br><p><strong>Remember to give an answer by clicking a button on the rating scale.</strong></p><p>Press 'Continue' to begin.</p>,0,Continue,Continue,html-button-response,6,383276,0.0-6.0,anomymised,6560c4cfd080ba12b16d8282,6564c91e96bf7c9509892edb,87972,1A,man,NA,NA,NA,NA,NA,NA,NA,NA,NA,NA
null,Somebody says<br><em>Kate and Luke are fighting with each other</em>,NA,NA,NA,html-keyboard-response,7,386287,0.0-7.0-0.0,anomymised,6560c4cfd080ba12b16d8282,6564c91e96bf7c9509892edb,87972,1A,man,NA,null,NAME1 and NAME2 are fighting with each other,fight_conjoined,sentence,NA,NA,NA,NA,NA
10594.699999928474,NA,NA,NA,NA,survey-likert-extra-labels,8,396884,0.0-7.0-1.0,anomymised,6560c4cfd080ba12b16d8282,6564c91e96bf7c9509892edb,87972,1A,man,NA,NA,Somebody says<br><em>Kate and Luke are fighting with each other</em>,fight_conjoined,rating_volition,"{""Q0"":5}",[0],The speaker identifies more with <br>Luke than Kate,The speaker identifies more with<br>Kate than Luke,right_to_left
null,Somebody says<br><em>Beth is dancing with Fred</em>,NA,NA,NA,html-keyboard-response,9,398896,0.0-8.0-0.0,anomymised,6560c4cfd080ba12b16d8282,6564c91e96bf7c9509892edb,87972,1A,man,NA,null,NAME1 is dancing with NAME2,dance_active,sentence,NA,NA,NA,NA,NA
10741.100000023842,NA,NA,NA,NA,survey-likert-extra-labels,10,409639,0.0-8.0-1.0,anomymised,6560c4cfd080ba12b16d8282,6564c91e96bf7c9509892edb,87972,1A,man,NA,NA,Somebody says<br><em>Beth is dancing with Fred</em>,dance_active,rating_volition,"{""Q0"":5}",[0],The speaker identifies more with <br>Fred than Beth,The speaker identifies more with<br>Beth than Fred,right_to_left
null,Somebody says<br><em>Fred is hiring Ruth,NA,NA,NA,html-keyboard-response,11,411650,0.0-9.0-0.0,anomymised,6560c4cfd080ba12b16d8282,6564c91e96bf7c9509892edb,87972,1A,man,NA,null,M3 is hiring W1,hire,sentence,NA,NA,NA,NA,NA
13949.600000023842,NA,NA,NA,NA,survey-likert-extra-labels,12,425602,0.0-9.0-1.0,anomymised,6560c4cfd080ba12b16d8282,6564c91e96bf7c9509892edb,87972,1A,man,NA,NA,Somebody says<br><em>Fred is hiring Ruth,hire,rating_volition,"{""Q0"":0}",[0],Fred is employing Ruth,Ruth is employing Fred,NA
null,Somebody says<br><em>Dave and Mike are hugging each other</em>,NA,NA,NA,html-keyboard-response,13,427617,0.0-10.0-0.0,anomymised,6560c4cfd080ba12b16d8282,6564c91e96bf7c9509892edb,87972,1A,man,NA,null,NAME1 and NAME2 are hugging each other,hug_conjoined,sentence,NA,NA,NA,NA,NA
8420.200000047684,NA,NA,NA,NA,survey-likert-extra-labels,14,436039,0.0-10.0-1.0,anomymised,6560c4cfd080ba12b16d8282,6564c91e96bf7c9509892edb,87972,1A,man,NA,NA,Somebody says<br><em>Dave and Mike are hugging each other</em>,hug_conjoined,rating_volition,"{""Q0"":6}",[0],The speaker identifies more with <br>Mike than Dave,The speaker identifies more with<br>Dave than Mike,right_to_left
null,Somebody says<br><em>Mike is posing for Dave,NA,NA,NA,html-keyboard-response,15,438061,0.0-11.0-0.0,anomymised,6560c4cfd080ba12b16d8282,6564c91e96bf7c9509892edb,87972,1A,man,NA,null,M2 is posing for M4,pose,sentence,NA,NA,NA,NA,NA
10017.100000023842,NA,NA,NA,NA,survey-likert-extra-labels,16,448081,0.0-11.0-1.0,anomymised,6560c4cfd080ba12b16d8282,6564c91e96bf7c9509892edb,87972,1A,man,NA,NA,Somebody says<br><em>Mike is posing for Dave,pose,rating_volition,"{""Q0"":0}",[0],Mike is modelling for Dave,Dave is modelling for Mike,NA
null,Somebody says<br><em>Beth and Kate are kissing each other</em>,NA,NA,NA,html-keyboard-response,17,450091,0.0-12.0-0.0,anomymised,6560c4cfd080ba12b16d8282,6564c91e96bf7c9509892edb,87972,1A,man,NA,null,NAME1 and NAME2 are kissing each other,kiss_conjoined,sentence,NA,NA,NA,NA,NA
6960.5,NA,NA,NA,NA,survey-likert-extra-labels,18,457054,0.0-12.0-1.0,anomymised,6560c4cfd080ba12b16d8282,6564c91e96bf7c9509892edb,87972,1A,man,NA,NA,Somebody says<br><em>Beth and Kate are kissing each other</em>,kiss_conjoined,rating_volition,"{""Q0"":6}",[0],The speaker identifies more with <br>Kate than Beth,The speaker identifies more with<br>Beth than Kate,right_to_left
null,Somebody says<br><em>Jane is shouting at Dave</em>,NA,NA,NA,html-keyboard-response,19,459065,0.0-13.0-0.0,anomymised,6560c4cfd080ba12b16d8282,6564c91e96bf7c9509892edb,87972,1A,man,NA,null,NAME1 is shouting at NAME2,shout_active,sentence,NA,NA,NA,NA,NA
5154,NA,NA,NA,NA,survey-likert-extra-labels,20,464221,0.0-13.0-1.0,anomymised,6560c4cfd080ba12b16d8282,6564c91e96bf7c9509892edb,87972,1A,man,NA,NA,Somebody says<br><em>Jane is shouting at Dave</em>,shout_active,rating_volition,"{""Q0"":0}",[0],The speaker identifies more with <br>Jane than Dave,The speaker identifies more with<br>Dave than Jane,left_to_right
null,Somebody says<br><em>Luke is kissing Fred</em>,NA,NA,NA,html-keyboard-response,21,466245,0.0-14.0-0.0,anomymised,6560c4cfd080ba12b16d8282,6564c91e96bf7c9509892edb,87972,1A,man,NA,null,NAME1 is kissing NAME2,kiss_active,sentence,NA,NA,NA,NA,NA
7839.100000023842,NA,NA,NA,NA,survey-likert-extra-labels,22,474086,0.0-14.0-1.0,anomymised,6560c4cfd080ba12b16d8282,6564c91e96bf7c9509892edb,87972,1A,man,NA,NA,Somebody says<br><em>Luke is kissing Fred</em>,kiss_active,rating_volition,"{""Q0"":0}",[0],The speaker identifies more with <br>Luke than Fred,The speaker identifies more with<br>Fred than Luke,left_to_right
null,Somebody says<br><em>Kate is playing with Luke</em>,NA,NA,NA,html-keyboard-response,23,476099,0.0-15.0-0.0,anomymised,6560c4cfd080ba12b16d8282,6564c91e96bf7c9509892edb,87972,1A,man,NA,null,NAME1 is playing with NAME2,play_active,sentence,NA,NA,NA,NA,NA
5333.399999976158,NA,NA,NA,NA,survey-likert-extra-labels,24,481434,0.0-15.0-1.0,anomymised,6560c4cfd080ba12b16d8282,6564c91e96bf7c9509892edb,87972,1A,man,NA,NA,Somebody says<br><em>Kate is playing with Luke</em>,play_active,rating_volition,"{""Q0"":6}",[0],The speaker identifies more with <br>Luke than Kate,The speaker identifies more with<br>Kate than Luke,right_to_left
null,Somebody says<br><em>Fred is being seduced by Dave</em>,NA,NA,NA,html-keyboard-response,25,483454,0.0-16.0-0.0,anomymised,6560c4cfd080ba12b16d8282,6564c91e96bf7c9509892edb,87972,1A,man,NA,null,NAME1 is being seduced by NAME2,seduce_passive,sentence,NA,NA,NA,NA,NA
10701.399999976158,NA,NA,NA,NA,survey-likert-extra-labels,26,494158,0.0-16.0-1.0,anomymised,6560c4cfd080ba12b16d8282,6564c91e96bf7c9509892edb,87972,1A,man,NA,NA,Somebody says<br><em>Fred is being seduced by Dave</em>,seduce_passive,rating_volition,"{""Q0"":6}",[0],The speaker identifies more with <br>Dave than Fred,The speaker identifies more with<br>Fred than Dave,right_to_left
null,Somebody says<br><em>Beth and Fred are meeting each other</em>,NA,NA,NA,html-keyboard-response,27,496171,0.0-17.0-0.0,anomymised,6560c4cfd080ba12b16d8282,6564c91e96bf7c9509892edb,87972,1A,man,NA,null,NAME1 and NAME2 are meeting each other,meet_conjoined,sentence,NA,NA,NA,NA,NA
4494.700000047684,NA,NA,NA,NA,survey-likert-extra-labels,28,500668,0.0-17.0-1.0,anomymised,6560c4cfd080ba12b16d8282,6564c91e96bf7c9509892edb,87972,1A,man,NA,NA,Somebody says<br><em>Beth and Fred are meeting each other</em>,meet_conjoined,rating_volition,"{""Q0"":0}",[0],The speaker identifies more with <br>Beth than Fred,The speaker identifies more with<br>Fred than Beth,left_to_right
null,Somebody says<br><em>Kate is meeting Ruth</em>,NA,NA,NA,html-keyboard-response,29,502691,0.0-18.0-0.0,anomymised,6560c4cfd080ba12b16d8282,6564c91e96bf7c9509892edb,87972,1A,man,NA,null,NAME1 is meeting NAME2,meet_active,sentence,NA,NA,NA,NA,NA
4742.399999976158,NA,NA,NA,NA,survey-likert-extra-labels,30,507435,0.0-18.0-1.0,anomymised,6560c4cfd080ba12b16d8282,6564c91e96bf7c9509892edb,87972,1A,man,NA,NA,Somebody says<br><em>Kate is meeting Ruth</em>,meet_active,rating_volition,"{""Q0"":0}",[0],The speaker identifies more with <br>Kate than Ruth,The speaker identifies more with<br>Ruth than Kate,left_to_right
null,Somebody says<br><em>Luke is driving Fred,NA,NA,NA,html-keyboard-response,31,509459,0.0-19.0-0.0,anomymised,6560c4cfd080ba12b16d8282,6564c91e96bf7c9509892edb,87972,1A,man,NA,null,M1 is driving M3,drive,sentence,NA,NA,NA,NA,NA
8419.5,NA,NA,NA,NA,survey-likert-extra-labels,32,517880,0.0-19.0-1.0,anomymised,6560c4cfd080ba12b16d8282,6564c91e96bf7c9509892edb,87972,1A,man,NA,NA,Somebody says<br><em>Luke is driving Fred,drive,rating_volition,"{""Q0"":6}",[0],Luke is Fred's passenger,Fred is Luke's passenger,NA
null,Somebody says<br><em>Dave and Mike are shouting at each other</em>,NA,NA,NA,html-keyboard-response,33,519903,0.0-20.0-0.0,anomymised,6560c4cfd080ba12b16d8282,6564c91e96bf7c9509892edb,87972,1A,man,NA,null,NAME1 and NAME2 are shouting at each other,shout_conjoined,sentence,NA,NA,NA,NA,NA
4092.399999976158,NA,NA,NA,NA,survey-likert-extra-labels,34,523997,0.0-20.0-1.0,anomymised,6560c4cfd080ba12b16d8282,6564c91e96bf7c9509892edb,87972,1A,man,NA,NA,Somebody says<br><em>Dave and Mike are shouting at each other</em>,shout_conjoined,rating_volition,"{""Q0"":6}",[0],The speaker identifies more with <br>Mike than Dave,The speaker identifies more with<br>Dave than Mike,right_to_left
null,Somebody says<br><em>Dave is being kissed by Mike</em>,NA,NA,NA,html-keyboard-response,35,526017,0.0-21.0-0.0,anomymised,6560c4cfd080ba12b16d8282,6564c91e96bf7c9509892edb,87972,1A,man,NA,null,NAME1 is being kissed by NAME2,kiss_passive,sentence,NA,NA,NA,NA,NA
5520,NA,NA,NA,NA,survey-likert-extra-labels,36,531539,0.0-21.0-1.0,anomymised,6560c4cfd080ba12b16d8282,6564c91e96bf7c9509892edb,87972,1A,man,NA,NA,Somebody says<br><em>Dave is being kissed by Mike</em>,kiss_passive,rating_volition,"{""Q0"":0}",[0],The speaker identifies more with <br>Dave than Mike,The speaker identifies more with<br>Mike than Dave,left_to_right
null,Somebody says<br><em>Fred is flirting with Mike</em>,NA,NA,NA,html-keyboard-response,37,533552,0.0-22.0-0.0,anomymised,6560c4cfd080ba12b16d8282,6564c91e96bf7c9509892edb,87972,1A,man,NA,null,NAME1 is flirting with NAME2,flirt_active,sentence,NA,NA,NA,NA,NA
4480.600000023842,NA,NA,NA,NA,survey-likert-extra-labels,38,538035,0.0-22.0-1.0,anomymised,6560c4cfd080ba12b16d8282,6564c91e96bf7c9509892edb,87972,1A,man,NA,NA,Somebody says<br><em>Fred is flirting with Mike</em>,flirt_active,rating_volition,"{""Q0"":6}",[0],The speaker identifies more with <br>Mike than Fred,The speaker identifies more with<br>Fred than Mike,right_to_left
null,Somebody says<br><em>Luke is marrying Beth</em>,NA,NA,NA,html-keyboard-response,39,540046,0.0-23.0-0.0,anomymised,6560c4cfd080ba12b16d8282,6564c91e96bf7c9509892edb,87972,1A,man,NA,null,NAME1 is marrying NAME2,marry_active,sentence,NA,NA,NA,NA,NA
6714.699999928474,NA,NA,NA,NA,survey-likert-extra-labels,40,546763,0.0-23.0-1.0,anomymised,6560c4cfd080ba12b16d8282,6564c91e96bf7c9509892edb,87972,1A,man,NA,NA,Somebody says<br><em>Luke is marrying Beth</em>,marry_active,rating_volition,"{""Q0"":0}",[0],The speaker identifies more with <br>Luke than Beth,The speaker identifies more with<br>Beth than Luke,left_to_right
null,Somebody says<br><em>Mike and Luke are marrying each other</em>,NA,NA,NA,html-keyboard-response,41,548772,0.0-24.0-0.0,anomymised,6560c4cfd080ba12b16d8282,6564c91e96bf7c9509892edb,87972,1A,man,NA,null,NAME1 and NAME2 are marrying each other,marry_conjoined,sentence,NA,NA,NA,NA,NA
6592.899999976158,NA,NA,NA,NA,survey-likert-extra-labels,42,555367,0.0-24.0-1.0,anomymised,6560c4cfd080ba12b16d8282,6564c91e96bf7c9509892edb,87972,1A,man,NA,NA,Somebody says<br><em>Mike and Luke are marrying each other</em>,marry_conjoined,rating_volition,"{""Q0"":6}",[0],The speaker identifies more with <br>Luke than Mike,The speaker identifies more with<br>Mike than Luke,right_to_left
null,Somebody says<br><em>Mike is looking at Fred</em>,NA,NA,NA,html-keyboard-response,43,557384,0.0-25.0-0.0,anomymised,6560c4cfd080ba12b16d8282,6564c91e96bf7c9509892edb,87972,1A,man,NA,null,NAME1 is looking at NAME2,look_active,sentence,NA,NA,NA,NA,NA
3791.8000000715256,NA,NA,NA,NA,survey-likert-extra-labels,44,561178,0.0-25.0-1.0,anomymised,6560c4cfd080ba12b16d8282,6564c91e96bf7c9509892edb,87972,1A,man,NA,NA,Somebody says<br><em>Mike is looking at Fred</em>,look_active,rating_volition,"{""Q0"":0}",[0],The speaker identifies more with <br>Mike than Fred,The speaker identifies more with<br>Fred than Mike,left_to_right
null,Somebody says<br><em>Ruth is being looked at by Kate</em>,NA,NA,NA,html-keyboard-response,45,563195,0.0-26.0-0.0,anomymised,6560c4cfd080ba12b16d8282,6564c91e96bf7c9509892edb,87972,1A,man,NA,null,NAME1 is being looked at by NAME2,look_passive,sentence,NA,NA,NA,NA,NA
18714,NA,NA,NA,NA,survey-likert-extra-labels,46,581910,0.0-26.0-1.0,anomymised,6560c4cfd080ba12b16d8282,6564c91e96bf7c9509892edb,87972,1A,man,NA,NA,Somebody says<br><em>Ruth is being looked at by Kate</em>,look_passive,rating_volition,"{""Q0"":3}",[0],The speaker identifies more with <br>Kate than Ruth,The speaker identifies more with<br>Ruth than Kate,right_to_left
null,Somebody says<br><em>Jane is shouting at Dave</em>,NA,NA,NA,html-keyboard-response,47,583922,0.0-27.0-0.0,anomymised,6560c4cfd080ba12b16d8282,6564c91e96bf7c9509892edb,87972,1A,man,NA,null,NAME1 is shouting at NAME2,shout_active,sentence,NA,NA,NA,NA,NA
4627.800000071526,NA,NA,NA,NA,survey-likert-extra-labels,48,588552,0.0-27.0-1.0,anomymised,6560c4cfd080ba12b16d8282,6564c91e96bf7c9509892edb,87972,1A,man,NA,NA,Somebody says<br><em>Jane is shouting at Dave</em>,shout_active,rating_volition,"{""Q0"":0}",[0],The speaker identifies more with <br>Jane than Dave,The speaker identifies more with<br>Dave than Jane,left_to_right
null,Somebody says<br><em>Luke and Kate are talking with each other</em>,NA,NA,NA,html-keyboard-response,49,590574,0.0-28.0-0.0,anomymised,6560c4cfd080ba12b16d8282,6564c91e96bf7c9509892edb,87972,1A,man,NA,null,NAME1 and NAME2 are talking with each other,talk_conjoined,sentence,NA,NA,NA,NA,NA
7633.5,NA,NA,NA,NA,survey-likert-extra-labels,50,598209,0.0-28.0-1.0,anomymised,6560c4cfd080ba12b16d8282,6564c91e96bf7c9509892edb,87972,1A,man,NA,NA,Somebody says<br><em>Luke and Kate are talking with each other</em>,talk_conjoined,rating_volition,"{""Q0"":5}",[0],The speaker identifies more with <br>Kate than Luke,The speaker identifies more with<br>Luke than Kate,right_to_left
null,Somebody says<br><em>Dave is arguing with Beth</em>,NA,NA,NA,html-keyboard-response,51,600225,0.0-29.0-0.0,anomymised,6560c4cfd080ba12b16d8282,6564c91e96bf7c9509892edb,87972,1A,man,NA,null,NAME1 is arguing with NAME2,argue_active,sentence,NA,NA,NA,NA,NA
5098.100000023842,NA,NA,NA,NA,survey-likert-extra-labels,52,605325,0.0-29.0-1.0,anomymised,6560c4cfd080ba12b16d8282,6564c91e96bf7c9509892edb,87972,1A,man,NA,NA,Somebody says<br><em>Dave is arguing with Beth</em>,argue_active,rating_volition,"{""Q0"":6}",[0],The speaker identifies more with <br>Beth than Dave,The speaker identifies more with<br>Dave than Beth,right_to_left
null,Somebody says<br><em>Luke is opposing Kate</em>,NA,NA,NA,html-keyboard-response,53,607335,0.0-30.0-0.0,anomymised,6560c4cfd080ba12b16d8282,6564c91e96bf7c9509892edb,87972,1A,man,NA,null,NAME1 is opposing NAME2,oppose_active,sentence,NA,NA,NA,NA,NA
7854,NA,NA,NA,NA,survey-likert-extra-labels,54,615192,0.0-30.0-1.0,anomymised,6560c4cfd080ba12b16d8282,6564c91e96bf7c9509892edb,87972,1A,man,NA,NA,Somebody says<br><em>Luke is opposing Kate</em>,oppose_active,rating_volition,"{""Q0"":1}",[0],The speaker identifies more with <br>Luke than Kate,The speaker identifies more with<br>Kate than Luke,left_to_right
null,Somebody says<br><em>Dave is being shouted at by Ruth</em>,NA,NA,NA,html-keyboard-response,55,617211,0.0-31.0-0.0,anomymised,6560c4cfd080ba12b16d8282,6564c91e96bf7c9509892edb,87972,1A,man,NA,null,NAME1 is being shouted at by NAME2,shout_passive,sentence,NA,NA,NA,NA,NA
11975.600000023842,NA,NA,NA,NA,survey-likert-extra-labels,56,629189,0.0-31.0-1.0,anomymised,6560c4cfd080ba12b16d8282,6564c91e96bf7c9509892edb,87972,1A,man,NA,NA,Somebody says<br><em>Dave is being shouted at by Ruth</em>,shout_passive,rating_volition,"{""Q0"":4}",[0],The speaker identifies more with <br>Dave than Ruth,The speaker identifies more with<br>Ruth than Dave,left_to_right
null,Somebody says<br><em>Kate is feeding Luke,NA,NA,NA,html-keyboard-response,57,631210,0.0-32.0-0.0,anomymised,6560c4cfd080ba12b16d8282,6564c91e96bf7c9509892edb,87972,1A,man,NA,null,W3 is feeding M1,feed,sentence,NA,NA,NA,NA,NA
9102.600000023842,NA,NA,NA,NA,survey-likert-extra-labels,58,640314,0.0-32.0-1.0,anomymised,6560c4cfd080ba12b16d8282,6564c91e96bf7c9509892edb,87972,1A,man,NA,NA,Somebody says<br><em>Kate is feeding Luke,feed,rating_volition,"{""Q0"":0}",[0],Kate cooked for Luke,Luke cooked for Kate,NA
null,Somebody says<br><em>Kate and Ruth are dancing with each other</em>,NA,NA,NA,html-keyboard-response,59,642336,0.0-33.0-0.0,anomymised,6560c4cfd080ba12b16d8282,6564c91e96bf7c9509892edb,87972,1A,man,NA,null,NAME1 and NAME2 are dancing with each other,dance_conjoined,sentence,NA,NA,NA,NA,NA
27347.100000023842,NA,NA,NA,NA,survey-likert-extra-labels,60,669685,0.0-33.0-1.0,anomymised,6560c4cfd080ba12b16d8282,6564c91e96bf7c9509892edb,87972,1A,man,NA,NA,Somebody says<br><em>Kate and Ruth are dancing with each other</em>,dance_conjoined,rating_volition,"{""Q0"":1}",[0],The speaker identifies more with <br>Kate than Ruth,The speaker identifies more with<br>Ruth than Kate,left_to_right
null,Somebody says<br><em>Jane is teaching Dave,NA,NA,NA,html-keyboard-response,61,671705,0.0-34.0-0.0,anomymised,6560c4cfd080ba12b16d8282,6564c91e96bf7c9509892edb,87972,1A,man,NA,null,W2 is teaching M4,teach,sentence,NA,NA,NA,NA,NA
9260,NA,NA,NA,NA,survey-likert-extra-labels,62,680967,0.0-34.0-1.0,anomymised,6560c4cfd080ba12b16d8282,6564c91e96bf7c9509892edb,87972,1A,man,NA,NA,Somebody says<br><em>Jane is teaching Dave,teach,rating_volition,"{""Q0"":0}",[0],Jane is educating Dave,Dave is educating Jane,NA
null,Somebody says<br><em>Fred and Luke are flirting with each other</em>,NA,NA,NA,html-keyboard-response,63,682983,0.0-35.0-0.0,anomymised,6560c4cfd080ba12b16d8282,6564c91e96bf7c9509892edb,87972,1A,man,NA,null,NAME1 and NAME2 are flirting with each other,flirt_conjoined,sentence,NA,NA,NA,NA,NA
10220.300000071526,NA,NA,NA,NA,survey-likert-extra-labels,64,693205,0.0-35.0-1.0,anomymised,6560c4cfd080ba12b16d8282,6564c91e96bf7c9509892edb,87972,1A,man,NA,NA,Somebody says<br><em>Fred and Luke are flirting with each other</em>,flirt_conjoined,rating_volition,"{""Q0"":5}",[0],The speaker identifies more with <br>Luke than Fred,The speaker identifies more with<br>Fred than Luke,right_to_left
null,Somebody says<br><em>Mike is reminding Beth,NA,NA,NA,html-keyboard-response,65,695213,0.0-36.0-0.0,anomymised,6560c4cfd080ba12b16d8282,6564c91e96bf7c9509892edb,87972,1A,man,NA,null,M2 is reminding W4,remind,sentence,NA,NA,NA,NA,NA
5165.199999928474,NA,NA,NA,NA,survey-likert-extra-labels,66,700380,0.0-36.0-1.0,anomymised,6560c4cfd080ba12b16d8282,6564c91e96bf7c9509892edb,87972,1A,man,NA,NA,Somebody says<br><em>Mike is reminding Beth,remind,rating_volition,"{""Q0"":0}",[0],Mike is telling Beth again,Beth is telling Mike again,NA
null,Somebody says<br><em>Luke is hugging Mike</em>,NA,NA,NA,html-keyboard-response,67,702393,0.0-37.0-0.0,anomymised,6560c4cfd080ba12b16d8282,6564c91e96bf7c9509892edb,87972,1A,man,NA,null,NAME1 is hugging NAME2,hug_active,sentence,NA,NA,NA,NA,NA
6358.799999952316,NA,NA,NA,NA,survey-likert-extra-labels,68,708754,0.0-37.0-1.0,anomymised,6560c4cfd080ba12b16d8282,6564c91e96bf7c9509892edb,87972,1A,man,NA,NA,Somebody says<br><em>Luke is hugging Mike</em>,hug_active,rating_volition,"{""Q0"":5}",[0],The speaker identifies more with <br>Mike than Luke,The speaker identifies more with<br>Luke than Mike,right_to_left
null,Somebody says<br><em>Ruth is chasing Kate,NA,NA,NA,html-keyboard-response,69,710771,0.0-38.0-0.0,anomymised,6560c4cfd080ba12b16d8282,6564c91e96bf7c9509892edb,87972,1A,man,NA,null,W1 is chasing W3,chase,sentence,NA,NA,NA,NA,NA
4855.399999976158,NA,NA,NA,NA,survey-likert-extra-labels,70,715628,0.0-38.0-1.0,anomymised,6560c4cfd080ba12b16d8282,6564c91e96bf7c9509892edb,87972,1A,man,NA,NA,Somebody says<br><em>Ruth is chasing Kate,chase,rating_volition,"{""Q0"":0}",[0],Ruth is behind Kate,Kate is behind Ruth,NA
null,Somebody says<br><em>Kate and Fred are touching each other</em>,NA,NA,NA,html-keyboard-response,71,717639,0.0-39.0-0.0,anomymised,6560c4cfd080ba12b16d8282,6564c91e96bf7c9509892edb,87972,1A,man,NA,null,NAME1 and NAME2 are touching each other,touch_conjoined,sentence,NA,NA,NA,NA,NA
8531.299999952316,NA,NA,NA,NA,survey-likert-extra-labels,72,726173,0.0-39.0-1.0,anomymised,6560c4cfd080ba12b16d8282,6564c91e96bf7c9509892edb,87972,1A,man,NA,NA,Somebody says<br><em>Kate and Fred are touching each other</em>,touch_conjoined,rating_volition,"{""Q0"":4}",[0],The speaker identifies more with <br>Fred than Kate,The speaker identifies more with<br>Kate than Fred,right_to_left
null,Somebody says<br><em>Kate is being copied by Fred</em>,NA,NA,NA,html-keyboard-response,73,728188,0.0-40.0-0.0,anomymised,6560c4cfd080ba12b16d8282,6564c91e96bf7c9509892edb,87972,1A,man,NA,null,NAME1 is being copied by NAME2,copy_passive,sentence,NA,NA,NA,NA,NA
9709.799999952316,NA,NA,NA,NA,survey-likert-extra-labels,74,737900,0.0-40.0-1.0,anomymised,6560c4cfd080ba12b16d8282,6564c91e96bf7c9509892edb,87972,1A,man,NA,NA,Somebody says<br><em>Kate is being copied by Fred</em>,copy_passive,rating_volition,"{""Q0"":4}",[0],The speaker identifies more with <br>Fred than Kate,The speaker identifies more with<br>Kate than Fred,right_to_left
null,Somebody says<br><em>Kate is being touched by Mike</em>,NA,NA,NA,html-keyboard-response,75,739917,0.0-41.0-0.0,anomymised,6560c4cfd080ba12b16d8282,6564c91e96bf7c9509892edb,87972,1A,man,NA,null,NAME1 is being touched by NAME2,touch_passive,sentence,NA,NA,NA,NA,NA
9358.600000023842,NA,NA,NA,NA,survey-likert-extra-labels,76,749277,0.0-41.0-1.0,anomymised,6560c4cfd080ba12b16d8282,6564c91e96bf7c9509892edb,87972,1A,man,NA,NA,Somebody says<br><em>Kate is being touched by Mike</em>,touch_passive,rating_volition,"{""Q0"":0}",[0],The speaker identifies more with <br>Kate than Mike,The speaker identifies more with<br>Mike than Kate,left_to_right
null,Somebody says<br><em>Beth is talking to Ruth</em>,NA,NA,NA,html-keyboard-response,77,751287,0.0-42.0-0.0,anomymised,6560c4cfd080ba12b16d8282,6564c91e96bf7c9509892edb,87972,1A,man,NA,null,NAME1 is talking to NAME2,talk_active,sentence,NA,NA,NA,NA,NA
8696.600000023842,NA,NA,NA,NA,survey-likert-extra-labels,78,759986,0.0-42.0-1.0,anomymised,6560c4cfd080ba12b16d8282,6564c91e96bf7c9509892edb,87972,1A,man,NA,NA,Somebody says<br><em>Beth is talking to Ruth</em>,talk_active,rating_volition,"{""Q0"":5}",[0],The speaker identifies more with <br>Ruth than Beth,The speaker identifies more with<br>Beth than Ruth,right_to_left
null,Somebody says<br><em>Jane is greeting Kate</em>,NA,NA,NA,html-keyboard-response,79,762005,0.0-43.0-0.0,anomymised,6560c4cfd080ba12b16d8282,6564c91e96bf7c9509892edb,87972,1A,man,NA,null,NAME1 is greeting NAME2,greet_active,sentence,NA,NA,NA,NA,NA
6647.600000023842,NA,NA,NA,NA,survey-likert-extra-labels,80,768655,0.0-43.0-1.0,anomymised,6560c4cfd080ba12b16d8282,6564c91e96bf7c9509892edb,87972,1A,man,NA,NA,Somebody says<br><em>Jane is greeting Kate</em>,greet_active,rating_volition,"{""Q0"":1}",[0],The speaker identifies more with <br>Jane than Kate,The speaker identifies more with<br>Kate than Jane,left_to_right
null,Somebody says<br><em>Luke is being challenged by Ruth</em>,NA,NA,NA,html-keyboard-response,81,770663,0.0-44.0-0.0,anomymised,6560c4cfd080ba12b16d8282,6564c91e96bf7c9509892edb,87972,1A,man,NA,null,NAME1 is being challenged by NAME2,challenge_passive,sentence,NA,NA,NA,NA,NA
6730.400000095367,NA,NA,NA,NA,survey-likert-extra-labels,82,777395,0.0-44.0-1.0,anomymised,6560c4cfd080ba12b16d8282,6564c91e96bf7c9509892edb,87972,1A,man,NA,NA,Somebody says<br><em>Luke is being challenged by Ruth</em>,challenge_passive,rating_volition,"{""Q0"":1}",[0],The speaker identifies more with <br>Luke than Ruth,The speaker identifies more with<br>Ruth than Luke,left_to_right
null,Somebody says<br><em>Fred is challenging Ruth</em>,NA,NA,NA,html-keyboard-response,83,779405,0.0-45.0-0.0,anomymised,6560c4cfd080ba12b16d8282,6564c91e96bf7c9509892edb,87972,1A,man,NA,null,NAME1 is challenging NAME2,challenge_active,sentence,NA,NA,NA,NA,NA
4066.6999999284744,NA,NA,NA,NA,survey-likert-extra-labels,84,783474,0.0-45.0-1.0,anomymised,6560c4cfd080ba12b16d8282,6564c91e96bf7c9509892edb,87972,1A,man,NA,NA,Somebody says<br><em>Fred is challenging Ruth</em>,challenge_active,rating_volition,"{""Q0"":5}",[0],The speaker identifies more with <br>Ruth than Fred,The speaker identifies more with<br>Fred than Ruth,right_to_left
null,Somebody says<br><em>Jane is carrying Beth,NA,NA,NA,html-keyboard-response,85,785485,0.0-46.0-0.0,anomymised,6560c4cfd080ba12b16d8282,6564c91e96bf7c9509892edb,87972,1A,man,NA,null,W2 is carrying W4,carry,sentence,NA,NA,NA,NA,NA
4210.100000023842,NA,NA,NA,NA,survey-likert-extra-labels,86,789697,0.0-46.0-1.0,anomymised,6560c4cfd080ba12b16d8282,6564c91e96bf7c9509892edb,87972,1A,man,NA,NA,Somebody says<br><em>Jane is carrying Beth,carry,rating_volition,"{""Q0"":0}",[0],Jane is transporting Beth,Beth is transporting Jane,NA
null,Somebody says<br><em>Luke and Kate are playing with each other</em>,NA,NA,NA,html-keyboard-response,87,791711,0.0-47.0-0.0,anomymised,6560c4cfd080ba12b16d8282,6564c91e96bf7c9509892edb,87972,1A,man,NA,null,NAME1 and NAME2 are playing with each other,play_conjoined,sentence,NA,NA,NA,NA,NA
5619.299999952316,NA,NA,NA,NA,survey-likert-extra-labels,88,797333,0.0-47.0-1.0,anomymised,6560c4cfd080ba12b16d8282,6564c91e96bf7c9509892edb,87972,1A,man,NA,NA,Somebody says<br><em>Luke and Kate are playing with each other</em>,play_conjoined,rating_volition,"{""Q0"":5}",[0],The speaker identifies more with <br>Kate than Luke,The speaker identifies more with<br>Luke than Kate,right_to_left
null,Somebody says<br><em>Mike is seducing Dave</em>,NA,NA,NA,html-keyboard-response,89,799344,0.0-48.0-0.0,anomymised,6560c4cfd080ba12b16d8282,6564c91e96bf7c9509892edb,87972,1A,man,NA,null,NAME1 is seducing NAME2,seduce_active,sentence,NA,NA,NA,NA,NA
5304.099999904633,NA,NA,NA,NA,survey-likert-extra-labels,90,804650,0.0-48.0-1.0,anomymised,6560c4cfd080ba12b16d8282,6564c91e96bf7c9509892edb,87972,1A,man,NA,NA,Somebody says<br><em>Mike is seducing Dave</em>,seduce_active,rating_volition,"{""Q0"":5}",[0],The speaker identifies more with <br>Dave than Mike,The speaker identifies more with<br>Mike than Dave,right_to_left
null,Somebody says<br><em>Kate is being hugged by Fred</em>,NA,NA,NA,html-keyboard-response,91,806665,0.0-49.0-0.0,anomymised,6560c4cfd080ba12b16d8282,6564c91e96bf7c9509892edb,87972,1A,man,NA,null,NAME1 is being hugged by NAME2,hug_passive,sentence,NA,NA,NA,NA,NA
9924.099999904633,NA,NA,NA,NA,survey-likert-extra-labels,92,816591,0.0-49.0-1.0,anomymised,6560c4cfd080ba12b16d8282,6564c91e96bf7c9509892edb,87972,1A,man,NA,NA,Somebody says<br><em>Kate is being hugged by Fred</em>,hug_passive,rating_volition,"{""Q0"":1}",[0],The speaker identifies more with <br>Fred than Kate,The speaker identifies more with<br>Kate than Fred,right_to_left
null,Somebody says<br><em>Ruth is copying Jane</em>,NA,NA,NA,html-keyboard-response,93,818611,0.0-50.0-0.0,anomymised,6560c4cfd080ba12b16d8282,6564c91e96bf7c9509892edb,87972,1A,man,NA,null,NAME1 is copying NAME2,copy_active,sentence,NA,NA,NA,NA,NA
6205.899999976158,NA,NA,NA,NA,survey-likert-extra-labels,94,824819,0.0-50.0-1.0,anomymised,6560c4cfd080ba12b16d8282,6564c91e96bf7c9509892edb,87972,1A,man,NA,NA,Somebody says<br><em>Ruth is copying Jane</em>,copy_active,rating_volition,"{""Q0"":5}",[0],The speaker identifies more with <br>Ruth than Jane,The speaker identifies more with<br>Jane than Ruth,left_to_right
null,Somebody says<br><em>Luke is touching Beth</em>,NA,NA,NA,html-keyboard-response,95,826832,0.0-51.0-0.0,anomymised,6560c4cfd080ba12b16d8282,6564c91e96bf7c9509892edb,87972,1A,man,NA,null,NAME1 is touching NAME2,touch_active,sentence,NA,NA,NA,NA,NA
41658,NA,NA,NA,NA,survey-likert-extra-labels,96,868492,0.0-51.0-1.0,anomymised,6560c4cfd080ba12b16d8282,6564c91e96bf7c9509892edb,87972,1A,man,NA,NA,Somebody says<br><em>Luke is touching Beth</em>,touch_active,rating_volition,"{""Q0"":5}",[0],The speaker identifies more with <br>Beth than Luke,The speaker identifies more with<br>Luke than Beth,right_to_left
null,Somebody says<br><em>Fred and Mike are arguing with each other</em>,NA,NA,NA,html-keyboard-response,97,870509,0.0-52.0-0.0,anomymised,6560c4cfd080ba12b16d8282,6564c91e96bf7c9509892edb,87972,1A,man,NA,null,NAME1 and NAME2 are arguing with each other,argue_conjoined,sentence,NA,NA,NA,NA,NA
5334.199999928474,NA,NA,NA,NA,survey-likert-extra-labels,98,875845,0.0-52.0-1.0,anomymised,6560c4cfd080ba12b16d8282,6564c91e96bf7c9509892edb,87972,1A,man,NA,NA,Somebody says<br><em>Fred and Mike are arguing with each other</em>,argue_conjoined,rating_volition,"{""Q0"":5}",[0],The speaker identifies more with <br>Mike than Fred,The speaker identifies more with<br>Fred than Mike,right_to_left
null,Somebody says<br><em>Kate is being opposed by Ruth</em>,NA,NA,NA,html-keyboard-response,99,877853,0.0-53.0-0.0,anomymised,6560c4cfd080ba12b16d8282,6564c91e96bf7c9509892edb,87972,1A,man,NA,null,NAME1 is being opposed by NAME2,oppose_passive,sentence,NA,NA,NA,NA,NA
8398.800000071526,NA,NA,NA,NA,survey-likert-extra-labels,100,886254,0.0-53.0-1.0,anomymised,6560c4cfd080ba12b16d8282,6564c91e96bf7c9509892edb,87972,1A,man,NA,NA,Somebody says<br><em>Kate is being opposed by Ruth</em>,oppose_passive,rating_volition,"{""Q0"":5}",[0],The speaker identifies more with <br>Ruth than Kate,The speaker identifies more with<br>Kate than Ruth,right_to_left
null,Somebody says<br><em>Dave is being greeted by Jane</em>,NA,NA,NA,html-keyboard-response,101,888272,0.0-54.0-0.0,anomymised,6560c4cfd080ba12b16d8282,6564c91e96bf7c9509892edb,87972,1A,man,NA,null,NAME1 is being greeted by NAME2,greet_passive,sentence,NA,NA,NA,NA,NA
4974,NA,NA,NA,NA,survey-likert-extra-labels,102,893249,0.0-54.0-1.0,anomymised,6560c4cfd080ba12b16d8282,6564c91e96bf7c9509892edb,87972,1A,man,NA,NA,Somebody says<br><em>Dave is being greeted by Jane</em>,greet_passive,rating_volition,"{""Q0"":1}",[0],The speaker identifies more with <br>Dave than Jane,The speaker identifies more with<br>Jane than Dave,left_to_right
null,Somebody says<br><em>Dave is fighting with Fred</em>,NA,NA,NA,html-keyboard-response,103,895261,0.0-55.0-0.0,anomymised,6560c4cfd080ba12b16d8282,6564c91e96bf7c9509892edb,87972,1A,man,NA,null,NAME1 is fighting with NAME2,fight_active,sentence,NA,NA,NA,NA,NA
3689.100000023842,NA,NA,NA,NA,survey-likert-extra-labels,104,898952,0.0-55.0-1.0,anomymised,6560c4cfd080ba12b16d8282,6564c91e96bf7c9509892edb,87972,1A,man,NA,NA,Somebody says<br><em>Dave is fighting with Fred</em>,fight_active,rating_volition,"{""Q0"":1}",[0],The speaker identifies more with <br>Dave than Fred,The speaker identifies more with<br>Fred than Dave,left_to_right
3375,<p>Thank you for completing that task.</p><p>The final part of this session is a short questionnaire.</p><p>Press Continue.</p>,0,Continue,Continue,html-button-response,105,902337,0.0-56.0,anomymised,6560c4cfd080ba12b16d8282,6564c91e96bf7c9509892edb,87972,1A,man,NA,NA,NA,NA,NA,NA,NA,NA,NA,NA
76739,NA,NA,NA,NA,survey-text,106,980099,0.0-57.0,anomymised,6560c4cfd080ba12b16d8282,6564c91e96bf7c9509892edb,87972,1A,man,NA,NA,NA,NA,demographics,"{""Q0"":""66"",""Q1"":""English "",""Q2"":""English "",""Q3"":""England "",""Q4"":""English "",""Q5"":""Anglo-Saxon "",""Q6"":""Male ""}",NA,NA,NA,NA
5519.399999976158,<p>This is the last question - thank you for taking part! Have you lived in the UK for the last 5 years or more?</p>,0,"Yes,No",Yes,html-button-response,107,985621,0.0-58.0,anomymised,6560c4cfd080ba12b16d8282,6564c91e96bf7c9509892edb,87972,1A,man,NA,NA,NA,NA,fiveyears,NA,NA,NA,NA,NA
