rt,stimulus,button_pressed,choices,ChosenStimulus,trial_type,trial_index,time_elapsed,internal_node_id,subject_id,study_id,session_id,subject,list,ppt_gender,url,key_press,sentence_type,verb,test_part,responses,question_order,left_part,right_part,name_order
10946.39999999851,Welcome to the experiment. Press Continue to begin.,0,Continue,Continue,html-button-response,0,10961,0.0-0.0,anomymised,6564584152624795c40b73cb,65645dafb5b7e95e37b780e6,9200,1A,woman,NA,NA,NA,NA,NA,NA,NA,NA,NA,NA
79330.10000000149,NA,NA,NA,NA,external-html,1,91353,0.0-1.0,anomymised,6564584152624795c40b73cb,65645dafb5b7e95e37b780e6,9200,1A,woman,consent.html,NA,NA,NA,NA,NA,NA,NA,NA,NA
5160,"<p>Welcome.</p><p>In this experiment we will ask you to imagine people's motivations for saying sentences.</p><p>Each trial will begin with a sentence that somebody might say to describe an event involving two different people.</p><p>For instance, someone might say <em>Harry is being recruited by Molly</em></p><p>We want you to think about which of those two people (Molly and Harry) the speaker identifies more with. For instance, why did the speaker say <em>Harry is being recruited by Molly</em> rather than <em> Molly is recruiting Harry</em>? Might that mean that the speaker is socially closer to one of the two characters?</p><p>After you have read the sentence, you will rate on a scale which of the two characters the speaker identifies more with.</p><p>You will give your answer by clicking a button on a rating scale.</p><p>Sometimes there will also be catch questions designed to make sure that you are paying attention, which ask about a different topic.</p><p>To do this task, you will have to use your imagination to think about and visualise the events, and how the speaker might relate to the characters.</p><br><p>Ready?</p>",0,Continue,Continue,html-button-response,2,96515,0.0-2.0,anomymised,6564584152624795c40b73cb,65645dafb5b7e95e37b780e6,9200,1A,woman,NA,NA,NA,NA,NA,NA,NA,NA,NA,NA
2548.89999999851,"<p>Before the experiment starts, we will show you an example of how you will answer the questions. Press 'Continue'.</p>",0,Continue,Continue,html-button-response,3,100073,0.0-3.0,anomymised,6564584152624795c40b73cb,65645dafb5b7e95e37b780e6,9200,1A,woman,NA,NA,NA,NA,NA,NA,NA,NA,NA,NA
null,Somebody says <br><em>Samuel is dining with Frank</em>,NA,NA,NA,html-keyboard-response,4,103087,0.0-4.0,anomymised,6564584152624795c40b73cb,65645dafb5b7e95e37b780e6,9200,1A,woman,NA,null,NA,NA,NA,NA,NA,NA,NA,NA
6497.19999999553,<img src='img/Example-trial.jpg' style='height:550px;''></img>,0,Continue,Continue,html-button-response,5,109585,0.0-5.0,anomymised,6564584152624795c40b73cb,65645dafb5b7e95e37b780e6,9200,1A,woman,NA,NA,NA,NA,NA,NA,NA,NA,NA,NA
1945,<p>Ready to start the experiment?</p><br><p><strong>Remember to give an answer by clicking a button on the rating scale.</strong></p><p>Press 'Continue' to begin.</p>,0,Continue,Continue,html-button-response,6,112535,0.0-6.0,anomymised,6564584152624795c40b73cb,65645dafb5b7e95e37b780e6,9200,1A,woman,NA,NA,NA,NA,NA,NA,NA,NA,NA,NA
null,Somebody says<br><em>Ruth is challenging Fred</em>,NA,NA,NA,html-keyboard-response,7,115556,0.0-7.0-0.0,anomymised,6564584152624795c40b73cb,65645dafb5b7e95e37b780e6,9200,1A,woman,NA,null,NAME1 is challenging NAME2,challenge_active,sentence,NA,NA,NA,NA,NA
7636,NA,NA,NA,NA,survey-likert-extra-labels,8,123196,0.0-7.0-1.0,anomymised,6564584152624795c40b73cb,65645dafb5b7e95e37b780e6,9200,1A,woman,NA,NA,Somebody says<br><em>Ruth is challenging Fred</em>,challenge_active,rating_volition,"{""Q0"":4}",[0],The speaker identifies more with <br>Fred than Ruth,The speaker identifies more with<br>Ruth than Fred,right_to_left
null,Somebody says<br><em>Beth is talking to Ruth</em>,NA,NA,NA,html-keyboard-response,9,125207,0.0-8.0-0.0,anomymised,6564584152624795c40b73cb,65645dafb5b7e95e37b780e6,9200,1A,woman,NA,null,NAME1 is talking to NAME2,talk_active,sentence,NA,NA,NA,NA,NA
3078.2000000029802,NA,NA,NA,NA,survey-likert-extra-labels,10,128288,0.0-8.0-1.0,anomymised,6564584152624795c40b73cb,65645dafb5b7e95e37b780e6,9200,1A,woman,NA,NA,Somebody says<br><em>Beth is talking to Ruth</em>,talk_active,rating_volition,"{""Q0"":4}",[0],The speaker identifies more with <br>Ruth than Beth,The speaker identifies more with<br>Beth than Ruth,right_to_left
null,Somebody says<br><em>Ruth is kissing Beth</em>,NA,NA,NA,html-keyboard-response,11,130295,0.0-9.0-0.0,anomymised,6564584152624795c40b73cb,65645dafb5b7e95e37b780e6,9200,1A,woman,NA,null,NAME1 is kissing NAME2,kiss_active,sentence,NA,NA,NA,NA,NA
2073.39999999851,NA,NA,NA,NA,survey-likert-extra-labels,12,132370,0.0-9.0-1.0,anomymised,6564584152624795c40b73cb,65645dafb5b7e95e37b780e6,9200,1A,woman,NA,NA,Somebody says<br><em>Ruth is kissing Beth</em>,kiss_active,rating_volition,"{""Q0"":4}",[0],The speaker identifies more with <br>Beth than Ruth,The speaker identifies more with<br>Ruth than Beth,right_to_left
null,Somebody says<br><em>Fred is marrying Dave</em>,NA,NA,NA,html-keyboard-response,13,134372,0.0-10.0-0.0,anomymised,6564584152624795c40b73cb,65645dafb5b7e95e37b780e6,9200,1A,woman,NA,null,NAME1 is marrying NAME2,marry_active,sentence,NA,NA,NA,NA,NA
3371,NA,NA,NA,NA,survey-likert-extra-labels,14,137744,0.0-10.0-1.0,anomymised,6564584152624795c40b73cb,65645dafb5b7e95e37b780e6,9200,1A,woman,NA,NA,Somebody says<br><em>Fred is marrying Dave</em>,marry_active,rating_volition,"{""Q0"":1}",[0],The speaker identifies more with <br>Fred than Dave,The speaker identifies more with<br>Dave than Fred,left_to_right
null,Somebody says<br><em>Mike is posing for Dave,NA,NA,NA,html-keyboard-response,15,139758,0.0-11.0-0.0,anomymised,6564584152624795c40b73cb,65645dafb5b7e95e37b780e6,9200,1A,woman,NA,null,M2 is posing for M4,pose,sentence,NA,NA,NA,NA,NA
8514.30000000447,NA,NA,NA,NA,survey-likert-extra-labels,16,148274,0.0-11.0-1.0,anomymised,6564584152624795c40b73cb,65645dafb5b7e95e37b780e6,9200,1A,woman,NA,NA,Somebody says<br><em>Mike is posing for Dave,pose,rating_volition,"{""Q0"":0}",[0],Mike is modelling for Dave,Dave is modelling for Mike,NA
null,Somebody says<br><em>Fred is being copied by Kate</em>,NA,NA,NA,html-keyboard-response,17,150280,0.0-12.0-0.0,anomymised,6564584152624795c40b73cb,65645dafb5b7e95e37b780e6,9200,1A,woman,NA,null,NAME1 is being copied by NAME2,copy_passive,sentence,NA,NA,NA,NA,NA
5350,NA,NA,NA,NA,survey-likert-extra-labels,18,155631,0.0-12.0-1.0,anomymised,6564584152624795c40b73cb,65645dafb5b7e95e37b780e6,9200,1A,woman,NA,NA,Somebody says<br><em>Fred is being copied by Kate</em>,copy_passive,rating_volition,"{""Q0"":5}",[0],The speaker identifies more with <br>Kate than Fred,The speaker identifies more with<br>Fred than Kate,right_to_left
null,Somebody says<br><em>Dave is seducing Kate</em>,NA,NA,NA,html-keyboard-response,19,157634,0.0-13.0-0.0,anomymised,6564584152624795c40b73cb,65645dafb5b7e95e37b780e6,9200,1A,woman,NA,null,NAME1 is seducing NAME2,seduce_active,sentence,NA,NA,NA,NA,NA
9097.70000000298,NA,NA,NA,NA,survey-likert-extra-labels,20,166733,0.0-13.0-1.0,anomymised,6564584152624795c40b73cb,65645dafb5b7e95e37b780e6,9200,1A,woman,NA,NA,Somebody says<br><em>Dave is seducing Kate</em>,seduce_active,rating_volition,"{""Q0"":3}",[0],The speaker identifies more with <br>Kate than Dave,The speaker identifies more with<br>Dave than Kate,right_to_left
null,Somebody says<br><em>Beth and Dave are arguing with each other</em>,NA,NA,NA,html-keyboard-response,21,168734,0.0-14.0-0.0,anomymised,6564584152624795c40b73cb,65645dafb5b7e95e37b780e6,9200,1A,woman,NA,null,NAME1 and NAME2 are arguing with each other,argue_conjoined,sentence,NA,NA,NA,NA,NA
4917.89999999851,NA,NA,NA,NA,survey-likert-extra-labels,22,173653,0.0-14.0-1.0,anomymised,6564584152624795c40b73cb,65645dafb5b7e95e37b780e6,9200,1A,woman,NA,NA,Somebody says<br><em>Beth and Dave are arguing with each other</em>,argue_conjoined,rating_volition,"{""Q0"":3}",[0],The speaker identifies more with <br>Dave than Beth,The speaker identifies more with<br>Beth than Dave,right_to_left
null,Somebody says<br><em>Luke is being kissed by Dave</em>,NA,NA,NA,html-keyboard-response,23,175663,0.0-15.0-0.0,anomymised,6564584152624795c40b73cb,65645dafb5b7e95e37b780e6,9200,1A,woman,NA,null,NAME1 is being kissed by NAME2,kiss_passive,sentence,NA,NA,NA,NA,NA
10284.69999999553,NA,NA,NA,NA,survey-likert-extra-labels,24,185949,0.0-15.0-1.0,anomymised,6564584152624795c40b73cb,65645dafb5b7e95e37b780e6,9200,1A,woman,NA,NA,Somebody says<br><em>Luke is being kissed by Dave</em>,kiss_passive,rating_volition,"{""Q0"":4}",[0],The speaker identifies more with <br>Luke than Dave,The speaker identifies more with<br>Dave than Luke,left_to_right
null,Somebody says<br><em>Luke is driving Fred,NA,NA,NA,html-keyboard-response,25,187965,0.0-16.0-0.0,anomymised,6564584152624795c40b73cb,65645dafb5b7e95e37b780e6,9200,1A,woman,NA,null,M1 is driving M3,drive,sentence,NA,NA,NA,NA,NA
5275.20000000298,NA,NA,NA,NA,survey-likert-extra-labels,26,193241,0.0-16.0-1.0,anomymised,6564584152624795c40b73cb,65645dafb5b7e95e37b780e6,9200,1A,woman,NA,NA,Somebody says<br><em>Luke is driving Fred,drive,rating_volition,"{""Q0"":6}",[0],Luke is Fred's passenger,Fred is Luke's passenger,NA
null,Somebody says<br><em>Jane is copying Kate</em>,NA,NA,NA,html-keyboard-response,27,195254,0.0-17.0-0.0,anomymised,6564584152624795c40b73cb,65645dafb5b7e95e37b780e6,9200,1A,woman,NA,null,NAME1 is copying NAME2,copy_active,sentence,NA,NA,NA,NA,NA
14135.20000000298,NA,NA,NA,NA,survey-likert-extra-labels,28,209390,0.0-17.0-1.0,anomymised,6564584152624795c40b73cb,65645dafb5b7e95e37b780e6,9200,1A,woman,NA,NA,Somebody says<br><em>Jane is copying Kate</em>,copy_active,rating_volition,"{""Q0"":2}",[0],The speaker identifies more with <br>Kate than Jane,The speaker identifies more with<br>Jane than Kate,right_to_left
null,Somebody says<br><em>Ruth is chasing Kate,NA,NA,NA,html-keyboard-response,29,211398,0.0-18.0-0.0,anomymised,6564584152624795c40b73cb,65645dafb5b7e95e37b780e6,9200,1A,woman,NA,null,W1 is chasing W3,chase,sentence,NA,NA,NA,NA,NA
4257.79999999702,NA,NA,NA,NA,survey-likert-extra-labels,30,215657,0.0-18.0-1.0,anomymised,6564584152624795c40b73cb,65645dafb5b7e95e37b780e6,9200,1A,woman,NA,NA,Somebody says<br><em>Ruth is chasing Kate,chase,rating_volition,"{""Q0"":0}",[0],Ruth is behind Kate,Kate is behind Ruth,NA
null,Somebody says<br><em>Mike is being seduced by Ruth</em>,NA,NA,NA,html-keyboard-response,31,217671,0.0-19.0-0.0,anomymised,6564584152624795c40b73cb,65645dafb5b7e95e37b780e6,9200,1A,woman,NA,null,NAME1 is being seduced by NAME2,seduce_passive,sentence,NA,NA,NA,NA,NA
4401.69999999553,NA,NA,NA,NA,survey-likert-extra-labels,32,222074,0.0-19.0-1.0,anomymised,6564584152624795c40b73cb,65645dafb5b7e95e37b780e6,9200,1A,woman,NA,NA,Somebody says<br><em>Mike is being seduced by Ruth</em>,seduce_passive,rating_volition,"{""Q0"":4}",[0],The speaker identifies more with <br>Ruth than Mike,The speaker identifies more with<br>Mike than Ruth,right_to_left
null,Somebody says<br><em>Jane is carrying Beth,NA,NA,NA,html-keyboard-response,33,224087,0.0-20.0-0.0,anomymised,6564584152624795c40b73cb,65645dafb5b7e95e37b780e6,9200,1A,woman,NA,null,W2 is carrying W4,carry,sentence,NA,NA,NA,NA,NA
2953.89999999851,NA,NA,NA,NA,survey-likert-extra-labels,34,227042,0.0-20.0-1.0,anomymised,6564584152624795c40b73cb,65645dafb5b7e95e37b780e6,9200,1A,woman,NA,NA,Somebody says<br><em>Jane is carrying Beth,carry,rating_volition,"{""Q0"":0}",[0],Jane is transporting Beth,Beth is transporting Jane,NA
null,Somebody says<br><em>Beth and Dave are dancing with each other</em>,NA,NA,NA,html-keyboard-response,35,229045,0.0-21.0-0.0,anomymised,6564584152624795c40b73cb,65645dafb5b7e95e37b780e6,9200,1A,woman,NA,null,NAME1 and NAME2 are dancing with each other,dance_conjoined,sentence,NA,NA,NA,NA,NA
2756.5,NA,NA,NA,NA,survey-likert-extra-labels,36,231803,0.0-21.0-1.0,anomymised,6564584152624795c40b73cb,65645dafb5b7e95e37b780e6,9200,1A,woman,NA,NA,Somebody says<br><em>Beth and Dave are dancing with each other</em>,dance_conjoined,rating_volition,"{""Q0"":3}",[0],The speaker identifies more with <br>Dave than Beth,The speaker identifies more with<br>Beth than Dave,right_to_left
null,Somebody says<br><em>Mike is meeting Luke</em>,NA,NA,NA,html-keyboard-response,37,233811,0.0-22.0-0.0,anomymised,6564584152624795c40b73cb,65645dafb5b7e95e37b780e6,9200,1A,woman,NA,null,NAME1 is meeting NAME2,meet_active,sentence,NA,NA,NA,NA,NA
2913.89999999851,NA,NA,NA,NA,survey-likert-extra-labels,38,236726,0.0-22.0-1.0,anomymised,6564584152624795c40b73cb,65645dafb5b7e95e37b780e6,9200,1A,woman,NA,NA,Somebody says<br><em>Mike is meeting Luke</em>,meet_active,rating_volition,"{""Q0"":2}",[0],The speaker identifies more with <br>Mike than Luke,The speaker identifies more with<br>Luke than Mike,left_to_right
null,Somebody says<br><em>Fred and Dave are fighting with each other</em>,NA,NA,NA,html-keyboard-response,39,238730,0.0-23.0-0.0,anomymised,6564584152624795c40b73cb,65645dafb5b7e95e37b780e6,9200,1A,woman,NA,null,NAME1 and NAME2 are fighting with each other,fight_conjoined,sentence,NA,NA,NA,NA,NA
1063.7999999970198,NA,NA,NA,NA,survey-likert-extra-labels,40,239794,0.0-23.0-1.0,anomymised,6564584152624795c40b73cb,65645dafb5b7e95e37b780e6,9200,1A,woman,NA,NA,Somebody says<br><em>Fred and Dave are fighting with each other</em>,fight_conjoined,rating_volition,"{""Q0"":3}",[0],The speaker identifies more with <br>Fred than Dave,The speaker identifies more with<br>Dave than Fred,left_to_right
null,Somebody says<br><em>Fred is dancing with Luke</em>,NA,NA,NA,html-keyboard-response,41,241803,0.0-24.0-0.0,anomymised,6564584152624795c40b73cb,65645dafb5b7e95e37b780e6,9200,1A,woman,NA,null,NAME1 is dancing with NAME2,dance_active,sentence,NA,NA,NA,NA,NA
26210.19999999553,NA,NA,NA,NA,survey-likert-extra-labels,42,268015,0.0-24.0-1.0,anomymised,6564584152624795c40b73cb,65645dafb5b7e95e37b780e6,9200,1A,woman,NA,NA,Somebody says<br><em>Fred is dancing with Luke</em>,dance_active,rating_volition,"{""Q0"":2}",[0],The speaker identifies more with <br>Fred than Luke,The speaker identifies more with<br>Luke than Fred,left_to_right
null,Somebody says<br><em>Ruth and Mike are touching each other</em>,NA,NA,NA,html-keyboard-response,43,270034,0.0-25.0-0.0,anomymised,6564584152624795c40b73cb,65645dafb5b7e95e37b780e6,9200,1A,woman,NA,null,NAME1 and NAME2 are touching each other,touch_conjoined,sentence,NA,NA,NA,NA,NA
2203.10000000149,NA,NA,NA,NA,survey-likert-extra-labels,44,272239,0.0-25.0-1.0,anomymised,6564584152624795c40b73cb,65645dafb5b7e95e37b780e6,9200,1A,woman,NA,NA,Somebody says<br><em>Ruth and Mike are touching each other</em>,touch_conjoined,rating_volition,"{""Q0"":3}",[0],The speaker identifies more with <br>Mike than Ruth,The speaker identifies more with<br>Ruth than Mike,right_to_left
null,Somebody says<br><em>Kate is being hugged by Beth</em>,NA,NA,NA,html-keyboard-response,45,274248,0.0-26.0-0.0,anomymised,6564584152624795c40b73cb,65645dafb5b7e95e37b780e6,9200,1A,woman,NA,null,NAME1 is being hugged by NAME2,hug_passive,sentence,NA,NA,NA,NA,NA
12354.19999999553,NA,NA,NA,NA,survey-likert-extra-labels,46,286604,0.0-26.0-1.0,anomymised,6564584152624795c40b73cb,65645dafb5b7e95e37b780e6,9200,1A,woman,NA,NA,Somebody says<br><em>Kate is being hugged by Beth</em>,hug_passive,rating_volition,"{""Q0"":2}",[0],The speaker identifies more with <br>Kate than Beth,The speaker identifies more with<br>Beth than Kate,left_to_right
null,Somebody says<br><em>Mike and Kate are talking with each other</em>,NA,NA,NA,html-keyboard-response,47,288614,0.0-27.0-0.0,anomymised,6564584152624795c40b73cb,65645dafb5b7e95e37b780e6,9200,1A,woman,NA,null,NAME1 and NAME2 are talking with each other,talk_conjoined,sentence,NA,NA,NA,NA,NA
2721.9000000059605,NA,NA,NA,NA,survey-likert-extra-labels,48,291338,0.0-27.0-1.0,anomymised,6564584152624795c40b73cb,65645dafb5b7e95e37b780e6,9200,1A,woman,NA,NA,Somebody says<br><em>Mike and Kate are talking with each other</em>,talk_conjoined,rating_volition,"{""Q0"":3}",[0],The speaker identifies more with <br>Mike than Kate,The speaker identifies more with<br>Kate than Mike,left_to_right
null,Somebody says<br><em>Jane and Beth are flirting with each other</em>,NA,NA,NA,html-keyboard-response,49,293355,0.0-28.0-0.0,anomymised,6564584152624795c40b73cb,65645dafb5b7e95e37b780e6,9200,1A,woman,NA,null,NAME1 and NAME2 are flirting with each other,flirt_conjoined,sentence,NA,NA,NA,NA,NA
2404.5,NA,NA,NA,NA,survey-likert-extra-labels,50,295761,0.0-28.0-1.0,anomymised,6564584152624795c40b73cb,65645dafb5b7e95e37b780e6,9200,1A,woman,NA,NA,Somebody says<br><em>Jane and Beth are flirting with each other</em>,flirt_conjoined,rating_volition,"{""Q0"":3}",[0],The speaker identifies more with <br>Beth than Jane,The speaker identifies more with<br>Jane than Beth,right_to_left
null,Somebody says<br><em>Kate and Ruth are playing with each other</em>,NA,NA,NA,html-keyboard-response,51,298616,0.0-29.0-0.0,anomymised,6564584152624795c40b73cb,65645dafb5b7e95e37b780e6,9200,1A,woman,NA,null,NAME1 and NAME2 are playing with each other,play_conjoined,sentence,NA,NA,NA,NA,NA
3846,NA,NA,NA,NA,survey-likert-extra-labels,52,302465,0.0-29.0-1.0,anomymised,6564584152624795c40b73cb,65645dafb5b7e95e37b780e6,9200,1A,woman,NA,NA,Somebody says<br><em>Kate and Ruth are playing with each other</em>,play_conjoined,rating_volition,"{""Q0"":3}",[0],The speaker identifies more with <br>Ruth than Kate,The speaker identifies more with<br>Kate than Ruth,right_to_left
null,Somebody says<br><em>Luke is opposing Mike</em>,NA,NA,NA,html-keyboard-response,53,304474,0.0-30.0-0.0,anomymised,6564584152624795c40b73cb,65645dafb5b7e95e37b780e6,9200,1A,woman,NA,null,NAME1 is opposing NAME2,oppose_active,sentence,NA,NA,NA,NA,NA
5517.80000000447,NA,NA,NA,NA,survey-likert-extra-labels,54,309994,0.0-30.0-1.0,anomymised,6564584152624795c40b73cb,65645dafb5b7e95e37b780e6,9200,1A,woman,NA,NA,Somebody says<br><em>Luke is opposing Mike</em>,oppose_active,rating_volition,"{""Q0"":2}",[0],The speaker identifies more with <br>Mike than Luke,The speaker identifies more with<br>Luke than Mike,right_to_left
null,Somebody says<br><em>Ruth is being touched by Mike</em>,NA,NA,NA,html-keyboard-response,55,312617,0.0-31.0-0.0,anomymised,6564584152624795c40b73cb,65645dafb5b7e95e37b780e6,9200,1A,woman,NA,null,NAME1 is being touched by NAME2,touch_passive,sentence,NA,NA,NA,NA,NA
10378.80000000447,NA,NA,NA,NA,survey-likert-extra-labels,56,322999,0.0-31.0-1.0,anomymised,6564584152624795c40b73cb,65645dafb5b7e95e37b780e6,9200,1A,woman,NA,NA,Somebody says<br><em>Ruth is being touched by Mike</em>,touch_passive,rating_volition,"{""Q0"":4}",[0],The speaker identifies more with <br>Mike than Ruth,The speaker identifies more with<br>Ruth than Mike,right_to_left
null,Somebody says<br><em>Ruth is greeting Fred</em>,NA,NA,NA,html-keyboard-response,57,325016,0.0-32.0-0.0,anomymised,6564584152624795c40b73cb,65645dafb5b7e95e37b780e6,9200,1A,woman,NA,null,NAME1 is greeting NAME2,greet_active,sentence,NA,NA,NA,NA,NA
11830.19999999553,NA,NA,NA,NA,survey-likert-extra-labels,58,336848,0.0-32.0-1.0,anomymised,6564584152624795c40b73cb,65645dafb5b7e95e37b780e6,9200,1A,woman,NA,NA,Somebody says<br><em>Ruth is greeting Fred</em>,greet_active,rating_volition,"{""Q0"":2}",[0],The speaker identifies more with <br>Ruth than Fred,The speaker identifies more with<br>Fred than Ruth,left_to_right
null,Somebody says<br><em>Mike and Fred are shouting at each other</em>,NA,NA,NA,html-keyboard-response,59,338853,0.0-33.0-0.0,anomymised,6564584152624795c40b73cb,65645dafb5b7e95e37b780e6,9200,1A,woman,NA,null,NAME1 and NAME2 are shouting at each other,shout_conjoined,sentence,NA,NA,NA,NA,NA
3863.2999999970198,NA,NA,NA,NA,survey-likert-extra-labels,60,342718,0.0-33.0-1.0,anomymised,6564584152624795c40b73cb,65645dafb5b7e95e37b780e6,9200,1A,woman,NA,NA,Somebody says<br><em>Mike and Fred are shouting at each other</em>,shout_conjoined,rating_volition,"{""Q0"":3}",[0],The speaker identifies more with <br>Fred than Mike,The speaker identifies more with<br>Mike than Fred,right_to_left
null,Somebody says<br><em>Mike is looking at Beth</em>,NA,NA,NA,html-keyboard-response,61,344735,0.0-34.0-0.0,anomymised,6564584152624795c40b73cb,65645dafb5b7e95e37b780e6,9200,1A,woman,NA,null,NAME1 is looking at NAME2,look_active,sentence,NA,NA,NA,NA,NA
7229.10000000149,NA,NA,NA,NA,survey-likert-extra-labels,62,351965,0.0-34.0-1.0,anomymised,6564584152624795c40b73cb,65645dafb5b7e95e37b780e6,9200,1A,woman,NA,NA,Somebody says<br><em>Mike is looking at Beth</em>,look_active,rating_volition,"{""Q0"":4}",[0],The speaker identifies more with <br>Beth than Mike,The speaker identifies more with<br>Mike than Beth,right_to_left
null,Somebody says<br><em>Fred is hiring Ruth,NA,NA,NA,html-keyboard-response,63,353968,0.0-35.0-0.0,anomymised,6564584152624795c40b73cb,65645dafb5b7e95e37b780e6,9200,1A,woman,NA,null,M3 is hiring W1,hire,sentence,NA,NA,NA,NA,NA
6158.70000000298,NA,NA,NA,NA,survey-likert-extra-labels,64,360129,0.0-35.0-1.0,anomymised,6564584152624795c40b73cb,65645dafb5b7e95e37b780e6,9200,1A,woman,NA,NA,Somebody says<br><em>Fred is hiring Ruth,hire,rating_volition,"{""Q0"":0}",[0],Fred is employing Ruth,Ruth is employing Fred,NA
null,Somebody says<br><em>Dave is hugging Ruth</em>,NA,NA,NA,html-keyboard-response,65,362145,0.0-36.0-0.0,anomymised,6564584152624795c40b73cb,65645dafb5b7e95e37b780e6,9200,1A,woman,NA,null,NAME1 is hugging NAME2,hug_active,sentence,NA,NA,NA,NA,NA
11479.60000000149,NA,NA,NA,NA,survey-likert-extra-labels,66,373626,0.0-36.0-1.0,anomymised,6564584152624795c40b73cb,65645dafb5b7e95e37b780e6,9200,1A,woman,NA,NA,Somebody says<br><em>Dave is hugging Ruth</em>,hug_active,rating_volition,"{""Q0"":4}",[0],The speaker identifies more with <br>Ruth than Dave,The speaker identifies more with<br>Dave than Ruth,right_to_left
null,Somebody says<br><em>Beth and Kate are hugging each other</em>,NA,NA,NA,html-keyboard-response,67,375629,0.0-37.0-0.0,anomymised,6564584152624795c40b73cb,65645dafb5b7e95e37b780e6,9200,1A,woman,NA,null,NAME1 and NAME2 are hugging each other,hug_conjoined,sentence,NA,NA,NA,NA,NA
1786.7000000029802,NA,NA,NA,NA,survey-likert-extra-labels,68,377417,0.0-37.0-1.0,anomymised,6564584152624795c40b73cb,65645dafb5b7e95e37b780e6,9200,1A,woman,NA,NA,Somebody says<br><em>Beth and Kate are hugging each other</em>,hug_conjoined,rating_volition,"{""Q0"":3}",[0],The speaker identifies more with <br>Beth than Kate,The speaker identifies more with<br>Kate than Beth,left_to_right
null,Somebody says<br><em>Mike is reminding Beth,NA,NA,NA,html-keyboard-response,69,379428,0.0-38.0-0.0,anomymised,6564584152624795c40b73cb,65645dafb5b7e95e37b780e6,9200,1A,woman,NA,null,M2 is reminding W4,remind,sentence,NA,NA,NA,NA,NA
2983.10000000149,NA,NA,NA,NA,survey-likert-extra-labels,70,382413,0.0-38.0-1.0,anomymised,6564584152624795c40b73cb,65645dafb5b7e95e37b780e6,9200,1A,woman,NA,NA,Somebody says<br><em>Mike is reminding Beth,remind,rating_volition,"{""Q0"":0}",[0],Mike is telling Beth again,Beth is telling Mike again,NA
null,Somebody says<br><em>Dave is being shouted at by Jane</em>,NA,NA,NA,html-keyboard-response,71,384429,0.0-39.0-0.0,anomymised,6564584152624795c40b73cb,65645dafb5b7e95e37b780e6,9200,1A,woman,NA,null,NAME1 is being shouted at by NAME2,shout_passive,sentence,NA,NA,NA,NA,NA
4395.70000000298,NA,NA,NA,NA,survey-likert-extra-labels,72,388827,0.0-39.0-1.0,anomymised,6564584152624795c40b73cb,65645dafb5b7e95e37b780e6,9200,1A,woman,NA,NA,Somebody says<br><em>Dave is being shouted at by Jane</em>,shout_passive,rating_volition,"{""Q0"":5}",[0],The speaker identifies more with <br>Jane than Dave,The speaker identifies more with<br>Dave than Jane,right_to_left
null,Somebody says<br><em>Jane is being opposed by Fred</em>,NA,NA,NA,html-keyboard-response,73,390835,0.0-40.0-0.0,anomymised,6564584152624795c40b73cb,65645dafb5b7e95e37b780e6,9200,1A,woman,NA,null,NAME1 is being opposed by NAME2,oppose_passive,sentence,NA,NA,NA,NA,NA
2068.89999999851,NA,NA,NA,NA,survey-likert-extra-labels,74,392906,0.0-40.0-1.0,anomymised,6564584152624795c40b73cb,65645dafb5b7e95e37b780e6,9200,1A,woman,NA,NA,Somebody says<br><em>Jane is being opposed by Fred</em>,oppose_passive,rating_volition,"{""Q0"":2}",[0],The speaker identifies more with <br>Jane than Fred,The speaker identifies more with<br>Fred than Jane,left_to_right
null,Somebody says<br><em>Dave is shouting at Mike</em>,NA,NA,NA,html-keyboard-response,75,394923,0.0-41.0-0.0,anomymised,6564584152624795c40b73cb,65645dafb5b7e95e37b780e6,9200,1A,woman,NA,null,NAME1 is shouting at NAME2,shout_active,sentence,NA,NA,NA,NA,NA
3313.5,NA,NA,NA,NA,survey-likert-extra-labels,76,398239,0.0-41.0-1.0,anomymised,6564584152624795c40b73cb,65645dafb5b7e95e37b780e6,9200,1A,woman,NA,NA,Somebody says<br><em>Dave is shouting at Mike</em>,shout_active,rating_volition,"{""Q0"":4}",[0],The speaker identifies more with <br>Dave than Mike,The speaker identifies more with<br>Mike than Dave,left_to_right
null,Somebody says<br><em>Kate is feeding Luke,NA,NA,NA,html-keyboard-response,77,400251,0.0-42.0-0.0,anomymised,6564584152624795c40b73cb,65645dafb5b7e95e37b780e6,9200,1A,woman,NA,null,W3 is feeding M1,feed,sentence,NA,NA,NA,NA,NA
2377.60000000149,NA,NA,NA,NA,survey-likert-extra-labels,78,402630,0.0-42.0-1.0,anomymised,6564584152624795c40b73cb,65645dafb5b7e95e37b780e6,9200,1A,woman,NA,NA,Somebody says<br><em>Kate is feeding Luke,feed,rating_volition,"{""Q0"":0}",[0],Kate cooked for Luke,Luke cooked for Kate,NA
null,Somebody says<br><em>Luke is arguing with Dave</em>,NA,NA,NA,html-keyboard-response,79,404642,0.0-43.0-0.0,anomymised,6564584152624795c40b73cb,65645dafb5b7e95e37b780e6,9200,1A,woman,NA,null,NAME1 is arguing with NAME2,argue_active,sentence,NA,NA,NA,NA,NA
3916.7999999970198,NA,NA,NA,NA,survey-likert-extra-labels,80,408561,0.0-43.0-1.0,anomymised,6564584152624795c40b73cb,65645dafb5b7e95e37b780e6,9200,1A,woman,NA,NA,Somebody says<br><em>Luke is arguing with Dave</em>,argue_active,rating_volition,"{""Q0"":2}",[0],The speaker identifies more with <br>Dave than Luke,The speaker identifies more with<br>Luke than Dave,right_to_left
null,Somebody says<br><em>Kate and Fred are meeting each other</em>,NA,NA,NA,html-keyboard-response,81,410565,0.0-44.0-0.0,anomymised,6564584152624795c40b73cb,65645dafb5b7e95e37b780e6,9200,1A,woman,NA,null,NAME1 and NAME2 are meeting each other,meet_conjoined,sentence,NA,NA,NA,NA,NA
1666,NA,NA,NA,NA,survey-likert-extra-labels,82,412233,0.0-44.0-1.0,anomymised,6564584152624795c40b73cb,65645dafb5b7e95e37b780e6,9200,1A,woman,NA,NA,Somebody says<br><em>Kate and Fred are meeting each other</em>,meet_conjoined,rating_volition,"{""Q0"":3}",[0],The speaker identifies more with <br>Kate than Fred,The speaker identifies more with<br>Fred than Kate,left_to_right
null,Somebody says<br><em>Fred is touching Beth</em>,NA,NA,NA,html-keyboard-response,83,414248,0.0-45.0-0.0,anomymised,6564584152624795c40b73cb,65645dafb5b7e95e37b780e6,9200,1A,woman,NA,null,NAME1 is touching NAME2,touch_active,sentence,NA,NA,NA,NA,NA
4639.80000000447,NA,NA,NA,NA,survey-likert-extra-labels,84,418889,0.0-45.0-1.0,anomymised,6564584152624795c40b73cb,65645dafb5b7e95e37b780e6,9200,1A,woman,NA,NA,Somebody says<br><em>Fred is touching Beth</em>,touch_active,rating_volition,"{""Q0"":2}",[0],The speaker identifies more with <br>Beth than Fred,The speaker identifies more with<br>Fred than Beth,right_to_left
null,Somebody says<br><em>Luke and Ruth are kissing each other</em>,NA,NA,NA,html-keyboard-response,85,420894,0.0-46.0-0.0,anomymised,6564584152624795c40b73cb,65645dafb5b7e95e37b780e6,9200,1A,woman,NA,null,NAME1 and NAME2 are kissing each other,kiss_conjoined,sentence,NA,NA,NA,NA,NA
18839.89999999851,NA,NA,NA,NA,survey-likert-extra-labels,86,439737,0.0-46.0-1.0,anomymised,6564584152624795c40b73cb,65645dafb5b7e95e37b780e6,9200,1A,woman,NA,NA,Somebody says<br><em>Luke and Ruth are kissing each other</em>,kiss_conjoined,rating_volition,"{""Q0"":3}",[0],The speaker identifies more with <br>Luke than Ruth,The speaker identifies more with<br>Ruth than Luke,left_to_right
null,Somebody says<br><em>Jane is teaching Dave,NA,NA,NA,html-keyboard-response,87,441747,0.0-47.0-0.0,anomymised,6564584152624795c40b73cb,65645dafb5b7e95e37b780e6,9200,1A,woman,NA,null,W2 is teaching M4,teach,sentence,NA,NA,NA,NA,NA
5259.4000000059605,NA,NA,NA,NA,survey-likert-extra-labels,88,447009,0.0-47.0-1.0,anomymised,6564584152624795c40b73cb,65645dafb5b7e95e37b780e6,9200,1A,woman,NA,NA,Somebody says<br><em>Jane is teaching Dave,teach,rating_volition,"{""Q0"":0}",[0],Jane is educating Dave,Dave is educating Jane,NA
null,Somebody says<br><em>Dave is shouting at Mike</em>,NA,NA,NA,html-keyboard-response,89,449028,0.0-48.0-0.0,anomymised,6564584152624795c40b73cb,65645dafb5b7e95e37b780e6,9200,1A,woman,NA,null,NAME1 is shouting at NAME2,shout_active,sentence,NA,NA,NA,NA,NA
4966.60000000149,NA,NA,NA,NA,survey-likert-extra-labels,90,453997,0.0-48.0-1.0,anomymised,6564584152624795c40b73cb,65645dafb5b7e95e37b780e6,9200,1A,woman,NA,NA,Somebody says<br><em>Dave is shouting at Mike</em>,shout_active,rating_volition,"{""Q0"":5}",[0],The speaker identifies more with <br>Dave than Mike,The speaker identifies more with<br>Mike than Dave,left_to_right
null,Somebody says<br><em>Fred is being greeted by Ruth</em>,NA,NA,NA,html-keyboard-response,91,456002,0.0-49.0-0.0,anomymised,6564584152624795c40b73cb,65645dafb5b7e95e37b780e6,9200,1A,woman,NA,null,NAME1 is being greeted by NAME2,greet_passive,sentence,NA,NA,NA,NA,NA
3320.60000000149,NA,NA,NA,NA,survey-likert-extra-labels,92,459324,0.0-49.0-1.0,anomymised,6564584152624795c40b73cb,65645dafb5b7e95e37b780e6,9200,1A,woman,NA,NA,Somebody says<br><em>Fred is being greeted by Ruth</em>,greet_passive,rating_volition,"{""Q0"":4}",[0],The speaker identifies more with <br>Ruth than Fred,The speaker identifies more with<br>Fred than Ruth,right_to_left
null,Somebody says<br><em>Beth is being challenged by Luke</em>,NA,NA,NA,html-keyboard-response,93,461340,0.0-50.0-0.0,anomymised,6564584152624795c40b73cb,65645dafb5b7e95e37b780e6,9200,1A,woman,NA,null,NAME1 is being challenged by NAME2,challenge_passive,sentence,NA,NA,NA,NA,NA
2386.7999999970198,NA,NA,NA,NA,survey-likert-extra-labels,94,463729,0.0-50.0-1.0,anomymised,6564584152624795c40b73cb,65645dafb5b7e95e37b780e6,9200,1A,woman,NA,NA,Somebody says<br><em>Beth is being challenged by Luke</em>,challenge_passive,rating_volition,"{""Q0"":2}",[0],The speaker identifies more with <br>Beth than Luke,The speaker identifies more with<br>Luke than Beth,left_to_right
null,Somebody says<br><em>Kate is flirting with Ruth</em>,NA,NA,NA,html-keyboard-response,95,465736,0.0-51.0-0.0,anomymised,6564584152624795c40b73cb,65645dafb5b7e95e37b780e6,9200,1A,woman,NA,null,NAME1 is flirting with NAME2,flirt_active,sentence,NA,NA,NA,NA,NA
3581.89999999851,NA,NA,NA,NA,survey-likert-extra-labels,96,469320,0.0-51.0-1.0,anomymised,6564584152624795c40b73cb,65645dafb5b7e95e37b780e6,9200,1A,woman,NA,NA,Somebody says<br><em>Kate is flirting with Ruth</em>,flirt_active,rating_volition,"{""Q0"":4}",[0],The speaker identifies more with <br>Ruth than Kate,The speaker identifies more with<br>Kate than Ruth,right_to_left
null,Somebody says<br><em>Mike is being looked at by Dave</em>,NA,NA,NA,html-keyboard-response,97,471336,0.0-52.0-0.0,anomymised,6564584152624795c40b73cb,65645dafb5b7e95e37b780e6,9200,1A,woman,NA,null,NAME1 is being looked at by NAME2,look_passive,sentence,NA,NA,NA,NA,NA
7411.39999999851,NA,NA,NA,NA,survey-likert-extra-labels,98,478749,0.0-52.0-1.0,anomymised,6564584152624795c40b73cb,65645dafb5b7e95e37b780e6,9200,1A,woman,NA,NA,Somebody says<br><em>Mike is being looked at by Dave</em>,look_passive,rating_volition,"{""Q0"":4}",[0],The speaker identifies more with <br>Dave than Mike,The speaker identifies more with<br>Mike than Dave,right_to_left
null,Somebody says<br><em>Fred is fighting with Jane</em>,NA,NA,NA,html-keyboard-response,99,480760,0.0-53.0-0.0,anomymised,6564584152624795c40b73cb,65645dafb5b7e95e37b780e6,9200,1A,woman,NA,null,NAME1 is fighting with NAME2,fight_active,sentence,NA,NA,NA,NA,NA
6282.10000000149,NA,NA,NA,NA,survey-likert-extra-labels,100,487044,0.0-53.0-1.0,anomymised,6564584152624795c40b73cb,65645dafb5b7e95e37b780e6,9200,1A,woman,NA,NA,Somebody says<br><em>Fred is fighting with Jane</em>,fight_active,rating_volition,"{""Q0"":4}",[0],The speaker identifies more with <br>Fred than Jane,The speaker identifies more with<br>Jane than Fred,left_to_right
null,Somebody says<br><em>Ruth is playing with Beth</em>,NA,NA,NA,html-keyboard-response,101,489056,0.0-54.0-0.0,anomymised,6564584152624795c40b73cb,65645dafb5b7e95e37b780e6,9200,1A,woman,NA,null,NAME1 is playing with NAME2,play_active,sentence,NA,NA,NA,NA,NA
4561.70000000298,NA,NA,NA,NA,survey-likert-extra-labels,102,493619,0.0-54.0-1.0,anomymised,6564584152624795c40b73cb,65645dafb5b7e95e37b780e6,9200,1A,woman,NA,NA,Somebody says<br><em>Ruth is playing with Beth</em>,play_active,rating_volition,"{""Q0"":2}",[0],The speaker identifies more with <br>Ruth than Beth,The speaker identifies more with<br>Beth than Ruth,left_to_right
null,Somebody says<br><em>Jane and Dave are marrying each other</em>,NA,NA,NA,html-keyboard-response,103,495632,0.0-55.0-0.0,anomymised,6564584152624795c40b73cb,65645dafb5b7e95e37b780e6,9200,1A,woman,NA,null,NAME1 and NAME2 are marrying each other,marry_conjoined,sentence,NA,NA,NA,NA,NA
3177,NA,NA,NA,NA,survey-likert-extra-labels,104,498812,0.0-55.0-1.0,anomymised,6564584152624795c40b73cb,65645dafb5b7e95e37b780e6,9200,1A,woman,NA,NA,Somebody says<br><em>Jane and Dave are marrying each other</em>,marry_conjoined,rating_volition,"{""Q0"":3}",[0],The speaker identifies more with <br>Dave than Jane,The speaker identifies more with<br>Jane than Dave,right_to_left
1623.8999999985099,<p>Thank you for completing that task.</p><p>The final part of this session is a short questionnaire.</p><p>Press Continue.</p>,0,Continue,Continue,html-button-response,105,500439,0.0-56.0,anomymised,6564584152624795c40b73cb,65645dafb5b7e95e37b780e6,9200,1A,woman,NA,NA,NA,NA,NA,NA,NA,NA,NA,NA
16683.09999999404,NA,NA,NA,NA,survey-text,106,518146,0.0-57.0,anomymised,6564584152624795c40b73cb,65645dafb5b7e95e37b780e6,9200,1A,woman,NA,NA,NA,NA,demographics,"{""Q0"":""29"",""Q1"":""English"",""Q2"":""English"",""Q3"":""Northern Ireland"",""Q4"":""Irish"",""Q5"":""White"",""Q6"":""Female""}",NA,NA,NA,NA
2582.39999999851,<p>This is the last question - thank you for taking part! Have you lived in the UK for the last 5 years or more?</p>,0,"Yes,No",Yes,html-button-response,107,520731,0.0-58.0,anomymised,6564584152624795c40b73cb,65645dafb5b7e95e37b780e6,9200,1A,woman,NA,NA,NA,NA,fiveyears,NA,NA,NA,NA,NA
