rt,stimulus,button_pressed,choices,ChosenStimulus,trial_type,trial_index,time_elapsed,internal_node_id,subject_id,study_id,session_id,subject,list,ppt_gender,url,key_press,sentence_type,verb,test_part,responses,question_order,left_part,right_part,name_order
4046.3000000000466,Welcome to the experiment. Press Continue to begin.,0,Continue,Continue,html-button-response,0,4049,0.0-0.0,anomymised,6564584152624795c40b73cb,65645ef3290992d294ce9ed6,94358,1A,woman,NA,NA,NA,NA,NA,NA,NA,NA,NA,NA
37637.700000000186,NA,NA,NA,NA,external-html,1,42732,0.0-1.0,anomymised,6564584152624795c40b73cb,65645ef3290992d294ce9ed6,94358,1A,woman,consent.html,NA,NA,NA,NA,NA,NA,NA,NA,NA
29776.699999999953,"<p>Welcome.</p><p>In this experiment we will ask you to imagine people's motivations for saying sentences.</p><p>Each trial will begin with a sentence that somebody might say to describe an event involving two different people.</p><p>For instance, someone might say <em>Harry is being recruited by Molly</em></p><p>We want you to think about which of those two people (Molly and Harry) the speaker identifies more with. For instance, why did the speaker say <em>Harry is being recruited by Molly</em> rather than <em> Molly is recruiting Harry</em>? Might that mean that the speaker is socially closer to one of the two characters?</p><p>After you have read the sentence, you will rate on a scale which of the two characters the speaker identifies more with.</p><p>You will give your answer by clicking a button on a rating scale.</p><p>Sometimes there will also be catch questions designed to make sure that you are paying attention, which ask about a different topic.</p><p>To do this task, you will have to use your imagination to think about and visualise the events, and how the speaker might relate to the characters.</p><br><p>Ready?</p>",0,Continue,Continue,html-button-response,2,72510,0.0-2.0,anomymised,6564584152624795c40b73cb,65645ef3290992d294ce9ed6,94358,1A,woman,NA,NA,NA,NA,NA,NA,NA,NA,NA,NA
2359.7999999998137,"<p>Before the experiment starts, we will show you an example of how you will answer the questions. Press 'Continue'.</p>",0,Continue,Continue,html-button-response,3,75872,0.0-3.0,anomymised,6564584152624795c40b73cb,65645ef3290992d294ce9ed6,94358,1A,woman,NA,NA,NA,NA,NA,NA,NA,NA,NA,NA
null,Somebody says <br><em>Samuel is dining with Frank</em>,NA,NA,NA,html-keyboard-response,4,78876,0.0-4.0,anomymised,6564584152624795c40b73cb,65645ef3290992d294ce9ed6,94358,1A,woman,NA,null,NA,NA,NA,NA,NA,NA,NA,NA
14882.199999999953,<img src='img/Example-trial.jpg' style='height:550px;''></img>,0,Continue,Continue,html-button-response,5,93760,0.0-5.0,anomymised,6564584152624795c40b73cb,65645ef3290992d294ce9ed6,94358,1A,woman,NA,NA,NA,NA,NA,NA,NA,NA,NA,NA
2742.5,<p>Ready to start the experiment?</p><br><p><strong>Remember to give an answer by clicking a button on the rating scale.</strong></p><p>Press 'Continue' to begin.</p>,0,Continue,Continue,html-button-response,6,97504,0.0-6.0,anomymised,6564584152624795c40b73cb,65645ef3290992d294ce9ed6,94358,1A,woman,NA,NA,NA,NA,NA,NA,NA,NA,NA,NA
null,Somebody says<br><em>Beth and Jane are meeting each other</em>,NA,NA,NA,html-keyboard-response,7,100508,0.0-7.0-0.0,anomymised,6564584152624795c40b73cb,65645ef3290992d294ce9ed6,94358,1A,woman,NA,null,NAME1 and NAME2 are meeting each other,meet_conjoined,sentence,NA,NA,NA,NA,NA
7362.09999999986,NA,NA,NA,NA,survey-likert-extra-labels,8,107873,0.0-7.0-1.0,anomymised,6564584152624795c40b73cb,65645ef3290992d294ce9ed6,94358,1A,woman,NA,NA,Somebody says<br><em>Beth and Jane are meeting each other</em>,meet_conjoined,rating_volition,"{""Q0"":3}",[0],The speaker identifies more with <br>Beth than Jane,The speaker identifies more with<br>Jane than Beth,left_to_right
null,Somebody says<br><em>Luke is driving Fred,NA,NA,NA,html-keyboard-response,9,109876,0.0-8.0-0.0,anomymised,6564584152624795c40b73cb,65645ef3290992d294ce9ed6,94358,1A,woman,NA,null,M1 is driving M3,drive,sentence,NA,NA,NA,NA,NA
9386.09999999986,NA,NA,NA,NA,survey-likert-extra-labels,10,119265,0.0-8.0-1.0,anomymised,6564584152624795c40b73cb,65645ef3290992d294ce9ed6,94358,1A,woman,NA,NA,Somebody says<br><em>Luke is driving Fred,drive,rating_volition,"{""Q0"":6}",[0],Luke is Fred's passenger,Fred is Luke's passenger,NA
null,Somebody says<br><em>Beth is fighting with Ruth</em>,NA,NA,NA,html-keyboard-response,11,121268,0.0-9.0-0.0,anomymised,6564584152624795c40b73cb,65645ef3290992d294ce9ed6,94358,1A,woman,NA,null,NAME1 is fighting with NAME2,fight_active,sentence,NA,NA,NA,NA,NA
9331.100000000093,NA,NA,NA,NA,survey-likert-extra-labels,12,130601,0.0-9.0-1.0,anomymised,6564584152624795c40b73cb,65645ef3290992d294ce9ed6,94358,1A,woman,NA,NA,Somebody says<br><em>Beth is fighting with Ruth</em>,fight_active,rating_volition,"{""Q0"":2}",[0],The speaker identifies more with <br>Beth than Ruth,The speaker identifies more with<br>Ruth than Beth,left_to_right
null,Somebody says<br><em>Ruth is being challenged by Beth</em>,NA,NA,NA,html-keyboard-response,13,132604,0.0-10.0-0.0,anomymised,6564584152624795c40b73cb,65645ef3290992d294ce9ed6,94358,1A,woman,NA,null,NAME1 is being challenged by NAME2,challenge_passive,sentence,NA,NA,NA,NA,NA
23454.600000000093,NA,NA,NA,NA,survey-likert-extra-labels,14,156060,0.0-10.0-1.0,anomymised,6564584152624795c40b73cb,65645ef3290992d294ce9ed6,94358,1A,woman,NA,NA,Somebody says<br><em>Ruth is being challenged by Beth</em>,challenge_passive,rating_volition,"{""Q0"":2}",[0],The speaker identifies more with <br>Beth than Ruth,The speaker identifies more with<br>Ruth than Beth,right_to_left
null,Somebody says<br><em>Mike is flirting with Kate</em>,NA,NA,NA,html-keyboard-response,15,158063,0.0-11.0-0.0,anomymised,6564584152624795c40b73cb,65645ef3290992d294ce9ed6,94358,1A,woman,NA,null,NAME1 is flirting with NAME2,flirt_active,sentence,NA,NA,NA,NA,NA
7443.09999999986,NA,NA,NA,NA,survey-likert-extra-labels,16,165508,0.0-11.0-1.0,anomymised,6564584152624795c40b73cb,65645ef3290992d294ce9ed6,94358,1A,woman,NA,NA,Somebody says<br><em>Mike is flirting with Kate</em>,flirt_active,rating_volition,"{""Q0"":3}",[0],The speaker identifies more with <br>Mike than Kate,The speaker identifies more with<br>Kate than Mike,left_to_right
null,Somebody says<br><em>Beth is seducing Jane</em>,NA,NA,NA,html-keyboard-response,17,167511,0.0-12.0-0.0,anomymised,6564584152624795c40b73cb,65645ef3290992d294ce9ed6,94358,1A,woman,NA,null,NAME1 is seducing NAME2,seduce_active,sentence,NA,NA,NA,NA,NA
5524,NA,NA,NA,NA,survey-likert-extra-labels,18,173037,0.0-12.0-1.0,anomymised,6564584152624795c40b73cb,65645ef3290992d294ce9ed6,94358,1A,woman,NA,NA,Somebody says<br><em>Beth is seducing Jane</em>,seduce_active,rating_volition,"{""Q0"":3}",[0],The speaker identifies more with <br>Beth than Jane,The speaker identifies more with<br>Jane than Beth,left_to_right
null,Somebody says<br><em>Fred is kissing Mike</em>,NA,NA,NA,html-keyboard-response,19,175039,0.0-13.0-0.0,anomymised,6564584152624795c40b73cb,65645ef3290992d294ce9ed6,94358,1A,woman,NA,null,NAME1 is kissing NAME2,kiss_active,sentence,NA,NA,NA,NA,NA
5875.300000000047,NA,NA,NA,NA,survey-likert-extra-labels,20,180917,0.0-13.0-1.0,anomymised,6564584152624795c40b73cb,65645ef3290992d294ce9ed6,94358,1A,woman,NA,NA,Somebody says<br><em>Fred is kissing Mike</em>,kiss_active,rating_volition,"{""Q0"":2}",[0],The speaker identifies more with <br>Mike than Fred,The speaker identifies more with<br>Fred than Mike,right_to_left
null,Somebody says<br><em>Mike is copying Ruth</em>,NA,NA,NA,html-keyboard-response,21,182919,0.0-14.0-0.0,anomymised,6564584152624795c40b73cb,65645ef3290992d294ce9ed6,94358,1A,woman,NA,null,NAME1 is copying NAME2,copy_active,sentence,NA,NA,NA,NA,NA
6683.300000000047,NA,NA,NA,NA,survey-likert-extra-labels,22,189604,0.0-14.0-1.0,anomymised,6564584152624795c40b73cb,65645ef3290992d294ce9ed6,94358,1A,woman,NA,NA,Somebody says<br><em>Mike is copying Ruth</em>,copy_active,rating_volition,"{""Q0"":2}",[0],The speaker identifies more with <br>Mike than Ruth,The speaker identifies more with<br>Ruth than Mike,left_to_right
null,Somebody says<br><em>Beth is opposing Fred</em>,NA,NA,NA,html-keyboard-response,23,191606,0.0-15.0-0.0,anomymised,6564584152624795c40b73cb,65645ef3290992d294ce9ed6,94358,1A,woman,NA,null,NAME1 is opposing NAME2,oppose_active,sentence,NA,NA,NA,NA,NA
5208.300000000047,NA,NA,NA,NA,survey-likert-extra-labels,24,196816,0.0-15.0-1.0,anomymised,6564584152624795c40b73cb,65645ef3290992d294ce9ed6,94358,1A,woman,NA,NA,Somebody says<br><em>Beth is opposing Fred</em>,oppose_active,rating_volition,"{""Q0"":3}",[0],The speaker identifies more with <br>Beth than Fred,The speaker identifies more with<br>Fred than Beth,left_to_right
null,Somebody says<br><em>Mike is shouting at Beth</em>,NA,NA,NA,html-keyboard-response,25,198819,0.0-16.0-0.0,anomymised,6564584152624795c40b73cb,65645ef3290992d294ce9ed6,94358,1A,woman,NA,null,NAME1 is shouting at NAME2,shout_active,sentence,NA,NA,NA,NA,NA
6095.90000000014,NA,NA,NA,NA,survey-likert-extra-labels,26,204917,0.0-16.0-1.0,anomymised,6564584152624795c40b73cb,65645ef3290992d294ce9ed6,94358,1A,woman,NA,NA,Somebody says<br><em>Mike is shouting at Beth</em>,shout_active,rating_volition,"{""Q0"":3}",[0],The speaker identifies more with <br>Mike than Beth,The speaker identifies more with<br>Beth than Mike,left_to_right
null,Somebody says<br><em>Mike is touching Jane</em>,NA,NA,NA,html-keyboard-response,27,206919,0.0-17.0-0.0,anomymised,6564584152624795c40b73cb,65645ef3290992d294ce9ed6,94358,1A,woman,NA,null,NAME1 is touching NAME2,touch_active,sentence,NA,NA,NA,NA,NA
5323.300000000047,NA,NA,NA,NA,survey-likert-extra-labels,28,212244,0.0-17.0-1.0,anomymised,6564584152624795c40b73cb,65645ef3290992d294ce9ed6,94358,1A,woman,NA,NA,Somebody says<br><em>Mike is touching Jane</em>,touch_active,rating_volition,"{""Q0"":1}",[0],The speaker identifies more with <br>Jane than Mike,The speaker identifies more with<br>Mike than Jane,right_to_left
null,Somebody says<br><em>Ruth and Dave are fighting with each other</em>,NA,NA,NA,html-keyboard-response,29,214246,0.0-18.0-0.0,anomymised,6564584152624795c40b73cb,65645ef3290992d294ce9ed6,94358,1A,woman,NA,null,NAME1 and NAME2 are fighting with each other,fight_conjoined,sentence,NA,NA,NA,NA,NA
6748.699999999953,NA,NA,NA,NA,survey-likert-extra-labels,30,220997,0.0-18.0-1.0,anomymised,6564584152624795c40b73cb,65645ef3290992d294ce9ed6,94358,1A,woman,NA,NA,Somebody says<br><em>Ruth and Dave are fighting with each other</em>,fight_conjoined,rating_volition,"{""Q0"":3}",[0],The speaker identifies more with <br>Ruth than Dave,The speaker identifies more with<br>Dave than Ruth,left_to_right
null,Somebody says<br><em>Jane is carrying Beth,NA,NA,NA,html-keyboard-response,31,223000,0.0-19.0-0.0,anomymised,6564584152624795c40b73cb,65645ef3290992d294ce9ed6,94358,1A,woman,NA,null,W2 is carrying W4,carry,sentence,NA,NA,NA,NA,NA
9634.800000000047,NA,NA,NA,NA,survey-likert-extra-labels,32,232637,0.0-19.0-1.0,anomymised,6564584152624795c40b73cb,65645ef3290992d294ce9ed6,94358,1A,woman,NA,NA,Somebody says<br><em>Jane is carrying Beth,carry,rating_volition,"{""Q0"":3}",[0],Jane is transporting Beth,Beth is transporting Jane,NA
null,Somebody says<br><em>Dave is arguing with Ruth</em>,NA,NA,NA,html-keyboard-response,33,234640,0.0-20.0-0.0,anomymised,6564584152624795c40b73cb,65645ef3290992d294ce9ed6,94358,1A,woman,NA,null,NAME1 is arguing with NAME2,argue_active,sentence,NA,NA,NA,NA,NA
23930.90000000014,NA,NA,NA,NA,survey-likert-extra-labels,34,258573,0.0-20.0-1.0,anomymised,6564584152624795c40b73cb,65645ef3290992d294ce9ed6,94358,1A,woman,NA,NA,Somebody says<br><em>Dave is arguing with Ruth</em>,argue_active,rating_volition,"{""Q0"":3}",[0],The speaker identifies more with <br>Ruth than Dave,The speaker identifies more with<br>Dave than Ruth,right_to_left
null,Somebody says<br><em>Mike and Beth are touching each other</em>,NA,NA,NA,html-keyboard-response,35,260575,0.0-21.0-0.0,anomymised,6564584152624795c40b73cb,65645ef3290992d294ce9ed6,94358,1A,woman,NA,null,NAME1 and NAME2 are touching each other,touch_conjoined,sentence,NA,NA,NA,NA,NA
4471.200000000186,NA,NA,NA,NA,survey-likert-extra-labels,36,265048,0.0-21.0-1.0,anomymised,6564584152624795c40b73cb,65645ef3290992d294ce9ed6,94358,1A,woman,NA,NA,Somebody says<br><em>Mike and Beth are touching each other</em>,touch_conjoined,rating_volition,"{""Q0"":3}",[0],The speaker identifies more with <br>Mike than Beth,The speaker identifies more with<br>Beth than Mike,left_to_right
null,Somebody says<br><em>Fred is looking at Dave</em>,NA,NA,NA,html-keyboard-response,37,267051,0.0-22.0-0.0,anomymised,6564584152624795c40b73cb,65645ef3290992d294ce9ed6,94358,1A,woman,NA,null,NAME1 is looking at NAME2,look_active,sentence,NA,NA,NA,NA,NA
14663.600000000093,NA,NA,NA,NA,survey-likert-extra-labels,38,281716,0.0-22.0-1.0,anomymised,6564584152624795c40b73cb,65645ef3290992d294ce9ed6,94358,1A,woman,NA,NA,Somebody says<br><em>Fred is looking at Dave</em>,look_active,rating_volition,"{""Q0"":2}",[0],The speaker identifies more with <br>Fred than Dave,The speaker identifies more with<br>Dave than Fred,left_to_right
null,Somebody says<br><em>Kate is being seduced by Fred</em>,NA,NA,NA,html-keyboard-response,39,283719,0.0-23.0-0.0,anomymised,6564584152624795c40b73cb,65645ef3290992d294ce9ed6,94358,1A,woman,NA,null,NAME1 is being seduced by NAME2,seduce_passive,sentence,NA,NA,NA,NA,NA
15091.5,NA,NA,NA,NA,survey-likert-extra-labels,40,298813,0.0-23.0-1.0,anomymised,6564584152624795c40b73cb,65645ef3290992d294ce9ed6,94358,1A,woman,NA,NA,Somebody says<br><em>Kate is being seduced by Fred</em>,seduce_passive,rating_volition,"{""Q0"":2}",[0],The speaker identifies more with <br>Kate than Fred,The speaker identifies more with<br>Fred than Kate,left_to_right
null,Somebody says<br><em>Dave is challenging Mike</em>,NA,NA,NA,html-keyboard-response,41,300815,0.0-24.0-0.0,anomymised,6564584152624795c40b73cb,65645ef3290992d294ce9ed6,94358,1A,woman,NA,null,NAME1 is challenging NAME2,challenge_active,sentence,NA,NA,NA,NA,NA
4207.699999999953,NA,NA,NA,NA,survey-likert-extra-labels,42,305025,0.0-24.0-1.0,anomymised,6564584152624795c40b73cb,65645ef3290992d294ce9ed6,94358,1A,woman,NA,NA,Somebody says<br><em>Dave is challenging Mike</em>,challenge_active,rating_volition,"{""Q0"":3}",[0],The speaker identifies more with <br>Mike than Dave,The speaker identifies more with<br>Dave than Mike,right_to_left
null,Somebody says<br><em>Dave and Luke are marrying each other</em>,NA,NA,NA,html-keyboard-response,43,307027,0.0-25.0-0.0,anomymised,6564584152624795c40b73cb,65645ef3290992d294ce9ed6,94358,1A,woman,NA,null,NAME1 and NAME2 are marrying each other,marry_conjoined,sentence,NA,NA,NA,NA,NA
6306.899999999907,NA,NA,NA,NA,survey-likert-extra-labels,44,313336,0.0-25.0-1.0,anomymised,6564584152624795c40b73cb,65645ef3290992d294ce9ed6,94358,1A,woman,NA,NA,Somebody says<br><em>Dave and Luke are marrying each other</em>,marry_conjoined,rating_volition,"{""Q0"":3}",[0],The speaker identifies more with <br>Dave than Luke,The speaker identifies more with<br>Luke than Dave,left_to_right
null,Somebody says<br><em>Kate is being copied by Jane</em>,NA,NA,NA,html-keyboard-response,45,315339,0.0-26.0-0.0,anomymised,6564584152624795c40b73cb,65645ef3290992d294ce9ed6,94358,1A,woman,NA,null,NAME1 is being copied by NAME2,copy_passive,sentence,NA,NA,NA,NA,NA
4551.699999999953,NA,NA,NA,NA,survey-likert-extra-labels,46,319893,0.0-26.0-1.0,anomymised,6564584152624795c40b73cb,65645ef3290992d294ce9ed6,94358,1A,woman,NA,NA,Somebody says<br><em>Kate is being copied by Jane</em>,copy_passive,rating_volition,"{""Q0"":1}",[0],The speaker identifies more with <br>Kate than Jane,The speaker identifies more with<br>Jane than Kate,left_to_right
null,Somebody says<br><em>Fred is being opposed by Mike</em>,NA,NA,NA,html-keyboard-response,47,321895,0.0-27.0-0.0,anomymised,6564584152624795c40b73cb,65645ef3290992d294ce9ed6,94358,1A,woman,NA,null,NAME1 is being opposed by NAME2,oppose_passive,sentence,NA,NA,NA,NA,NA
13002.800000000047,NA,NA,NA,NA,survey-likert-extra-labels,48,334900,0.0-27.0-1.0,anomymised,6564584152624795c40b73cb,65645ef3290992d294ce9ed6,94358,1A,woman,NA,NA,Somebody says<br><em>Fred is being opposed by Mike</em>,oppose_passive,rating_volition,"{""Q0"":4}",[0],The speaker identifies more with <br>Mike than Fred,The speaker identifies more with<br>Fred than Mike,right_to_left
null,Somebody says<br><em>Beth is being kissed by Fred</em>,NA,NA,NA,html-keyboard-response,49,336903,0.0-28.0-0.0,anomymised,6564584152624795c40b73cb,65645ef3290992d294ce9ed6,94358,1A,woman,NA,null,NAME1 is being kissed by NAME2,kiss_passive,sentence,NA,NA,NA,NA,NA
7799.699999999953,NA,NA,NA,NA,survey-likert-extra-labels,50,344704,0.0-28.0-1.0,anomymised,6564584152624795c40b73cb,65645ef3290992d294ce9ed6,94358,1A,woman,NA,NA,Somebody says<br><em>Beth is being kissed by Fred</em>,kiss_passive,rating_volition,"{""Q0"":5}",[0],The speaker identifies more with <br>Fred than Beth,The speaker identifies more with<br>Beth than Fred,right_to_left
null,Somebody says<br><em>Jane is marrying Fred</em>,NA,NA,NA,html-keyboard-response,51,346707,0.0-29.0-0.0,anomymised,6564584152624795c40b73cb,65645ef3290992d294ce9ed6,94358,1A,woman,NA,null,NAME1 is marrying NAME2,marry_active,sentence,NA,NA,NA,NA,NA
5611.899999999907,NA,NA,NA,NA,survey-likert-extra-labels,52,352321,0.0-29.0-1.0,anomymised,6564584152624795c40b73cb,65645ef3290992d294ce9ed6,94358,1A,woman,NA,NA,Somebody says<br><em>Jane is marrying Fred</em>,marry_active,rating_volition,"{""Q0"":2}",[0],The speaker identifies more with <br>Jane than Fred,The speaker identifies more with<br>Fred than Jane,left_to_right
null,Somebody says<br><em>Ruth is shouting at Mike</em>,NA,NA,NA,html-keyboard-response,53,354324,0.0-30.0-0.0,anomymised,6564584152624795c40b73cb,65645ef3290992d294ce9ed6,94358,1A,woman,NA,null,NAME1 is shouting at NAME2,shout_active,sentence,NA,NA,NA,NA,NA
5419,NA,NA,NA,NA,survey-likert-extra-labels,54,359745,0.0-30.0-1.0,anomymised,6564584152624795c40b73cb,65645ef3290992d294ce9ed6,94358,1A,woman,NA,NA,Somebody says<br><em>Ruth is shouting at Mike</em>,shout_active,rating_volition,"{""Q0"":3}",[0],The speaker identifies more with <br>Ruth than Mike,The speaker identifies more with<br>Mike than Ruth,left_to_right
null,Somebody says<br><em>Dave is being hugged by Kate</em>,NA,NA,NA,html-keyboard-response,55,361747,0.0-31.0-0.0,anomymised,6564584152624795c40b73cb,65645ef3290992d294ce9ed6,94358,1A,woman,NA,null,NAME1 is being hugged by NAME2,hug_passive,sentence,NA,NA,NA,NA,NA
6451,NA,NA,NA,NA,survey-likert-extra-labels,56,368200,0.0-31.0-1.0,anomymised,6564584152624795c40b73cb,65645ef3290992d294ce9ed6,94358,1A,woman,NA,NA,Somebody says<br><em>Dave is being hugged by Kate</em>,hug_passive,rating_volition,"{""Q0"":4}",[0],The speaker identifies more with <br>Kate than Dave,The speaker identifies more with<br>Dave than Kate,right_to_left
null,Somebody says<br><em>Luke is being touched by Ruth</em>,NA,NA,NA,html-keyboard-response,57,370203,0.0-32.0-0.0,anomymised,6564584152624795c40b73cb,65645ef3290992d294ce9ed6,94358,1A,woman,NA,null,NAME1 is being touched by NAME2,touch_passive,sentence,NA,NA,NA,NA,NA
4811.799999999814,NA,NA,NA,NA,survey-likert-extra-labels,58,375016,0.0-32.0-1.0,anomymised,6564584152624795c40b73cb,65645ef3290992d294ce9ed6,94358,1A,woman,NA,NA,Somebody says<br><em>Luke is being touched by Ruth</em>,touch_passive,rating_volition,"{""Q0"":2}",[0],The speaker identifies more with <br>Luke than Ruth,The speaker identifies more with<br>Ruth than Luke,left_to_right
null,Somebody says<br><em>Luke and Beth are flirting with each other</em>,NA,NA,NA,html-keyboard-response,59,377018,0.0-33.0-0.0,anomymised,6564584152624795c40b73cb,65645ef3290992d294ce9ed6,94358,1A,woman,NA,null,NAME1 and NAME2 are flirting with each other,flirt_conjoined,sentence,NA,NA,NA,NA,NA
5692,NA,NA,NA,NA,survey-likert-extra-labels,60,382712,0.0-33.0-1.0,anomymised,6564584152624795c40b73cb,65645ef3290992d294ce9ed6,94358,1A,woman,NA,NA,Somebody says<br><em>Luke and Beth are flirting with each other</em>,flirt_conjoined,rating_volition,"{""Q0"":3}",[0],The speaker identifies more with <br>Luke than Beth,The speaker identifies more with<br>Beth than Luke,left_to_right
null,Somebody says<br><em>Jane and Ruth are dancing with each other</em>,NA,NA,NA,html-keyboard-response,61,384715,0.0-34.0-0.0,anomymised,6564584152624795c40b73cb,65645ef3290992d294ce9ed6,94358,1A,woman,NA,null,NAME1 and NAME2 are dancing with each other,dance_conjoined,sentence,NA,NA,NA,NA,NA
4068.1999999999534,NA,NA,NA,NA,survey-likert-extra-labels,62,388785,0.0-34.0-1.0,anomymised,6564584152624795c40b73cb,65645ef3290992d294ce9ed6,94358,1A,woman,NA,NA,Somebody says<br><em>Jane and Ruth are dancing with each other</em>,dance_conjoined,rating_volition,"{""Q0"":3}",[0],The speaker identifies more with <br>Ruth than Jane,The speaker identifies more with<br>Jane than Ruth,right_to_left
null,Somebody says<br><em>Kate and Beth are talking with each other</em>,NA,NA,NA,html-keyboard-response,63,390787,0.0-35.0-0.0,anomymised,6564584152624795c40b73cb,65645ef3290992d294ce9ed6,94358,1A,woman,NA,null,NAME1 and NAME2 are talking with each other,talk_conjoined,sentence,NA,NA,NA,NA,NA
4731,NA,NA,NA,NA,survey-likert-extra-labels,64,395520,0.0-35.0-1.0,anomymised,6564584152624795c40b73cb,65645ef3290992d294ce9ed6,94358,1A,woman,NA,NA,Somebody says<br><em>Kate and Beth are talking with each other</em>,talk_conjoined,rating_volition,"{""Q0"":3}",[0],The speaker identifies more with <br>Kate than Beth,The speaker identifies more with<br>Beth than Kate,left_to_right
null,Somebody says<br><em>Fred is hiring Ruth,NA,NA,NA,html-keyboard-response,65,397523,0.0-36.0-0.0,anomymised,6564584152624795c40b73cb,65645ef3290992d294ce9ed6,94358,1A,woman,NA,null,M3 is hiring W1,hire,sentence,NA,NA,NA,NA,NA
17011.5,NA,NA,NA,NA,survey-likert-extra-labels,66,414536,0.0-36.0-1.0,anomymised,6564584152624795c40b73cb,65645ef3290992d294ce9ed6,94358,1A,woman,NA,NA,Somebody says<br><em>Fred is hiring Ruth,hire,rating_volition,"{""Q0"":0}",[0],Fred is employing Ruth,Ruth is employing Fred,NA
null,Somebody says<br><em>Dave is being shouted at by Mike</em>,NA,NA,NA,html-keyboard-response,67,416538,0.0-37.0-0.0,anomymised,6564584152624795c40b73cb,65645ef3290992d294ce9ed6,94358,1A,woman,NA,null,NAME1 is being shouted at by NAME2,shout_passive,sentence,NA,NA,NA,NA,NA
9320.40000000014,NA,NA,NA,NA,survey-likert-extra-labels,68,425860,0.0-37.0-1.0,anomymised,6564584152624795c40b73cb,65645ef3290992d294ce9ed6,94358,1A,woman,NA,NA,Somebody says<br><em>Dave is being shouted at by Mike</em>,shout_passive,rating_volition,"{""Q0"":5}",[0],The speaker identifies more with <br>Mike than Dave,The speaker identifies more with<br>Dave than Mike,right_to_left
null,Somebody says<br><em>Mike and Kate are kissing each other</em>,NA,NA,NA,html-keyboard-response,69,427863,0.0-38.0-0.0,anomymised,6564584152624795c40b73cb,65645ef3290992d294ce9ed6,94358,1A,woman,NA,null,NAME1 and NAME2 are kissing each other,kiss_conjoined,sentence,NA,NA,NA,NA,NA
25215,NA,NA,NA,NA,survey-likert-extra-labels,70,453080,0.0-38.0-1.0,anomymised,6564584152624795c40b73cb,65645ef3290992d294ce9ed6,94358,1A,woman,NA,NA,Somebody says<br><em>Mike and Kate are kissing each other</em>,kiss_conjoined,rating_volition,"{""Q0"":3}",[0],The speaker identifies more with <br>Kate than Mike,The speaker identifies more with<br>Mike than Kate,right_to_left
null,Somebody says<br><em>Jane is playing with Dave</em>,NA,NA,NA,html-keyboard-response,71,455082,0.0-39.0-0.0,anomymised,6564584152624795c40b73cb,65645ef3290992d294ce9ed6,94358,1A,woman,NA,null,NAME1 is playing with NAME2,play_active,sentence,NA,NA,NA,NA,NA
4460.699999999953,NA,NA,NA,NA,survey-likert-extra-labels,72,459544,0.0-39.0-1.0,anomymised,6564584152624795c40b73cb,65645ef3290992d294ce9ed6,94358,1A,woman,NA,NA,Somebody says<br><em>Jane is playing with Dave</em>,play_active,rating_volition,"{""Q0"":4}",[0],The speaker identifies more with <br>Dave than Jane,The speaker identifies more with<br>Jane than Dave,right_to_left
null,Somebody says<br><em>Mike is posing for Dave,NA,NA,NA,html-keyboard-response,73,461547,0.0-40.0-0.0,anomymised,6564584152624795c40b73cb,65645ef3290992d294ce9ed6,94358,1A,woman,NA,null,M2 is posing for M4,pose,sentence,NA,NA,NA,NA,NA
57984.5,NA,NA,NA,NA,survey-likert-extra-labels,74,519533,0.0-40.0-1.0,anomymised,6564584152624795c40b73cb,65645ef3290992d294ce9ed6,94358,1A,woman,NA,NA,Somebody says<br><em>Mike is posing for Dave,pose,rating_volition,"{""Q0"":0}",[0],Mike is modelling for Dave,Dave is modelling for Mike,NA
null,Somebody says<br><em>Luke is meeting Kate</em>,NA,NA,NA,html-keyboard-response,75,521536,0.0-41.0-0.0,anomymised,6564584152624795c40b73cb,65645ef3290992d294ce9ed6,94358,1A,woman,NA,null,NAME1 is meeting NAME2,meet_active,sentence,NA,NA,NA,NA,NA
5094.300000000047,NA,NA,NA,NA,survey-likert-extra-labels,76,526632,0.0-41.0-1.0,anomymised,6564584152624795c40b73cb,65645ef3290992d294ce9ed6,94358,1A,woman,NA,NA,Somebody says<br><em>Luke is meeting Kate</em>,meet_active,rating_volition,"{""Q0"":2}",[0],The speaker identifies more with <br>Luke than Kate,The speaker identifies more with<br>Kate than Luke,left_to_right
null,Somebody says<br><em>Mike and Beth are hugging each other</em>,NA,NA,NA,html-keyboard-response,77,528635,0.0-42.0-0.0,anomymised,6564584152624795c40b73cb,65645ef3290992d294ce9ed6,94358,1A,woman,NA,null,NAME1 and NAME2 are hugging each other,hug_conjoined,sentence,NA,NA,NA,NA,NA
2224.2000000001863,NA,NA,NA,NA,survey-likert-extra-labels,78,530861,0.0-42.0-1.0,anomymised,6564584152624795c40b73cb,65645ef3290992d294ce9ed6,94358,1A,woman,NA,NA,Somebody says<br><em>Mike and Beth are hugging each other</em>,hug_conjoined,rating_volition,"{""Q0"":3}",[0],The speaker identifies more with <br>Mike than Beth,The speaker identifies more with<br>Beth than Mike,left_to_right
null,Somebody says<br><em>Kate is hugging Jane</em>,NA,NA,NA,html-keyboard-response,79,532863,0.0-43.0-0.0,anomymised,6564584152624795c40b73cb,65645ef3290992d294ce9ed6,94358,1A,woman,NA,null,NAME1 is hugging NAME2,hug_active,sentence,NA,NA,NA,NA,NA
4012.3000000000466,NA,NA,NA,NA,survey-likert-extra-labels,80,536877,0.0-43.0-1.0,anomymised,6564584152624795c40b73cb,65645ef3290992d294ce9ed6,94358,1A,woman,NA,NA,Somebody says<br><em>Kate is hugging Jane</em>,hug_active,rating_volition,"{""Q0"":2}",[0],The speaker identifies more with <br>Kate than Jane,The speaker identifies more with<br>Jane than Kate,left_to_right
null,Somebody says<br><em>Kate is feeding Luke,NA,NA,NA,html-keyboard-response,81,538880,0.0-44.0-0.0,anomymised,6564584152624795c40b73cb,65645ef3290992d294ce9ed6,94358,1A,woman,NA,null,W3 is feeding M1,feed,sentence,NA,NA,NA,NA,NA
8899.300000000047,NA,NA,NA,NA,survey-likert-extra-labels,82,547781,0.0-44.0-1.0,anomymised,6564584152624795c40b73cb,65645ef3290992d294ce9ed6,94358,1A,woman,NA,NA,Somebody says<br><em>Kate is feeding Luke,feed,rating_volition,"{""Q0"":1}",[0],Kate cooked for Luke,Luke cooked for Kate,NA
null,Somebody says<br><em>Beth is being looked at by Kate</em>,NA,NA,NA,html-keyboard-response,83,549783,0.0-45.0-0.0,anomymised,6564584152624795c40b73cb,65645ef3290992d294ce9ed6,94358,1A,woman,NA,null,NAME1 is being looked at by NAME2,look_passive,sentence,NA,NA,NA,NA,NA
42891.200000000186,NA,NA,NA,NA,survey-likert-extra-labels,84,592676,0.0-45.0-1.0,anomymised,6564584152624795c40b73cb,65645ef3290992d294ce9ed6,94358,1A,woman,NA,NA,Somebody says<br><em>Beth is being looked at by Kate</em>,look_passive,rating_volition,"{""Q0"":5}",[0],The speaker identifies more with <br>Kate than Beth,The speaker identifies more with<br>Beth than Kate,right_to_left
null,Somebody says<br><em>Luke and Dave are shouting at each other</em>,NA,NA,NA,html-keyboard-response,85,594679,0.0-46.0-0.0,anomymised,6564584152624795c40b73cb,65645ef3290992d294ce9ed6,94358,1A,woman,NA,null,NAME1 and NAME2 are shouting at each other,shout_conjoined,sentence,NA,NA,NA,NA,NA
6035.90000000014,NA,NA,NA,NA,survey-likert-extra-labels,86,600717,0.0-46.0-1.0,anomymised,6564584152624795c40b73cb,65645ef3290992d294ce9ed6,94358,1A,woman,NA,NA,Somebody says<br><em>Luke and Dave are shouting at each other</em>,shout_conjoined,rating_volition,"{""Q0"":3}",[0],The speaker identifies more with <br>Dave than Luke,The speaker identifies more with<br>Luke than Dave,right_to_left
null,Somebody says<br><em>Ruth is being greeted by Kate</em>,NA,NA,NA,html-keyboard-response,87,602720,0.0-47.0-0.0,anomymised,6564584152624795c40b73cb,65645ef3290992d294ce9ed6,94358,1A,woman,NA,null,NAME1 is being greeted by NAME2,greet_passive,sentence,NA,NA,NA,NA,NA
5615.300000000047,NA,NA,NA,NA,survey-likert-extra-labels,88,608337,0.0-47.0-1.0,anomymised,6564584152624795c40b73cb,65645ef3290992d294ce9ed6,94358,1A,woman,NA,NA,Somebody says<br><em>Ruth is being greeted by Kate</em>,greet_passive,rating_volition,"{""Q0"":1}",[0],The speaker identifies more with <br>Ruth than Kate,The speaker identifies more with<br>Kate than Ruth,left_to_right
null,Somebody says<br><em>Dave is dancing with Ruth</em>,NA,NA,NA,html-keyboard-response,89,610339,0.0-48.0-0.0,anomymised,6564584152624795c40b73cb,65645ef3290992d294ce9ed6,94358,1A,woman,NA,null,NAME1 is dancing with NAME2,dance_active,sentence,NA,NA,NA,NA,NA
4671.600000000093,NA,NA,NA,NA,survey-likert-extra-labels,90,615013,0.0-48.0-1.0,anomymised,6564584152624795c40b73cb,65645ef3290992d294ce9ed6,94358,1A,woman,NA,NA,Somebody says<br><em>Dave is dancing with Ruth</em>,dance_active,rating_volition,"{""Q0"":4}",[0],The speaker identifies more with <br>Ruth than Dave,The speaker identifies more with<br>Dave than Ruth,right_to_left
null,Somebody says<br><em>Kate and Dave are playing with each other</em>,NA,NA,NA,html-keyboard-response,91,617016,0.0-49.0-0.0,anomymised,6564584152624795c40b73cb,65645ef3290992d294ce9ed6,94358,1A,woman,NA,null,NAME1 and NAME2 are playing with each other,play_conjoined,sentence,NA,NA,NA,NA,NA
4163.09999999986,NA,NA,NA,NA,survey-likert-extra-labels,92,621181,0.0-49.0-1.0,anomymised,6564584152624795c40b73cb,65645ef3290992d294ce9ed6,94358,1A,woman,NA,NA,Somebody says<br><em>Kate and Dave are playing with each other</em>,play_conjoined,rating_volition,"{""Q0"":3}",[0],The speaker identifies more with <br>Dave than Kate,The speaker identifies more with<br>Kate than Dave,right_to_left
null,Somebody says<br><em>Luke and Dave are arguing with each other</em>,NA,NA,NA,html-keyboard-response,93,623183,0.0-50.0-0.0,anomymised,6564584152624795c40b73cb,65645ef3290992d294ce9ed6,94358,1A,woman,NA,null,NAME1 and NAME2 are arguing with each other,argue_conjoined,sentence,NA,NA,NA,NA,NA
4467.399999999907,NA,NA,NA,NA,survey-likert-extra-labels,94,627653,0.0-50.0-1.0,anomymised,6564584152624795c40b73cb,65645ef3290992d294ce9ed6,94358,1A,woman,NA,NA,Somebody says<br><em>Luke and Dave are arguing with each other</em>,argue_conjoined,rating_volition,"{""Q0"":3}",[0],The speaker identifies more with <br>Dave than Luke,The speaker identifies more with<br>Luke than Dave,right_to_left
null,Somebody says<br><em>Luke is greeting Beth</em>,NA,NA,NA,html-keyboard-response,95,629655,0.0-51.0-0.0,anomymised,6564584152624795c40b73cb,65645ef3290992d294ce9ed6,94358,1A,woman,NA,null,NAME1 is greeting NAME2,greet_active,sentence,NA,NA,NA,NA,NA
4135.899999999907,NA,NA,NA,NA,survey-likert-extra-labels,96,633793,0.0-51.0-1.0,anomymised,6564584152624795c40b73cb,65645ef3290992d294ce9ed6,94358,1A,woman,NA,NA,Somebody says<br><em>Luke is greeting Beth</em>,greet_active,rating_volition,"{""Q0"":2}",[0],The speaker identifies more with <br>Luke than Beth,The speaker identifies more with<br>Beth than Luke,left_to_right
null,Somebody says<br><em>Dave is talking to Luke</em>,NA,NA,NA,html-keyboard-response,97,635795,0.0-52.0-0.0,anomymised,6564584152624795c40b73cb,65645ef3290992d294ce9ed6,94358,1A,woman,NA,null,NAME1 is talking to NAME2,talk_active,sentence,NA,NA,NA,NA,NA
4078.899999999907,NA,NA,NA,NA,survey-likert-extra-labels,98,639876,0.0-52.0-1.0,anomymised,6564584152624795c40b73cb,65645ef3290992d294ce9ed6,94358,1A,woman,NA,NA,Somebody says<br><em>Dave is talking to Luke</em>,talk_active,rating_volition,"{""Q0"":4}",[0],The speaker identifies more with <br>Luke than Dave,The speaker identifies more with<br>Dave than Luke,right_to_left
null,Somebody says<br><em>Jane is teaching Dave,NA,NA,NA,html-keyboard-response,99,641879,0.0-53.0-0.0,anomymised,6564584152624795c40b73cb,65645ef3290992d294ce9ed6,94358,1A,woman,NA,null,W2 is teaching M4,teach,sentence,NA,NA,NA,NA,NA
10319.800000000047,NA,NA,NA,NA,survey-likert-extra-labels,100,652201,0.0-53.0-1.0,anomymised,6564584152624795c40b73cb,65645ef3290992d294ce9ed6,94358,1A,woman,NA,NA,Somebody says<br><em>Jane is teaching Dave,teach,rating_volition,"{""Q0"":0}",[0],Jane is educating Dave,Dave is educating Jane,NA
null,Somebody says<br><em>Mike is reminding Beth,NA,NA,NA,html-keyboard-response,101,654203,0.0-54.0-0.0,anomymised,6564584152624795c40b73cb,65645ef3290992d294ce9ed6,94358,1A,woman,NA,null,M2 is reminding W4,remind,sentence,NA,NA,NA,NA,NA
10867.300000000047,NA,NA,NA,NA,survey-likert-extra-labels,102,665072,0.0-54.0-1.0,anomymised,6564584152624795c40b73cb,65645ef3290992d294ce9ed6,94358,1A,woman,NA,NA,Somebody says<br><em>Mike is reminding Beth,remind,rating_volition,"{""Q0"":0}",[0],Mike is telling Beth again,Beth is telling Mike again,NA
null,Somebody says<br><em>Ruth is chasing Kate,NA,NA,NA,html-keyboard-response,103,667075,0.0-55.0-0.0,anomymised,6564584152624795c40b73cb,65645ef3290992d294ce9ed6,94358,1A,woman,NA,null,W1 is chasing W3,chase,sentence,NA,NA,NA,NA,NA
5951.299999999814,NA,NA,NA,NA,survey-likert-extra-labels,104,673028,0.0-55.0-1.0,anomymised,6564584152624795c40b73cb,65645ef3290992d294ce9ed6,94358,1A,woman,NA,NA,Somebody says<br><em>Ruth is chasing Kate,chase,rating_volition,"{""Q0"":6}",[0],Ruth is behind Kate,Kate is behind Ruth,NA
2021.3999999999069,<p>Thank you for completing that task.</p><p>The final part of this session is a short questionnaire.</p><p>Press Continue.</p>,0,Continue,Continue,html-button-response,105,675052,0.0-56.0,anomymised,6564584152624795c40b73cb,65645ef3290992d294ce9ed6,94358,1A,woman,NA,NA,NA,NA,NA,NA,NA,NA,NA,NA
47486,NA,NA,NA,NA,survey-text,106,723545,0.0-57.0,anomymised,6564584152624795c40b73cb,65645ef3290992d294ce9ed6,94358,1A,woman,NA,NA,NA,NA,demographics,"{""Q0"":""65"",""Q1"":""English"",""Q2"":""English"",""Q3"":""United Kingdom"",""Q4"":""English"",""Q5"":""White British"",""Q6"":""Female""}",NA,NA,NA,NA
3180.6999999999534,<p>This is the last question - thank you for taking part! Have you lived in the UK for the last 5 years or more?</p>,0,"Yes,No",Yes,html-button-response,107,726728,0.0-58.0,anomymised,6564584152624795c40b73cb,65645ef3290992d294ce9ed6,94358,1A,woman,NA,NA,NA,NA,fiveyears,NA,NA,NA,NA,NA
