rt,stimulus,button_pressed,choices,ChosenStimulus,trial_type,trial_index,time_elapsed,internal_node_id,subject_id,study_id,session_id,subject,list,ppt_gender,url,key_press,sentence_type,verb,test_part,responses,question_order,left_part,right_part,name_order
2885.699999999255,Welcome to the experiment. Press Continue to begin.,0,Continue,Continue,html-button-response,0,2888,0.0-0.0,anomymised,6564584152624795c40b73cb,6564bdb173d57ed9854ae0ac,94639,1A,woman,NA,NA,NA,NA,NA,NA,NA,NA,NA,NA
15104.60000000149,NA,NA,NA,NA,external-html,1,19047,0.0-1.0,anomymised,6564584152624795c40b73cb,6564bdb173d57ed9854ae0ac,94639,1A,woman,consent.html,NA,NA,NA,NA,NA,NA,NA,NA,NA
32078.5,"<p>Welcome.</p><p>In this experiment we will ask you to imagine people's motivations for saying sentences.</p><p>Each trial will begin with a sentence that somebody might say to describe an event involving two different people.</p><p>For instance, someone might say <em>Harry is being recruited by Molly</em></p><p>We want you to think about which of those two people (Molly and Harry) the speaker identifies more with. For instance, why did the speaker say <em>Harry is being recruited by Molly</em> rather than <em> Molly is recruiting Harry</em>? Might that mean that the speaker is socially closer to one of the two characters?</p><p>After you have read the sentence, you will rate on a scale which of the two characters the speaker identifies more with.</p><p>You will give your answer by clicking a button on a rating scale.</p><p>Sometimes there will also be catch questions designed to make sure that you are paying attention, which ask about a different topic.</p><p>To do this task, you will have to use your imagination to think about and visualise the events, and how the speaker might relate to the characters.</p><br><p>Ready?</p>",0,Continue,Continue,html-button-response,2,51127,0.0-2.0,anomymised,6564584152624795c40b73cb,6564bdb173d57ed9854ae0ac,94639,1A,woman,NA,NA,NA,NA,NA,NA,NA,NA,NA,NA
1950,"<p>Before the experiment starts, we will show you an example of how you will answer the questions. Press 'Continue'.</p>",0,Continue,Continue,html-button-response,3,54087,0.0-3.0,anomymised,6564584152624795c40b73cb,6564bdb173d57ed9854ae0ac,94639,1A,woman,NA,NA,NA,NA,NA,NA,NA,NA,NA,NA
null,Somebody says <br><em>Samuel is dining with Frank</em>,NA,NA,NA,html-keyboard-response,4,57101,0.0-4.0,anomymised,6564584152624795c40b73cb,6564bdb173d57ed9854ae0ac,94639,1A,woman,NA,null,NA,NA,NA,NA,NA,NA,NA,NA
12473.20000000298,<img src='img/Example-trial.jpg' style='height:550px;''></img>,0,Continue,Continue,html-button-response,5,69575,0.0-5.0,anomymised,6564584152624795c40b73cb,6564bdb173d57ed9854ae0ac,94639,1A,woman,NA,NA,NA,NA,NA,NA,NA,NA,NA,NA
1990.1000000014901,<p>Ready to start the experiment?</p><br><p><strong>Remember to give an answer by clicking a button on the rating scale.</strong></p><p>Press 'Continue' to begin.</p>,0,Continue,Continue,html-button-response,6,72566,0.0-6.0,anomymised,6564584152624795c40b73cb,6564bdb173d57ed9854ae0ac,94639,1A,woman,NA,NA,NA,NA,NA,NA,NA,NA,NA,NA
null,Somebody says<br><em>Fred is marrying Ruth</em>,NA,NA,NA,html-keyboard-response,7,75577,0.0-7.0-0.0,anomymised,6564584152624795c40b73cb,6564bdb173d57ed9854ae0ac,94639,1A,woman,NA,null,NAME1 is marrying NAME2,marry_active,sentence,NA,NA,NA,NA,NA
5651.10000000149,NA,NA,NA,NA,survey-likert-extra-labels,8,81231,0.0-7.0-1.0,anomymised,6564584152624795c40b73cb,6564bdb173d57ed9854ae0ac,94639,1A,woman,NA,NA,Somebody says<br><em>Fred is marrying Ruth</em>,marry_active,rating_volition,"{""Q0"":5}",[0],The speaker identifies more with <br>Ruth than Fred,The speaker identifies more with<br>Fred than Ruth,right_to_left
null,Somebody says<br><em>Mike and Kate are flirting with each other</em>,NA,NA,NA,html-keyboard-response,9,83238,0.0-8.0-0.0,anomymised,6564584152624795c40b73cb,6564bdb173d57ed9854ae0ac,94639,1A,woman,NA,null,NAME1 and NAME2 are flirting with each other,flirt_conjoined,sentence,NA,NA,NA,NA,NA
4111.89999999851,NA,NA,NA,NA,survey-likert-extra-labels,10,87352,0.0-8.0-1.0,anomymised,6564584152624795c40b73cb,6564bdb173d57ed9854ae0ac,94639,1A,woman,NA,NA,Somebody says<br><em>Mike and Kate are flirting with each other</em>,flirt_conjoined,rating_volition,"{""Q0"":3}",[0],The speaker identifies more with <br>Kate than Mike,The speaker identifies more with<br>Mike than Kate,right_to_left
null,Somebody says<br><em>Fred is hiring Ruth,NA,NA,NA,html-keyboard-response,11,89367,0.0-9.0-0.0,anomymised,6564584152624795c40b73cb,6564bdb173d57ed9854ae0ac,94639,1A,woman,NA,null,M3 is hiring W1,hire,sentence,NA,NA,NA,NA,NA
8679.300000000745,NA,NA,NA,NA,survey-likert-extra-labels,12,98047,0.0-9.0-1.0,anomymised,6564584152624795c40b73cb,6564bdb173d57ed9854ae0ac,94639,1A,woman,NA,NA,Somebody says<br><em>Fred is hiring Ruth,hire,rating_volition,"{""Q0"":0}",[0],Fred is employing Ruth,Ruth is employing Fred,NA
null,Somebody says<br><em>Jane is copying Dave</em>,NA,NA,NA,html-keyboard-response,13,100058,0.0-10.0-0.0,anomymised,6564584152624795c40b73cb,6564bdb173d57ed9854ae0ac,94639,1A,woman,NA,null,NAME1 is copying NAME2,copy_active,sentence,NA,NA,NA,NA,NA
6979.79999999702,NA,NA,NA,NA,survey-likert-extra-labels,14,107039,0.0-10.0-1.0,anomymised,6564584152624795c40b73cb,6564bdb173d57ed9854ae0ac,94639,1A,woman,NA,NA,Somebody says<br><em>Jane is copying Dave</em>,copy_active,rating_volition,"{""Q0"":6}",[0],The speaker identifies more with <br>Dave than Jane,The speaker identifies more with<br>Jane than Dave,right_to_left
null,Somebody says<br><em>Beth is being kissed by Mike</em>,NA,NA,NA,html-keyboard-response,15,109048,0.0-11.0-0.0,anomymised,6564584152624795c40b73cb,6564bdb173d57ed9854ae0ac,94639,1A,woman,NA,null,NAME1 is being kissed by NAME2,kiss_passive,sentence,NA,NA,NA,NA,NA
10278.400000002235,NA,NA,NA,NA,survey-likert-extra-labels,16,119327,0.0-11.0-1.0,anomymised,6564584152624795c40b73cb,6564bdb173d57ed9854ae0ac,94639,1A,woman,NA,NA,Somebody says<br><em>Beth is being kissed by Mike</em>,kiss_passive,rating_volition,"{""Q0"":3}",[0],The speaker identifies more with <br>Beth than Mike,The speaker identifies more with<br>Mike than Beth,left_to_right
null,Somebody says<br><em>Jane and Ruth are hugging each other</em>,NA,NA,NA,html-keyboard-response,17,121346,0.0-12.0-0.0,anomymised,6564584152624795c40b73cb,6564bdb173d57ed9854ae0ac,94639,1A,woman,NA,null,NAME1 and NAME2 are hugging each other,hug_conjoined,sentence,NA,NA,NA,NA,NA
9768.699999999255,NA,NA,NA,NA,survey-likert-extra-labels,18,131117,0.0-12.0-1.0,anomymised,6564584152624795c40b73cb,6564bdb173d57ed9854ae0ac,94639,1A,woman,NA,NA,Somebody says<br><em>Jane and Ruth are hugging each other</em>,hug_conjoined,rating_volition,"{""Q0"":3}",[0],The speaker identifies more with <br>Ruth than Jane,The speaker identifies more with<br>Jane than Ruth,right_to_left
null,Somebody says<br><em>Mike is looking at Ruth</em>,NA,NA,NA,html-keyboard-response,19,133125,0.0-13.0-0.0,anomymised,6564584152624795c40b73cb,6564bdb173d57ed9854ae0ac,94639,1A,woman,NA,null,NAME1 is looking at NAME2,look_active,sentence,NA,NA,NA,NA,NA
3784.7000000029802,NA,NA,NA,NA,survey-likert-extra-labels,20,136911,0.0-13.0-1.0,anomymised,6564584152624795c40b73cb,6564bdb173d57ed9854ae0ac,94639,1A,woman,NA,NA,Somebody says<br><em>Mike is looking at Ruth</em>,look_active,rating_volition,"{""Q0"":6}",[0],The speaker identifies more with <br>Ruth than Mike,The speaker identifies more with<br>Mike than Ruth,right_to_left
null,Somebody says<br><em>Fred is shouting at Dave</em>,NA,NA,NA,html-keyboard-response,21,138919,0.0-14.0-0.0,anomymised,6564584152624795c40b73cb,6564bdb173d57ed9854ae0ac,94639,1A,woman,NA,null,NAME1 is shouting at NAME2,shout_active,sentence,NA,NA,NA,NA,NA
3934.699999999255,NA,NA,NA,NA,survey-likert-extra-labels,22,142855,0.0-14.0-1.0,anomymised,6564584152624795c40b73cb,6564bdb173d57ed9854ae0ac,94639,1A,woman,NA,NA,Somebody says<br><em>Fred is shouting at Dave</em>,shout_active,rating_volition,"{""Q0"":6}",[0],The speaker identifies more with <br>Dave than Fred,The speaker identifies more with<br>Fred than Dave,right_to_left
null,Somebody says<br><em>Mike is seducing Fred</em>,NA,NA,NA,html-keyboard-response,23,144871,0.0-15.0-0.0,anomymised,6564584152624795c40b73cb,6564bdb173d57ed9854ae0ac,94639,1A,woman,NA,null,NAME1 is seducing NAME2,seduce_active,sentence,NA,NA,NA,NA,NA
6934.199999999255,NA,NA,NA,NA,survey-likert-extra-labels,24,151807,0.0-15.0-1.0,anomymised,6564584152624795c40b73cb,6564bdb173d57ed9854ae0ac,94639,1A,woman,NA,NA,Somebody says<br><em>Mike is seducing Fred</em>,seduce_active,rating_volition,"{""Q0"":0}",[0],The speaker identifies more with <br>Mike than Fred,The speaker identifies more with<br>Fred than Mike,left_to_right
null,Somebody says<br><em>Jane is playing with Ruth</em>,NA,NA,NA,html-keyboard-response,25,153810,0.0-16.0-0.0,anomymised,6564584152624795c40b73cb,6564bdb173d57ed9854ae0ac,94639,1A,woman,NA,null,NAME1 is playing with NAME2,play_active,sentence,NA,NA,NA,NA,NA
6771.400000002235,NA,NA,NA,NA,survey-likert-extra-labels,26,160583,0.0-16.0-1.0,anomymised,6564584152624795c40b73cb,6564bdb173d57ed9854ae0ac,94639,1A,woman,NA,NA,Somebody says<br><em>Jane is playing with Ruth</em>,play_active,rating_volition,"{""Q0"":6}",[0],The speaker identifies more with <br>Ruth than Jane,The speaker identifies more with<br>Jane than Ruth,right_to_left
null,Somebody says<br><em>Kate is dancing with Dave</em>,NA,NA,NA,html-keyboard-response,27,162595,0.0-17.0-0.0,anomymised,6564584152624795c40b73cb,6564bdb173d57ed9854ae0ac,94639,1A,woman,NA,null,NAME1 is dancing with NAME2,dance_active,sentence,NA,NA,NA,NA,NA
3363.199999999255,NA,NA,NA,NA,survey-likert-extra-labels,28,165959,0.0-17.0-1.0,anomymised,6564584152624795c40b73cb,6564bdb173d57ed9854ae0ac,94639,1A,woman,NA,NA,Somebody says<br><em>Kate is dancing with Dave</em>,dance_active,rating_volition,"{""Q0"":3}",[0],The speaker identifies more with <br>Dave than Kate,The speaker identifies more with<br>Kate than Dave,right_to_left
null,Somebody says<br><em>Mike is reminding Beth,NA,NA,NA,html-keyboard-response,29,167974,0.0-18.0-0.0,anomymised,6564584152624795c40b73cb,6564bdb173d57ed9854ae0ac,94639,1A,woman,NA,null,M2 is reminding W4,remind,sentence,NA,NA,NA,NA,NA
9830.199999999255,NA,NA,NA,NA,survey-likert-extra-labels,30,177806,0.0-18.0-1.0,anomymised,6564584152624795c40b73cb,6564bdb173d57ed9854ae0ac,94639,1A,woman,NA,NA,Somebody says<br><em>Mike is reminding Beth,remind,rating_volition,"{""Q0"":1}",[0],Mike is telling Beth again,Beth is telling Mike again,NA
null,Somebody says<br><em>Jane and Dave are talking with each other</em>,NA,NA,NA,html-keyboard-response,31,179825,0.0-19.0-0.0,anomymised,6564584152624795c40b73cb,6564bdb173d57ed9854ae0ac,94639,1A,woman,NA,null,NAME1 and NAME2 are talking with each other,talk_conjoined,sentence,NA,NA,NA,NA,NA
2044,NA,NA,NA,NA,survey-likert-extra-labels,32,181870,0.0-19.0-1.0,anomymised,6564584152624795c40b73cb,6564bdb173d57ed9854ae0ac,94639,1A,woman,NA,NA,Somebody says<br><em>Jane and Dave are talking with each other</em>,talk_conjoined,rating_volition,"{""Q0"":3}",[0],The speaker identifies more with <br>Dave than Jane,The speaker identifies more with<br>Jane than Dave,right_to_left
null,Somebody says<br><em>Jane is shouting at Beth</em>,NA,NA,NA,html-keyboard-response,33,183883,0.0-20.0-0.0,anomymised,6564584152624795c40b73cb,6564bdb173d57ed9854ae0ac,94639,1A,woman,NA,null,NAME1 is shouting at NAME2,shout_active,sentence,NA,NA,NA,NA,NA
2890.39999999851,NA,NA,NA,NA,survey-likert-extra-labels,34,186774,0.0-20.0-1.0,anomymised,6564584152624795c40b73cb,6564bdb173d57ed9854ae0ac,94639,1A,woman,NA,NA,Somebody says<br><em>Jane is shouting at Beth</em>,shout_active,rating_volition,"{""Q0"":6}",[0],The speaker identifies more with <br>Beth than Jane,The speaker identifies more with<br>Jane than Beth,right_to_left
null,Somebody says<br><em>Mike is posing for Dave,NA,NA,NA,html-keyboard-response,35,188781,0.0-21.0-0.0,anomymised,6564584152624795c40b73cb,6564bdb173d57ed9854ae0ac,94639,1A,woman,NA,null,M2 is posing for M4,pose,sentence,NA,NA,NA,NA,NA
10664.199999999255,NA,NA,NA,NA,survey-likert-extra-labels,36,199446,0.0-21.0-1.0,anomymised,6564584152624795c40b73cb,6564bdb173d57ed9854ae0ac,94639,1A,woman,NA,NA,Somebody says<br><em>Mike is posing for Dave,pose,rating_volition,"{""Q0"":0}",[0],Mike is modelling for Dave,Dave is modelling for Mike,NA
null,Somebody says<br><em>Ruth and Jane are dancing with each other</em>,NA,NA,NA,html-keyboard-response,37,201460,0.0-22.0-0.0,anomymised,6564584152624795c40b73cb,6564bdb173d57ed9854ae0ac,94639,1A,woman,NA,null,NAME1 and NAME2 are dancing with each other,dance_conjoined,sentence,NA,NA,NA,NA,NA
1752.9000000022352,NA,NA,NA,NA,survey-likert-extra-labels,38,203214,0.0-22.0-1.0,anomymised,6564584152624795c40b73cb,6564bdb173d57ed9854ae0ac,94639,1A,woman,NA,NA,Somebody says<br><em>Ruth and Jane are dancing with each other</em>,dance_conjoined,rating_volition,"{""Q0"":3}",[0],The speaker identifies more with <br>Ruth than Jane,The speaker identifies more with<br>Jane than Ruth,left_to_right
null,Somebody says<br><em>Luke is driving Fred,NA,NA,NA,html-keyboard-response,39,205226,0.0-23.0-0.0,anomymised,6564584152624795c40b73cb,6564bdb173d57ed9854ae0ac,94639,1A,woman,NA,null,M1 is driving M3,drive,sentence,NA,NA,NA,NA,NA
5002.900000002235,NA,NA,NA,NA,survey-likert-extra-labels,40,210231,0.0-23.0-1.0,anomymised,6564584152624795c40b73cb,6564bdb173d57ed9854ae0ac,94639,1A,woman,NA,NA,Somebody says<br><em>Luke is driving Fred,drive,rating_volition,"{""Q0"":6}",[0],Luke is Fred's passenger,Fred is Luke's passenger,NA
null,Somebody says<br><em>Kate is greeting Luke</em>,NA,NA,NA,html-keyboard-response,41,212245,0.0-24.0-0.0,anomymised,6564584152624795c40b73cb,6564bdb173d57ed9854ae0ac,94639,1A,woman,NA,null,NAME1 is greeting NAME2,greet_active,sentence,NA,NA,NA,NA,NA
3421.5,NA,NA,NA,NA,survey-likert-extra-labels,42,215671,0.0-24.0-1.0,anomymised,6564584152624795c40b73cb,6564bdb173d57ed9854ae0ac,94639,1A,woman,NA,NA,Somebody says<br><em>Kate is greeting Luke</em>,greet_active,rating_volition,"{""Q0"":0}",[0],The speaker identifies more with <br>Kate than Luke,The speaker identifies more with<br>Luke than Kate,left_to_right
null,Somebody says<br><em>Fred is fighting with Dave</em>,NA,NA,NA,html-keyboard-response,43,217677,0.0-25.0-0.0,anomymised,6564584152624795c40b73cb,6564bdb173d57ed9854ae0ac,94639,1A,woman,NA,null,NAME1 is fighting with NAME2,fight_active,sentence,NA,NA,NA,NA,NA
4743.5,NA,NA,NA,NA,survey-likert-extra-labels,44,222423,0.0-25.0-1.0,anomymised,6564584152624795c40b73cb,6564bdb173d57ed9854ae0ac,94639,1A,woman,NA,NA,Somebody says<br><em>Fred is fighting with Dave</em>,fight_active,rating_volition,"{""Q0"":0}",[0],The speaker identifies more with <br>Fred than Dave,The speaker identifies more with<br>Dave than Fred,left_to_right
null,Somebody says<br><em>Mike is arguing with Dave</em>,NA,NA,NA,html-keyboard-response,45,224433,0.0-26.0-0.0,anomymised,6564584152624795c40b73cb,6564bdb173d57ed9854ae0ac,94639,1A,woman,NA,null,NAME1 is arguing with NAME2,argue_active,sentence,NA,NA,NA,NA,NA
5898.199999999255,NA,NA,NA,NA,survey-likert-extra-labels,46,230335,0.0-26.0-1.0,anomymised,6564584152624795c40b73cb,6564bdb173d57ed9854ae0ac,94639,1A,woman,NA,NA,Somebody says<br><em>Mike is arguing with Dave</em>,argue_active,rating_volition,"{""Q0"":0}",[0],The speaker identifies more with <br>Mike than Dave,The speaker identifies more with<br>Dave than Mike,left_to_right
null,Somebody says<br><em>Kate is being shouted at by Dave</em>,NA,NA,NA,html-keyboard-response,47,232354,0.0-27.0-0.0,anomymised,6564584152624795c40b73cb,6564bdb173d57ed9854ae0ac,94639,1A,woman,NA,null,NAME1 is being shouted at by NAME2,shout_passive,sentence,NA,NA,NA,NA,NA
5660.199999999255,NA,NA,NA,NA,survey-likert-extra-labels,48,238016,0.0-27.0-1.0,anomymised,6564584152624795c40b73cb,6564bdb173d57ed9854ae0ac,94639,1A,woman,NA,NA,Somebody says<br><em>Kate is being shouted at by Dave</em>,shout_passive,rating_volition,"{""Q0"":6}",[0],The speaker identifies more with <br>Dave than Kate,The speaker identifies more with<br>Kate than Dave,right_to_left
null,Somebody says<br><em>Ruth and Mike are kissing each other</em>,NA,NA,NA,html-keyboard-response,49,240020,0.0-28.0-0.0,anomymised,6564584152624795c40b73cb,6564bdb173d57ed9854ae0ac,94639,1A,woman,NA,null,NAME1 and NAME2 are kissing each other,kiss_conjoined,sentence,NA,NA,NA,NA,NA
9494.10000000149,NA,NA,NA,NA,survey-likert-extra-labels,50,249519,0.0-28.0-1.0,anomymised,6564584152624795c40b73cb,6564bdb173d57ed9854ae0ac,94639,1A,woman,NA,NA,Somebody says<br><em>Ruth and Mike are kissing each other</em>,kiss_conjoined,rating_volition,"{""Q0"":3}",[0],The speaker identifies more with <br>Mike than Ruth,The speaker identifies more with<br>Ruth than Mike,right_to_left
null,Somebody says<br><em>Kate is being greeted by Jane</em>,NA,NA,NA,html-keyboard-response,51,251524,0.0-29.0-0.0,anomymised,6564584152624795c40b73cb,6564bdb173d57ed9854ae0ac,94639,1A,woman,NA,null,NAME1 is being greeted by NAME2,greet_passive,sentence,NA,NA,NA,NA,NA
5697.5,NA,NA,NA,NA,survey-likert-extra-labels,52,257224,0.0-29.0-1.0,anomymised,6564584152624795c40b73cb,6564bdb173d57ed9854ae0ac,94639,1A,woman,NA,NA,Somebody says<br><em>Kate is being greeted by Jane</em>,greet_passive,rating_volition,"{""Q0"":6}",[0],The speaker identifies more with <br>Jane than Kate,The speaker identifies more with<br>Kate than Jane,right_to_left
null,Somebody says<br><em>Jane is carrying Beth,NA,NA,NA,html-keyboard-response,53,259228,0.0-30.0-0.0,anomymised,6564584152624795c40b73cb,6564bdb173d57ed9854ae0ac,94639,1A,woman,NA,null,W2 is carrying W4,carry,sentence,NA,NA,NA,NA,NA
2994.10000000149,NA,NA,NA,NA,survey-likert-extra-labels,54,262223,0.0-30.0-1.0,anomymised,6564584152624795c40b73cb,6564bdb173d57ed9854ae0ac,94639,1A,woman,NA,NA,Somebody says<br><em>Jane is carrying Beth,carry,rating_volition,"{""Q0"":0}",[0],Jane is transporting Beth,Beth is transporting Jane,NA
null,Somebody says<br><em>Beth and Mike are fighting with each other</em>,NA,NA,NA,html-keyboard-response,55,264242,0.0-31.0-0.0,anomymised,6564584152624795c40b73cb,6564bdb173d57ed9854ae0ac,94639,1A,woman,NA,null,NAME1 and NAME2 are fighting with each other,fight_conjoined,sentence,NA,NA,NA,NA,NA
6650,NA,NA,NA,NA,survey-likert-extra-labels,56,270894,0.0-31.0-1.0,anomymised,6564584152624795c40b73cb,6564bdb173d57ed9854ae0ac,94639,1A,woman,NA,NA,Somebody says<br><em>Beth and Mike are fighting with each other</em>,fight_conjoined,rating_volition,"{""Q0"":3}",[0],The speaker identifies more with <br>Beth than Mike,The speaker identifies more with<br>Mike than Beth,left_to_right
null,Somebody says<br><em>Kate and Mike are shouting at each other</em>,NA,NA,NA,html-keyboard-response,57,272905,0.0-32.0-0.0,anomymised,6564584152624795c40b73cb,6564bdb173d57ed9854ae0ac,94639,1A,woman,NA,null,NAME1 and NAME2 are shouting at each other,shout_conjoined,sentence,NA,NA,NA,NA,NA
2076.199999999255,NA,NA,NA,NA,survey-likert-extra-labels,58,274984,0.0-32.0-1.0,anomymised,6564584152624795c40b73cb,6564bdb173d57ed9854ae0ac,94639,1A,woman,NA,NA,Somebody says<br><em>Kate and Mike are shouting at each other</em>,shout_conjoined,rating_volition,"{""Q0"":3}",[0],The speaker identifies more with <br>Mike than Kate,The speaker identifies more with<br>Kate than Mike,right_to_left
null,Somebody says<br><em>Jane and Luke are meeting each other</em>,NA,NA,NA,html-keyboard-response,59,276998,0.0-33.0-0.0,anomymised,6564584152624795c40b73cb,6564bdb173d57ed9854ae0ac,94639,1A,woman,NA,null,NAME1 and NAME2 are meeting each other,meet_conjoined,sentence,NA,NA,NA,NA,NA
1759.0999999977648,NA,NA,NA,NA,survey-likert-extra-labels,60,278758,0.0-33.0-1.0,anomymised,6564584152624795c40b73cb,6564bdb173d57ed9854ae0ac,94639,1A,woman,NA,NA,Somebody says<br><em>Jane and Luke are meeting each other</em>,meet_conjoined,rating_volition,"{""Q0"":3}",[0],The speaker identifies more with <br>Luke than Jane,The speaker identifies more with<br>Jane than Luke,right_to_left
null,Somebody says<br><em>Fred and Ruth are marrying each other</em>,NA,NA,NA,html-keyboard-response,61,280775,0.0-34.0-0.0,anomymised,6564584152624795c40b73cb,6564bdb173d57ed9854ae0ac,94639,1A,woman,NA,null,NAME1 and NAME2 are marrying each other,marry_conjoined,sentence,NA,NA,NA,NA,NA
1484.699999999255,NA,NA,NA,NA,survey-likert-extra-labels,62,282262,0.0-34.0-1.0,anomymised,6564584152624795c40b73cb,6564bdb173d57ed9854ae0ac,94639,1A,woman,NA,NA,Somebody says<br><em>Fred and Ruth are marrying each other</em>,marry_conjoined,rating_volition,"{""Q0"":3}",[0],The speaker identifies more with <br>Fred than Ruth,The speaker identifies more with<br>Ruth than Fred,left_to_right
null,Somebody says<br><em>Jane is teaching Dave,NA,NA,NA,html-keyboard-response,63,284267,0.0-35.0-0.0,anomymised,6564584152624795c40b73cb,6564bdb173d57ed9854ae0ac,94639,1A,woman,NA,null,W2 is teaching M4,teach,sentence,NA,NA,NA,NA,NA
2698.10000000149,NA,NA,NA,NA,survey-likert-extra-labels,64,286966,0.0-35.0-1.0,anomymised,6564584152624795c40b73cb,6564bdb173d57ed9854ae0ac,94639,1A,woman,NA,NA,Somebody says<br><em>Jane is teaching Dave,teach,rating_volition,"{""Q0"":0}",[0],Jane is educating Dave,Dave is educating Jane,NA
null,Somebody says<br><em>Fred is being hugged by Kate</em>,NA,NA,NA,html-keyboard-response,65,288980,0.0-36.0-0.0,anomymised,6564584152624795c40b73cb,6564bdb173d57ed9854ae0ac,94639,1A,woman,NA,null,NAME1 is being hugged by NAME2,hug_passive,sentence,NA,NA,NA,NA,NA
3336.699999999255,NA,NA,NA,NA,survey-likert-extra-labels,66,292318,0.0-36.0-1.0,anomymised,6564584152624795c40b73cb,6564bdb173d57ed9854ae0ac,94639,1A,woman,NA,NA,Somebody says<br><em>Fred is being hugged by Kate</em>,hug_passive,rating_volition,"{""Q0"":6}",[0],The speaker identifies more with <br>Fred than Kate,The speaker identifies more with<br>Kate than Fred,left_to_right
null,Somebody says<br><em>Dave and Jane are arguing with each other</em>,NA,NA,NA,html-keyboard-response,67,294326,0.0-37.0-0.0,anomymised,6564584152624795c40b73cb,6564bdb173d57ed9854ae0ac,94639,1A,woman,NA,null,NAME1 and NAME2 are arguing with each other,argue_conjoined,sentence,NA,NA,NA,NA,NA
1853.8999999985099,NA,NA,NA,NA,survey-likert-extra-labels,68,296183,0.0-37.0-1.0,anomymised,6564584152624795c40b73cb,6564bdb173d57ed9854ae0ac,94639,1A,woman,NA,NA,Somebody says<br><em>Dave and Jane are arguing with each other</em>,argue_conjoined,rating_volition,"{""Q0"":3}",[0],The speaker identifies more with <br>Dave than Jane,The speaker identifies more with<br>Jane than Dave,left_to_right
null,Somebody says<br><em>Ruth is kissing Jane</em>,NA,NA,NA,html-keyboard-response,69,298203,0.0-38.0-0.0,anomymised,6564584152624795c40b73cb,6564bdb173d57ed9854ae0ac,94639,1A,woman,NA,null,NAME1 is kissing NAME2,kiss_active,sentence,NA,NA,NA,NA,NA
4251.300000000745,NA,NA,NA,NA,survey-likert-extra-labels,70,302455,0.0-38.0-1.0,anomymised,6564584152624795c40b73cb,6564bdb173d57ed9854ae0ac,94639,1A,woman,NA,NA,Somebody says<br><em>Ruth is kissing Jane</em>,kiss_active,rating_volition,"{""Q0"":6}",[0],The speaker identifies more with <br>Jane than Ruth,The speaker identifies more with<br>Ruth than Jane,right_to_left
null,Somebody says<br><em>Luke and Jane are touching each other</em>,NA,NA,NA,html-keyboard-response,71,304469,0.0-39.0-0.0,anomymised,6564584152624795c40b73cb,6564bdb173d57ed9854ae0ac,94639,1A,woman,NA,null,NAME1 and NAME2 are touching each other,touch_conjoined,sentence,NA,NA,NA,NA,NA
2537.5,NA,NA,NA,NA,survey-likert-extra-labels,72,307007,0.0-39.0-1.0,anomymised,6564584152624795c40b73cb,6564bdb173d57ed9854ae0ac,94639,1A,woman,NA,NA,Somebody says<br><em>Luke and Jane are touching each other</em>,touch_conjoined,rating_volition,"{""Q0"":3}",[0],The speaker identifies more with <br>Luke than Jane,The speaker identifies more with<br>Jane than Luke,left_to_right
null,Somebody says<br><em>Kate is challenging Jane</em>,NA,NA,NA,html-keyboard-response,73,309012,0.0-40.0-0.0,anomymised,6564584152624795c40b73cb,6564bdb173d57ed9854ae0ac,94639,1A,woman,NA,null,NAME1 is challenging NAME2,challenge_active,sentence,NA,NA,NA,NA,NA
3206.5,NA,NA,NA,NA,survey-likert-extra-labels,74,312222,0.0-40.0-1.0,anomymised,6564584152624795c40b73cb,6564bdb173d57ed9854ae0ac,94639,1A,woman,NA,NA,Somebody says<br><em>Kate is challenging Jane</em>,challenge_active,rating_volition,"{""Q0"":0}",[0],The speaker identifies more with <br>Kate than Jane,The speaker identifies more with<br>Jane than Kate,left_to_right
null,Somebody says<br><em>Luke is touching Kate</em>,NA,NA,NA,html-keyboard-response,75,314238,0.0-41.0-0.0,anomymised,6564584152624795c40b73cb,6564bdb173d57ed9854ae0ac,94639,1A,woman,NA,null,NAME1 is touching NAME2,touch_active,sentence,NA,NA,NA,NA,NA
2248.800000000745,NA,NA,NA,NA,survey-likert-extra-labels,76,316488,0.0-41.0-1.0,anomymised,6564584152624795c40b73cb,6564bdb173d57ed9854ae0ac,94639,1A,woman,NA,NA,Somebody says<br><em>Luke is touching Kate</em>,touch_active,rating_volition,"{""Q0"":6}",[0],The speaker identifies more with <br>Kate than Luke,The speaker identifies more with<br>Luke than Kate,right_to_left
null,Somebody says<br><em>Luke is being challenged by Beth</em>,NA,NA,NA,html-keyboard-response,77,318501,0.0-42.0-0.0,anomymised,6564584152624795c40b73cb,6564bdb173d57ed9854ae0ac,94639,1A,woman,NA,null,NAME1 is being challenged by NAME2,challenge_passive,sentence,NA,NA,NA,NA,NA
6617.5,NA,NA,NA,NA,survey-likert-extra-labels,78,325119,0.0-42.0-1.0,anomymised,6564584152624795c40b73cb,6564bdb173d57ed9854ae0ac,94639,1A,woman,NA,NA,Somebody says<br><em>Luke is being challenged by Beth</em>,challenge_passive,rating_volition,"{""Q0"":6}",[0],The speaker identifies more with <br>Beth than Luke,The speaker identifies more with<br>Luke than Beth,right_to_left
null,Somebody says<br><em>Luke is being touched by Ruth</em>,NA,NA,NA,html-keyboard-response,79,327124,0.0-43.0-0.0,anomymised,6564584152624795c40b73cb,6564bdb173d57ed9854ae0ac,94639,1A,woman,NA,null,NAME1 is being touched by NAME2,touch_passive,sentence,NA,NA,NA,NA,NA
6839.900000002235,NA,NA,NA,NA,survey-likert-extra-labels,80,333967,0.0-43.0-1.0,anomymised,6564584152624795c40b73cb,6564bdb173d57ed9854ae0ac,94639,1A,woman,NA,NA,Somebody says<br><em>Luke is being touched by Ruth</em>,touch_passive,rating_volition,"{""Q0"":0}",[0],The speaker identifies more with <br>Luke than Ruth,The speaker identifies more with<br>Ruth than Luke,left_to_right
null,Somebody says<br><em>Mike is meeting Beth</em>,NA,NA,NA,html-keyboard-response,81,335981,0.0-44.0-0.0,anomymised,6564584152624795c40b73cb,6564bdb173d57ed9854ae0ac,94639,1A,woman,NA,null,NAME1 is meeting NAME2,meet_active,sentence,NA,NA,NA,NA,NA
3584.900000002235,NA,NA,NA,NA,survey-likert-extra-labels,82,339567,0.0-44.0-1.0,anomymised,6564584152624795c40b73cb,6564bdb173d57ed9854ae0ac,94639,1A,woman,NA,NA,Somebody says<br><em>Mike is meeting Beth</em>,meet_active,rating_volition,"{""Q0"":6}",[0],The speaker identifies more with <br>Beth than Mike,The speaker identifies more with<br>Mike than Beth,right_to_left
null,Somebody says<br><em>Dave and Jane are playing with each other</em>,NA,NA,NA,html-keyboard-response,83,341583,0.0-45.0-0.0,anomymised,6564584152624795c40b73cb,6564bdb173d57ed9854ae0ac,94639,1A,woman,NA,null,NAME1 and NAME2 are playing with each other,play_conjoined,sentence,NA,NA,NA,NA,NA
2789.699999999255,NA,NA,NA,NA,survey-likert-extra-labels,84,344374,0.0-45.0-1.0,anomymised,6564584152624795c40b73cb,6564bdb173d57ed9854ae0ac,94639,1A,woman,NA,NA,Somebody says<br><em>Dave and Jane are playing with each other</em>,play_conjoined,rating_volition,"{""Q0"":3}",[0],The speaker identifies more with <br>Dave than Jane,The speaker identifies more with<br>Jane than Dave,left_to_right
null,Somebody says<br><em>Ruth is chasing Kate,NA,NA,NA,html-keyboard-response,85,346381,0.0-46.0-0.0,anomymised,6564584152624795c40b73cb,6564bdb173d57ed9854ae0ac,94639,1A,woman,NA,null,W1 is chasing W3,chase,sentence,NA,NA,NA,NA,NA
4848.300000000745,NA,NA,NA,NA,survey-likert-extra-labels,86,351231,0.0-46.0-1.0,anomymised,6564584152624795c40b73cb,6564bdb173d57ed9854ae0ac,94639,1A,woman,NA,NA,Somebody says<br><em>Ruth is chasing Kate,chase,rating_volition,"{""Q0"":0}",[0],Ruth is behind Kate,Kate is behind Ruth,NA
null,Somebody says<br><em>Kate is feeding Luke,NA,NA,NA,html-keyboard-response,87,353245,0.0-47.0-0.0,anomymised,6564584152624795c40b73cb,6564bdb173d57ed9854ae0ac,94639,1A,woman,NA,null,W3 is feeding M1,feed,sentence,NA,NA,NA,NA,NA
5945.599999997765,NA,NA,NA,NA,survey-likert-extra-labels,88,359192,0.0-47.0-1.0,anomymised,6564584152624795c40b73cb,6564bdb173d57ed9854ae0ac,94639,1A,woman,NA,NA,Somebody says<br><em>Kate is feeding Luke,feed,rating_volition,"{""Q0"":0}",[0],Kate cooked for Luke,Luke cooked for Kate,NA
null,Somebody says<br><em>Fred is being opposed by Luke</em>,NA,NA,NA,html-keyboard-response,89,361197,0.0-48.0-0.0,anomymised,6564584152624795c40b73cb,6564bdb173d57ed9854ae0ac,94639,1A,woman,NA,null,NAME1 is being opposed by NAME2,oppose_passive,sentence,NA,NA,NA,NA,NA
2849.39999999851,NA,NA,NA,NA,survey-likert-extra-labels,90,364047,0.0-48.0-1.0,anomymised,6564584152624795c40b73cb,6564bdb173d57ed9854ae0ac,94639,1A,woman,NA,NA,Somebody says<br><em>Fred is being opposed by Luke</em>,oppose_passive,rating_volition,"{""Q0"":0}",[0],The speaker identifies more with <br>Fred than Luke,The speaker identifies more with<br>Luke than Fred,left_to_right
null,Somebody says<br><em>Beth is being seduced by Ruth</em>,NA,NA,NA,html-keyboard-response,91,366064,0.0-49.0-0.0,anomymised,6564584152624795c40b73cb,6564bdb173d57ed9854ae0ac,94639,1A,woman,NA,null,NAME1 is being seduced by NAME2,seduce_passive,sentence,NA,NA,NA,NA,NA
2875.699999999255,NA,NA,NA,NA,survey-likert-extra-labels,92,368942,0.0-49.0-1.0,anomymised,6564584152624795c40b73cb,6564bdb173d57ed9854ae0ac,94639,1A,woman,NA,NA,Somebody says<br><em>Beth is being seduced by Ruth</em>,seduce_passive,rating_volition,"{""Q0"":6}",[0],The speaker identifies more with <br>Ruth than Beth,The speaker identifies more with<br>Beth than Ruth,right_to_left
null,Somebody says<br><em>Ruth is being copied by Beth</em>,NA,NA,NA,html-keyboard-response,93,370944,0.0-50.0-0.0,anomymised,6564584152624795c40b73cb,6564bdb173d57ed9854ae0ac,94639,1A,woman,NA,null,NAME1 is being copied by NAME2,copy_passive,sentence,NA,NA,NA,NA,NA
2932.099999997765,NA,NA,NA,NA,survey-likert-extra-labels,94,373878,0.0-50.0-1.0,anomymised,6564584152624795c40b73cb,6564bdb173d57ed9854ae0ac,94639,1A,woman,NA,NA,Somebody says<br><em>Ruth is being copied by Beth</em>,copy_passive,rating_volition,"{""Q0"":0}",[0],The speaker identifies more with <br>Ruth than Beth,The speaker identifies more with<br>Beth than Ruth,left_to_right
null,Somebody says<br><em>Dave is hugging Jane</em>,NA,NA,NA,html-keyboard-response,95,375890,0.0-51.0-0.0,anomymised,6564584152624795c40b73cb,6564bdb173d57ed9854ae0ac,94639,1A,woman,NA,null,NAME1 is hugging NAME2,hug_active,sentence,NA,NA,NA,NA,NA
3473.89999999851,NA,NA,NA,NA,survey-likert-extra-labels,96,379366,0.0-51.0-1.0,anomymised,6564584152624795c40b73cb,6564bdb173d57ed9854ae0ac,94639,1A,woman,NA,NA,Somebody says<br><em>Dave is hugging Jane</em>,hug_active,rating_volition,"{""Q0"":6}",[0],The speaker identifies more with <br>Jane than Dave,The speaker identifies more with<br>Dave than Jane,right_to_left
null,Somebody says<br><em>Beth is flirting with Kate</em>,NA,NA,NA,html-keyboard-response,97,381373,0.0-52.0-0.0,anomymised,6564584152624795c40b73cb,6564bdb173d57ed9854ae0ac,94639,1A,woman,NA,null,NAME1 is flirting with NAME2,flirt_active,sentence,NA,NA,NA,NA,NA
2553.10000000149,NA,NA,NA,NA,survey-likert-extra-labels,98,383927,0.0-52.0-1.0,anomymised,6564584152624795c40b73cb,6564bdb173d57ed9854ae0ac,94639,1A,woman,NA,NA,Somebody says<br><em>Beth is flirting with Kate</em>,flirt_active,rating_volition,"{""Q0"":6}",[0],The speaker identifies more with <br>Kate than Beth,The speaker identifies more with<br>Beth than Kate,right_to_left
null,Somebody says<br><em>Fred is being looked at by Beth</em>,NA,NA,NA,html-keyboard-response,99,385933,0.0-53.0-0.0,anomymised,6564584152624795c40b73cb,6564bdb173d57ed9854ae0ac,94639,1A,woman,NA,null,NAME1 is being looked at by NAME2,look_passive,sentence,NA,NA,NA,NA,NA
3477.199999999255,NA,NA,NA,NA,survey-likert-extra-labels,100,389414,0.0-53.0-1.0,anomymised,6564584152624795c40b73cb,6564bdb173d57ed9854ae0ac,94639,1A,woman,NA,NA,Somebody says<br><em>Fred is being looked at by Beth</em>,look_passive,rating_volition,"{""Q0"":6}",[0],The speaker identifies more with <br>Beth than Fred,The speaker identifies more with<br>Fred than Beth,right_to_left
null,Somebody says<br><em>Ruth is opposing Fred</em>,NA,NA,NA,html-keyboard-response,101,391431,0.0-54.0-0.0,anomymised,6564584152624795c40b73cb,6564bdb173d57ed9854ae0ac,94639,1A,woman,NA,null,NAME1 is opposing NAME2,oppose_active,sentence,NA,NA,NA,NA,NA
2470.60000000149,NA,NA,NA,NA,survey-likert-extra-labels,102,393903,0.0-54.0-1.0,anomymised,6564584152624795c40b73cb,6564bdb173d57ed9854ae0ac,94639,1A,woman,NA,NA,Somebody says<br><em>Ruth is opposing Fred</em>,oppose_active,rating_volition,"{""Q0"":6}",[0],The speaker identifies more with <br>Fred than Ruth,The speaker identifies more with<br>Ruth than Fred,right_to_left
null,Somebody says<br><em>Kate is talking to Fred</em>,NA,NA,NA,html-keyboard-response,103,395911,0.0-55.0-0.0,anomymised,6564584152624795c40b73cb,6564bdb173d57ed9854ae0ac,94639,1A,woman,NA,null,NAME1 is talking to NAME2,talk_active,sentence,NA,NA,NA,NA,NA
4717.199999999255,NA,NA,NA,NA,survey-likert-extra-labels,104,400631,0.0-55.0-1.0,anomymised,6564584152624795c40b73cb,6564bdb173d57ed9854ae0ac,94639,1A,woman,NA,NA,Somebody says<br><em>Kate is talking to Fred</em>,talk_active,rating_volition,"{""Q0"":0}",[0],The speaker identifies more with <br>Kate than Fred,The speaker identifies more with<br>Fred than Kate,left_to_right
2757,<p>Thank you for completing that task.</p><p>The final part of this session is a short questionnaire.</p><p>Press Continue.</p>,0,Continue,Continue,html-button-response,105,403389,0.0-56.0,anomymised,6564584152624795c40b73cb,6564bdb173d57ed9854ae0ac,94639,1A,woman,NA,NA,NA,NA,NA,NA,NA,NA,NA,NA
26050.10000000149,NA,NA,NA,NA,survey-text,106,430447,0.0-57.0,anomymised,6564584152624795c40b73cb,6564bdb173d57ed9854ae0ac,94639,1A,woman,NA,NA,NA,NA,demographics,"{""Q0"":""32"",""Q1"":""english"",""Q2"":""english"",""Q3"":""United Kingdom"",""Q4"":""British"",""Q5"":""British"",""Q6"":""Female""}",NA,NA,NA,NA
3174.60000000149,<p>This is the last question - thank you for taking part! Have you lived in the UK for the last 5 years or more?</p>,0,"Yes,No",Yes,html-button-response,107,433623,0.0-58.0,anomymised,6564584152624795c40b73cb,6564bdb173d57ed9854ae0ac,94639,1A,woman,NA,NA,NA,NA,fiveyears,NA,NA,NA,NA,NA
