rt,stimulus,button_pressed,choices,ChosenStimulus,trial_type,trial_index,time_elapsed,internal_node_id,subject_id,study_id,session_id,subject,list,ppt_gender,url,key_press,sentence_type,verb,test_part,responses,question_order,left_part,right_part,name_order
1688.3000000715256,Welcome to the experiment. Press Continue to begin.,0,Continue,Continue,html-button-response,0,1690,0.0-0.0,anomymised,6560c4cfd080ba12b16d8282,6564c8a43fff62c11976bf6c,95501,1A,man,NA,NA,NA,NA,NA,NA,NA,NA,NA,NA
3375.899999976158,NA,NA,NA,NA,external-html,1,6239,0.0-1.0,anomymised,6560c4cfd080ba12b16d8282,6564c8a43fff62c11976bf6c,95501,1A,man,consent.html,NA,NA,NA,NA,NA,NA,NA,NA,NA
10991.899999976158,"<p>Welcome.</p><p>In this experiment we will ask you to imagine people's motivations for saying sentences.</p><p>Each trial will begin with a sentence that somebody might say to describe an event involving two different people.</p><p>For instance, someone might say <em>Harry is being recruited by Molly</em></p><p>We want you to think about which of those two people (Molly and Harry) the speaker identifies more with. For instance, why did the speaker say <em>Harry is being recruited by Molly</em> rather than <em> Molly is recruiting Harry</em>? Might that mean that the speaker is socially closer to one of the two characters?</p><p>After you have read the sentence, you will rate on a scale which of the two characters the speaker identifies more with.</p><p>You will give your answer by clicking a button on a rating scale.</p><p>Sometimes there will also be catch questions designed to make sure that you are paying attention, which ask about a different topic.</p><p>To do this task, you will have to use your imagination to think about and visualise the events, and how the speaker might relate to the characters.</p><br><p>Ready?</p>",0,Continue,Continue,html-button-response,2,17232,0.0-2.0,anomymised,6560c4cfd080ba12b16d8282,6564c8a43fff62c11976bf6c,95501,1A,man,NA,NA,NA,NA,NA,NA,NA,NA,NA,NA
1975.1999999284744,"<p>Before the experiment starts, we will show you an example of how you will answer the questions. Press 'Continue'.</p>",0,Continue,Continue,html-button-response,3,20212,0.0-3.0,anomymised,6560c4cfd080ba12b16d8282,6564c8a43fff62c11976bf6c,95501,1A,man,NA,NA,NA,NA,NA,NA,NA,NA,NA,NA
null,Somebody says <br><em>Samuel is dining with Frank</em>,NA,NA,NA,html-keyboard-response,4,23229,0.0-4.0,anomymised,6560c4cfd080ba12b16d8282,6564c8a43fff62c11976bf6c,95501,1A,man,NA,null,NA,NA,NA,NA,NA,NA,NA,NA
10926.400000095367,<img src='img/Example-trial.jpg' style='height:550px;''></img>,0,Continue,Continue,html-button-response,5,34157,0.0-5.0,anomymised,6560c4cfd080ba12b16d8282,6564c8a43fff62c11976bf6c,95501,1A,man,NA,NA,NA,NA,NA,NA,NA,NA,NA,NA
1509.6000000238419,<p>Ready to start the experiment?</p><br><p><strong>Remember to give an answer by clicking a button on the rating scale.</strong></p><p>Press 'Continue' to begin.</p>,0,Continue,Continue,html-button-response,6,36673,0.0-6.0,anomymised,6560c4cfd080ba12b16d8282,6564c8a43fff62c11976bf6c,95501,1A,man,NA,NA,NA,NA,NA,NA,NA,NA,NA,NA
null,Somebody says<br><em>Mike is flirting with Beth</em>,NA,NA,NA,html-keyboard-response,7,39685,0.0-7.0-0.0,anomymised,6560c4cfd080ba12b16d8282,6564c8a43fff62c11976bf6c,95501,1A,man,NA,null,NAME1 is flirting with NAME2,flirt_active,sentence,NA,NA,NA,NA,NA
6722.600000023842,NA,NA,NA,NA,survey-likert-extra-labels,8,46411,0.0-7.0-1.0,anomymised,6560c4cfd080ba12b16d8282,6564c8a43fff62c11976bf6c,95501,1A,man,NA,NA,Somebody says<br><em>Mike is flirting with Beth</em>,flirt_active,rating_volition,"{""Q0"":1}",[0],The speaker identifies more with <br>Beth than Mike,The speaker identifies more with<br>Mike than Beth,right_to_left
null,Somebody says<br><em>Ruth is shouting at Jane</em>,NA,NA,NA,html-keyboard-response,9,48421,0.0-8.0-0.0,anomymised,6560c4cfd080ba12b16d8282,6564c8a43fff62c11976bf6c,95501,1A,man,NA,null,NAME1 is shouting at NAME2,shout_active,sentence,NA,NA,NA,NA,NA
17189.199999928474,NA,NA,NA,NA,survey-likert-extra-labels,10,65612,0.0-8.0-1.0,anomymised,6560c4cfd080ba12b16d8282,6564c8a43fff62c11976bf6c,95501,1A,man,NA,NA,Somebody says<br><em>Ruth is shouting at Jane</em>,shout_active,rating_volition,"{""Q0"":5}",[0],The speaker identifies more with <br>Ruth than Jane,The speaker identifies more with<br>Jane than Ruth,left_to_right
null,Somebody says<br><em>Kate is arguing with Beth</em>,NA,NA,NA,html-keyboard-response,11,67623,0.0-9.0-0.0,anomymised,6560c4cfd080ba12b16d8282,6564c8a43fff62c11976bf6c,95501,1A,man,NA,null,NAME1 is arguing with NAME2,argue_active,sentence,NA,NA,NA,NA,NA
4018.5,NA,NA,NA,NA,survey-likert-extra-labels,12,71643,0.0-9.0-1.0,anomymised,6560c4cfd080ba12b16d8282,6564c8a43fff62c11976bf6c,95501,1A,man,NA,NA,Somebody says<br><em>Kate is arguing with Beth</em>,argue_active,rating_volition,"{""Q0"":1}",[0],The speaker identifies more with <br>Kate than Beth,The speaker identifies more with<br>Beth than Kate,left_to_right
null,Somebody says<br><em>Beth is being seduced by Ruth</em>,NA,NA,NA,html-keyboard-response,13,73645,0.0-10.0-0.0,anomymised,6560c4cfd080ba12b16d8282,6564c8a43fff62c11976bf6c,95501,1A,man,NA,null,NAME1 is being seduced by NAME2,seduce_passive,sentence,NA,NA,NA,NA,NA
4252.600000023842,NA,NA,NA,NA,survey-likert-extra-labels,14,77898,0.0-10.0-1.0,anomymised,6560c4cfd080ba12b16d8282,6564c8a43fff62c11976bf6c,95501,1A,man,NA,NA,Somebody says<br><em>Beth is being seduced by Ruth</em>,seduce_passive,rating_volition,"{""Q0"":5}",[0],The speaker identifies more with <br>Ruth than Beth,The speaker identifies more with<br>Beth than Ruth,right_to_left
null,Somebody says<br><em>Mike is reminding Beth,NA,NA,NA,html-keyboard-response,15,79911,0.0-11.0-0.0,anomymised,6560c4cfd080ba12b16d8282,6564c8a43fff62c11976bf6c,95501,1A,man,NA,null,M2 is reminding W4,remind,sentence,NA,NA,NA,NA,NA
5248.099999904633,NA,NA,NA,NA,survey-likert-extra-labels,16,85160,0.0-11.0-1.0,anomymised,6560c4cfd080ba12b16d8282,6564c8a43fff62c11976bf6c,95501,1A,man,NA,NA,Somebody says<br><em>Mike is reminding Beth,remind,rating_volition,"{""Q0"":3}",[0],Mike is telling Beth again,Beth is telling Mike again,NA
null,Somebody says<br><em>Kate is being copied by Dave</em>,NA,NA,NA,html-keyboard-response,17,87164,0.0-12.0-0.0,anomymised,6560c4cfd080ba12b16d8282,6564c8a43fff62c11976bf6c,95501,1A,man,NA,null,NAME1 is being copied by NAME2,copy_passive,sentence,NA,NA,NA,NA,NA
7978.299999952316,NA,NA,NA,NA,survey-likert-extra-labels,18,95144,0.0-12.0-1.0,anomymised,6560c4cfd080ba12b16d8282,6564c8a43fff62c11976bf6c,95501,1A,man,NA,NA,Somebody says<br><em>Kate is being copied by Dave</em>,copy_passive,rating_volition,"{""Q0"":1}",[0],The speaker identifies more with <br>Kate than Dave,The speaker identifies more with<br>Dave than Kate,left_to_right
null,Somebody says<br><em>Fred is being touched by Dave</em>,NA,NA,NA,html-keyboard-response,19,97149,0.0-13.0-0.0,anomymised,6560c4cfd080ba12b16d8282,6564c8a43fff62c11976bf6c,95501,1A,man,NA,null,NAME1 is being touched by NAME2,touch_passive,sentence,NA,NA,NA,NA,NA
2892.4000000953674,NA,NA,NA,NA,survey-likert-extra-labels,20,100042,0.0-13.0-1.0,anomymised,6560c4cfd080ba12b16d8282,6564c8a43fff62c11976bf6c,95501,1A,man,NA,NA,Somebody says<br><em>Fred is being touched by Dave</em>,touch_passive,rating_volition,"{""Q0"":2}",[0],The speaker identifies more with <br>Fred than Dave,The speaker identifies more with<br>Dave than Fred,left_to_right
null,Somebody says<br><em>Beth and Ruth are dancing with each other</em>,NA,NA,NA,html-keyboard-response,21,102046,0.0-14.0-0.0,anomymised,6560c4cfd080ba12b16d8282,6564c8a43fff62c11976bf6c,95501,1A,man,NA,null,NAME1 and NAME2 are dancing with each other,dance_conjoined,sentence,NA,NA,NA,NA,NA
4348.399999976158,NA,NA,NA,NA,survey-likert-extra-labels,22,106395,0.0-14.0-1.0,anomymised,6560c4cfd080ba12b16d8282,6564c8a43fff62c11976bf6c,95501,1A,man,NA,NA,Somebody says<br><em>Beth and Ruth are dancing with each other</em>,dance_conjoined,rating_volition,"{""Q0"":3}",[0],The speaker identifies more with <br>Ruth than Beth,The speaker identifies more with<br>Beth than Ruth,right_to_left
null,Somebody says<br><em>Mike and Luke are fighting with each other</em>,NA,NA,NA,html-keyboard-response,23,108407,0.0-15.0-0.0,anomymised,6560c4cfd080ba12b16d8282,6564c8a43fff62c11976bf6c,95501,1A,man,NA,null,NAME1 and NAME2 are fighting with each other,fight_conjoined,sentence,NA,NA,NA,NA,NA
2909.899999976158,NA,NA,NA,NA,survey-likert-extra-labels,24,111318,0.0-15.0-1.0,anomymised,6560c4cfd080ba12b16d8282,6564c8a43fff62c11976bf6c,95501,1A,man,NA,NA,Somebody says<br><em>Mike and Luke are fighting with each other</em>,fight_conjoined,rating_volition,"{""Q0"":3}",[0],The speaker identifies more with <br>Luke than Mike,The speaker identifies more with<br>Mike than Luke,right_to_left
null,Somebody says<br><em>Fred is being opposed by Jane</em>,NA,NA,NA,html-keyboard-response,25,113324,0.0-16.0-0.0,anomymised,6560c4cfd080ba12b16d8282,6564c8a43fff62c11976bf6c,95501,1A,man,NA,null,NAME1 is being opposed by NAME2,oppose_passive,sentence,NA,NA,NA,NA,NA
6390.899999976158,NA,NA,NA,NA,survey-likert-extra-labels,26,119716,0.0-16.0-1.0,anomymised,6560c4cfd080ba12b16d8282,6564c8a43fff62c11976bf6c,95501,1A,man,NA,NA,Somebody says<br><em>Fred is being opposed by Jane</em>,oppose_passive,rating_volition,"{""Q0"":5}",[0],The speaker identifies more with <br>Jane than Fred,The speaker identifies more with<br>Fred than Jane,right_to_left
null,Somebody says<br><em>Jane is challenging Mike</em>,NA,NA,NA,html-keyboard-response,27,121724,0.0-17.0-0.0,anomymised,6560c4cfd080ba12b16d8282,6564c8a43fff62c11976bf6c,95501,1A,man,NA,null,NAME1 is challenging NAME2,challenge_active,sentence,NA,NA,NA,NA,NA
2466.600000023842,NA,NA,NA,NA,survey-likert-extra-labels,28,124191,0.0-17.0-1.0,anomymised,6560c4cfd080ba12b16d8282,6564c8a43fff62c11976bf6c,95501,1A,man,NA,NA,Somebody says<br><em>Jane is challenging Mike</em>,challenge_active,rating_volition,"{""Q0"":1}",[0],The speaker identifies more with <br>Jane than Mike,The speaker identifies more with<br>Mike than Jane,left_to_right
null,Somebody says<br><em>Fred is hiring Ruth,NA,NA,NA,html-keyboard-response,29,126197,0.0-18.0-0.0,anomymised,6560c4cfd080ba12b16d8282,6564c8a43fff62c11976bf6c,95501,1A,man,NA,null,M3 is hiring W1,hire,sentence,NA,NA,NA,NA,NA
7333.600000023842,NA,NA,NA,NA,survey-likert-extra-labels,30,133531,0.0-18.0-1.0,anomymised,6560c4cfd080ba12b16d8282,6564c8a43fff62c11976bf6c,95501,1A,man,NA,NA,Somebody says<br><em>Fred is hiring Ruth,hire,rating_volition,"{""Q0"":0}",[0],Fred is employing Ruth,Ruth is employing Fred,NA
null,Somebody says<br><em>Beth is opposing Mike</em>,NA,NA,NA,html-keyboard-response,31,135542,0.0-19.0-0.0,anomymised,6560c4cfd080ba12b16d8282,6564c8a43fff62c11976bf6c,95501,1A,man,NA,null,NAME1 is opposing NAME2,oppose_active,sentence,NA,NA,NA,NA,NA
3633.5,NA,NA,NA,NA,survey-likert-extra-labels,32,139176,0.0-19.0-1.0,anomymised,6560c4cfd080ba12b16d8282,6564c8a43fff62c11976bf6c,95501,1A,man,NA,NA,Somebody says<br><em>Beth is opposing Mike</em>,oppose_active,rating_volition,"{""Q0"":1}",[0],The speaker identifies more with <br>Beth than Mike,The speaker identifies more with<br>Mike than Beth,left_to_right
null,Somebody says<br><em>Luke is being kissed by Ruth</em>,NA,NA,NA,html-keyboard-response,33,141180,0.0-20.0-0.0,anomymised,6560c4cfd080ba12b16d8282,6564c8a43fff62c11976bf6c,95501,1A,man,NA,null,NAME1 is being kissed by NAME2,kiss_passive,sentence,NA,NA,NA,NA,NA
5061.200000047684,NA,NA,NA,NA,survey-likert-extra-labels,34,146242,0.0-20.0-1.0,anomymised,6560c4cfd080ba12b16d8282,6564c8a43fff62c11976bf6c,95501,1A,man,NA,NA,Somebody says<br><em>Luke is being kissed by Ruth</em>,kiss_passive,rating_volition,"{""Q0"":5}",[0],The speaker identifies more with <br>Ruth than Luke,The speaker identifies more with<br>Luke than Ruth,right_to_left
null,Somebody says<br><em>Jane and Luke are kissing each other</em>,NA,NA,NA,html-keyboard-response,35,148248,0.0-21.0-0.0,anomymised,6560c4cfd080ba12b16d8282,6564c8a43fff62c11976bf6c,95501,1A,man,NA,null,NAME1 and NAME2 are kissing each other,kiss_conjoined,sentence,NA,NA,NA,NA,NA
1809.7000000476837,NA,NA,NA,NA,survey-likert-extra-labels,36,150059,0.0-21.0-1.0,anomymised,6560c4cfd080ba12b16d8282,6564c8a43fff62c11976bf6c,95501,1A,man,NA,NA,Somebody says<br><em>Jane and Luke are kissing each other</em>,kiss_conjoined,rating_volition,"{""Q0"":4}",[0],The speaker identifies more with <br>Luke than Jane,The speaker identifies more with<br>Jane than Luke,right_to_left
null,Somebody says<br><em>Dave is dancing with Ruth</em>,NA,NA,NA,html-keyboard-response,37,152062,0.0-22.0-0.0,anomymised,6560c4cfd080ba12b16d8282,6564c8a43fff62c11976bf6c,95501,1A,man,NA,null,NAME1 is dancing with NAME2,dance_active,sentence,NA,NA,NA,NA,NA
6468.200000047684,NA,NA,NA,NA,survey-likert-extra-labels,38,158531,0.0-22.0-1.0,anomymised,6560c4cfd080ba12b16d8282,6564c8a43fff62c11976bf6c,95501,1A,man,NA,NA,Somebody says<br><em>Dave is dancing with Ruth</em>,dance_active,rating_volition,"{""Q0"":3}",[0],The speaker identifies more with <br>Dave than Ruth,The speaker identifies more with<br>Ruth than Dave,left_to_right
null,Somebody says<br><em>Luke is driving Fred,NA,NA,NA,html-keyboard-response,39,160541,0.0-23.0-0.0,anomymised,6560c4cfd080ba12b16d8282,6564c8a43fff62c11976bf6c,95501,1A,man,NA,null,M1 is driving M3,drive,sentence,NA,NA,NA,NA,NA
14309.800000071526,NA,NA,NA,NA,survey-likert-extra-labels,40,174852,0.0-23.0-1.0,anomymised,6560c4cfd080ba12b16d8282,6564c8a43fff62c11976bf6c,95501,1A,man,NA,NA,Somebody says<br><em>Luke is driving Fred,drive,rating_volition,"{""Q0"":0}",[0],Luke is Fred's passenger,Fred is Luke's passenger,NA
null,Somebody says<br><em>Fred is being shouted at by Ruth</em>,NA,NA,NA,html-keyboard-response,41,176863,0.0-24.0-0.0,anomymised,6560c4cfd080ba12b16d8282,6564c8a43fff62c11976bf6c,95501,1A,man,NA,null,NAME1 is being shouted at by NAME2,shout_passive,sentence,NA,NA,NA,NA,NA
4846.100000023842,NA,NA,NA,NA,survey-likert-extra-labels,42,181710,0.0-24.0-1.0,anomymised,6560c4cfd080ba12b16d8282,6564c8a43fff62c11976bf6c,95501,1A,man,NA,NA,Somebody says<br><em>Fred is being shouted at by Ruth</em>,shout_passive,rating_volition,"{""Q0"":2}",[0],The speaker identifies more with <br>Ruth than Fred,The speaker identifies more with<br>Fred than Ruth,right_to_left
null,Somebody says<br><em>Ruth is greeting Dave</em>,NA,NA,NA,html-keyboard-response,43,183721,0.0-25.0-0.0,anomymised,6560c4cfd080ba12b16d8282,6564c8a43fff62c11976bf6c,95501,1A,man,NA,null,NAME1 is greeting NAME2,greet_active,sentence,NA,NA,NA,NA,NA
4509.399999976158,NA,NA,NA,NA,survey-likert-extra-labels,44,188231,0.0-25.0-1.0,anomymised,6560c4cfd080ba12b16d8282,6564c8a43fff62c11976bf6c,95501,1A,man,NA,NA,Somebody says<br><em>Ruth is greeting Dave</em>,greet_active,rating_volition,"{""Q0"":5}",[0],The speaker identifies more with <br>Dave than Ruth,The speaker identifies more with<br>Ruth than Dave,right_to_left
null,Somebody says<br><em>Kate is feeding Luke,NA,NA,NA,html-keyboard-response,45,190238,0.0-26.0-0.0,anomymised,6560c4cfd080ba12b16d8282,6564c8a43fff62c11976bf6c,95501,1A,man,NA,null,W3 is feeding M1,feed,sentence,NA,NA,NA,NA,NA
52905.699999928474,NA,NA,NA,NA,survey-likert-extra-labels,46,243145,0.0-26.0-1.0,anomymised,6560c4cfd080ba12b16d8282,6564c8a43fff62c11976bf6c,95501,1A,man,NA,NA,Somebody says<br><em>Kate is feeding Luke,feed,rating_volition,"{""Q0"":0}",[0],Kate cooked for Luke,Luke cooked for Kate,NA
null,Somebody says<br><em>Kate and Ruth are hugging each other</em>,NA,NA,NA,html-keyboard-response,47,245150,0.0-27.0-0.0,anomymised,6560c4cfd080ba12b16d8282,6564c8a43fff62c11976bf6c,95501,1A,man,NA,null,NAME1 and NAME2 are hugging each other,hug_conjoined,sentence,NA,NA,NA,NA,NA
5763.700000047684,NA,NA,NA,NA,survey-likert-extra-labels,48,250915,0.0-27.0-1.0,anomymised,6560c4cfd080ba12b16d8282,6564c8a43fff62c11976bf6c,95501,1A,man,NA,NA,Somebody says<br><em>Kate and Ruth are hugging each other</em>,hug_conjoined,rating_volition,"{""Q0"":3}",[0],The speaker identifies more with <br>Kate than Ruth,The speaker identifies more with<br>Ruth than Kate,left_to_right
null,Somebody says<br><em>Kate is talking to Mike</em>,NA,NA,NA,html-keyboard-response,49,252923,0.0-28.0-0.0,anomymised,6560c4cfd080ba12b16d8282,6564c8a43fff62c11976bf6c,95501,1A,man,NA,null,NAME1 is talking to NAME2,talk_active,sentence,NA,NA,NA,NA,NA
2687.5,NA,NA,NA,NA,survey-likert-extra-labels,50,255611,0.0-28.0-1.0,anomymised,6560c4cfd080ba12b16d8282,6564c8a43fff62c11976bf6c,95501,1A,man,NA,NA,Somebody says<br><em>Kate is talking to Mike</em>,talk_active,rating_volition,"{""Q0"":3}",[0],The speaker identifies more with <br>Mike than Kate,The speaker identifies more with<br>Kate than Mike,right_to_left
null,Somebody says<br><em>Jane and Kate are shouting at each other</em>,NA,NA,NA,html-keyboard-response,51,257614,0.0-29.0-0.0,anomymised,6560c4cfd080ba12b16d8282,6564c8a43fff62c11976bf6c,95501,1A,man,NA,null,NAME1 and NAME2 are shouting at each other,shout_conjoined,sentence,NA,NA,NA,NA,NA
2511.5999999046326,NA,NA,NA,NA,survey-likert-extra-labels,52,260127,0.0-29.0-1.0,anomymised,6560c4cfd080ba12b16d8282,6564c8a43fff62c11976bf6c,95501,1A,man,NA,NA,Somebody says<br><em>Jane and Kate are shouting at each other</em>,shout_conjoined,rating_volition,"{""Q0"":4}",[0],The speaker identifies more with <br>Jane than Kate,The speaker identifies more with<br>Kate than Jane,left_to_right
null,Somebody says<br><em>Jane is teaching Dave,NA,NA,NA,html-keyboard-response,53,262139,0.0-30.0-0.0,anomymised,6560c4cfd080ba12b16d8282,6564c8a43fff62c11976bf6c,95501,1A,man,NA,null,W2 is teaching M4,teach,sentence,NA,NA,NA,NA,NA
3137,NA,NA,NA,NA,survey-likert-extra-labels,54,265277,0.0-30.0-1.0,anomymised,6560c4cfd080ba12b16d8282,6564c8a43fff62c11976bf6c,95501,1A,man,NA,NA,Somebody says<br><em>Jane is teaching Dave,teach,rating_volition,"{""Q0"":0}",[0],Jane is educating Dave,Dave is educating Jane,NA
null,Somebody says<br><em>Luke and Ruth are meeting each other</em>,NA,NA,NA,html-keyboard-response,55,267288,0.0-31.0-0.0,anomymised,6560c4cfd080ba12b16d8282,6564c8a43fff62c11976bf6c,95501,1A,man,NA,null,NAME1 and NAME2 are meeting each other,meet_conjoined,sentence,NA,NA,NA,NA,NA
1637.4000000953674,NA,NA,NA,NA,survey-likert-extra-labels,56,268927,0.0-31.0-1.0,anomymised,6560c4cfd080ba12b16d8282,6564c8a43fff62c11976bf6c,95501,1A,man,NA,NA,Somebody says<br><em>Luke and Ruth are meeting each other</em>,meet_conjoined,rating_volition,"{""Q0"":3}",[0],The speaker identifies more with <br>Luke than Ruth,The speaker identifies more with<br>Ruth than Luke,left_to_right
null,Somebody says<br><em>Ruth is chasing Kate,NA,NA,NA,html-keyboard-response,57,270939,0.0-32.0-0.0,anomymised,6560c4cfd080ba12b16d8282,6564c8a43fff62c11976bf6c,95501,1A,man,NA,null,W1 is chasing W3,chase,sentence,NA,NA,NA,NA,NA
3105.5,NA,NA,NA,NA,survey-likert-extra-labels,58,274045,0.0-32.0-1.0,anomymised,6560c4cfd080ba12b16d8282,6564c8a43fff62c11976bf6c,95501,1A,man,NA,NA,Somebody says<br><em>Ruth is chasing Kate,chase,rating_volition,"{""Q0"":0}",[0],Ruth is behind Kate,Kate is behind Ruth,NA
null,Somebody says<br><em>Kate and Dave are touching each other</em>,NA,NA,NA,html-keyboard-response,59,276055,0.0-33.0-0.0,anomymised,6560c4cfd080ba12b16d8282,6564c8a43fff62c11976bf6c,95501,1A,man,NA,null,NAME1 and NAME2 are touching each other,touch_conjoined,sentence,NA,NA,NA,NA,NA
3854.600000023842,NA,NA,NA,NA,survey-likert-extra-labels,60,279911,0.0-33.0-1.0,anomymised,6560c4cfd080ba12b16d8282,6564c8a43fff62c11976bf6c,95501,1A,man,NA,NA,Somebody says<br><em>Kate and Dave are touching each other</em>,touch_conjoined,rating_volition,"{""Q0"":4}",[0],The speaker identifies more with <br>Kate than Dave,The speaker identifies more with<br>Dave than Kate,left_to_right
null,Somebody says<br><em>Luke is playing with Mike</em>,NA,NA,NA,html-keyboard-response,61,281923,0.0-34.0-0.0,anomymised,6560c4cfd080ba12b16d8282,6564c8a43fff62c11976bf6c,95501,1A,man,NA,null,NAME1 is playing with NAME2,play_active,sentence,NA,NA,NA,NA,NA
4203.099999904633,NA,NA,NA,NA,survey-likert-extra-labels,62,286127,0.0-34.0-1.0,anomymised,6560c4cfd080ba12b16d8282,6564c8a43fff62c11976bf6c,95501,1A,man,NA,NA,Somebody says<br><em>Luke is playing with Mike</em>,play_active,rating_volition,"{""Q0"":4}",[0],The speaker identifies more with <br>Mike than Luke,The speaker identifies more with<br>Luke than Mike,right_to_left
null,Somebody says<br><em>Jane is touching Ruth</em>,NA,NA,NA,html-keyboard-response,63,288139,0.0-35.0-0.0,anomymised,6560c4cfd080ba12b16d8282,6564c8a43fff62c11976bf6c,95501,1A,man,NA,null,NAME1 is touching NAME2,touch_active,sentence,NA,NA,NA,NA,NA
8339.100000023842,NA,NA,NA,NA,survey-likert-extra-labels,64,296479,0.0-35.0-1.0,anomymised,6560c4cfd080ba12b16d8282,6564c8a43fff62c11976bf6c,95501,1A,man,NA,NA,Somebody says<br><em>Jane is touching Ruth</em>,touch_active,rating_volition,"{""Q0"":4}",[0],The speaker identifies more with <br>Jane than Ruth,The speaker identifies more with<br>Ruth than Jane,left_to_right
null,Somebody says<br><em>Jane and Mike are playing with each other</em>,NA,NA,NA,html-keyboard-response,65,298486,0.0-36.0-0.0,anomymised,6560c4cfd080ba12b16d8282,6564c8a43fff62c11976bf6c,95501,1A,man,NA,null,NAME1 and NAME2 are playing with each other,play_conjoined,sentence,NA,NA,NA,NA,NA
3116.399999976158,NA,NA,NA,NA,survey-likert-extra-labels,66,301603,0.0-36.0-1.0,anomymised,6560c4cfd080ba12b16d8282,6564c8a43fff62c11976bf6c,95501,1A,man,NA,NA,Somebody says<br><em>Jane and Mike are playing with each other</em>,play_conjoined,rating_volition,"{""Q0"":4}",[0],The speaker identifies more with <br>Jane than Mike,The speaker identifies more with<br>Mike than Jane,left_to_right
null,Somebody says<br><em>Ruth is seducing Fred</em>,NA,NA,NA,html-keyboard-response,67,303610,0.0-37.0-0.0,anomymised,6560c4cfd080ba12b16d8282,6564c8a43fff62c11976bf6c,95501,1A,man,NA,null,NAME1 is seducing NAME2,seduce_active,sentence,NA,NA,NA,NA,NA
6572.400000095367,NA,NA,NA,NA,survey-likert-extra-labels,68,310184,0.0-37.0-1.0,anomymised,6560c4cfd080ba12b16d8282,6564c8a43fff62c11976bf6c,95501,1A,man,NA,NA,Somebody says<br><em>Ruth is seducing Fred</em>,seduce_active,rating_volition,"{""Q0"":6}",[0],The speaker identifies more with <br>Ruth than Fred,The speaker identifies more with<br>Fred than Ruth,left_to_right
null,Somebody says<br><em>Mike is shouting at Beth</em>,NA,NA,NA,html-keyboard-response,69,312186,0.0-38.0-0.0,anomymised,6560c4cfd080ba12b16d8282,6564c8a43fff62c11976bf6c,95501,1A,man,NA,null,NAME1 is shouting at NAME2,shout_active,sentence,NA,NA,NA,NA,NA
5373.899999976158,NA,NA,NA,NA,survey-likert-extra-labels,70,317561,0.0-38.0-1.0,anomymised,6560c4cfd080ba12b16d8282,6564c8a43fff62c11976bf6c,95501,1A,man,NA,NA,Somebody says<br><em>Mike is shouting at Beth</em>,shout_active,rating_volition,"{""Q0"":4}",[0],The speaker identifies more with <br>Beth than Mike,The speaker identifies more with<br>Mike than Beth,right_to_left
null,Somebody says<br><em>Dave is looking at Jane</em>,NA,NA,NA,html-keyboard-response,71,319568,0.0-39.0-0.0,anomymised,6560c4cfd080ba12b16d8282,6564c8a43fff62c11976bf6c,95501,1A,man,NA,null,NAME1 is looking at NAME2,look_active,sentence,NA,NA,NA,NA,NA
1914.8000000715256,NA,NA,NA,NA,survey-likert-extra-labels,72,321484,0.0-39.0-1.0,anomymised,6560c4cfd080ba12b16d8282,6564c8a43fff62c11976bf6c,95501,1A,man,NA,NA,Somebody says<br><em>Dave is looking at Jane</em>,look_active,rating_volition,"{""Q0"":4}",[0],The speaker identifies more with <br>Jane than Dave,The speaker identifies more with<br>Dave than Jane,right_to_left
null,Somebody says<br><em>Luke is marrying Dave</em>,NA,NA,NA,html-keyboard-response,73,323487,0.0-40.0-0.0,anomymised,6560c4cfd080ba12b16d8282,6564c8a43fff62c11976bf6c,95501,1A,man,NA,null,NAME1 is marrying NAME2,marry_active,sentence,NA,NA,NA,NA,NA
2466.600000023842,NA,NA,NA,NA,survey-likert-extra-labels,74,325954,0.0-40.0-1.0,anomymised,6560c4cfd080ba12b16d8282,6564c8a43fff62c11976bf6c,95501,1A,man,NA,NA,Somebody says<br><em>Luke is marrying Dave</em>,marry_active,rating_volition,"{""Q0"":1}",[0],The speaker identifies more with <br>Dave than Luke,The speaker identifies more with<br>Luke than Dave,right_to_left
null,Somebody says<br><em>Jane is carrying Beth,NA,NA,NA,html-keyboard-response,75,328407,0.0-41.0-0.0,anomymised,6560c4cfd080ba12b16d8282,6564c8a43fff62c11976bf6c,95501,1A,man,NA,null,W2 is carrying W4,carry,sentence,NA,NA,NA,NA,NA
6596.5,NA,NA,NA,NA,survey-likert-extra-labels,76,335004,0.0-41.0-1.0,anomymised,6560c4cfd080ba12b16d8282,6564c8a43fff62c11976bf6c,95501,1A,man,NA,NA,Somebody says<br><em>Jane is carrying Beth,carry,rating_volition,"{""Q0"":5}",[0],Jane is transporting Beth,Beth is transporting Jane,NA
null,Somebody says<br><em>Fred is being challenged by Jane</em>,NA,NA,NA,html-keyboard-response,77,337008,0.0-42.0-0.0,anomymised,6560c4cfd080ba12b16d8282,6564c8a43fff62c11976bf6c,95501,1A,man,NA,null,NAME1 is being challenged by NAME2,challenge_passive,sentence,NA,NA,NA,NA,NA
1985.7000000476837,NA,NA,NA,NA,survey-likert-extra-labels,78,338994,0.0-42.0-1.0,anomymised,6560c4cfd080ba12b16d8282,6564c8a43fff62c11976bf6c,95501,1A,man,NA,NA,Somebody says<br><em>Fred is being challenged by Jane</em>,challenge_passive,rating_volition,"{""Q0"":4}",[0],The speaker identifies more with <br>Fred than Jane,The speaker identifies more with<br>Jane than Fred,left_to_right
null,Somebody says<br><em>Jane is being looked at by Mike</em>,NA,NA,NA,html-keyboard-response,79,341002,0.0-43.0-0.0,anomymised,6560c4cfd080ba12b16d8282,6564c8a43fff62c11976bf6c,95501,1A,man,NA,null,NAME1 is being looked at by NAME2,look_passive,sentence,NA,NA,NA,NA,NA
1766,NA,NA,NA,NA,survey-likert-extra-labels,80,342769,0.0-43.0-1.0,anomymised,6560c4cfd080ba12b16d8282,6564c8a43fff62c11976bf6c,95501,1A,man,NA,NA,Somebody says<br><em>Jane is being looked at by Mike</em>,look_passive,rating_volition,"{""Q0"":3}",[0],The speaker identifies more with <br>Mike than Jane,The speaker identifies more with<br>Jane than Mike,right_to_left
null,Somebody says<br><em>Fred is being hugged by Ruth</em>,NA,NA,NA,html-keyboard-response,81,344775,0.0-44.0-0.0,anomymised,6560c4cfd080ba12b16d8282,6564c8a43fff62c11976bf6c,95501,1A,man,NA,null,NAME1 is being hugged by NAME2,hug_passive,sentence,NA,NA,NA,NA,NA
1953.2000000476837,NA,NA,NA,NA,survey-likert-extra-labels,82,346729,0.0-44.0-1.0,anomymised,6560c4cfd080ba12b16d8282,6564c8a43fff62c11976bf6c,95501,1A,man,NA,NA,Somebody says<br><em>Fred is being hugged by Ruth</em>,hug_passive,rating_volition,"{""Q0"":3}",[0],The speaker identifies more with <br>Ruth than Fred,The speaker identifies more with<br>Fred than Ruth,right_to_left
null,Somebody says<br><em>Dave and Kate are arguing with each other</em>,NA,NA,NA,html-keyboard-response,83,348740,0.0-45.0-0.0,anomymised,6560c4cfd080ba12b16d8282,6564c8a43fff62c11976bf6c,95501,1A,man,NA,null,NAME1 and NAME2 are arguing with each other,argue_conjoined,sentence,NA,NA,NA,NA,NA
2282.100000023842,NA,NA,NA,NA,survey-likert-extra-labels,84,351023,0.0-45.0-1.0,anomymised,6560c4cfd080ba12b16d8282,6564c8a43fff62c11976bf6c,95501,1A,man,NA,NA,Somebody says<br><em>Dave and Kate are arguing with each other</em>,argue_conjoined,rating_volition,"{""Q0"":3}",[0],The speaker identifies more with <br>Dave than Kate,The speaker identifies more with<br>Kate than Dave,left_to_right
null,Somebody says<br><em>Fred and Mike are talking with each other</em>,NA,NA,NA,html-keyboard-response,85,353036,0.0-46.0-0.0,anomymised,6560c4cfd080ba12b16d8282,6564c8a43fff62c11976bf6c,95501,1A,man,NA,null,NAME1 and NAME2 are talking with each other,talk_conjoined,sentence,NA,NA,NA,NA,NA
2743.2999999523163,NA,NA,NA,NA,survey-likert-extra-labels,86,355780,0.0-46.0-1.0,anomymised,6560c4cfd080ba12b16d8282,6564c8a43fff62c11976bf6c,95501,1A,man,NA,NA,Somebody says<br><em>Fred and Mike are talking with each other</em>,talk_conjoined,rating_volition,"{""Q0"":1}",[0],The speaker identifies more with <br>Mike than Fred,The speaker identifies more with<br>Fred than Mike,right_to_left
null,Somebody says<br><em>Beth is meeting Luke</em>,NA,NA,NA,html-keyboard-response,87,357785,0.0-47.0-0.0,anomymised,6560c4cfd080ba12b16d8282,6564c8a43fff62c11976bf6c,95501,1A,man,NA,null,NAME1 is meeting NAME2,meet_active,sentence,NA,NA,NA,NA,NA
1792.3999999761581,NA,NA,NA,NA,survey-likert-extra-labels,88,359578,0.0-47.0-1.0,anomymised,6560c4cfd080ba12b16d8282,6564c8a43fff62c11976bf6c,95501,1A,man,NA,NA,Somebody says<br><em>Beth is meeting Luke</em>,meet_active,rating_volition,"{""Q0"":4}",[0],The speaker identifies more with <br>Luke than Beth,The speaker identifies more with<br>Beth than Luke,right_to_left
null,Somebody says<br><em>Dave is copying Mike</em>,NA,NA,NA,html-keyboard-response,89,361584,0.0-48.0-0.0,anomymised,6560c4cfd080ba12b16d8282,6564c8a43fff62c11976bf6c,95501,1A,man,NA,null,NAME1 is copying NAME2,copy_active,sentence,NA,NA,NA,NA,NA
4510.5,NA,NA,NA,NA,survey-likert-extra-labels,90,366095,0.0-48.0-1.0,anomymised,6560c4cfd080ba12b16d8282,6564c8a43fff62c11976bf6c,95501,1A,man,NA,NA,Somebody says<br><em>Dave is copying Mike</em>,copy_active,rating_volition,"{""Q0"":6}",[0],The speaker identifies more with <br>Dave than Mike,The speaker identifies more with<br>Mike than Dave,left_to_right
null,Somebody says<br><em>Fred and Dave are marrying each other</em>,NA,NA,NA,html-keyboard-response,91,368106,0.0-49.0-0.0,anomymised,6560c4cfd080ba12b16d8282,6564c8a43fff62c11976bf6c,95501,1A,man,NA,null,NAME1 and NAME2 are marrying each other,marry_conjoined,sentence,NA,NA,NA,NA,NA
1846.1000000238419,NA,NA,NA,NA,survey-likert-extra-labels,92,369953,0.0-49.0-1.0,anomymised,6560c4cfd080ba12b16d8282,6564c8a43fff62c11976bf6c,95501,1A,man,NA,NA,Somebody says<br><em>Fred and Dave are marrying each other</em>,marry_conjoined,rating_volition,"{""Q0"":4}",[0],The speaker identifies more with <br>Dave than Fred,The speaker identifies more with<br>Fred than Dave,right_to_left
null,Somebody says<br><em>Dave is fighting with Mike</em>,NA,NA,NA,html-keyboard-response,93,371964,0.0-50.0-0.0,anomymised,6560c4cfd080ba12b16d8282,6564c8a43fff62c11976bf6c,95501,1A,man,NA,null,NAME1 is fighting with NAME2,fight_active,sentence,NA,NA,NA,NA,NA
1467.5,NA,NA,NA,NA,survey-likert-extra-labels,94,373432,0.0-50.0-1.0,anomymised,6560c4cfd080ba12b16d8282,6564c8a43fff62c11976bf6c,95501,1A,man,NA,NA,Somebody says<br><em>Dave is fighting with Mike</em>,fight_active,rating_volition,"{""Q0"":3}",[0],The speaker identifies more with <br>Mike than Dave,The speaker identifies more with<br>Dave than Mike,right_to_left
null,Somebody says<br><em>Fred is hugging Beth</em>,NA,NA,NA,html-keyboard-response,95,375440,0.0-51.0-0.0,anomymised,6560c4cfd080ba12b16d8282,6564c8a43fff62c11976bf6c,95501,1A,man,NA,null,NAME1 is hugging NAME2,hug_active,sentence,NA,NA,NA,NA,NA
4504.5,NA,NA,NA,NA,survey-likert-extra-labels,96,379945,0.0-51.0-1.0,anomymised,6560c4cfd080ba12b16d8282,6564c8a43fff62c11976bf6c,95501,1A,man,NA,NA,Somebody says<br><em>Fred is hugging Beth</em>,hug_active,rating_volition,"{""Q0"":5}",[0],The speaker identifies more with <br>Fred than Beth,The speaker identifies more with<br>Beth than Fred,left_to_right
null,Somebody says<br><em>Mike is posing for Dave,NA,NA,NA,html-keyboard-response,97,382388,0.0-52.0-0.0,anomymised,6560c4cfd080ba12b16d8282,6564c8a43fff62c11976bf6c,95501,1A,man,NA,null,M2 is posing for M4,pose,sentence,NA,NA,NA,NA,NA
4375.200000047684,NA,NA,NA,NA,survey-likert-extra-labels,98,386765,0.0-52.0-1.0,anomymised,6560c4cfd080ba12b16d8282,6564c8a43fff62c11976bf6c,95501,1A,man,NA,NA,Somebody says<br><em>Mike is posing for Dave,pose,rating_volition,"{""Q0"":0}",[0],Mike is modelling for Dave,Dave is modelling for Mike,NA
null,Somebody says<br><em>Fred and Kate are flirting with each other</em>,NA,NA,NA,html-keyboard-response,99,388770,0.0-53.0-0.0,anomymised,6560c4cfd080ba12b16d8282,6564c8a43fff62c11976bf6c,95501,1A,man,NA,null,NAME1 and NAME2 are flirting with each other,flirt_conjoined,sentence,NA,NA,NA,NA,NA
3434,NA,NA,NA,NA,survey-likert-extra-labels,100,392205,0.0-53.0-1.0,anomymised,6560c4cfd080ba12b16d8282,6564c8a43fff62c11976bf6c,95501,1A,man,NA,NA,Somebody says<br><em>Fred and Kate are flirting with each other</em>,flirt_conjoined,rating_volition,"{""Q0"":2}",[0],The speaker identifies more with <br>Fred than Kate,The speaker identifies more with<br>Kate than Fred,left_to_right
null,Somebody says<br><em>Fred is being greeted by Dave</em>,NA,NA,NA,html-keyboard-response,101,394211,0.0-54.0-0.0,anomymised,6560c4cfd080ba12b16d8282,6564c8a43fff62c11976bf6c,95501,1A,man,NA,null,NAME1 is being greeted by NAME2,greet_passive,sentence,NA,NA,NA,NA,NA
1586.5999999046326,NA,NA,NA,NA,survey-likert-extra-labels,102,395799,0.0-54.0-1.0,anomymised,6560c4cfd080ba12b16d8282,6564c8a43fff62c11976bf6c,95501,1A,man,NA,NA,Somebody says<br><em>Fred is being greeted by Dave</em>,greet_passive,rating_volition,"{""Q0"":4}",[0],The speaker identifies more with <br>Dave than Fred,The speaker identifies more with<br>Fred than Dave,right_to_left
null,Somebody says<br><em>Mike is kissing Dave</em>,NA,NA,NA,html-keyboard-response,103,397807,0.0-55.0-0.0,anomymised,6560c4cfd080ba12b16d8282,6564c8a43fff62c11976bf6c,95501,1A,man,NA,null,NAME1 is kissing NAME2,kiss_active,sentence,NA,NA,NA,NA,NA
4530.600000023842,NA,NA,NA,NA,survey-likert-extra-labels,104,402339,0.0-55.0-1.0,anomymised,6560c4cfd080ba12b16d8282,6564c8a43fff62c11976bf6c,95501,1A,man,NA,NA,Somebody says<br><em>Mike is kissing Dave</em>,kiss_active,rating_volition,"{""Q0"":4}",[0],The speaker identifies more with <br>Mike than Dave,The speaker identifies more with<br>Dave than Mike,left_to_right
2263.600000023842,<p>Thank you for completing that task.</p><p>The final part of this session is a short questionnaire.</p><p>Press Continue.</p>,0,Continue,Continue,html-button-response,105,404603,0.0-56.0,anomymised,6560c4cfd080ba12b16d8282,6564c8a43fff62c11976bf6c,95501,1A,man,NA,NA,NA,NA,NA,NA,NA,NA,NA,NA
18423.100000023842,NA,NA,NA,NA,survey-text,106,424034,0.0-57.0,anomymised,6560c4cfd080ba12b16d8282,6564c8a43fff62c11976bf6c,95501,1A,man,NA,NA,NA,NA,demographics,"{""Q0"":""57"",""Q1"":""Urdu"",""Q2"":""English"",""Q3"":""UK"",""Q4"":""British"",""Q5"":""Pakistani"",""Q6"":""Male""}",NA,NA,NA,NA
2947.7999999523163,<p>This is the last question - thank you for taking part! Have you lived in the UK for the last 5 years or more?</p>,0,"Yes,No",Yes,html-button-response,107,426982,0.0-58.0,anomymised,6560c4cfd080ba12b16d8282,6564c8a43fff62c11976bf6c,95501,1A,man,NA,NA,NA,NA,fiveyears,NA,NA,NA,NA,NA
