rt,stimulus,button_pressed,choices,ChosenStimulus,trial_type,trial_index,time_elapsed,internal_node_id,subject_id,study_id,session_id,subject,list,ppt_gender,url,key_press,sentence_type,verb,test_part,responses,question_order,left_part,right_part,name_order
7646.699999999255,Welcome to the experiment. Press Continue to begin.,0,Continue,Continue,html-button-response,0,7650,0.0-0.0,anomymised,6564584152624795c40b73cb,6564bdb1cda9c2da75aa7b41,95728,1A,woman,NA,NA,NA,NA,NA,NA,NA,NA,NA,NA
181862.1000000015,NA,NA,NA,NA,external-html,1,190704,0.0-1.0,anomymised,6564584152624795c40b73cb,6564bdb1cda9c2da75aa7b41,95728,1A,woman,consent.html,NA,NA,NA,NA,NA,NA,NA,NA,NA
26301.89999999851,"<p>Welcome.</p><p>In this experiment we will ask you to imagine people's motivations for saying sentences.</p><p>Each trial will begin with a sentence that somebody might say to describe an event involving two different people.</p><p>For instance, someone might say <em>Harry is being recruited by Molly</em></p><p>We want you to think about which of those two people (Molly and Harry) the speaker identifies more with. For instance, why did the speaker say <em>Harry is being recruited by Molly</em> rather than <em> Molly is recruiting Harry</em>? Might that mean that the speaker is socially closer to one of the two characters?</p><p>After you have read the sentence, you will rate on a scale which of the two characters the speaker identifies more with.</p><p>You will give your answer by clicking a button on a rating scale.</p><p>Sometimes there will also be catch questions designed to make sure that you are paying attention, which ask about a different topic.</p><p>To do this task, you will have to use your imagination to think about and visualise the events, and how the speaker might relate to the characters.</p><br><p>Ready?</p>",0,Continue,Continue,html-button-response,2,217008,0.0-2.0,anomymised,6564584152624795c40b73cb,6564bdb1cda9c2da75aa7b41,95728,1A,woman,NA,NA,NA,NA,NA,NA,NA,NA,NA,NA
2434.7000000029802,"<p>Before the experiment starts, we will show you an example of how you will answer the questions. Press 'Continue'.</p>",0,Continue,Continue,html-button-response,3,220455,0.0-3.0,anomymised,6564584152624795c40b73cb,6564bdb1cda9c2da75aa7b41,95728,1A,woman,NA,NA,NA,NA,NA,NA,NA,NA,NA,NA
null,Somebody says <br><em>Samuel is dining with Frank</em>,NA,NA,NA,html-keyboard-response,4,223465,0.0-4.0,anomymised,6564584152624795c40b73cb,6564bdb1cda9c2da75aa7b41,95728,1A,woman,NA,null,NA,NA,NA,NA,NA,NA,NA,NA
15644.400000002235,<img src='img/Example-trial.jpg' style='height:550px;''></img>,0,Continue,Continue,html-button-response,5,239111,0.0-5.0,anomymised,6564584152624795c40b73cb,6564bdb1cda9c2da75aa7b41,95728,1A,woman,NA,NA,NA,NA,NA,NA,NA,NA,NA,NA
1545.699999999255,<p>Ready to start the experiment?</p><br><p><strong>Remember to give an answer by clicking a button on the rating scale.</strong></p><p>Press 'Continue' to begin.</p>,0,Continue,Continue,html-button-response,6,241664,0.0-6.0,anomymised,6564584152624795c40b73cb,6564bdb1cda9c2da75aa7b41,95728,1A,woman,NA,NA,NA,NA,NA,NA,NA,NA,NA,NA
null,Somebody says<br><em>Kate is being greeted by Dave</em>,NA,NA,NA,html-keyboard-response,7,244679,0.0-7.0-0.0,anomymised,6564584152624795c40b73cb,6564bdb1cda9c2da75aa7b41,95728,1A,woman,NA,null,NAME1 is being greeted by NAME2,greet_passive,sentence,NA,NA,NA,NA,NA
3278.5,NA,NA,NA,NA,survey-likert-extra-labels,8,247960,0.0-7.0-1.0,anomymised,6564584152624795c40b73cb,6564bdb1cda9c2da75aa7b41,95728,1A,woman,NA,NA,Somebody says<br><em>Kate is being greeted by Dave</em>,greet_passive,rating_volition,"{""Q0"":0}",[0],The speaker identifies more with <br>Kate than Dave,The speaker identifies more with<br>Dave than Kate,left_to_right
null,Somebody says<br><em>Kate and Mike are touching each other</em>,NA,NA,NA,html-keyboard-response,9,249967,0.0-8.0-0.0,anomymised,6564584152624795c40b73cb,6564bdb1cda9c2da75aa7b41,95728,1A,woman,NA,null,NAME1 and NAME2 are touching each other,touch_conjoined,sentence,NA,NA,NA,NA,NA
2630.199999999255,NA,NA,NA,NA,survey-likert-extra-labels,10,252599,0.0-8.0-1.0,anomymised,6564584152624795c40b73cb,6564bdb1cda9c2da75aa7b41,95728,1A,woman,NA,NA,Somebody says<br><em>Kate and Mike are touching each other</em>,touch_conjoined,rating_volition,"{""Q0"":3}",[0],The speaker identifies more with <br>Kate than Mike,The speaker identifies more with<br>Mike than Kate,left_to_right
null,Somebody says<br><em>Luke is being seduced by Kate</em>,NA,NA,NA,html-keyboard-response,11,254601,0.0-9.0-0.0,anomymised,6564584152624795c40b73cb,6564bdb1cda9c2da75aa7b41,95728,1A,woman,NA,null,NAME1 is being seduced by NAME2,seduce_passive,sentence,NA,NA,NA,NA,NA
1781.5,NA,NA,NA,NA,survey-likert-extra-labels,12,256385,0.0-9.0-1.0,anomymised,6564584152624795c40b73cb,6564bdb1cda9c2da75aa7b41,95728,1A,woman,NA,NA,Somebody says<br><em>Luke is being seduced by Kate</em>,seduce_passive,rating_volition,"{""Q0"":0}",[0],The speaker identifies more with <br>Luke than Kate,The speaker identifies more with<br>Kate than Luke,left_to_right
null,Somebody says<br><em>Mike is greeting Beth</em>,NA,NA,NA,html-keyboard-response,13,258391,0.0-10.0-0.0,anomymised,6564584152624795c40b73cb,6564bdb1cda9c2da75aa7b41,95728,1A,woman,NA,null,NAME1 is greeting NAME2,greet_active,sentence,NA,NA,NA,NA,NA
3432.099999997765,NA,NA,NA,NA,survey-likert-extra-labels,14,261824,0.0-10.0-1.0,anomymised,6564584152624795c40b73cb,6564bdb1cda9c2da75aa7b41,95728,1A,woman,NA,NA,Somebody says<br><em>Mike is greeting Beth</em>,greet_active,rating_volition,"{""Q0"":6}",[0],The speaker identifies more with <br>Beth than Mike,The speaker identifies more with<br>Mike than Beth,right_to_left
null,Somebody says<br><em>Mike is posing for Dave,NA,NA,NA,html-keyboard-response,15,263838,0.0-11.0-0.0,anomymised,6564584152624795c40b73cb,6564bdb1cda9c2da75aa7b41,95728,1A,woman,NA,null,M2 is posing for M4,pose,sentence,NA,NA,NA,NA,NA
17775.300000000745,NA,NA,NA,NA,survey-likert-extra-labels,16,281615,0.0-11.0-1.0,anomymised,6564584152624795c40b73cb,6564bdb1cda9c2da75aa7b41,95728,1A,woman,NA,NA,Somebody says<br><em>Mike is posing for Dave,pose,rating_volition,"{""Q0"":0}",[0],Mike is modelling for Dave,Dave is modelling for Mike,NA
null,Somebody says<br><em>Mike is looking at Ruth</em>,NA,NA,NA,html-keyboard-response,17,283632,0.0-12.0-0.0,anomymised,6564584152624795c40b73cb,6564bdb1cda9c2da75aa7b41,95728,1A,woman,NA,null,NAME1 is looking at NAME2,look_active,sentence,NA,NA,NA,NA,NA
3229.89999999851,NA,NA,NA,NA,survey-likert-extra-labels,18,286863,0.0-12.0-1.0,anomymised,6564584152624795c40b73cb,6564bdb1cda9c2da75aa7b41,95728,1A,woman,NA,NA,Somebody says<br><em>Mike is looking at Ruth</em>,look_active,rating_volition,"{""Q0"":0}",[0],The speaker identifies more with <br>Mike than Ruth,The speaker identifies more with<br>Ruth than Mike,left_to_right
null,Somebody says<br><em>Ruth is challenging Kate</em>,NA,NA,NA,html-keyboard-response,19,288881,0.0-13.0-0.0,anomymised,6564584152624795c40b73cb,6564bdb1cda9c2da75aa7b41,95728,1A,woman,NA,null,NAME1 is challenging NAME2,challenge_active,sentence,NA,NA,NA,NA,NA
5220.400000002235,NA,NA,NA,NA,survey-likert-extra-labels,20,294104,0.0-13.0-1.0,anomymised,6564584152624795c40b73cb,6564bdb1cda9c2da75aa7b41,95728,1A,woman,NA,NA,Somebody says<br><em>Ruth is challenging Kate</em>,challenge_active,rating_volition,"{""Q0"":0}",[0],The speaker identifies more with <br>Ruth than Kate,The speaker identifies more with<br>Kate than Ruth,left_to_right
null,Somebody says<br><em>Jane is carrying Beth,NA,NA,NA,html-keyboard-response,21,296113,0.0-14.0-0.0,anomymised,6564584152624795c40b73cb,6564bdb1cda9c2da75aa7b41,95728,1A,woman,NA,null,W2 is carrying W4,carry,sentence,NA,NA,NA,NA,NA
6252.800000000745,NA,NA,NA,NA,survey-likert-extra-labels,22,302367,0.0-14.0-1.0,anomymised,6564584152624795c40b73cb,6564bdb1cda9c2da75aa7b41,95728,1A,woman,NA,NA,Somebody says<br><em>Jane is carrying Beth,carry,rating_volition,"{""Q0"":0}",[0],Jane is transporting Beth,Beth is transporting Jane,NA
null,Somebody says<br><em>Mike is being kissed by Fred</em>,NA,NA,NA,html-keyboard-response,23,304382,0.0-15.0-0.0,anomymised,6564584152624795c40b73cb,6564bdb1cda9c2da75aa7b41,95728,1A,woman,NA,null,NAME1 is being kissed by NAME2,kiss_passive,sentence,NA,NA,NA,NA,NA
4047.599999997765,NA,NA,NA,NA,survey-likert-extra-labels,24,308431,0.0-15.0-1.0,anomymised,6564584152624795c40b73cb,6564bdb1cda9c2da75aa7b41,95728,1A,woman,NA,NA,Somebody says<br><em>Mike is being kissed by Fred</em>,kiss_passive,rating_volition,"{""Q0"":6}",[0],The speaker identifies more with <br>Fred than Mike,The speaker identifies more with<br>Mike than Fred,right_to_left
null,Somebody says<br><em>Jane and Fred are kissing each other</em>,NA,NA,NA,html-keyboard-response,25,310442,0.0-16.0-0.0,anomymised,6564584152624795c40b73cb,6564bdb1cda9c2da75aa7b41,95728,1A,woman,NA,null,NAME1 and NAME2 are kissing each other,kiss_conjoined,sentence,NA,NA,NA,NA,NA
1268.2999999970198,NA,NA,NA,NA,survey-likert-extra-labels,26,311712,0.0-16.0-1.0,anomymised,6564584152624795c40b73cb,6564bdb1cda9c2da75aa7b41,95728,1A,woman,NA,NA,Somebody says<br><em>Jane and Fred are kissing each other</em>,kiss_conjoined,rating_volition,"{""Q0"":3}",[0],The speaker identifies more with <br>Fred than Jane,The speaker identifies more with<br>Jane than Fred,right_to_left
null,Somebody says<br><em>Kate is being shouted at by Jane</em>,NA,NA,NA,html-keyboard-response,27,313714,0.0-17.0-0.0,anomymised,6564584152624795c40b73cb,6564bdb1cda9c2da75aa7b41,95728,1A,woman,NA,null,NAME1 is being shouted at by NAME2,shout_passive,sentence,NA,NA,NA,NA,NA
1939.4000000022352,NA,NA,NA,NA,survey-likert-extra-labels,28,315654,0.0-17.0-1.0,anomymised,6564584152624795c40b73cb,6564bdb1cda9c2da75aa7b41,95728,1A,woman,NA,NA,Somebody says<br><em>Kate is being shouted at by Jane</em>,shout_passive,rating_volition,"{""Q0"":0}",[0],The speaker identifies more with <br>Kate than Jane,The speaker identifies more with<br>Jane than Kate,left_to_right
null,Somebody says<br><em>Beth is being challenged by Dave</em>,NA,NA,NA,html-keyboard-response,29,317661,0.0-18.0-0.0,anomymised,6564584152624795c40b73cb,6564bdb1cda9c2da75aa7b41,95728,1A,woman,NA,null,NAME1 is being challenged by NAME2,challenge_passive,sentence,NA,NA,NA,NA,NA
2880.599999997765,NA,NA,NA,NA,survey-likert-extra-labels,30,320543,0.0-18.0-1.0,anomymised,6564584152624795c40b73cb,6564bdb1cda9c2da75aa7b41,95728,1A,woman,NA,NA,Somebody says<br><em>Beth is being challenged by Dave</em>,challenge_passive,rating_volition,"{""Q0"":0}",[0],The speaker identifies more with <br>Beth than Dave,The speaker identifies more with<br>Dave than Beth,left_to_right
null,Somebody says<br><em>Dave and Beth are fighting with each other</em>,NA,NA,NA,html-keyboard-response,31,322556,0.0-19.0-0.0,anomymised,6564584152624795c40b73cb,6564bdb1cda9c2da75aa7b41,95728,1A,woman,NA,null,NAME1 and NAME2 are fighting with each other,fight_conjoined,sentence,NA,NA,NA,NA,NA
7921.60000000149,NA,NA,NA,NA,survey-likert-extra-labels,32,330479,0.0-19.0-1.0,anomymised,6564584152624795c40b73cb,6564bdb1cda9c2da75aa7b41,95728,1A,woman,NA,NA,Somebody says<br><em>Dave and Beth are fighting with each other</em>,fight_conjoined,rating_volition,"{""Q0"":3}",[0],The speaker identifies more with <br>Beth than Dave,The speaker identifies more with<br>Dave than Beth,right_to_left
null,Somebody says<br><em>Jane is kissing Ruth</em>,NA,NA,NA,html-keyboard-response,33,332487,0.0-20.0-0.0,anomymised,6564584152624795c40b73cb,6564bdb1cda9c2da75aa7b41,95728,1A,woman,NA,null,NAME1 is kissing NAME2,kiss_active,sentence,NA,NA,NA,NA,NA
2494.39999999851,NA,NA,NA,NA,survey-likert-extra-labels,34,334984,0.0-20.0-1.0,anomymised,6564584152624795c40b73cb,6564bdb1cda9c2da75aa7b41,95728,1A,woman,NA,NA,Somebody says<br><em>Jane is kissing Ruth</em>,kiss_active,rating_volition,"{""Q0"":0}",[0],The speaker identifies more with <br>Jane than Ruth,The speaker identifies more with<br>Ruth than Jane,left_to_right
null,Somebody says<br><em>Fred is hugging Kate</em>,NA,NA,NA,html-keyboard-response,35,336997,0.0-21.0-0.0,anomymised,6564584152624795c40b73cb,6564bdb1cda9c2da75aa7b41,95728,1A,woman,NA,null,NAME1 is hugging NAME2,hug_active,sentence,NA,NA,NA,NA,NA
1976.6000000014901,NA,NA,NA,NA,survey-likert-extra-labels,36,338975,0.0-21.0-1.0,anomymised,6564584152624795c40b73cb,6564bdb1cda9c2da75aa7b41,95728,1A,woman,NA,NA,Somebody says<br><em>Fred is hugging Kate</em>,hug_active,rating_volition,"{""Q0"":0}",[0],The speaker identifies more with <br>Fred than Kate,The speaker identifies more with<br>Kate than Fred,left_to_right
null,Somebody says<br><em>Luke and Fred are marrying each other</em>,NA,NA,NA,html-keyboard-response,37,340988,0.0-22.0-0.0,anomymised,6564584152624795c40b73cb,6564bdb1cda9c2da75aa7b41,95728,1A,woman,NA,null,NAME1 and NAME2 are marrying each other,marry_conjoined,sentence,NA,NA,NA,NA,NA
2233.2999999970198,NA,NA,NA,NA,survey-likert-extra-labels,38,343224,0.0-22.0-1.0,anomymised,6564584152624795c40b73cb,6564bdb1cda9c2da75aa7b41,95728,1A,woman,NA,NA,Somebody says<br><em>Luke and Fred are marrying each other</em>,marry_conjoined,rating_volition,"{""Q0"":3}",[0],The speaker identifies more with <br>Luke than Fred,The speaker identifies more with<br>Fred than Luke,left_to_right
null,Somebody says<br><em>Beth and Mike are meeting each other</em>,NA,NA,NA,html-keyboard-response,39,345230,0.0-23.0-0.0,anomymised,6564584152624795c40b73cb,6564bdb1cda9c2da75aa7b41,95728,1A,woman,NA,null,NAME1 and NAME2 are meeting each other,meet_conjoined,sentence,NA,NA,NA,NA,NA
2656.5,NA,NA,NA,NA,survey-likert-extra-labels,40,347889,0.0-23.0-1.0,anomymised,6564584152624795c40b73cb,6564bdb1cda9c2da75aa7b41,95728,1A,woman,NA,NA,Somebody says<br><em>Beth and Mike are meeting each other</em>,meet_conjoined,rating_volition,"{""Q0"":3}",[0],The speaker identifies more with <br>Mike than Beth,The speaker identifies more with<br>Beth than Mike,right_to_left
null,Somebody says<br><em>Mike is reminding Beth,NA,NA,NA,html-keyboard-response,41,349904,0.0-24.0-0.0,anomymised,6564584152624795c40b73cb,6564bdb1cda9c2da75aa7b41,95728,1A,woman,NA,null,M2 is reminding W4,remind,sentence,NA,NA,NA,NA,NA
2702.699999999255,NA,NA,NA,NA,survey-likert-extra-labels,42,352608,0.0-24.0-1.0,anomymised,6564584152624795c40b73cb,6564bdb1cda9c2da75aa7b41,95728,1A,woman,NA,NA,Somebody says<br><em>Mike is reminding Beth,remind,rating_volition,"{""Q0"":0}",[0],Mike is telling Beth again,Beth is telling Mike again,NA
null,Somebody says<br><em>Fred is shouting at Dave</em>,NA,NA,NA,html-keyboard-response,43,354611,0.0-25.0-0.0,anomymised,6564584152624795c40b73cb,6564bdb1cda9c2da75aa7b41,95728,1A,woman,NA,null,NAME1 is shouting at NAME2,shout_active,sentence,NA,NA,NA,NA,NA
2213.60000000149,NA,NA,NA,NA,survey-likert-extra-labels,44,356826,0.0-25.0-1.0,anomymised,6564584152624795c40b73cb,6564bdb1cda9c2da75aa7b41,95728,1A,woman,NA,NA,Somebody says<br><em>Fred is shouting at Dave</em>,shout_active,rating_volition,"{""Q0"":0}",[0],The speaker identifies more with <br>Fred than Dave,The speaker identifies more with<br>Dave than Fred,left_to_right
null,Somebody says<br><em>Mike and Kate are arguing with each other</em>,NA,NA,NA,html-keyboard-response,45,358831,0.0-26.0-0.0,anomymised,6564584152624795c40b73cb,6564bdb1cda9c2da75aa7b41,95728,1A,woman,NA,null,NAME1 and NAME2 are arguing with each other,argue_conjoined,sentence,NA,NA,NA,NA,NA
1232.5,NA,NA,NA,NA,survey-likert-extra-labels,46,360065,0.0-26.0-1.0,anomymised,6564584152624795c40b73cb,6564bdb1cda9c2da75aa7b41,95728,1A,woman,NA,NA,Somebody says<br><em>Mike and Kate are arguing with each other</em>,argue_conjoined,rating_volition,"{""Q0"":3}",[0],The speaker identifies more with <br>Kate than Mike,The speaker identifies more with<br>Mike than Kate,right_to_left
null,Somebody says<br><em>Fred is meeting Mike</em>,NA,NA,NA,html-keyboard-response,47,362066,0.0-27.0-0.0,anomymised,6564584152624795c40b73cb,6564bdb1cda9c2da75aa7b41,95728,1A,woman,NA,null,NAME1 is meeting NAME2,meet_active,sentence,NA,NA,NA,NA,NA
3220.300000000745,NA,NA,NA,NA,survey-likert-extra-labels,48,365288,0.0-27.0-1.0,anomymised,6564584152624795c40b73cb,6564bdb1cda9c2da75aa7b41,95728,1A,woman,NA,NA,Somebody says<br><em>Fred is meeting Mike</em>,meet_active,rating_volition,"{""Q0"":0}",[0],The speaker identifies more with <br>Fred than Mike,The speaker identifies more with<br>Mike than Fred,left_to_right
null,Somebody says<br><em>Mike is being copied by Fred</em>,NA,NA,NA,html-keyboard-response,49,367301,0.0-28.0-0.0,anomymised,6564584152624795c40b73cb,6564bdb1cda9c2da75aa7b41,95728,1A,woman,NA,null,NAME1 is being copied by NAME2,copy_passive,sentence,NA,NA,NA,NA,NA
2242.10000000149,NA,NA,NA,NA,survey-likert-extra-labels,50,369545,0.0-28.0-1.0,anomymised,6564584152624795c40b73cb,6564bdb1cda9c2da75aa7b41,95728,1A,woman,NA,NA,Somebody says<br><em>Mike is being copied by Fred</em>,copy_passive,rating_volition,"{""Q0"":0}",[0],The speaker identifies more with <br>Mike than Fred,The speaker identifies more with<br>Fred than Mike,left_to_right
null,Somebody says<br><em>Mike is touching Dave</em>,NA,NA,NA,html-keyboard-response,51,371558,0.0-29.0-0.0,anomymised,6564584152624795c40b73cb,6564bdb1cda9c2da75aa7b41,95728,1A,woman,NA,null,NAME1 is touching NAME2,touch_active,sentence,NA,NA,NA,NA,NA
3616.7999999970198,NA,NA,NA,NA,survey-likert-extra-labels,52,375177,0.0-29.0-1.0,anomymised,6564584152624795c40b73cb,6564bdb1cda9c2da75aa7b41,95728,1A,woman,NA,NA,Somebody says<br><em>Mike is touching Dave</em>,touch_active,rating_volition,"{""Q0"":0}",[0],The speaker identifies more with <br>Mike than Dave,The speaker identifies more with<br>Dave than Mike,left_to_right
null,Somebody says<br><em>Mike is being hugged by Luke</em>,NA,NA,NA,html-keyboard-response,53,377182,0.0-30.0-0.0,anomymised,6564584152624795c40b73cb,6564bdb1cda9c2da75aa7b41,95728,1A,woman,NA,null,NAME1 is being hugged by NAME2,hug_passive,sentence,NA,NA,NA,NA,NA
2256.800000000745,NA,NA,NA,NA,survey-likert-extra-labels,54,379440,0.0-30.0-1.0,anomymised,6564584152624795c40b73cb,6564bdb1cda9c2da75aa7b41,95728,1A,woman,NA,NA,Somebody says<br><em>Mike is being hugged by Luke</em>,hug_passive,rating_volition,"{""Q0"":6}",[0],The speaker identifies more with <br>Luke than Mike,The speaker identifies more with<br>Mike than Luke,right_to_left
null,Somebody says<br><em>Jane is flirting with Luke</em>,NA,NA,NA,html-keyboard-response,55,381444,0.0-31.0-0.0,anomymised,6564584152624795c40b73cb,6564bdb1cda9c2da75aa7b41,95728,1A,woman,NA,null,NAME1 is flirting with NAME2,flirt_active,sentence,NA,NA,NA,NA,NA
2283.10000000149,NA,NA,NA,NA,survey-likert-extra-labels,56,383728,0.0-31.0-1.0,anomymised,6564584152624795c40b73cb,6564bdb1cda9c2da75aa7b41,95728,1A,woman,NA,NA,Somebody says<br><em>Jane is flirting with Luke</em>,flirt_active,rating_volition,"{""Q0"":6}",[0],The speaker identifies more with <br>Luke than Jane,The speaker identifies more with<br>Jane than Luke,right_to_left
null,Somebody says<br><em>Dave and Kate are playing with each other</em>,NA,NA,NA,html-keyboard-response,57,385747,0.0-32.0-0.0,anomymised,6564584152624795c40b73cb,6564bdb1cda9c2da75aa7b41,95728,1A,woman,NA,null,NAME1 and NAME2 are playing with each other,play_conjoined,sentence,NA,NA,NA,NA,NA
1035.8999999985099,NA,NA,NA,NA,survey-likert-extra-labels,58,386785,0.0-32.0-1.0,anomymised,6564584152624795c40b73cb,6564bdb1cda9c2da75aa7b41,95728,1A,woman,NA,NA,Somebody says<br><em>Dave and Kate are playing with each other</em>,play_conjoined,rating_volition,"{""Q0"":3}",[0],The speaker identifies more with <br>Dave than Kate,The speaker identifies more with<br>Kate than Dave,left_to_right
null,Somebody says<br><em>Kate is feeding Luke,NA,NA,NA,html-keyboard-response,59,388799,0.0-33.0-0.0,anomymised,6564584152624795c40b73cb,6564bdb1cda9c2da75aa7b41,95728,1A,woman,NA,null,W3 is feeding M1,feed,sentence,NA,NA,NA,NA,NA
156103.5,NA,NA,NA,NA,survey-likert-extra-labels,60,544911,0.0-33.0-1.0,anomymised,6564584152624795c40b73cb,6564bdb1cda9c2da75aa7b41,95728,1A,woman,NA,NA,Somebody says<br><em>Kate is feeding Luke,feed,rating_volition,"{""Q0"":0}",[0],Kate cooked for Luke,Luke cooked for Kate,NA
null,Somebody says<br><em>Dave is being looked at by Fred</em>,NA,NA,NA,html-keyboard-response,61,546917,0.0-34.0-0.0,anomymised,6564584152624795c40b73cb,6564bdb1cda9c2da75aa7b41,95728,1A,woman,NA,null,NAME1 is being looked at by NAME2,look_passive,sentence,NA,NA,NA,NA,NA
1783.5,NA,NA,NA,NA,survey-likert-extra-labels,62,548702,0.0-34.0-1.0,anomymised,6564584152624795c40b73cb,6564bdb1cda9c2da75aa7b41,95728,1A,woman,NA,NA,Somebody says<br><em>Dave is being looked at by Fred</em>,look_passive,rating_volition,"{""Q0"":0}",[0],The speaker identifies more with <br>Dave than Fred,The speaker identifies more with<br>Fred than Dave,left_to_right
null,Somebody says<br><em>Beth is dancing with Jane</em>,NA,NA,NA,html-keyboard-response,63,550705,0.0-35.0-0.0,anomymised,6564584152624795c40b73cb,6564bdb1cda9c2da75aa7b41,95728,1A,woman,NA,null,NAME1 is dancing with NAME2,dance_active,sentence,NA,NA,NA,NA,NA
1996,NA,NA,NA,NA,survey-likert-extra-labels,64,552703,0.0-35.0-1.0,anomymised,6564584152624795c40b73cb,6564bdb1cda9c2da75aa7b41,95728,1A,woman,NA,NA,Somebody says<br><em>Beth is dancing with Jane</em>,dance_active,rating_volition,"{""Q0"":3}",[0],The speaker identifies more with <br>Jane than Beth,The speaker identifies more with<br>Beth than Jane,right_to_left
null,Somebody says<br><em>Luke and Mike are talking with each other</em>,NA,NA,NA,html-keyboard-response,65,554706,0.0-36.0-0.0,anomymised,6564584152624795c40b73cb,6564bdb1cda9c2da75aa7b41,95728,1A,woman,NA,null,NAME1 and NAME2 are talking with each other,talk_conjoined,sentence,NA,NA,NA,NA,NA
1682.5,NA,NA,NA,NA,survey-likert-extra-labels,66,556391,0.0-36.0-1.0,anomymised,6564584152624795c40b73cb,6564bdb1cda9c2da75aa7b41,95728,1A,woman,NA,NA,Somebody says<br><em>Luke and Mike are talking with each other</em>,talk_conjoined,rating_volition,"{""Q0"":3}",[0],The speaker identifies more with <br>Mike than Luke,The speaker identifies more with<br>Luke than Mike,right_to_left
null,Somebody says<br><em>Jane is being opposed by Dave</em>,NA,NA,NA,html-keyboard-response,67,558406,0.0-37.0-0.0,anomymised,6564584152624795c40b73cb,6564bdb1cda9c2da75aa7b41,95728,1A,woman,NA,null,NAME1 is being opposed by NAME2,oppose_passive,sentence,NA,NA,NA,NA,NA
1669.699999999255,NA,NA,NA,NA,survey-likert-extra-labels,68,560078,0.0-37.0-1.0,anomymised,6564584152624795c40b73cb,6564bdb1cda9c2da75aa7b41,95728,1A,woman,NA,NA,Somebody says<br><em>Jane is being opposed by Dave</em>,oppose_passive,rating_volition,"{""Q0"":0}",[0],The speaker identifies more with <br>Dave than Jane,The speaker identifies more with<br>Jane than Dave,right_to_left
null,Somebody says<br><em>Fred is hiring Ruth,NA,NA,NA,html-keyboard-response,69,562085,0.0-38.0-0.0,anomymised,6564584152624795c40b73cb,6564bdb1cda9c2da75aa7b41,95728,1A,woman,NA,null,M3 is hiring W1,hire,sentence,NA,NA,NA,NA,NA
2240,NA,NA,NA,NA,survey-likert-extra-labels,70,564326,0.0-38.0-1.0,anomymised,6564584152624795c40b73cb,6564bdb1cda9c2da75aa7b41,95728,1A,woman,NA,NA,Somebody says<br><em>Fred is hiring Ruth,hire,rating_volition,"{""Q0"":0}",[0],Fred is employing Ruth,Ruth is employing Fred,NA
null,Somebody says<br><em>Jane is playing with Fred</em>,NA,NA,NA,html-keyboard-response,71,566335,0.0-39.0-0.0,anomymised,6564584152624795c40b73cb,6564bdb1cda9c2da75aa7b41,95728,1A,woman,NA,null,NAME1 is playing with NAME2,play_active,sentence,NA,NA,NA,NA,NA
4269.89999999851,NA,NA,NA,NA,survey-likert-extra-labels,72,570606,0.0-39.0-1.0,anomymised,6564584152624795c40b73cb,6564bdb1cda9c2da75aa7b41,95728,1A,woman,NA,NA,Somebody says<br><em>Jane is playing with Fred</em>,play_active,rating_volition,"{""Q0"":6}",[0],The speaker identifies more with <br>Fred than Jane,The speaker identifies more with<br>Jane than Fred,right_to_left
null,Somebody says<br><em>Luke is driving Fred,NA,NA,NA,html-keyboard-response,73,572612,0.0-40.0-0.0,anomymised,6564584152624795c40b73cb,6564bdb1cda9c2da75aa7b41,95728,1A,woman,NA,null,M1 is driving M3,drive,sentence,NA,NA,NA,NA,NA
5368.699999999255,NA,NA,NA,NA,survey-likert-extra-labels,74,577983,0.0-40.0-1.0,anomymised,6564584152624795c40b73cb,6564bdb1cda9c2da75aa7b41,95728,1A,woman,NA,NA,Somebody says<br><em>Luke is driving Fred,drive,rating_volition,"{""Q0"":6}",[0],Luke is Fred's passenger,Fred is Luke's passenger,NA
null,Somebody says<br><em>Luke is being touched by Jane</em>,NA,NA,NA,html-keyboard-response,75,579991,0.0-41.0-0.0,anomymised,6564584152624795c40b73cb,6564bdb1cda9c2da75aa7b41,95728,1A,woman,NA,null,NAME1 is being touched by NAME2,touch_passive,sentence,NA,NA,NA,NA,NA
1790.1000000014901,NA,NA,NA,NA,survey-likert-extra-labels,76,581783,0.0-41.0-1.0,anomymised,6564584152624795c40b73cb,6564bdb1cda9c2da75aa7b41,95728,1A,woman,NA,NA,Somebody says<br><em>Luke is being touched by Jane</em>,touch_passive,rating_volition,"{""Q0"":0}",[0],The speaker identifies more with <br>Luke than Jane,The speaker identifies more with<br>Jane than Luke,left_to_right
null,Somebody says<br><em>Kate is marrying Beth</em>,NA,NA,NA,html-keyboard-response,77,583787,0.0-42.0-0.0,anomymised,6564584152624795c40b73cb,6564bdb1cda9c2da75aa7b41,95728,1A,woman,NA,null,NAME1 is marrying NAME2,marry_active,sentence,NA,NA,NA,NA,NA
3161,NA,NA,NA,NA,survey-likert-extra-labels,78,586950,0.0-42.0-1.0,anomymised,6564584152624795c40b73cb,6564bdb1cda9c2da75aa7b41,95728,1A,woman,NA,NA,Somebody says<br><em>Kate is marrying Beth</em>,marry_active,rating_volition,"{""Q0"":0}",[0],The speaker identifies more with <br>Kate than Beth,The speaker identifies more with<br>Beth than Kate,left_to_right
null,Somebody says<br><em>Fred is shouting at Mike</em>,NA,NA,NA,html-keyboard-response,79,588956,0.0-43.0-0.0,anomymised,6564584152624795c40b73cb,6564bdb1cda9c2da75aa7b41,95728,1A,woman,NA,null,NAME1 is shouting at NAME2,shout_active,sentence,NA,NA,NA,NA,NA
2792.10000000149,NA,NA,NA,NA,survey-likert-extra-labels,80,591750,0.0-43.0-1.0,anomymised,6564584152624795c40b73cb,6564bdb1cda9c2da75aa7b41,95728,1A,woman,NA,NA,Somebody says<br><em>Fred is shouting at Mike</em>,shout_active,rating_volition,"{""Q0"":6}",[0],The speaker identifies more with <br>Mike than Fred,The speaker identifies more with<br>Fred than Mike,right_to_left
null,Somebody says<br><em>Dave is talking to Mike</em>,NA,NA,NA,html-keyboard-response,81,593760,0.0-44.0-0.0,anomymised,6564584152624795c40b73cb,6564bdb1cda9c2da75aa7b41,95728,1A,woman,NA,null,NAME1 is talking to NAME2,talk_active,sentence,NA,NA,NA,NA,NA
4348.89999999851,NA,NA,NA,NA,survey-likert-extra-labels,82,598110,0.0-44.0-1.0,anomymised,6564584152624795c40b73cb,6564bdb1cda9c2da75aa7b41,95728,1A,woman,NA,NA,Somebody says<br><em>Dave is talking to Mike</em>,talk_active,rating_volition,"{""Q0"":6}",[0],The speaker identifies more with <br>Mike than Dave,The speaker identifies more with<br>Dave than Mike,right_to_left
null,Somebody says<br><em>Ruth is chasing Kate,NA,NA,NA,html-keyboard-response,83,600136,0.0-45.0-0.0,anomymised,6564584152624795c40b73cb,6564bdb1cda9c2da75aa7b41,95728,1A,woman,NA,null,W1 is chasing W3,chase,sentence,NA,NA,NA,NA,NA
9742.199999999255,NA,NA,NA,NA,survey-likert-extra-labels,84,609880,0.0-45.0-1.0,anomymised,6564584152624795c40b73cb,6564bdb1cda9c2da75aa7b41,95728,1A,woman,NA,NA,Somebody says<br><em>Ruth is chasing Kate,chase,rating_volition,"{""Q0"":0}",[0],Ruth is behind Kate,Kate is behind Ruth,NA
null,Somebody says<br><em>Mike is arguing with Beth</em>,NA,NA,NA,html-keyboard-response,85,611882,0.0-46.0-0.0,anomymised,6564584152624795c40b73cb,6564bdb1cda9c2da75aa7b41,95728,1A,woman,NA,null,NAME1 is arguing with NAME2,argue_active,sentence,NA,NA,NA,NA,NA
4076.400000002235,NA,NA,NA,NA,survey-likert-extra-labels,86,615960,0.0-46.0-1.0,anomymised,6564584152624795c40b73cb,6564bdb1cda9c2da75aa7b41,95728,1A,woman,NA,NA,Somebody says<br><em>Mike is arguing with Beth</em>,argue_active,rating_volition,"{""Q0"":6}",[0],The speaker identifies more with <br>Beth than Mike,The speaker identifies more with<br>Mike than Beth,right_to_left
null,Somebody says<br><em>Dave is copying Jane</em>,NA,NA,NA,html-keyboard-response,87,617970,0.0-47.0-0.0,anomymised,6564584152624795c40b73cb,6564bdb1cda9c2da75aa7b41,95728,1A,woman,NA,null,NAME1 is copying NAME2,copy_active,sentence,NA,NA,NA,NA,NA
1940.300000000745,NA,NA,NA,NA,survey-likert-extra-labels,88,619912,0.0-47.0-1.0,anomymised,6564584152624795c40b73cb,6564bdb1cda9c2da75aa7b41,95728,1A,woman,NA,NA,Somebody says<br><em>Dave is copying Jane</em>,copy_active,rating_volition,"{""Q0"":0}",[0],The speaker identifies more with <br>Dave than Jane,The speaker identifies more with<br>Jane than Dave,left_to_right
null,Somebody says<br><em>Dave is seducing Ruth</em>,NA,NA,NA,html-keyboard-response,89,621919,0.0-48.0-0.0,anomymised,6564584152624795c40b73cb,6564bdb1cda9c2da75aa7b41,95728,1A,woman,NA,null,NAME1 is seducing NAME2,seduce_active,sentence,NA,NA,NA,NA,NA
2775.900000002235,NA,NA,NA,NA,survey-likert-extra-labels,90,624696,0.0-48.0-1.0,anomymised,6564584152624795c40b73cb,6564bdb1cda9c2da75aa7b41,95728,1A,woman,NA,NA,Somebody says<br><em>Dave is seducing Ruth</em>,seduce_active,rating_volition,"{""Q0"":6}",[0],The speaker identifies more with <br>Ruth than Dave,The speaker identifies more with<br>Dave than Ruth,right_to_left
null,Somebody says<br><em>Ruth is opposing Kate</em>,NA,NA,NA,html-keyboard-response,91,626712,0.0-49.0-0.0,anomymised,6564584152624795c40b73cb,6564bdb1cda9c2da75aa7b41,95728,1A,woman,NA,null,NAME1 is opposing NAME2,oppose_active,sentence,NA,NA,NA,NA,NA
30654.800000000745,NA,NA,NA,NA,survey-likert-extra-labels,92,657368,0.0-49.0-1.0,anomymised,6564584152624795c40b73cb,6564bdb1cda9c2da75aa7b41,95728,1A,woman,NA,NA,Somebody says<br><em>Ruth is opposing Kate</em>,oppose_active,rating_volition,"{""Q0"":0}",[0],The speaker identifies more with <br>Ruth than Kate,The speaker identifies more with<br>Kate than Ruth,left_to_right
null,Somebody says<br><em>Fred and Mike are dancing with each other</em>,NA,NA,NA,html-keyboard-response,93,659372,0.0-50.0-0.0,anomymised,6564584152624795c40b73cb,6564bdb1cda9c2da75aa7b41,95728,1A,woman,NA,null,NAME1 and NAME2 are dancing with each other,dance_conjoined,sentence,NA,NA,NA,NA,NA
13970.099999997765,NA,NA,NA,NA,survey-likert-extra-labels,94,673345,0.0-50.0-1.0,anomymised,6564584152624795c40b73cb,6564bdb1cda9c2da75aa7b41,95728,1A,woman,NA,NA,Somebody says<br><em>Fred and Mike are dancing with each other</em>,dance_conjoined,rating_volition,"{""Q0"":3}",[0],The speaker identifies more with <br>Fred than Mike,The speaker identifies more with<br>Mike than Fred,left_to_right
null,Somebody says<br><em>Luke is fighting with Fred</em>,NA,NA,NA,html-keyboard-response,95,675361,0.0-51.0-0.0,anomymised,6564584152624795c40b73cb,6564bdb1cda9c2da75aa7b41,95728,1A,woman,NA,null,NAME1 is fighting with NAME2,fight_active,sentence,NA,NA,NA,NA,NA
23942,NA,NA,NA,NA,survey-likert-extra-labels,96,699305,0.0-51.0-1.0,anomymised,6564584152624795c40b73cb,6564bdb1cda9c2da75aa7b41,95728,1A,woman,NA,NA,Somebody says<br><em>Luke is fighting with Fred</em>,fight_active,rating_volition,"{""Q0"":0}",[0],The speaker identifies more with <br>Luke than Fred,The speaker identifies more with<br>Fred than Luke,left_to_right
null,Somebody says<br><em>Mike and Beth are hugging each other</em>,NA,NA,NA,html-keyboard-response,97,701307,0.0-52.0-0.0,anomymised,6564584152624795c40b73cb,6564bdb1cda9c2da75aa7b41,95728,1A,woman,NA,null,NAME1 and NAME2 are hugging each other,hug_conjoined,sentence,NA,NA,NA,NA,NA
1429.5,NA,NA,NA,NA,survey-likert-extra-labels,98,702737,0.0-52.0-1.0,anomymised,6564584152624795c40b73cb,6564bdb1cda9c2da75aa7b41,95728,1A,woman,NA,NA,Somebody says<br><em>Mike and Beth are hugging each other</em>,hug_conjoined,rating_volition,"{""Q0"":3}",[0],The speaker identifies more with <br>Beth than Mike,The speaker identifies more with<br>Mike than Beth,right_to_left
null,Somebody says<br><em>Mike and Ruth are shouting at each other</em>,NA,NA,NA,html-keyboard-response,99,704744,0.0-53.0-0.0,anomymised,6564584152624795c40b73cb,6564bdb1cda9c2da75aa7b41,95728,1A,woman,NA,null,NAME1 and NAME2 are shouting at each other,shout_conjoined,sentence,NA,NA,NA,NA,NA
1407,NA,NA,NA,NA,survey-likert-extra-labels,100,706152,0.0-53.0-1.0,anomymised,6564584152624795c40b73cb,6564bdb1cda9c2da75aa7b41,95728,1A,woman,NA,NA,Somebody says<br><em>Mike and Ruth are shouting at each other</em>,shout_conjoined,rating_volition,"{""Q0"":3}",[0],The speaker identifies more with <br>Mike than Ruth,The speaker identifies more with<br>Ruth than Mike,left_to_right
null,Somebody says<br><em>Mike and Beth are flirting with each other</em>,NA,NA,NA,html-keyboard-response,101,708169,0.0-54.0-0.0,anomymised,6564584152624795c40b73cb,6564bdb1cda9c2da75aa7b41,95728,1A,woman,NA,null,NAME1 and NAME2 are flirting with each other,flirt_conjoined,sentence,NA,NA,NA,NA,NA
1511.199999999255,NA,NA,NA,NA,survey-likert-extra-labels,102,709681,0.0-54.0-1.0,anomymised,6564584152624795c40b73cb,6564bdb1cda9c2da75aa7b41,95728,1A,woman,NA,NA,Somebody says<br><em>Mike and Beth are flirting with each other</em>,flirt_conjoined,rating_volition,"{""Q0"":3}",[0],The speaker identifies more with <br>Beth than Mike,The speaker identifies more with<br>Mike than Beth,right_to_left
null,Somebody says<br><em>Jane is teaching Dave,NA,NA,NA,html-keyboard-response,103,711689,0.0-55.0-0.0,anomymised,6564584152624795c40b73cb,6564bdb1cda9c2da75aa7b41,95728,1A,woman,NA,null,W2 is teaching M4,teach,sentence,NA,NA,NA,NA,NA
1822.2999999970198,NA,NA,NA,NA,survey-likert-extra-labels,104,713513,0.0-55.0-1.0,anomymised,6564584152624795c40b73cb,6564bdb1cda9c2da75aa7b41,95728,1A,woman,NA,NA,Somebody says<br><em>Jane is teaching Dave,teach,rating_volition,"{""Q0"":0}",[0],Jane is educating Dave,Dave is educating Jane,NA
9894.099999997765,<p>Thank you for completing that task.</p><p>The final part of this session is a short questionnaire.</p><p>Press Continue.</p>,0,Continue,Continue,html-button-response,105,723409,0.0-56.0,anomymised,6564584152624795c40b73cb,6564bdb1cda9c2da75aa7b41,95728,1A,woman,NA,NA,NA,NA,NA,NA,NA,NA,NA,NA
25017.89999999851,NA,NA,NA,NA,survey-text,106,749434,0.0-57.0,anomymised,6564584152624795c40b73cb,6564bdb1cda9c2da75aa7b41,95728,1A,woman,NA,NA,NA,NA,demographics,"{""Q0"":""45"",""Q1"":""English"",""Q2"":""English"",""Q3"":""United Kingdom"",""Q4"":""British"",""Q5"":""White"",""Q6"":""Female""}",NA,NA,NA,NA
8333,<p>This is the last question - thank you for taking part! Have you lived in the UK for the last 5 years or more?</p>,0,"Yes,No",Yes,html-button-response,107,757769,0.0-58.0,anomymised,6564584152624795c40b73cb,6564bdb1cda9c2da75aa7b41,95728,1A,woman,NA,NA,NA,NA,fiveyears,NA,NA,NA,NA,NA
