rt,stimulus,button_pressed,choices,ChosenStimulus,trial_type,trial_index,time_elapsed,internal_node_id,subject_id,study_id,session_id,subject,list,ppt_gender,url,key_press,sentence_type,verb,test_part,responses,question_order,left_part,right_part,name_order
30341.099999999977,Welcome to the experiment. Press Continue to begin.,0,Continue,Continue,html-button-response,0,30344,0.0-0.0,anomymised,6560c4db814364f7465ce092,6564514a28c4121b6401ecab,95930,1A,woman,NA,NA,NA,NA,NA,NA,NA,NA,NA,NA
66836.40000000002,NA,NA,NA,NA,external-html,1,98312,0.0-1.0,anomymised,6560c4db814364f7465ce092,6564514a28c4121b6401ecab,95930,1A,woman,consent.html,NA,NA,NA,NA,NA,NA,NA,NA,NA
33516.19999999995,"<p>Welcome.</p><p>In this experiment we will ask you to imagine people's motivations for saying sentences.</p><p>Each trial will begin with a sentence that somebody might say to describe an event involving two different people.</p><p>For instance, someone might say <em>Harry is being recruited by Molly</em></p><p>We want you to think about which of those two people (Molly and Harry) the speaker identifies more with. For instance, why did the speaker say <em>Harry is being recruited by Molly</em> rather than <em> Molly is recruiting Harry</em>? Might that mean that the speaker is socially closer to one of the two characters?</p><p>After you have read the sentence, you will rate on a scale which of the two characters the speaker identifies more with.</p><p>You will give your answer by clicking a button on a rating scale.</p><p>Sometimes there will also be catch questions designed to make sure that you are paying attention, which ask about a different topic.</p><p>To do this task, you will have to use your imagination to think about and visualise the events, and how the speaker might relate to the characters.</p><br><p>Ready?</p>",0,Continue,Continue,html-button-response,2,131830,0.0-2.0,anomymised,6560c4db814364f7465ce092,6564514a28c4121b6401ecab,95930,1A,woman,NA,NA,NA,NA,NA,NA,NA,NA,NA,NA
3547.0999999999767,"<p>Before the experiment starts, we will show you an example of how you will answer the questions. Press 'Continue'.</p>",0,Continue,Continue,html-button-response,3,136379,0.0-3.0,anomymised,6560c4db814364f7465ce092,6564514a28c4121b6401ecab,95930,1A,woman,NA,NA,NA,NA,NA,NA,NA,NA,NA,NA
null,Somebody says <br><em>Samuel is dining with Frank</em>,NA,NA,NA,html-keyboard-response,4,139382,0.0-4.0,anomymised,6560c4db814364f7465ce092,6564514a28c4121b6401ecab,95930,1A,woman,NA,null,NA,NA,NA,NA,NA,NA,NA,NA
24532.099999999977,<img src='img/Example-trial.jpg' style='height:550px;''></img>,0,Continue,Continue,html-button-response,5,163915,0.0-5.0,anomymised,6560c4db814364f7465ce092,6564514a28c4121b6401ecab,95930,1A,woman,NA,NA,NA,NA,NA,NA,NA,NA,NA,NA
5617.200000000012,<p>Ready to start the experiment?</p><br><p><strong>Remember to give an answer by clicking a button on the rating scale.</strong></p><p>Press 'Continue' to begin.</p>,0,Continue,Continue,html-button-response,6,170534,0.0-6.0,anomymised,6560c4db814364f7465ce092,6564514a28c4121b6401ecab,95930,1A,woman,NA,NA,NA,NA,NA,NA,NA,NA,NA,NA
null,Somebody says<br><em>Beth and Mike are meeting each other</em>,NA,NA,NA,html-keyboard-response,7,173536,0.0-7.0-0.0,anomymised,6560c4db814364f7465ce092,6564514a28c4121b6401ecab,95930,1A,woman,NA,null,NAME1 and NAME2 are meeting each other,meet_conjoined,sentence,NA,NA,NA,NA,NA
16156.5,NA,NA,NA,NA,survey-likert-extra-labels,8,189696,0.0-7.0-1.0,anomymised,6560c4db814364f7465ce092,6564514a28c4121b6401ecab,95930,1A,woman,NA,NA,Somebody says<br><em>Beth and Mike are meeting each other</em>,meet_conjoined,rating_volition,"{""Q0"":3}",[0],The speaker identifies more with <br>Mike than Beth,The speaker identifies more with<br>Beth than Mike,right_to_left
null,Somebody says<br><em>Fred is hiring Ruth,NA,NA,NA,html-keyboard-response,9,191699,0.0-8.0-0.0,anomymised,6560c4db814364f7465ce092,6564514a28c4121b6401ecab,95930,1A,woman,NA,null,M3 is hiring W1,hire,sentence,NA,NA,NA,NA,NA
16281.699999999953,NA,NA,NA,NA,survey-likert-extra-labels,10,207985,0.0-8.0-1.0,anomymised,6560c4db814364f7465ce092,6564514a28c4121b6401ecab,95930,1A,woman,NA,NA,Somebody says<br><em>Fred is hiring Ruth,hire,rating_volition,"{""Q0"":0}",[0],Fred is employing Ruth,Ruth is employing Fred,NA
null,Somebody says<br><em>Mike and Fred are marrying each other</em>,NA,NA,NA,html-keyboard-response,11,209987,0.0-9.0-0.0,anomymised,6560c4db814364f7465ce092,6564514a28c4121b6401ecab,95930,1A,woman,NA,null,NAME1 and NAME2 are marrying each other,marry_conjoined,sentence,NA,NA,NA,NA,NA
10444.899999999907,NA,NA,NA,NA,survey-likert-extra-labels,12,220434,0.0-9.0-1.0,anomymised,6560c4db814364f7465ce092,6564514a28c4121b6401ecab,95930,1A,woman,NA,NA,Somebody says<br><em>Mike and Fred are marrying each other</em>,marry_conjoined,rating_volition,"{""Q0"":3}",[0],The speaker identifies more with <br>Mike than Fred,The speaker identifies more with<br>Fred than Mike,left_to_right
null,Somebody says<br><em>Beth and Jane are dancing with each other</em>,NA,NA,NA,html-keyboard-response,13,222436,0.0-10.0-0.0,anomymised,6560c4db814364f7465ce092,6564514a28c4121b6401ecab,95930,1A,woman,NA,null,NAME1 and NAME2 are dancing with each other,dance_conjoined,sentence,NA,NA,NA,NA,NA
10683.099999999977,NA,NA,NA,NA,survey-likert-extra-labels,14,233121,0.0-10.0-1.0,anomymised,6560c4db814364f7465ce092,6564514a28c4121b6401ecab,95930,1A,woman,NA,NA,Somebody says<br><em>Beth and Jane are dancing with each other</em>,dance_conjoined,rating_volition,"{""Q0"":3}",[0],The speaker identifies more with <br>Jane than Beth,The speaker identifies more with<br>Beth than Jane,right_to_left
null,Somebody says<br><em>Dave is being seduced by Beth</em>,NA,NA,NA,html-keyboard-response,15,235123,0.0-11.0-0.0,anomymised,6560c4db814364f7465ce092,6564514a28c4121b6401ecab,95930,1A,woman,NA,null,NAME1 is being seduced by NAME2,seduce_passive,sentence,NA,NA,NA,NA,NA
18351.29999999993,NA,NA,NA,NA,survey-likert-extra-labels,16,253476,0.0-11.0-1.0,anomymised,6560c4db814364f7465ce092,6564514a28c4121b6401ecab,95930,1A,woman,NA,NA,Somebody says<br><em>Dave is being seduced by Beth</em>,seduce_passive,rating_volition,"{""Q0"":0}",[0],The speaker identifies more with <br>Dave than Beth,The speaker identifies more with<br>Beth than Dave,left_to_right
null,Somebody says<br><em>Ruth is chasing Kate,NA,NA,NA,html-keyboard-response,17,255478,0.0-12.0-0.0,anomymised,6560c4db814364f7465ce092,6564514a28c4121b6401ecab,95930,1A,woman,NA,null,W1 is chasing W3,chase,sentence,NA,NA,NA,NA,NA
8820.900000000023,NA,NA,NA,NA,survey-likert-extra-labels,18,264300,0.0-12.0-1.0,anomymised,6560c4db814364f7465ce092,6564514a28c4121b6401ecab,95930,1A,woman,NA,NA,Somebody says<br><em>Ruth is chasing Kate,chase,rating_volition,"{""Q0"":6}",[0],Ruth is behind Kate,Kate is behind Ruth,NA
null,Somebody says<br><em>Ruth is touching Jane</em>,NA,NA,NA,html-keyboard-response,19,266303,0.0-13.0-0.0,anomymised,6560c4db814364f7465ce092,6564514a28c4121b6401ecab,95930,1A,woman,NA,null,NAME1 is touching NAME2,touch_active,sentence,NA,NA,NA,NA,NA
8577.800000000047,NA,NA,NA,NA,survey-likert-extra-labels,20,274882,0.0-13.0-1.0,anomymised,6560c4db814364f7465ce092,6564514a28c4121b6401ecab,95930,1A,woman,NA,NA,Somebody says<br><em>Ruth is touching Jane</em>,touch_active,rating_volition,"{""Q0"":3}",[0],The speaker identifies more with <br>Jane than Ruth,The speaker identifies more with<br>Ruth than Jane,right_to_left
null,Somebody says<br><em>Beth is seducing Jane</em>,NA,NA,NA,html-keyboard-response,21,276884,0.0-14.0-0.0,anomymised,6560c4db814364f7465ce092,6564514a28c4121b6401ecab,95930,1A,woman,NA,null,NAME1 is seducing NAME2,seduce_active,sentence,NA,NA,NA,NA,NA
10822.099999999977,NA,NA,NA,NA,survey-likert-extra-labels,22,287708,0.0-14.0-1.0,anomymised,6560c4db814364f7465ce092,6564514a28c4121b6401ecab,95930,1A,woman,NA,NA,Somebody says<br><em>Beth is seducing Jane</em>,seduce_active,rating_volition,"{""Q0"":6}",[0],The speaker identifies more with <br>Jane than Beth,The speaker identifies more with<br>Beth than Jane,right_to_left
null,Somebody says<br><em>Kate and Mike are fighting with each other</em>,NA,NA,NA,html-keyboard-response,23,289710,0.0-15.0-0.0,anomymised,6560c4db814364f7465ce092,6564514a28c4121b6401ecab,95930,1A,woman,NA,null,NAME1 and NAME2 are fighting with each other,fight_conjoined,sentence,NA,NA,NA,NA,NA
10518.20000000007,NA,NA,NA,NA,survey-likert-extra-labels,24,300230,0.0-15.0-1.0,anomymised,6560c4db814364f7465ce092,6564514a28c4121b6401ecab,95930,1A,woman,NA,NA,Somebody says<br><em>Kate and Mike are fighting with each other</em>,fight_conjoined,rating_volition,"{""Q0"":0}",[0],The speaker identifies more with <br>Kate than Mike,The speaker identifies more with<br>Mike than Kate,left_to_right
null,Somebody says<br><em>Luke is fighting with Dave</em>,NA,NA,NA,html-keyboard-response,25,302232,0.0-16.0-0.0,anomymised,6560c4db814364f7465ce092,6564514a28c4121b6401ecab,95930,1A,woman,NA,null,NAME1 is fighting with NAME2,fight_active,sentence,NA,NA,NA,NA,NA
15419.900000000023,NA,NA,NA,NA,survey-likert-extra-labels,26,317654,0.0-16.0-1.0,anomymised,6560c4db814364f7465ce092,6564514a28c4121b6401ecab,95930,1A,woman,NA,NA,Somebody says<br><em>Luke is fighting with Dave</em>,fight_active,rating_volition,"{""Q0"":0}",[0],The speaker identifies more with <br>Dave than Luke,The speaker identifies more with<br>Luke than Dave,right_to_left
null,Somebody says<br><em>Mike is being looked at by Fred</em>,NA,NA,NA,html-keyboard-response,27,319656,0.0-17.0-0.0,anomymised,6560c4db814364f7465ce092,6564514a28c4121b6401ecab,95930,1A,woman,NA,null,NAME1 is being looked at by NAME2,look_passive,sentence,NA,NA,NA,NA,NA
11144.400000000023,NA,NA,NA,NA,survey-likert-extra-labels,28,330802,0.0-17.0-1.0,anomymised,6560c4db814364f7465ce092,6564514a28c4121b6401ecab,95930,1A,woman,NA,NA,Somebody says<br><em>Mike is being looked at by Fred</em>,look_passive,rating_volition,"{""Q0"":3}",[0],The speaker identifies more with <br>Fred than Mike,The speaker identifies more with<br>Mike than Fred,right_to_left
null,Somebody says<br><em>Luke and Jane are kissing each other</em>,NA,NA,NA,html-keyboard-response,29,332804,0.0-18.0-0.0,anomymised,6560c4db814364f7465ce092,6564514a28c4121b6401ecab,95930,1A,woman,NA,null,NAME1 and NAME2 are kissing each other,kiss_conjoined,sentence,NA,NA,NA,NA,NA
4712.20000000007,NA,NA,NA,NA,survey-likert-extra-labels,30,337518,0.0-18.0-1.0,anomymised,6560c4db814364f7465ce092,6564514a28c4121b6401ecab,95930,1A,woman,NA,NA,Somebody says<br><em>Luke and Jane are kissing each other</em>,kiss_conjoined,rating_volition,"{""Q0"":3}",[0],The speaker identifies more with <br>Luke than Jane,The speaker identifies more with<br>Jane than Luke,left_to_right
null,Somebody says<br><em>Fred is shouting at Ruth</em>,NA,NA,NA,html-keyboard-response,31,339521,0.0-19.0-0.0,anomymised,6560c4db814364f7465ce092,6564514a28c4121b6401ecab,95930,1A,woman,NA,null,NAME1 is shouting at NAME2,shout_active,sentence,NA,NA,NA,NA,NA
12819.900000000023,NA,NA,NA,NA,survey-likert-extra-labels,32,352342,0.0-19.0-1.0,anomymised,6560c4db814364f7465ce092,6564514a28c4121b6401ecab,95930,1A,woman,NA,NA,Somebody says<br><em>Fred is shouting at Ruth</em>,shout_active,rating_volition,"{""Q0"":3}",[0],The speaker identifies more with <br>Fred than Ruth,The speaker identifies more with<br>Ruth than Fred,left_to_right
null,Somebody says<br><em>Mike is posing for Dave,NA,NA,NA,html-keyboard-response,33,354344,0.0-20.0-0.0,anomymised,6560c4db814364f7465ce092,6564514a28c4121b6401ecab,95930,1A,woman,NA,null,M2 is posing for M4,pose,sentence,NA,NA,NA,NA,NA
18918.400000000023,NA,NA,NA,NA,survey-likert-extra-labels,34,373265,0.0-20.0-1.0,anomymised,6560c4db814364f7465ce092,6564514a28c4121b6401ecab,95930,1A,woman,NA,NA,Somebody says<br><em>Mike is posing for Dave,pose,rating_volition,"{""Q0"":0}",[0],Mike is modelling for Dave,Dave is modelling for Mike,NA
null,Somebody says<br><em>Ruth is talking to Mike</em>,NA,NA,NA,html-keyboard-response,35,375268,0.0-21.0-0.0,anomymised,6560c4db814364f7465ce092,6564514a28c4121b6401ecab,95930,1A,woman,NA,null,NAME1 is talking to NAME2,talk_active,sentence,NA,NA,NA,NA,NA
7888.899999999907,NA,NA,NA,NA,survey-likert-extra-labels,36,383158,0.0-21.0-1.0,anomymised,6560c4db814364f7465ce092,6564514a28c4121b6401ecab,95930,1A,woman,NA,NA,Somebody says<br><em>Ruth is talking to Mike</em>,talk_active,rating_volition,"{""Q0"":6}",[0],The speaker identifies more with <br>Mike than Ruth,The speaker identifies more with<br>Ruth than Mike,right_to_left
null,Somebody says<br><em>Jane is teaching Dave,NA,NA,NA,html-keyboard-response,37,385160,0.0-22.0-0.0,anomymised,6560c4db814364f7465ce092,6564514a28c4121b6401ecab,95930,1A,woman,NA,null,W2 is teaching M4,teach,sentence,NA,NA,NA,NA,NA
7339.599999999977,NA,NA,NA,NA,survey-likert-extra-labels,38,392501,0.0-22.0-1.0,anomymised,6560c4db814364f7465ce092,6564514a28c4121b6401ecab,95930,1A,woman,NA,NA,Somebody says<br><em>Jane is teaching Dave,teach,rating_volition,"{""Q0"":0}",[0],Jane is educating Dave,Dave is educating Jane,NA
null,Somebody says<br><em>Mike is reminding Beth,NA,NA,NA,html-keyboard-response,39,394504,0.0-23.0-0.0,anomymised,6560c4db814364f7465ce092,6564514a28c4121b6401ecab,95930,1A,woman,NA,null,M2 is reminding W4,remind,sentence,NA,NA,NA,NA,NA
13566,NA,NA,NA,NA,survey-likert-extra-labels,40,408071,0.0-23.0-1.0,anomymised,6560c4db814364f7465ce092,6564514a28c4121b6401ecab,95930,1A,woman,NA,NA,Somebody says<br><em>Mike is reminding Beth,remind,rating_volition,"{""Q0"":0}",[0],Mike is telling Beth again,Beth is telling Mike again,NA
null,Somebody says<br><em>Beth is looking at Jane</em>,NA,NA,NA,html-keyboard-response,41,410074,0.0-24.0-0.0,anomymised,6560c4db814364f7465ce092,6564514a28c4121b6401ecab,95930,1A,woman,NA,null,NAME1 is looking at NAME2,look_active,sentence,NA,NA,NA,NA,NA
9712.699999999953,NA,NA,NA,NA,survey-likert-extra-labels,42,419788,0.0-24.0-1.0,anomymised,6560c4db814364f7465ce092,6564514a28c4121b6401ecab,95930,1A,woman,NA,NA,Somebody says<br><em>Beth is looking at Jane</em>,look_active,rating_volition,"{""Q0"":0}",[0],The speaker identifies more with <br>Beth than Jane,The speaker identifies more with<br>Jane than Beth,left_to_right
null,Somebody says<br><em>Luke is arguing with Mike</em>,NA,NA,NA,html-keyboard-response,43,421790,0.0-25.0-0.0,anomymised,6560c4db814364f7465ce092,6564514a28c4121b6401ecab,95930,1A,woman,NA,null,NAME1 is arguing with NAME2,argue_active,sentence,NA,NA,NA,NA,NA
9593.099999999977,NA,NA,NA,NA,survey-likert-extra-labels,44,431385,0.0-25.0-1.0,anomymised,6560c4db814364f7465ce092,6564514a28c4121b6401ecab,95930,1A,woman,NA,NA,Somebody says<br><em>Luke is arguing with Mike</em>,argue_active,rating_volition,"{""Q0"":0}",[0],The speaker identifies more with <br>Mike than Luke,The speaker identifies more with<br>Luke than Mike,right_to_left
null,Somebody says<br><em>Kate and Jane are hugging each other</em>,NA,NA,NA,html-keyboard-response,45,433387,0.0-26.0-0.0,anomymised,6560c4db814364f7465ce092,6564514a28c4121b6401ecab,95930,1A,woman,NA,null,NAME1 and NAME2 are hugging each other,hug_conjoined,sentence,NA,NA,NA,NA,NA
3010.0999999999767,NA,NA,NA,NA,survey-likert-extra-labels,46,436399,0.0-26.0-1.0,anomymised,6560c4db814364f7465ce092,6564514a28c4121b6401ecab,95930,1A,woman,NA,NA,Somebody says<br><em>Kate and Jane are hugging each other</em>,hug_conjoined,rating_volition,"{""Q0"":3}",[0],The speaker identifies more with <br>Kate than Jane,The speaker identifies more with<br>Jane than Kate,left_to_right
null,Somebody says<br><em>Luke is driving Fred,NA,NA,NA,html-keyboard-response,47,438401,0.0-27.0-0.0,anomymised,6560c4db814364f7465ce092,6564514a28c4121b6401ecab,95930,1A,woman,NA,null,M1 is driving M3,drive,sentence,NA,NA,NA,NA,NA
10998,NA,NA,NA,NA,survey-likert-extra-labels,48,449400,0.0-27.0-1.0,anomymised,6560c4db814364f7465ce092,6564514a28c4121b6401ecab,95930,1A,woman,NA,NA,Somebody says<br><em>Luke is driving Fred,drive,rating_volition,"{""Q0"":6}",[0],Luke is Fred's passenger,Fred is Luke's passenger,NA
null,Somebody says<br><em>Jane is carrying Beth,NA,NA,NA,html-keyboard-response,49,451402,0.0-28.0-0.0,anomymised,6560c4db814364f7465ce092,6564514a28c4121b6401ecab,95930,1A,woman,NA,null,W2 is carrying W4,carry,sentence,NA,NA,NA,NA,NA
7790.300000000047,NA,NA,NA,NA,survey-likert-extra-labels,50,459194,0.0-28.0-1.0,anomymised,6560c4db814364f7465ce092,6564514a28c4121b6401ecab,95930,1A,woman,NA,NA,Somebody says<br><em>Jane is carrying Beth,carry,rating_volition,"{""Q0"":0}",[0],Jane is transporting Beth,Beth is transporting Jane,NA
null,Somebody says<br><em>Luke is kissing Mike</em>,NA,NA,NA,html-keyboard-response,51,461196,0.0-29.0-0.0,anomymised,6560c4db814364f7465ce092,6564514a28c4121b6401ecab,95930,1A,woman,NA,null,NAME1 is kissing NAME2,kiss_active,sentence,NA,NA,NA,NA,NA
9223.300000000047,NA,NA,NA,NA,survey-likert-extra-labels,52,470421,0.0-29.0-1.0,anomymised,6560c4db814364f7465ce092,6564514a28c4121b6401ecab,95930,1A,woman,NA,NA,Somebody says<br><em>Luke is kissing Mike</em>,kiss_active,rating_volition,"{""Q0"":6}",[0],The speaker identifies more with <br>Mike than Luke,The speaker identifies more with<br>Luke than Mike,right_to_left
null,Somebody says<br><em>Mike is playing with Beth</em>,NA,NA,NA,html-keyboard-response,53,472423,0.0-30.0-0.0,anomymised,6560c4db814364f7465ce092,6564514a28c4121b6401ecab,95930,1A,woman,NA,null,NAME1 is playing with NAME2,play_active,sentence,NA,NA,NA,NA,NA
6282,NA,NA,NA,NA,survey-likert-extra-labels,54,478707,0.0-30.0-1.0,anomymised,6560c4db814364f7465ce092,6564514a28c4121b6401ecab,95930,1A,woman,NA,NA,Somebody says<br><em>Mike is playing with Beth</em>,play_active,rating_volition,"{""Q0"":0}",[0],The speaker identifies more with <br>Mike than Beth,The speaker identifies more with<br>Beth than Mike,left_to_right
null,Somebody says<br><em>Beth and Jane are shouting at each other</em>,NA,NA,NA,html-keyboard-response,55,480709,0.0-31.0-0.0,anomymised,6560c4db814364f7465ce092,6564514a28c4121b6401ecab,95930,1A,woman,NA,null,NAME1 and NAME2 are shouting at each other,shout_conjoined,sentence,NA,NA,NA,NA,NA
3280.8000000000466,NA,NA,NA,NA,survey-likert-extra-labels,56,483991,0.0-31.0-1.0,anomymised,6560c4db814364f7465ce092,6564514a28c4121b6401ecab,95930,1A,woman,NA,NA,Somebody says<br><em>Beth and Jane are shouting at each other</em>,shout_conjoined,rating_volition,"{""Q0"":3}",[0],The speaker identifies more with <br>Beth than Jane,The speaker identifies more with<br>Jane than Beth,left_to_right
null,Somebody says<br><em>Fred is marrying Jane</em>,NA,NA,NA,html-keyboard-response,57,485993,0.0-32.0-0.0,anomymised,6560c4db814364f7465ce092,6564514a28c4121b6401ecab,95930,1A,woman,NA,null,NAME1 is marrying NAME2,marry_active,sentence,NA,NA,NA,NA,NA
5047,NA,NA,NA,NA,survey-likert-extra-labels,58,491042,0.0-32.0-1.0,anomymised,6560c4db814364f7465ce092,6564514a28c4121b6401ecab,95930,1A,woman,NA,NA,Somebody says<br><em>Fred is marrying Jane</em>,marry_active,rating_volition,"{""Q0"":0}",[0],The speaker identifies more with <br>Fred than Jane,The speaker identifies more with<br>Jane than Fred,left_to_right
null,Somebody says<br><em>Kate is feeding Luke,NA,NA,NA,html-keyboard-response,59,493044,0.0-33.0-0.0,anomymised,6560c4db814364f7465ce092,6564514a28c4121b6401ecab,95930,1A,woman,NA,null,W3 is feeding M1,feed,sentence,NA,NA,NA,NA,NA
9340.099999999977,NA,NA,NA,NA,survey-likert-extra-labels,60,502386,0.0-33.0-1.0,anomymised,6560c4db814364f7465ce092,6564514a28c4121b6401ecab,95930,1A,woman,NA,NA,Somebody says<br><em>Kate is feeding Luke,feed,rating_volition,"{""Q0"":0}",[0],Kate cooked for Luke,Luke cooked for Kate,NA
null,Somebody says<br><em>Fred is copying Luke</em>,NA,NA,NA,html-keyboard-response,61,504388,0.0-34.0-0.0,anomymised,6560c4db814364f7465ce092,6564514a28c4121b6401ecab,95930,1A,woman,NA,null,NAME1 is copying NAME2,copy_active,sentence,NA,NA,NA,NA,NA
13044.79999999993,NA,NA,NA,NA,survey-likert-extra-labels,62,517434,0.0-34.0-1.0,anomymised,6560c4db814364f7465ce092,6564514a28c4121b6401ecab,95930,1A,woman,NA,NA,Somebody says<br><em>Fred is copying Luke</em>,copy_active,rating_volition,"{""Q0"":6}",[0],The speaker identifies more with <br>Luke than Fred,The speaker identifies more with<br>Fred than Luke,right_to_left
null,Somebody says<br><em>Mike and Luke are playing with each other</em>,NA,NA,NA,html-keyboard-response,63,519436,0.0-35.0-0.0,anomymised,6560c4db814364f7465ce092,6564514a28c4121b6401ecab,95930,1A,woman,NA,null,NAME1 and NAME2 are playing with each other,play_conjoined,sentence,NA,NA,NA,NA,NA
4762.699999999953,NA,NA,NA,NA,survey-likert-extra-labels,64,524201,0.0-35.0-1.0,anomymised,6560c4db814364f7465ce092,6564514a28c4121b6401ecab,95930,1A,woman,NA,NA,Somebody says<br><em>Mike and Luke are playing with each other</em>,play_conjoined,rating_volition,"{""Q0"":3}",[0],The speaker identifies more with <br>Mike than Luke,The speaker identifies more with<br>Luke than Mike,left_to_right
null,Somebody says<br><em>Beth and Ruth are arguing with each other</em>,NA,NA,NA,html-keyboard-response,65,526203,0.0-36.0-0.0,anomymised,6560c4db814364f7465ce092,6564514a28c4121b6401ecab,95930,1A,woman,NA,null,NAME1 and NAME2 are arguing with each other,argue_conjoined,sentence,NA,NA,NA,NA,NA
2565.5999999999767,NA,NA,NA,NA,survey-likert-extra-labels,66,528770,0.0-36.0-1.0,anomymised,6560c4db814364f7465ce092,6564514a28c4121b6401ecab,95930,1A,woman,NA,NA,Somebody says<br><em>Beth and Ruth are arguing with each other</em>,argue_conjoined,rating_volition,"{""Q0"":3}",[0],The speaker identifies more with <br>Ruth than Beth,The speaker identifies more with<br>Beth than Ruth,right_to_left
null,Somebody says<br><em>Dave is being shouted at by Fred</em>,NA,NA,NA,html-keyboard-response,67,530772,0.0-37.0-0.0,anomymised,6560c4db814364f7465ce092,6564514a28c4121b6401ecab,95930,1A,woman,NA,null,NAME1 is being shouted at by NAME2,shout_passive,sentence,NA,NA,NA,NA,NA
5480.599999999977,NA,NA,NA,NA,survey-likert-extra-labels,68,536254,0.0-37.0-1.0,anomymised,6560c4db814364f7465ce092,6564514a28c4121b6401ecab,95930,1A,woman,NA,NA,Somebody says<br><em>Dave is being shouted at by Fred</em>,shout_passive,rating_volition,"{""Q0"":6}",[0],The speaker identifies more with <br>Fred than Dave,The speaker identifies more with<br>Dave than Fred,right_to_left
null,Somebody says<br><em>Dave is shouting at Jane</em>,NA,NA,NA,html-keyboard-response,69,538256,0.0-38.0-0.0,anomymised,6560c4db814364f7465ce092,6564514a28c4121b6401ecab,95930,1A,woman,NA,null,NAME1 is shouting at NAME2,shout_active,sentence,NA,NA,NA,NA,NA
6821.300000000047,NA,NA,NA,NA,survey-likert-extra-labels,70,545079,0.0-38.0-1.0,anomymised,6560c4db814364f7465ce092,6564514a28c4121b6401ecab,95930,1A,woman,NA,NA,Somebody says<br><em>Dave is shouting at Jane</em>,shout_active,rating_volition,"{""Q0"":0}",[0],The speaker identifies more with <br>Dave than Jane,The speaker identifies more with<br>Jane than Dave,left_to_right
null,Somebody says<br><em>Luke is being touched by Jane</em>,NA,NA,NA,html-keyboard-response,71,547081,0.0-39.0-0.0,anomymised,6560c4db814364f7465ce092,6564514a28c4121b6401ecab,95930,1A,woman,NA,null,NAME1 is being touched by NAME2,touch_passive,sentence,NA,NA,NA,NA,NA
20126.600000000093,NA,NA,NA,NA,survey-likert-extra-labels,72,567210,0.0-39.0-1.0,anomymised,6560c4db814364f7465ce092,6564514a28c4121b6401ecab,95930,1A,woman,NA,NA,Somebody says<br><em>Luke is being touched by Jane</em>,touch_passive,rating_volition,"{""Q0"":6}",[0],The speaker identifies more with <br>Jane than Luke,The speaker identifies more with<br>Luke than Jane,right_to_left
null,Somebody says<br><em>Beth is opposing Fred</em>,NA,NA,NA,html-keyboard-response,73,569212,0.0-40.0-0.0,anomymised,6560c4db814364f7465ce092,6564514a28c4121b6401ecab,95930,1A,woman,NA,null,NAME1 is opposing NAME2,oppose_active,sentence,NA,NA,NA,NA,NA
8532.5,NA,NA,NA,NA,survey-likert-extra-labels,74,577746,0.0-40.0-1.0,anomymised,6560c4db814364f7465ce092,6564514a28c4121b6401ecab,95930,1A,woman,NA,NA,Somebody says<br><em>Beth is opposing Fred</em>,oppose_active,rating_volition,"{""Q0"":0}",[0],The speaker identifies more with <br>Beth than Fred,The speaker identifies more with<br>Fred than Beth,left_to_right
null,Somebody says<br><em>Mike and Dave are flirting with each other</em>,NA,NA,NA,html-keyboard-response,75,579748,0.0-41.0-0.0,anomymised,6560c4db814364f7465ce092,6564514a28c4121b6401ecab,95930,1A,woman,NA,null,NAME1 and NAME2 are flirting with each other,flirt_conjoined,sentence,NA,NA,NA,NA,NA
13089.5,NA,NA,NA,NA,survey-likert-extra-labels,76,592841,0.0-41.0-1.0,anomymised,6560c4db814364f7465ce092,6564514a28c4121b6401ecab,95930,1A,woman,NA,NA,Somebody says<br><em>Mike and Dave are flirting with each other</em>,flirt_conjoined,rating_volition,"{""Q0"":3}",[0],The speaker identifies more with <br>Mike than Dave,The speaker identifies more with<br>Dave than Mike,left_to_right
null,Somebody says<br><em>Ruth is being copied by Dave</em>,NA,NA,NA,html-keyboard-response,77,594843,0.0-42.0-0.0,anomymised,6560c4db814364f7465ce092,6564514a28c4121b6401ecab,95930,1A,woman,NA,null,NAME1 is being copied by NAME2,copy_passive,sentence,NA,NA,NA,NA,NA
8831.5,NA,NA,NA,NA,survey-likert-extra-labels,78,603676,0.0-42.0-1.0,anomymised,6560c4db814364f7465ce092,6564514a28c4121b6401ecab,95930,1A,woman,NA,NA,Somebody says<br><em>Ruth is being copied by Dave</em>,copy_passive,rating_volition,"{""Q0"":6}",[0],The speaker identifies more with <br>Ruth than Dave,The speaker identifies more with<br>Dave than Ruth,left_to_right
null,Somebody says<br><em>Mike is hugging Kate</em>,NA,NA,NA,html-keyboard-response,79,605679,0.0-43.0-0.0,anomymised,6560c4db814364f7465ce092,6564514a28c4121b6401ecab,95930,1A,woman,NA,null,NAME1 is hugging NAME2,hug_active,sentence,NA,NA,NA,NA,NA
5426.5,NA,NA,NA,NA,survey-likert-extra-labels,80,611107,0.0-43.0-1.0,anomymised,6560c4db814364f7465ce092,6564514a28c4121b6401ecab,95930,1A,woman,NA,NA,Somebody says<br><em>Mike is hugging Kate</em>,hug_active,rating_volition,"{""Q0"":6}",[0],The speaker identifies more with <br>Kate than Mike,The speaker identifies more with<br>Mike than Kate,right_to_left
null,Somebody says<br><em>Beth is being opposed by Kate</em>,NA,NA,NA,html-keyboard-response,81,613109,0.0-44.0-0.0,anomymised,6560c4db814364f7465ce092,6564514a28c4121b6401ecab,95930,1A,woman,NA,null,NAME1 is being opposed by NAME2,oppose_passive,sentence,NA,NA,NA,NA,NA
7222,NA,NA,NA,NA,survey-likert-extra-labels,82,620332,0.0-44.0-1.0,anomymised,6560c4db814364f7465ce092,6564514a28c4121b6401ecab,95930,1A,woman,NA,NA,Somebody says<br><em>Beth is being opposed by Kate</em>,oppose_passive,rating_volition,"{""Q0"":6}",[0],The speaker identifies more with <br>Beth than Kate,The speaker identifies more with<br>Kate than Beth,left_to_right
null,Somebody says<br><em>Fred is flirting with Jane</em>,NA,NA,NA,html-keyboard-response,83,622334,0.0-45.0-0.0,anomymised,6560c4db814364f7465ce092,6564514a28c4121b6401ecab,95930,1A,woman,NA,null,NAME1 is flirting with NAME2,flirt_active,sentence,NA,NA,NA,NA,NA
3005.6999999999534,NA,NA,NA,NA,survey-likert-extra-labels,84,625342,0.0-45.0-1.0,anomymised,6560c4db814364f7465ce092,6564514a28c4121b6401ecab,95930,1A,woman,NA,NA,Somebody says<br><em>Fred is flirting with Jane</em>,flirt_active,rating_volition,"{""Q0"":0}",[0],The speaker identifies more with <br>Fred than Jane,The speaker identifies more with<br>Jane than Fred,left_to_right
null,Somebody says<br><em>Luke is being greeted by Ruth</em>,NA,NA,NA,html-keyboard-response,85,627344,0.0-46.0-0.0,anomymised,6560c4db814364f7465ce092,6564514a28c4121b6401ecab,95930,1A,woman,NA,null,NAME1 is being greeted by NAME2,greet_passive,sentence,NA,NA,NA,NA,NA
4270.400000000023,NA,NA,NA,NA,survey-likert-extra-labels,86,631616,0.0-46.0-1.0,anomymised,6560c4db814364f7465ce092,6564514a28c4121b6401ecab,95930,1A,woman,NA,NA,Somebody says<br><em>Luke is being greeted by Ruth</em>,greet_passive,rating_volition,"{""Q0"":6}",[0],The speaker identifies more with <br>Ruth than Luke,The speaker identifies more with<br>Luke than Ruth,right_to_left
null,Somebody says<br><em>Dave is being hugged by Fred</em>,NA,NA,NA,html-keyboard-response,87,633618,0.0-47.0-0.0,anomymised,6560c4db814364f7465ce092,6564514a28c4121b6401ecab,95930,1A,woman,NA,null,NAME1 is being hugged by NAME2,hug_passive,sentence,NA,NA,NA,NA,NA
15621.100000000093,NA,NA,NA,NA,survey-likert-extra-labels,88,649241,0.0-47.0-1.0,anomymised,6560c4db814364f7465ce092,6564514a28c4121b6401ecab,95930,1A,woman,NA,NA,Somebody says<br><em>Dave is being hugged by Fred</em>,hug_passive,rating_volition,"{""Q0"":6}",[0],The speaker identifies more with <br>Fred than Dave,The speaker identifies more with<br>Dave than Fred,right_to_left
null,Somebody says<br><em>Mike is dancing with Jane</em>,NA,NA,NA,html-keyboard-response,89,651243,0.0-48.0-0.0,anomymised,6560c4db814364f7465ce092,6564514a28c4121b6401ecab,95930,1A,woman,NA,null,NAME1 is dancing with NAME2,dance_active,sentence,NA,NA,NA,NA,NA
5759.79999999993,NA,NA,NA,NA,survey-likert-extra-labels,90,657005,0.0-48.0-1.0,anomymised,6560c4db814364f7465ce092,6564514a28c4121b6401ecab,95930,1A,woman,NA,NA,Somebody says<br><em>Mike is dancing with Jane</em>,dance_active,rating_volition,"{""Q0"":0}",[0],The speaker identifies more with <br>Mike than Jane,The speaker identifies more with<br>Jane than Mike,left_to_right
null,Somebody says<br><em>Luke is challenging Kate</em>,NA,NA,NA,html-keyboard-response,91,659007,0.0-49.0-0.0,anomymised,6560c4db814364f7465ce092,6564514a28c4121b6401ecab,95930,1A,woman,NA,null,NAME1 is challenging NAME2,challenge_active,sentence,NA,NA,NA,NA,NA
4661.599999999977,NA,NA,NA,NA,survey-likert-extra-labels,92,663671,0.0-49.0-1.0,anomymised,6560c4db814364f7465ce092,6564514a28c4121b6401ecab,95930,1A,woman,NA,NA,Somebody says<br><em>Luke is challenging Kate</em>,challenge_active,rating_volition,"{""Q0"":6}",[0],The speaker identifies more with <br>Kate than Luke,The speaker identifies more with<br>Luke than Kate,right_to_left
null,Somebody says<br><em>Kate and Mike are touching each other</em>,NA,NA,NA,html-keyboard-response,93,665673,0.0-50.0-0.0,anomymised,6560c4db814364f7465ce092,6564514a28c4121b6401ecab,95930,1A,woman,NA,null,NAME1 and NAME2 are touching each other,touch_conjoined,sentence,NA,NA,NA,NA,NA
3416.8000000000466,NA,NA,NA,NA,survey-likert-extra-labels,94,669091,0.0-50.0-1.0,anomymised,6560c4db814364f7465ce092,6564514a28c4121b6401ecab,95930,1A,woman,NA,NA,Somebody says<br><em>Kate and Mike are touching each other</em>,touch_conjoined,rating_volition,"{""Q0"":3}",[0],The speaker identifies more with <br>Kate than Mike,The speaker identifies more with<br>Mike than Kate,left_to_right
null,Somebody says<br><em>Fred and Luke are talking with each other</em>,NA,NA,NA,html-keyboard-response,95,671093,0.0-51.0-0.0,anomymised,6560c4db814364f7465ce092,6564514a28c4121b6401ecab,95930,1A,woman,NA,null,NAME1 and NAME2 are talking with each other,talk_conjoined,sentence,NA,NA,NA,NA,NA
3104.5999999999767,NA,NA,NA,NA,survey-likert-extra-labels,96,674199,0.0-51.0-1.0,anomymised,6560c4db814364f7465ce092,6564514a28c4121b6401ecab,95930,1A,woman,NA,NA,Somebody says<br><em>Fred and Luke are talking with each other</em>,talk_conjoined,rating_volition,"{""Q0"":3}",[0],The speaker identifies more with <br>Fred than Luke,The speaker identifies more with<br>Luke than Fred,left_to_right
null,Somebody says<br><em>Kate is greeting Dave</em>,NA,NA,NA,html-keyboard-response,97,676201,0.0-52.0-0.0,anomymised,6560c4db814364f7465ce092,6564514a28c4121b6401ecab,95930,1A,woman,NA,null,NAME1 is greeting NAME2,greet_active,sentence,NA,NA,NA,NA,NA
4387.599999999977,NA,NA,NA,NA,survey-likert-extra-labels,98,680590,0.0-52.0-1.0,anomymised,6560c4db814364f7465ce092,6564514a28c4121b6401ecab,95930,1A,woman,NA,NA,Somebody says<br><em>Kate is greeting Dave</em>,greet_active,rating_volition,"{""Q0"":6}",[0],The speaker identifies more with <br>Dave than Kate,The speaker identifies more with<br>Kate than Dave,right_to_left
null,Somebody says<br><em>Fred is meeting Beth</em>,NA,NA,NA,html-keyboard-response,99,682592,0.0-53.0-0.0,anomymised,6560c4db814364f7465ce092,6564514a28c4121b6401ecab,95930,1A,woman,NA,null,NAME1 is meeting NAME2,meet_active,sentence,NA,NA,NA,NA,NA
7406.699999999953,NA,NA,NA,NA,survey-likert-extra-labels,100,690001,0.0-53.0-1.0,anomymised,6560c4db814364f7465ce092,6564514a28c4121b6401ecab,95930,1A,woman,NA,NA,Somebody says<br><em>Fred is meeting Beth</em>,meet_active,rating_volition,"{""Q0"":6}",[0],The speaker identifies more with <br>Beth than Fred,The speaker identifies more with<br>Fred than Beth,right_to_left
null,Somebody says<br><em>Beth is being kissed by Mike</em>,NA,NA,NA,html-keyboard-response,101,692003,0.0-54.0-0.0,anomymised,6560c4db814364f7465ce092,6564514a28c4121b6401ecab,95930,1A,woman,NA,null,NAME1 is being kissed by NAME2,kiss_passive,sentence,NA,NA,NA,NA,NA
5161,NA,NA,NA,NA,survey-likert-extra-labels,102,697166,0.0-54.0-1.0,anomymised,6560c4db814364f7465ce092,6564514a28c4121b6401ecab,95930,1A,woman,NA,NA,Somebody says<br><em>Beth is being kissed by Mike</em>,kiss_passive,rating_volition,"{""Q0"":6}",[0],The speaker identifies more with <br>Mike than Beth,The speaker identifies more with<br>Beth than Mike,right_to_left
null,Somebody says<br><em>Kate is being challenged by Beth</em>,NA,NA,NA,html-keyboard-response,103,699168,0.0-55.0-0.0,anomymised,6560c4db814364f7465ce092,6564514a28c4121b6401ecab,95930,1A,woman,NA,null,NAME1 is being challenged by NAME2,challenge_passive,sentence,NA,NA,NA,NA,NA
6023.300000000047,NA,NA,NA,NA,survey-likert-extra-labels,104,705193,0.0-55.0-1.0,anomymised,6560c4db814364f7465ce092,6564514a28c4121b6401ecab,95930,1A,woman,NA,NA,Somebody says<br><em>Kate is being challenged by Beth</em>,challenge_passive,rating_volition,"{""Q0"":6}",[0],The speaker identifies more with <br>Beth than Kate,The speaker identifies more with<br>Kate than Beth,right_to_left
1909.8000000000466,<p>Thank you for completing that task.</p><p>The final part of this session is a short questionnaire.</p><p>Press Continue.</p>,0,Continue,Continue,html-button-response,105,707105,0.0-56.0,anomymised,6560c4db814364f7465ce092,6564514a28c4121b6401ecab,95930,1A,woman,NA,NA,NA,NA,NA,NA,NA,NA,NA,NA
37690,NA,NA,NA,NA,survey-text,106,745801,0.0-57.0,anomymised,6560c4db814364f7465ce092,6564514a28c4121b6401ecab,95930,1A,woman,NA,NA,NA,NA,demographics,"{""Q0"":""32"",""Q1"":""english"",""Q2"":""english"",""Q3"":""United Kingdom"",""Q4"":""british"",""Q5"":""mixed white black african "",""Q6"":""female""}",NA,NA,NA,NA
2674.100000000093,<p>This is the last question - thank you for taking part! Have you lived in the UK for the last 5 years or more?</p>,0,"Yes,No",Yes,html-button-response,107,748477,0.0-58.0,anomymised,6560c4db814364f7465ce092,6564514a28c4121b6401ecab,95930,1A,woman,NA,NA,NA,NA,fiveyears,NA,NA,NA,NA,NA
