rt,stimulus,button_pressed,choices,ChosenStimulus,trial_type,trial_index,time_elapsed,internal_node_id,subject_id,study_id,session_id,subject,list,ppt_gender,url,key_press,sentence_type,verb,test_part,responses,question_order,left_part,right_part,name_order
3625,Welcome to the experiment. Press Continue to begin.,0,Continue,Continue,html-button-response,0,3633,0.0-0.0,anomymised,6560c4cfd080ba12b16d8282,6564c81d0649f48b836827b8,97636,1A,man,NA,NA,NA,NA,NA,NA,NA,NA,NA,NA
25057.200000047684,NA,NA,NA,NA,external-html,1,29747,0.0-1.0,anomymised,6560c4cfd080ba12b16d8282,6564c81d0649f48b836827b8,97636,1A,man,consent.html,NA,NA,NA,NA,NA,NA,NA,NA,NA
43865.800000071526,"<p>Welcome.</p><p>In this experiment we will ask you to imagine people's motivations for saying sentences.</p><p>Each trial will begin with a sentence that somebody might say to describe an event involving two different people.</p><p>For instance, someone might say <em>Harry is being recruited by Molly</em></p><p>We want you to think about which of those two people (Molly and Harry) the speaker identifies more with. For instance, why did the speaker say <em>Harry is being recruited by Molly</em> rather than <em> Molly is recruiting Harry</em>? Might that mean that the speaker is socially closer to one of the two characters?</p><p>After you have read the sentence, you will rate on a scale which of the two characters the speaker identifies more with.</p><p>You will give your answer by clicking a button on a rating scale.</p><p>Sometimes there will also be catch questions designed to make sure that you are paying attention, which ask about a different topic.</p><p>To do this task, you will have to use your imagination to think about and visualise the events, and how the speaker might relate to the characters.</p><br><p>Ready?</p>",0,Continue,Continue,html-button-response,2,73621,0.0-2.0,anomymised,6560c4cfd080ba12b16d8282,6564c81d0649f48b836827b8,97636,1A,man,NA,NA,NA,NA,NA,NA,NA,NA,NA,NA
3940.100000023842,"<p>Before the experiment starts, we will show you an example of how you will answer the questions. Press 'Continue'.</p>",0,Continue,Continue,html-button-response,3,78565,0.0-3.0,anomymised,6560c4cfd080ba12b16d8282,6564c81d0649f48b836827b8,97636,1A,man,NA,NA,NA,NA,NA,NA,NA,NA,NA,NA
null,Somebody says <br><em>Samuel is dining with Frank</em>,NA,NA,NA,html-keyboard-response,4,81569,0.0-4.0,anomymised,6560c4cfd080ba12b16d8282,6564c81d0649f48b836827b8,97636,1A,man,NA,null,NA,NA,NA,NA,NA,NA,NA,NA
25026.800000071526,<img src='img/Example-trial.jpg' style='height:550px;''></img>,0,Continue,Continue,html-button-response,5,106598,0.0-5.0,anomymised,6560c4cfd080ba12b16d8282,6564c81d0649f48b836827b8,97636,1A,man,NA,NA,NA,NA,NA,NA,NA,NA,NA,NA
4740.200000047684,<p>Ready to start the experiment?</p><br><p><strong>Remember to give an answer by clicking a button on the rating scale.</strong></p><p>Press 'Continue' to begin.</p>,0,Continue,Continue,html-button-response,6,112343,0.0-6.0,anomymised,6560c4cfd080ba12b16d8282,6564c81d0649f48b836827b8,97636,1A,man,NA,NA,NA,NA,NA,NA,NA,NA,NA,NA
null,Somebody says<br><em>Luke and Fred are touching each other</em>,NA,NA,NA,html-keyboard-response,7,115350,0.0-7.0-0.0,anomymised,6560c4cfd080ba12b16d8282,6564c81d0649f48b836827b8,97636,1A,man,NA,null,NAME1 and NAME2 are touching each other,touch_conjoined,sentence,NA,NA,NA,NA,NA
10622.399999976158,NA,NA,NA,NA,survey-likert-extra-labels,8,126003,0.0-7.0-1.0,anomymised,6560c4cfd080ba12b16d8282,6564c81d0649f48b836827b8,97636,1A,man,NA,NA,Somebody says<br><em>Luke and Fred are touching each other</em>,touch_conjoined,rating_volition,"{""Q0"":3}",[0],The speaker identifies more with <br>Fred than Luke,The speaker identifies more with<br>Luke than Fred,right_to_left
null,Somebody says<br><em>Kate is feeding Luke,NA,NA,NA,html-keyboard-response,9,128008,0.0-8.0-0.0,anomymised,6560c4cfd080ba12b16d8282,6564c81d0649f48b836827b8,97636,1A,man,NA,null,W3 is feeding M1,feed,sentence,NA,NA,NA,NA,NA
23030.299999952316,NA,NA,NA,NA,survey-likert-extra-labels,10,151066,0.0-8.0-1.0,anomymised,6560c4cfd080ba12b16d8282,6564c81d0649f48b836827b8,97636,1A,man,NA,NA,Somebody says<br><em>Kate is feeding Luke,feed,rating_volition,"{""Q0"":1}",[0],Kate cooked for Luke,Luke cooked for Kate,NA
null,Somebody says<br><em>Mike is talking to Ruth</em>,NA,NA,NA,html-keyboard-response,11,153075,0.0-9.0-0.0,anomymised,6560c4cfd080ba12b16d8282,6564c81d0649f48b836827b8,97636,1A,man,NA,null,NAME1 is talking to NAME2,talk_active,sentence,NA,NA,NA,NA,NA
6700.100000023842,NA,NA,NA,NA,survey-likert-extra-labels,12,159779,0.0-9.0-1.0,anomymised,6560c4cfd080ba12b16d8282,6564c81d0649f48b836827b8,97636,1A,man,NA,NA,Somebody says<br><em>Mike is talking to Ruth</em>,talk_active,rating_volition,"{""Q0"":2}",[0],The speaker identifies more with <br>Mike than Ruth,The speaker identifies more with<br>Ruth than Mike,left_to_right
null,Somebody says<br><em>Jane and Mike are kissing each other</em>,NA,NA,NA,html-keyboard-response,13,161786,0.0-10.0-0.0,anomymised,6560c4cfd080ba12b16d8282,6564c81d0649f48b836827b8,97636,1A,man,NA,null,NAME1 and NAME2 are kissing each other,kiss_conjoined,sentence,NA,NA,NA,NA,NA
36876.60000002384,NA,NA,NA,NA,survey-likert-extra-labels,14,198667,0.0-10.0-1.0,anomymised,6560c4cfd080ba12b16d8282,6564c81d0649f48b836827b8,97636,1A,man,NA,NA,Somebody says<br><em>Jane and Mike are kissing each other</em>,kiss_conjoined,rating_volition,"{""Q0"":2}",[0],The speaker identifies more with <br>Jane than Mike,The speaker identifies more with<br>Mike than Jane,left_to_right
null,Somebody says<br><em>Luke is driving Fred,NA,NA,NA,html-keyboard-response,15,200672,0.0-11.0-0.0,anomymised,6560c4cfd080ba12b16d8282,6564c81d0649f48b836827b8,97636,1A,man,NA,null,M1 is driving M3,drive,sentence,NA,NA,NA,NA,NA
12917.299999952316,NA,NA,NA,NA,survey-likert-extra-labels,16,213595,0.0-11.0-1.0,anomymised,6560c4cfd080ba12b16d8282,6564c81d0649f48b836827b8,97636,1A,man,NA,NA,Somebody says<br><em>Luke is driving Fred,drive,rating_volition,"{""Q0"":6}",[0],Luke is Fred's passenger,Fred is Luke's passenger,NA
null,Somebody says<br><em>Fred is touching Dave</em>,NA,NA,NA,html-keyboard-response,17,215602,0.0-12.0-0.0,anomymised,6560c4cfd080ba12b16d8282,6564c81d0649f48b836827b8,97636,1A,man,NA,null,NAME1 is touching NAME2,touch_active,sentence,NA,NA,NA,NA,NA
8660.199999928474,NA,NA,NA,NA,survey-likert-extra-labels,18,224266,0.0-12.0-1.0,anomymised,6560c4cfd080ba12b16d8282,6564c81d0649f48b836827b8,97636,1A,man,NA,NA,Somebody says<br><em>Fred is touching Dave</em>,touch_active,rating_volition,"{""Q0"":3}",[0],The speaker identifies more with <br>Dave than Fred,The speaker identifies more with<br>Fred than Dave,right_to_left
null,Somebody says<br><em>Mike is fighting with Ruth</em>,NA,NA,NA,html-keyboard-response,19,226274,0.0-13.0-0.0,anomymised,6560c4cfd080ba12b16d8282,6564c81d0649f48b836827b8,97636,1A,man,NA,null,NAME1 is fighting with NAME2,fight_active,sentence,NA,NA,NA,NA,NA
8475.399999976158,NA,NA,NA,NA,survey-likert-extra-labels,20,234754,0.0-13.0-1.0,anomymised,6560c4cfd080ba12b16d8282,6564c81d0649f48b836827b8,97636,1A,man,NA,NA,Somebody says<br><em>Mike is fighting with Ruth</em>,fight_active,rating_volition,"{""Q0"":3}",[0],The speaker identifies more with <br>Mike than Ruth,The speaker identifies more with<br>Ruth than Mike,left_to_right
null,Somebody says<br><em>Dave is being opposed by Jane</em>,NA,NA,NA,html-keyboard-response,21,236761,0.0-14.0-0.0,anomymised,6560c4cfd080ba12b16d8282,6564c81d0649f48b836827b8,97636,1A,man,NA,null,NAME1 is being opposed by NAME2,oppose_passive,sentence,NA,NA,NA,NA,NA
2752.8000000715256,NA,NA,NA,NA,survey-likert-extra-labels,22,239519,0.0-14.0-1.0,anomymised,6560c4cfd080ba12b16d8282,6564c81d0649f48b836827b8,97636,1A,man,NA,NA,Somebody says<br><em>Dave is being opposed by Jane</em>,oppose_passive,rating_volition,"{""Q0"":3}",[0],The speaker identifies more with <br>Jane than Dave,The speaker identifies more with<br>Dave than Jane,right_to_left
null,Somebody says<br><em>Kate is copying Fred</em>,NA,NA,NA,html-keyboard-response,23,241525,0.0-15.0-0.0,anomymised,6560c4cfd080ba12b16d8282,6564c81d0649f48b836827b8,97636,1A,man,NA,null,NAME1 is copying NAME2,copy_active,sentence,NA,NA,NA,NA,NA
6960.100000023842,NA,NA,NA,NA,survey-likert-extra-labels,24,248489,0.0-15.0-1.0,anomymised,6560c4cfd080ba12b16d8282,6564c81d0649f48b836827b8,97636,1A,man,NA,NA,Somebody says<br><em>Kate is copying Fred</em>,copy_active,rating_volition,"{""Q0"":4}",[0],The speaker identifies more with <br>Kate than Fred,The speaker identifies more with<br>Fred than Kate,left_to_right
null,Somebody says<br><em>Kate is greeting Beth</em>,NA,NA,NA,html-keyboard-response,25,250496,0.0-16.0-0.0,anomymised,6560c4cfd080ba12b16d8282,6564c81d0649f48b836827b8,97636,1A,man,NA,null,NAME1 is greeting NAME2,greet_active,sentence,NA,NA,NA,NA,NA
5336.200000047684,NA,NA,NA,NA,survey-likert-extra-labels,26,255837,0.0-16.0-1.0,anomymised,6560c4cfd080ba12b16d8282,6564c81d0649f48b836827b8,97636,1A,man,NA,NA,Somebody says<br><em>Kate is greeting Beth</em>,greet_active,rating_volition,"{""Q0"":3}",[0],The speaker identifies more with <br>Kate than Beth,The speaker identifies more with<br>Beth than Kate,left_to_right
null,Somebody says<br><em>Jane is being hugged by Ruth</em>,NA,NA,NA,html-keyboard-response,27,257844,0.0-17.0-0.0,anomymised,6560c4cfd080ba12b16d8282,6564c81d0649f48b836827b8,97636,1A,man,NA,null,NAME1 is being hugged by NAME2,hug_passive,sentence,NA,NA,NA,NA,NA
5414.199999928474,NA,NA,NA,NA,survey-likert-extra-labels,28,263263,0.0-17.0-1.0,anomymised,6560c4cfd080ba12b16d8282,6564c81d0649f48b836827b8,97636,1A,man,NA,NA,Somebody says<br><em>Jane is being hugged by Ruth</em>,hug_passive,rating_volition,"{""Q0"":3}",[0],The speaker identifies more with <br>Ruth than Jane,The speaker identifies more with<br>Jane than Ruth,right_to_left
null,Somebody says<br><em>Ruth is shouting at Kate</em>,NA,NA,NA,html-keyboard-response,29,265268,0.0-18.0-0.0,anomymised,6560c4cfd080ba12b16d8282,6564c81d0649f48b836827b8,97636,1A,man,NA,null,NAME1 is shouting at NAME2,shout_active,sentence,NA,NA,NA,NA,NA
6123.399999976158,NA,NA,NA,NA,survey-likert-extra-labels,30,271396,0.0-18.0-1.0,anomymised,6560c4cfd080ba12b16d8282,6564c81d0649f48b836827b8,97636,1A,man,NA,NA,Somebody says<br><em>Ruth is shouting at Kate</em>,shout_active,rating_volition,"{""Q0"":1}",[0],The speaker identifies more with <br>Ruth than Kate,The speaker identifies more with<br>Kate than Ruth,left_to_right
null,Somebody says<br><em>Jane is teaching Dave,NA,NA,NA,html-keyboard-response,31,273408,0.0-19.0-0.0,anomymised,6560c4cfd080ba12b16d8282,6564c81d0649f48b836827b8,97636,1A,man,NA,null,W2 is teaching M4,teach,sentence,NA,NA,NA,NA,NA
9663.799999952316,NA,NA,NA,NA,survey-likert-extra-labels,32,283077,0.0-19.0-1.0,anomymised,6560c4cfd080ba12b16d8282,6564c81d0649f48b836827b8,97636,1A,man,NA,NA,Somebody says<br><em>Jane is teaching Dave,teach,rating_volition,"{""Q0"":1}",[0],Jane is educating Dave,Dave is educating Jane,NA
null,Somebody says<br><em>Kate is hugging Jane</em>,NA,NA,NA,html-keyboard-response,33,285083,0.0-20.0-0.0,anomymised,6560c4cfd080ba12b16d8282,6564c81d0649f48b836827b8,97636,1A,man,NA,null,NAME1 is hugging NAME2,hug_active,sentence,NA,NA,NA,NA,NA
6134,NA,NA,NA,NA,survey-likert-extra-labels,34,291221,0.0-20.0-1.0,anomymised,6560c4cfd080ba12b16d8282,6564c81d0649f48b836827b8,97636,1A,man,NA,NA,Somebody says<br><em>Kate is hugging Jane</em>,hug_active,rating_volition,"{""Q0"":5}",[0],The speaker identifies more with <br>Jane than Kate,The speaker identifies more with<br>Kate than Jane,right_to_left
null,Somebody says<br><em>Jane and Ruth are shouting at each other</em>,NA,NA,NA,html-keyboard-response,35,293227,0.0-21.0-0.0,anomymised,6560c4cfd080ba12b16d8282,6564c81d0649f48b836827b8,97636,1A,man,NA,null,NAME1 and NAME2 are shouting at each other,shout_conjoined,sentence,NA,NA,NA,NA,NA
3614.7999999523163,NA,NA,NA,NA,survey-likert-extra-labels,36,296845,0.0-21.0-1.0,anomymised,6560c4cfd080ba12b16d8282,6564c81d0649f48b836827b8,97636,1A,man,NA,NA,Somebody says<br><em>Jane and Ruth are shouting at each other</em>,shout_conjoined,rating_volition,"{""Q0"":3}",[0],The speaker identifies more with <br>Jane than Ruth,The speaker identifies more with<br>Ruth than Jane,left_to_right
null,Somebody says<br><em>Fred is hiring Ruth,NA,NA,NA,html-keyboard-response,37,298850,0.0-22.0-0.0,anomymised,6560c4cfd080ba12b16d8282,6564c81d0649f48b836827b8,97636,1A,man,NA,null,M3 is hiring W1,hire,sentence,NA,NA,NA,NA,NA
12586.799999952316,NA,NA,NA,NA,survey-likert-extra-labels,38,311442,0.0-22.0-1.0,anomymised,6560c4cfd080ba12b16d8282,6564c81d0649f48b836827b8,97636,1A,man,NA,NA,Somebody says<br><em>Fred is hiring Ruth,hire,rating_volition,"{""Q0"":0}",[0],Fred is employing Ruth,Ruth is employing Fred,NA
null,Somebody says<br><em>Dave is seducing Luke</em>,NA,NA,NA,html-keyboard-response,39,313446,0.0-23.0-0.0,anomymised,6560c4cfd080ba12b16d8282,6564c81d0649f48b836827b8,97636,1A,man,NA,null,NAME1 is seducing NAME2,seduce_active,sentence,NA,NA,NA,NA,NA
8017.799999952316,NA,NA,NA,NA,survey-likert-extra-labels,40,321467,0.0-23.0-1.0,anomymised,6560c4cfd080ba12b16d8282,6564c81d0649f48b836827b8,97636,1A,man,NA,NA,Somebody says<br><em>Dave is seducing Luke</em>,seduce_active,rating_volition,"{""Q0"":3}",[0],The speaker identifies more with <br>Dave than Luke,The speaker identifies more with<br>Luke than Dave,left_to_right
null,Somebody says<br><em>Kate is arguing with Mike</em>,NA,NA,NA,html-keyboard-response,41,323474,0.0-24.0-0.0,anomymised,6560c4cfd080ba12b16d8282,6564c81d0649f48b836827b8,97636,1A,man,NA,null,NAME1 is arguing with NAME2,argue_active,sentence,NA,NA,NA,NA,NA
4511.799999952316,NA,NA,NA,NA,survey-likert-extra-labels,42,327991,0.0-24.0-1.0,anomymised,6560c4cfd080ba12b16d8282,6564c81d0649f48b836827b8,97636,1A,man,NA,NA,Somebody says<br><em>Kate is arguing with Mike</em>,argue_active,rating_volition,"{""Q0"":3}",[0],The speaker identifies more with <br>Mike than Kate,The speaker identifies more with<br>Kate than Mike,right_to_left
null,Somebody says<br><em>Mike is reminding Beth,NA,NA,NA,html-keyboard-response,43,329999,0.0-25.0-0.0,anomymised,6560c4cfd080ba12b16d8282,6564c81d0649f48b836827b8,97636,1A,man,NA,null,M2 is reminding W4,remind,sentence,NA,NA,NA,NA,NA
21300.100000023842,NA,NA,NA,NA,survey-likert-extra-labels,44,351304,0.0-25.0-1.0,anomymised,6560c4cfd080ba12b16d8282,6564c81d0649f48b836827b8,97636,1A,man,NA,NA,Somebody says<br><em>Mike is reminding Beth,remind,rating_volition,"{""Q0"":1}",[0],Mike is telling Beth again,Beth is telling Mike again,NA
null,Somebody says<br><em>Dave is dancing with Fred</em>,NA,NA,NA,html-keyboard-response,45,353312,0.0-26.0-0.0,anomymised,6560c4cfd080ba12b16d8282,6564c81d0649f48b836827b8,97636,1A,man,NA,null,NAME1 is dancing with NAME2,dance_active,sentence,NA,NA,NA,NA,NA
8622.400000095367,NA,NA,NA,NA,survey-likert-extra-labels,46,361939,0.0-26.0-1.0,anomymised,6560c4cfd080ba12b16d8282,6564c81d0649f48b836827b8,97636,1A,man,NA,NA,Somebody says<br><em>Dave is dancing with Fred</em>,dance_active,rating_volition,"{""Q0"":3}",[0],The speaker identifies more with <br>Dave than Fred,The speaker identifies more with<br>Fred than Dave,left_to_right
null,Somebody says<br><em>Luke is being challenged by Mike</em>,NA,NA,NA,html-keyboard-response,47,363946,0.0-27.0-0.0,anomymised,6560c4cfd080ba12b16d8282,6564c81d0649f48b836827b8,97636,1A,man,NA,null,NAME1 is being challenged by NAME2,challenge_passive,sentence,NA,NA,NA,NA,NA
8316.5,NA,NA,NA,NA,survey-likert-extra-labels,48,372267,0.0-27.0-1.0,anomymised,6560c4cfd080ba12b16d8282,6564c81d0649f48b836827b8,97636,1A,man,NA,NA,Somebody says<br><em>Luke is being challenged by Mike</em>,challenge_passive,rating_volition,"{""Q0"":5}",[0],The speaker identifies more with <br>Mike than Luke,The speaker identifies more with<br>Luke than Mike,right_to_left
null,Somebody says<br><em>Luke is being shouted at by Dave</em>,NA,NA,NA,html-keyboard-response,49,374271,0.0-28.0-0.0,anomymised,6560c4cfd080ba12b16d8282,6564c81d0649f48b836827b8,97636,1A,man,NA,null,NAME1 is being shouted at by NAME2,shout_passive,sentence,NA,NA,NA,NA,NA
27396.5,NA,NA,NA,NA,survey-likert-extra-labels,50,401670,0.0-28.0-1.0,anomymised,6560c4cfd080ba12b16d8282,6564c81d0649f48b836827b8,97636,1A,man,NA,NA,Somebody says<br><em>Luke is being shouted at by Dave</em>,shout_passive,rating_volition,"{""Q0"":3}",[0],The speaker identifies more with <br>Dave than Luke,The speaker identifies more with<br>Luke than Dave,right_to_left
null,Somebody says<br><em>Beth is marrying Ruth</em>,NA,NA,NA,html-keyboard-response,51,403675,0.0-29.0-0.0,anomymised,6560c4cfd080ba12b16d8282,6564c81d0649f48b836827b8,97636,1A,man,NA,null,NAME1 is marrying NAME2,marry_active,sentence,NA,NA,NA,NA,NA
5252.800000071526,NA,NA,NA,NA,survey-likert-extra-labels,52,408934,0.0-29.0-1.0,anomymised,6560c4cfd080ba12b16d8282,6564c81d0649f48b836827b8,97636,1A,man,NA,NA,Somebody says<br><em>Beth is marrying Ruth</em>,marry_active,rating_volition,"{""Q0"":5}",[0],The speaker identifies more with <br>Ruth than Beth,The speaker identifies more with<br>Beth than Ruth,right_to_left
null,Somebody says<br><em>Fred is opposing Luke</em>,NA,NA,NA,html-keyboard-response,53,410939,0.0-30.0-0.0,anomymised,6560c4cfd080ba12b16d8282,6564c81d0649f48b836827b8,97636,1A,man,NA,null,NAME1 is opposing NAME2,oppose_active,sentence,NA,NA,NA,NA,NA
7262.799999952316,NA,NA,NA,NA,survey-likert-extra-labels,54,418206,0.0-30.0-1.0,anomymised,6560c4cfd080ba12b16d8282,6564c81d0649f48b836827b8,97636,1A,man,NA,NA,Somebody says<br><em>Fred is opposing Luke</em>,oppose_active,rating_volition,"{""Q0"":1}",[0],The speaker identifies more with <br>Fred than Luke,The speaker identifies more with<br>Luke than Fred,left_to_right
null,Somebody says<br><em>Mike is posing for Dave,NA,NA,NA,html-keyboard-response,55,420213,0.0-31.0-0.0,anomymised,6560c4cfd080ba12b16d8282,6564c81d0649f48b836827b8,97636,1A,man,NA,null,M2 is posing for M4,pose,sentence,NA,NA,NA,NA,NA
7833.800000071526,NA,NA,NA,NA,survey-likert-extra-labels,56,428053,0.0-31.0-1.0,anomymised,6560c4cfd080ba12b16d8282,6564c81d0649f48b836827b8,97636,1A,man,NA,NA,Somebody says<br><em>Mike is posing for Dave,pose,rating_volition,"{""Q0"":0}",[0],Mike is modelling for Dave,Dave is modelling for Mike,NA
null,Somebody says<br><em>Fred is being touched by Beth</em>,NA,NA,NA,html-keyboard-response,57,430057,0.0-32.0-0.0,anomymised,6560c4cfd080ba12b16d8282,6564c81d0649f48b836827b8,97636,1A,man,NA,null,NAME1 is being touched by NAME2,touch_passive,sentence,NA,NA,NA,NA,NA
6996.399999976158,NA,NA,NA,NA,survey-likert-extra-labels,58,437057,0.0-32.0-1.0,anomymised,6560c4cfd080ba12b16d8282,6564c81d0649f48b836827b8,97636,1A,man,NA,NA,Somebody says<br><em>Fred is being touched by Beth</em>,touch_passive,rating_volition,"{""Q0"":6}",[0],The speaker identifies more with <br>Beth than Fred,The speaker identifies more with<br>Fred than Beth,right_to_left
null,Somebody says<br><em>Jane is carrying Beth,NA,NA,NA,html-keyboard-response,59,439064,0.0-33.0-0.0,anomymised,6560c4cfd080ba12b16d8282,6564c81d0649f48b836827b8,97636,1A,man,NA,null,W2 is carrying W4,carry,sentence,NA,NA,NA,NA,NA
6427.699999928474,NA,NA,NA,NA,survey-likert-extra-labels,60,445512,0.0-33.0-1.0,anomymised,6560c4cfd080ba12b16d8282,6564c81d0649f48b836827b8,97636,1A,man,NA,NA,Somebody says<br><em>Jane is carrying Beth,carry,rating_volition,"{""Q0"":0}",[0],Jane is transporting Beth,Beth is transporting Jane,NA
null,Somebody says<br><em>Kate is shouting at Fred</em>,NA,NA,NA,html-keyboard-response,61,447520,0.0-34.0-0.0,anomymised,6560c4cfd080ba12b16d8282,6564c81d0649f48b836827b8,97636,1A,man,NA,null,NAME1 is shouting at NAME2,shout_active,sentence,NA,NA,NA,NA,NA
13546.199999928474,NA,NA,NA,NA,survey-likert-extra-labels,62,461071,0.0-34.0-1.0,anomymised,6560c4cfd080ba12b16d8282,6564c81d0649f48b836827b8,97636,1A,man,NA,NA,Somebody says<br><em>Kate is shouting at Fred</em>,shout_active,rating_volition,"{""Q0"":5}",[0],The speaker identifies more with <br>Kate than Fred,The speaker identifies more with<br>Fred than Kate,left_to_right
null,Somebody says<br><em>Jane is flirting with Beth</em>,NA,NA,NA,html-keyboard-response,63,463077,0.0-35.0-0.0,anomymised,6560c4cfd080ba12b16d8282,6564c81d0649f48b836827b8,97636,1A,man,NA,null,NAME1 is flirting with NAME2,flirt_active,sentence,NA,NA,NA,NA,NA
33657.200000047684,NA,NA,NA,NA,survey-likert-extra-labels,64,496739,0.0-35.0-1.0,anomymised,6560c4cfd080ba12b16d8282,6564c81d0649f48b836827b8,97636,1A,man,NA,NA,Somebody says<br><em>Jane is flirting with Beth</em>,flirt_active,rating_volition,"{""Q0"":1}",[0],The speaker identifies more with <br>Jane than Beth,The speaker identifies more with<br>Beth than Jane,left_to_right
null,Somebody says<br><em>Beth is being seduced by Fred</em>,NA,NA,NA,html-keyboard-response,65,498745,0.0-36.0-0.0,anomymised,6560c4cfd080ba12b16d8282,6564c81d0649f48b836827b8,97636,1A,man,NA,null,NAME1 is being seduced by NAME2,seduce_passive,sentence,NA,NA,NA,NA,NA
7542.099999904633,NA,NA,NA,NA,survey-likert-extra-labels,66,506291,0.0-36.0-1.0,anomymised,6560c4cfd080ba12b16d8282,6564c81d0649f48b836827b8,97636,1A,man,NA,NA,Somebody says<br><em>Beth is being seduced by Fred</em>,seduce_passive,rating_volition,"{""Q0"":5}",[0],The speaker identifies more with <br>Beth than Fred,The speaker identifies more with<br>Fred than Beth,left_to_right
null,Somebody says<br><em>Luke and Fred are hugging each other</em>,NA,NA,NA,html-keyboard-response,67,508299,0.0-37.0-0.0,anomymised,6560c4cfd080ba12b16d8282,6564c81d0649f48b836827b8,97636,1A,man,NA,null,NAME1 and NAME2 are hugging each other,hug_conjoined,sentence,NA,NA,NA,NA,NA
3648.399999976158,NA,NA,NA,NA,survey-likert-extra-labels,68,511951,0.0-37.0-1.0,anomymised,6560c4cfd080ba12b16d8282,6564c81d0649f48b836827b8,97636,1A,man,NA,NA,Somebody says<br><em>Luke and Fred are hugging each other</em>,hug_conjoined,rating_volition,"{""Q0"":3}",[0],The speaker identifies more with <br>Luke than Fred,The speaker identifies more with<br>Fred than Luke,left_to_right
null,Somebody says<br><em>Kate and Beth are talking with each other</em>,NA,NA,NA,html-keyboard-response,69,513956,0.0-38.0-0.0,anomymised,6560c4cfd080ba12b16d8282,6564c81d0649f48b836827b8,97636,1A,man,NA,null,NAME1 and NAME2 are talking with each other,talk_conjoined,sentence,NA,NA,NA,NA,NA
2949.7999999523163,NA,NA,NA,NA,survey-likert-extra-labels,70,516909,0.0-38.0-1.0,anomymised,6560c4cfd080ba12b16d8282,6564c81d0649f48b836827b8,97636,1A,man,NA,NA,Somebody says<br><em>Kate and Beth are talking with each other</em>,talk_conjoined,rating_volition,"{""Q0"":3}",[0],The speaker identifies more with <br>Beth than Kate,The speaker identifies more with<br>Kate than Beth,right_to_left
null,Somebody says<br><em>Beth is playing with Ruth</em>,NA,NA,NA,html-keyboard-response,71,518914,0.0-39.0-0.0,anomymised,6560c4cfd080ba12b16d8282,6564c81d0649f48b836827b8,97636,1A,man,NA,null,NAME1 is playing with NAME2,play_active,sentence,NA,NA,NA,NA,NA
4013.5999999046326,NA,NA,NA,NA,survey-likert-extra-labels,72,522930,0.0-39.0-1.0,anomymised,6560c4cfd080ba12b16d8282,6564c81d0649f48b836827b8,97636,1A,man,NA,NA,Somebody says<br><em>Beth is playing with Ruth</em>,play_active,rating_volition,"{""Q0"":3}",[0],The speaker identifies more with <br>Beth than Ruth,The speaker identifies more with<br>Ruth than Beth,left_to_right
null,Somebody says<br><em>Fred and Dave are playing with each other</em>,NA,NA,NA,html-keyboard-response,73,524936,0.0-40.0-0.0,anomymised,6560c4cfd080ba12b16d8282,6564c81d0649f48b836827b8,97636,1A,man,NA,null,NAME1 and NAME2 are playing with each other,play_conjoined,sentence,NA,NA,NA,NA,NA
4536,NA,NA,NA,NA,survey-likert-extra-labels,74,529478,0.0-40.0-1.0,anomymised,6560c4cfd080ba12b16d8282,6564c81d0649f48b836827b8,97636,1A,man,NA,NA,Somebody says<br><em>Fred and Dave are playing with each other</em>,play_conjoined,rating_volition,"{""Q0"":3}",[0],The speaker identifies more with <br>Fred than Dave,The speaker identifies more with<br>Dave than Fred,left_to_right
null,Somebody says<br><em>Jane is kissing Fred</em>,NA,NA,NA,html-keyboard-response,75,531484,0.0-41.0-0.0,anomymised,6560c4cfd080ba12b16d8282,6564c81d0649f48b836827b8,97636,1A,man,NA,null,NAME1 is kissing NAME2,kiss_active,sentence,NA,NA,NA,NA,NA
4382,NA,NA,NA,NA,survey-likert-extra-labels,76,535871,0.0-41.0-1.0,anomymised,6560c4cfd080ba12b16d8282,6564c81d0649f48b836827b8,97636,1A,man,NA,NA,Somebody says<br><em>Jane is kissing Fred</em>,kiss_active,rating_volition,"{""Q0"":1}",[0],The speaker identifies more with <br>Jane than Fred,The speaker identifies more with<br>Fred than Jane,left_to_right
null,Somebody says<br><em>Dave is meeting Beth</em>,NA,NA,NA,html-keyboard-response,77,537878,0.0-42.0-0.0,anomymised,6560c4cfd080ba12b16d8282,6564c81d0649f48b836827b8,97636,1A,man,NA,null,NAME1 is meeting NAME2,meet_active,sentence,NA,NA,NA,NA,NA
5245.100000023842,NA,NA,NA,NA,survey-likert-extra-labels,78,543128,0.0-42.0-1.0,anomymised,6560c4cfd080ba12b16d8282,6564c81d0649f48b836827b8,97636,1A,man,NA,NA,Somebody says<br><em>Dave is meeting Beth</em>,meet_active,rating_volition,"{""Q0"":5}",[0],The speaker identifies more with <br>Beth than Dave,The speaker identifies more with<br>Dave than Beth,right_to_left
null,Somebody says<br><em>Kate is challenging Dave</em>,NA,NA,NA,html-keyboard-response,79,545134,0.0-43.0-0.0,anomymised,6560c4cfd080ba12b16d8282,6564c81d0649f48b836827b8,97636,1A,man,NA,null,NAME1 is challenging NAME2,challenge_active,sentence,NA,NA,NA,NA,NA
5547.600000023842,NA,NA,NA,NA,survey-likert-extra-labels,80,550685,0.0-43.0-1.0,anomymised,6560c4cfd080ba12b16d8282,6564c81d0649f48b836827b8,97636,1A,man,NA,NA,Somebody says<br><em>Kate is challenging Dave</em>,challenge_active,rating_volition,"{""Q0"":5}",[0],The speaker identifies more with <br>Dave than Kate,The speaker identifies more with<br>Kate than Dave,right_to_left
null,Somebody says<br><em>Luke and Dave are arguing with each other</em>,NA,NA,NA,html-keyboard-response,81,552688,0.0-44.0-0.0,anomymised,6560c4cfd080ba12b16d8282,6564c81d0649f48b836827b8,97636,1A,man,NA,null,NAME1 and NAME2 are arguing with each other,argue_conjoined,sentence,NA,NA,NA,NA,NA
5378.100000023842,NA,NA,NA,NA,survey-likert-extra-labels,82,558071,0.0-44.0-1.0,anomymised,6560c4cfd080ba12b16d8282,6564c81d0649f48b836827b8,97636,1A,man,NA,NA,Somebody says<br><em>Luke and Dave are arguing with each other</em>,argue_conjoined,rating_volition,"{""Q0"":3}",[0],The speaker identifies more with <br>Luke than Dave,The speaker identifies more with<br>Dave than Luke,left_to_right
null,Somebody says<br><em>Mike and Kate are flirting with each other</em>,NA,NA,NA,html-keyboard-response,83,560077,0.0-45.0-0.0,anomymised,6560c4cfd080ba12b16d8282,6564c81d0649f48b836827b8,97636,1A,man,NA,null,NAME1 and NAME2 are flirting with each other,flirt_conjoined,sentence,NA,NA,NA,NA,NA
2985,NA,NA,NA,NA,survey-likert-extra-labels,84,563065,0.0-45.0-1.0,anomymised,6560c4cfd080ba12b16d8282,6564c81d0649f48b836827b8,97636,1A,man,NA,NA,Somebody says<br><em>Mike and Kate are flirting with each other</em>,flirt_conjoined,rating_volition,"{""Q0"":3}",[0],The speaker identifies more with <br>Kate than Mike,The speaker identifies more with<br>Mike than Kate,right_to_left
null,Somebody says<br><em>Mike is being looked at by Ruth</em>,NA,NA,NA,html-keyboard-response,85,565069,0.0-46.0-0.0,anomymised,6560c4cfd080ba12b16d8282,6564c81d0649f48b836827b8,97636,1A,man,NA,null,NAME1 is being looked at by NAME2,look_passive,sentence,NA,NA,NA,NA,NA
7662.399999976158,NA,NA,NA,NA,survey-likert-extra-labels,86,572735,0.0-46.0-1.0,anomymised,6560c4cfd080ba12b16d8282,6564c81d0649f48b836827b8,97636,1A,man,NA,NA,Somebody says<br><em>Mike is being looked at by Ruth</em>,look_passive,rating_volition,"{""Q0"":0}",[0],The speaker identifies more with <br>Mike than Ruth,The speaker identifies more with<br>Ruth than Mike,left_to_right
null,Somebody says<br><em>Luke and Beth are fighting with each other</em>,NA,NA,NA,html-keyboard-response,87,574742,0.0-47.0-0.0,anomymised,6560c4cfd080ba12b16d8282,6564c81d0649f48b836827b8,97636,1A,man,NA,null,NAME1 and NAME2 are fighting with each other,fight_conjoined,sentence,NA,NA,NA,NA,NA
35058.300000071526,NA,NA,NA,NA,survey-likert-extra-labels,88,609803,0.0-47.0-1.0,anomymised,6560c4cfd080ba12b16d8282,6564c81d0649f48b836827b8,97636,1A,man,NA,NA,Somebody says<br><em>Luke and Beth are fighting with each other</em>,fight_conjoined,rating_volition,"{""Q0"":3}",[0],The speaker identifies more with <br>Beth than Luke,The speaker identifies more with<br>Luke than Beth,right_to_left
null,Somebody says<br><em>Beth and Jane are marrying each other</em>,NA,NA,NA,html-keyboard-response,89,611811,0.0-48.0-0.0,anomymised,6560c4cfd080ba12b16d8282,6564c81d0649f48b836827b8,97636,1A,man,NA,null,NAME1 and NAME2 are marrying each other,marry_conjoined,sentence,NA,NA,NA,NA,NA
2719.8000000715256,NA,NA,NA,NA,survey-likert-extra-labels,90,614535,0.0-48.0-1.0,anomymised,6560c4cfd080ba12b16d8282,6564c81d0649f48b836827b8,97636,1A,man,NA,NA,Somebody says<br><em>Beth and Jane are marrying each other</em>,marry_conjoined,rating_volition,"{""Q0"":3}",[0],The speaker identifies more with <br>Beth than Jane,The speaker identifies more with<br>Jane than Beth,left_to_right
null,Somebody says<br><em>Luke and Mike are meeting each other</em>,NA,NA,NA,html-keyboard-response,91,616540,0.0-49.0-0.0,anomymised,6560c4cfd080ba12b16d8282,6564c81d0649f48b836827b8,97636,1A,man,NA,null,NAME1 and NAME2 are meeting each other,meet_conjoined,sentence,NA,NA,NA,NA,NA
2299.2000000476837,NA,NA,NA,NA,survey-likert-extra-labels,92,618843,0.0-49.0-1.0,anomymised,6560c4cfd080ba12b16d8282,6564c81d0649f48b836827b8,97636,1A,man,NA,NA,Somebody says<br><em>Luke and Mike are meeting each other</em>,meet_conjoined,rating_volition,"{""Q0"":3}",[0],The speaker identifies more with <br>Luke than Mike,The speaker identifies more with<br>Mike than Luke,left_to_right
null,Somebody says<br><em>Ruth is being copied by Luke</em>,NA,NA,NA,html-keyboard-response,93,620851,0.0-50.0-0.0,anomymised,6560c4cfd080ba12b16d8282,6564c81d0649f48b836827b8,97636,1A,man,NA,null,NAME1 is being copied by NAME2,copy_passive,sentence,NA,NA,NA,NA,NA
11667.600000023842,NA,NA,NA,NA,survey-likert-extra-labels,94,632522,0.0-50.0-1.0,anomymised,6560c4cfd080ba12b16d8282,6564c81d0649f48b836827b8,97636,1A,man,NA,NA,Somebody says<br><em>Ruth is being copied by Luke</em>,copy_passive,rating_volition,"{""Q0"":1}",[0],The speaker identifies more with <br>Luke than Ruth,The speaker identifies more with<br>Ruth than Luke,right_to_left
null,Somebody says<br><em>Mike is being kissed by Dave</em>,NA,NA,NA,html-keyboard-response,95,634526,0.0-51.0-0.0,anomymised,6560c4cfd080ba12b16d8282,6564c81d0649f48b836827b8,97636,1A,man,NA,null,NAME1 is being kissed by NAME2,kiss_passive,sentence,NA,NA,NA,NA,NA
16949.5,NA,NA,NA,NA,survey-likert-extra-labels,96,651480,0.0-51.0-1.0,anomymised,6560c4cfd080ba12b16d8282,6564c81d0649f48b836827b8,97636,1A,man,NA,NA,Somebody says<br><em>Mike is being kissed by Dave</em>,kiss_passive,rating_volition,"{""Q0"":1}",[0],The speaker identifies more with <br>Dave than Mike,The speaker identifies more with<br>Mike than Dave,right_to_left
null,Somebody says<br><em>Kate is being greeted by Jane</em>,NA,NA,NA,html-keyboard-response,97,653487,0.0-52.0-0.0,anomymised,6560c4cfd080ba12b16d8282,6564c81d0649f48b836827b8,97636,1A,man,NA,null,NAME1 is being greeted by NAME2,greet_passive,sentence,NA,NA,NA,NA,NA
7794.600000023842,NA,NA,NA,NA,survey-likert-extra-labels,98,661286,0.0-52.0-1.0,anomymised,6560c4cfd080ba12b16d8282,6564c81d0649f48b836827b8,97636,1A,man,NA,NA,Somebody says<br><em>Kate is being greeted by Jane</em>,greet_passive,rating_volition,"{""Q0"":1}",[0],The speaker identifies more with <br>Kate than Jane,The speaker identifies more with<br>Jane than Kate,left_to_right
null,Somebody says<br><em>Ruth and Mike are dancing with each other</em>,NA,NA,NA,html-keyboard-response,99,663293,0.0-53.0-0.0,anomymised,6560c4cfd080ba12b16d8282,6564c81d0649f48b836827b8,97636,1A,man,NA,null,NAME1 and NAME2 are dancing with each other,dance_conjoined,sentence,NA,NA,NA,NA,NA
10878.600000023842,NA,NA,NA,NA,survey-likert-extra-labels,100,674176,0.0-53.0-1.0,anomymised,6560c4cfd080ba12b16d8282,6564c81d0649f48b836827b8,97636,1A,man,NA,NA,Somebody says<br><em>Ruth and Mike are dancing with each other</em>,dance_conjoined,rating_volition,"{""Q0"":3}",[0],The speaker identifies more with <br>Mike than Ruth,The speaker identifies more with<br>Ruth than Mike,right_to_left
null,Somebody says<br><em>Luke is looking at Fred</em>,NA,NA,NA,html-keyboard-response,101,676179,0.0-54.0-0.0,anomymised,6560c4cfd080ba12b16d8282,6564c81d0649f48b836827b8,97636,1A,man,NA,null,NAME1 is looking at NAME2,look_active,sentence,NA,NA,NA,NA,NA
3363,NA,NA,NA,NA,survey-likert-extra-labels,102,679547,0.0-54.0-1.0,anomymised,6560c4cfd080ba12b16d8282,6564c81d0649f48b836827b8,97636,1A,man,NA,NA,Somebody says<br><em>Luke is looking at Fred</em>,look_active,rating_volition,"{""Q0"":1}",[0],The speaker identifies more with <br>Luke than Fred,The speaker identifies more with<br>Fred than Luke,left_to_right
null,Somebody says<br><em>Ruth is chasing Kate,NA,NA,NA,html-keyboard-response,103,681553,0.0-55.0-0.0,anomymised,6560c4cfd080ba12b16d8282,6564c81d0649f48b836827b8,97636,1A,man,NA,null,W1 is chasing W3,chase,sentence,NA,NA,NA,NA,NA
9830.399999976158,NA,NA,NA,NA,survey-likert-extra-labels,104,691388,0.0-55.0-1.0,anomymised,6560c4cfd080ba12b16d8282,6564c81d0649f48b836827b8,97636,1A,man,NA,NA,Somebody says<br><em>Ruth is chasing Kate,chase,rating_volition,"{""Q0"":1}",[0],Ruth is behind Kate,Kate is behind Ruth,NA
2497.3000000715256,<p>Thank you for completing that task.</p><p>The final part of this session is a short questionnaire.</p><p>Press Continue.</p>,0,Continue,Continue,html-button-response,105,693913,0.0-56.0,anomymised,6560c4cfd080ba12b16d8282,6564c81d0649f48b836827b8,97636,1A,man,NA,NA,NA,NA,NA,NA,NA,NA,NA,NA
62571.09999990463,NA,NA,NA,NA,survey-text,106,757539,0.0-57.0,anomymised,6560c4cfd080ba12b16d8282,6564c81d0649f48b836827b8,97636,1A,man,NA,NA,NA,NA,demographics,"{""Q0"":""66"",""Q1"":""english"",""Q2"":""English"",""Q3"":""UK"",""Q4"":""British"",""Q5"":""White"",""Q6"":""Male""}",NA,NA,NA,NA
4222.199999928474,<p>This is the last question - thank you for taking part! Have you lived in the UK for the last 5 years or more?</p>,0,"Yes,No",Yes,html-button-response,107,761768,0.0-58.0,anomymised,6560c4cfd080ba12b16d8282,6564c81d0649f48b836827b8,97636,1A,man,NA,NA,NA,NA,fiveyears,NA,NA,NA,NA,NA
