"rt","stimulus","button_pressed","trial_type","trial_index","time_elapsed","internal_node_id","subject","list","ppt_gender","ppt_language","url","first_guess","correct","key_press","responses","image","verb","phrase","condition","test_part"
"834696","Welcome to the experiment. Press Continue to begin.",0,"html-button-response",0,1364564,"0.0-0.0",11298,"ListB","woman","english",NA,NA,NA,NA,NA,NA,NA,NA,NA,NA
"33946.00000000012",NA,NA,"external-html",1,1400743,"0.0-1.0",11298,"ListB","woman","english","consent.html",NA,NA,NA,NA,NA,NA,NA,NA,NA
"32435.999999999884","<p>On the next page, you will see portraits of 8 people and their names.</p><p>Your first task is to take a few minutes to memorise the names of these people.</p><p>You will have to recall their names during the rest of the experiment, so it is</p><p>essential that you try to memorise these people and their names as best as you can.</p><p><strong>You will then be tested on your memory of these names and portraits.</strong></p><p>The experiment will start after you have completed this memory test.</p><p>Ready?</p>",0,"html-button-response",2,1433178,"0.0-2.0",11298,"ListB","woman","english",NA,NA,NA,NA,NA,NA,NA,NA,NA,NA
"64432.00000000012","<img src='img/portrait_matrix_listB.jpg' style='width:900px;height:500px;''></img><p>If you have memorised all the portraits and names and are ready to start, press Continue.</p><p><strong>Please note: Your memory of these faces will be tested 5 times during this experiment.</strong></p>",0,"html-button-response",3,1498612,"0.0-3.0-0.0",11298,"ListB","woman","english",NA,NA,NA,NA,NA,NA,NA,NA,NA,NA
"21265","<img src=""portrait/BW2.jpg""style=""height:400px;""></img>",2,"html-button-response",4,1520878,"0.0-3.0-1.0",11298,"ListB","woman","english",NA,"true",2,NA,NA,NA,NA,NA,NA,NA
"null","CORRECT",NA,"html-keyboard-response",5,1522385,"0.0-3.0-2.0-0.0",11298,"ListB","woman","english",NA,NA,NA,"null",NA,NA,NA,NA,NA,NA
"2309","<img src=""portrait/WW2.jpg""style=""height:400px;""></img>",3,"html-button-response",6,1524696,"0.0-3.0-4.0",11298,"ListB","woman","english",NA,"true",3,NA,NA,NA,NA,NA,NA,NA
"null","CORRECT",NA,"html-keyboard-response",7,1526198,"0.0-3.0-5.0-0.0",11298,"ListB","woman","english",NA,NA,NA,"null",NA,NA,NA,NA,NA,NA
"2845","<img src=""portrait/WM2.jpg""style=""height:400px;""></img>",6,"html-button-response",8,1529045,"0.0-3.0-7.0",11298,"ListB","woman","english",NA,"true",7,NA,NA,NA,NA,NA,NA,NA
"4831","<img src=""portrait/WM2.jpg""style=""height:400px;""></img>",7,"html-button-response",9,1534879,"0.0-3.0-9.0-0.0",11298,"ListB","woman","english",NA,"false",7,NA,NA,NA,NA,NA,NA,NA
"null","CORRECT",NA,"html-keyboard-response",10,1536381,"0.0-3.0-9.0-1.0-0.0",11298,"ListB","woman","english",NA,NA,NA,"null",NA,NA,NA,NA,NA,NA
"6345","<img src=""portrait/WW1.jpg""style=""height:400px;""></img>",1,"html-button-response",11,1542729,"0.0-3.0-10.0",11298,"ListB","woman","english",NA,"true",1,NA,NA,NA,NA,NA,NA,NA
"null","CORRECT",NA,"html-keyboard-response",12,1544232,"0.0-3.0-11.0-0.0",11298,"ListB","woman","english",NA,NA,NA,"null",NA,NA,NA,NA,NA,NA
"2328","<img src=""portrait/BM2.jpg""style=""height:400px;""></img>",5,"html-button-response",13,1546562,"0.0-3.0-13.0",11298,"ListB","woman","english",NA,"true",5,NA,NA,NA,NA,NA,NA,NA
"null","CORRECT",NA,"html-keyboard-response",14,1548064,"0.0-3.0-14.0-0.0",11298,"ListB","woman","english",NA,NA,NA,"null",NA,NA,NA,NA,NA,NA
"4078.9999999998836","<img src=""portrait/BW1.jpg""style=""height:400px;""></img>",0,"html-button-response",15,1552146,"0.0-3.0-16.0",11298,"ListB","woman","english",NA,"true",0,NA,NA,NA,NA,NA,NA,NA
"null","CORRECT",NA,"html-keyboard-response",16,1553649,"0.0-3.0-17.0-0.0",11298,"ListB","woman","english",NA,NA,NA,"null",NA,NA,NA,NA,NA,NA
"2712","<img src=""portrait/WM1.jpg""style=""height:400px;""></img>",6,"html-button-response",17,1556363,"0.0-3.0-19.0",11298,"ListB","woman","english",NA,"true",6,NA,NA,NA,NA,NA,NA,NA
"null","CORRECT",NA,"html-keyboard-response",18,1557865,"0.0-3.0-20.0-0.0",11298,"ListB","woman","english",NA,NA,NA,"null",NA,NA,NA,NA,NA,NA
"3844.999999999767","<img src=""portrait/BM1.jpg""style=""height:400px;""></img>",4,"html-button-response",19,1561713,"0.0-3.0-22.0",11298,"ListB","woman","english",NA,"true",4,NA,NA,NA,NA,NA,NA,NA
"null","CORRECT",NA,"html-keyboard-response",20,1563215,"0.0-3.0-23.0-0.0",11298,"ListB","woman","english",NA,NA,NA,"null",NA,NA,NA,NA,NA,NA
"2562","<p>You got 7 out of 8 right first time. Press Continue.</p>",0,"html-button-response",21,1565780,"0.0-3.0-25.0",11298,"ListB","woman","english",NA,NA,NA,NA,NA,NA,NA,NA,NA,NA
"4364.000000000233","As you did not score 100%, the memory game will repeat. Press Continue.",0,"html-button-response",22,1571146,"0.0-3.0-26.0-0.0",11298,"ListB","woman","english",NA,NA,NA,NA,NA,NA,NA,NA,NA,NA
"5561.000000000233","<img src='img/portrait_matrix_listB.jpg' style='width:900px;height:500px;''></img><p>If you have memorised all the portraits and names and are ready to start, press Continue.</p><p><strong>Please note: Your memory of these faces will be tested 5 times during this experiment.</strong></p>",0,"html-button-response",23,1577713,"0.0-3.1-0.1",11298,"ListB","woman","english",NA,NA,NA,NA,NA,NA,NA,NA,NA,NA
"4682","<img src=""portrait/BW2.jpg""style=""height:400px;""></img>",2,"html-button-response",24,1583397,"0.0-3.1-1.1",11298,"ListB","woman","english",NA,"true",2,NA,NA,NA,NA,NA,NA,NA
"null","CORRECT",NA,"html-keyboard-response",25,1584899,"0.0-3.1-2.1-0.1",11298,"ListB","woman","english",NA,NA,NA,"null",NA,NA,NA,NA,NA,NA
"1095","<img src=""portrait/WW2.jpg""style=""height:400px;""></img>",3,"html-button-response",26,1585996,"0.0-3.1-4.1",11298,"ListB","woman","english",NA,"true",3,NA,NA,NA,NA,NA,NA,NA
"null","CORRECT",NA,"html-keyboard-response",27,1587499,"0.0-3.1-5.1-0.1",11298,"ListB","woman","english",NA,NA,NA,"null",NA,NA,NA,NA,NA,NA
"1412","<img src=""portrait/WM2.jpg""style=""height:400px;""></img>",7,"html-button-response",28,1588913,"0.0-3.1-7.1",11298,"ListB","woman","english",NA,"true",7,NA,NA,NA,NA,NA,NA,NA
"null","CORRECT",NA,"html-keyboard-response",29,1590416,"0.0-3.1-8.1-0.1",11298,"ListB","woman","english",NA,NA,NA,"null",NA,NA,NA,NA,NA,NA
"3329","<img src=""portrait/WW1.jpg""style=""height:400px;""></img>",1,"html-button-response",30,1593747,"0.0-3.1-10.1",11298,"ListB","woman","english",NA,"true",1,NA,NA,NA,NA,NA,NA,NA
"null","CORRECT",NA,"html-keyboard-response",31,1595249,"0.0-3.1-11.1-0.1",11298,"ListB","woman","english",NA,NA,NA,"null",NA,NA,NA,NA,NA,NA
"3829","<img src=""portrait/BM2.jpg""style=""height:400px;""></img>",5,"html-button-response",32,1599080,"0.0-3.1-13.1",11298,"ListB","woman","english",NA,"true",5,NA,NA,NA,NA,NA,NA,NA
"null","CORRECT",NA,"html-keyboard-response",33,1600582,"0.0-3.1-14.1-0.1",11298,"ListB","woman","english",NA,NA,NA,"null",NA,NA,NA,NA,NA,NA
"7429","<img src=""portrait/BW1.jpg""style=""height:400px;""></img>",0,"html-button-response",34,1608013,"0.0-3.1-16.1",11298,"ListB","woman","english",NA,"true",0,NA,NA,NA,NA,NA,NA,NA
"null","CORRECT",NA,"html-keyboard-response",35,1609516,"0.0-3.1-17.1-0.1",11298,"ListB","woman","english",NA,NA,NA,"null",NA,NA,NA,NA,NA,NA
"3329","<img src=""portrait/WM1.jpg""style=""height:400px;""></img>",6,"html-button-response",36,1612847,"0.0-3.1-19.1",11298,"ListB","woman","english",NA,"true",6,NA,NA,NA,NA,NA,NA,NA
"null","CORRECT",NA,"html-keyboard-response",37,1614348,"0.0-3.1-20.1-0.1",11298,"ListB","woman","english",NA,NA,NA,"null",NA,NA,NA,NA,NA,NA
"7263","<img src=""portrait/BM1.jpg""style=""height:400px;""></img>",4,"html-button-response",38,1621613,"0.0-3.1-22.1",11298,"ListB","woman","english",NA,"true",4,NA,NA,NA,NA,NA,NA,NA
"null","CORRECT",NA,"html-keyboard-response",39,1623115,"0.0-3.1-23.1-0.1",11298,"ListB","woman","english",NA,NA,NA,"null",NA,NA,NA,NA,NA,NA
"1230.0000000002328","<p>You got 8 out of 8 right first time. Press Continue.</p>",0,"html-button-response",40,1624346,"0.0-3.1-25.1",11298,"ListB","woman","english",NA,NA,NA,NA,NA,NA,NA,NA,NA,NA
"59096","<p>In this experiment, you will view photographs of the people from the memory game.</p><p>By using the <strong>exact</strong> phrase given <i>after</i> the photograph appears and recalling the correct names of the people in the photographs, form a sentence describing an interaction. You do not need to capitalise names.</p><p>Type your answer in the space provided. Please complete every sentence before moving onto the next trial.</p><p>You will only have a few seconds to memorise each given photograph and phrase before you can respond, so try your best to focus.</p><p>An example is given below. Press 'Continue' when you are ready.</p><img src='img/speaking_example.jpg' style='width:800px;height:460px;''></img>",0,"html-button-response",41,1684449,"0.0-4.0",11298,"ListB","woman","english",NA,NA,NA,NA,NA,NA,NA,NA,NA,NA
"2463","<p>Before the experiment starts, you will watch two example trials. Press 'Continue'.</p>",0,"html-button-response",42,1687914,"0.0-5.0",11298,"ListB","woman","english",NA,NA,NA,NA,NA,NA,NA,NA,NA,NA
"null","<img src='img/meet.gif' style='height:400px;''></img>",NA,"html-keyboard-response",43,1690917,"0.0-6.0",11298,"ListB","woman","english",NA,NA,NA,"null",NA,NA,NA,NA,NA,NA
"null","<p>is meeting</p>",NA,"html-keyboard-response",44,1692919,"0.0-7.0",11298,"ListB","woman","english",NA,NA,NA,"null",NA,NA,NA,NA,NA,NA
"8794","<p><b>Answer:</b> jane is meeting ruth</p>",0,"html-button-response",45,1701714,"0.0-8.0",11298,"ListB","woman","english",NA,NA,NA,NA,NA,NA,NA,NA,NA,NA
"null","<img src='img/spy.gif' style='height:400px;''></img>",NA,"html-keyboard-response",46,1704716,"0.0-9.0",11298,"ListB","woman","english",NA,NA,NA,"null",NA,NA,NA,NA,NA,NA
"null","<p>is being spied on by</p>",NA,"html-keyboard-response",47,1706719,"0.0-10.0",11298,"ListB","woman","english",NA,NA,NA,"null",NA,NA,NA,NA,NA,NA
"7344.999999999767","<p><b>Answer:</b> fred is being spied on by mike</p>",0,"html-button-response",48,1714065,"0.0-11.0",11298,"ListB","woman","english",NA,NA,NA,NA,NA,NA,NA,NA,NA,NA
"9231.999999999767","<p>Ready to start the experiment?</p><br><p><strong>Remember to describe the picture using a full sentence,</strong></p><p><strong>that combines the names of the people with the <i>exact</i> phrase given.</strong></p><p><strong>To receive full payment you must do this correctly.</strong></p><p><strong> You do not need to capitalise names or use punctuation.</strong></p><br><p>Press 'Continue' to begin.</p>",0,"html-button-response",49,1724298,"0.0-12.0",11298,"ListB","woman","english",NA,NA,NA,NA,NA,NA,NA,NA,NA,NA
"null","<div style=""font-size:60px;"">+</div>",NA,"html-keyboard-response",50,1725800,"0.0-13.0-0.0",11298,"ListB","woman","english",NA,NA,NA,"null",NA,NA,NA,NA,NA,NA
"null","<img src='gifs/FemaleRace2b.gif' style='height:400px;''></img>",NA,"html-keyboard-response",51,1727804,"0.0-13.0-1.0",11298,"ListB","woman","english",NA,NA,NA,"null",NA,NA,NA,NA,NA,NA
"null","is approaching",NA,"html-keyboard-response",52,1730806,"0.0-13.0-2.0",11298,"ListB","woman","english",NA,NA,NA,"null",NA,NA,NA,NA,NA,NA
"9825",NA,NA,"survey-text",53,1740668,"0.0-13.0-3.0",11298,"ListB","woman","english",NA,NA,NA,NA,"{""Q0"":""Jane is approaching Kate.""}","<img src='gifs/FemaleRace2b.gif' style='height:400px;''></img>","approaching","is approaching","english",NA
"null","<div style=""font-size:60px;"">+</div>",NA,"html-keyboard-response",54,1741170,"0.0-13.0-0.1",11298,"ListB","woman","english",NA,NA,NA,"null",NA,NA,NA,NA,NA,NA
"null","<img src='gifs/ChineseGender3a.gif' style='height:400px;''></img>",NA,"html-keyboard-response",55,1743172,"0.0-13.0-1.1",11298,"ListB","woman","english",NA,NA,NA,"null",NA,NA,NA,NA,NA,NA
"null","is approaching",NA,"html-keyboard-response",56,1746177,"0.0-13.0-2.1",11298,"ListB","woman","english",NA,NA,NA,"null",NA,NA,NA,NA,NA,NA
"9532",NA,NA,"survey-text",57,1755718,"0.0-13.0-3.1",11298,"ListB","woman","english",NA,NA,NA,NA,"{""Q0"":""Luke is approaching Ruth.""}","<img src='gifs/ChineseGender3a.gif' style='height:400px;''></img>","approaching","is approaching","english",NA
"null","<div style=""font-size:60px;"">+</div>",NA,"html-keyboard-response",58,1756219,"0.0-13.0-0.2",11298,"ListB","woman","english",NA,NA,NA,"null",NA,NA,NA,NA,NA,NA
"null","<img src='gifs/MaleRace3a.gif' style='height:400px;''></img>",NA,"html-keyboard-response",59,1758221,"0.0-13.0-1.2",11298,"ListB","woman","english",NA,NA,NA,"null",NA,NA,NA,NA,NA,NA
"null","is praising",NA,"html-keyboard-response",60,1761223,"0.0-13.0-2.2",11298,"ListB","woman","english",NA,NA,NA,"null",NA,NA,NA,NA,NA,NA
"20472",NA,NA,"survey-text",61,1781701,"0.0-13.0-3.2",11298,"ListB","woman","english",NA,NA,NA,NA,"{""Q0"":""Dave is praising Mike.""}","<img src='gifs/MaleRace3a.gif' style='height:400px;''></img>","praising","is praising","english",NA
"null","<div style=""font-size:60px;"">+</div>",NA,"html-keyboard-response",62,1782202,"0.0-13.0-0.3",11298,"ListB","woman","english",NA,NA,NA,"null",NA,NA,NA,NA,NA,NA
"null","<img src='gifs/FemaleRace3b.gif' style='height:400px;''></img>",NA,"html-keyboard-response",63,1784204,"0.0-13.0-1.3",11298,"ListB","woman","english",NA,NA,NA,"null",NA,NA,NA,NA,NA,NA
"null","is looking at",NA,"html-keyboard-response",64,1787206,"0.0-13.0-2.3",11298,"ListB","woman","english",NA,NA,NA,"null",NA,NA,NA,NA,NA,NA
"8636",NA,NA,"survey-text",65,1795849,"0.0-13.0-3.3",11298,"ListB","woman","english",NA,NA,NA,NA,"{""Q0"":""Beth is looking at Ruth.""}","<img src='gifs/FemaleRace3b.gif' style='height:400px;''></img>","looking at","is looking at","english",NA
"null","<div style=""font-size:60px;"">+</div>",NA,"html-keyboard-response",66,1796350,"0.0-13.0-0.4",11298,"ListB","woman","english",NA,NA,NA,"null",NA,NA,NA,NA,NA,NA
"null","<img src='gifs/FemaleRace1a.gif' style='height:400px;''></img>",NA,"html-keyboard-response",67,1798353,"0.0-13.0-1.4",11298,"ListB","woman","english",NA,NA,NA,"null",NA,NA,NA,NA,NA,NA
"null","is facing",NA,"html-keyboard-response",68,1801354,"0.0-13.0-2.4",11298,"ListB","woman","english",NA,NA,NA,"null",NA,NA,NA,NA,NA,NA
"4601.000000000233",NA,NA,"survey-text",69,1805969,"0.0-13.0-3.4",11298,"ListB","woman","english",NA,NA,NA,NA,"{""Q0"":""Jane is facing Beth.""}","<img src='gifs/FemaleRace1a.gif' style='height:400px;''></img>","facing","is facing","english",NA
"null","<div style=""font-size:60px;"">+</div>",NA,"html-keyboard-response",70,1806471,"0.0-13.0-0.5",11298,"ListB","woman","english",NA,NA,NA,"null",NA,NA,NA,NA,NA,NA
"null","<img src='gifs/ChineseGender4b.gif' style='height:400px;''></img>",NA,"html-keyboard-response",71,1808473,"0.0-13.0-1.5",11298,"ListB","woman","english",NA,NA,NA,"null",NA,NA,NA,NA,NA,NA
"null","is touching",NA,"html-keyboard-response",72,1811475,"0.0-13.0-2.5",11298,"ListB","woman","english",NA,NA,NA,"null",NA,NA,NA,NA,NA,NA
"6186",NA,NA,"survey-text",73,1817668,"0.0-13.0-3.5",11298,"ListB","woman","english",NA,NA,NA,NA,"{""Q0"":""Jane is touching Dave.""}","<img src='gifs/ChineseGender4b.gif' style='height:400px;''></img>","touching","is touching","english",NA
"null","<div style=""font-size:60px;"">+</div>",NA,"html-keyboard-response",74,1818171,"0.0-13.0-0.6",11298,"ListB","woman","english",NA,NA,NA,"null",NA,NA,NA,NA,NA,NA
"null","<img src='gifs/MaleRace4a.gif' style='height:400px;''></img>",NA,"html-keyboard-response",75,1820172,"0.0-13.0-1.6",11298,"ListB","woman","english",NA,NA,NA,"null",NA,NA,NA,NA,NA,NA
"null","is promising",NA,"html-keyboard-response",76,1823173,"0.0-13.0-2.6",11298,"ListB","woman","english",NA,NA,NA,"null",NA,NA,NA,NA,NA,NA
"6137",NA,NA,"survey-text",77,1829318,"0.0-13.0-3.6",11298,"ListB","woman","english",NA,NA,NA,NA,"{""Q0"":""Luke Mike""}","<img src='gifs/MaleRace4a.gif' style='height:400px;''></img>","promising","is promising","english",NA
"null","<div style=""font-size:60px;"">+</div>",NA,"html-keyboard-response",78,1829819,"0.0-13.0-0.7",11298,"ListB","woman","english",NA,NA,NA,"null",NA,NA,NA,NA,NA,NA
"null","<img src='gifs/FemaleRace1a.gif' style='height:400px;''></img>",NA,"html-keyboard-response",79,1831822,"0.0-13.0-1.7",11298,"ListB","woman","english",NA,NA,NA,"null",NA,NA,NA,NA,NA,NA
"null","is employing",NA,"html-keyboard-response",80,1834823,"0.0-13.0-2.7",11298,"ListB","woman","english",NA,NA,NA,"null",NA,NA,NA,NA,NA,NA
"11821",NA,NA,"survey-text",81,1846652,"0.0-13.0-3.7",11298,"ListB","woman","english",NA,NA,NA,NA,"{""Q0"":""Jane is employing Beth.""}","<img src='gifs/FemaleRace1a.gif' style='height:400px;''></img>","employing","is employing","english",NA
"null","<div style=""font-size:60px;"">+</div>",NA,"html-keyboard-response",82,1847155,"0.0-13.0-0.8",11298,"ListB","woman","english",NA,NA,NA,"null",NA,NA,NA,NA,NA,NA
"null","<img src='gifs/MaleRace1a.gif' style='height:400px;''></img>",NA,"html-keyboard-response",83,1849157,"0.0-13.0-1.8",11298,"ListB","woman","english",NA,NA,NA,"null",NA,NA,NA,NA,NA,NA
"null","is looking at",NA,"html-keyboard-response",84,1852158,"0.0-13.0-2.8",11298,"ListB","woman","english",NA,NA,NA,"null",NA,NA,NA,NA,NA,NA
"11786",NA,NA,"survey-text",85,1863953,"0.0-13.0-3.8",11298,"ListB","woman","english",NA,NA,NA,NA,"{""Q0"":""Kate is looking at Fred.""}","<img src='gifs/MaleRace1a.gif' style='height:400px;''></img>","looking at","is looking at","english",NA
"null","<div style=""font-size:60px;"">+</div>",NA,"html-keyboard-response",86,1864455,"0.0-13.0-0.9",11298,"ListB","woman","english",NA,NA,NA,"null",NA,NA,NA,NA,NA,NA
"null","<img src='gifs/MaleRace4b.gif' style='height:400px;''></img>",NA,"html-keyboard-response",87,1866457,"0.0-13.0-1.9",11298,"ListB","woman","english",NA,NA,NA,"null",NA,NA,NA,NA,NA,NA
"null","is facing",NA,"html-keyboard-response",88,1869459,"0.0-13.0-2.9",11298,"ListB","woman","english",NA,NA,NA,"null",NA,NA,NA,NA,NA,NA
"5886",NA,NA,"survey-text",89,1875353,"0.0-13.0-3.9",11298,"ListB","woman","english",NA,NA,NA,NA,"{""Q0"":""Mike is facing Dave.""}","<img src='gifs/MaleRace4b.gif' style='height:400px;''></img>","facing","is facing","english",NA
"null","<div style=""font-size:60px;"">+</div>",NA,"html-keyboard-response",90,1875855,"0.0-13.0-0.10",11298,"ListB","woman","english",NA,NA,NA,"null",NA,NA,NA,NA,NA,NA
"null","<img src='gifs/BlackGender2a.gif' style='height:400px;''></img>",NA,"html-keyboard-response",91,1877857,"0.0-13.0-1.10",11298,"ListB","woman","english",NA,NA,NA,"null",NA,NA,NA,NA,NA,NA
"null","is joining",NA,"html-keyboard-response",92,1880860,"0.0-13.0-2.10",11298,"ListB","woman","english",NA,NA,NA,"null",NA,NA,NA,NA,NA,NA
"11702",NA,NA,"survey-text",93,1892569,"0.0-13.0-3.10",11298,"ListB","woman","english",NA,NA,NA,NA,"{""Q0"":""Beth is joining Mike.""}","<img src='gifs/BlackGender2a.gif' style='height:400px;''></img>","join","is joining","english",NA
"null","<div style=""font-size:60px;"">+</div>",NA,"html-keyboard-response",94,1893071,"0.0-13.0-0.11",11298,"ListB","woman","english",NA,NA,NA,"null",NA,NA,NA,NA,NA,NA
"null","<img src='gifs/ChineseGender2a.gif' style='height:400px;''></img>",NA,"html-keyboard-response",95,1895073,"0.0-13.0-1.11",11298,"ListB","woman","english",NA,NA,NA,"null",NA,NA,NA,NA,NA,NA
"null","is following",NA,"html-keyboard-response",96,1898074,"0.0-13.0-2.11",11298,"ListB","woman","english",NA,NA,NA,"null",NA,NA,NA,NA,NA,NA
"11704",NA,NA,"survey-text",97,1909787,"0.0-13.0-3.11",11298,"ListB","woman","english",NA,NA,NA,NA,"{""Q0"":""Luke is following Ruth.""}","<img src='gifs/ChineseGender2a.gif' style='height:400px;''></img>","following","is following","english",NA
"null","<div style=""font-size:60px;"">+</div>",NA,"html-keyboard-response",98,1910289,"0.0-13.0-0.12",11298,"ListB","woman","english",NA,NA,NA,"null",NA,NA,NA,NA,NA,NA
"null","<img src='gifs/ChineseGender2a.gif' style='height:400px;''></img>",NA,"html-keyboard-response",99,1912291,"0.0-13.0-1.12",11298,"ListB","woman","english",NA,NA,NA,"null",NA,NA,NA,NA,NA,NA
"null","is mentioning",NA,"html-keyboard-response",100,1915293,"0.0-13.0-2.12",11298,"ListB","woman","english",NA,NA,NA,"null",NA,NA,NA,NA,NA,NA
"7468.999999999767",NA,NA,"survey-text",101,1922771,"0.0-13.0-3.12",11298,"ListB","woman","english",NA,NA,NA,NA,"{""Q0"":""Ruth is mentioning Luke.""}","<img src='gifs/ChineseGender2a.gif' style='height:400px;''></img>","mention","is mentioning","english",NA
"null","<div style=""font-size:60px;"">+</div>",NA,"html-keyboard-response",102,1923272,"0.0-13.0-0.13",11298,"ListB","woman","english",NA,NA,NA,"null",NA,NA,NA,NA,NA,NA
"null","<img src='gifs/MaleRace4b.gif' style='height:400px;''></img>",NA,"html-keyboard-response",103,1925274,"0.0-13.0-1.13",11298,"ListB","woman","english",NA,NA,NA,"null",NA,NA,NA,NA,NA,NA
"null","is contacting",NA,"html-keyboard-response",104,1928277,"0.0-13.0-2.13",11298,"ListB","woman","english",NA,NA,NA,"null",NA,NA,NA,NA,NA,NA
"6769",NA,NA,"survey-text",105,1935053,"0.0-13.0-3.13",11298,"ListB","woman","english",NA,NA,NA,NA,"{""Q0"":""Dave is contacting Mike.""}","<img src='gifs/MaleRace4b.gif' style='height:400px;''></img>","contacting","is contacting","english",NA
"null","<div style=""font-size:60px;"">+</div>",NA,"html-keyboard-response",106,1935555,"0.0-13.0-0.14",11298,"ListB","woman","english",NA,NA,NA,"null",NA,NA,NA,NA,NA,NA
"null","<img src='gifs/MaleRace1a.gif' style='height:400px;''></img>",NA,"html-keyboard-response",107,1937562,"0.0-13.0-1.14",11298,"ListB","woman","english",NA,NA,NA,"null",NA,NA,NA,NA,NA,NA
"null","is joining",NA,"html-keyboard-response",108,1940564,"0.0-13.0-2.14",11298,"ListB","woman","english",NA,NA,NA,"null",NA,NA,NA,NA,NA,NA
"6994",NA,NA,"survey-text",109,1947570,"0.0-13.0-3.14",11298,"ListB","woman","english",NA,NA,NA,NA,"{""Q0"":""Fred is joining Dave.""}","<img src='gifs/MaleRace1a.gif' style='height:400px;''></img>","join","is joining","english",NA
"null","<div style=""font-size:60px;"">+</div>",NA,"html-keyboard-response",110,1948071,"0.0-13.0-0.15",11298,"ListB","woman","english",NA,NA,NA,"null",NA,NA,NA,NA,NA,NA
"null","<img src='gifs/ChineseGender3b.gif' style='height:400px;''></img>",NA,"html-keyboard-response",111,1950074,"0.0-13.0-1.15",11298,"ListB","woman","english",NA,NA,NA,"null",NA,NA,NA,NA,NA,NA
"null","is mentioning",NA,"html-keyboard-response",112,1953080,"0.0-13.0-2.15",11298,"ListB","woman","english",NA,NA,NA,"null",NA,NA,NA,NA,NA,NA
"11200",NA,NA,"survey-text",113,1964288,"0.0-13.0-3.15",11298,"ListB","woman","english",NA,NA,NA,NA,"{""Q0"":""Dave is mentioning Ruth.""}","<img src='gifs/ChineseGender3b.gif' style='height:400px;''></img>","mention","is mentioning","english",NA
"null","<div style=""font-size:60px;"">+</div>",NA,"html-keyboard-response",114,1964789,"0.0-13.0-0.16",11298,"ListB","woman","english",NA,NA,NA,"null",NA,NA,NA,NA,NA,NA
"null","<img src='gifs/FemaleRace2a.gif' style='height:400px;''></img>",NA,"html-keyboard-response",115,1966792,"0.0-13.0-1.16",11298,"ListB","woman","english",NA,NA,NA,"null",NA,NA,NA,NA,NA,NA
"null","is facing",NA,"html-keyboard-response",116,1969794,"0.0-13.0-2.16",11298,"ListB","woman","english",NA,NA,NA,"null",NA,NA,NA,NA,NA,NA
"7405",NA,NA,"survey-text",117,1977207,"0.0-13.0-3.16",11298,"ListB","woman","english",NA,NA,NA,NA,"{""Q0"":""Jane is facing Kate.""}","<img src='gifs/FemaleRace2a.gif' style='height:400px;''></img>","facing","is facing","english",NA
"null","<div style=""font-size:60px;"">+</div>",NA,"html-keyboard-response",118,1977708,"0.0-13.0-0.17",11298,"ListB","woman","english",NA,NA,NA,"null",NA,NA,NA,NA,NA,NA
"null","<img src='gifs/MaleRace2a.gif' style='height:400px;''></img>",NA,"html-keyboard-response",119,1979711,"0.0-13.0-1.17",11298,"ListB","woman","english",NA,NA,NA,"null",NA,NA,NA,NA,NA,NA
"null","is introducing",NA,"html-keyboard-response",120,1982713,"0.0-13.0-2.17",11298,"ListB","woman","english",NA,NA,NA,"null",NA,NA,NA,NA,NA,NA
"7996.999999999767",NA,NA,"survey-text",121,1990720,"0.0-13.0-3.17",11298,"ListB","woman","english",NA,NA,NA,NA,"{""Q0"":""Luke is introducing Mike.""}","<img src='gifs/MaleRace2a.gif' style='height:400px;''></img>","introducing","is introducing","english",NA
"5998","<img src='img/portrait_matrix_listB.jpg' style='width:900px;height:500px;''></img><p>If you have memorised all the portraits and names and are ready to start, press Continue.</p><p><strong>Please note: Your memory of these faces will be tested 5 times during this experiment.</strong></p>",0,"html-button-response",122,1996720,"0.0-14.0-0.0",11298,"ListB","woman","english",NA,NA,NA,NA,NA,NA,NA,NA,NA,NA
"4646.000000000233","<img src=""portrait/BW2.jpg""style=""height:400px;""></img>",2,"html-button-response",123,2002369,"0.0-14.0-1.0",11298,"ListB","woman","english",NA,"true",2,NA,NA,NA,NA,NA,NA,NA
"null","CORRECT",NA,"html-keyboard-response",124,2003871,"0.0-14.0-2.0-0.0",11298,"ListB","woman","english",NA,NA,NA,"null",NA,NA,NA,NA,NA,NA
"3811.000000000233","<img src=""portrait/WW1.jpg""style=""height:400px;""></img>",1,"html-button-response",125,2007686,"0.0-14.0-4.0",11298,"ListB","woman","english",NA,"true",1,NA,NA,NA,NA,NA,NA,NA
"null","CORRECT",NA,"html-keyboard-response",126,2009188,"0.0-14.0-5.0-0.0",11298,"ListB","woman","english",NA,NA,NA,"null",NA,NA,NA,NA,NA,NA
"1661","<img src=""portrait/BM2.jpg""style=""height:400px;""></img>",5,"html-button-response",127,2010853,"0.0-14.0-7.0",11298,"ListB","woman","english",NA,"true",5,NA,NA,NA,NA,NA,NA,NA
"null","CORRECT",NA,"html-keyboard-response",128,2012355,"0.0-14.0-8.0-0.0",11298,"ListB","woman","english",NA,NA,NA,"null",NA,NA,NA,NA,NA,NA
"3762","<img src=""portrait/WM2.jpg""style=""height:400px;""></img>",7,"html-button-response",129,2016119,"0.0-14.0-10.0",11298,"ListB","woman","english",NA,"true",7,NA,NA,NA,NA,NA,NA,NA
"null","CORRECT",NA,"html-keyboard-response",130,2017621,"0.0-14.0-11.0-0.0",11298,"ListB","woman","english",NA,NA,NA,"null",NA,NA,NA,NA,NA,NA
"1146","<img src=""portrait/WW2.jpg""style=""height:400px;""></img>",3,"html-button-response",131,2018769,"0.0-14.0-13.0",11298,"ListB","woman","english",NA,"true",3,NA,NA,NA,NA,NA,NA,NA
"null","CORRECT",NA,"html-keyboard-response",132,2020271,"0.0-14.0-14.0-0.0",11298,"ListB","woman","english",NA,NA,NA,"null",NA,NA,NA,NA,NA,NA
"2479.000000000233","<img src=""portrait/WM1.jpg""style=""height:400px;""></img>",6,"html-button-response",133,2022753,"0.0-14.0-16.0",11298,"ListB","woman","english",NA,"true",6,NA,NA,NA,NA,NA,NA,NA
"null","CORRECT",NA,"html-keyboard-response",134,2024255,"0.0-14.0-17.0-0.0",11298,"ListB","woman","english",NA,NA,NA,"null",NA,NA,NA,NA,NA,NA
"1781","<img src=""portrait/BM1.jpg""style=""height:400px;""></img>",4,"html-button-response",135,2026038,"0.0-14.0-19.0",11298,"ListB","woman","english",NA,"true",4,NA,NA,NA,NA,NA,NA,NA
"null","CORRECT",NA,"html-keyboard-response",136,2027541,"0.0-14.0-20.0-0.0",11298,"ListB","woman","english",NA,NA,NA,"null",NA,NA,NA,NA,NA,NA
"1811","<img src=""portrait/BW1.jpg""style=""height:400px;""></img>",2,"html-button-response",137,2029354,"0.0-14.0-22.0",11298,"ListB","woman","english",NA,"true",0,NA,NA,NA,NA,NA,NA,NA
"14033","<img src=""portrait/BW1.jpg""style=""height:400px;""></img>",0,"html-button-response",138,2044388,"0.0-14.0-24.0-0.0",11298,"ListB","woman","english",NA,"false",0,NA,NA,NA,NA,NA,NA,NA
"null","CORRECT",NA,"html-keyboard-response",139,2045891,"0.0-14.0-24.0-1.0-0.0",11298,"ListB","woman","english",NA,NA,NA,"null",NA,NA,NA,NA,NA,NA
"1060.0000000002328","<p>You got 7 out of 8 right first time. Press Continue.</p>",0,"html-button-response",140,2046954,"0.0-14.0-25.0",11298,"ListB","woman","english",NA,NA,NA,NA,NA,NA,NA,NA,NA,NA
"1697","As you did not score 100%, the memory game will repeat. Press Continue.",0,"html-button-response",141,2049654,"0.0-14.0-26.0-0.0",11298,"ListB","woman","english",NA,NA,NA,NA,NA,NA,NA,NA,NA,NA
"1147","<img src='img/portrait_matrix_listB.jpg' style='width:900px;height:500px;''></img><p>If you have memorised all the portraits and names and are ready to start, press Continue.</p><p><strong>Please note: Your memory of these faces will be tested 5 times during this experiment.</strong></p>",0,"html-button-response",142,2051803,"0.0-14.1-0.1",11298,"ListB","woman","english",NA,NA,NA,NA,NA,NA,NA,NA,NA,NA
"4448","<img src=""portrait/BW2.jpg""style=""height:400px;""></img>",2,"html-button-response",143,2057255,"0.0-14.1-1.1",11298,"ListB","woman","english",NA,"true",2,NA,NA,NA,NA,NA,NA,NA
"null","CORRECT",NA,"html-keyboard-response",144,2058758,"0.0-14.1-2.1-0.1",11298,"ListB","woman","english",NA,NA,NA,"null",NA,NA,NA,NA,NA,NA
"1860","<img src=""portrait/WW1.jpg""style=""height:400px;""></img>",1,"html-button-response",145,2060620,"0.0-14.1-4.1",11298,"ListB","woman","english",NA,"true",1,NA,NA,NA,NA,NA,NA,NA
"null","CORRECT",NA,"html-keyboard-response",146,2062122,"0.0-14.1-5.1-0.1",11298,"ListB","woman","english",NA,NA,NA,"null",NA,NA,NA,NA,NA,NA
"1079.0000000002328","<img src=""portrait/BM2.jpg""style=""height:400px;""></img>",5,"html-button-response",147,2063203,"0.0-14.1-7.1",11298,"ListB","woman","english",NA,"true",5,NA,NA,NA,NA,NA,NA,NA
"null","CORRECT",NA,"html-keyboard-response",148,2064705,"0.0-14.1-8.1-0.1",11298,"ListB","woman","english",NA,NA,NA,"null",NA,NA,NA,NA,NA,NA
"1496.0000000002328","<img src=""portrait/WM2.jpg""style=""height:400px;""></img>",7,"html-button-response",149,2066203,"0.0-14.1-10.1",11298,"ListB","woman","english",NA,"true",7,NA,NA,NA,NA,NA,NA,NA
"null","CORRECT",NA,"html-keyboard-response",150,2067705,"0.0-14.1-11.1-0.1",11298,"ListB","woman","english",NA,NA,NA,"null",NA,NA,NA,NA,NA,NA
"1696","<img src=""portrait/WW2.jpg""style=""height:400px;""></img>",3,"html-button-response",151,2069403,"0.0-14.1-13.1",11298,"ListB","woman","english",NA,"true",3,NA,NA,NA,NA,NA,NA,NA
"null","CORRECT",NA,"html-keyboard-response",152,2070905,"0.0-14.1-14.1-0.1",11298,"ListB","woman","english",NA,NA,NA,"null",NA,NA,NA,NA,NA,NA
"2480","<img src=""portrait/WM1.jpg""style=""height:400px;""></img>",6,"html-button-response",153,2073387,"0.0-14.1-16.1",11298,"ListB","woman","english",NA,"true",6,NA,NA,NA,NA,NA,NA,NA
"null","CORRECT",NA,"html-keyboard-response",154,2074889,"0.0-14.1-17.1-0.1",11298,"ListB","woman","english",NA,NA,NA,"null",NA,NA,NA,NA,NA,NA
"2328","<img src=""portrait/BM1.jpg""style=""height:400px;""></img>",4,"html-button-response",155,2077217,"0.0-14.1-19.1",11298,"ListB","woman","english",NA,"true",4,NA,NA,NA,NA,NA,NA,NA
"null","CORRECT",NA,"html-keyboard-response",156,2078719,"0.0-14.1-20.1-0.1",11298,"ListB","woman","english",NA,NA,NA,"null",NA,NA,NA,NA,NA,NA
"1696","<img src=""portrait/BW1.jpg""style=""height:400px;""></img>",0,"html-button-response",157,2080415,"0.0-14.1-22.1",11298,"ListB","woman","english",NA,"true",0,NA,NA,NA,NA,NA,NA,NA
"null","CORRECT",NA,"html-keyboard-response",158,2081916,"0.0-14.1-23.1-0.1",11298,"ListB","woman","english",NA,NA,NA,"null",NA,NA,NA,NA,NA,NA
"1166.9999999997672","<p>You got 8 out of 8 right first time. Press Continue.</p>",0,"html-button-response",159,2083083,"0.0-14.1-25.1",11298,"ListB","woman","english",NA,NA,NA,NA,NA,NA,NA,NA,NA,NA
"null","<div style=""font-size:60px;"">+</div>",NA,"html-keyboard-response",160,2084585,"0.0-15.0-0.0",11298,"ListB","woman","english",NA,NA,NA,"null",NA,NA,NA,NA,NA,NA
"null","<img src='gifs/ChineseGender1b.gif' style='height:400px;''></img>",NA,"html-keyboard-response",161,2086586,"0.0-15.0-1.0",11298,"ListB","woman","english",NA,NA,NA,"null",NA,NA,NA,NA,NA,NA
"null","is promising",NA,"html-keyboard-response",162,2089587,"0.0-15.0-2.0",11298,"ListB","woman","english",NA,NA,NA,"null",NA,NA,NA,NA,NA,NA
"6548.999999999767",NA,NA,"survey-text",163,2096144,"0.0-15.0-3.0",11298,"ListB","woman","english",NA,NA,NA,NA,"{""Q0"":""Jane is promising Luke.""}","<img src='gifs/ChineseGender1b.gif' style='height:400px;''></img>","promising","is promising","english",NA
"null","<div style=""font-size:60px;"">+</div>",NA,"html-keyboard-response",164,2096647,"0.0-15.0-0.1",11298,"ListB","woman","english",NA,NA,NA,"null",NA,NA,NA,NA,NA,NA
"null","<img src='gifs/MaleRace2b.gif' style='height:400px;''></img>",NA,"html-keyboard-response",165,2098649,"0.0-15.0-1.1",11298,"ListB","woman","english",NA,NA,NA,"null",NA,NA,NA,NA,NA,NA
"null","is looking at",NA,"html-keyboard-response",166,2101650,"0.0-15.0-2.1",11298,"ListB","woman","english",NA,NA,NA,"null",NA,NA,NA,NA,NA,NA
"9419",NA,NA,"survey-text",167,2111076,"0.0-15.0-3.1",11298,"ListB","woman","english",NA,NA,NA,NA,"{""Q0"":""Luke is looking at Mike.""}","<img src='gifs/MaleRace2b.gif' style='height:400px;''></img>","looking at","is looking at","english",NA
"null","<div style=""font-size:60px;"">+</div>",NA,"html-keyboard-response",168,2111577,"0.0-15.0-0.2",11298,"ListB","woman","english",NA,NA,NA,"null",NA,NA,NA,NA,NA,NA
"null","<img src='gifs/ChineseGender2b.gif' style='height:400px;''></img>",NA,"html-keyboard-response",169,2113579,"0.0-15.0-1.2",11298,"ListB","woman","english",NA,NA,NA,"null",NA,NA,NA,NA,NA,NA
"null","is employing",NA,"html-keyboard-response",170,2116581,"0.0-15.0-2.2",11298,"ListB","woman","english",NA,NA,NA,"null",NA,NA,NA,NA,NA,NA
"8568.000000000233",NA,NA,"survey-text",171,2125159,"0.0-15.0-3.2",11298,"ListB","woman","english",NA,NA,NA,NA,"{""Q0"":""Luke is employing Ruth.""}","<img src='gifs/ChineseGender2b.gif' style='height:400px;''></img>","employing","is employing","english",NA
"null","<div style=""font-size:60px;"">+</div>",NA,"html-keyboard-response",172,2125661,"0.0-15.0-0.3",11298,"ListB","woman","english",NA,NA,NA,"null",NA,NA,NA,NA,NA,NA
"null","<img src='gifs/MaleRace2a.gif' style='height:400px;''></img>",NA,"html-keyboard-response",173,2127663,"0.0-15.0-1.3",11298,"ListB","woman","english",NA,NA,NA,"null",NA,NA,NA,NA,NA,NA
"null","is joining",NA,"html-keyboard-response",174,2130665,"0.0-15.0-2.3",11298,"ListB","woman","english",NA,NA,NA,"null",NA,NA,NA,NA,NA,NA
"7406",NA,NA,"survey-text",175,2138078,"0.0-15.0-3.3",11298,"ListB","woman","english",NA,NA,NA,NA,"{""Q0"":""Mike is joining Luke.""}","<img src='gifs/MaleRace2a.gif' style='height:400px;''></img>","join","is joining","english",NA
"null","<div style=""font-size:60px;"">+</div>",NA,"html-keyboard-response",176,2138579,"0.0-15.0-0.4",11298,"ListB","woman","english",NA,NA,NA,"null",NA,NA,NA,NA,NA,NA
"null","<img src='gifs/MaleRace3b.gif' style='height:400px;''></img>",NA,"html-keyboard-response",177,2140582,"0.0-15.0-1.4",11298,"ListB","woman","english",NA,NA,NA,"null",NA,NA,NA,NA,NA,NA
"null","is convincing",NA,"html-keyboard-response",178,2143583,"0.0-15.0-2.4",11298,"ListB","woman","english",NA,NA,NA,"null",NA,NA,NA,NA,NA,NA
"8282",NA,NA,"survey-text",179,2151876,"0.0-15.0-3.4",11298,"ListB","woman","english",NA,NA,NA,NA,"{""Q0"":""Fred is convincing Dave.""}","<img src='gifs/MaleRace3b.gif' style='height:400px;''></img>","convincing","is convincing","english",NA
"null","<div style=""font-size:60px;"">+</div>",NA,"html-keyboard-response",180,2152377,"0.0-15.0-0.5",11298,"ListB","woman","english",NA,NA,NA,"null",NA,NA,NA,NA,NA,NA
"null","<img src='gifs/FemaleRace3b.gif' style='height:400px;''></img>",NA,"html-keyboard-response",181,2154380,"0.0-15.0-1.5",11298,"ListB","woman","english",NA,NA,NA,"null",NA,NA,NA,NA,NA,NA
"null","is following",NA,"html-keyboard-response",182,2157382,"0.0-15.0-2.5",11298,"ListB","woman","english",NA,NA,NA,"null",NA,NA,NA,NA,NA,NA
"7286.000000000233",NA,NA,"survey-text",183,2164676,"0.0-15.0-3.5",11298,"ListB","woman","english",NA,NA,NA,NA,"{""Q0"":""Beth is following Ruth.""}","<img src='gifs/FemaleRace3b.gif' style='height:400px;''></img>","following","is following","english",NA
"null","<div style=""font-size:60px;"">+</div>",NA,"html-keyboard-response",184,2165177,"0.0-15.0-0.6",11298,"ListB","woman","english",NA,NA,NA,"null",NA,NA,NA,NA,NA,NA
"null","<img src='gifs/ChineseGender4b.gif' style='height:400px;''></img>",NA,"html-keyboard-response",185,2167178,"0.0-15.0-1.6",11298,"ListB","woman","english",NA,NA,NA,"null",NA,NA,NA,NA,NA,NA
"null","is walking towards",NA,"html-keyboard-response",186,2170181,"0.0-15.0-2.6",11298,"ListB","woman","english",NA,NA,NA,"null",NA,NA,NA,NA,NA,NA
"8703",NA,NA,"survey-text",187,2178893,"0.0-15.0-3.6",11298,"ListB","woman","english",NA,NA,NA,NA,"{""Q0"":""Dave is walking towards Jane.""}","<img src='gifs/ChineseGender4b.gif' style='height:400px;''></img>","walking towards","is walking towards","english",NA
"null","<div style=""font-size:60px;"">+</div>",NA,"html-keyboard-response",188,2179395,"0.0-15.0-0.7",11298,"ListB","woman","english",NA,NA,NA,"null",NA,NA,NA,NA,NA,NA
"null","<img src='gifs/FemaleRace2b.gif' style='height:400px;''></img>",NA,"html-keyboard-response",189,2181397,"0.0-15.0-1.7",11298,"ListB","woman","english",NA,NA,NA,"null",NA,NA,NA,NA,NA,NA
"null","is convincing",NA,"html-keyboard-response",190,2184401,"0.0-15.0-2.7",11298,"ListB","woman","english",NA,NA,NA,"null",NA,NA,NA,NA,NA,NA
"7890.000000000233",NA,NA,"survey-text",191,2192300,"0.0-15.0-3.7",11298,"ListB","woman","english",NA,NA,NA,NA,"{""Q0"":""Kate is convincing Jane.""}","<img src='gifs/FemaleRace2b.gif' style='height:400px;''></img>","convincing","is convincing","english",NA
"null","<div style=""font-size:60px;"">+</div>",NA,"html-keyboard-response",192,2192803,"0.0-15.0-0.8",11298,"ListB","woman","english",NA,NA,NA,"null",NA,NA,NA,NA,NA,NA
"null","<img src='gifs/ChineseGender4a.gif' style='height:400px;''></img>",NA,"html-keyboard-response",193,2194804,"0.0-15.0-1.8",11298,"ListB","woman","english",NA,NA,NA,"null",NA,NA,NA,NA,NA,NA
"null","is looking at",NA,"html-keyboard-response",194,2197807,"0.0-15.0-2.8",11298,"ListB","woman","english",NA,NA,NA,"null",NA,NA,NA,NA,NA,NA
"7628",NA,NA,"survey-text",195,2205442,"0.0-15.0-3.8",11298,"ListB","woman","english",NA,NA,NA,NA,"{""Q0"":""Dave is looking at Jane.""}","<img src='gifs/ChineseGender4a.gif' style='height:400px;''></img>","looking at","is looking at","english",NA
"null","<div style=""font-size:60px;"">+</div>",NA,"html-keyboard-response",196,2205944,"0.0-15.0-0.9",11298,"ListB","woman","english",NA,NA,NA,"null",NA,NA,NA,NA,NA,NA
"null","<img src='gifs/MaleRace3b.gif' style='height:400px;''></img>",NA,"html-keyboard-response",197,2207946,"0.0-15.0-1.9",11298,"ListB","woman","english",NA,NA,NA,"null",NA,NA,NA,NA,NA,NA
"null","is convincing",NA,"html-keyboard-response",198,2210948,"0.0-15.0-2.9",11298,"ListB","woman","english",NA,NA,NA,"null",NA,NA,NA,NA,NA,NA
"8420",NA,NA,"survey-text",199,2219375,"0.0-15.0-3.9",11298,"ListB","woman","english",NA,NA,NA,NA,"{""Q0"":""Dave is convincing Fred.""}","<img src='gifs/MaleRace3b.gif' style='height:400px;''></img>","convincing","is convincing","english",NA
"null","<div style=""font-size:60px;"">+</div>",NA,"html-keyboard-response",200,2219876,"0.0-15.0-0.10",11298,"ListB","woman","english",NA,NA,NA,"null",NA,NA,NA,NA,NA,NA
"null","<img src='gifs/MaleRace1b.gif' style='height:400px;''></img>",NA,"html-keyboard-response",201,2221878,"0.0-15.0-1.10",11298,"ListB","woman","english",NA,NA,NA,"null",NA,NA,NA,NA,NA,NA
"null","is introducing",NA,"html-keyboard-response",202,2224880,"0.0-15.0-2.10",11298,"ListB","woman","english",NA,NA,NA,"null",NA,NA,NA,NA,NA,NA
"6520",NA,NA,"survey-text",203,2231407,"0.0-15.0-3.10",11298,"ListB","woman","english",NA,NA,NA,NA,"{""Q0"":""Fred is introducing Luke.""}","<img src='gifs/MaleRace1b.gif' style='height:400px;''></img>","introducing","is introducing","english",NA
"null","<div style=""font-size:60px;"">+</div>",NA,"html-keyboard-response",204,2231909,"0.0-15.0-0.11",11298,"ListB","woman","english",NA,NA,NA,"null",NA,NA,NA,NA,NA,NA
"null","<img src='gifs/FemaleRace4b.gif' style='height:400px;''></img>",NA,"html-keyboard-response",205,2233910,"0.0-15.0-1.11",11298,"ListB","woman","english",NA,NA,NA,"null",NA,NA,NA,NA,NA,NA
"null","is walking towards",NA,"html-keyboard-response",206,2236912,"0.0-15.0-2.11",11298,"ListB","woman","english",NA,NA,NA,"null",NA,NA,NA,NA,NA,NA
"9691",NA,NA,"survey-text",207,2246612,"0.0-15.0-3.11",11298,"ListB","woman","english",NA,NA,NA,NA,"{""Q0"":""Ruth is walking towards Beth.""}","<img src='gifs/FemaleRace4b.gif' style='height:400px;''></img>","walking towards","is walking towards","english",NA
"null","<div style=""font-size:60px;"">+</div>",NA,"html-keyboard-response",208,2247115,"0.0-15.0-0.12",11298,"ListB","woman","english",NA,NA,NA,"null",NA,NA,NA,NA,NA,NA
"null","<img src='gifs/ChineseGender3a.gif' style='height:400px;''></img>",NA,"html-keyboard-response",209,2249117,"0.0-15.0-1.12",11298,"ListB","woman","english",NA,NA,NA,"null",NA,NA,NA,NA,NA,NA
"null","is mentioning",NA,"html-keyboard-response",210,2252119,"0.0-15.0-2.12",11298,"ListB","woman","english",NA,NA,NA,"null",NA,NA,NA,NA,NA,NA
"6947",NA,NA,"survey-text",211,2259076,"0.0-15.0-3.12",11298,"ListB","woman","english",NA,NA,NA,NA,"{""Q0"":""Ruth is mentioning Dave.""}","<img src='gifs/ChineseGender3a.gif' style='height:400px;''></img>","mention","is mentioning","english",NA
"null","<div style=""font-size:60px;"">+</div>",NA,"html-keyboard-response",212,2259577,"0.0-15.0-0.13",11298,"ListB","woman","english",NA,NA,NA,"null",NA,NA,NA,NA,NA,NA
"null","<img src='gifs/MaleRace2b.gif' style='height:400px;''></img>",NA,"html-keyboard-response",213,2261580,"0.0-15.0-1.13",11298,"ListB","woman","english",NA,NA,NA,"null",NA,NA,NA,NA,NA,NA
"null","is listening to",NA,"html-keyboard-response",214,2264581,"0.0-15.0-2.13",11298,"ListB","woman","english",NA,NA,NA,"null",NA,NA,NA,NA,NA,NA
"11676",NA,NA,"survey-text",215,2276264,"0.0-15.0-3.13",11298,"ListB","woman","english",NA,NA,NA,NA,"{""Q0"":""Luke is listening to Fred.""}","<img src='gifs/MaleRace2b.gif' style='height:400px;''></img>","listening to","is listening to","english",NA
"null","<div style=""font-size:60px;"">+</div>",NA,"html-keyboard-response",216,2276766,"0.0-15.0-0.14",11298,"ListB","woman","english",NA,NA,NA,"null",NA,NA,NA,NA,NA,NA
"null","<img src='gifs/BlackGender2b.gif' style='height:400px;''></img>",NA,"html-keyboard-response",217,2278768,"0.0-15.0-1.14",11298,"ListB","woman","english",NA,NA,NA,"null",NA,NA,NA,NA,NA,NA
"null","is following",NA,"html-keyboard-response",218,2281770,"0.0-15.0-2.14",11298,"ListB","woman","english",NA,NA,NA,"null",NA,NA,NA,NA,NA,NA
"6562",NA,NA,"survey-text",219,2288343,"0.0-15.0-3.14",11298,"ListB","woman","english",NA,NA,NA,NA,"{""Q0"":""Mike is following Beth.""}","<img src='gifs/BlackGender2b.gif' style='height:400px;''></img>","following","is following","english",NA
"null","<div style=""font-size:60px;"">+</div>",NA,"html-keyboard-response",220,2288844,"0.0-15.0-0.15",11298,"ListB","woman","english",NA,NA,NA,"null",NA,NA,NA,NA,NA,NA
"null","<img src='gifs/ChineseGender3b.gif' style='height:400px;''></img>",NA,"html-keyboard-response",221,2290846,"0.0-15.0-1.15",11298,"ListB","woman","english",NA,NA,NA,"null",NA,NA,NA,NA,NA,NA
"null","is touching",NA,"html-keyboard-response",222,2293847,"0.0-15.0-2.15",11298,"ListB","woman","english",NA,NA,NA,"null",NA,NA,NA,NA,NA,NA
"5305",NA,NA,"survey-text",223,2299159,"0.0-15.0-3.15",11298,"ListB","woman","english",NA,NA,NA,NA,"{""Q0"":""Dave is touching Ruth.""}","<img src='gifs/ChineseGender3b.gif' style='height:400px;''></img>","touching","is touching","english",NA
"null","<div style=""font-size:60px;"">+</div>",NA,"html-keyboard-response",224,2299662,"0.0-15.0-0.16",11298,"ListB","woman","english",NA,NA,NA,"null",NA,NA,NA,NA,NA,NA
"null","<img src='gifs/ChineseGender1b.gif' style='height:400px;''></img>",NA,"html-keyboard-response",225,2301664,"0.0-15.0-1.16",11298,"ListB","woman","english",NA,NA,NA,"null",NA,NA,NA,NA,NA,NA
"null","is convincing",NA,"html-keyboard-response",226,2304666,"0.0-15.0-2.16",11298,"ListB","woman","english",NA,NA,NA,"null",NA,NA,NA,NA,NA,NA
"8348",NA,NA,"survey-text",227,2313027,"0.0-15.0-3.16",11298,"ListB","woman","english",NA,NA,NA,NA,"{""Q0"":""Luke is convincing Jane.""}","<img src='gifs/ChineseGender1b.gif' style='height:400px;''></img>","convincing","is convincing","english",NA
"null","<div style=""font-size:60px;"">+</div>",NA,"html-keyboard-response",228,2313528,"0.0-15.0-0.17",11298,"ListB","woman","english",NA,NA,NA,"null",NA,NA,NA,NA,NA,NA
"null","<img src='gifs/BlackGender3a.gif' style='height:400px;''></img>",NA,"html-keyboard-response",229,2315530,"0.0-15.0-1.17",11298,"ListB","woman","english",NA,NA,NA,"null",NA,NA,NA,NA,NA,NA
"null","is walking towards",NA,"html-keyboard-response",230,2318533,"0.0-15.0-2.17",11298,"ListB","woman","english",NA,NA,NA,"null",NA,NA,NA,NA,NA,NA
"8620",NA,NA,"survey-text",231,2327160,"0.0-15.0-3.17",11298,"ListB","woman","english",NA,NA,NA,NA,"{""Q0"":""Fred is walking towards Kate.""}","<img src='gifs/BlackGender3a.gif' style='height:400px;''></img>","walking towards","is walking towards","english",NA
"14429.999999999767","<img src='img/portrait_matrix_listB.jpg' style='width:900px;height:500px;''></img><p>If you have memorised all the portraits and names and are ready to start, press Continue.</p><p><strong>Please note: Your memory of these faces will be tested 5 times during this experiment.</strong></p>",0,"html-button-response",232,2341591,"0.0-16.0-0.0",11298,"ListB","woman","english",NA,NA,NA,NA,NA,NA,NA,NA,NA,NA
"5098.000000000233","<img src=""portrait/BW1.jpg""style=""height:400px;""></img>",0,"html-button-response",233,2347691,"0.0-16.0-1.0",11298,"ListB","woman","english",NA,"true",0,NA,NA,NA,NA,NA,NA,NA
"null","CORRECT",NA,"html-keyboard-response",234,2349194,"0.0-16.0-2.0-0.0",11298,"ListB","woman","english",NA,NA,NA,"null",NA,NA,NA,NA,NA,NA
"2628.000000000233","<img src=""portrait/BM1.jpg""style=""height:400px;""></img>",4,"html-button-response",235,2351824,"0.0-16.0-4.0",11298,"ListB","woman","english",NA,"true",4,NA,NA,NA,NA,NA,NA,NA
"null","CORRECT",NA,"html-keyboard-response",236,2353327,"0.0-16.0-5.0-0.0",11298,"ListB","woman","english",NA,NA,NA,"null",NA,NA,NA,NA,NA,NA
"2779","<img src=""portrait/WW1.jpg""style=""height:400px;""></img>",1,"html-button-response",237,2356107,"0.0-16.0-7.0",11298,"ListB","woman","english",NA,"true",1,NA,NA,NA,NA,NA,NA,NA
"null","CORRECT",NA,"html-keyboard-response",238,2357609,"0.0-16.0-8.0-0.0",11298,"ListB","woman","english",NA,NA,NA,"null",NA,NA,NA,NA,NA,NA
"2213.000000000233","<img src=""portrait/BW2.jpg""style=""height:400px;""></img>",2,"html-button-response",239,2359824,"0.0-16.0-10.0",11298,"ListB","woman","english",NA,"true",2,NA,NA,NA,NA,NA,NA,NA
"null","CORRECT",NA,"html-keyboard-response",240,2361327,"0.0-16.0-11.0-0.0",11298,"ListB","woman","english",NA,NA,NA,"null",NA,NA,NA,NA,NA,NA
"1512","<img src=""portrait/BM2.jpg""style=""height:400px;""></img>",5,"html-button-response",241,2362841,"0.0-16.0-13.0",11298,"ListB","woman","english",NA,"true",5,NA,NA,NA,NA,NA,NA,NA
"null","CORRECT",NA,"html-keyboard-response",242,2364344,"0.0-16.0-14.0-0.0",11298,"ListB","woman","english",NA,NA,NA,"null",NA,NA,NA,NA,NA,NA
"3295.000000000233","<img src=""portrait/WM2.jpg""style=""height:400px;""></img>",7,"html-button-response",243,2367641,"0.0-16.0-16.0",11298,"ListB","woman","english",NA,"true",7,NA,NA,NA,NA,NA,NA,NA
"null","CORRECT",NA,"html-keyboard-response",244,2369144,"0.0-16.0-17.0-0.0",11298,"ListB","woman","english",NA,NA,NA,"null",NA,NA,NA,NA,NA,NA
"1412","<img src=""portrait/WW2.jpg""style=""height:400px;""></img>",3,"html-button-response",245,2370558,"0.0-16.0-19.0",11298,"ListB","woman","english",NA,"true",3,NA,NA,NA,NA,NA,NA,NA
"null","CORRECT",NA,"html-keyboard-response",246,2372062,"0.0-16.0-20.0-0.0",11298,"ListB","woman","english",NA,NA,NA,"null",NA,NA,NA,NA,NA,NA
"2077","<img src=""portrait/WM1.jpg""style=""height:400px;""></img>",6,"html-button-response",247,2374141,"0.0-16.0-22.0",11298,"ListB","woman","english",NA,"true",6,NA,NA,NA,NA,NA,NA,NA
"null","CORRECT",NA,"html-keyboard-response",248,2375644,"0.0-16.0-23.0-0.0",11298,"ListB","woman","english",NA,NA,NA,"null",NA,NA,NA,NA,NA,NA
"1046","<p>You got 8 out of 8 right first time. Press Continue.</p>",0,"html-button-response",249,2376692,"0.0-16.0-25.0",11298,"ListB","woman","english",NA,NA,NA,NA,NA,NA,NA,NA,NA,NA
"null","<div style=""font-size:60px;"">+</div>",NA,"html-keyboard-response",250,2378195,"0.0-17.0-0.0",11298,"ListB","woman","english",NA,NA,NA,"null",NA,NA,NA,NA,NA,NA
"null","<img src='gifs/BlackGender2b.gif' style='height:400px;''></img>",NA,"html-keyboard-response",251,2380197,"0.0-17.0-1.0",11298,"ListB","woman","english",NA,NA,NA,"null",NA,NA,NA,NA,NA,NA
"null","is listening to",NA,"html-keyboard-response",252,2383198,"0.0-17.0-2.0",11298,"ListB","woman","english",NA,NA,NA,"null",NA,NA,NA,NA,NA,NA
"9523",NA,NA,"survey-text",253,2392729,"0.0-17.0-3.0",11298,"ListB","woman","english",NA,NA,NA,NA,"{""Q0"":""Beth is listening to Mike.""}","<img src='gifs/BlackGender2b.gif' style='height:400px;''></img>","listening to","is listening to","english",NA
"null","<div style=""font-size:60px;"">+</div>",NA,"html-keyboard-response",254,2393231,"0.0-17.0-0.1",11298,"ListB","woman","english",NA,NA,NA,"null",NA,NA,NA,NA,NA,NA
"null","<img src='gifs/BlackGender1a.gif' style='height:400px;''></img>",NA,"html-keyboard-response",255,2395232,"0.0-17.0-1.1",11298,"ListB","woman","english",NA,NA,NA,"null",NA,NA,NA,NA,NA,NA
"null","is approaching",NA,"html-keyboard-response",256,2398234,"0.0-17.0-2.1",11298,"ListB","woman","english",NA,NA,NA,"null",NA,NA,NA,NA,NA,NA
"9666.000000000233",NA,NA,"survey-text",257,2407909,"0.0-17.0-3.1",11298,"ListB","woman","english",NA,NA,NA,NA,"{""Q0"":""Beth is approaching Fred.""}","<img src='gifs/BlackGender1a.gif' style='height:400px;''></img>","approaching","is approaching","english",NA
"null","<div style=""font-size:60px;"">+</div>",NA,"html-keyboard-response",258,2408411,"0.0-17.0-0.2",11298,"ListB","woman","english",NA,NA,NA,"null",NA,NA,NA,NA,NA,NA
"null","<img src='gifs/FemaleRace2a.gif' style='height:400px;''></img>",NA,"html-keyboard-response",259,2410414,"0.0-17.0-1.2",11298,"ListB","woman","english",NA,NA,NA,"null",NA,NA,NA,NA,NA,NA
"null","is accompanying",NA,"html-keyboard-response",260,2413416,"0.0-17.0-2.2",11298,"ListB","woman","english",NA,NA,NA,"null",NA,NA,NA,NA,NA,NA
"8516",NA,NA,"survey-text",261,2421943,"0.0-17.0-3.2",11298,"ListB","woman","english",NA,NA,NA,NA,"{""Q0"":""Jane is accompanying Kate.""}","<img src='gifs/FemaleRace2a.gif' style='height:400px;''></img>","accompanying","is accompanying","english",NA
"null","<div style=""font-size:60px;"">+</div>",NA,"html-keyboard-response",262,2422444,"0.0-17.0-0.3",11298,"ListB","woman","english",NA,NA,NA,"null",NA,NA,NA,NA,NA,NA
"null","<img src='gifs/ChineseGender1a.gif' style='height:400px;''></img>",NA,"html-keyboard-response",263,2424446,"0.0-17.0-1.3",11298,"ListB","woman","english",NA,NA,NA,"null",NA,NA,NA,NA,NA,NA
"null","is praising",NA,"html-keyboard-response",264,2427448,"0.0-17.0-2.3",11298,"ListB","woman","english",NA,NA,NA,"null",NA,NA,NA,NA,NA,NA
"9436.999999999767",NA,NA,"survey-text",265,2436894,"0.0-17.0-3.3",11298,"ListB","woman","english",NA,NA,NA,NA,"{""Q0"":""Luke is praising Jane.""}","<img src='gifs/ChineseGender1a.gif' style='height:400px;''></img>","praising","is praising","english",NA
"null","<div style=""font-size:60px;"">+</div>",NA,"html-keyboard-response",266,2437395,"0.0-17.0-0.4",11298,"ListB","woman","english",NA,NA,NA,"null",NA,NA,NA,NA,NA,NA
"null","<img src='gifs/ChineseGender2b.gif' style='height:400px;''></img>",NA,"html-keyboard-response",267,2439397,"0.0-17.0-1.4",11298,"ListB","woman","english",NA,NA,NA,"null",NA,NA,NA,NA,NA,NA
"null","is employing",NA,"html-keyboard-response",268,2442399,"0.0-17.0-2.4",11298,"ListB","woman","english",NA,NA,NA,"null",NA,NA,NA,NA,NA,NA
"7634",NA,NA,"survey-text",269,2450044,"0.0-17.0-3.4",11298,"ListB","woman","english",NA,NA,NA,NA,"{""Q0"":""Luke is employing Ruth.""}","<img src='gifs/ChineseGender2b.gif' style='height:400px;''></img>","employing","is employing","english",NA
"null","<div style=""font-size:60px;"">+</div>",NA,"html-keyboard-response",270,2450545,"0.0-17.0-0.5",11298,"ListB","woman","english",NA,NA,NA,"null",NA,NA,NA,NA,NA,NA
"null","<img src='gifs/MaleRace4a.gif' style='height:400px;''></img>",NA,"html-keyboard-response",271,2452547,"0.0-17.0-1.5",11298,"ListB","woman","english",NA,NA,NA,"null",NA,NA,NA,NA,NA,NA
"null","is facing",NA,"html-keyboard-response",272,2455549,"0.0-17.0-2.5",11298,"ListB","woman","english",NA,NA,NA,"null",NA,NA,NA,NA,NA,NA
"4987",NA,NA,"survey-text",273,2460543,"0.0-17.0-3.5",11298,"ListB","woman","english",NA,NA,NA,NA,"{""Q0"":""Mike is facing Dave.""}","<img src='gifs/MaleRace4a.gif' style='height:400px;''></img>","facing","is facing","english",NA
"null","<div style=""font-size:60px;"">+</div>",NA,"html-keyboard-response",274,2461046,"0.0-17.0-0.6",11298,"ListB","woman","english",NA,NA,NA,"null",NA,NA,NA,NA,NA,NA
"null","<img src='gifs/FemaleRace1b.gif' style='height:400px;''></img>",NA,"html-keyboard-response",275,2463048,"0.0-17.0-1.6",11298,"ListB","woman","english",NA,NA,NA,"null",NA,NA,NA,NA,NA,NA
"null","is contacting",NA,"html-keyboard-response",276,2466053,"0.0-17.0-2.6",11298,"ListB","woman","english",NA,NA,NA,"null",NA,NA,NA,NA,NA,NA
"6197.999999999767",NA,NA,"survey-text",277,2472260,"0.0-17.0-3.6",11298,"ListB","woman","english",NA,NA,NA,NA,"{""Q0"":""Jane is contacting Beth.""}","<img src='gifs/FemaleRace1b.gif' style='height:400px;''></img>","contacting","is contacting","english",NA
"null","<div style=""font-size:60px;"">+</div>",NA,"html-keyboard-response",278,2472762,"0.0-17.0-0.7",11298,"ListB","woman","english",NA,NA,NA,"null",NA,NA,NA,NA,NA,NA
"null","<img src='gifs/FemaleRace4b.gif' style='height:400px;''></img>",NA,"html-keyboard-response",279,2474764,"0.0-17.0-1.7",11298,"ListB","woman","english",NA,NA,NA,"null",NA,NA,NA,NA,NA,NA
"null","is contacting",NA,"html-keyboard-response",280,2477766,"0.0-17.0-2.7",11298,"ListB","woman","english",NA,NA,NA,"null",NA,NA,NA,NA,NA,NA
"6587.999999999767",NA,NA,"survey-text",281,2484361,"0.0-17.0-3.7",11298,"ListB","woman","english",NA,NA,NA,NA,"{""Q0"":""Kate is contacting Ruth.""}","<img src='gifs/FemaleRace4b.gif' style='height:400px;''></img>","contacting","is contacting","english",NA
"null","<div style=""font-size:60px;"">+</div>",NA,"html-keyboard-response",282,2484863,"0.0-17.0-0.8",11298,"ListB","woman","english",NA,NA,NA,"null",NA,NA,NA,NA,NA,NA
"null","<img src='gifs/MaleRace3a.gif' style='height:400px;''></img>",NA,"html-keyboard-response",283,2486866,"0.0-17.0-1.8",11298,"ListB","woman","english",NA,NA,NA,"null",NA,NA,NA,NA,NA,NA
"null","is touching",NA,"html-keyboard-response",284,2489868,"0.0-17.0-2.8",11298,"ListB","woman","english",NA,NA,NA,"null",NA,NA,NA,NA,NA,NA
"8184.999999999767",NA,NA,"survey-text",285,2498062,"0.0-17.0-3.8",11298,"ListB","woman","english",NA,NA,NA,NA,"{""Q0"":""Fred is touching Dave.""}","<img src='gifs/MaleRace3a.gif' style='height:400px;''></img>","touching","is touching","english",NA
"null","<div style=""font-size:60px;"">+</div>",NA,"html-keyboard-response",286,2498563,"0.0-17.0-0.9",11298,"ListB","woman","english",NA,NA,NA,"null",NA,NA,NA,NA,NA,NA
"null","<img src='gifs/FemaleRace3a.gif' style='height:400px;''></img>",NA,"html-keyboard-response",287,2500565,"0.0-17.0-1.9",11298,"ListB","woman","english",NA,NA,NA,"null",NA,NA,NA,NA,NA,NA
"null","is praising",NA,"html-keyboard-response",288,2503567,"0.0-17.0-2.9",11298,"ListB","woman","english",NA,NA,NA,"null",NA,NA,NA,NA,NA,NA
"9822",NA,NA,"survey-text",289,2513396,"0.0-17.0-3.9",11298,"ListB","woman","english",NA,NA,NA,NA,"{""Q0"":""Beth is praising Ruth.""}","<img src='gifs/FemaleRace3a.gif' style='height:400px;''></img>","praising","is praising","english",NA
"null","<div style=""font-size:60px;"">+</div>",NA,"html-keyboard-response",290,2513898,"0.0-17.0-0.10",11298,"ListB","woman","english",NA,NA,NA,"null",NA,NA,NA,NA,NA,NA
"null","<img src='gifs/BlackGender3b.gif' style='height:400px;''></img>",NA,"html-keyboard-response",291,2515901,"0.0-17.0-1.10",11298,"ListB","woman","english",NA,NA,NA,"null",NA,NA,NA,NA,NA,NA
"null","is introducing",NA,"html-keyboard-response",292,2518903,"0.0-17.0-2.10",11298,"ListB","woman","english",NA,NA,NA,"null",NA,NA,NA,NA,NA,NA
"6668",NA,NA,"survey-text",293,2525581,"0.0-17.0-3.10",11298,"ListB","woman","english",NA,NA,NA,NA,"{""Q0"":""Fred is introducing Kate.""}","<img src='gifs/BlackGender3b.gif' style='height:400px;''></img>","introducing","is introducing","english",NA
"null","<div style=""font-size:60px;"">+</div>",NA,"html-keyboard-response",294,2526083,"0.0-17.0-0.11",11298,"ListB","woman","english",NA,NA,NA,"null",NA,NA,NA,NA,NA,NA
"null","<img src='gifs/FemaleRace4a.gif' style='height:400px;''></img>",NA,"html-keyboard-response",295,2528084,"0.0-17.0-1.11",11298,"ListB","woman","english",NA,NA,NA,"null",NA,NA,NA,NA,NA,NA
"null","is accompanying",NA,"html-keyboard-response",296,2531086,"0.0-17.0-2.11",11298,"ListB","woman","english",NA,NA,NA,"null",NA,NA,NA,NA,NA,NA
"8531",NA,NA,"survey-text",297,2539628,"0.0-17.0-3.11",11298,"ListB","woman","english",NA,NA,NA,NA,"{""Q0"":""Kate is accompanying Ruth.""}","<img src='gifs/FemaleRace4a.gif' style='height:400px;''></img>","accompanying","is accompanying","english",NA
"null","<div style=""font-size:60px;"">+</div>",NA,"html-keyboard-response",298,2540130,"0.0-17.0-0.12",11298,"ListB","woman","english",NA,NA,NA,"null",NA,NA,NA,NA,NA,NA
"null","<img src='gifs/BlackGender3a.gif' style='height:400px;''></img>",NA,"html-keyboard-response",299,2542132,"0.0-17.0-1.12",11298,"ListB","woman","english",NA,NA,NA,"null",NA,NA,NA,NA,NA,NA
"null","is walking towards",NA,"html-keyboard-response",300,2545134,"0.0-17.0-2.12",11298,"ListB","woman","english",NA,NA,NA,"null",NA,NA,NA,NA,NA,NA
"7303",NA,NA,"survey-text",301,2552444,"0.0-17.0-3.12",11298,"ListB","woman","english",NA,NA,NA,NA,"{""Q0"":""Fred is walking towards Kate.""}","<img src='gifs/BlackGender3a.gif' style='height:400px;''></img>","walking towards","is walking towards","english",NA
"null","<div style=""font-size:60px;"">+</div>",NA,"html-keyboard-response",302,2552946,"0.0-17.0-0.13",11298,"ListB","woman","english",NA,NA,NA,"null",NA,NA,NA,NA,NA,NA
"null","<img src='gifs/BlackGender4b.gif' style='height:400px;''></img>",NA,"html-keyboard-response",303,2554948,"0.0-17.0-1.13",11298,"ListB","woman","english",NA,NA,NA,"null",NA,NA,NA,NA,NA,NA
"null","is following",NA,"html-keyboard-response",304,2557950,"0.0-17.0-2.13",11298,"ListB","woman","english",NA,NA,NA,"null",NA,NA,NA,NA,NA,NA
"5837",NA,NA,"survey-text",305,2563794,"0.0-17.0-3.13",11298,"ListB","woman","english",NA,NA,NA,NA,"{""Q0"":""Mike is following Kate.""}","<img src='gifs/BlackGender4b.gif' style='height:400px;''></img>","following","is following","english",NA
"null","<div style=""font-size:60px;"">+</div>",NA,"html-keyboard-response",306,2564297,"0.0-17.0-0.14",11298,"ListB","woman","english",NA,NA,NA,"null",NA,NA,NA,NA,NA,NA
"null","<img src='gifs/BlackGender4a.gif' style='height:400px;''></img>",NA,"html-keyboard-response",307,2566299,"0.0-17.0-1.14",11298,"ListB","woman","english",NA,NA,NA,"null",NA,NA,NA,NA,NA,NA
"null","is accompanying",NA,"html-keyboard-response",308,2569305,"0.0-17.0-2.14",11298,"ListB","woman","english",NA,NA,NA,"null",NA,NA,NA,NA,NA,NA
"8199.000000000233",NA,NA,"survey-text",309,2577511,"0.0-17.0-3.14",11298,"ListB","woman","english",NA,NA,NA,NA,"{""Q0"":""Mike is accompanying Kate.""}","<img src='gifs/BlackGender4a.gif' style='height:400px;''></img>","accompanying","is accompanying","english",NA
"null","<div style=""font-size:60px;"">+</div>",NA,"html-keyboard-response",310,2578013,"0.0-17.0-0.15",11298,"ListB","woman","english",NA,NA,NA,"null",NA,NA,NA,NA,NA,NA
"null","<img src='gifs/BlackGender2a.gif' style='height:400px;''></img>",NA,"html-keyboard-response",311,2580015,"0.0-17.0-1.15",11298,"ListB","woman","english",NA,NA,NA,"null",NA,NA,NA,NA,NA,NA
"null","is praising",NA,"html-keyboard-response",312,2583016,"0.0-17.0-2.15",11298,"ListB","woman","english",NA,NA,NA,"null",NA,NA,NA,NA,NA,NA
"7705",NA,NA,"survey-text",313,2590729,"0.0-17.0-3.15",11298,"ListB","woman","english",NA,NA,NA,NA,"{""Q0"":""Mike is praising Beth.""}","<img src='gifs/BlackGender2a.gif' style='height:400px;''></img>","praising","is praising","english",NA
"null","<div style=""font-size:60px;"">+</div>",NA,"html-keyboard-response",314,2591230,"0.0-17.0-0.16",11298,"ListB","woman","english",NA,NA,NA,"null",NA,NA,NA,NA,NA,NA
"null","<img src='gifs/BlackGender4b.gif' style='height:400px;''></img>",NA,"html-keyboard-response",315,2593232,"0.0-17.0-1.16",11298,"ListB","woman","english",NA,NA,NA,"null",NA,NA,NA,NA,NA,NA
"null","is contacting",NA,"html-keyboard-response",316,2596234,"0.0-17.0-2.16",11298,"ListB","woman","english",NA,NA,NA,"null",NA,NA,NA,NA,NA,NA
"6503.000000000233",NA,NA,"survey-text",317,2602746,"0.0-17.0-3.16",11298,"ListB","woman","english",NA,NA,NA,NA,"{""Q0"":""Kate is contacting Mike.""}","<img src='gifs/BlackGender4b.gif' style='height:400px;''></img>","contacting","is contacting","english",NA
"null","<div style=""font-size:60px;"">+</div>",NA,"html-keyboard-response",318,2603247,"0.0-17.0-0.17",11298,"ListB","woman","english",NA,NA,NA,"null",NA,NA,NA,NA,NA,NA
"null","<img src='gifs/MaleRace1b.gif' style='height:400px;''></img>",NA,"html-keyboard-response",319,2605249,"0.0-17.0-1.17",11298,"ListB","woman","english",NA,NA,NA,"null",NA,NA,NA,NA,NA,NA
"null","is promising",NA,"html-keyboard-response",320,2608250,"0.0-17.0-2.17",11298,"ListB","woman","english",NA,NA,NA,"null",NA,NA,NA,NA,NA,NA
"9071",NA,NA,"survey-text",321,2617329,"0.0-17.0-3.17",11298,"ListB","woman","english",NA,NA,NA,NA,"{""Q0"":""Luke is promising Fred.""}","<img src='gifs/MaleRace1b.gif' style='height:400px;''></img>","promising","is promising","english",NA
"2795","<p>Thank you for completing that task.</p><p>The final part of this session is a short questionnaire.</p><p>Press Continue.</p>",0,"html-button-response",322,2620126,"0.0-18.0",11298,"ListB","woman","english",NA,NA,NA,NA,NA,NA,NA,NA,NA,NA
"70018",NA,NA,"survey-text",323,2691162,"0.0-19.0",11298,"ListB","woman","english",NA,NA,NA,NA,"{""Q0"":""23"",""Q1"":""Chinese"",""Q2"":""English"",""Q3"":""Australia"",""Q4"":""Chinese"",""Q5"":""yellow race"",""Q6"":""female""}",NA,NA,NA,NA,"demographics"
"5478","<p>Have you lived in the UK for the last 5 years or more?</p>",1,"html-button-response",324,2696643,"0.0-20.0",11298,"ListB","woman","english",NA,NA,NA,NA,NA,NA,NA,NA,NA,"fiveyears"
"7261",NA,NA,"external-html",325,2706193,"0.0-21.0",11298,"ListB","woman","english","debrief.html",NA,NA,NA,NA,NA,NA,NA,NA,NA
"30347",NA,NA,"survey-text",326,2736545,"0.0-22.0",11298,"ListB","woman","english",NA,NA,NA,NA,"{""Q0"":""SW_E_F_B5""}",NA,NA,NA,NA,"worker_id"
