"rt","stimulus","button_pressed","trial_type","trial_index","time_elapsed","internal_node_id","subject","list","ppt_gender","ppt_language","ptptID","url","first_guess","correct","key_press","responses","image","verb","phrase","condition","test_part"
"7532.899999976158","Welcome to the experiment. Press Continue to begin.",0,"html-button-response",0,7534,"0.0-0.0",13413,"ListA","man","chinese","SW_C_M_A6",NA,NA,NA,NA,NA,NA,NA,NA,NA,NA
"54803.5",NA,NA,"external-html",1,63627,"0.0-1.0",13413,"ListA","man","chinese","SW_C_M_A6","consent.html",NA,NA,NA,NA,NA,NA,NA,NA,NA
"150609.59999996424","<p>在下一页中，您将看到8个人物肖像和他们各自的名字。</p><p>请花费几分钟的时间记住这些人物及其所对应的名字。</p><p>之后的实验中需要您对人物的名字做出回忆，</p><p>因此在实验开始前请确保您已 经完全记住这些人物及其所对应的名字。</p><p><strong>然后您将完成一个测试以检验您对人物和名字的记忆。</strong></p><p>完成此记忆测试后，您将正式进入实验。</p><p>准备好了吗？</p>",0,"html-button-response",2,214237,"0.0-2.0",13413,"ListA","man","chinese","SW_C_M_A6",NA,NA,NA,NA,NA,NA,NA,NA,NA,NA
"148302.80000001192","<img src='img/portrait_matrix_listA_chinese.jpg' style='width:900px;height:500px;''></img><p>如果您已经记住了所有的人物和名字，请点击继续。</p><p><strong>请注意：您对先前记忆的面孔将在本实验中被测试5次。</strong></p>",0,"html-button-response",3,363541,"0.0-3.0-0.0",13413,"ListA","man","chinese","SW_C_M_A6",NA,NA,NA,NA,NA,NA,NA,NA,NA,NA
"8471.5","<img src=""portrait/BW2.jpg""style=""height:400px;""></img>",2,"html-button-response",4,373014,"0.0-3.0-1.0",13413,"ListA","man","chinese","SW_C_M_A6",NA,"true",2,NA,NA,NA,NA,NA,NA,NA
"null","正确",NA,"html-keyboard-response",5,374531,"0.0-3.0-2.0-0.0",13413,"ListA","man","chinese","SW_C_M_A6",NA,NA,NA,"null",NA,NA,NA,NA,NA,NA
"10589.799999952316","<img src=""portrait/WM1.jpg""style=""height:400px;""></img>",6,"html-button-response",6,385121,"0.0-3.0-4.0",13413,"ListA","man","chinese","SW_C_M_A6",NA,"true",6,NA,NA,NA,NA,NA,NA,NA
"null","正确",NA,"html-keyboard-response",7,386637,"0.0-3.0-5.0-0.0",13413,"ListA","man","chinese","SW_C_M_A6",NA,NA,NA,"null",NA,NA,NA,NA,NA,NA
"4765.899999976158","<img src=""portrait/BM1.jpg""style=""height:400px;""></img>",4,"html-button-response",8,391404,"0.0-3.0-7.0",13413,"ListA","man","chinese","SW_C_M_A6",NA,"true",4,NA,NA,NA,NA,NA,NA,NA
"null","正确",NA,"html-keyboard-response",9,392915,"0.0-3.0-8.0-0.0",13413,"ListA","man","chinese","SW_C_M_A6",NA,NA,NA,"null",NA,NA,NA,NA,NA,NA
"8615.900000035763","<img src=""portrait/BM2.jpg""style=""height:400px;""></img>",5,"html-button-response",10,401532,"0.0-3.0-10.0",13413,"ListA","man","chinese","SW_C_M_A6",NA,"true",5,NA,NA,NA,NA,NA,NA,NA
"null","正确",NA,"html-keyboard-response",11,403052,"0.0-3.0-11.0-0.0",13413,"ListA","man","chinese","SW_C_M_A6",NA,NA,NA,"null",NA,NA,NA,NA,NA,NA
"2370.600000023842","<img src=""portrait/WW1.jpg""style=""height:400px;""></img>",1,"html-button-response",12,405424,"0.0-3.0-13.0",13413,"ListA","man","chinese","SW_C_M_A6",NA,"true",1,NA,NA,NA,NA,NA,NA,NA
"null","正确",NA,"html-keyboard-response",13,406942,"0.0-3.0-14.0-0.0",13413,"ListA","man","chinese","SW_C_M_A6",NA,NA,NA,"null",NA,NA,NA,NA,NA,NA
"2074.899999976158","<img src=""portrait/WW2.jpg""style=""height:400px;""></img>",3,"html-button-response",14,409018,"0.0-3.0-16.0",13413,"ListA","man","chinese","SW_C_M_A6",NA,"true",3,NA,NA,NA,NA,NA,NA,NA
"null","正确",NA,"html-keyboard-response",15,410527,"0.0-3.0-17.0-0.0",13413,"ListA","man","chinese","SW_C_M_A6",NA,NA,NA,"null",NA,NA,NA,NA,NA,NA
"2288.600000023842","<img src=""portrait/WM2.jpg""style=""height:400px;""></img>",7,"html-button-response",16,412817,"0.0-3.0-19.0",13413,"ListA","man","chinese","SW_C_M_A6",NA,"true",7,NA,NA,NA,NA,NA,NA,NA
"null","正确",NA,"html-keyboard-response",17,414329,"0.0-3.0-20.0-0.0",13413,"ListA","man","chinese","SW_C_M_A6",NA,NA,NA,"null",NA,NA,NA,NA,NA,NA
"12805.399999976158","<img src=""portrait/BW1.jpg""style=""height:400px;""></img>",0,"html-button-response",18,427136,"0.0-3.0-22.0",13413,"ListA","man","chinese","SW_C_M_A6",NA,"true",0,NA,NA,NA,NA,NA,NA,NA
"null","正确",NA,"html-keyboard-response",19,428656,"0.0-3.0-23.0-0.0",13413,"ListA","man","chinese","SW_C_M_A6",NA,NA,NA,"null",NA,NA,NA,NA,NA,NA
"1740","<p>您第一次在8题里答对了 8 题。 请点击继续</p>",0,"html-button-response",20,430396,"0.0-3.0-25.0",13413,"ListA","man","chinese","SW_C_M_A6",NA,NA,NA,NA,NA,NA,NA,NA,NA,NA
"128683","<p>此次实验您将会看到先前记忆任务里的人物照片。</p><p>人物照片消失后您将看到一个动词短语，请正确回忆人物的名字并用特定的 动词短语组成一句完整的句子。</p><p>请在指定的框内输入您的答案。在进入下一题之前请确保您填写了完整的句子。</p><p>人物照片和动词短语只会在屏幕上出现几秒钟，因此请您答题时尽量集中注意力。</p><p>以下是例子。请您在准备好后按下“继续”。</p><img src='img/chinese_speaking_example.jpg' style='width:800px;height:460px;''></img>",0,"html-button-response",21,560088,"0.0-4.0",13413,"ListA","man","chinese","SW_C_M_A6",NA,NA,NA,NA,NA,NA,NA,NA,NA,NA
"7289.699999988079","<p>在实验开始前，将为您展示两个示例实验。</p>",0,"html-button-response",22,568378,"0.0-5.0",13413,"ListA","man","chinese","SW_C_M_A6",NA,NA,NA,NA,NA,NA,NA,NA,NA,NA
"null","<img src='img/meet.gif' style='height:400px;''></img>",NA,"html-keyboard-response",23,571380,"0.0-6.0",13413,"ListA","man","chinese","SW_C_M_A6",NA,NA,NA,"null",NA,NA,NA,NA,NA,NA
"null","<p>正在约见</p>",NA,"html-keyboard-response",24,573382,"0.0-7.0",13413,"ListA","man","chinese","SW_C_M_A6",NA,NA,NA,"null",NA,NA,NA,NA,NA,NA
"10362.099999964237","<p><b>答案:</b> 凯特正在约见贝斯</p>",0,"html-button-response",25,583745,"0.0-8.0",13413,"ListA","man","chinese","SW_C_M_A6",NA,NA,NA,NA,NA,NA,NA,NA,NA,NA
"null","<img src='img/spy.gif' style='height:400px;''></img>",NA,"html-keyboard-response",26,586768,"0.0-9.0",13413,"ListA","man","chinese","SW_C_M_A6",NA,NA,NA,"null",NA,NA,NA,NA,NA,NA
"null","<p>正在监视</p>",NA,"html-keyboard-response",27,588780,"0.0-10.0",13413,"ListA","man","chinese","SW_C_M_A6",NA,NA,NA,"null",NA,NA,NA,NA,NA,NA
"4699.199999988079","<p><b>答案:</b> 卢克正在监视戴夫</p>",0,"html-button-response",28,593479,"0.0-11.0",13413,"ListA","man","chinese","SW_C_M_A6",NA,NA,NA,NA,NA,NA,NA,NA,NA,NA
"70614.39999997616","<p>准备好开始了吗？</p><br><p><strong>请记住，您的答案需是一句完整的句子</strong></p><p><strong>，并用给到的图片人物和动词短语作答。</strong></p><p><strong>只有正确并完整完成实验才可获得报酬。</strong></p><p><strong> 您不需要加入任何标点符号。</strong></p><br><p>请按 ‘继续’ 键开始。</p>",0,"html-button-response",29,665103,"0.0-12.0",13413,"ListA","man","chinese","SW_C_M_A6",NA,NA,NA,NA,NA,NA,NA,NA,NA,NA
"null","<div style=""font-size:60px;"">+</div>",NA,"html-keyboard-response",30,666610,"0.0-13.0-0.0",13413,"ListA","man","chinese","SW_C_M_A6",NA,NA,NA,"null",NA,NA,NA,NA,NA,NA
"null","<img src='gifs/FemaleRace2b.gif' style='height:400px;''></img>",NA,"html-keyboard-response",31,668622,"0.0-13.0-1.0",13413,"ListA","man","chinese","SW_C_M_A6",NA,NA,NA,"null",NA,NA,NA,NA,NA,NA
"null","正在表扬",NA,"html-keyboard-response",32,671622,"0.0-13.0-2.0",13413,"ListA","man","chinese","SW_C_M_A6",NA,NA,NA,"null",NA,NA,NA,NA,NA,NA
"31587.099999964237",NA,NA,"survey-text",33,703212,"0.0-13.0-3.0",13413,"ListA","man","chinese","SW_C_M_A6",NA,NA,NA,NA,"{""Q0"":""霍普正在表扬凯特""}","<img src='gifs/FemaleRace2b.gif' style='height:400px;''></img>","表扬","正在表扬","chinese",NA
"null","<div style=""font-size:60px;"">+</div>",NA,"html-keyboard-response",34,703724,"0.0-13.0-0.1",13413,"ListA","man","chinese","SW_C_M_A6",NA,NA,NA,"null",NA,NA,NA,NA,NA,NA
"null","<img src='gifs/FemaleRace2a.gif' style='height:400px;''></img>",NA,"html-keyboard-response",35,705737,"0.0-13.0-1.1",13413,"ListA","man","chinese","SW_C_M_A6",NA,NA,NA,"null",NA,NA,NA,NA,NA,NA
"null","正在说服",NA,"html-keyboard-response",36,708738,"0.0-13.0-2.1",13413,"ListA","man","chinese","SW_C_M_A6",NA,NA,NA,"null",NA,NA,NA,NA,NA,NA
"30061.099999964237",NA,NA,"survey-text",37,738800,"0.0-13.0-3.1",13413,"ListA","man","chinese","SW_C_M_A6",NA,NA,NA,NA,"{""Q0"":""霍普正在说服凯特""}","<img src='gifs/FemaleRace2a.gif' style='height:400px;''></img>","说服","正在说服","chinese",NA
"null","<div style=""font-size:60px;"">+</div>",NA,"html-keyboard-response",38,739311,"0.0-13.0-0.2",13413,"ListA","man","chinese","SW_C_M_A6",NA,NA,NA,"null",NA,NA,NA,NA,NA,NA
"null","<img src='gifs/ChineseGender3b.gif' style='height:400px;''></img>",NA,"html-keyboard-response",39,741326,"0.0-13.0-1.2",13413,"ListA","man","chinese","SW_C_M_A6",NA,NA,NA,"null",NA,NA,NA,NA,NA,NA
"null","正在聆听",NA,"html-keyboard-response",40,744327,"0.0-13.0-2.2",13413,"ListA","man","chinese","SW_C_M_A6",NA,NA,NA,"null",NA,NA,NA,NA,NA,NA
"31283.600000023842",NA,NA,"survey-text",41,775612,"0.0-13.0-3.2",13413,"ListA","man","chinese","SW_C_M_A6",NA,NA,NA,NA,"{""Q0"":""贝斯正在聆听麦克""}","<img src='gifs/ChineseGender3b.gif' style='height:400px;''></img>","聆听","正在聆听","chinese",NA
"null","<div style=""font-size:60px;"">+</div>",NA,"html-keyboard-response",42,776122,"0.0-13.0-0.3",13413,"ListA","man","chinese","SW_C_M_A6",NA,NA,NA,"null",NA,NA,NA,NA,NA,NA
"null","<img src='gifs/BlackGender2a.gif' style='height:400px;''></img>",NA,"html-keyboard-response",43,778137,"0.0-13.0-1.3",13413,"ListA","man","chinese","SW_C_M_A6",NA,NA,NA,"null",NA,NA,NA,NA,NA,NA
"null","正在提到",NA,"html-keyboard-response",44,781138,"0.0-13.0-2.3",13413,"ListA","man","chinese","SW_C_M_A6",NA,NA,NA,"null",NA,NA,NA,NA,NA,NA
"58483.30000001192",NA,NA,"survey-text",45,839622,"0.0-13.0-3.3",13413,"ListA","man","chinese","SW_C_M_A6",NA,NA,NA,NA,"{""Q0"":""露丝正在倾听戴维""}","<img src='gifs/BlackGender2a.gif' style='height:400px;''></img>","提到","正在提到","chinese",NA
"null","<div style=""font-size:60px;"">+</div>",NA,"html-keyboard-response",46,840132,"0.0-13.0-0.4",13413,"ListA","man","chinese","SW_C_M_A6",NA,NA,NA,"null",NA,NA,NA,NA,NA,NA
"null","<img src='gifs/BlackGender1a.gif' style='height:400px;''></img>",NA,"html-keyboard-response",47,842135,"0.0-13.0-1.4",13413,"ListA","man","chinese","SW_C_M_A6",NA,NA,NA,"null",NA,NA,NA,NA,NA,NA
"null","正在聘用",NA,"html-keyboard-response",48,845149,"0.0-13.0-2.4",13413,"ListA","man","chinese","SW_C_M_A6",NA,NA,NA,"null",NA,NA,NA,NA,NA,NA
"38827.59999996424",NA,NA,"survey-text",49,883978,"0.0-13.0-3.4",13413,"ListA","man","chinese","SW_C_M_A6",NA,NA,NA,NA,"{""Q0"":""露丝正在聘用卢克""}","<img src='gifs/BlackGender1a.gif' style='height:400px;''></img>","聘用","正在聘用","chinese",NA
"null","<div style=""font-size:60px;"">+</div>",NA,"html-keyboard-response",50,884489,"0.0-13.0-0.5",13413,"ListA","man","chinese","SW_C_M_A6",NA,NA,NA,"null",NA,NA,NA,NA,NA,NA
"null","<img src='gifs/BlackGender3a.gif' style='height:400px;''></img>",NA,"html-keyboard-response",51,886497,"0.0-13.0-1.5",13413,"ListA","man","chinese","SW_C_M_A6",NA,NA,NA,"null",NA,NA,NA,NA,NA,NA
"null","正在跟随",NA,"html-keyboard-response",52,889503,"0.0-13.0-2.5",13413,"ListA","man","chinese","SW_C_M_A6",NA,NA,NA,"null",NA,NA,NA,NA,NA,NA
"15982.800000011921",NA,NA,"survey-text",53,905487,"0.0-13.0-3.5",13413,"ListA","man","chinese","SW_C_M_A6",NA,NA,NA,NA,"{""Q0"":""霍普正在跟随卢克""}","<img src='gifs/BlackGender3a.gif' style='height:400px;''></img>","跟随","正在跟随","chinese",NA
"null","<div style=""font-size:60px;"">+</div>",NA,"html-keyboard-response",54,905996,"0.0-13.0-0.6",13413,"ListA","man","chinese","SW_C_M_A6",NA,NA,NA,"null",NA,NA,NA,NA,NA,NA
"null","<img src='gifs/ChineseGender1a.gif' style='height:400px;''></img>",NA,"html-keyboard-response",55,908011,"0.0-13.0-1.6",13413,"ListA","man","chinese","SW_C_M_A6",NA,NA,NA,"null",NA,NA,NA,NA,NA,NA
"null","正在说服",NA,"html-keyboard-response",56,911015,"0.0-13.0-2.6",13413,"ListA","man","chinese","SW_C_M_A6",NA,NA,NA,"null",NA,NA,NA,NA,NA,NA
"16418.5",NA,NA,"survey-text",57,927434,"0.0-13.0-3.6",13413,"ListA","man","chinese","SW_C_M_A6",NA,NA,NA,NA,"{""Q0"":""弗雷正在说服凯特""}","<img src='gifs/ChineseGender1a.gif' style='height:400px;''></img>","说服","正在说服","chinese",NA
"null","<div style=""font-size:60px;"">+</div>",NA,"html-keyboard-response",58,927945,"0.0-13.0-0.7",13413,"ListA","man","chinese","SW_C_M_A6",NA,NA,NA,"null",NA,NA,NA,NA,NA,NA
"null","<img src='gifs/ChineseGender3a.gif' style='height:400px;''></img>",NA,"html-keyboard-response",59,929949,"0.0-13.0-1.7",13413,"ListA","man","chinese","SW_C_M_A6",NA,NA,NA,"null",NA,NA,NA,NA,NA,NA
"null","正在加入",NA,"html-keyboard-response",60,932951,"0.0-13.0-2.7",13413,"ListA","man","chinese","SW_C_M_A6",NA,NA,NA,"null",NA,NA,NA,NA,NA,NA
"12836.5",NA,NA,"survey-text",61,945789,"0.0-13.0-3.7",13413,"ListA","man","chinese","SW_C_M_A6",NA,NA,NA,NA,"{""Q0"":""麦克正在加入贝斯""}","<img src='gifs/ChineseGender3a.gif' style='height:400px;''></img>","加入","正在加入","chinese",NA
"null","<div style=""font-size:60px;"">+</div>",NA,"html-keyboard-response",62,946299,"0.0-13.0-0.8",13413,"ListA","man","chinese","SW_C_M_A6",NA,NA,NA,"null",NA,NA,NA,NA,NA,NA
"null","<img src='gifs/FemaleRace3a.gif' style='height:400px;''></img>",NA,"html-keyboard-response",63,948314,"0.0-13.0-1.8",13413,"ListA","man","chinese","SW_C_M_A6",NA,NA,NA,"null",NA,NA,NA,NA,NA,NA
"null","正在陪伴",NA,"html-keyboard-response",64,951320,"0.0-13.0-2.8",13413,"ListA","man","chinese","SW_C_M_A6",NA,NA,NA,"null",NA,NA,NA,NA,NA,NA
"14044.099999964237",NA,NA,"survey-text",65,965365,"0.0-13.0-3.8",13413,"ListA","man","chinese","SW_C_M_A6",NA,NA,NA,NA,"{""Q0"":""霍普正在陪伴贝斯""}","<img src='gifs/FemaleRace3a.gif' style='height:400px;''></img>","陪伴","正在陪伴","chinese",NA
"null","<div style=""font-size:60px;"">+</div>",NA,"html-keyboard-response",66,965877,"0.0-13.0-0.9",13413,"ListA","man","chinese","SW_C_M_A6",NA,NA,NA,"null",NA,NA,NA,NA,NA,NA
"null","<img src='gifs/MaleRace4b.gif' style='height:400px;''></img>",NA,"html-keyboard-response",67,967878,"0.0-13.0-1.9",13413,"ListA","man","chinese","SW_C_M_A6",NA,NA,NA,"null",NA,NA,NA,NA,NA,NA
"null","正在触摸",NA,"html-keyboard-response",68,970882,"0.0-13.0-2.9",13413,"ListA","man","chinese","SW_C_M_A6",NA,NA,NA,"null",NA,NA,NA,NA,NA,NA
"32653.69999998808",NA,NA,"survey-text",69,1003537,"0.0-13.0-3.9",13413,"ListA","man","chinese","SW_C_M_A6",NA,NA,NA,NA,"{""Q0"":""戴夫正在触摸麦克""}","<img src='gifs/MaleRace4b.gif' style='height:400px;''></img>","触摸","正在触摸","chinese",NA
"null","<div style=""font-size:60px;"">+</div>",NA,"html-keyboard-response",70,1004045,"0.0-13.0-0.10",13413,"ListA","man","chinese","SW_C_M_A6",NA,NA,NA,"null",NA,NA,NA,NA,NA,NA
"null","<img src='gifs/BlackGender1a.gif' style='height:400px;''></img>",NA,"html-keyboard-response",71,1006047,"0.0-13.0-1.10",13413,"ListA","man","chinese","SW_C_M_A6",NA,NA,NA,"null",NA,NA,NA,NA,NA,NA
"null","正在提到",NA,"html-keyboard-response",72,1009053,"0.0-13.0-2.10",13413,"ListA","man","chinese","SW_C_M_A6",NA,NA,NA,"null",NA,NA,NA,NA,NA,NA
"18867.599999964237",NA,NA,"survey-text",73,1027922,"0.0-13.0-3.10",13413,"ListA","man","chinese","SW_C_M_A6",NA,NA,NA,NA,"{""Q0"":""卢克正在提到露丝""}","<img src='gifs/BlackGender1a.gif' style='height:400px;''></img>","提到","正在提到","chinese",NA
"null","<div style=""font-size:60px;"">+</div>",NA,"html-keyboard-response",74,1028437,"0.0-13.0-0.11",13413,"ListA","man","chinese","SW_C_M_A6",NA,NA,NA,"null",NA,NA,NA,NA,NA,NA
"null","<img src='gifs/MaleRace2b.gif' style='height:400px;''></img>",NA,"html-keyboard-response",75,1030449,"0.0-13.0-1.11",13413,"ListA","man","chinese","SW_C_M_A6",NA,NA,NA,"null",NA,NA,NA,NA,NA,NA
"null","正在联系",NA,"html-keyboard-response",76,1033454,"0.0-13.0-2.11",13413,"ListA","man","chinese","SW_C_M_A6",NA,NA,NA,"null",NA,NA,NA,NA,NA,NA
"13847.100000023842",NA,NA,"survey-text",77,1047302,"0.0-13.0-3.11",13413,"ListA","man","chinese","SW_C_M_A6",NA,NA,NA,NA,"{""Q0"":""戴夫正在联系弗雷""}","<img src='gifs/MaleRace2b.gif' style='height:400px;''></img>","联系","正在联系","chinese",NA
"null","<div style=""font-size:60px;"">+</div>",NA,"html-keyboard-response",78,1047817,"0.0-13.0-0.12",13413,"ListA","man","chinese","SW_C_M_A6",NA,NA,NA,"null",NA,NA,NA,NA,NA,NA
"null","<img src='gifs/FemaleRace1a.gif' style='height:400px;''></img>",NA,"html-keyboard-response",79,1049829,"0.0-13.0-1.12",13413,"ListA","man","chinese","SW_C_M_A6",NA,NA,NA,"null",NA,NA,NA,NA,NA,NA
"null","正在加入",NA,"html-keyboard-response",80,1052835,"0.0-13.0-2.12",13413,"ListA","man","chinese","SW_C_M_A6",NA,NA,NA,"null",NA,NA,NA,NA,NA,NA
"17150.099999964237",NA,NA,"survey-text",81,1069986,"0.0-13.0-3.12",13413,"ListA","man","chinese","SW_C_M_A6",NA,NA,NA,NA,"{""Q0"":""霍普正在加入凯特""}","<img src='gifs/FemaleRace1a.gif' style='height:400px;''></img>","加入","正在加入","chinese",NA
"null","<div style=""font-size:60px;"">+</div>",NA,"html-keyboard-response",82,1070488,"0.0-13.0-0.13",13413,"ListA","man","chinese","SW_C_M_A6",NA,NA,NA,"null",NA,NA,NA,NA,NA,NA
"null","<img src='gifs/FemaleRace4b.gif' style='height:400px;''></img>",NA,"html-keyboard-response",83,1072496,"0.0-13.0-1.13",13413,"ListA","man","chinese","SW_C_M_A6",NA,NA,NA,"null",NA,NA,NA,NA,NA,NA
"null","正在联系",NA,"html-keyboard-response",84,1075505,"0.0-13.0-2.13",13413,"ListA","man","chinese","SW_C_M_A6",NA,NA,NA,"null",NA,NA,NA,NA,NA,NA
"12346.300000011921",NA,NA,"survey-text",85,1087853,"0.0-13.0-3.13",13413,"ListA","man","chinese","SW_C_M_A6",NA,NA,NA,NA,"{""Q0"":""贝斯正在联系霍普""}","<img src='gifs/FemaleRace4b.gif' style='height:400px;''></img>","联系","正在联系","chinese",NA
"null","<div style=""font-size:60px;"">+</div>",NA,"html-keyboard-response",86,1088358,"0.0-13.0-0.14",13413,"ListA","man","chinese","SW_C_M_A6",NA,NA,NA,"null",NA,NA,NA,NA,NA,NA
"null","<img src='gifs/FemaleRace3a.gif' style='height:400px;''></img>",NA,"html-keyboard-response",87,1090361,"0.0-13.0-1.14",13413,"ListA","man","chinese","SW_C_M_A6",NA,NA,NA,"null",NA,NA,NA,NA,NA,NA
"null","正在看着",NA,"html-keyboard-response",88,1093374,"0.0-13.0-2.14",13413,"ListA","man","chinese","SW_C_M_A6",NA,NA,NA,"null",NA,NA,NA,NA,NA,NA
"12526.300000011921",NA,NA,"survey-text",89,1105901,"0.0-13.0-3.14",13413,"ListA","man","chinese","SW_C_M_A6",NA,NA,NA,NA,"{""Q0"":""贝斯正在看着露丝""}","<img src='gifs/FemaleRace3a.gif' style='height:400px;''></img>","看着","正在看着","chinese",NA
"null","<div style=""font-size:60px;"">+</div>",NA,"html-keyboard-response",90,1106414,"0.0-13.0-0.15",13413,"ListA","man","chinese","SW_C_M_A6",NA,NA,NA,"null",NA,NA,NA,NA,NA,NA
"null","<img src='gifs/BlackGender4a.gif' style='height:400px;''></img>",NA,"html-keyboard-response",91,1108426,"0.0-13.0-1.15",13413,"ListA","man","chinese","SW_C_M_A6",NA,NA,NA,"null",NA,NA,NA,NA,NA,NA
"null","正在说服",NA,"html-keyboard-response",92,1111427,"0.0-13.0-2.15",13413,"ListA","man","chinese","SW_C_M_A6",NA,NA,NA,"null",NA,NA,NA,NA,NA,NA
"15499.599999964237",NA,NA,"survey-text",93,1126928,"0.0-13.0-3.15",13413,"ListA","man","chinese","SW_C_M_A6",NA,NA,NA,NA,"{""Q0"":""霍普正在说服戴夫""}","<img src='gifs/BlackGender4a.gif' style='height:400px;''></img>","说服","正在说服","chinese",NA
"null","<div style=""font-size:60px;"">+</div>",NA,"html-keyboard-response",94,1127436,"0.0-13.0-0.16",13413,"ListA","man","chinese","SW_C_M_A6",NA,NA,NA,"null",NA,NA,NA,NA,NA,NA
"null","<img src='gifs/ChineseGender3a.gif' style='height:400px;''></img>",NA,"html-keyboard-response",95,1129437,"0.0-13.0-1.16",13413,"ListA","man","chinese","SW_C_M_A6",NA,NA,NA,"null",NA,NA,NA,NA,NA,NA
"null","正在加入",NA,"html-keyboard-response",96,1132441,"0.0-13.0-2.16",13413,"ListA","man","chinese","SW_C_M_A6",NA,NA,NA,"null",NA,NA,NA,NA,NA,NA
"30935.19999998808",NA,NA,"survey-text",97,1163376,"0.0-13.0-3.16",13413,"ListA","man","chinese","SW_C_M_A6",NA,NA,NA,NA,"{""Q0"":""贝斯正在加入麦克""}","<img src='gifs/ChineseGender3a.gif' style='height:400px;''></img>","加入","正在加入","chinese",NA
"null","<div style=""font-size:60px;"">+</div>",NA,"html-keyboard-response",98,1163883,"0.0-13.0-0.17",13413,"ListA","man","chinese","SW_C_M_A6",NA,NA,NA,"null",NA,NA,NA,NA,NA,NA
"null","<img src='gifs/ChineseGender2a.gif' style='height:400px;''></img>",NA,"html-keyboard-response",99,1165896,"0.0-13.0-1.17",13413,"ListA","man","chinese","SW_C_M_A6",NA,NA,NA,"null",NA,NA,NA,NA,NA,NA
"null","正在走向",NA,"html-keyboard-response",100,1168906,"0.0-13.0-2.17",13413,"ListA","man","chinese","SW_C_M_A6",NA,NA,NA,"null",NA,NA,NA,NA,NA,NA
"11925.099999964237",NA,NA,"survey-text",101,1180833,"0.0-13.0-3.17",13413,"ListA","man","chinese","SW_C_M_A6",NA,NA,NA,NA,"{""Q0"":""弗雷正在走向贝斯""}","<img src='gifs/ChineseGender2a.gif' style='height:400px;''></img>","走向","正在走向","chinese",NA
"30212","<img src='img/portrait_matrix_listA_chinese.jpg' style='width:900px;height:500px;''></img><p>如果您已经记住了所有的人物和名字，请点击继续。</p><p><strong>请注意：您对先前记忆的面孔将在本实验中被测试5次。</strong></p>",0,"html-button-response",102,1211045,"0.0-14.0-0.0",13413,"ListA","man","chinese","SW_C_M_A6",NA,NA,NA,NA,NA,NA,NA,NA,NA,NA
"3920.100000023842","<img src=""portrait/WW1.jpg""style=""height:400px;""></img>",1,"html-button-response",103,1215972,"0.0-14.0-1.0",13413,"ListA","man","chinese","SW_C_M_A6",NA,"true",1,NA,NA,NA,NA,NA,NA,NA
"null","正确",NA,"html-keyboard-response",104,1217489,"0.0-14.0-2.0-0.0",13413,"ListA","man","chinese","SW_C_M_A6",NA,NA,NA,"null",NA,NA,NA,NA,NA,NA
"2698.699999988079","<img src=""portrait/WM1.jpg""style=""height:400px;""></img>",6,"html-button-response",105,1220189,"0.0-14.0-4.0",13413,"ListA","man","chinese","SW_C_M_A6",NA,"true",6,NA,NA,NA,NA,NA,NA,NA
"null","正确",NA,"html-keyboard-response",106,1221706,"0.0-14.0-5.0-0.0",13413,"ListA","man","chinese","SW_C_M_A6",NA,NA,NA,"null",NA,NA,NA,NA,NA,NA
"9440.600000023842","<img src=""portrait/WM2.jpg""style=""height:400px;""></img>",7,"html-button-response",107,1231147,"0.0-14.0-7.0",13413,"ListA","man","chinese","SW_C_M_A6",NA,"true",7,NA,NA,NA,NA,NA,NA,NA
"null","正确",NA,"html-keyboard-response",108,1232649,"0.0-14.0-8.0-0.0",13413,"ListA","man","chinese","SW_C_M_A6",NA,NA,NA,"null",NA,NA,NA,NA,NA,NA
"2402.399999976158","<img src=""portrait/BW2.jpg""style=""height:400px;""></img>",2,"html-button-response",109,1235052,"0.0-14.0-10.0",13413,"ListA","man","chinese","SW_C_M_A6",NA,"true",2,NA,NA,NA,NA,NA,NA,NA
"null","正确",NA,"html-keyboard-response",110,1236554,"0.0-14.0-11.0-0.0",13413,"ListA","man","chinese","SW_C_M_A6",NA,NA,NA,"null",NA,NA,NA,NA,NA,NA
"3976","<img src=""portrait/BM2.jpg""style=""height:400px;""></img>",5,"html-button-response",111,1240531,"0.0-14.0-13.0",13413,"ListA","man","chinese","SW_C_M_A6",NA,"true",5,NA,NA,NA,NA,NA,NA,NA
"null","正确",NA,"html-keyboard-response",112,1242047,"0.0-14.0-14.0-0.0",13413,"ListA","man","chinese","SW_C_M_A6",NA,NA,NA,"null",NA,NA,NA,NA,NA,NA
"3796.400000035763","<img src=""portrait/BM1.jpg""style=""height:400px;""></img>",4,"html-button-response",113,1245844,"0.0-14.0-16.0",13413,"ListA","man","chinese","SW_C_M_A6",NA,"true",4,NA,NA,NA,NA,NA,NA,NA
"null","正确",NA,"html-keyboard-response",114,1247360,"0.0-14.0-17.0-0.0",13413,"ListA","man","chinese","SW_C_M_A6",NA,NA,NA,"null",NA,NA,NA,NA,NA,NA
"2356.199999988079","<img src=""portrait/WW2.jpg""style=""height:400px;""></img>",3,"html-button-response",115,1249717,"0.0-14.0-19.0",13413,"ListA","man","chinese","SW_C_M_A6",NA,"true",3,NA,NA,NA,NA,NA,NA,NA
"null","正确",NA,"html-keyboard-response",116,1251238,"0.0-14.0-20.0-0.0",13413,"ListA","man","chinese","SW_C_M_A6",NA,NA,NA,"null",NA,NA,NA,NA,NA,NA
"3776.5","<img src=""portrait/BW1.jpg""style=""height:400px;""></img>",0,"html-button-response",117,1255016,"0.0-14.0-22.0",13413,"ListA","man","chinese","SW_C_M_A6",NA,"true",0,NA,NA,NA,NA,NA,NA,NA
"null","正确",NA,"html-keyboard-response",118,1256532,"0.0-14.0-23.0-0.0",13413,"ListA","man","chinese","SW_C_M_A6",NA,NA,NA,"null",NA,NA,NA,NA,NA,NA
"2123.900000035763","<p>您第一次在8题里答对了 8 题。 请点击继续</p>",0,"html-button-response",119,1258657,"0.0-14.0-25.0",13413,"ListA","man","chinese","SW_C_M_A6",NA,NA,NA,NA,NA,NA,NA,NA,NA,NA
"null","<div style=""font-size:60px;"">+</div>",NA,"html-keyboard-response",120,1260169,"0.0-15.0-0.0",13413,"ListA","man","chinese","SW_C_M_A6",NA,NA,NA,"null",NA,NA,NA,NA,NA,NA
"null","<img src='gifs/BlackGender4b.gif' style='height:400px;''></img>",NA,"html-keyboard-response",121,1262184,"0.0-15.0-1.0",13413,"ListA","man","chinese","SW_C_M_A6",NA,NA,NA,"null",NA,NA,NA,NA,NA,NA
"null","正在接近",NA,"html-keyboard-response",122,1265191,"0.0-15.0-2.0",13413,"ListA","man","chinese","SW_C_M_A6",NA,NA,NA,"null",NA,NA,NA,NA,NA,NA
"20199.099999964237",NA,NA,"survey-text",123,1285392,"0.0-15.0-3.0",13413,"ListA","man","chinese","SW_C_M_A6",NA,NA,NA,NA,"{""Q0"":""戴夫正在接近露丝""}","<img src='gifs/BlackGender4b.gif' style='height:400px;''></img>","接近","正在接近","chinese",NA
"null","<div style=""font-size:60px;"">+</div>",NA,"html-keyboard-response",124,1285899,"0.0-15.0-0.1",13413,"ListA","man","chinese","SW_C_M_A6",NA,NA,NA,"null",NA,NA,NA,NA,NA,NA
"null","<img src='gifs/FemaleRace1a.gif' style='height:400px;''></img>",NA,"html-keyboard-response",125,1287903,"0.0-15.0-1.1",13413,"ListA","man","chinese","SW_C_M_A6",NA,NA,NA,"null",NA,NA,NA,NA,NA,NA
"null","正在加入",NA,"html-keyboard-response",126,1290906,"0.0-15.0-2.1",13413,"ListA","man","chinese","SW_C_M_A6",NA,NA,NA,"null",NA,NA,NA,NA,NA,NA
"11965",NA,NA,"survey-text",127,1302872,"0.0-15.0-3.1",13413,"ListA","man","chinese","SW_C_M_A6",NA,NA,NA,NA,"{""Q0"":""凯特正在加入露丝""}","<img src='gifs/FemaleRace1a.gif' style='height:400px;''></img>","加入","正在加入","chinese",NA
"null","<div style=""font-size:60px;"">+</div>",NA,"html-keyboard-response",128,1303386,"0.0-15.0-0.2",13413,"ListA","man","chinese","SW_C_M_A6",NA,NA,NA,"null",NA,NA,NA,NA,NA,NA
"null","<img src='gifs/BlackGender2b.gif' style='height:400px;''></img>",NA,"html-keyboard-response",129,1305395,"0.0-15.0-1.2",13413,"ListA","man","chinese","SW_C_M_A6",NA,NA,NA,"null",NA,NA,NA,NA,NA,NA
"null","正在答应",NA,"html-keyboard-response",130,1308396,"0.0-15.0-2.2",13413,"ListA","man","chinese","SW_C_M_A6",NA,NA,NA,"null",NA,NA,NA,NA,NA,NA
"14860.399999976158",NA,NA,"survey-text",131,1323258,"0.0-15.0-3.2",13413,"ListA","man","chinese","SW_C_M_A6",NA,NA,NA,NA,"{""Q0"":""戴夫正在答应露丝""}","<img src='gifs/BlackGender2b.gif' style='height:400px;''></img>","答应","正在答应","chinese",NA
"null","<div style=""font-size:60px;"">+</div>",NA,"html-keyboard-response",132,1323773,"0.0-15.0-0.3",13413,"ListA","man","chinese","SW_C_M_A6",NA,NA,NA,"null",NA,NA,NA,NA,NA,NA
"null","<img src='gifs/MaleRace2a.gif' style='height:400px;''></img>",NA,"html-keyboard-response",133,1325784,"0.0-15.0-1.3",13413,"ListA","man","chinese","SW_C_M_A6",NA,NA,NA,"null",NA,NA,NA,NA,NA,NA
"null","正在陪伴",NA,"html-keyboard-response",134,1328787,"0.0-15.0-2.3",13413,"ListA","man","chinese","SW_C_M_A6",NA,NA,NA,"null",NA,NA,NA,NA,NA,NA
"18182.5",NA,NA,"survey-text",135,1346970,"0.0-15.0-3.3",13413,"ListA","man","chinese","SW_C_M_A6",NA,NA,NA,NA,"{""Q0"":""弗雷正在陪伴戴夫""}","<img src='gifs/MaleRace2a.gif' style='height:400px;''></img>","陪伴","正在陪伴","chinese",NA
"null","<div style=""font-size:60px;"">+</div>",NA,"html-keyboard-response",136,1347479,"0.0-15.0-0.4",13413,"ListA","man","chinese","SW_C_M_A6",NA,NA,NA,"null",NA,NA,NA,NA,NA,NA
"null","<img src='gifs/FemaleRace3b.gif' style='height:400px;''></img>",NA,"html-keyboard-response",137,1349491,"0.0-15.0-1.4",13413,"ListA","man","chinese","SW_C_M_A6",NA,NA,NA,"null",NA,NA,NA,NA,NA,NA
"null","正在聆听",NA,"html-keyboard-response",138,1352506,"0.0-15.0-2.4",13413,"ListA","man","chinese","SW_C_M_A6",NA,NA,NA,"null",NA,NA,NA,NA,NA,NA
"11877.5",NA,NA,"survey-text",139,1364385,"0.0-15.0-3.4",13413,"ListA","man","chinese","SW_C_M_A6",NA,NA,NA,NA,"{""Q0"":""贝斯正在聆听露丝""}","<img src='gifs/FemaleRace3b.gif' style='height:400px;''></img>","聆听","正在聆听","chinese",NA
"null","<div style=""font-size:60px;"">+</div>",NA,"html-keyboard-response",140,1364900,"0.0-15.0-0.5",13413,"ListA","man","chinese","SW_C_M_A6",NA,NA,NA,"null",NA,NA,NA,NA,NA,NA
"null","<img src='gifs/BlackGender1b.gif' style='height:400px;''></img>",NA,"html-keyboard-response",141,1366912,"0.0-15.0-1.5",13413,"ListA","man","chinese","SW_C_M_A6",NA,NA,NA,"null",NA,NA,NA,NA,NA,NA
"null","正在陪伴",NA,"html-keyboard-response",142,1369917,"0.0-15.0-2.5",13413,"ListA","man","chinese","SW_C_M_A6",NA,NA,NA,"null",NA,NA,NA,NA,NA,NA
"10603.699999988079",NA,NA,"survey-text",143,1380521,"0.0-15.0-3.5",13413,"ListA","man","chinese","SW_C_M_A6",NA,NA,NA,NA,"{""Q0"":""卢克正在陪伴露丝""}","<img src='gifs/BlackGender1b.gif' style='height:400px;''></img>","陪伴","正在陪伴","chinese",NA
"null","<div style=""font-size:60px;"">+</div>",NA,"html-keyboard-response",144,1381024,"0.0-15.0-0.6",13413,"ListA","man","chinese","SW_C_M_A6",NA,NA,NA,"null",NA,NA,NA,NA,NA,NA
"null","<img src='gifs/MaleRace2b.gif' style='height:400px;''></img>",NA,"html-keyboard-response",145,1383036,"0.0-15.0-1.6",13413,"ListA","man","chinese","SW_C_M_A6",NA,NA,NA,"null",NA,NA,NA,NA,NA,NA
"null","正在触摸",NA,"html-keyboard-response",146,1386038,"0.0-15.0-2.6",13413,"ListA","man","chinese","SW_C_M_A6",NA,NA,NA,"null",NA,NA,NA,NA,NA,NA
"11011.5",NA,NA,"survey-text",147,1397050,"0.0-15.0-3.6",13413,"ListA","man","chinese","SW_C_M_A6",NA,NA,NA,NA,"{""Q0"":""弗雷正在触摸戴夫""}","<img src='gifs/MaleRace2b.gif' style='height:400px;''></img>","触摸","正在触摸","chinese",NA
"null","<div style=""font-size:60px;"">+</div>",NA,"html-keyboard-response",148,1397565,"0.0-15.0-0.7",13413,"ListA","man","chinese","SW_C_M_A6",NA,NA,NA,"null",NA,NA,NA,NA,NA,NA
"null","<img src='gifs/MaleRace4a.gif' style='height:400px;''></img>",NA,"html-keyboard-response",149,1399566,"0.0-15.0-1.7",13413,"ListA","man","chinese","SW_C_M_A6",NA,NA,NA,"null",NA,NA,NA,NA,NA,NA
"null","正在接近",NA,"html-keyboard-response",150,1402575,"0.0-15.0-2.7",13413,"ListA","man","chinese","SW_C_M_A6",NA,NA,NA,"null",NA,NA,NA,NA,NA,NA
"11527.100000023842",NA,NA,"survey-text",151,1414103,"0.0-15.0-3.7",13413,"ListA","man","chinese","SW_C_M_A6",NA,NA,NA,NA,"{""Q0"":""麦克正在接近戴夫""}","<img src='gifs/MaleRace4a.gif' style='height:400px;''></img>","接近","正在接近","chinese",NA
"null","<div style=""font-size:60px;"">+</div>",NA,"html-keyboard-response",152,1414610,"0.0-15.0-0.8",13413,"ListA","man","chinese","SW_C_M_A6",NA,NA,NA,"null",NA,NA,NA,NA,NA,NA
"null","<img src='gifs/FemaleRace3b.gif' style='height:400px;''></img>",NA,"html-keyboard-response",153,1416626,"0.0-15.0-1.8",13413,"ListA","man","chinese","SW_C_M_A6",NA,NA,NA,"null",NA,NA,NA,NA,NA,NA
"null","正在聆听",NA,"html-keyboard-response",154,1419631,"0.0-15.0-2.8",13413,"ListA","man","chinese","SW_C_M_A6",NA,NA,NA,"null",NA,NA,NA,NA,NA,NA
"11020.5",NA,NA,"survey-text",155,1430652,"0.0-15.0-3.8",13413,"ListA","man","chinese","SW_C_M_A6",NA,NA,NA,NA,"{""Q0"":""露丝正在接近贝斯""}","<img src='gifs/FemaleRace3b.gif' style='height:400px;''></img>","聆听","正在聆听","chinese",NA
"null","<div style=""font-size:60px;"">+</div>",NA,"html-keyboard-response",156,1431155,"0.0-15.0-0.9",13413,"ListA","man","chinese","SW_C_M_A6",NA,NA,NA,"null",NA,NA,NA,NA,NA,NA
"null","<img src='gifs/ChineseGender2a.gif' style='height:400px;''></img>",NA,"html-keyboard-response",157,1433170,"0.0-15.0-1.9",13413,"ListA","man","chinese","SW_C_M_A6",NA,NA,NA,"null",NA,NA,NA,NA,NA,NA
"null","正在介绍",NA,"html-keyboard-response",158,1436177,"0.0-15.0-2.9",13413,"ListA","man","chinese","SW_C_M_A6",NA,NA,NA,"null",NA,NA,NA,NA,NA,NA
"15904.400000035763",NA,NA,"survey-text",159,1452083,"0.0-15.0-3.9",13413,"ListA","man","chinese","SW_C_M_A6",NA,NA,NA,NA,"{""Q0"":""贝斯正在介绍弗雷""}","<img src='gifs/ChineseGender2a.gif' style='height:400px;''></img>","介绍","正在介绍","chinese",NA
"null","<div style=""font-size:60px;"">+</div>",NA,"html-keyboard-response",160,1452589,"0.0-15.0-0.10",13413,"ListA","man","chinese","SW_C_M_A6",NA,NA,NA,"null",NA,NA,NA,NA,NA,NA
"null","<img src='gifs/BlackGender3a.gif' style='height:400px;''></img>",NA,"html-keyboard-response",161,1454597,"0.0-15.0-1.10",13413,"ListA","man","chinese","SW_C_M_A6",NA,NA,NA,"null",NA,NA,NA,NA,NA,NA
"null","正在答应",NA,"html-keyboard-response",162,1457602,"0.0-15.0-2.10",13413,"ListA","man","chinese","SW_C_M_A6",NA,NA,NA,"null",NA,NA,NA,NA,NA,NA
"16431.19999998808",NA,NA,"survey-text",163,1474035,"0.0-15.0-3.10",13413,"ListA","man","chinese","SW_C_M_A6",NA,NA,NA,NA,"{""Q0"":""卢克正在答应霍普""}","<img src='gifs/BlackGender3a.gif' style='height:400px;''></img>","答应","正在答应","chinese",NA
"null","<div style=""font-size:60px;"">+</div>",NA,"html-keyboard-response",164,1474540,"0.0-15.0-0.11",13413,"ListA","man","chinese","SW_C_M_A6",NA,NA,NA,"null",NA,NA,NA,NA,NA,NA
"null","<img src='gifs/MaleRace1a.gif' style='height:400px;''></img>",NA,"html-keyboard-response",165,1476542,"0.0-15.0-1.11",13413,"ListA","man","chinese","SW_C_M_A6",NA,NA,NA,"null",NA,NA,NA,NA,NA,NA
"null","正在介绍",NA,"html-keyboard-response",166,1479545,"0.0-15.0-2.11",13413,"ListA","man","chinese","SW_C_M_A6",NA,NA,NA,"null",NA,NA,NA,NA,NA,NA
"31008.30000001192",NA,NA,"survey-text",167,1510555,"0.0-15.0-3.11",13413,"ListA","man","chinese","SW_C_M_A6",NA,NA,NA,NA,"{""Q0"":""弗雷正在介绍卢克""}","<img src='gifs/MaleRace1a.gif' style='height:400px;''></img>","介绍","正在介绍","chinese",NA
"null","<div style=""font-size:60px;"">+</div>",NA,"html-keyboard-response",168,1511068,"0.0-15.0-0.12",13413,"ListA","man","chinese","SW_C_M_A6",NA,NA,NA,"null",NA,NA,NA,NA,NA,NA
"null","<img src='gifs/BlackGender3b.gif' style='height:400px;''></img>",NA,"html-keyboard-response",169,1513070,"0.0-15.0-1.12",13413,"ListA","man","chinese","SW_C_M_A6",NA,NA,NA,"null",NA,NA,NA,NA,NA,NA
"null","正在面向",NA,"html-keyboard-response",170,1516076,"0.0-15.0-2.12",13413,"ListA","man","chinese","SW_C_M_A6",NA,NA,NA,"null",NA,NA,NA,NA,NA,NA
"34415.5",NA,NA,"survey-text",171,1550493,"0.0-15.0-3.12",13413,"ListA","man","chinese","SW_C_M_A6",NA,NA,NA,NA,"{""Q0"":""卢克正在面向露丝""}","<img src='gifs/BlackGender3b.gif' style='height:400px;''></img>","面向","正在面向","chinese",NA
"null","<div style=""font-size:60px;"">+</div>",NA,"html-keyboard-response",172,1551002,"0.0-15.0-0.13",13413,"ListA","man","chinese","SW_C_M_A6",NA,NA,NA,"null",NA,NA,NA,NA,NA,NA
"null","<img src='gifs/ChineseGender2b.gif' style='height:400px;''></img>",NA,"html-keyboard-response",173,1553014,"0.0-15.0-1.13",13413,"ListA","man","chinese","SW_C_M_A6",NA,NA,NA,"null",NA,NA,NA,NA,NA,NA
"null","正在答应",NA,"html-keyboard-response",174,1556018,"0.0-15.0-2.13",13413,"ListA","man","chinese","SW_C_M_A6",NA,NA,NA,"null",NA,NA,NA,NA,NA,NA
"13818.099999964237",NA,NA,"survey-text",175,1569837,"0.0-15.0-3.13",13413,"ListA","man","chinese","SW_C_M_A6",NA,NA,NA,NA,"{""Q0"":""贝斯正在答应弗雷""}","<img src='gifs/ChineseGender2b.gif' style='height:400px;''></img>","答应","正在答应","chinese",NA
"null","<div style=""font-size:60px;"">+</div>",NA,"html-keyboard-response",176,1570346,"0.0-15.0-0.14",13413,"ListA","man","chinese","SW_C_M_A6",NA,NA,NA,"null",NA,NA,NA,NA,NA,NA
"null","<img src='gifs/FemaleRace2b.gif' style='height:400px;''></img>",NA,"html-keyboard-response",177,1572357,"0.0-15.0-1.14",13413,"ListA","man","chinese","SW_C_M_A6",NA,NA,NA,"null",NA,NA,NA,NA,NA,NA
"null","正在走向",NA,"html-keyboard-response",178,1575365,"0.0-15.0-2.14",13413,"ListA","man","chinese","SW_C_M_A6",NA,NA,NA,"null",NA,NA,NA,NA,NA,NA
"12467.600000023842",NA,NA,"survey-text",179,1587833,"0.0-15.0-3.14",13413,"ListA","man","chinese","SW_C_M_A6",NA,NA,NA,NA,"{""Q0"":""霍普正在走向凯特""}","<img src='gifs/FemaleRace2b.gif' style='height:400px;''></img>","走向","正在走向","chinese",NA
"null","<div style=""font-size:60px;"">+</div>",NA,"html-keyboard-response",180,1588334,"0.0-15.0-0.15",13413,"ListA","man","chinese","SW_C_M_A6",NA,NA,NA,"null",NA,NA,NA,NA,NA,NA
"null","<img src='gifs/ChineseGender1b.gif' style='height:400px;''></img>",NA,"html-keyboard-response",181,1590346,"0.0-15.0-1.15",13413,"ListA","man","chinese","SW_C_M_A6",NA,NA,NA,"null",NA,NA,NA,NA,NA,NA
"null","正在聘用",NA,"html-keyboard-response",182,1593354,"0.0-15.0-2.15",13413,"ListA","man","chinese","SW_C_M_A6",NA,NA,NA,"null",NA,NA,NA,NA,NA,NA
"15027.5",NA,NA,"survey-text",183,1608383,"0.0-15.0-3.15",13413,"ListA","man","chinese","SW_C_M_A6",NA,NA,NA,NA,"{""Q0"":""凯特正在聘用弗雷""}","<img src='gifs/ChineseGender1b.gif' style='height:400px;''></img>","聘用","正在聘用","chinese",NA
"null","<div style=""font-size:60px;"">+</div>",NA,"html-keyboard-response",184,1608890,"0.0-15.0-0.16",13413,"ListA","man","chinese","SW_C_M_A6",NA,NA,NA,"null",NA,NA,NA,NA,NA,NA
"null","<img src='gifs/ChineseGender2b.gif' style='height:400px;''></img>",NA,"html-keyboard-response",185,1610900,"0.0-15.0-1.16",13413,"ListA","man","chinese","SW_C_M_A6",NA,NA,NA,"null",NA,NA,NA,NA,NA,NA
"null","正在看着",NA,"html-keyboard-response",186,1613903,"0.0-15.0-2.16",13413,"ListA","man","chinese","SW_C_M_A6",NA,NA,NA,"null",NA,NA,NA,NA,NA,NA
"16713.099999964237",NA,NA,"survey-text",187,1630617,"0.0-15.0-3.16",13413,"ListA","man","chinese","SW_C_M_A6",NA,NA,NA,NA,"{""Q0"":""弗雷正在看着贝斯""}","<img src='gifs/ChineseGender2b.gif' style='height:400px;''></img>","看着","正在看着","chinese",NA
"null","<div style=""font-size:60px;"">+</div>",NA,"html-keyboard-response",188,1631130,"0.0-15.0-0.17",13413,"ListA","man","chinese","SW_C_M_A6",NA,NA,NA,"null",NA,NA,NA,NA,NA,NA
"null","<img src='gifs/BlackGender4b.gif' style='height:400px;''></img>",NA,"html-keyboard-response",189,1633145,"0.0-15.0-1.17",13413,"ListA","man","chinese","SW_C_M_A6",NA,NA,NA,"null",NA,NA,NA,NA,NA,NA
"null","正在介绍",NA,"html-keyboard-response",190,1636156,"0.0-15.0-2.17",13413,"ListA","man","chinese","SW_C_M_A6",NA,NA,NA,"null",NA,NA,NA,NA,NA,NA
"10442.699999988079",NA,NA,"survey-text",191,1646600,"0.0-15.0-3.17",13413,"ListA","man","chinese","SW_C_M_A6",NA,NA,NA,NA,"{""Q0"":""霍普正在介绍戴夫""}","<img src='gifs/BlackGender4b.gif' style='height:400px;''></img>","介绍","正在介绍","chinese",NA
"4125.399999976158","<img src='img/portrait_matrix_listA_chinese.jpg' style='width:900px;height:500px;''></img><p>如果您已经记住了所有的人物和名字，请点击继续。</p><p><strong>请注意：您对先前记忆的面孔将在本实验中被测试5次。</strong></p>",0,"html-button-response",192,1650727,"0.0-16.0-0.0",13413,"ListA","man","chinese","SW_C_M_A6",NA,NA,NA,NA,NA,NA,NA,NA,NA,NA
"7425.899999976158","<img src=""portrait/WM2.jpg""style=""height:400px;""></img>",7,"html-button-response",193,1659154,"0.0-16.0-1.0",13413,"ListA","man","chinese","SW_C_M_A6",NA,"true",7,NA,NA,NA,NA,NA,NA,NA
"null","正确",NA,"html-keyboard-response",194,1660657,"0.0-16.0-2.0-0.0",13413,"ListA","man","chinese","SW_C_M_A6",NA,NA,NA,"null",NA,NA,NA,NA,NA,NA
"2590","<img src=""portrait/WW1.jpg""style=""height:400px;""></img>",1,"html-button-response",195,1663247,"0.0-16.0-4.0",13413,"ListA","man","chinese","SW_C_M_A6",NA,"true",1,NA,NA,NA,NA,NA,NA,NA
"null","正确",NA,"html-keyboard-response",196,1664748,"0.0-16.0-5.0-0.0",13413,"ListA","man","chinese","SW_C_M_A6",NA,NA,NA,"null",NA,NA,NA,NA,NA,NA
"5015.099999964237","<img src=""portrait/BW2.jpg""style=""height:400px;""></img>",2,"html-button-response",197,1669764,"0.0-16.0-7.0",13413,"ListA","man","chinese","SW_C_M_A6",NA,"true",2,NA,NA,NA,NA,NA,NA,NA
"null","正确",NA,"html-keyboard-response",198,1671281,"0.0-16.0-8.0-0.0",13413,"ListA","man","chinese","SW_C_M_A6",NA,NA,NA,"null",NA,NA,NA,NA,NA,NA
"2781.5","<img src=""portrait/BW1.jpg""style=""height:400px;""></img>",0,"html-button-response",199,1674063,"0.0-16.0-10.0",13413,"ListA","man","chinese","SW_C_M_A6",NA,"true",0,NA,NA,NA,NA,NA,NA,NA
"null","正确",NA,"html-keyboard-response",200,1675568,"0.0-16.0-11.0-0.0",13413,"ListA","man","chinese","SW_C_M_A6",NA,NA,NA,"null",NA,NA,NA,NA,NA,NA
"1367.5","<img src=""portrait/WW2.jpg""style=""height:400px;""></img>",3,"html-button-response",201,1676936,"0.0-16.0-13.0",13413,"ListA","man","chinese","SW_C_M_A6",NA,"true",3,NA,NA,NA,NA,NA,NA,NA
"null","正确",NA,"html-keyboard-response",202,1678438,"0.0-16.0-14.0-0.0",13413,"ListA","man","chinese","SW_C_M_A6",NA,NA,NA,"null",NA,NA,NA,NA,NA,NA
"2261.7999999523163","<img src=""portrait/BM2.jpg""style=""height:400px;""></img>",5,"html-button-response",203,1680700,"0.0-16.0-16.0",13413,"ListA","man","chinese","SW_C_M_A6",NA,"true",5,NA,NA,NA,NA,NA,NA,NA
"null","正确",NA,"html-keyboard-response",204,1682202,"0.0-16.0-17.0-0.0",13413,"ListA","man","chinese","SW_C_M_A6",NA,NA,NA,"null",NA,NA,NA,NA,NA,NA
"2970.699999988079","<img src=""portrait/WM1.jpg""style=""height:400px;""></img>",6,"html-button-response",205,1685174,"0.0-16.0-19.0",13413,"ListA","man","chinese","SW_C_M_A6",NA,"true",6,NA,NA,NA,NA,NA,NA,NA
"null","正确",NA,"html-keyboard-response",206,1686681,"0.0-16.0-20.0-0.0",13413,"ListA","man","chinese","SW_C_M_A6",NA,NA,NA,"null",NA,NA,NA,NA,NA,NA
"2336.199999988079","<img src=""portrait/BM1.jpg""style=""height:400px;""></img>",4,"html-button-response",207,1689018,"0.0-16.0-22.0",13413,"ListA","man","chinese","SW_C_M_A6",NA,"true",4,NA,NA,NA,NA,NA,NA,NA
"null","正确",NA,"html-keyboard-response",208,1690532,"0.0-16.0-23.0-0.0",13413,"ListA","man","chinese","SW_C_M_A6",NA,NA,NA,"null",NA,NA,NA,NA,NA,NA
"1590.199999988079","<p>您第一次在8题里答对了 8 题。 请点击继续</p>",0,"html-button-response",209,1692123,"0.0-16.0-25.0",13413,"ListA","man","chinese","SW_C_M_A6",NA,NA,NA,NA,NA,NA,NA,NA,NA,NA
"null","<div style=""font-size:60px;"">+</div>",NA,"html-keyboard-response",210,1693637,"0.0-17.0-0.0",13413,"ListA","man","chinese","SW_C_M_A6",NA,NA,NA,"null",NA,NA,NA,NA,NA,NA
"null","<img src='gifs/ChineseGender1b.gif' style='height:400px;''></img>",NA,"html-keyboard-response",211,1695650,"0.0-17.0-1.0",13413,"ListA","man","chinese","SW_C_M_A6",NA,NA,NA,"null",NA,NA,NA,NA,NA,NA
"null","正在说服",NA,"html-keyboard-response",212,1698665,"0.0-17.0-2.0",13413,"ListA","man","chinese","SW_C_M_A6",NA,NA,NA,"null",NA,NA,NA,NA,NA,NA
"14130.800000011921",NA,NA,"survey-text",213,1712797,"0.0-17.0-3.0",13413,"ListA","man","chinese","SW_C_M_A6",NA,NA,NA,NA,"{""Q0"":""弗雷正在说服凯特""}","<img src='gifs/ChineseGender1b.gif' style='height:400px;''></img>","说服","正在说服","chinese",NA
"null","<div style=""font-size:60px;"">+</div>",NA,"html-keyboard-response",214,1713304,"0.0-17.0-0.1",13413,"ListA","man","chinese","SW_C_M_A6",NA,NA,NA,"null",NA,NA,NA,NA,NA,NA
"null","<img src='gifs/FemaleRace4b.gif' style='height:400px;''></img>",NA,"html-keyboard-response",215,1715318,"0.0-17.0-1.1",13413,"ListA","man","chinese","SW_C_M_A6",NA,NA,NA,"null",NA,NA,NA,NA,NA,NA
"null","正在面向",NA,"html-keyboard-response",216,1718329,"0.0-17.0-2.1",13413,"ListA","man","chinese","SW_C_M_A6",NA,NA,NA,"null",NA,NA,NA,NA,NA,NA
"10158.899999976158",NA,NA,"survey-text",217,1728489,"0.0-17.0-3.1",13413,"ListA","man","chinese","SW_C_M_A6",NA,NA,NA,NA,"{""Q0"":""霍普正在面向贝斯""}","<img src='gifs/FemaleRace4b.gif' style='height:400px;''></img>","面向","正在面向","chinese",NA
"null","<div style=""font-size:60px;"">+</div>",NA,"html-keyboard-response",218,1729001,"0.0-17.0-0.2",13413,"ListA","man","chinese","SW_C_M_A6",NA,NA,NA,"null",NA,NA,NA,NA,NA,NA
"null","<img src='gifs/MaleRace3a.gif' style='height:400px;''></img>",NA,"html-keyboard-response",219,1731002,"0.0-17.0-1.2",13413,"ListA","man","chinese","SW_C_M_A6",NA,NA,NA,"null",NA,NA,NA,NA,NA,NA
"null","正在看着",NA,"html-keyboard-response",220,1734016,"0.0-17.0-2.2",13413,"ListA","man","chinese","SW_C_M_A6",NA,NA,NA,"null",NA,NA,NA,NA,NA,NA
"18845.19999998808",NA,NA,"survey-text",221,1752862,"0.0-17.0-3.2",13413,"ListA","man","chinese","SW_C_M_A6",NA,NA,NA,NA,"{""Q0"":""麦克正在看着卢克""}","<img src='gifs/MaleRace3a.gif' style='height:400px;''></img>","看着","正在看着","chinese",NA
"null","<div style=""font-size:60px;"">+</div>",NA,"html-keyboard-response",222,1753370,"0.0-17.0-0.3",13413,"ListA","man","chinese","SW_C_M_A6",NA,NA,NA,"null",NA,NA,NA,NA,NA,NA
"null","<img src='gifs/ChineseGender4b.gif' style='height:400px;''></img>",NA,"html-keyboard-response",223,1755381,"0.0-17.0-1.3",13413,"ListA","man","chinese","SW_C_M_A6",NA,NA,NA,"null",NA,NA,NA,NA,NA,NA
"null","正在触摸",NA,"html-keyboard-response",224,1758383,"0.0-17.0-2.3",13413,"ListA","man","chinese","SW_C_M_A6",NA,NA,NA,"null",NA,NA,NA,NA,NA,NA
"12515.900000035763",NA,NA,"survey-text",225,1770900,"0.0-17.0-3.3",13413,"ListA","man","chinese","SW_C_M_A6",NA,NA,NA,NA,"{""Q0"":""凯特正在触摸麦克""}","<img src='gifs/ChineseGender4b.gif' style='height:400px;''></img>","触摸","正在触摸","chinese",NA
"null","<div style=""font-size:60px;"">+</div>",NA,"html-keyboard-response",226,1771406,"0.0-17.0-0.4",13413,"ListA","man","chinese","SW_C_M_A6",NA,NA,NA,"null",NA,NA,NA,NA,NA,NA
"null","<img src='gifs/BlackGender2a.gif' style='height:400px;''></img>",NA,"html-keyboard-response",227,1773408,"0.0-17.0-1.4",13413,"ListA","man","chinese","SW_C_M_A6",NA,NA,NA,"null",NA,NA,NA,NA,NA,NA
"null","正在提到",NA,"html-keyboard-response",228,1776409,"0.0-17.0-2.4",13413,"ListA","man","chinese","SW_C_M_A6",NA,NA,NA,"null",NA,NA,NA,NA,NA,NA
"14992.700000047684",NA,NA,"survey-text",229,1791403,"0.0-17.0-3.4",13413,"ListA","man","chinese","SW_C_M_A6",NA,NA,NA,NA,"{""Q0"":""戴夫正在提到露丝""}","<img src='gifs/BlackGender2a.gif' style='height:400px;''></img>","提到","正在提到","chinese",NA
"null","<div style=""font-size:60px;"">+</div>",NA,"html-keyboard-response",230,1791904,"0.0-17.0-0.5",13413,"ListA","man","chinese","SW_C_M_A6",NA,NA,NA,"null",NA,NA,NA,NA,NA,NA
"null","<img src='gifs/MaleRace3a.gif' style='height:400px;''></img>",NA,"html-keyboard-response",231,1793913,"0.0-17.0-1.5",13413,"ListA","man","chinese","SW_C_M_A6",NA,NA,NA,"null",NA,NA,NA,NA,NA,NA
"null","正在表扬",NA,"html-keyboard-response",232,1796915,"0.0-17.0-2.5",13413,"ListA","man","chinese","SW_C_M_A6",NA,NA,NA,"null",NA,NA,NA,NA,NA,NA
"12942.5",NA,NA,"survey-text",233,1809859,"0.0-17.0-3.5",13413,"ListA","man","chinese","SW_C_M_A6",NA,NA,NA,NA,"{""Q0"":""卢克正在表扬麦克""}","<img src='gifs/MaleRace3a.gif' style='height:400px;''></img>","表扬","正在表扬","chinese",NA
"null","<div style=""font-size:60px;"">+</div>",NA,"html-keyboard-response",234,1810364,"0.0-17.0-0.6",13413,"ListA","man","chinese","SW_C_M_A6",NA,NA,NA,"null",NA,NA,NA,NA,NA,NA
"null","<img src='gifs/FemaleRace1b.gif' style='height:400px;''></img>",NA,"html-keyboard-response",235,1812375,"0.0-17.0-1.6",13413,"ListA","man","chinese","SW_C_M_A6",NA,NA,NA,"null",NA,NA,NA,NA,NA,NA
"null","正在接近",NA,"html-keyboard-response",236,1815379,"0.0-17.0-2.6",13413,"ListA","man","chinese","SW_C_M_A6",NA,NA,NA,"null",NA,NA,NA,NA,NA,NA
"11148.199999988079",NA,NA,"survey-text",237,1826528,"0.0-17.0-3.6",13413,"ListA","man","chinese","SW_C_M_A6",NA,NA,NA,NA,"{""Q0"":""凯特正在接近露丝""}","<img src='gifs/FemaleRace1b.gif' style='height:400px;''></img>","接近","正在接近","chinese",NA
"null","<div style=""font-size:60px;"">+</div>",NA,"html-keyboard-response",238,1827032,"0.0-17.0-0.7",13413,"ListA","man","chinese","SW_C_M_A6",NA,NA,NA,"null",NA,NA,NA,NA,NA,NA
"null","<img src='gifs/BlackGender2b.gif' style='height:400px;''></img>",NA,"html-keyboard-response",239,1829044,"0.0-17.0-1.7",13413,"ListA","man","chinese","SW_C_M_A6",NA,NA,NA,"null",NA,NA,NA,NA,NA,NA
"null","正在聘用",NA,"html-keyboard-response",240,1832061,"0.0-17.0-2.7",13413,"ListA","man","chinese","SW_C_M_A6",NA,NA,NA,"null",NA,NA,NA,NA,NA,NA
"17759.599999964237",NA,NA,"survey-text",241,1849822,"0.0-17.0-3.7",13413,"ListA","man","chinese","SW_C_M_A6",NA,NA,NA,NA,"{""Q0"":""露丝正在聘用戴夫""}","<img src='gifs/BlackGender2b.gif' style='height:400px;''></img>","聘用","正在聘用","chinese",NA
"null","<div style=""font-size:60px;"">+</div>",NA,"html-keyboard-response",242,1850330,"0.0-17.0-0.8",13413,"ListA","man","chinese","SW_C_M_A6",NA,NA,NA,"null",NA,NA,NA,NA,NA,NA
"null","<img src='gifs/ChineseGender1a.gif' style='height:400px;''></img>",NA,"html-keyboard-response",243,1852343,"0.0-17.0-1.8",13413,"ListA","man","chinese","SW_C_M_A6",NA,NA,NA,"null",NA,NA,NA,NA,NA,NA
"null","正在聘用",NA,"html-keyboard-response",244,1855347,"0.0-17.0-2.8",13413,"ListA","man","chinese","SW_C_M_A6",NA,NA,NA,"null",NA,NA,NA,NA,NA,NA
"14452.399999976158",NA,NA,"survey-text",245,1869801,"0.0-17.0-3.8",13413,"ListA","man","chinese","SW_C_M_A6",NA,NA,NA,NA,"{""Q0"":""凯特正在聘用弗雷""}","<img src='gifs/ChineseGender1a.gif' style='height:400px;''></img>","聘用","正在聘用","chinese",NA
"null","<div style=""font-size:60px;"">+</div>",NA,"html-keyboard-response",246,1870307,"0.0-17.0-0.9",13413,"ListA","man","chinese","SW_C_M_A6",NA,NA,NA,"null",NA,NA,NA,NA,NA,NA
"null","<img src='gifs/MaleRace4b.gif' style='height:400px;''></img>",NA,"html-keyboard-response",247,1872320,"0.0-17.0-1.9",13413,"ListA","man","chinese","SW_C_M_A6",NA,NA,NA,"null",NA,NA,NA,NA,NA,NA
"null","正在走向",NA,"html-keyboard-response",248,1875325,"0.0-17.0-2.9",13413,"ListA","man","chinese","SW_C_M_A6",NA,NA,NA,"null",NA,NA,NA,NA,NA,NA
"17146.69999998808",NA,NA,"survey-text",249,1892473,"0.0-17.0-3.9",13413,"ListA","man","chinese","SW_C_M_A6",NA,NA,NA,NA,"{""Q0"":""麦克正在走向戴夫""}","<img src='gifs/MaleRace4b.gif' style='height:400px;''></img>","走向","正在走向","chinese",NA
"null","<div style=""font-size:60px;"">+</div>",NA,"html-keyboard-response",250,1892978,"0.0-17.0-0.10",13413,"ListA","man","chinese","SW_C_M_A6",NA,NA,NA,"null",NA,NA,NA,NA,NA,NA
"null","<img src='gifs/MaleRace1a.gif' style='height:400px;''></img>",NA,"html-keyboard-response",251,1894992,"0.0-17.0-1.10",13413,"ListA","man","chinese","SW_C_M_A6",NA,NA,NA,"null",NA,NA,NA,NA,NA,NA
"null","正在跟随",NA,"html-keyboard-response",252,1897997,"0.0-17.0-2.10",13413,"ListA","man","chinese","SW_C_M_A6",NA,NA,NA,"null",NA,NA,NA,NA,NA,NA
"24581",NA,NA,"survey-text",253,1922579,"0.0-17.0-3.10",13413,"ListA","man","chinese","SW_C_M_A6",NA,NA,NA,NA,"{""Q0"":""卢克正在跟随弗雷""}","<img src='gifs/MaleRace1a.gif' style='height:400px;''></img>","跟随","正在跟随","chinese",NA
"null","<div style=""font-size:60px;"">+</div>",NA,"html-keyboard-response",254,1923087,"0.0-17.0-0.11",13413,"ListA","man","chinese","SW_C_M_A6",NA,NA,NA,"null",NA,NA,NA,NA,NA,NA
"null","<img src='gifs/ChineseGender4a.gif' style='height:400px;''></img>",NA,"html-keyboard-response",255,1925100,"0.0-17.0-1.11",13413,"ListA","man","chinese","SW_C_M_A6",NA,NA,NA,"null",NA,NA,NA,NA,NA,NA
"null","正在表扬",NA,"html-keyboard-response",256,1928107,"0.0-17.0-2.11",13413,"ListA","man","chinese","SW_C_M_A6",NA,NA,NA,"null",NA,NA,NA,NA,NA,NA
"16700.399999976158",NA,NA,"survey-text",257,1944808,"0.0-17.0-3.11",13413,"ListA","man","chinese","SW_C_M_A6",NA,NA,NA,NA,"{""Q0"":""凯特正在表扬麦克""}","<img src='gifs/ChineseGender4a.gif' style='height:400px;''></img>","表扬","正在表扬","chinese",NA
"null","<div style=""font-size:60px;"">+</div>",NA,"html-keyboard-response",258,1945318,"0.0-17.0-0.12",13413,"ListA","man","chinese","SW_C_M_A6",NA,NA,NA,"null",NA,NA,NA,NA,NA,NA
"null","<img src='gifs/ChineseGender4b.gif' style='height:400px;''></img>",NA,"html-keyboard-response",259,1947319,"0.0-17.0-1.12",13413,"ListA","man","chinese","SW_C_M_A6",NA,NA,NA,"null",NA,NA,NA,NA,NA,NA
"null","正在答应",NA,"html-keyboard-response",260,1950320,"0.0-17.0-2.12",13413,"ListA","man","chinese","SW_C_M_A6",NA,NA,NA,"null",NA,NA,NA,NA,NA,NA
"14385.600000023842",NA,NA,"survey-text",261,1964707,"0.0-17.0-3.12",13413,"ListA","man","chinese","SW_C_M_A6",NA,NA,NA,NA,"{""Q0"":""麦克正在表扬凯特""}","<img src='gifs/ChineseGender4b.gif' style='height:400px;''></img>","答应","正在答应","chinese",NA
"null","<div style=""font-size:60px;"">+</div>",NA,"html-keyboard-response",262,1965215,"0.0-17.0-0.13",13413,"ListA","man","chinese","SW_C_M_A6",NA,NA,NA,"null",NA,NA,NA,NA,NA,NA
"null","<img src='gifs/MaleRace3b.gif' style='height:400px;''></img>",NA,"html-keyboard-response",263,1967226,"0.0-17.0-1.13",13413,"ListA","man","chinese","SW_C_M_A6",NA,NA,NA,"null",NA,NA,NA,NA,NA,NA
"null","正在看着",NA,"html-keyboard-response",264,1970228,"0.0-17.0-2.13",13413,"ListA","man","chinese","SW_C_M_A6",NA,NA,NA,"null",NA,NA,NA,NA,NA,NA
"12366.099999964237",NA,NA,"survey-text",265,1982595,"0.0-17.0-3.13",13413,"ListA","man","chinese","SW_C_M_A6",NA,NA,NA,NA,"{""Q0"":""卢克正在看着麦克""}","<img src='gifs/MaleRace3b.gif' style='height:400px;''></img>","看着","正在看着","chinese",NA
"null","<div style=""font-size:60px;"">+</div>",NA,"html-keyboard-response",266,1983104,"0.0-17.0-0.14",13413,"ListA","man","chinese","SW_C_M_A6",NA,NA,NA,"null",NA,NA,NA,NA,NA,NA
"null","<img src='gifs/MaleRace4a.gif' style='height:400px;''></img>",NA,"html-keyboard-response",267,1985111,"0.0-17.0-1.14",13413,"ListA","man","chinese","SW_C_M_A6",NA,NA,NA,"null",NA,NA,NA,NA,NA,NA
"null","正在聆听",NA,"html-keyboard-response",268,1988126,"0.0-17.0-2.14",13413,"ListA","man","chinese","SW_C_M_A6",NA,NA,NA,"null",NA,NA,NA,NA,NA,NA
"29358.600000023842",NA,NA,"survey-text",269,2017486,"0.0-17.0-3.14",13413,"ListA","man","chinese","SW_C_M_A6",NA,NA,NA,NA,"{""Q0"":""戴夫正在聆听麦克""}","<img src='gifs/MaleRace4a.gif' style='height:400px;''></img>","聆听","正在聆听","chinese",NA
"null","<div style=""font-size:60px;"">+</div>",NA,"html-keyboard-response",270,2017994,"0.0-17.0-0.15",13413,"ListA","man","chinese","SW_C_M_A6",NA,NA,NA,"null",NA,NA,NA,NA,NA,NA
"null","<img src='gifs/FemaleRace4a.gif' style='height:400px;''></img>",NA,"html-keyboard-response",271,2020007,"0.0-17.0-1.15",13413,"ListA","man","chinese","SW_C_M_A6",NA,NA,NA,"null",NA,NA,NA,NA,NA,NA
"null","正在陪伴",NA,"html-keyboard-response",272,2023012,"0.0-17.0-2.15",13413,"ListA","man","chinese","SW_C_M_A6",NA,NA,NA,"null",NA,NA,NA,NA,NA,NA
"28492.5",NA,NA,"survey-text",273,2051505,"0.0-17.0-3.15",13413,"ListA","man","chinese","SW_C_M_A6",NA,NA,NA,NA,"{""Q0"":""霍普正在陪伴贝斯""}","<img src='gifs/FemaleRace4a.gif' style='height:400px;''></img>","陪伴","正在陪伴","chinese",NA
"null","<div style=""font-size:60px;"">+</div>",NA,"html-keyboard-response",274,2052008,"0.0-17.0-0.16",13413,"ListA","man","chinese","SW_C_M_A6",NA,NA,NA,"null",NA,NA,NA,NA,NA,NA
"null","<img src='gifs/ChineseGender4a.gif' style='height:400px;''></img>",NA,"html-keyboard-response",275,2054021,"0.0-17.0-1.16",13413,"ListA","man","chinese","SW_C_M_A6",NA,NA,NA,"null",NA,NA,NA,NA,NA,NA
"null","正在表扬",NA,"html-keyboard-response",276,2057035,"0.0-17.0-2.16",13413,"ListA","man","chinese","SW_C_M_A6",NA,NA,NA,"null",NA,NA,NA,NA,NA,NA
"19129",NA,NA,"survey-text",277,2076165,"0.0-17.0-3.16",13413,"ListA","man","chinese","SW_C_M_A6",NA,NA,NA,NA,"{""Q0"":""凯特正在表扬麦克""}","<img src='gifs/ChineseGender4a.gif' style='height:400px;''></img>","表扬","正在表扬","chinese",NA
"null","<div style=""font-size:60px;"">+</div>",NA,"html-keyboard-response",278,2076675,"0.0-17.0-0.17",13413,"ListA","man","chinese","SW_C_M_A6",NA,NA,NA,"null",NA,NA,NA,NA,NA,NA
"null","<img src='gifs/BlackGender3b.gif' style='height:400px;''></img>",NA,"html-keyboard-response",279,2078688,"0.0-17.0-1.17",13413,"ListA","man","chinese","SW_C_M_A6",NA,NA,NA,"null",NA,NA,NA,NA,NA,NA
"null","正在跟随",NA,"html-keyboard-response",280,2081692,"0.0-17.0-2.17",13413,"ListA","man","chinese","SW_C_M_A6",NA,NA,NA,"null",NA,NA,NA,NA,NA,NA
"14260.399999976158",NA,NA,"survey-text",281,2095954,"0.0-17.0-3.17",13413,"ListA","man","chinese","SW_C_M_A6",NA,NA,NA,NA,"{""Q0"":""霍普正在跟随卢克""}","<img src='gifs/BlackGender3b.gif' style='height:400px;''></img>","跟随","正在跟随","chinese",NA
"6630.300000011921","<p>Thank you for completing that task.</p><p>The final part of this session is a short questionnaire.</p><p>Press Continue.</p>",0,"html-button-response",282,2102585,"0.0-18.0",13413,"ListA","man","chinese","SW_C_M_A6",NA,NA,NA,NA,NA,NA,NA,NA,NA,NA
"226350.5",NA,NA,"survey-text",283,2329946,"0.0-19.0",13413,"ListA","man","chinese","SW_C_M_A6",NA,NA,NA,NA,"{""Q0"":""20"",""Q1"":""Chinese"",""Q2"":""Chinese"",""Q3"":""China"",""Q4"":""China"",""Q5"":""ok"",""Q6"":""man""}",NA,NA,NA,NA,"demographics"
"14309.800000011921","<p>Have you lived in the UK for the last 5 years or more?</p>",1,"html-button-response",284,2344257,"0.0-20.0",13413,"ListA","man","chinese","SW_C_M_A6",NA,NA,NA,NA,NA,NA,NA,NA,NA,"fiveyears"
"29157.80000001192",NA,NA,"external-html",285,2375607,"0.0-21.0",13413,"ListA","man","chinese","SW_C_M_A6","debrief.html",NA,NA,NA,NA,NA,NA,NA,NA,NA
"369926.5",NA,NA,"survey-text",286,2745534,"0.0-22.0",13413,"ListA","man","chinese","SW_C_M_A6",NA,NA,NA,NA,"{""ptpt_id"":""SW_C_M_A6""}",NA,NA,NA,NA,"worker_id"
