"rt","stimulus","button_pressed","trial_type","trial_index","time_elapsed","internal_node_id","subject","list","ppt_gender","ppt_language","ptptID","url","first_guess","correct","key_press","responses","image","verb","phrase","condition","test_part"
"3597.4000000953674","Welcome to the experiment. Press Continue to begin.",0,"html-button-response",0,3601,"0.0-0.0",31857,"ListB","woman","chinese","SW_C_F_B1",NA,NA,NA,NA,NA,NA,NA,NA,NA,NA
"100922.79999995232",NA,NA,"external-html",1,105711,"0.0-1.0",31857,"ListB","woman","chinese","SW_C_F_B1","consent.html",NA,NA,NA,NA,NA,NA,NA,NA,NA
"57735.300000071526","<p>在下一页中，您将看到8个人物肖像和他们各自的名字。</p><p>请花费几分钟的时间记住这些人物及其所对应的名字。</p><p>之后的实验中需要您对人物的名字做出回忆，</p><p>因此在实验开始前请确保您已 经完全记住这些人物及其所对应的名字。</p><p><strong>然后您将完成一个测试以检验您对人物和名字的记忆。</strong></p><p>完成此记忆测试后，您将正式进入实验。</p><p>准备好了吗？</p>",0,"html-button-response",2,163448,"0.0-2.0",31857,"ListB","woman","chinese","SW_C_F_B1",NA,NA,NA,NA,NA,NA,NA,NA,NA,NA
"356229.7000000477","<img src='img/portrait_matrix_listB_chinese.jpg' style='width:900px;height:500px;''></img><p>如果您已经记住了所有的人物和名字，请点击继续。</p><p><strong>请注意：您对先前记忆的面孔将在本实验中被测试5次。</strong></p>",0,"html-button-response",3,520693,"0.0-3.0-0.0",31857,"ListB","woman","chinese","SW_C_F_B1",NA,NA,NA,NA,NA,NA,NA,NA,NA,NA
"6205.800000071526","<img src=""portrait/BM2.jpg""style=""height:400px;""></img>",5,"html-button-response",4,527903,"0.0-3.0-1.0",31857,"ListB","woman","chinese","SW_C_F_B1",NA,"true",5,NA,NA,NA,NA,NA,NA,NA
"null","正确",NA,"html-keyboard-response",5,529415,"0.0-3.0-2.0-0.0",31857,"ListB","woman","chinese","SW_C_F_B1",NA,NA,NA,"null",NA,NA,NA,NA,NA,NA
"3639.2999999523163","<img src=""portrait/BM1.jpg""style=""height:400px;""></img>",4,"html-button-response",6,533057,"0.0-3.0-4.0",31857,"ListB","woman","chinese","SW_C_F_B1",NA,"true",4,NA,NA,NA,NA,NA,NA,NA
"null","正确",NA,"html-keyboard-response",7,534578,"0.0-3.0-5.0-0.0",31857,"ListB","woman","chinese","SW_C_F_B1",NA,NA,NA,"null",NA,NA,NA,NA,NA,NA
"3906.2999999523163","<img src=""portrait/BW2.jpg""style=""height:400px;""></img>",2,"html-button-response",8,538486,"0.0-3.0-7.0",31857,"ListB","woman","chinese","SW_C_F_B1",NA,"true",2,NA,NA,NA,NA,NA,NA,NA
"null","正确",NA,"html-keyboard-response",9,540012,"0.0-3.0-8.0-0.0",31857,"ListB","woman","chinese","SW_C_F_B1",NA,NA,NA,"null",NA,NA,NA,NA,NA,NA
"1884.9000000953674","<img src=""portrait/WM2.jpg""style=""height:400px;""></img>",7,"html-button-response",10,541899,"0.0-3.0-10.0",31857,"ListB","woman","chinese","SW_C_F_B1",NA,"true",7,NA,NA,NA,NA,NA,NA,NA
"null","正确",NA,"html-keyboard-response",11,543429,"0.0-3.0-11.0-0.0",31857,"ListB","woman","chinese","SW_C_F_B1",NA,NA,NA,"null",NA,NA,NA,NA,NA,NA
"2640","<img src=""portrait/WM1.jpg""style=""height:400px;""></img>",6,"html-button-response",12,546071,"0.0-3.0-13.0",31857,"ListB","woman","chinese","SW_C_F_B1",NA,"true",6,NA,NA,NA,NA,NA,NA,NA
"null","正确",NA,"html-keyboard-response",13,547592,"0.0-3.0-14.0-0.0",31857,"ListB","woman","chinese","SW_C_F_B1",NA,NA,NA,"null",NA,NA,NA,NA,NA,NA
"20250.700000047684","<img src=""portrait/WW2.jpg""style=""height:400px;""></img>",3,"html-button-response",14,567844,"0.0-3.0-16.0",31857,"ListB","woman","chinese","SW_C_F_B1",NA,"true",3,NA,NA,NA,NA,NA,NA,NA
"null","正确",NA,"html-keyboard-response",15,569366,"0.0-3.0-17.0-0.0",31857,"ListB","woman","chinese","SW_C_F_B1",NA,NA,NA,"null",NA,NA,NA,NA,NA,NA
"2593.4000000953674","<img src=""portrait/WW1.jpg""style=""height:400px;""></img>",1,"html-button-response",16,571961,"0.0-3.0-19.0",31857,"ListB","woman","chinese","SW_C_F_B1",NA,"true",1,NA,NA,NA,NA,NA,NA,NA
"null","正确",NA,"html-keyboard-response",17,573484,"0.0-3.0-20.0-0.0",31857,"ListB","woman","chinese","SW_C_F_B1",NA,NA,NA,"null",NA,NA,NA,NA,NA,NA
"20085.799999952316","<img src=""portrait/BW1.jpg""style=""height:400px;""></img>",0,"html-button-response",18,593571,"0.0-3.0-22.0",31857,"ListB","woman","chinese","SW_C_F_B1",NA,"true",0,NA,NA,NA,NA,NA,NA,NA
"null","正确",NA,"html-keyboard-response",19,595083,"0.0-3.0-23.0-0.0",31857,"ListB","woman","chinese","SW_C_F_B1",NA,NA,NA,"null",NA,NA,NA,NA,NA,NA
"9388.100000023842","<p>您第一次在8题里答对了 8 题。 请点击继续</p>",0,"html-button-response",20,604473,"0.0-3.0-25.0",31857,"ListB","woman","chinese","SW_C_F_B1",NA,NA,NA,NA,NA,NA,NA,NA,NA,NA
"23094.899999976158","<p>此次实验您将会看到先前记忆任务里的人物照片。</p><p>人物照片消失后您将看到一个动词短语，请正确回忆人物的名字并用特定的 动词短语组成一句完整的句子。</p><p>请在指定的框内输入您的答案。在进入下一题之前请确保您填写了完整的句子。</p><p>人物照片和动词短语只会在屏幕上出现几秒钟，因此请您答题时尽量集中注意力。</p><p>以下是例子。请您在准备好后按下“继续”。</p><img src='img/chinese_speaking_example.jpg' style='width:800px;height:460px;''></img>",0,"html-button-response",21,628586,"0.0-4.0",31857,"ListB","woman","chinese","SW_C_F_B1",NA,NA,NA,NA,NA,NA,NA,NA,NA,NA
"1417.3999999761581","<p>在实验开始前，将为您展示两个示例实验。</p>",0,"html-button-response",22,631005,"0.0-5.0",31857,"ListB","woman","chinese","SW_C_F_B1",NA,NA,NA,NA,NA,NA,NA,NA,NA,NA
"null","<img src='img/meet.gif' style='height:400px;''></img>",NA,"html-keyboard-response",23,634016,"0.0-6.0",31857,"ListB","woman","chinese","SW_C_F_B1",NA,NA,NA,"null",NA,NA,NA,NA,NA,NA
"null","<p>正在约见</p>",NA,"html-keyboard-response",24,636019,"0.0-7.0",31857,"ListB","woman","chinese","SW_C_F_B1",NA,NA,NA,"null",NA,NA,NA,NA,NA,NA
"12899.600000023842","<p><b>答案：</b> 霍普正在会见露丝</p>",0,"html-button-response",25,648919,"0.0-8.0",31857,"ListB","woman","chinese","SW_C_F_B1",NA,NA,NA,NA,NA,NA,NA,NA,NA,NA
"null","<img src='img/spy.gif' style='height:400px;''></img>",NA,"html-keyboard-response",26,651924,"0.0-9.0",31857,"ListB","woman","chinese","SW_C_F_B1",NA,NA,NA,"null",NA,NA,NA,NA,NA,NA
"null","<p>正在监视</p>",NA,"html-keyboard-response",27,653925,"0.0-10.0",31857,"ListB","woman","chinese","SW_C_F_B1",NA,NA,NA,"null",NA,NA,NA,NA,NA,NA
"4399.600000023842","<p><b>答案：</b> 弗雷正在监视麦克</p>",0,"html-button-response",28,658325,"0.0-11.0",31857,"ListB","woman","chinese","SW_C_F_B1",NA,NA,NA,NA,NA,NA,NA,NA,NA,NA
"3093.899999976158","<p>准备好开始了吗？</p><br><p><strong>请记住，您的答案需是一句完整的句子</strong></p><p><strong>，并用给到的图片人物和动词短语作答。</strong></p><p><strong>只有正确并完整完成实验才可获得报酬。</strong></p><p><strong> 您不需要加入任何标点符号。</strong></p><br><p>请按 ‘继续’ 键开始。</p>",0,"html-button-response",29,662437,"0.0-12.0",31857,"ListB","woman","chinese","SW_C_F_B1",NA,NA,NA,NA,NA,NA,NA,NA,NA,NA
"null","<div style=""font-size:60px;"">+</div>",NA,"html-keyboard-response",30,663946,"0.0-13.0-0.0",31857,"ListB","woman","chinese","SW_C_F_B1",NA,NA,NA,"null",NA,NA,NA,NA,NA,NA
"null","<img src='gifs/MaleRace1a.gif' style='height:400px;''></img>",NA,"html-keyboard-response",31,665953,"0.0-13.0-1.0",31857,"ListB","woman","chinese","SW_C_F_B1",NA,NA,NA,"null",NA,NA,NA,NA,NA,NA
"null","正在面向",NA,"html-keyboard-response",32,668955,"0.0-13.0-2.0",31857,"ListB","woman","chinese","SW_C_F_B1",NA,NA,NA,"null",NA,NA,NA,NA,NA,NA
"13849.300000071526",NA,NA,"survey-text",33,682811,"0.0-13.0-3.0",31857,"ListB","woman","chinese","SW_C_F_B1",NA,NA,NA,NA,"{""Q0"":""卢克正在面向弗雷""}","<img src='gifs/MaleRace1a.gif' style='height:400px;''></img>","面向","正在面向","chinese",NA
"null","<div style=""font-size:60px;"">+</div>",NA,"html-keyboard-response",34,683323,"0.0-13.0-0.1",31857,"ListB","woman","chinese","SW_C_F_B1",NA,NA,NA,"null",NA,NA,NA,NA,NA,NA
"null","<img src='gifs/FemaleRace3a.gif' style='height:400px;''></img>",NA,"html-keyboard-response",35,685335,"0.0-13.0-1.1",31857,"ListB","woman","chinese","SW_C_F_B1",NA,NA,NA,"null",NA,NA,NA,NA,NA,NA
"null","正在看着",NA,"html-keyboard-response",36,688337,"0.0-13.0-2.1",31857,"ListB","woman","chinese","SW_C_F_B1",NA,NA,NA,"null",NA,NA,NA,NA,NA,NA
"12529.100000023842",NA,NA,"survey-text",37,700870,"0.0-13.0-3.1",31857,"ListB","woman","chinese","SW_C_F_B1",NA,NA,NA,NA,"{""Q0"":""贝斯正在看着露丝""}","<img src='gifs/FemaleRace3a.gif' style='height:400px;''></img>","看着","正在看着","chinese",NA
"null","<div style=""font-size:60px;"">+</div>",NA,"html-keyboard-response",38,701377,"0.0-13.0-0.2",31857,"ListB","woman","chinese","SW_C_F_B1",NA,NA,NA,"null",NA,NA,NA,NA,NA,NA
"null","<img src='gifs/MaleRace1b.gif' style='height:400px;''></img>",NA,"html-keyboard-response",39,703390,"0.0-13.0-1.2",31857,"ListB","woman","chinese","SW_C_F_B1",NA,NA,NA,"null",NA,NA,NA,NA,NA,NA
"null","正在提到",NA,"html-keyboard-response",40,706402,"0.0-13.0-2.2",31857,"ListB","woman","chinese","SW_C_F_B1",NA,NA,NA,"null",NA,NA,NA,NA,NA,NA
"11982.900000095367",NA,NA,"survey-text",41,718389,"0.0-13.0-3.2",31857,"ListB","woman","chinese","SW_C_F_B1",NA,NA,NA,NA,"{""Q0"":""卢克正在提到弗雷""}","<img src='gifs/MaleRace1b.gif' style='height:400px;''></img>","提到","正在提到","chinese",NA
"null","<div style=""font-size:60px;"">+</div>",NA,"html-keyboard-response",42,718906,"0.0-13.0-0.3",31857,"ListB","woman","chinese","SW_C_F_B1",NA,NA,NA,"null",NA,NA,NA,NA,NA,NA
"null","<img src='gifs/MaleRace2b.gif' style='height:400px;''></img>",NA,"html-keyboard-response",43,720920,"0.0-13.0-1.3",31857,"ListB","woman","chinese","SW_C_F_B1",NA,NA,NA,"null",NA,NA,NA,NA,NA,NA
"null","正在陪伴",NA,"html-keyboard-response",44,723926,"0.0-13.0-2.3",31857,"ListB","woman","chinese","SW_C_F_B1",NA,NA,NA,"null",NA,NA,NA,NA,NA,NA
"9595.5",NA,NA,"survey-text",45,733527,"0.0-13.0-3.3",31857,"ListB","woman","chinese","SW_C_F_B1",NA,NA,NA,NA,"{""Q0"":""麦克正在陪伴卢克""}","<img src='gifs/MaleRace2b.gif' style='height:400px;''></img>","陪伴","正在陪伴","chinese",NA
"null","<div style=""font-size:60px;"">+</div>",NA,"html-keyboard-response",46,734029,"0.0-13.0-0.4",31857,"ListB","woman","chinese","SW_C_F_B1",NA,NA,NA,"null",NA,NA,NA,NA,NA,NA
"null","<img src='gifs/BlackGender4a.gif' style='height:400px;''></img>",NA,"html-keyboard-response",47,736041,"0.0-13.0-1.4",31857,"ListB","woman","chinese","SW_C_F_B1",NA,NA,NA,"null",NA,NA,NA,NA,NA,NA
"null","正在说服",NA,"html-keyboard-response",48,739050,"0.0-13.0-2.4",31857,"ListB","woman","chinese","SW_C_F_B1",NA,NA,NA,"null",NA,NA,NA,NA,NA,NA
"10818",NA,NA,"survey-text",49,749873,"0.0-13.0-3.4",31857,"ListB","woman","chinese","SW_C_F_B1",NA,NA,NA,NA,"{""Q0"":""凯特正在说服麦克""}","<img src='gifs/BlackGender4a.gif' style='height:400px;''></img>","说服","正在说服","chinese",NA
"null","<div style=""font-size:60px;"">+</div>",NA,"html-keyboard-response",50,750378,"0.0-13.0-0.5",31857,"ListB","woman","chinese","SW_C_F_B1",NA,NA,NA,"null",NA,NA,NA,NA,NA,NA
"null","<img src='gifs/ChineseGender4a.gif' style='height:400px;''></img>",NA,"html-keyboard-response",51,752392,"0.0-13.0-1.5",31857,"ListB","woman","chinese","SW_C_F_B1",NA,NA,NA,"null",NA,NA,NA,NA,NA,NA
"null","正在面向",NA,"html-keyboard-response",52,755395,"0.0-13.0-2.5",31857,"ListB","woman","chinese","SW_C_F_B1",NA,NA,NA,"null",NA,NA,NA,NA,NA,NA
"28209.199999928474",NA,NA,"survey-text",53,783606,"0.0-13.0-3.5",31857,"ListB","woman","chinese","SW_C_F_B1",NA,NA,NA,NA,"{""Q0"":""戴夫正在面向霍普""}","<img src='gifs/ChineseGender4a.gif' style='height:400px;''></img>","面向","正在面向","chinese",NA
"null","<div style=""font-size:60px;"">+</div>",NA,"html-keyboard-response",54,784112,"0.0-13.0-0.6",31857,"ListB","woman","chinese","SW_C_F_B1",NA,NA,NA,"null",NA,NA,NA,NA,NA,NA
"null","<img src='gifs/BlackGender4a.gif' style='height:400px;''></img>",NA,"html-keyboard-response",55,786114,"0.0-13.0-1.6",31857,"ListB","woman","chinese","SW_C_F_B1",NA,NA,NA,"null",NA,NA,NA,NA,NA,NA
"null","正在聆听",NA,"html-keyboard-response",56,789117,"0.0-13.0-2.6",31857,"ListB","woman","chinese","SW_C_F_B1",NA,NA,NA,"null",NA,NA,NA,NA,NA,NA
"9882.200000047684",NA,NA,"survey-text",57,799002,"0.0-13.0-3.6",31857,"ListB","woman","chinese","SW_C_F_B1",NA,NA,NA,NA,"{""Q0"":""麦克正在聆听凯特""}","<img src='gifs/BlackGender4a.gif' style='height:400px;''></img>","聆听","正在聆听","chinese",NA
"null","<div style=""font-size:60px;"">+</div>",NA,"html-keyboard-response",58,799504,"0.0-13.0-0.7",31857,"ListB","woman","chinese","SW_C_F_B1",NA,NA,NA,"null",NA,NA,NA,NA,NA,NA
"null","<img src='gifs/FemaleRace1b.gif' style='height:400px;''></img>",NA,"html-keyboard-response",59,801521,"0.0-13.0-1.7",31857,"ListB","woman","chinese","SW_C_F_B1",NA,NA,NA,"null",NA,NA,NA,NA,NA,NA
"null","正在联系",NA,"html-keyboard-response",60,804527,"0.0-13.0-2.7",31857,"ListB","woman","chinese","SW_C_F_B1",NA,NA,NA,"null",NA,NA,NA,NA,NA,NA
"8345.900000095367",NA,NA,"survey-text",61,812877,"0.0-13.0-3.7",31857,"ListB","woman","chinese","SW_C_F_B1",NA,NA,NA,NA,"{""Q0"":""霍普正在联系贝斯""}","<img src='gifs/FemaleRace1b.gif' style='height:400px;''></img>","联系","正在联系","chinese",NA
"null","<div style=""font-size:60px;"">+</div>",NA,"html-keyboard-response",62,813384,"0.0-13.0-0.8",31857,"ListB","woman","chinese","SW_C_F_B1",NA,NA,NA,"null",NA,NA,NA,NA,NA,NA
"null","<img src='gifs/BlackGender1b.gif' style='height:400px;''></img>",NA,"html-keyboard-response",63,815402,"0.0-13.0-1.8",31857,"ListB","woman","chinese","SW_C_F_B1",NA,NA,NA,"null",NA,NA,NA,NA,NA,NA
"null","正在介绍",NA,"html-keyboard-response",64,818411,"0.0-13.0-2.8",31857,"ListB","woman","chinese","SW_C_F_B1",NA,NA,NA,"null",NA,NA,NA,NA,NA,NA
"13641.599999904633",NA,NA,"survey-text",65,832057,"0.0-13.0-3.8",31857,"ListB","woman","chinese","SW_C_F_B1",NA,NA,NA,NA,"{""Q0"":""弗雷正在介绍贝斯""}","<img src='gifs/BlackGender1b.gif' style='height:400px;''></img>","介绍","正在介绍","chinese",NA
"null","<div style=""font-size:60px;"">+</div>",NA,"html-keyboard-response",66,832559,"0.0-13.0-0.9",31857,"ListB","woman","chinese","SW_C_F_B1",NA,NA,NA,"null",NA,NA,NA,NA,NA,NA
"null","<img src='gifs/FemaleRace2b.gif' style='height:400px;''></img>",NA,"html-keyboard-response",67,834569,"0.0-13.0-1.9",31857,"ListB","woman","chinese","SW_C_F_B1",NA,NA,NA,"null",NA,NA,NA,NA,NA,NA
"null","正在面向",NA,"html-keyboard-response",68,837585,"0.0-13.0-2.9",31857,"ListB","woman","chinese","SW_C_F_B1",NA,NA,NA,"null",NA,NA,NA,NA,NA,NA
"7975",NA,NA,"survey-text",69,845565,"0.0-13.0-3.9",31857,"ListB","woman","chinese","SW_C_F_B1",NA,NA,NA,NA,"{""Q0"":""霍普正在面向贝斯""}","<img src='gifs/FemaleRace2b.gif' style='height:400px;''></img>","面向","正在面向","chinese",NA
"null","<div style=""font-size:60px;"">+</div>",NA,"html-keyboard-response",70,846067,"0.0-13.0-0.10",31857,"ListB","woman","chinese","SW_C_F_B1",NA,NA,NA,"null",NA,NA,NA,NA,NA,NA
"null","<img src='gifs/MaleRace1b.gif' style='height:400px;''></img>",NA,"html-keyboard-response",71,848074,"0.0-13.0-1.10",31857,"ListB","woman","chinese","SW_C_F_B1",NA,NA,NA,"null",NA,NA,NA,NA,NA,NA
"null","正在答应",NA,"html-keyboard-response",72,851082,"0.0-13.0-2.10",31857,"ListB","woman","chinese","SW_C_F_B1",NA,NA,NA,"null",NA,NA,NA,NA,NA,NA
"11192.399999976158",NA,NA,"survey-text",73,862279,"0.0-13.0-3.10",31857,"ListB","woman","chinese","SW_C_F_B1",NA,NA,NA,NA,"{""Q0"":""卢克正在答应弗雷""}","<img src='gifs/MaleRace1b.gif' style='height:400px;''></img>","答应","正在答应","chinese",NA
"null","<div style=""font-size:60px;"">+</div>",NA,"html-keyboard-response",74,862783,"0.0-13.0-0.11",31857,"ListB","woman","chinese","SW_C_F_B1",NA,NA,NA,"null",NA,NA,NA,NA,NA,NA
"null","<img src='gifs/MaleRace2a.gif' style='height:400px;''></img>",NA,"html-keyboard-response",75,864801,"0.0-13.0-1.11",31857,"ListB","woman","chinese","SW_C_F_B1",NA,NA,NA,"null",NA,NA,NA,NA,NA,NA
"null","正在看着",NA,"html-keyboard-response",76,867813,"0.0-13.0-2.11",31857,"ListB","woman","chinese","SW_C_F_B1",NA,NA,NA,"null",NA,NA,NA,NA,NA,NA
"8661.399999976158",NA,NA,"survey-text",77,876477,"0.0-13.0-3.11",31857,"ListB","woman","chinese","SW_C_F_B1",NA,NA,NA,NA,"{""Q0"":""卢克正在看着麦克""}","<img src='gifs/MaleRace2a.gif' style='height:400px;''></img>","看着","正在看着","chinese",NA
"null","<div style=""font-size:60px;"">+</div>",NA,"html-keyboard-response",78,876979,"0.0-13.0-0.12",31857,"ListB","woman","chinese","SW_C_F_B1",NA,NA,NA,"null",NA,NA,NA,NA,NA,NA
"null","<img src='gifs/ChineseGender3b.gif' style='height:400px;''></img>",NA,"html-keyboard-response",79,878995,"0.0-13.0-1.12",31857,"ListB","woman","chinese","SW_C_F_B1",NA,NA,NA,"null",NA,NA,NA,NA,NA,NA
"null","正在提到",NA,"html-keyboard-response",80,882003,"0.0-13.0-2.12",31857,"ListB","woman","chinese","SW_C_F_B1",NA,NA,NA,"null",NA,NA,NA,NA,NA,NA
"9695.100000023842",NA,NA,"survey-text",81,891703,"0.0-13.0-3.12",31857,"ListB","woman","chinese","SW_C_F_B1",NA,NA,NA,NA,"{""Q0"":""露丝正在提到戴夫""}","<img src='gifs/ChineseGender3b.gif' style='height:400px;''></img>","提到","正在提到","chinese",NA
"null","<div style=""font-size:60px;"">+</div>",NA,"html-keyboard-response",82,892216,"0.0-13.0-0.13",31857,"ListB","woman","chinese","SW_C_F_B1",NA,NA,NA,"null",NA,NA,NA,NA,NA,NA
"null","<img src='gifs/MaleRace4b.gif' style='height:400px;''></img>",NA,"html-keyboard-response",83,894231,"0.0-13.0-1.13",31857,"ListB","woman","chinese","SW_C_F_B1",NA,NA,NA,"null",NA,NA,NA,NA,NA,NA
"null","正在联系",NA,"html-keyboard-response",84,897244,"0.0-13.0-2.13",31857,"ListB","woman","chinese","SW_C_F_B1",NA,NA,NA,"null",NA,NA,NA,NA,NA,NA
"8913.899999976158",NA,NA,"survey-text",85,906162,"0.0-13.0-3.13",31857,"ListB","woman","chinese","SW_C_F_B1",NA,NA,NA,NA,"{""Q0"":""麦克正在联系戴夫""}","<img src='gifs/MaleRace4b.gif' style='height:400px;''></img>","联系","正在联系","chinese",NA
"null","<div style=""font-size:60px;"">+</div>",NA,"html-keyboard-response",86,906663,"0.0-13.0-0.14",31857,"ListB","woman","chinese","SW_C_F_B1",NA,NA,NA,"null",NA,NA,NA,NA,NA,NA
"null","<img src='gifs/BlackGender4b.gif' style='height:400px;''></img>",NA,"html-keyboard-response",87,908676,"0.0-13.0-1.14",31857,"ListB","woman","chinese","SW_C_F_B1",NA,NA,NA,"null",NA,NA,NA,NA,NA,NA
"null","正在接近",NA,"html-keyboard-response",88,911687,"0.0-13.0-2.14",31857,"ListB","woman","chinese","SW_C_F_B1",NA,NA,NA,"null",NA,NA,NA,NA,NA,NA
"11538.199999928474",NA,NA,"survey-text",89,923229,"0.0-13.0-3.14",31857,"ListB","woman","chinese","SW_C_F_B1",NA,NA,NA,NA,"{""Q0"":""麦克正在接近凯特""}","<img src='gifs/BlackGender4b.gif' style='height:400px;''></img>","接近","正在接近","chinese",NA
"null","<div style=""font-size:60px;"">+</div>",NA,"html-keyboard-response",90,923732,"0.0-13.0-0.15",31857,"ListB","woman","chinese","SW_C_F_B1",NA,NA,NA,"null",NA,NA,NA,NA,NA,NA
"null","<img src='gifs/FemaleRace4b.gif' style='height:400px;''></img>",NA,"html-keyboard-response",91,925737,"0.0-13.0-1.15",31857,"ListB","woman","chinese","SW_C_F_B1",NA,NA,NA,"null",NA,NA,NA,NA,NA,NA
"null","正在接近",NA,"html-keyboard-response",92,928750,"0.0-13.0-2.15",31857,"ListB","woman","chinese","SW_C_F_B1",NA,NA,NA,"null",NA,NA,NA,NA,NA,NA
"6324.400000095367",NA,NA,"survey-text",93,935079,"0.0-13.0-3.15",31857,"ListB","woman","chinese","SW_C_F_B1",NA,NA,NA,NA,"{""Q0"":""露丝正在接近凯特""}","<img src='gifs/FemaleRace4b.gif' style='height:400px;''></img>","接近","正在接近","chinese",NA
"null","<div style=""font-size:60px;"">+</div>",NA,"html-keyboard-response",94,935581,"0.0-13.0-0.16",31857,"ListB","woman","chinese","SW_C_F_B1",NA,NA,NA,"null",NA,NA,NA,NA,NA,NA
"null","<img src='gifs/MaleRace3a.gif' style='height:400px;''></img>",NA,"html-keyboard-response",95,937592,"0.0-13.0-1.16",31857,"ListB","woman","chinese","SW_C_F_B1",NA,NA,NA,"null",NA,NA,NA,NA,NA,NA
"null","正在联系",NA,"html-keyboard-response",96,940606,"0.0-13.0-2.16",31857,"ListB","woman","chinese","SW_C_F_B1",NA,NA,NA,"null",NA,NA,NA,NA,NA,NA
"6158.899999976158",NA,NA,"survey-text",97,946769,"0.0-13.0-3.16",31857,"ListB","woman","chinese","SW_C_F_B1",NA,NA,NA,NA,"{""Q0"":""戴夫正在联系弗雷""}","<img src='gifs/MaleRace3a.gif' style='height:400px;''></img>","联系","正在联系","chinese",NA
"null","<div style=""font-size:60px;"">+</div>",NA,"html-keyboard-response",98,947272,"0.0-13.0-0.17",31857,"ListB","woman","chinese","SW_C_F_B1",NA,NA,NA,"null",NA,NA,NA,NA,NA,NA
"null","<img src='gifs/ChineseGender3a.gif' style='height:400px;''></img>",NA,"html-keyboard-response",99,949281,"0.0-13.0-1.17",31857,"ListB","woman","chinese","SW_C_F_B1",NA,NA,NA,"null",NA,NA,NA,NA,NA,NA
"null","正在答应",NA,"html-keyboard-response",100,952291,"0.0-13.0-2.17",31857,"ListB","woman","chinese","SW_C_F_B1",NA,NA,NA,"null",NA,NA,NA,NA,NA,NA
"6734.5",NA,NA,"survey-text",101,959030,"0.0-13.0-3.17",31857,"ListB","woman","chinese","SW_C_F_B1",NA,NA,NA,NA,"{""Q0"":""戴夫正在答应露丝""}","<img src='gifs/ChineseGender3a.gif' style='height:400px;''></img>","答应","正在答应","chinese",NA
"21979","<img src='img/portrait_matrix_listB_chinese.jpg' style='width:900px;height:500px;''></img><p>如果您已经记住了所有的人物和名字，请点击继续。</p><p><strong>请注意：您对先前记忆的面孔将在本实验中被测试5次。</strong></p>",0,"html-button-response",102,981011,"0.0-14.0-0.0",31857,"ListB","woman","chinese","SW_C_F_B1",NA,NA,NA,NA,NA,NA,NA,NA,NA,NA
"10803.100000023842","<img src=""portrait/BM1.jpg""style=""height:400px;""></img>",4,"html-button-response",103,992826,"0.0-14.0-1.0",31857,"ListB","woman","chinese","SW_C_F_B1",NA,"true",4,NA,NA,NA,NA,NA,NA,NA
"null","正确",NA,"html-keyboard-response",104,994355,"0.0-14.0-2.0-0.0",31857,"ListB","woman","chinese","SW_C_F_B1",NA,NA,NA,"null",NA,NA,NA,NA,NA,NA
"1596.3000000715256","<img src=""portrait/BW2.jpg""style=""height:400px;""></img>",2,"html-button-response",105,995953,"0.0-14.0-4.0",31857,"ListB","woman","chinese","SW_C_F_B1",NA,"true",2,NA,NA,NA,NA,NA,NA,NA
"null","正确",NA,"html-keyboard-response",106,997462,"0.0-14.0-5.0-0.0",31857,"ListB","woman","chinese","SW_C_F_B1",NA,NA,NA,"null",NA,NA,NA,NA,NA,NA
"2654","<img src=""portrait/WM2.jpg""style=""height:400px;""></img>",7,"html-button-response",107,1000117,"0.0-14.0-7.0",31857,"ListB","woman","chinese","SW_C_F_B1",NA,"true",7,NA,NA,NA,NA,NA,NA,NA
"null","正确",NA,"html-keyboard-response",108,1001634,"0.0-14.0-8.0-0.0",31857,"ListB","woman","chinese","SW_C_F_B1",NA,NA,NA,"null",NA,NA,NA,NA,NA,NA
"4519.800000071526","<img src=""portrait/BW1.jpg""style=""height:400px;""></img>",0,"html-button-response",109,1006155,"0.0-14.0-10.0",31857,"ListB","woman","chinese","SW_C_F_B1",NA,"true",0,NA,NA,NA,NA,NA,NA,NA
"null","正确",NA,"html-keyboard-response",110,1007672,"0.0-14.0-11.0-0.0",31857,"ListB","woman","chinese","SW_C_F_B1",NA,NA,NA,"null",NA,NA,NA,NA,NA,NA
"2720.6999999284744","<img src=""portrait/WW1.jpg""style=""height:400px;""></img>",1,"html-button-response",111,1010394,"0.0-14.0-13.0",31857,"ListB","woman","chinese","SW_C_F_B1",NA,"true",1,NA,NA,NA,NA,NA,NA,NA
"null","正确",NA,"html-keyboard-response",112,1011919,"0.0-14.0-14.0-0.0",31857,"ListB","woman","chinese","SW_C_F_B1",NA,NA,NA,"null",NA,NA,NA,NA,NA,NA
"3528.2999999523163","<img src=""portrait/BM2.jpg""style=""height:400px;""></img>",5,"html-button-response",113,1015449,"0.0-14.0-16.0",31857,"ListB","woman","chinese","SW_C_F_B1",NA,"true",5,NA,NA,NA,NA,NA,NA,NA
"null","正确",NA,"html-keyboard-response",114,1016960,"0.0-14.0-17.0-0.0",31857,"ListB","woman","chinese","SW_C_F_B1",NA,NA,NA,"null",NA,NA,NA,NA,NA,NA
"1897.8999999761581","<img src=""portrait/WW2.jpg""style=""height:400px;""></img>",3,"html-button-response",115,1018860,"0.0-14.0-19.0",31857,"ListB","woman","chinese","SW_C_F_B1",NA,"true",3,NA,NA,NA,NA,NA,NA,NA
"null","正确",NA,"html-keyboard-response",116,1020371,"0.0-14.0-20.0-0.0",31857,"ListB","woman","chinese","SW_C_F_B1",NA,NA,NA,"null",NA,NA,NA,NA,NA,NA
"3346.5","<img src=""portrait/WM1.jpg""style=""height:400px;""></img>",6,"html-button-response",117,1023719,"0.0-14.0-22.0",31857,"ListB","woman","chinese","SW_C_F_B1",NA,"true",6,NA,NA,NA,NA,NA,NA,NA
"null","正确",NA,"html-keyboard-response",118,1025222,"0.0-14.0-23.0-0.0",31857,"ListB","woman","chinese","SW_C_F_B1",NA,NA,NA,"null",NA,NA,NA,NA,NA,NA
"1153.6000000238419","<p>您第一次在8题里答对了 8 题。 请点击继续</p>",0,"html-button-response",119,1026377,"0.0-14.0-25.0",31857,"ListB","woman","chinese","SW_C_F_B1",NA,NA,NA,NA,NA,NA,NA,NA,NA,NA
"null","<div style=""font-size:60px;"">+</div>",NA,"html-keyboard-response",120,1027886,"0.0-15.0-0.0",31857,"ListB","woman","chinese","SW_C_F_B1",NA,NA,NA,"null",NA,NA,NA,NA,NA,NA
"null","<img src='gifs/ChineseGender4b.gif' style='height:400px;''></img>",NA,"html-keyboard-response",121,1029898,"0.0-15.0-1.0",31857,"ListB","woman","chinese","SW_C_F_B1",NA,NA,NA,"null",NA,NA,NA,NA,NA,NA
"null","正在走向",NA,"html-keyboard-response",122,1032912,"0.0-15.0-2.0",31857,"ListB","woman","chinese","SW_C_F_B1",NA,NA,NA,"null",NA,NA,NA,NA,NA,NA
"6907.899999976158",NA,NA,"survey-text",123,1039825,"0.0-15.0-3.0",31857,"ListB","woman","chinese","SW_C_F_B1",NA,NA,NA,NA,"{""Q0"":""霍普正在走向卢克""}","<img src='gifs/ChineseGender4b.gif' style='height:400px;''></img>","走向","正在走向","chinese",NA
"null","<div style=""font-size:60px;"">+</div>",NA,"html-keyboard-response",124,1040328,"0.0-15.0-0.1",31857,"ListB","woman","chinese","SW_C_F_B1",NA,NA,NA,"null",NA,NA,NA,NA,NA,NA
"null","<img src='gifs/ChineseGender2b.gif' style='height:400px;''></img>",NA,"html-keyboard-response",125,1042346,"0.0-15.0-1.1",31857,"ListB","woman","chinese","SW_C_F_B1",NA,NA,NA,"null",NA,NA,NA,NA,NA,NA
"null","正在聆听",NA,"html-keyboard-response",126,1045352,"0.0-15.0-2.1",31857,"ListB","woman","chinese","SW_C_F_B1",NA,NA,NA,"null",NA,NA,NA,NA,NA,NA
"12053.800000071526",NA,NA,"survey-text",127,1057410,"0.0-15.0-3.1",31857,"ListB","woman","chinese","SW_C_F_B1",NA,NA,NA,NA,"{""Q0"":""露丝正在聆听卢克""}","<img src='gifs/ChineseGender2b.gif' style='height:400px;''></img>","聆听","正在聆听","chinese",NA
"null","<div style=""font-size:60px;"">+</div>",NA,"html-keyboard-response",128,1057914,"0.0-15.0-0.2",31857,"ListB","woman","chinese","SW_C_F_B1",NA,NA,NA,"null",NA,NA,NA,NA,NA,NA
"null","<img src='gifs/FemaleRace2b.gif' style='height:400px;''></img>",NA,"html-keyboard-response",129,1059930,"0.0-15.0-1.2",31857,"ListB","woman","chinese","SW_C_F_B1",NA,NA,NA,"null",NA,NA,NA,NA,NA,NA
"null","正在接近",NA,"html-keyboard-response",130,1062943,"0.0-15.0-2.2",31857,"ListB","woman","chinese","SW_C_F_B1",NA,NA,NA,"null",NA,NA,NA,NA,NA,NA
"12414.100000023842",NA,NA,"survey-text",131,1075362,"0.0-15.0-3.2",31857,"ListB","woman","chinese","SW_C_F_B1",NA,NA,NA,NA,"{""Q0"":""凯特正在接近霍普""}","<img src='gifs/FemaleRace2b.gif' style='height:400px;''></img>","接近","正在接近","chinese",NA
"null","<div style=""font-size:60px;"">+</div>",NA,"html-keyboard-response",132,1075864,"0.0-15.0-0.3",31857,"ListB","woman","chinese","SW_C_F_B1",NA,NA,NA,"null",NA,NA,NA,NA,NA,NA
"null","<img src='gifs/MaleRace4b.gif' style='height:400px;''></img>",NA,"html-keyboard-response",133,1077870,"0.0-15.0-1.3",31857,"ListB","woman","chinese","SW_C_F_B1",NA,NA,NA,"null",NA,NA,NA,NA,NA,NA
"null","正在联系",NA,"html-keyboard-response",134,1080876,"0.0-15.0-2.3",31857,"ListB","woman","chinese","SW_C_F_B1",NA,NA,NA,"null",NA,NA,NA,NA,NA,NA
"8701.799999952316",NA,NA,"survey-text",135,1089582,"0.0-15.0-3.3",31857,"ListB","woman","chinese","SW_C_F_B1",NA,NA,NA,NA,"{""Q0"":""戴夫正在联系麦克""}","<img src='gifs/MaleRace4b.gif' style='height:400px;''></img>","联系","正在联系","chinese",NA
"null","<div style=""font-size:60px;"">+</div>",NA,"html-keyboard-response",136,1090095,"0.0-15.0-0.4",31857,"ListB","woman","chinese","SW_C_F_B1",NA,NA,NA,"null",NA,NA,NA,NA,NA,NA
"null","<img src='gifs/ChineseGender2a.gif' style='height:400px;''></img>",NA,"html-keyboard-response",137,1092110,"0.0-15.0-1.4",31857,"ListB","woman","chinese","SW_C_F_B1",NA,NA,NA,"null",NA,NA,NA,NA,NA,NA
"null","正在面向",NA,"html-keyboard-response",138,1095122,"0.0-15.0-2.4",31857,"ListB","woman","chinese","SW_C_F_B1",NA,NA,NA,"null",NA,NA,NA,NA,NA,NA
"6692.399999976158",NA,NA,"survey-text",139,1101818,"0.0-15.0-3.4",31857,"ListB","woman","chinese","SW_C_F_B1",NA,NA,NA,NA,"{""Q0"":""卢克正在面向露丝""}","<img src='gifs/ChineseGender2a.gif' style='height:400px;''></img>","面向","正在面向","chinese",NA
"null","<div style=""font-size:60px;"">+</div>",NA,"html-keyboard-response",140,1102334,"0.0-15.0-0.5",31857,"ListB","woman","chinese","SW_C_F_B1",NA,NA,NA,"null",NA,NA,NA,NA,NA,NA
"null","<img src='gifs/FemaleRace1a.gif' style='height:400px;''></img>",NA,"html-keyboard-response",141,1104339,"0.0-15.0-1.5",31857,"ListB","woman","chinese","SW_C_F_B1",NA,NA,NA,"null",NA,NA,NA,NA,NA,NA
"null","正在跟随",NA,"html-keyboard-response",142,1107342,"0.0-15.0-2.5",31857,"ListB","woman","chinese","SW_C_F_B1",NA,NA,NA,"null",NA,NA,NA,NA,NA,NA
"11311.5",NA,NA,"survey-text",143,1118656,"0.0-15.0-3.5",31857,"ListB","woman","chinese","SW_C_F_B1",NA,NA,NA,NA,"{""Q0"":""贝斯正在跟随霍普""}","<img src='gifs/FemaleRace1a.gif' style='height:400px;''></img>","跟随","正在跟随","chinese",NA
"null","<div style=""font-size:60px;"">+</div>",NA,"html-keyboard-response",144,1119172,"0.0-15.0-0.6",31857,"ListB","woman","chinese","SW_C_F_B1",NA,NA,NA,"null",NA,NA,NA,NA,NA,NA
"null","<img src='gifs/MaleRace3b.gif' style='height:400px;''></img>",NA,"html-keyboard-response",145,1121180,"0.0-15.0-1.6",31857,"ListB","woman","chinese","SW_C_F_B1",NA,NA,NA,"null",NA,NA,NA,NA,NA,NA
"null","正在接近",NA,"html-keyboard-response",146,1124188,"0.0-15.0-2.6",31857,"ListB","woman","chinese","SW_C_F_B1",NA,NA,NA,"null",NA,NA,NA,NA,NA,NA
"10952.300000071526",NA,NA,"survey-text",147,1135144,"0.0-15.0-3.6",31857,"ListB","woman","chinese","SW_C_F_B1",NA,NA,NA,NA,"{""Q0"":""弗雷正在接近戴夫""}","<img src='gifs/MaleRace3b.gif' style='height:400px;''></img>","接近","正在接近","chinese",NA
"null","<div style=""font-size:60px;"">+</div>",NA,"html-keyboard-response",148,1135661,"0.0-15.0-0.7",31857,"ListB","woman","chinese","SW_C_F_B1",NA,NA,NA,"null",NA,NA,NA,NA,NA,NA
"null","<img src='gifs/ChineseGender4a.gif' style='height:400px;''></img>",NA,"html-keyboard-response",149,1137673,"0.0-15.0-1.7",31857,"ListB","woman","chinese","SW_C_F_B1",NA,NA,NA,"null",NA,NA,NA,NA,NA,NA
"null","正在说服",NA,"html-keyboard-response",150,1140690,"0.0-15.0-2.7",31857,"ListB","woman","chinese","SW_C_F_B1",NA,NA,NA,"null",NA,NA,NA,NA,NA,NA
"5622.799999952316",NA,NA,"survey-text",151,1146318,"0.0-15.0-3.7",31857,"ListB","woman","chinese","SW_C_F_B1",NA,NA,NA,NA,"{""Q0"":""霍普正在说服戴夫""}","<img src='gifs/ChineseGender4a.gif' style='height:400px;''></img>","说服","正在说服","chinese",NA
"null","<div style=""font-size:60px;"">+</div>",NA,"html-keyboard-response",152,1146819,"0.0-15.0-0.8",31857,"ListB","woman","chinese","SW_C_F_B1",NA,NA,NA,"null",NA,NA,NA,NA,NA,NA
"null","<img src='gifs/FemaleRace2a.gif' style='height:400px;''></img>",NA,"html-keyboard-response",153,1148823,"0.0-15.0-1.8",31857,"ListB","woman","chinese","SW_C_F_B1",NA,NA,NA,"null",NA,NA,NA,NA,NA,NA
"null","正在看着",NA,"html-keyboard-response",154,1151829,"0.0-15.0-2.8",31857,"ListB","woman","chinese","SW_C_F_B1",NA,NA,NA,"null",NA,NA,NA,NA,NA,NA
"9049.199999928474",NA,NA,"survey-text",155,1160883,"0.0-15.0-3.8",31857,"ListB","woman","chinese","SW_C_F_B1",NA,NA,NA,NA,"{""Q0"":""凯特正在看着霍普""}","<img src='gifs/FemaleRace2a.gif' style='height:400px;''></img>","看着","正在看着","chinese",NA
"null","<div style=""font-size:60px;"">+</div>",NA,"html-keyboard-response",156,1161386,"0.0-15.0-0.9",31857,"ListB","woman","chinese","SW_C_F_B1",NA,NA,NA,"null",NA,NA,NA,NA,NA,NA
"null","<img src='gifs/BlackGender1b.gif' style='height:400px;''></img>",NA,"html-keyboard-response",157,1163401,"0.0-15.0-1.9",31857,"ListB","woman","chinese","SW_C_F_B1",NA,NA,NA,"null",NA,NA,NA,NA,NA,NA
"null","正在提到",NA,"html-keyboard-response",158,1166403,"0.0-15.0-2.9",31857,"ListB","woman","chinese","SW_C_F_B1",NA,NA,NA,"null",NA,NA,NA,NA,NA,NA
"7022.700000047684",NA,NA,"survey-text",159,1173429,"0.0-15.0-3.9",31857,"ListB","woman","chinese","SW_C_F_B1",NA,NA,NA,NA,"{""Q0"":""贝斯正在提到弗雷""}","<img src='gifs/BlackGender1b.gif' style='height:400px;''></img>","提到","正在提到","chinese",NA
"null","<div style=""font-size:60px;"">+</div>",NA,"html-keyboard-response",160,1173937,"0.0-15.0-0.10",31857,"ListB","woman","chinese","SW_C_F_B1",NA,NA,NA,"null",NA,NA,NA,NA,NA,NA
"null","<img src='gifs/ChineseGender1b.gif' style='height:400px;''></img>",NA,"html-keyboard-response",161,1175944,"0.0-15.0-1.10",31857,"ListB","woman","chinese","SW_C_F_B1",NA,NA,NA,"null",NA,NA,NA,NA,NA,NA
"null","正在介绍",NA,"html-keyboard-response",162,1178958,"0.0-15.0-2.10",31857,"ListB","woman","chinese","SW_C_F_B1",NA,NA,NA,"null",NA,NA,NA,NA,NA,NA
"7964",NA,NA,"survey-text",163,1186927,"0.0-15.0-3.10",31857,"ListB","woman","chinese","SW_C_F_B1",NA,NA,NA,NA,"{""Q0"":""霍普正在介绍卢克""}","<img src='gifs/ChineseGender1b.gif' style='height:400px;''></img>","介绍","正在介绍","chinese",NA
"null","<div style=""font-size:60px;"">+</div>",NA,"html-keyboard-response",164,1187434,"0.0-15.0-0.11",31857,"ListB","woman","chinese","SW_C_F_B1",NA,NA,NA,"null",NA,NA,NA,NA,NA,NA
"null","<img src='gifs/FemaleRace4a.gif' style='height:400px;''></img>",NA,"html-keyboard-response",165,1189449,"0.0-15.0-1.11",31857,"ListB","woman","chinese","SW_C_F_B1",NA,NA,NA,"null",NA,NA,NA,NA,NA,NA
"null","正在看着",NA,"html-keyboard-response",166,1192460,"0.0-15.0-2.11",31857,"ListB","woman","chinese","SW_C_F_B1",NA,NA,NA,"null",NA,NA,NA,NA,NA,NA
"8861",NA,NA,"survey-text",167,1201326,"0.0-15.0-3.11",31857,"ListB","woman","chinese","SW_C_F_B1",NA,NA,NA,NA,"{""Q0"":""凯特正在看着露丝""}","<img src='gifs/FemaleRace4a.gif' style='height:400px;''></img>","看着","正在看着","chinese",NA
"null","<div style=""font-size:60px;"">+</div>",NA,"html-keyboard-response",168,1201845,"0.0-15.0-0.12",31857,"ListB","woman","chinese","SW_C_F_B1",NA,NA,NA,"null",NA,NA,NA,NA,NA,NA
"null","<img src='gifs/BlackGender2a.gif' style='height:400px;''></img>",NA,"html-keyboard-response",169,1203854,"0.0-15.0-1.12",31857,"ListB","woman","chinese","SW_C_F_B1",NA,NA,NA,"null",NA,NA,NA,NA,NA,NA
"null","正在说服",NA,"html-keyboard-response",170,1206857,"0.0-15.0-2.12",31857,"ListB","woman","chinese","SW_C_F_B1",NA,NA,NA,"null",NA,NA,NA,NA,NA,NA
"12306.600000023842",NA,NA,"survey-text",171,1219169,"0.0-15.0-3.12",31857,"ListB","woman","chinese","SW_C_F_B1",NA,NA,NA,NA,"{""Q0"":""贝斯正在说服麦克""}","<img src='gifs/BlackGender2a.gif' style='height:400px;''></img>","说服","正在说服","chinese",NA
"null","<div style=""font-size:60px;"">+</div>",NA,"html-keyboard-response",172,1219672,"0.0-15.0-0.13",31857,"ListB","woman","chinese","SW_C_F_B1",NA,NA,NA,"null",NA,NA,NA,NA,NA,NA
"null","<img src='gifs/ChineseGender3b.gif' style='height:400px;''></img>",NA,"html-keyboard-response",173,1221680,"0.0-15.0-1.13",31857,"ListB","woman","chinese","SW_C_F_B1",NA,NA,NA,"null",NA,NA,NA,NA,NA,NA
"null","正在加入",NA,"html-keyboard-response",174,1224691,"0.0-15.0-2.13",31857,"ListB","woman","chinese","SW_C_F_B1",NA,NA,NA,"null",NA,NA,NA,NA,NA,NA
"6842.600000023842",NA,NA,"survey-text",175,1231536,"0.0-15.0-3.13",31857,"ListB","woman","chinese","SW_C_F_B1",NA,NA,NA,NA,"{""Q0"":""戴夫正在加入露丝""}","<img src='gifs/ChineseGender3b.gif' style='height:400px;''></img>","加入","正在加入","chinese",NA
"null","<div style=""font-size:60px;"">+</div>",NA,"html-keyboard-response",176,1232050,"0.0-15.0-0.14",31857,"ListB","woman","chinese","SW_C_F_B1",NA,NA,NA,"null",NA,NA,NA,NA,NA,NA
"null","<img src='gifs/BlackGender3a.gif' style='height:400px;''></img>",NA,"html-keyboard-response",177,1234053,"0.0-15.0-1.14",31857,"ListB","woman","chinese","SW_C_F_B1",NA,NA,NA,"null",NA,NA,NA,NA,NA,NA
"null","正在加入",NA,"html-keyboard-response",178,1237063,"0.0-15.0-2.14",31857,"ListB","woman","chinese","SW_C_F_B1",NA,NA,NA,"null",NA,NA,NA,NA,NA,NA
"7450.100000023842",NA,NA,"survey-text",179,1244518,"0.0-15.0-3.14",31857,"ListB","woman","chinese","SW_C_F_B1",NA,NA,NA,NA,"{""Q0"":""凯特正在加入弗雷""}","<img src='gifs/BlackGender3a.gif' style='height:400px;''></img>","加入","正在加入","chinese",NA
"null","<div style=""font-size:60px;"">+</div>",NA,"html-keyboard-response",180,1245034,"0.0-15.0-0.15",31857,"ListB","woman","chinese","SW_C_F_B1",NA,NA,NA,"null",NA,NA,NA,NA,NA,NA
"null","<img src='gifs/MaleRace3a.gif' style='height:400px;''></img>",NA,"html-keyboard-response",181,1247039,"0.0-15.0-1.15",31857,"ListB","woman","chinese","SW_C_F_B1",NA,NA,NA,"null",NA,NA,NA,NA,NA,NA
"null","正在加入",NA,"html-keyboard-response",182,1250050,"0.0-15.0-2.15",31857,"ListB","woman","chinese","SW_C_F_B1",NA,NA,NA,"null",NA,NA,NA,NA,NA,NA
"5395.799999952316",NA,NA,"survey-text",183,1255449,"0.0-15.0-3.15",31857,"ListB","woman","chinese","SW_C_F_B1",NA,NA,NA,NA,"{""Q0"":""弗雷正在加入戴夫""}","<img src='gifs/MaleRace3a.gif' style='height:400px;''></img>","加入","正在加入","chinese",NA
"null","<div style=""font-size:60px;"">+</div>",NA,"html-keyboard-response",184,1255960,"0.0-15.0-0.16",31857,"ListB","woman","chinese","SW_C_F_B1",NA,NA,NA,"null",NA,NA,NA,NA,NA,NA
"null","<img src='gifs/BlackGender2a.gif' style='height:400px;''></img>",NA,"html-keyboard-response",185,1257977,"0.0-15.0-1.16",31857,"ListB","woman","chinese","SW_C_F_B1",NA,NA,NA,"null",NA,NA,NA,NA,NA,NA
"null","正在表扬",NA,"html-keyboard-response",186,1260982,"0.0-15.0-2.16",31857,"ListB","woman","chinese","SW_C_F_B1",NA,NA,NA,"null",NA,NA,NA,NA,NA,NA
"6003.399999976158",NA,NA,"survey-text",187,1266990,"0.0-15.0-3.16",31857,"ListB","woman","chinese","SW_C_F_B1",NA,NA,NA,NA,"{""Q0"":""麦克正在表扬贝斯""}","<img src='gifs/BlackGender2a.gif' style='height:400px;''></img>","表扬","正在表扬","chinese",NA
"null","<div style=""font-size:60px;"">+</div>",NA,"html-keyboard-response",188,1267493,"0.0-15.0-0.17",31857,"ListB","woman","chinese","SW_C_F_B1",NA,NA,NA,"null",NA,NA,NA,NA,NA,NA
"null","<img src='gifs/FemaleRace4b.gif' style='height:400px;''></img>",NA,"html-keyboard-response",189,1269499,"0.0-15.0-1.17",31857,"ListB","woman","chinese","SW_C_F_B1",NA,NA,NA,"null",NA,NA,NA,NA,NA,NA
"null","正在触摸",NA,"html-keyboard-response",190,1272508,"0.0-15.0-2.17",31857,"ListB","woman","chinese","SW_C_F_B1",NA,NA,NA,"null",NA,NA,NA,NA,NA,NA
"8206.600000023842",NA,NA,"survey-text",191,1280720,"0.0-15.0-3.17",31857,"ListB","woman","chinese","SW_C_F_B1",NA,NA,NA,NA,"{""Q0"":""凯特正在触摸露丝""}","<img src='gifs/FemaleRace4b.gif' style='height:400px;''></img>","触摸","正在触摸","chinese",NA
"157968.90000009537","<img src='img/portrait_matrix_listB_chinese.jpg' style='width:900px;height:500px;''></img><p>如果您已经记住了所有的人物和名字，请点击继续。</p><p><strong>请注意：您对先前记忆的面孔将在本实验中被测试5次。</strong></p>",0,"html-button-response",192,1438692,"0.0-16.0-0.0",31857,"ListB","woman","chinese","SW_C_F_B1",NA,NA,NA,NA,NA,NA,NA,NA,NA,NA
"3349.7999999523163","<img src=""portrait/WM1.jpg""style=""height:400px;""></img>",6,"html-button-response",193,1443044,"0.0-16.0-1.0",31857,"ListB","woman","chinese","SW_C_F_B1",NA,"true",6,NA,NA,NA,NA,NA,NA,NA
"null","正确",NA,"html-keyboard-response",194,1444562,"0.0-16.0-2.0-0.0",31857,"ListB","woman","chinese","SW_C_F_B1",NA,NA,NA,"null",NA,NA,NA,NA,NA,NA
"2202.5","<img src=""portrait/BM2.jpg""style=""height:400px;""></img>",5,"html-button-response",195,1446768,"0.0-16.0-4.0",31857,"ListB","woman","chinese","SW_C_F_B1",NA,"true",5,NA,NA,NA,NA,NA,NA,NA
"null","正确",NA,"html-keyboard-response",196,1448281,"0.0-16.0-5.0-0.0",31857,"ListB","woman","chinese","SW_C_F_B1",NA,NA,NA,"null",NA,NA,NA,NA,NA,NA
"1990.3000000715256","<img src=""portrait/BW1.jpg""style=""height:400px;""></img>",0,"html-button-response",197,1450273,"0.0-16.0-7.0",31857,"ListB","woman","chinese","SW_C_F_B1",NA,"true",0,NA,NA,NA,NA,NA,NA,NA
"null","正确",NA,"html-keyboard-response",198,1451796,"0.0-16.0-8.0-0.0",31857,"ListB","woman","chinese","SW_C_F_B1",NA,NA,NA,"null",NA,NA,NA,NA,NA,NA
"1555.7999999523163","<img src=""portrait/BM1.jpg""style=""height:400px;""></img>",4,"html-button-response",199,1453354,"0.0-16.0-10.0",31857,"ListB","woman","chinese","SW_C_F_B1",NA,"true",4,NA,NA,NA,NA,NA,NA,NA
"null","正确",NA,"html-keyboard-response",200,1454871,"0.0-16.0-11.0-0.0",31857,"ListB","woman","chinese","SW_C_F_B1",NA,NA,NA,"null",NA,NA,NA,NA,NA,NA
"4400.700000047684","<img src=""portrait/WM2.jpg""style=""height:400px;""></img>",7,"html-button-response",201,1459274,"0.0-16.0-13.0",31857,"ListB","woman","chinese","SW_C_F_B1",NA,"true",7,NA,NA,NA,NA,NA,NA,NA
"null","正确",NA,"html-keyboard-response",202,1460786,"0.0-16.0-14.0-0.0",31857,"ListB","woman","chinese","SW_C_F_B1",NA,NA,NA,"null",NA,NA,NA,NA,NA,NA
"1923.4000000953674","<img src=""portrait/WW1.jpg""style=""height:400px;""></img>",1,"html-button-response",203,1462712,"0.0-16.0-16.0",31857,"ListB","woman","chinese","SW_C_F_B1",NA,"true",1,NA,NA,NA,NA,NA,NA,NA
"null","正确",NA,"html-keyboard-response",204,1464214,"0.0-16.0-17.0-0.0",31857,"ListB","woman","chinese","SW_C_F_B1",NA,NA,NA,"null",NA,NA,NA,NA,NA,NA
"3087.5999999046326","<img src=""portrait/WW2.jpg""style=""height:400px;""></img>",3,"html-button-response",205,1467303,"0.0-16.0-19.0",31857,"ListB","woman","chinese","SW_C_F_B1",NA,"true",3,NA,NA,NA,NA,NA,NA,NA
"null","正确",NA,"html-keyboard-response",206,1468818,"0.0-16.0-20.0-0.0",31857,"ListB","woman","chinese","SW_C_F_B1",NA,NA,NA,"null",NA,NA,NA,NA,NA,NA
"2524","<img src=""portrait/BW2.jpg""style=""height:400px;""></img>",2,"html-button-response",207,1471343,"0.0-16.0-22.0",31857,"ListB","woman","chinese","SW_C_F_B1",NA,"true",2,NA,NA,NA,NA,NA,NA,NA
"null","正确",NA,"html-keyboard-response",208,1472860,"0.0-16.0-23.0-0.0",31857,"ListB","woman","chinese","SW_C_F_B1",NA,NA,NA,"null",NA,NA,NA,NA,NA,NA
"1017.5","<p>您第一次在8题里答对了 8 题。 请点击继续</p>",0,"html-button-response",209,1473879,"0.0-16.0-25.0",31857,"ListB","woman","chinese","SW_C_F_B1",NA,NA,NA,NA,NA,NA,NA,NA,NA,NA
"null","<div style=""font-size:60px;"">+</div>",NA,"html-keyboard-response",210,1475405,"0.0-17.0-0.0",31857,"ListB","woman","chinese","SW_C_F_B1",NA,NA,NA,"null",NA,NA,NA,NA,NA,NA
"null","<img src='gifs/MaleRace1a.gif' style='height:400px;''></img>",NA,"html-keyboard-response",211,1477409,"0.0-17.0-1.0",31857,"ListB","woman","chinese","SW_C_F_B1",NA,NA,NA,"null",NA,NA,NA,NA,NA,NA
"null","正在答应",NA,"html-keyboard-response",212,1480410,"0.0-17.0-2.0",31857,"ListB","woman","chinese","SW_C_F_B1",NA,NA,NA,"null",NA,NA,NA,NA,NA,NA
"11746.899999976158",NA,NA,"survey-text",213,1492160,"0.0-17.0-3.0",31857,"ListB","woman","chinese","SW_C_F_B1",NA,NA,NA,NA,"{""Q0"":""弗雷正在答应卢克""}","<img src='gifs/MaleRace1a.gif' style='height:400px;''></img>","答应","正在答应","chinese",NA
"null","<div style=""font-size:60px;"">+</div>",NA,"html-keyboard-response",214,1492672,"0.0-17.0-0.1",31857,"ListB","woman","chinese","SW_C_F_B1",NA,NA,NA,"null",NA,NA,NA,NA,NA,NA
"null","<img src='gifs/ChineseGender3a.gif' style='height:400px;''></img>",NA,"html-keyboard-response",215,1494682,"0.0-17.0-1.1",31857,"ListB","woman","chinese","SW_C_F_B1",NA,NA,NA,"null",NA,NA,NA,NA,NA,NA
"null","正在走向",NA,"html-keyboard-response",216,1497696,"0.0-17.0-2.1",31857,"ListB","woman","chinese","SW_C_F_B1",NA,NA,NA,"null",NA,NA,NA,NA,NA,NA
"6849.099999904633",NA,NA,"survey-text",217,1504550,"0.0-17.0-3.1",31857,"ListB","woman","chinese","SW_C_F_B1",NA,NA,NA,NA,"{""Q0"":""露丝正在走向戴夫""}","<img src='gifs/ChineseGender3a.gif' style='height:400px;''></img>","走向","正在走向","chinese",NA
"null","<div style=""font-size:60px;"">+</div>",NA,"html-keyboard-response",218,1505058,"0.0-17.0-0.2",31857,"ListB","woman","chinese","SW_C_F_B1",NA,NA,NA,"null",NA,NA,NA,NA,NA,NA
"null","<img src='gifs/BlackGender4b.gif' style='height:400px;''></img>",NA,"html-keyboard-response",219,1507060,"0.0-17.0-1.2",31857,"ListB","woman","chinese","SW_C_F_B1",NA,NA,NA,"null",NA,NA,NA,NA,NA,NA
"null","正在介绍",NA,"html-keyboard-response",220,1510062,"0.0-17.0-2.2",31857,"ListB","woman","chinese","SW_C_F_B1",NA,NA,NA,"null",NA,NA,NA,NA,NA,NA
"7472.600000023842",NA,NA,"survey-text",221,1517540,"0.0-17.0-3.2",31857,"ListB","woman","chinese","SW_C_F_B1",NA,NA,NA,NA,"{""Q0"":""凯特正在介绍麦克""}","<img src='gifs/BlackGender4b.gif' style='height:400px;''></img>","介绍","正在介绍","chinese",NA
"null","<div style=""font-size:60px;"">+</div>",NA,"html-keyboard-response",222,1518049,"0.0-17.0-0.3",31857,"ListB","woman","chinese","SW_C_F_B1",NA,NA,NA,"null",NA,NA,NA,NA,NA,NA
"null","<img src='gifs/ChineseGender2a.gif' style='height:400px;''></img>",NA,"html-keyboard-response",223,1520057,"0.0-17.0-1.3",31857,"ListB","woman","chinese","SW_C_F_B1",NA,NA,NA,"null",NA,NA,NA,NA,NA,NA
"null","正在加入",NA,"html-keyboard-response",224,1523067,"0.0-17.0-2.3",31857,"ListB","woman","chinese","SW_C_F_B1",NA,NA,NA,"null",NA,NA,NA,NA,NA,NA
"6045.700000047684",NA,NA,"survey-text",225,1529119,"0.0-17.0-3.3",31857,"ListB","woman","chinese","SW_C_F_B1",NA,NA,NA,NA,"{""Q0"":""露丝正在加入卢克""}","<img src='gifs/ChineseGender2a.gif' style='height:400px;''></img>","加入","正在加入","chinese",NA
"null","<div style=""font-size:60px;"">+</div>",NA,"html-keyboard-response",226,1529634,"0.0-17.0-0.4",31857,"ListB","woman","chinese","SW_C_F_B1",NA,NA,NA,"null",NA,NA,NA,NA,NA,NA
"null","<img src='gifs/MaleRace4a.gif' style='height:400px;''></img>",NA,"html-keyboard-response",227,1531653,"0.0-17.0-1.4",31857,"ListB","woman","chinese","SW_C_F_B1",NA,NA,NA,"null",NA,NA,NA,NA,NA,NA
"null","正在提到",NA,"html-keyboard-response",228,1534657,"0.0-17.0-2.4",31857,"ListB","woman","chinese","SW_C_F_B1",NA,NA,NA,"null",NA,NA,NA,NA,NA,NA
"6730.5",NA,NA,"survey-text",229,1541391,"0.0-17.0-3.4",31857,"ListB","woman","chinese","SW_C_F_B1",NA,NA,NA,NA,"{""Q0"":""戴夫正在提到麦克""}","<img src='gifs/MaleRace4a.gif' style='height:400px;''></img>","提到","正在提到","chinese",NA
"null","<div style=""font-size:60px;"">+</div>",NA,"html-keyboard-response",230,1541901,"0.0-17.0-0.5",31857,"ListB","woman","chinese","SW_C_F_B1",NA,NA,NA,"null",NA,NA,NA,NA,NA,NA
"null","<img src='gifs/FemaleRace2a.gif' style='height:400px;''></img>",NA,"html-keyboard-response",231,1543914,"0.0-17.0-1.5",31857,"ListB","woman","chinese","SW_C_F_B1",NA,NA,NA,"null",NA,NA,NA,NA,NA,NA
"null","正在聆听",NA,"html-keyboard-response",232,1546919,"0.0-17.0-2.5",31857,"ListB","woman","chinese","SW_C_F_B1",NA,NA,NA,"null",NA,NA,NA,NA,NA,NA
"8426.399999976158",NA,NA,"survey-text",233,1555350,"0.0-17.0-3.5",31857,"ListB","woman","chinese","SW_C_F_B1",NA,NA,NA,NA,"{""Q0"":""霍普正在聆听凯特""}","<img src='gifs/FemaleRace2a.gif' style='height:400px;''></img>","聆听","正在聆听","chinese",NA
"null","<div style=""font-size:60px;"">+</div>",NA,"html-keyboard-response",234,1555861,"0.0-17.0-0.6",31857,"ListB","woman","chinese","SW_C_F_B1",NA,NA,NA,"null",NA,NA,NA,NA,NA,NA
"null","<img src='gifs/BlackGender2b.gif' style='height:400px;''></img>",NA,"html-keyboard-response",235,1557880,"0.0-17.0-1.6",31857,"ListB","woman","chinese","SW_C_F_B1",NA,NA,NA,"null",NA,NA,NA,NA,NA,NA
"null","正在走向",NA,"html-keyboard-response",236,1560889,"0.0-17.0-2.6",31857,"ListB","woman","chinese","SW_C_F_B1",NA,NA,NA,"null",NA,NA,NA,NA,NA,NA
"6315",NA,NA,"survey-text",237,1567209,"0.0-17.0-3.6",31857,"ListB","woman","chinese","SW_C_F_B1",NA,NA,NA,NA,"{""Q0"":""麦克正在走向贝斯""}","<img src='gifs/BlackGender2b.gif' style='height:400px;''></img>","走向","正在走向","chinese",NA
"null","<div style=""font-size:60px;"">+</div>",NA,"html-keyboard-response",238,1567715,"0.0-17.0-0.7",31857,"ListB","woman","chinese","SW_C_F_B1",NA,NA,NA,"null",NA,NA,NA,NA,NA,NA
"null","<img src='gifs/ChineseGender1a.gif' style='height:400px;''></img>",NA,"html-keyboard-response",239,1569717,"0.0-17.0-1.7",31857,"ListB","woman","chinese","SW_C_F_B1",NA,NA,NA,"null",NA,NA,NA,NA,NA,NA
"null","正在聆听",NA,"html-keyboard-response",240,1572732,"0.0-17.0-2.7",31857,"ListB","woman","chinese","SW_C_F_B1",NA,NA,NA,"null",NA,NA,NA,NA,NA,NA
"9066.100000023842",NA,NA,"survey-text",241,1581801,"0.0-17.0-3.7",31857,"ListB","woman","chinese","SW_C_F_B1",NA,NA,NA,NA,"{""Q0"":""卢克正在聆听霍普""}","<img src='gifs/ChineseGender1a.gif' style='height:400px;''></img>","聆听","正在聆听","chinese",NA
"null","<div style=""font-size:60px;"">+</div>",NA,"html-keyboard-response",242,1582312,"0.0-17.0-0.8",31857,"ListB","woman","chinese","SW_C_F_B1",NA,NA,NA,"null",NA,NA,NA,NA,NA,NA
"null","<img src='gifs/BlackGender3b.gif' style='height:400px;''></img>",NA,"html-keyboard-response",243,1584318,"0.0-17.0-1.8",31857,"ListB","woman","chinese","SW_C_F_B1",NA,NA,NA,"null",NA,NA,NA,NA,NA,NA
"null","正在聘用",NA,"html-keyboard-response",244,1587333,"0.0-17.0-2.8",31857,"ListB","woman","chinese","SW_C_F_B1",NA,NA,NA,"null",NA,NA,NA,NA,NA,NA
"7393.100000023842",NA,NA,"survey-text",245,1594732,"0.0-17.0-3.8",31857,"ListB","woman","chinese","SW_C_F_B1",NA,NA,NA,NA,"{""Q0"":""弗雷正在聘用凯特""}","<img src='gifs/BlackGender3b.gif' style='height:400px;''></img>","聘用","正在聘用","chinese",NA
"null","<div style=""font-size:60px;"">+</div>",NA,"html-keyboard-response",246,1595239,"0.0-17.0-0.9",31857,"ListB","woman","chinese","SW_C_F_B1",NA,NA,NA,"null",NA,NA,NA,NA,NA,NA
"null","<img src='gifs/FemaleRace4a.gif' style='height:400px;''></img>",NA,"html-keyboard-response",247,1597254,"0.0-17.0-1.9",31857,"ListB","woman","chinese","SW_C_F_B1",NA,NA,NA,"null",NA,NA,NA,NA,NA,NA
"null","正在聘用",NA,"html-keyboard-response",248,1600263,"0.0-17.0-2.9",31857,"ListB","woman","chinese","SW_C_F_B1",NA,NA,NA,"null",NA,NA,NA,NA,NA,NA
"7058.800000071526",NA,NA,"survey-text",249,1607327,"0.0-17.0-3.9",31857,"ListB","woman","chinese","SW_C_F_B1",NA,NA,NA,NA,"{""Q0"":""露丝正在聘用凯特""}","<img src='gifs/FemaleRace4a.gif' style='height:400px;''></img>","聘用","正在聘用","chinese",NA
"null","<div style=""font-size:60px;"">+</div>",NA,"html-keyboard-response",250,1607838,"0.0-17.0-0.10",31857,"ListB","woman","chinese","SW_C_F_B1",NA,NA,NA,"null",NA,NA,NA,NA,NA,NA
"null","<img src='gifs/ChineseGender4b.gif' style='height:400px;''></img>",NA,"html-keyboard-response",251,1609843,"0.0-17.0-1.10",31857,"ListB","woman","chinese","SW_C_F_B1",NA,NA,NA,"null",NA,NA,NA,NA,NA,NA
"null","正在跟随",NA,"html-keyboard-response",252,1612846,"0.0-17.0-2.10",31857,"ListB","woman","chinese","SW_C_F_B1",NA,NA,NA,"null",NA,NA,NA,NA,NA,NA
"6993.699999928474",NA,NA,"survey-text",253,1619844,"0.0-17.0-3.10",31857,"ListB","woman","chinese","SW_C_F_B1",NA,NA,NA,NA,"{""Q0"":""戴夫正在跟随霍普""}","<img src='gifs/ChineseGender4b.gif' style='height:400px;''></img>","跟随","正在跟随","chinese",NA
"null","<div style=""font-size:60px;"">+</div>",NA,"html-keyboard-response",254,1620346,"0.0-17.0-0.11",31857,"ListB","woman","chinese","SW_C_F_B1",NA,NA,NA,"null",NA,NA,NA,NA,NA,NA
"null","<img src='gifs/FemaleRace3b.gif' style='height:400px;''></img>",NA,"html-keyboard-response",255,1622368,"0.0-17.0-1.11",31857,"ListB","woman","chinese","SW_C_F_B1",NA,NA,NA,"null",NA,NA,NA,NA,NA,NA
"null","正在触摸",NA,"html-keyboard-response",256,1625389,"0.0-17.0-2.11",31857,"ListB","woman","chinese","SW_C_F_B1",NA,NA,NA,"null",NA,NA,NA,NA,NA,NA
"16508.100000023842",NA,NA,"survey-text",257,1641902,"0.0-17.0-3.11",31857,"ListB","woman","chinese","SW_C_F_B1",NA,NA,NA,NA,"{""Q0"":""露丝正在触摸贝斯""}","<img src='gifs/FemaleRace3b.gif' style='height:400px;''></img>","触摸","正在触摸","chinese",NA
"null","<div style=""font-size:60px;"">+</div>",NA,"html-keyboard-response",258,1642406,"0.0-17.0-0.12",31857,"ListB","woman","chinese","SW_C_F_B1",NA,NA,NA,"null",NA,NA,NA,NA,NA,NA
"null","<img src='gifs/MaleRace3b.gif' style='height:400px;''></img>",NA,"html-keyboard-response",259,1644409,"0.0-17.0-1.12",31857,"ListB","woman","chinese","SW_C_F_B1",NA,NA,NA,"null",NA,NA,NA,NA,NA,NA
"null","正在表扬",NA,"html-keyboard-response",260,1647417,"0.0-17.0-2.12",31857,"ListB","woman","chinese","SW_C_F_B1",NA,NA,NA,"null",NA,NA,NA,NA,NA,NA
"7497",NA,NA,"survey-text",261,1654920,"0.0-17.0-3.12",31857,"ListB","woman","chinese","SW_C_F_B1",NA,NA,NA,NA,"{""Q0"":""戴夫正在表扬弗雷""}","<img src='gifs/MaleRace3b.gif' style='height:400px;''></img>","表扬","正在表扬","chinese",NA
"null","<div style=""font-size:60px;"">+</div>",NA,"html-keyboard-response",262,1655435,"0.0-17.0-0.13",31857,"ListB","woman","chinese","SW_C_F_B1",NA,NA,NA,"null",NA,NA,NA,NA,NA,NA
"null","<img src='gifs/BlackGender1a.gif' style='height:400px;''></img>",NA,"html-keyboard-response",263,1657439,"0.0-17.0-1.13",31857,"ListB","woman","chinese","SW_C_F_B1",NA,NA,NA,"null",NA,NA,NA,NA,NA,NA
"null","正在触摸",NA,"html-keyboard-response",264,1660455,"0.0-17.0-2.13",31857,"ListB","woman","chinese","SW_C_F_B1",NA,NA,NA,"null",NA,NA,NA,NA,NA,NA
"5956.799999952316",NA,NA,"survey-text",265,1666416,"0.0-17.0-3.13",31857,"ListB","woman","chinese","SW_C_F_B1",NA,NA,NA,NA,"{""Q0"":""贝斯正在触摸弗雷""}","<img src='gifs/BlackGender1a.gif' style='height:400px;''></img>","触摸","正在触摸","chinese",NA
"null","<div style=""font-size:60px;"">+</div>",NA,"html-keyboard-response",266,1666929,"0.0-17.0-0.14",31857,"ListB","woman","chinese","SW_C_F_B1",NA,NA,NA,"null",NA,NA,NA,NA,NA,NA
"null","<img src='gifs/MaleRace2b.gif' style='height:400px;''></img>",NA,"html-keyboard-response",267,1668946,"0.0-17.0-1.14",31857,"ListB","woman","chinese","SW_C_F_B1",NA,NA,NA,"null",NA,NA,NA,NA,NA,NA
"null","正在聘用",NA,"html-keyboard-response",268,1671959,"0.0-17.0-2.14",31857,"ListB","woman","chinese","SW_C_F_B1",NA,NA,NA,"null",NA,NA,NA,NA,NA,NA
"7917.700000047684",NA,NA,"survey-text",269,1679883,"0.0-17.0-3.14",31857,"ListB","woman","chinese","SW_C_F_B1",NA,NA,NA,NA,"{""Q0"":""卢克正在聘用麦克""}","<img src='gifs/MaleRace2b.gif' style='height:400px;''></img>","聘用","正在聘用","chinese",NA
"null","<div style=""font-size:60px;"">+</div>",NA,"html-keyboard-response",270,1680387,"0.0-17.0-0.15",31857,"ListB","woman","chinese","SW_C_F_B1",NA,NA,NA,"null",NA,NA,NA,NA,NA,NA
"null","<img src='gifs/FemaleRace3b.gif' style='height:400px;''></img>",NA,"html-keyboard-response",271,1682394,"0.0-17.0-1.15",31857,"ListB","woman","chinese","SW_C_F_B1",NA,NA,NA,"null",NA,NA,NA,NA,NA,NA
"null","正在聘用",NA,"html-keyboard-response",272,1685397,"0.0-17.0-2.15",31857,"ListB","woman","chinese","SW_C_F_B1",NA,NA,NA,"null",NA,NA,NA,NA,NA,NA
"7030.800000071526",NA,NA,"survey-text",273,1692433,"0.0-17.0-3.15",31857,"ListB","woman","chinese","SW_C_F_B1",NA,NA,NA,NA,"{""Q0"":""贝斯正在聘用露丝""}","<img src='gifs/FemaleRace3b.gif' style='height:400px;''></img>","聘用","正在聘用","chinese",NA
"null","<div style=""font-size:60px;"">+</div>",NA,"html-keyboard-response",274,1692944,"0.0-17.0-0.16",31857,"ListB","woman","chinese","SW_C_F_B1",NA,NA,NA,"null",NA,NA,NA,NA,NA,NA
"null","<img src='gifs/ChineseGender1b.gif' style='height:400px;''></img>",NA,"html-keyboard-response",275,1694949,"0.0-17.0-1.16",31857,"ListB","woman","chinese","SW_C_F_B1",NA,NA,NA,"null",NA,NA,NA,NA,NA,NA
"null","正在表扬",NA,"html-keyboard-response",276,1697961,"0.0-17.0-2.16",31857,"ListB","woman","chinese","SW_C_F_B1",NA,NA,NA,"null",NA,NA,NA,NA,NA,NA
"8485.399999976158",NA,NA,"survey-text",277,1706452,"0.0-17.0-3.16",31857,"ListB","woman","chinese","SW_C_F_B1",NA,NA,NA,NA,"{""Q0"":""卢克正在表扬霍普""}","<img src='gifs/ChineseGender1b.gif' style='height:400px;''></img>","表扬","正在表扬","chinese",NA
"null","<div style=""font-size:60px;"">+</div>",NA,"html-keyboard-response",278,1706959,"0.0-17.0-0.17",31857,"ListB","woman","chinese","SW_C_F_B1",NA,NA,NA,"null",NA,NA,NA,NA,NA,NA
"null","<img src='gifs/BlackGender3b.gif' style='height:400px;''></img>",NA,"html-keyboard-response",279,1708968,"0.0-17.0-1.17",31857,"ListB","woman","chinese","SW_C_F_B1",NA,NA,NA,"null",NA,NA,NA,NA,NA,NA
"null","正在陪伴",NA,"html-keyboard-response",280,1711978,"0.0-17.0-2.17",31857,"ListB","woman","chinese","SW_C_F_B1",NA,NA,NA,"null",NA,NA,NA,NA,NA,NA
"19455.100000023842",NA,NA,"survey-text",281,1731437,"0.0-17.0-3.17",31857,"ListB","woman","chinese","SW_C_F_B1",NA,NA,NA,NA,"{""Q0"":""贝斯正在陪伴弗雷""}","<img src='gifs/BlackGender3b.gif' style='height:400px;''></img>","陪伴","正在陪伴","chinese",NA
"4632.899999976158","<p>Thank you for completing that task.</p><p>The final part of this session is a short questionnaire.</p><p>Press Continue.</p>",0,"html-button-response",282,1736072,"0.0-18.0",31857,"ListB","woman","chinese","SW_C_F_B1",NA,NA,NA,NA,NA,NA,NA,NA,NA,NA
"73525",NA,NA,"survey-text",283,1810611,"0.0-19.0",31857,"ListB","woman","chinese","SW_C_F_B1",NA,NA,NA,NA,"{""Q0"":""23"",""Q1"":""普通话"",""Q2"":""中文"",""Q3"":""英国"",""Q4"":""Chinese"",""Q5"":""Asian"",""Q6"":""female""}",NA,NA,NA,NA,"demographics"
"144274.29999995232","<p>Have you lived in the UK for the last 5 years or more?</p>",1,"html-button-response",284,1954889,"0.0-20.0",31857,"ListB","woman","chinese","SW_C_F_B1",NA,NA,NA,NA,NA,NA,NA,NA,NA,"fiveyears"
"29418.899999976158",NA,NA,"external-html",285,1985672,"0.0-21.0",31857,"ListB","woman","chinese","SW_C_F_B1","debrief.html",NA,NA,NA,NA,NA,NA,NA,NA,NA
"23472.199999928474",NA,NA,"survey-text",286,2009150,"0.0-22.0",31857,"ListB","woman","chinese","SW_C_F_B1",NA,NA,NA,NA,"{""ptpt_id"":""SW_C_F_B1""}",NA,NA,NA,NA,"worker_id"
