"rt","stimulus","button_pressed","trial_type","trial_index","time_elapsed","internal_node_id","subject","list","ppt_gender","ppt_language","ptptID","url","first_guess","correct","key_press","responses","image","verb","phrase","condition","test_part"
"1487.999999999999","Welcome to the experiment. Press Continue to begin.",0,"html-button-response",0,1491,"0.0-0.0",37721,"ListA","woman","chinese","CFA11",NA,NA,NA,NA,NA,NA,NA,NA,NA,NA
"4718",NA,NA,"external-html",1,7273,"0.0-1.0",37721,"ListA","woman","chinese","CFA11","consent.html",NA,NA,NA,NA,NA,NA,NA,NA,NA
"5719","<p>在下一页中，您将看到8个人物肖像和他们各自的名字。</p><p>请花费几分钟的时间记住这些人物及其所对应的名字。</p><p>之后的实验中需要您对人物的名字做出回忆，</p><p>因此在实验开始前请确保您已 经完全记住这些人物及其所对应的名字。</p><p><strong>然后您将完成一个测试以检验您对人物和名字的记忆。</strong></p><p>完成此记忆测试后，您将正式进入实验。</p><p>准备好了吗？</p>",0,"html-button-response",2,12998,"0.0-2.0",37721,"ListA","woman","chinese","CFA11",NA,NA,NA,NA,NA,NA,NA,NA,NA,NA
"186791","<img src='img/portrait_matrix_listA_chinese.jpg' style='width:900px;height:500px;''></img><p>如果您已经记住了所有的人物和名字，请点击继续。</p><p><strong>请注意：您对先前记忆的面孔将在本实验中被测试5次。</strong></p>",0,"html-button-response",3,200797,"0.0-3.0-0.0",37721,"ListA","woman","chinese","CFA11",NA,NA,NA,NA,NA,NA,NA,NA,NA,NA
"6688","<img src=""portrait/WW1.jpg""style=""height:400px;""></img>",0,"html-button-response",4,208492,"0.0-3.0-1.0",37721,"ListA","woman","chinese","CFA11",NA,"true",1,NA,NA,NA,NA,NA,NA,NA
"7585","<img src=""portrait/WW1.jpg""style=""height:400px;""></img>",1,"html-button-response",5,217084,"0.0-3.0-3.0-0.0",37721,"ListA","woman","chinese","CFA11",NA,"false",1,NA,NA,NA,NA,NA,NA,NA
"null","正确",NA,"html-keyboard-response",6,218593,"0.0-3.0-3.0-1.0-0.0",37721,"ListA","woman","chinese","CFA11",NA,NA,NA,"null",NA,NA,NA,NA,NA,NA
"7901","<img src=""portrait/BW2.jpg""style=""height:400px;""></img>",2,"html-button-response",7,226497,"0.0-3.0-4.0",37721,"ListA","woman","chinese","CFA11",NA,"true",2,NA,NA,NA,NA,NA,NA,NA
"null","正确",NA,"html-keyboard-response",8,228001,"0.0-3.0-5.0-0.0",37721,"ListA","woman","chinese","CFA11",NA,NA,NA,"null",NA,NA,NA,NA,NA,NA
"4822.000000000029","<img src=""portrait/WM1.jpg""style=""height:400px;""></img>",6,"html-button-response",9,232826,"0.0-3.0-7.0",37721,"ListA","woman","chinese","CFA11",NA,"true",6,NA,NA,NA,NA,NA,NA,NA
"null","正确",NA,"html-keyboard-response",10,234329,"0.0-3.0-8.0-0.0",37721,"ListA","woman","chinese","CFA11",NA,NA,NA,"null",NA,NA,NA,NA,NA,NA
"4165.999999999971","<img src=""portrait/WM2.jpg""style=""height:400px;""></img>",7,"html-button-response",11,238498,"0.0-3.0-10.0",37721,"ListA","woman","chinese","CFA11",NA,"true",7,NA,NA,NA,NA,NA,NA,NA
"null","正确",NA,"html-keyboard-response",12,240002,"0.0-3.0-11.0-0.0",37721,"ListA","woman","chinese","CFA11",NA,NA,NA,"null",NA,NA,NA,NA,NA,NA
"4190.999999999971","<img src=""portrait/BM1.jpg""style=""height:400px;""></img>",4,"html-button-response",13,244197,"0.0-3.0-13.0",37721,"ListA","woman","chinese","CFA11",NA,"true",4,NA,NA,NA,NA,NA,NA,NA
"null","正确",NA,"html-keyboard-response",14,245700,"0.0-3.0-14.0-0.0",37721,"ListA","woman","chinese","CFA11",NA,NA,NA,"null",NA,NA,NA,NA,NA,NA
"3924.000000000029","<img src=""portrait/BW1.jpg""style=""height:400px;""></img>",0,"html-button-response",15,249626,"0.0-3.0-16.0",37721,"ListA","woman","chinese","CFA11",NA,"true",0,NA,NA,NA,NA,NA,NA,NA
"null","正确",NA,"html-keyboard-response",16,251130,"0.0-3.0-17.0-0.0",37721,"ListA","woman","chinese","CFA11",NA,NA,NA,"null",NA,NA,NA,NA,NA,NA
"5063.999999999971","<img src=""portrait/WW2.jpg""style=""height:400px;""></img>",3,"html-button-response",17,256196,"0.0-3.0-19.0",37721,"ListA","woman","chinese","CFA11",NA,"true",3,NA,NA,NA,NA,NA,NA,NA
"null","正确",NA,"html-keyboard-response",18,257701,"0.0-3.0-20.0-0.0",37721,"ListA","woman","chinese","CFA11",NA,NA,NA,"null",NA,NA,NA,NA,NA,NA
"2673","<img src=""portrait/BM2.jpg""style=""height:400px;""></img>",5,"html-button-response",19,260375,"0.0-3.0-22.0",37721,"ListA","woman","chinese","CFA11",NA,"true",5,NA,NA,NA,NA,NA,NA,NA
"null","正确",NA,"html-keyboard-response",20,261879,"0.0-3.0-23.0-0.0",37721,"ListA","woman","chinese","CFA11",NA,NA,NA,"null",NA,NA,NA,NA,NA,NA
"1362.0000000000582","<p>您第一次在8题里答对了 7 题。 请点击继续</p>",0,"html-button-response",21,263247,"0.0-3.0-25.0",37721,"ListA","woman","chinese","CFA11",NA,NA,NA,NA,NA,NA,NA,NA,NA,NA
"2111","因为您没有全部答对，记忆游戏将重新开始。请点击继续。",0,"html-button-response",22,266361,"0.0-3.0-26.0-0.0",37721,"ListA","woman","chinese","CFA11",NA,NA,NA,NA,NA,NA,NA,NA,NA,NA
"4206.000000000058","<img src='img/portrait_matrix_listA_chinese.jpg' style='width:900px;height:500px;''></img><p>如果您已经记住了所有的人物和名字，请点击继续。</p><p><strong>请注意：您对先前记忆的面孔将在本实验中被测试5次。</strong></p>",0,"html-button-response",23,271574,"0.0-3.1-0.1",37721,"ListA","woman","chinese","CFA11",NA,NA,NA,NA,NA,NA,NA,NA,NA,NA
"7208","<img src=""portrait/WW1.jpg""style=""height:400px;""></img>",1,"html-button-response",24,279785,"0.0-3.1-1.1",37721,"ListA","woman","chinese","CFA11",NA,"true",1,NA,NA,NA,NA,NA,NA,NA
"null","正确",NA,"html-keyboard-response",25,281288,"0.0-3.1-2.1-0.1",37721,"ListA","woman","chinese","CFA11",NA,NA,NA,"null",NA,NA,NA,NA,NA,NA
"9241","<img src=""portrait/BW2.jpg""style=""height:400px;""></img>",2,"html-button-response",26,290533,"0.0-3.1-4.1",37721,"ListA","woman","chinese","CFA11",NA,"true",2,NA,NA,NA,NA,NA,NA,NA
"null","正确",NA,"html-keyboard-response",27,292037,"0.0-3.1-5.1-0.1",37721,"ListA","woman","chinese","CFA11",NA,NA,NA,"null",NA,NA,NA,NA,NA,NA
"7247","<img src=""portrait/WM1.jpg""style=""height:400px;""></img>",6,"html-button-response",28,299288,"0.0-3.1-7.1",37721,"ListA","woman","chinese","CFA11",NA,"true",6,NA,NA,NA,NA,NA,NA,NA
"null","正确",NA,"html-keyboard-response",29,300791,"0.0-3.1-8.1-0.1",37721,"ListA","woman","chinese","CFA11",NA,NA,NA,"null",NA,NA,NA,NA,NA,NA
"2803","<img src=""portrait/WM2.jpg""style=""height:400px;""></img>",7,"html-button-response",30,303596,"0.0-3.1-10.1",37721,"ListA","woman","chinese","CFA11",NA,"true",7,NA,NA,NA,NA,NA,NA,NA
"null","正确",NA,"html-keyboard-response",31,305099,"0.0-3.1-11.1-0.1",37721,"ListA","woman","chinese","CFA11",NA,NA,NA,"null",NA,NA,NA,NA,NA,NA
"3244","<img src=""portrait/BM1.jpg""style=""height:400px;""></img>",4,"html-button-response",32,308346,"0.0-3.1-13.1",37721,"ListA","woman","chinese","CFA11",NA,"true",4,NA,NA,NA,NA,NA,NA,NA
"null","正确",NA,"html-keyboard-response",33,309849,"0.0-3.1-14.1-0.1",37721,"ListA","woman","chinese","CFA11",NA,NA,NA,"null",NA,NA,NA,NA,NA,NA
"8805","<img src=""portrait/BW1.jpg""style=""height:400px;""></img>",0,"html-button-response",34,318657,"0.0-3.1-16.1",37721,"ListA","woman","chinese","CFA11",NA,"true",0,NA,NA,NA,NA,NA,NA,NA
"null","正确",NA,"html-keyboard-response",35,320161,"0.0-3.1-17.1-0.1",37721,"ListA","woman","chinese","CFA11",NA,NA,NA,"null",NA,NA,NA,NA,NA,NA
"4321","<img src=""portrait/WW2.jpg""style=""height:400px;""></img>",3,"html-button-response",36,324485,"0.0-3.1-19.1",37721,"ListA","woman","chinese","CFA11",NA,"true",3,NA,NA,NA,NA,NA,NA,NA
"null","正确",NA,"html-keyboard-response",37,325988,"0.0-3.1-20.1-0.1",37721,"ListA","woman","chinese","CFA11",NA,NA,NA,"null",NA,NA,NA,NA,NA,NA
"2142","<img src=""portrait/BM2.jpg""style=""height:400px;""></img>",5,"html-button-response",38,328133,"0.0-3.1-22.1",37721,"ListA","woman","chinese","CFA11",NA,"true",5,NA,NA,NA,NA,NA,NA,NA
"null","正确",NA,"html-keyboard-response",39,329637,"0.0-3.1-23.1-0.1",37721,"ListA","woman","chinese","CFA11",NA,NA,NA,"null",NA,NA,NA,NA,NA,NA
"1197","<p>您第一次在8题里答对了 8 题。 请点击继续</p>",0,"html-button-response",40,330837,"0.0-3.1-25.1",37721,"ListA","woman","chinese","CFA11",NA,NA,NA,NA,NA,NA,NA,NA,NA,NA
"38274","<p>此次实验您将会看到先前记忆任务里的人物照片。</p><p>人物照片消失后您将看到一个动词短语，请正确回忆人物的名字并用特定的 动词短语组成一句完整的句子。</p><p>请在指定的框内输入您的答案。在进入下一题之前请确保您填写了完整的句子。</p><p>人物照片和动词短语只会在屏幕上出现几秒钟，因此请您答题时尽量集中注意力。</p><p>以下是例子。请您在准备好后按下“继续”。</p><img src='img/chinese_speaking_example.jpg' style='width:800px;height:460px;''></img>",0,"html-button-response",41,370115,"0.0-4.0",37721,"ListA","woman","chinese","CFA11",NA,NA,NA,NA,NA,NA,NA,NA,NA,NA
"1419","<p>在实验开始前，将为您展示两个示例实验。</p>",0,"html-button-response",42,372538,"0.0-5.0",37721,"ListA","woman","chinese","CFA11",NA,NA,NA,NA,NA,NA,NA,NA,NA,NA
"null","<img src='img/meet.gif' style='height:400px;''></img>",NA,"html-keyboard-response",43,375542,"0.0-6.0",37721,"ListA","woman","chinese","CFA11",NA,NA,NA,"null",NA,NA,NA,NA,NA,NA
"null","<p>正在约见</p>",NA,"html-keyboard-response",44,377544,"0.0-7.0",37721,"ListA","woman","chinese","CFA11",NA,NA,NA,"null",NA,NA,NA,NA,NA,NA
"6304","<p><b>答案:</b> 凯特正在约见贝斯</p>",0,"html-button-response",45,383850,"0.0-8.0",37721,"ListA","woman","chinese","CFA11",NA,NA,NA,NA,NA,NA,NA,NA,NA,NA
"null","<img src='img/spy.gif' style='height:400px;''></img>",NA,"html-keyboard-response",46,386854,"0.0-9.0",37721,"ListA","woman","chinese","CFA11",NA,NA,NA,"null",NA,NA,NA,NA,NA,NA
"null","<p>正在监视</p>",NA,"html-keyboard-response",47,388857,"0.0-10.0",37721,"ListA","woman","chinese","CFA11",NA,NA,NA,"null",NA,NA,NA,NA,NA,NA
"5225","<p><b>答案:</b> 卢克正在监视戴夫</p>",0,"html-button-response",48,394084,"0.0-11.0",37721,"ListA","woman","chinese","CFA11",NA,NA,NA,NA,NA,NA,NA,NA,NA,NA
"4747","<p>准备好开始了吗？</p><br><p><strong>请记住，您的答案需是一句完整的句子</strong></p><p><strong>，并用给到的图片人物和动词短语作答。</strong></p><p><strong>只有正确并完整完成实验才可获得报酬。</strong></p><p><strong> 您不需要加入任何标点符号。</strong></p><br><p>请按 ‘继续’ 键开始。</p>",0,"html-button-response",49,399834,"0.0-12.0",37721,"ListA","woman","chinese","CFA11",NA,NA,NA,NA,NA,NA,NA,NA,NA,NA
"null","<div style=""font-size:60px;"">+</div>",NA,"html-keyboard-response",50,401338,"0.0-13.0-0.0",37721,"ListA","woman","chinese","CFA11",NA,NA,NA,"null",NA,NA,NA,NA,NA,NA
"null","<img src='gifs/ChineseGender2a.gif' style='height:400px;''></img>",NA,"html-keyboard-response",51,403344,"0.0-13.0-1.0",37721,"ListA","woman","chinese","CFA11",NA,NA,NA,"null",NA,NA,NA,NA,NA,NA
"null","正在看着",NA,"html-keyboard-response",52,406348,"0.0-13.0-2.0",37721,"ListA","woman","chinese","CFA11",NA,NA,NA,"null",NA,NA,NA,NA,NA,NA
"29134",NA,NA,"survey-text",53,435522,"0.0-13.0-3.0",37721,"ListA","woman","chinese","CFA11",NA,NA,NA,NA,"{""Q0"":""弗雷正在看着贝斯""}","<img src='gifs/ChineseGender2a.gif' style='height:400px;''></img>","看着","正在看着","chinese",NA
"null","<div style=""font-size:60px;"">+</div>",NA,"html-keyboard-response",54,436025,"0.0-13.0-0.1",37721,"ListA","woman","chinese","CFA11",NA,NA,NA,"null",NA,NA,NA,NA,NA,NA
"null","<img src='gifs/MaleRace1b.gif' style='height:400px;''></img>",NA,"html-keyboard-response",55,438030,"0.0-13.0-1.1",37721,"ListA","woman","chinese","CFA11",NA,NA,NA,"null",NA,NA,NA,NA,NA,NA
"null","正在加入",NA,"html-keyboard-response",56,441035,"0.0-13.0-2.1",37721,"ListA","woman","chinese","CFA11",NA,NA,NA,"null",NA,NA,NA,NA,NA,NA
"21228",NA,NA,"survey-text",57,462276,"0.0-13.0-3.1",37721,"ListA","woman","chinese","CFA11",NA,NA,NA,NA,"{""Q0"":""弗雷正在加入卢克""}","<img src='gifs/MaleRace1b.gif' style='height:400px;''></img>","加入","正在加入","chinese",NA
"null","<div style=""font-size:60px;"">+</div>",NA,"html-keyboard-response",58,462779,"0.0-13.0-0.2",37721,"ListA","woman","chinese","CFA11",NA,NA,NA,"null",NA,NA,NA,NA,NA,NA
"null","<img src='gifs/FemaleRace3b.gif' style='height:400px;''></img>",NA,"html-keyboard-response",59,464784,"0.0-13.0-1.2",37721,"ListA","woman","chinese","CFA11",NA,NA,NA,"null",NA,NA,NA,NA,NA,NA
"null","正在走向",NA,"html-keyboard-response",60,467789,"0.0-13.0-2.2",37721,"ListA","woman","chinese","CFA11",NA,NA,NA,"null",NA,NA,NA,NA,NA,NA
"14450.000000000058",NA,NA,"survey-text",61,482248,"0.0-13.0-3.2",37721,"ListA","woman","chinese","CFA11",NA,NA,NA,NA,"{""Q0"":""露丝正在走向贝斯""}","<img src='gifs/FemaleRace3b.gif' style='height:400px;''></img>","走向","正在走向","chinese",NA
"null","<div style=""font-size:60px;"">+</div>",NA,"html-keyboard-response",62,482750,"0.0-13.0-0.3",37721,"ListA","woman","chinese","CFA11",NA,NA,NA,"null",NA,NA,NA,NA,NA,NA
"null","<img src='gifs/BlackGender3a.gif' style='height:400px;''></img>",NA,"html-keyboard-response",63,484755,"0.0-13.0-1.3",37721,"ListA","woman","chinese","CFA11",NA,NA,NA,"null",NA,NA,NA,NA,NA,NA
"null","正在表扬",NA,"html-keyboard-response",64,487760,"0.0-13.0-2.3",37721,"ListA","woman","chinese","CFA11",NA,NA,NA,"null",NA,NA,NA,NA,NA,NA
"22162.99999999994",NA,NA,"survey-text",65,509935,"0.0-13.0-3.3",37721,"ListA","woman","chinese","CFA11",NA,NA,NA,NA,"{""Q0"":""霍普正在表扬卢克""}","<img src='gifs/BlackGender3a.gif' style='height:400px;''></img>","表扬","正在表扬","chinese",NA
"null","<div style=""font-size:60px;"">+</div>",NA,"html-keyboard-response",66,510438,"0.0-13.0-0.4",37721,"ListA","woman","chinese","CFA11",NA,NA,NA,"null",NA,NA,NA,NA,NA,NA
"null","<img src='gifs/FemaleRace2a.gif' style='height:400px;''></img>",NA,"html-keyboard-response",67,512442,"0.0-13.0-1.4",37721,"ListA","woman","chinese","CFA11",NA,NA,NA,"null",NA,NA,NA,NA,NA,NA
"null","正在介绍",NA,"html-keyboard-response",68,515447,"0.0-13.0-2.4",37721,"ListA","woman","chinese","CFA11",NA,NA,NA,"null",NA,NA,NA,NA,NA,NA
"14182.999999999942",NA,NA,"survey-text",69,529641,"0.0-13.0-3.4",37721,"ListA","woman","chinese","CFA11",NA,NA,NA,NA,"{""Q0"":""霍普正在介绍凯特""}","<img src='gifs/FemaleRace2a.gif' style='height:400px;''></img>","介绍","正在介绍","chinese",NA
"null","<div style=""font-size:60px;"">+</div>",NA,"html-keyboard-response",70,530143,"0.0-13.0-0.5",37721,"ListA","woman","chinese","CFA11",NA,NA,NA,"null",NA,NA,NA,NA,NA,NA
"null","<img src='gifs/MaleRace4b.gif' style='height:400px;''></img>",NA,"html-keyboard-response",71,532149,"0.0-13.0-1.5",37721,"ListA","woman","chinese","CFA11",NA,NA,NA,"null",NA,NA,NA,NA,NA,NA
"null","正在加入",NA,"html-keyboard-response",72,535153,"0.0-13.0-2.5",37721,"ListA","woman","chinese","CFA11",NA,NA,NA,"null",NA,NA,NA,NA,NA,NA
"24127",NA,NA,"survey-text",73,559293,"0.0-13.0-3.5",37721,"ListA","woman","chinese","CFA11",NA,NA,NA,NA,"{""Q0"":""麦克正在加入戴夫""}","<img src='gifs/MaleRace4b.gif' style='height:400px;''></img>","加入","正在加入","chinese",NA
"null","<div style=""font-size:60px;"">+</div>",NA,"html-keyboard-response",74,559795,"0.0-13.0-0.6",37721,"ListA","woman","chinese","CFA11",NA,NA,NA,"null",NA,NA,NA,NA,NA,NA
"null","<img src='gifs/MaleRace3b.gif' style='height:400px;''></img>",NA,"html-keyboard-response",75,561800,"0.0-13.0-1.6",37721,"ListA","woman","chinese","CFA11",NA,NA,NA,"null",NA,NA,NA,NA,NA,NA
"null","正在触摸",NA,"html-keyboard-response",76,564805,"0.0-13.0-2.6",37721,"ListA","woman","chinese","CFA11",NA,NA,NA,"null",NA,NA,NA,NA,NA,NA
"12668",NA,NA,"survey-text",77,577485,"0.0-13.0-3.6",37721,"ListA","woman","chinese","CFA11",NA,NA,NA,NA,"{""Q0"":""麦克正在触摸卢克""}","<img src='gifs/MaleRace3b.gif' style='height:400px;''></img>","触摸","正在触摸","chinese",NA
"null","<div style=""font-size:60px;"">+</div>",NA,"html-keyboard-response",78,577987,"0.0-13.0-0.7",37721,"ListA","woman","chinese","CFA11",NA,NA,NA,"null",NA,NA,NA,NA,NA,NA
"null","<img src='gifs/ChineseGender1b.gif' style='height:400px;''></img>",NA,"html-keyboard-response",79,579992,"0.0-13.0-1.7",37721,"ListA","woman","chinese","CFA11",NA,NA,NA,"null",NA,NA,NA,NA,NA,NA
"null","正在介绍",NA,"html-keyboard-response",80,582997,"0.0-13.0-2.7",37721,"ListA","woman","chinese","CFA11",NA,NA,NA,"null",NA,NA,NA,NA,NA,NA
"14582",NA,NA,"survey-text",81,597591,"0.0-13.0-3.7",37721,"ListA","woman","chinese","CFA11",NA,NA,NA,NA,"{""Q0"":""凯特正在介绍弗雷""}","<img src='gifs/ChineseGender1b.gif' style='height:400px;''></img>","介绍","正在介绍","chinese",NA
"null","<div style=""font-size:60px;"">+</div>",NA,"html-keyboard-response",82,598093,"0.0-13.0-0.8",37721,"ListA","woman","chinese","CFA11",NA,NA,NA,"null",NA,NA,NA,NA,NA,NA
"null","<img src='gifs/MaleRace1b.gif' style='height:400px;''></img>",NA,"html-keyboard-response",83,600098,"0.0-13.0-1.8",37721,"ListA","woman","chinese","CFA11",NA,NA,NA,"null",NA,NA,NA,NA,NA,NA
"null","正在表扬",NA,"html-keyboard-response",84,603103,"0.0-13.0-2.8",37721,"ListA","woman","chinese","CFA11",NA,NA,NA,"null",NA,NA,NA,NA,NA,NA
"12327",NA,NA,"survey-text",85,615442,"0.0-13.0-3.8",37721,"ListA","woman","chinese","CFA11",NA,NA,NA,NA,"{""Q0"":""弗雷正在表扬卢克""}","<img src='gifs/MaleRace1b.gif' style='height:400px;''></img>","表扬","正在表扬","chinese",NA
"null","<div style=""font-size:60px;"">+</div>",NA,"html-keyboard-response",86,615944,"0.0-13.0-0.9",37721,"ListA","woman","chinese","CFA11",NA,NA,NA,"null",NA,NA,NA,NA,NA,NA
"null","<img src='gifs/ChineseGender3a.gif' style='height:400px;''></img>",NA,"html-keyboard-response",87,617949,"0.0-13.0-1.9",37721,"ListA","woman","chinese","CFA11",NA,NA,NA,"null",NA,NA,NA,NA,NA,NA
"null","正在提到",NA,"html-keyboard-response",88,620953,"0.0-13.0-2.9",37721,"ListA","woman","chinese","CFA11",NA,NA,NA,"null",NA,NA,NA,NA,NA,NA
"21110",NA,NA,"survey-text",89,642075,"0.0-13.0-3.9",37721,"ListA","woman","chinese","CFA11",NA,NA,NA,NA,"{""Q0"":""麦克正在提到贝斯""}","<img src='gifs/ChineseGender3a.gif' style='height:400px;''></img>","提到","正在提到","chinese",NA
"null","<div style=""font-size:60px;"">+</div>",NA,"html-keyboard-response",90,642577,"0.0-13.0-0.10",37721,"ListA","woman","chinese","CFA11",NA,NA,NA,"null",NA,NA,NA,NA,NA,NA
"null","<img src='gifs/FemaleRace4b.gif' style='height:400px;''></img>",NA,"html-keyboard-response",91,644581,"0.0-13.0-1.10",37721,"ListA","woman","chinese","CFA11",NA,NA,NA,"null",NA,NA,NA,NA,NA,NA
"null","正在跟随",NA,"html-keyboard-response",92,647586,"0.0-13.0-2.10",37721,"ListA","woman","chinese","CFA11",NA,NA,NA,"null",NA,NA,NA,NA,NA,NA
"10073",NA,NA,"survey-text",93,657670,"0.0-13.0-3.10",37721,"ListA","woman","chinese","CFA11",NA,NA,NA,NA,"{""Q0"":""霍普正在跟随贝斯""}","<img src='gifs/FemaleRace4b.gif' style='height:400px;''></img>","跟随","正在跟随","chinese",NA
"null","<div style=""font-size:60px;"">+</div>",NA,"html-keyboard-response",94,658172,"0.0-13.0-0.11",37721,"ListA","woman","chinese","CFA11",NA,NA,NA,"null",NA,NA,NA,NA,NA,NA
"null","<img src='gifs/MaleRace2a.gif' style='height:400px;''></img>",NA,"html-keyboard-response",95,660177,"0.0-13.0-1.11",37721,"ListA","woman","chinese","CFA11",NA,NA,NA,"null",NA,NA,NA,NA,NA,NA
"null","正在介绍",NA,"html-keyboard-response",96,663182,"0.0-13.0-2.11",37721,"ListA","woman","chinese","CFA11",NA,NA,NA,"null",NA,NA,NA,NA,NA,NA
"23320.999999999884",NA,NA,"survey-text",97,686514,"0.0-13.0-3.11",37721,"ListA","woman","chinese","CFA11",NA,NA,NA,NA,"{""Q0"":""麦克正在介绍弗雷""}","<img src='gifs/MaleRace2a.gif' style='height:400px;''></img>","介绍","正在介绍","chinese",NA
"null","<div style=""font-size:60px;"">+</div>",NA,"html-keyboard-response",98,687018,"0.0-13.0-0.12",37721,"ListA","woman","chinese","CFA11",NA,NA,NA,"null",NA,NA,NA,NA,NA,NA
"null","<img src='gifs/BlackGender2b.gif' style='height:400px;''></img>",NA,"html-keyboard-response",99,689022,"0.0-13.0-1.12",37721,"ListA","woman","chinese","CFA11",NA,NA,NA,"null",NA,NA,NA,NA,NA,NA
"null","正在跟随",NA,"html-keyboard-response",100,692027,"0.0-13.0-2.12",37721,"ListA","woman","chinese","CFA11",NA,NA,NA,"null",NA,NA,NA,NA,NA,NA
"8695",NA,NA,"survey-text",101,700734,"0.0-13.0-3.12",37721,"ListA","woman","chinese","CFA11",NA,NA,NA,NA,"{""Q0"":""戴夫正在跟随露丝""}","<img src='gifs/BlackGender2b.gif' style='height:400px;''></img>","跟随","正在跟随","chinese",NA
"null","<div style=""font-size:60px;"">+</div>",NA,"html-keyboard-response",102,701236,"0.0-13.0-0.13",37721,"ListA","woman","chinese","CFA11",NA,NA,NA,"null",NA,NA,NA,NA,NA,NA
"null","<img src='gifs/FemaleRace2b.gif' style='height:400px;''></img>",NA,"html-keyboard-response",103,703240,"0.0-13.0-1.13",37721,"ListA","woman","chinese","CFA11",NA,NA,NA,"null",NA,NA,NA,NA,NA,NA
"null","正在触摸",NA,"html-keyboard-response",104,706245,"0.0-13.0-2.13",37721,"ListA","woman","chinese","CFA11",NA,NA,NA,"null",NA,NA,NA,NA,NA,NA
"11186.999999999884",NA,NA,"survey-text",105,717443,"0.0-13.0-3.13",37721,"ListA","woman","chinese","CFA11",NA,NA,NA,NA,"{""Q0"":""霍普正在触摸凯特""}","<img src='gifs/FemaleRace2b.gif' style='height:400px;''></img>","触摸","正在触摸","chinese",NA
"null","<div style=""font-size:60px;"">+</div>",NA,"html-keyboard-response",106,717947,"0.0-13.0-0.14",37721,"ListA","woman","chinese","CFA11",NA,NA,NA,"null",NA,NA,NA,NA,NA,NA
"null","<img src='gifs/MaleRace4b.gif' style='height:400px;''></img>",NA,"html-keyboard-response",107,719951,"0.0-13.0-1.14",37721,"ListA","woman","chinese","CFA11",NA,NA,NA,"null",NA,NA,NA,NA,NA,NA
"null","正在提到",NA,"html-keyboard-response",108,722955,"0.0-13.0-2.14",37721,"ListA","woman","chinese","CFA11",NA,NA,NA,"null",NA,NA,NA,NA,NA,NA
"11836",NA,NA,"survey-text",109,734802,"0.0-13.0-3.14",37721,"ListA","woman","chinese","CFA11",NA,NA,NA,NA,"{""Q0"":""麦克正在提到戴夫""}","<img src='gifs/MaleRace4b.gif' style='height:400px;''></img>","提到","正在提到","chinese",NA
"null","<div style=""font-size:60px;"">+</div>",NA,"html-keyboard-response",110,735305,"0.0-13.0-0.15",37721,"ListA","woman","chinese","CFA11",NA,NA,NA,"null",NA,NA,NA,NA,NA,NA
"null","<img src='gifs/MaleRace4a.gif' style='height:400px;''></img>",NA,"html-keyboard-response",111,737310,"0.0-13.0-1.15",37721,"ListA","woman","chinese","CFA11",NA,NA,NA,"null",NA,NA,NA,NA,NA,NA
"null","正在接近",NA,"html-keyboard-response",112,740314,"0.0-13.0-2.15",37721,"ListA","woman","chinese","CFA11",NA,NA,NA,"null",NA,NA,NA,NA,NA,NA
"9030",NA,NA,"survey-text",113,749357,"0.0-13.0-3.15",37721,"ListA","woman","chinese","CFA11",NA,NA,NA,NA,"{""Q0"":""麦克正在接近戴夫""}","<img src='gifs/MaleRace4a.gif' style='height:400px;''></img>","接近","正在接近","chinese",NA
"null","<div style=""font-size:60px;"">+</div>",NA,"html-keyboard-response",114,749860,"0.0-13.0-0.16",37721,"ListA","woman","chinese","CFA11",NA,NA,NA,"null",NA,NA,NA,NA,NA,NA
"null","<img src='gifs/ChineseGender1a.gif' style='height:400px;''></img>",NA,"html-keyboard-response",115,751863,"0.0-13.0-1.16",37721,"ListA","woman","chinese","CFA11",NA,NA,NA,"null",NA,NA,NA,NA,NA,NA
"null","正在聆听",NA,"html-keyboard-response",116,754868,"0.0-13.0-2.16",37721,"ListA","woman","chinese","CFA11",NA,NA,NA,"null",NA,NA,NA,NA,NA,NA
"7436.000000000116",NA,NA,"survey-text",117,762316,"0.0-13.0-3.16",37721,"ListA","woman","chinese","CFA11",NA,NA,NA,NA,"{""Q0"":""弗雷正在聆听凯特""}","<img src='gifs/ChineseGender1a.gif' style='height:400px;''></img>","聆听","正在聆听","chinese",NA
"null","<div style=""font-size:60px;"">+</div>",NA,"html-keyboard-response",118,762819,"0.0-13.0-0.17",37721,"ListA","woman","chinese","CFA11",NA,NA,NA,"null",NA,NA,NA,NA,NA,NA
"null","<img src='gifs/FemaleRace4a.gif' style='height:400px;''></img>",NA,"html-keyboard-response",119,764822,"0.0-13.0-1.17",37721,"ListA","woman","chinese","CFA11",NA,NA,NA,"null",NA,NA,NA,NA,NA,NA
"null","正在说服",NA,"html-keyboard-response",120,767827,"0.0-13.0-2.17",37721,"ListA","woman","chinese","CFA11",NA,NA,NA,"null",NA,NA,NA,NA,NA,NA
"12148",NA,NA,"survey-text",121,779987,"0.0-13.0-3.17",37721,"ListA","woman","chinese","CFA11",NA,NA,NA,NA,"{""Q0"":""霍普正在说服贝斯""}","<img src='gifs/FemaleRace4a.gif' style='height:400px;''></img>","说服","正在说服","chinese",NA
"15122.999999999884","<img src='img/portrait_matrix_listA_chinese.jpg' style='width:900px;height:500px;''></img><p>如果您已经记住了所有的人物和名字，请点击继续。</p><p><strong>请注意：您对先前记忆的面孔将在本实验中被测试5次。</strong></p>",0,"html-button-response",122,795113,"0.0-14.0-0.0",37721,"ListA","woman","chinese","CFA11",NA,NA,NA,NA,NA,NA,NA,NA,NA,NA
"5436","<img src=""portrait/BM2.jpg""style=""height:400px;""></img>",5,"html-button-response",123,801553,"0.0-14.0-1.0",37721,"ListA","woman","chinese","CFA11",NA,"true",5,NA,NA,NA,NA,NA,NA,NA
"null","正确",NA,"html-keyboard-response",124,803057,"0.0-14.0-2.0-0.0",37721,"ListA","woman","chinese","CFA11",NA,NA,NA,"null",NA,NA,NA,NA,NA,NA
"9249","<img src=""portrait/WM2.jpg""style=""height:400px;""></img>",7,"html-button-response",125,812309,"0.0-14.0-4.0",37721,"ListA","woman","chinese","CFA11",NA,"true",7,NA,NA,NA,NA,NA,NA,NA
"null","正确",NA,"html-keyboard-response",126,813813,"0.0-14.0-5.0-0.0",37721,"ListA","woman","chinese","CFA11",NA,NA,NA,"null",NA,NA,NA,NA,NA,NA
"2673","<img src=""portrait/BW2.jpg""style=""height:400px;""></img>",2,"html-button-response",127,816488,"0.0-14.0-7.0",37721,"ListA","woman","chinese","CFA11",NA,"true",2,NA,NA,NA,NA,NA,NA,NA
"null","正确",NA,"html-keyboard-response",128,817992,"0.0-14.0-8.0-0.0",37721,"ListA","woman","chinese","CFA11",NA,NA,NA,"null",NA,NA,NA,NA,NA,NA
"4038","<img src=""portrait/BW1.jpg""style=""height:400px;""></img>",0,"html-button-response",129,822032,"0.0-14.0-10.0",37721,"ListA","woman","chinese","CFA11",NA,"true",0,NA,NA,NA,NA,NA,NA,NA
"null","正确",NA,"html-keyboard-response",130,823536,"0.0-14.0-11.0-0.0",37721,"ListA","woman","chinese","CFA11",NA,NA,NA,"null",NA,NA,NA,NA,NA,NA
"2498.9999999998836","<img src=""portrait/WW1.jpg""style=""height:400px;""></img>",1,"html-button-response",131,826038,"0.0-14.0-13.0",37721,"ListA","woman","chinese","CFA11",NA,"true",1,NA,NA,NA,NA,NA,NA,NA
"null","正确",NA,"html-keyboard-response",132,827541,"0.0-14.0-14.0-0.0",37721,"ListA","woman","chinese","CFA11",NA,NA,NA,"null",NA,NA,NA,NA,NA,NA
"2527.9999999998836","<img src=""portrait/WW2.jpg""style=""height:400px;""></img>",3,"html-button-response",133,830072,"0.0-14.0-16.0",37721,"ListA","woman","chinese","CFA11",NA,"true",3,NA,NA,NA,NA,NA,NA,NA
"null","正确",NA,"html-keyboard-response",134,831576,"0.0-14.0-17.0-0.0",37721,"ListA","woman","chinese","CFA11",NA,NA,NA,"null",NA,NA,NA,NA,NA,NA
"1478","<img src=""portrait/BM1.jpg""style=""height:400px;""></img>",4,"html-button-response",135,833057,"0.0-14.0-19.0",37721,"ListA","woman","chinese","CFA11",NA,"true",4,NA,NA,NA,NA,NA,NA,NA
"null","正确",NA,"html-keyboard-response",136,834560,"0.0-14.0-20.0-0.0",37721,"ListA","woman","chinese","CFA11",NA,NA,NA,"null",NA,NA,NA,NA,NA,NA
"2920","<img src=""portrait/WM1.jpg""style=""height:400px;""></img>",6,"html-button-response",137,837482,"0.0-14.0-22.0",37721,"ListA","woman","chinese","CFA11",NA,"true",6,NA,NA,NA,NA,NA,NA,NA
"null","正确",NA,"html-keyboard-response",138,838986,"0.0-14.0-23.0-0.0",37721,"ListA","woman","chinese","CFA11",NA,NA,NA,"null",NA,NA,NA,NA,NA,NA
"1166","<p>您第一次在8题里答对了 8 题。 请点击继续</p>",0,"html-button-response",139,840154,"0.0-14.0-25.0",37721,"ListA","woman","chinese","CFA11",NA,NA,NA,NA,NA,NA,NA,NA,NA,NA
"null","<div style=""font-size:60px;"">+</div>",NA,"html-keyboard-response",140,841660,"0.0-15.0-0.0",37721,"ListA","woman","chinese","CFA11",NA,NA,NA,"null",NA,NA,NA,NA,NA,NA
"null","<img src='gifs/ChineseGender1a.gif' style='height:400px;''></img>",NA,"html-keyboard-response",141,843665,"0.0-15.0-1.0",37721,"ListA","woman","chinese","CFA11",NA,NA,NA,"null",NA,NA,NA,NA,NA,NA
"null","正在面向",NA,"html-keyboard-response",142,846671,"0.0-15.0-2.0",37721,"ListA","woman","chinese","CFA11",NA,NA,NA,"null",NA,NA,NA,NA,NA,NA
"14015",NA,NA,"survey-text",143,860698,"0.0-15.0-3.0",37721,"ListA","woman","chinese","CFA11",NA,NA,NA,NA,"{""Q0"":""凯特正在面向弗雷""}","<img src='gifs/ChineseGender1a.gif' style='height:400px;''></img>","面向","正在面向","chinese",NA
"null","<div style=""font-size:60px;"">+</div>",NA,"html-keyboard-response",144,861200,"0.0-15.0-0.1",37721,"ListA","woman","chinese","CFA11",NA,NA,NA,"null",NA,NA,NA,NA,NA,NA
"null","<img src='gifs/BlackGender3a.gif' style='height:400px;''></img>",NA,"html-keyboard-response",145,863206,"0.0-15.0-1.1",37721,"ListA","woman","chinese","CFA11",NA,NA,NA,"null",NA,NA,NA,NA,NA,NA
"null","正在加入",NA,"html-keyboard-response",146,866211,"0.0-15.0-2.1",37721,"ListA","woman","chinese","CFA11",NA,NA,NA,"null",NA,NA,NA,NA,NA,NA
"8378",NA,NA,"survey-text",147,874600,"0.0-15.0-3.1",37721,"ListA","woman","chinese","CFA11",NA,NA,NA,NA,"{""Q0"":""卢克正在加入霍普""}","<img src='gifs/BlackGender3a.gif' style='height:400px;''></img>","加入","正在加入","chinese",NA
"null","<div style=""font-size:60px;"">+</div>",NA,"html-keyboard-response",148,875104,"0.0-15.0-0.2",37721,"ListA","woman","chinese","CFA11",NA,NA,NA,"null",NA,NA,NA,NA,NA,NA
"null","<img src='gifs/BlackGender1a.gif' style='height:400px;''></img>",NA,"html-keyboard-response",149,877108,"0.0-15.0-1.2",37721,"ListA","woman","chinese","CFA11",NA,NA,NA,"null",NA,NA,NA,NA,NA,NA
"null","正在聘用",NA,"html-keyboard-response",150,880113,"0.0-15.0-2.2",37721,"ListA","woman","chinese","CFA11",NA,NA,NA,"null",NA,NA,NA,NA,NA,NA
"15787.000000000116",NA,NA,"survey-text",151,895910,"0.0-15.0-3.2",37721,"ListA","woman","chinese","CFA11",NA,NA,NA,NA,"{""Q0"":""露丝正在聘用卢克""}","<img src='gifs/BlackGender1a.gif' style='height:400px;''></img>","聘用","正在聘用","chinese",NA
"null","<div style=""font-size:60px;"">+</div>",NA,"html-keyboard-response",152,896412,"0.0-15.0-0.3",37721,"ListA","woman","chinese","CFA11",NA,NA,NA,"null",NA,NA,NA,NA,NA,NA
"null","<img src='gifs/BlackGender4a.gif' style='height:400px;''></img>",NA,"html-keyboard-response",153,898417,"0.0-15.0-1.3",37721,"ListA","woman","chinese","CFA11",NA,NA,NA,"null",NA,NA,NA,NA,NA,NA
"null","正在陪伴",NA,"html-keyboard-response",154,901422,"0.0-15.0-2.3",37721,"ListA","woman","chinese","CFA11",NA,NA,NA,"null",NA,NA,NA,NA,NA,NA
"15058",NA,NA,"survey-text",155,916492,"0.0-15.0-3.3",37721,"ListA","woman","chinese","CFA11",NA,NA,NA,NA,"{""Q0"":""霍普正在陪伴戴夫""}","<img src='gifs/BlackGender4a.gif' style='height:400px;''></img>","陪伴","正在陪伴","chinese",NA
"null","<div style=""font-size:60px;"">+</div>",NA,"html-keyboard-response",156,916994,"0.0-15.0-0.4",37721,"ListA","woman","chinese","CFA11",NA,NA,NA,"null",NA,NA,NA,NA,NA,NA
"null","<img src='gifs/FemaleRace4a.gif' style='height:400px;''></img>",NA,"html-keyboard-response",157,918999,"0.0-15.0-1.4",37721,"ListA","woman","chinese","CFA11",NA,NA,NA,"null",NA,NA,NA,NA,NA,NA
"null","正在提到",NA,"html-keyboard-response",158,922003,"0.0-15.0-2.4",37721,"ListA","woman","chinese","CFA11",NA,NA,NA,"null",NA,NA,NA,NA,NA,NA
"15745",NA,NA,"survey-text",159,937758,"0.0-15.0-3.4",37721,"ListA","woman","chinese","CFA11",NA,NA,NA,NA,"{""Q0"":""贝斯正在提到霍普""}","<img src='gifs/FemaleRace4a.gif' style='height:400px;''></img>","提到","正在提到","chinese",NA
"null","<div style=""font-size:60px;"">+</div>",NA,"html-keyboard-response",160,938260,"0.0-15.0-0.5",37721,"ListA","woman","chinese","CFA11",NA,NA,NA,"null",NA,NA,NA,NA,NA,NA
"null","<img src='gifs/ChineseGender3b.gif' style='height:400px;''></img>",NA,"html-keyboard-response",161,940265,"0.0-15.0-1.5",37721,"ListA","woman","chinese","CFA11",NA,NA,NA,"null",NA,NA,NA,NA,NA,NA
"null","正在聆听",NA,"html-keyboard-response",162,943270,"0.0-15.0-2.5",37721,"ListA","woman","chinese","CFA11",NA,NA,NA,"null",NA,NA,NA,NA,NA,NA
"12269",NA,NA,"survey-text",163,955550,"0.0-15.0-3.5",37721,"ListA","woman","chinese","CFA11",NA,NA,NA,NA,"{""Q0"":""麦克正在聆听贝斯""}","<img src='gifs/ChineseGender3b.gif' style='height:400px;''></img>","聆听","正在聆听","chinese",NA
"null","<div style=""font-size:60px;"">+</div>",NA,"html-keyboard-response",164,956052,"0.0-15.0-0.6",37721,"ListA","woman","chinese","CFA11",NA,NA,NA,"null",NA,NA,NA,NA,NA,NA
"null","<img src='gifs/ChineseGender3a.gif' style='height:400px;''></img>",NA,"html-keyboard-response",165,958057,"0.0-15.0-1.6",37721,"ListA","woman","chinese","CFA11",NA,NA,NA,"null",NA,NA,NA,NA,NA,NA
"null","正在陪伴",NA,"html-keyboard-response",166,961062,"0.0-15.0-2.6",37721,"ListA","woman","chinese","CFA11",NA,NA,NA,"null",NA,NA,NA,NA,NA,NA
"10239",NA,NA,"survey-text",167,971313,"0.0-15.0-3.6",37721,"ListA","woman","chinese","CFA11",NA,NA,NA,NA,"{""Q0"":""贝斯正在陪伴麦克""}","<img src='gifs/ChineseGender3a.gif' style='height:400px;''></img>","陪伴","正在陪伴","chinese",NA
"null","<div style=""font-size:60px;"">+</div>",NA,"html-keyboard-response",168,971815,"0.0-15.0-0.7",37721,"ListA","woman","chinese","CFA11",NA,NA,NA,"null",NA,NA,NA,NA,NA,NA
"null","<img src='gifs/BlackGender4a.gif' style='height:400px;''></img>",NA,"html-keyboard-response",169,973820,"0.0-15.0-1.7",37721,"ListA","woman","chinese","CFA11",NA,NA,NA,"null",NA,NA,NA,NA,NA,NA
"null","正在看着",NA,"html-keyboard-response",170,976825,"0.0-15.0-2.7",37721,"ListA","woman","chinese","CFA11",NA,NA,NA,"null",NA,NA,NA,NA,NA,NA
"7700.999999999884",NA,NA,"survey-text",171,984537,"0.0-15.0-3.7",37721,"ListA","woman","chinese","CFA11",NA,NA,NA,NA,"{""Q0"":""霍普正在看着戴夫""}","<img src='gifs/BlackGender4a.gif' style='height:400px;''></img>","看着","正在看着","chinese",NA
"null","<div style=""font-size:60px;"">+</div>",NA,"html-keyboard-response",172,985039,"0.0-15.0-0.8",37721,"ListA","woman","chinese","CFA11",NA,NA,NA,"null",NA,NA,NA,NA,NA,NA
"null","<img src='gifs/MaleRace4a.gif' style='height:400px;''></img>",NA,"html-keyboard-response",173,987044,"0.0-15.0-1.8",37721,"ListA","woman","chinese","CFA11",NA,NA,NA,"null",NA,NA,NA,NA,NA,NA
"null","正在走向",NA,"html-keyboard-response",174,990049,"0.0-15.0-2.8",37721,"ListA","woman","chinese","CFA11",NA,NA,NA,"null",NA,NA,NA,NA,NA,NA
"13372",NA,NA,"survey-text",175,1003434,"0.0-15.0-3.8",37721,"ListA","woman","chinese","CFA11",NA,NA,NA,NA,"{""Q0"":""麦克正在走向戴夫""}","<img src='gifs/MaleRace4a.gif' style='height:400px;''></img>","走向","正在走向","chinese",NA
"null","<div style=""font-size:60px;"">+</div>",NA,"html-keyboard-response",176,1003936,"0.0-15.0-0.9",37721,"ListA","woman","chinese","CFA11",NA,NA,NA,"null",NA,NA,NA,NA,NA,NA
"null","<img src='gifs/BlackGender1b.gif' style='height:400px;''></img>",NA,"html-keyboard-response",177,1005939,"0.0-15.0-1.9",37721,"ListA","woman","chinese","CFA11",NA,NA,NA,"null",NA,NA,NA,NA,NA,NA
"null","正在看着",NA,"html-keyboard-response",178,1008944,"0.0-15.0-2.9",37721,"ListA","woman","chinese","CFA11",NA,NA,NA,"null",NA,NA,NA,NA,NA,NA
"10136.000000000116",NA,NA,"survey-text",179,1019093,"0.0-15.0-3.9",37721,"ListA","woman","chinese","CFA11",NA,NA,NA,NA,"{""Q0"":""卢克正在看着露丝""}","<img src='gifs/BlackGender1b.gif' style='height:400px;''></img>","看着","正在看着","chinese",NA
"null","<div style=""font-size:60px;"">+</div>",NA,"html-keyboard-response",180,1019596,"0.0-15.0-0.10",37721,"ListA","woman","chinese","CFA11",NA,NA,NA,"null",NA,NA,NA,NA,NA,NA
"null","<img src='gifs/FemaleRace1a.gif' style='height:400px;''></img>",NA,"html-keyboard-response",181,1021600,"0.0-15.0-1.10",37721,"ListA","woman","chinese","CFA11",NA,NA,NA,"null",NA,NA,NA,NA,NA,NA
"null","正在面向",NA,"html-keyboard-response",182,1024605,"0.0-15.0-2.10",37721,"ListA","woman","chinese","CFA11",NA,NA,NA,"null",NA,NA,NA,NA,NA,NA
"10156.000000000233",NA,NA,"survey-text",183,1034773,"0.0-15.0-3.10",37721,"ListA","woman","chinese","CFA11",NA,NA,NA,NA,"{""Q0"":""露丝正在面向凯特""}","<img src='gifs/FemaleRace1a.gif' style='height:400px;''></img>","面向","正在面向","chinese",NA
"null","<div style=""font-size:60px;"">+</div>",NA,"html-keyboard-response",184,1035275,"0.0-15.0-0.11",37721,"ListA","woman","chinese","CFA11",NA,NA,NA,"null",NA,NA,NA,NA,NA,NA
"null","<img src='gifs/MaleRace2a.gif' style='height:400px;''></img>",NA,"html-keyboard-response",185,1037278,"0.0-15.0-1.11",37721,"ListA","woman","chinese","CFA11",NA,NA,NA,"null",NA,NA,NA,NA,NA,NA
"null","正在跟随",NA,"html-keyboard-response",186,1040283,"0.0-15.0-2.11",37721,"ListA","woman","chinese","CFA11",NA,NA,NA,"null",NA,NA,NA,NA,NA,NA
"8116.999999999884",NA,NA,"survey-text",187,1048411,"0.0-15.0-3.11",37721,"ListA","woman","chinese","CFA11",NA,NA,NA,NA,"{""Q0"":""弗雷正在跟随戴夫""}","<img src='gifs/MaleRace2a.gif' style='height:400px;''></img>","跟随","正在跟随","chinese",NA
"null","<div style=""font-size:60px;"">+</div>",NA,"html-keyboard-response",188,1048914,"0.0-15.0-0.12",37721,"ListA","woman","chinese","CFA11",NA,NA,NA,"null",NA,NA,NA,NA,NA,NA
"null","<img src='gifs/ChineseGender2b.gif' style='height:400px;''></img>",NA,"html-keyboard-response",189,1050919,"0.0-15.0-1.12",37721,"ListA","woman","chinese","CFA11",NA,NA,NA,"null",NA,NA,NA,NA,NA,NA
"null","正在接近",NA,"html-keyboard-response",190,1053924,"0.0-15.0-2.12",37721,"ListA","woman","chinese","CFA11",NA,NA,NA,"null",NA,NA,NA,NA,NA,NA
"13958",NA,NA,"survey-text",191,1067893,"0.0-15.0-3.12",37721,"ListA","woman","chinese","CFA11",NA,NA,NA,NA,"{""Q0"":""弗雷正在接近贝斯""}","<img src='gifs/ChineseGender2b.gif' style='height:400px;''></img>","接近","正在接近","chinese",NA
"null","<div style=""font-size:60px;"">+</div>",NA,"html-keyboard-response",192,1068394,"0.0-15.0-0.13",37721,"ListA","woman","chinese","CFA11",NA,NA,NA,"null",NA,NA,NA,NA,NA,NA
"null","<img src='gifs/MaleRace3a.gif' style='height:400px;''></img>",NA,"html-keyboard-response",193,1070400,"0.0-15.0-1.13",37721,"ListA","woman","chinese","CFA11",NA,NA,NA,"null",NA,NA,NA,NA,NA,NA
"null","正在提到",NA,"html-keyboard-response",194,1073404,"0.0-15.0-2.13",37721,"ListA","woman","chinese","CFA11",NA,NA,NA,"null",NA,NA,NA,NA,NA,NA
"13129",NA,NA,"survey-text",195,1086543,"0.0-15.0-3.13",37721,"ListA","woman","chinese","CFA11",NA,NA,NA,NA,"{""Q0"":""麦克正在提到卢克""}","<img src='gifs/MaleRace3a.gif' style='height:400px;''></img>","提到","正在提到","chinese",NA
"null","<div style=""font-size:60px;"">+</div>",NA,"html-keyboard-response",196,1087046,"0.0-15.0-0.14",37721,"ListA","woman","chinese","CFA11",NA,NA,NA,"null",NA,NA,NA,NA,NA,NA
"null","<img src='gifs/FemaleRace2b.gif' style='height:400px;''></img>",NA,"html-keyboard-response",197,1089050,"0.0-15.0-1.14",37721,"ListA","woman","chinese","CFA11",NA,NA,NA,"null",NA,NA,NA,NA,NA,NA
"null","正在联系",NA,"html-keyboard-response",198,1092053,"0.0-15.0-2.14",37721,"ListA","woman","chinese","CFA11",NA,NA,NA,"null",NA,NA,NA,NA,NA,NA
"14132",NA,NA,"survey-text",199,1106197,"0.0-15.0-3.14",37721,"ListA","woman","chinese","CFA11",NA,NA,NA,NA,"{""Q0"":""霍普正在联系凯特""}","<img src='gifs/FemaleRace2b.gif' style='height:400px;''></img>","联系","正在联系","chinese",NA
"null","<div style=""font-size:60px;"">+</div>",NA,"html-keyboard-response",200,1106699,"0.0-15.0-0.15",37721,"ListA","woman","chinese","CFA11",NA,NA,NA,"null",NA,NA,NA,NA,NA,NA
"null","<img src='gifs/MaleRace1a.gif' style='height:400px;''></img>",NA,"html-keyboard-response",201,1108704,"0.0-15.0-1.15",37721,"ListA","woman","chinese","CFA11",NA,NA,NA,"null",NA,NA,NA,NA,NA,NA
"null","正在聆听",NA,"html-keyboard-response",202,1111708,"0.0-15.0-2.15",37721,"ListA","woman","chinese","CFA11",NA,NA,NA,"null",NA,NA,NA,NA,NA,NA
"12464",NA,NA,"survey-text",203,1124182,"0.0-15.0-3.15",37721,"ListA","woman","chinese","CFA11",NA,NA,NA,NA,"{""Q0"":""弗雷正在联系卢克""}","<img src='gifs/MaleRace1a.gif' style='height:400px;''></img>","聆听","正在聆听","chinese",NA
"null","<div style=""font-size:60px;"">+</div>",NA,"html-keyboard-response",204,1124684,"0.0-15.0-0.16",37721,"ListA","woman","chinese","CFA11",NA,NA,NA,"null",NA,NA,NA,NA,NA,NA
"null","<img src='gifs/FemaleRace2a.gif' style='height:400px;''></img>",NA,"html-keyboard-response",205,1126689,"0.0-15.0-1.16",37721,"ListA","woman","chinese","CFA11",NA,NA,NA,"null",NA,NA,NA,NA,NA,NA
"null","正在聘用",NA,"html-keyboard-response",206,1129693,"0.0-15.0-2.16",37721,"ListA","woman","chinese","CFA11",NA,NA,NA,"null",NA,NA,NA,NA,NA,NA
"10277",NA,NA,"survey-text",207,1139982,"0.0-15.0-3.16",37721,"ListA","woman","chinese","CFA11",NA,NA,NA,NA,"{""Q0"":""凯特正在聘用霍普""}","<img src='gifs/FemaleRace2a.gif' style='height:400px;''></img>","聘用","正在聘用","chinese",NA
"null","<div style=""font-size:60px;"">+</div>",NA,"html-keyboard-response",208,1140485,"0.0-15.0-0.17",37721,"ListA","woman","chinese","CFA11",NA,NA,NA,"null",NA,NA,NA,NA,NA,NA
"null","<img src='gifs/BlackGender1a.gif' style='height:400px;''></img>",NA,"html-keyboard-response",209,1142489,"0.0-15.0-1.17",37721,"ListA","woman","chinese","CFA11",NA,NA,NA,"null",NA,NA,NA,NA,NA,NA
"null","正在联系",NA,"html-keyboard-response",210,1145494,"0.0-15.0-2.17",37721,"ListA","woman","chinese","CFA11",NA,NA,NA,"null",NA,NA,NA,NA,NA,NA
"7091",NA,NA,"survey-text",211,1152595,"0.0-15.0-3.17",37721,"ListA","woman","chinese","CFA11",NA,NA,NA,NA,"{""Q0"":""卢克正在联系露丝""}","<img src='gifs/BlackGender1a.gif' style='height:400px;''></img>","联系","正在联系","chinese",NA
"22320","<img src='img/portrait_matrix_listA_chinese.jpg' style='width:900px;height:500px;''></img><p>如果您已经记住了所有的人物和名字，请点击继续。</p><p><strong>请注意：您对先前记忆的面孔将在本实验中被测试5次。</strong></p>",0,"html-button-response",212,1174918,"0.0-16.0-0.0",37721,"ListA","woman","chinese","CFA11",NA,NA,NA,NA,NA,NA,NA,NA,NA,NA
"3147.999999999767","<img src=""portrait/WM1.jpg""style=""height:400px;""></img>",6,"html-button-response",213,1179070,"0.0-16.0-1.0",37721,"ListA","woman","chinese","CFA11",NA,"true",6,NA,NA,NA,NA,NA,NA,NA
"null","正确",NA,"html-keyboard-response",214,1180572,"0.0-16.0-2.0-0.0",37721,"ListA","woman","chinese","CFA11",NA,NA,NA,"null",NA,NA,NA,NA,NA,NA
"3309.999999999767","<img src=""portrait/WW1.jpg""style=""height:400px;""></img>",1,"html-button-response",215,1183885,"0.0-16.0-4.0",37721,"ListA","woman","chinese","CFA11",NA,"true",1,NA,NA,NA,NA,NA,NA,NA
"null","正确",NA,"html-keyboard-response",216,1185388,"0.0-16.0-5.0-0.0",37721,"ListA","woman","chinese","CFA11",NA,NA,NA,"null",NA,NA,NA,NA,NA,NA
"2007","<img src=""portrait/BW1.jpg""style=""height:400px;""></img>",0,"html-button-response",217,1187397,"0.0-16.0-7.0",37721,"ListA","woman","chinese","CFA11",NA,"true",0,NA,NA,NA,NA,NA,NA,NA
"null","正确",NA,"html-keyboard-response",218,1188899,"0.0-16.0-8.0-0.0",37721,"ListA","woman","chinese","CFA11",NA,NA,NA,"null",NA,NA,NA,NA,NA,NA
"1824","<img src=""portrait/BM1.jpg""style=""height:400px;""></img>",4,"html-button-response",219,1190725,"0.0-16.0-10.0",37721,"ListA","woman","chinese","CFA11",NA,"true",4,NA,NA,NA,NA,NA,NA,NA
"null","正确",NA,"html-keyboard-response",220,1192229,"0.0-16.0-11.0-0.0",37721,"ListA","woman","chinese","CFA11",NA,NA,NA,"null",NA,NA,NA,NA,NA,NA
"2007","<img src=""portrait/WM2.jpg""style=""height:400px;""></img>",7,"html-button-response",221,1194239,"0.0-16.0-13.0",37721,"ListA","woman","chinese","CFA11",NA,"true",7,NA,NA,NA,NA,NA,NA,NA
"null","正确",NA,"html-keyboard-response",222,1195742,"0.0-16.0-14.0-0.0",37721,"ListA","woman","chinese","CFA11",NA,NA,NA,"null",NA,NA,NA,NA,NA,NA
"2289","<img src=""portrait/BM2.jpg""style=""height:400px;""></img>",5,"html-button-response",223,1198034,"0.0-16.0-16.0",37721,"ListA","woman","chinese","CFA11",NA,"true",5,NA,NA,NA,NA,NA,NA,NA
"null","正确",NA,"html-keyboard-response",224,1199539,"0.0-16.0-17.0-0.0",37721,"ListA","woman","chinese","CFA11",NA,NA,NA,"null",NA,NA,NA,NA,NA,NA
"2022","<img src=""portrait/WW2.jpg""style=""height:400px;""></img>",3,"html-button-response",225,1201563,"0.0-16.0-19.0",37721,"ListA","woman","chinese","CFA11",NA,"true",3,NA,NA,NA,NA,NA,NA,NA
"null","正确",NA,"html-keyboard-response",226,1203066,"0.0-16.0-20.0-0.0",37721,"ListA","woman","chinese","CFA11",NA,NA,NA,"null",NA,NA,NA,NA,NA,NA
"2822","<img src=""portrait/BW2.jpg""style=""height:400px;""></img>",2,"html-button-response",227,1205891,"0.0-16.0-22.0",37721,"ListA","woman","chinese","CFA11",NA,"true",2,NA,NA,NA,NA,NA,NA,NA
"null","正确",NA,"html-keyboard-response",228,1207395,"0.0-16.0-23.0-0.0",37721,"ListA","woman","chinese","CFA11",NA,NA,NA,"null",NA,NA,NA,NA,NA,NA
"1357","<p>您第一次在8题里答对了 8 题。 请点击继续</p>",0,"html-button-response",229,1208754,"0.0-16.0-25.0",37721,"ListA","woman","chinese","CFA11",NA,NA,NA,NA,NA,NA,NA,NA,NA,NA
"null","<div style=""font-size:60px;"">+</div>",NA,"html-keyboard-response",230,1210260,"0.0-17.0-0.0",37721,"ListA","woman","chinese","CFA11",NA,NA,NA,"null",NA,NA,NA,NA,NA,NA
"null","<img src='gifs/BlackGender4b.gif' style='height:400px;''></img>",NA,"html-keyboard-response",231,1212263,"0.0-17.0-1.0",37721,"ListA","woman","chinese","CFA11",NA,NA,NA,"null",NA,NA,NA,NA,NA,NA
"null","正在跟随",NA,"html-keyboard-response",232,1215268,"0.0-17.0-2.0",37721,"ListA","woman","chinese","CFA11",NA,NA,NA,"null",NA,NA,NA,NA,NA,NA
"8443",NA,NA,"survey-text",233,1223722,"0.0-17.0-3.0",37721,"ListA","woman","chinese","CFA11",NA,NA,NA,NA,"{""Q0"":""戴夫正在跟随霍普""}","<img src='gifs/BlackGender4b.gif' style='height:400px;''></img>","跟随","正在跟随","chinese",NA
"null","<div style=""font-size:60px;"">+</div>",NA,"html-keyboard-response",234,1224226,"0.0-17.0-0.1",37721,"ListA","woman","chinese","CFA11",NA,NA,NA,"null",NA,NA,NA,NA,NA,NA
"null","<img src='gifs/ChineseGender4b.gif' style='height:400px;''></img>",NA,"html-keyboard-response",235,1226229,"0.0-17.0-1.1",37721,"ListA","woman","chinese","CFA11",NA,NA,NA,"null",NA,NA,NA,NA,NA,NA
"null","正在面向",NA,"html-keyboard-response",236,1229233,"0.0-17.0-2.1",37721,"ListA","woman","chinese","CFA11",NA,NA,NA,"null",NA,NA,NA,NA,NA,NA
"28878",NA,NA,"survey-text",237,1258125,"0.0-17.0-3.1",37721,"ListA","woman","chinese","CFA11",NA,NA,NA,NA,"{""Q0"":""凯特正在面向麦克""}","<img src='gifs/ChineseGender4b.gif' style='height:400px;''></img>","面向","正在面向","chinese",NA
"null","<div style=""font-size:60px;"">+</div>",NA,"html-keyboard-response",238,1258627,"0.0-17.0-0.2",37721,"ListA","woman","chinese","CFA11",NA,NA,NA,"null",NA,NA,NA,NA,NA,NA
"null","<img src='gifs/BlackGender2b.gif' style='height:400px;''></img>",NA,"html-keyboard-response",239,1260630,"0.0-17.0-1.2",37721,"ListA","woman","chinese","CFA11",NA,NA,NA,"null",NA,NA,NA,NA,NA,NA
"null","正在联系",NA,"html-keyboard-response",240,1263635,"0.0-17.0-2.2",37721,"ListA","woman","chinese","CFA11",NA,NA,NA,"null",NA,NA,NA,NA,NA,NA
"11676",NA,NA,"survey-text",241,1275321,"0.0-17.0-3.2",37721,"ListA","woman","chinese","CFA11",NA,NA,NA,NA,"{""Q0"":""露丝正在联系戴夫""}","<img src='gifs/BlackGender2b.gif' style='height:400px;''></img>","联系","正在联系","chinese",NA
"null","<div style=""font-size:60px;"">+</div>",NA,"html-keyboard-response",242,1275824,"0.0-17.0-0.3",37721,"ListA","woman","chinese","CFA11",NA,NA,NA,"null",NA,NA,NA,NA,NA,NA
"null","<img src='gifs/MaleRace3b.gif' style='height:400px;''></img>",NA,"html-keyboard-response",243,1277827,"0.0-17.0-1.3",37721,"ListA","woman","chinese","CFA11",NA,NA,NA,"null",NA,NA,NA,NA,NA,NA
"null","正在答应",NA,"html-keyboard-response",244,1280832,"0.0-17.0-2.3",37721,"ListA","woman","chinese","CFA11",NA,NA,NA,"null",NA,NA,NA,NA,NA,NA
"12004.000000000233",NA,NA,"survey-text",245,1292847,"0.0-17.0-3.3",37721,"ListA","woman","chinese","CFA11",NA,NA,NA,NA,"{""Q0"":""麦克正在答应卢克""}","<img src='gifs/MaleRace3b.gif' style='height:400px;''></img>","答应","正在答应","chinese",NA
"null","<div style=""font-size:60px;"">+</div>",NA,"html-keyboard-response",246,1293351,"0.0-17.0-0.4",37721,"ListA","woman","chinese","CFA11",NA,NA,NA,"null",NA,NA,NA,NA,NA,NA
"null","<img src='gifs/ChineseGender4a.gif' style='height:400px;''></img>",NA,"html-keyboard-response",247,1295354,"0.0-17.0-1.4",37721,"ListA","woman","chinese","CFA11",NA,NA,NA,"null",NA,NA,NA,NA,NA,NA
"null","正在加入",NA,"html-keyboard-response",248,1298359,"0.0-17.0-2.4",37721,"ListA","woman","chinese","CFA11",NA,NA,NA,"null",NA,NA,NA,NA,NA,NA
"8404",NA,NA,"survey-text",249,1306775,"0.0-17.0-3.4",37721,"ListA","woman","chinese","CFA11",NA,NA,NA,NA,"{""Q0"":""麦克正在加入凯特""}","<img src='gifs/ChineseGender4a.gif' style='height:400px;''></img>","加入","正在加入","chinese",NA
"null","<div style=""font-size:60px;"">+</div>",NA,"html-keyboard-response",250,1307278,"0.0-17.0-0.5",37721,"ListA","woman","chinese","CFA11",NA,NA,NA,"null",NA,NA,NA,NA,NA,NA
"null","<img src='gifs/MaleRace1a.gif' style='height:400px;''></img>",NA,"html-keyboard-response",251,1309285,"0.0-17.0-1.5",37721,"ListA","woman","chinese","CFA11",NA,NA,NA,"null",NA,NA,NA,NA,NA,NA
"null","正在陪伴",NA,"html-keyboard-response",252,1312293,"0.0-17.0-2.5",37721,"ListA","woman","chinese","CFA11",NA,NA,NA,"null",NA,NA,NA,NA,NA,NA
"8451",NA,NA,"survey-text",253,1320756,"0.0-17.0-3.5",37721,"ListA","woman","chinese","CFA11",NA,NA,NA,NA,"{""Q0"":""卢克正在陪伴弗雷""}","<img src='gifs/MaleRace1a.gif' style='height:400px;''></img>","陪伴","正在陪伴","chinese",NA
"null","<div style=""font-size:60px;"">+</div>",NA,"html-keyboard-response",254,1321258,"0.0-17.0-0.6",37721,"ListA","woman","chinese","CFA11",NA,NA,NA,"null",NA,NA,NA,NA,NA,NA
"null","<img src='gifs/FemaleRace3a.gif' style='height:400px;''></img>",NA,"html-keyboard-response",255,1323260,"0.0-17.0-1.6",37721,"ListA","woman","chinese","CFA11",NA,NA,NA,"null",NA,NA,NA,NA,NA,NA
"null","正在面向",NA,"html-keyboard-response",256,1326265,"0.0-17.0-2.6",37721,"ListA","woman","chinese","CFA11",NA,NA,NA,"null",NA,NA,NA,NA,NA,NA
"7237",NA,NA,"survey-text",257,1333516,"0.0-17.0-3.6",37721,"ListA","woman","chinese","CFA11",NA,NA,NA,NA,"{""Q0"":""露丝正在面向贝斯""}","<img src='gifs/FemaleRace3a.gif' style='height:400px;''></img>","面向","正在面向","chinese",NA
"null","<div style=""font-size:60px;"">+</div>",NA,"html-keyboard-response",258,1334019,"0.0-17.0-0.7",37721,"ListA","woman","chinese","CFA11",NA,NA,NA,"null",NA,NA,NA,NA,NA,NA
"null","<img src='gifs/MaleRace2b.gif' style='height:400px;''></img>",NA,"html-keyboard-response",259,1336022,"0.0-17.0-1.7",37721,"ListA","woman","chinese","CFA11",NA,NA,NA,"null",NA,NA,NA,NA,NA,NA
"null","正在走向",NA,"html-keyboard-response",260,1339027,"0.0-17.0-2.7",37721,"ListA","woman","chinese","CFA11",NA,NA,NA,"null",NA,NA,NA,NA,NA,NA
"10369.000000000233",NA,NA,"survey-text",261,1349407,"0.0-17.0-3.7",37721,"ListA","woman","chinese","CFA11",NA,NA,NA,NA,"{""Q0"":""戴夫正在走向弗雷""}","<img src='gifs/MaleRace2b.gif' style='height:400px;''></img>","走向","正在走向","chinese",NA
"null","<div style=""font-size:60px;"">+</div>",NA,"html-keyboard-response",262,1349911,"0.0-17.0-0.8",37721,"ListA","woman","chinese","CFA11",NA,NA,NA,"null",NA,NA,NA,NA,NA,NA
"null","<img src='gifs/BlackGender3b.gif' style='height:400px;''></img>",NA,"html-keyboard-response",263,1351914,"0.0-17.0-1.8",37721,"ListA","woman","chinese","CFA11",NA,NA,NA,"null",NA,NA,NA,NA,NA,NA
"null","正在答应",NA,"html-keyboard-response",264,1354919,"0.0-17.0-2.8",37721,"ListA","woman","chinese","CFA11",NA,NA,NA,"null",NA,NA,NA,NA,NA,NA
"6513",NA,NA,"survey-text",265,1361442,"0.0-17.0-3.8",37721,"ListA","woman","chinese","CFA11",NA,NA,NA,NA,"{""Q0"":""卢克正在答应霍普""}","<img src='gifs/BlackGender3b.gif' style='height:400px;''></img>","答应","正在答应","chinese",NA
"null","<div style=""font-size:60px;"">+</div>",NA,"html-keyboard-response",266,1361945,"0.0-17.0-0.9",37721,"ListA","woman","chinese","CFA11",NA,NA,NA,"null",NA,NA,NA,NA,NA,NA
"null","<img src='gifs/BlackGender2a.gif' style='height:400px;''></img>",NA,"html-keyboard-response",267,1363950,"0.0-17.0-1.9",37721,"ListA","woman","chinese","CFA11",NA,NA,NA,"null",NA,NA,NA,NA,NA,NA
"null","正在看着",NA,"html-keyboard-response",268,1366955,"0.0-17.0-2.9",37721,"ListA","woman","chinese","CFA11",NA,NA,NA,"null",NA,NA,NA,NA,NA,NA
"7579",NA,NA,"survey-text",269,1374546,"0.0-17.0-3.9",37721,"ListA","woman","chinese","CFA11",NA,NA,NA,NA,"{""Q0"":""戴夫正在看着露丝""}","<img src='gifs/BlackGender2a.gif' style='height:400px;''></img>","看着","正在看着","chinese",NA
"null","<div style=""font-size:60px;"">+</div>",NA,"html-keyboard-response",270,1375049,"0.0-17.0-0.10",37721,"ListA","woman","chinese","CFA11",NA,NA,NA,"null",NA,NA,NA,NA,NA,NA
"null","<img src='gifs/ChineseGender2a.gif' style='height:400px;''></img>",NA,"html-keyboard-response",271,1377051,"0.0-17.0-1.10",37721,"ListA","woman","chinese","CFA11",NA,NA,NA,"null",NA,NA,NA,NA,NA,NA
"null","正在答应",NA,"html-keyboard-response",272,1380056,"0.0-17.0-2.10",37721,"ListA","woman","chinese","CFA11",NA,NA,NA,"null",NA,NA,NA,NA,NA,NA
"7498",NA,NA,"survey-text",273,1387567,"0.0-17.0-3.10",37721,"ListA","woman","chinese","CFA11",NA,NA,NA,NA,"{""Q0"":""贝斯正在答应弗雷""}","<img src='gifs/ChineseGender2a.gif' style='height:400px;''></img>","答应","正在答应","chinese",NA
"null","<div style=""font-size:60px;"">+</div>",NA,"html-keyboard-response",274,1388070,"0.0-17.0-0.11",37721,"ListA","woman","chinese","CFA11",NA,NA,NA,"null",NA,NA,NA,NA,NA,NA
"null","<img src='gifs/FemaleRace1b.gif' style='height:400px;''></img>",NA,"html-keyboard-response",275,1390073,"0.0-17.0-1.11",37721,"ListA","woman","chinese","CFA11",NA,NA,NA,"null",NA,NA,NA,NA,NA,NA
"null","正在触摸",NA,"html-keyboard-response",276,1393078,"0.0-17.0-2.11",37721,"ListA","woman","chinese","CFA11",NA,NA,NA,"null",NA,NA,NA,NA,NA,NA
"10779",NA,NA,"survey-text",277,1403868,"0.0-17.0-3.11",37721,"ListA","woman","chinese","CFA11",NA,NA,NA,NA,"{""Q0"":""露丝正在触摸凯特""}","<img src='gifs/FemaleRace1b.gif' style='height:400px;''></img>","触摸","正在触摸","chinese",NA
"null","<div style=""font-size:60px;"">+</div>",NA,"html-keyboard-response",278,1404372,"0.0-17.0-0.12",37721,"ListA","woman","chinese","CFA11",NA,NA,NA,"null",NA,NA,NA,NA,NA,NA
"null","<img src='gifs/FemaleRace3b.gif' style='height:400px;''></img>",NA,"html-keyboard-response",279,1406375,"0.0-17.0-1.12",37721,"ListA","woman","chinese","CFA11",NA,NA,NA,"null",NA,NA,NA,NA,NA,NA
"null","正在说服",NA,"html-keyboard-response",280,1409378,"0.0-17.0-2.12",37721,"ListA","woman","chinese","CFA11",NA,NA,NA,"null",NA,NA,NA,NA,NA,NA
"6491.999999999767",NA,NA,"survey-text",281,1415882,"0.0-17.0-3.12",37721,"ListA","woman","chinese","CFA11",NA,NA,NA,NA,"{""Q0"":""露丝正在说服贝斯""}","<img src='gifs/FemaleRace3b.gif' style='height:400px;''></img>","说服","正在说服","chinese",NA
"null","<div style=""font-size:60px;"">+</div>",NA,"html-keyboard-response",282,1416385,"0.0-17.0-0.13",37721,"ListA","woman","chinese","CFA11",NA,NA,NA,"null",NA,NA,NA,NA,NA,NA
"null","<img src='gifs/ChineseGender3b.gif' style='height:400px;''></img>",NA,"html-keyboard-response",283,1418388,"0.0-17.0-1.13",37721,"ListA","woman","chinese","CFA11",NA,NA,NA,"null",NA,NA,NA,NA,NA,NA
"null","正在聘用",NA,"html-keyboard-response",284,1421393,"0.0-17.0-2.13",37721,"ListA","woman","chinese","CFA11",NA,NA,NA,"null",NA,NA,NA,NA,NA,NA
"7395",NA,NA,"survey-text",285,1428800,"0.0-17.0-3.13",37721,"ListA","woman","chinese","CFA11",NA,NA,NA,NA,"{""Q0"":""贝斯正在聘用麦克""}","<img src='gifs/ChineseGender3b.gif' style='height:400px;''></img>","聘用","正在聘用","chinese",NA
"null","<div style=""font-size:60px;"">+</div>",NA,"html-keyboard-response",286,1429303,"0.0-17.0-0.14",37721,"ListA","woman","chinese","CFA11",NA,NA,NA,"null",NA,NA,NA,NA,NA,NA
"null","<img src='gifs/BlackGender1b.gif' style='height:400px;''></img>",NA,"html-keyboard-response",287,1431305,"0.0-17.0-1.14",37721,"ListA","woman","chinese","CFA11",NA,NA,NA,"null",NA,NA,NA,NA,NA,NA
"null","正在表扬",NA,"html-keyboard-response",288,1434313,"0.0-17.0-2.14",37721,"ListA","woman","chinese","CFA11",NA,NA,NA,"null",NA,NA,NA,NA,NA,NA
"8396",NA,NA,"survey-text",289,1442723,"0.0-17.0-3.14",37721,"ListA","woman","chinese","CFA11",NA,NA,NA,NA,"{""Q0"":""卢克正在表扬露丝""}","<img src='gifs/BlackGender1b.gif' style='height:400px;''></img>","表扬","正在表扬","chinese",NA
"null","<div style=""font-size:60px;"">+</div>",NA,"html-keyboard-response",290,1443226,"0.0-17.0-0.15",37721,"ListA","woman","chinese","CFA11",NA,NA,NA,"null",NA,NA,NA,NA,NA,NA
"null","<img src='gifs/ChineseGender4a.gif' style='height:400px;''></img>",NA,"html-keyboard-response",291,1445228,"0.0-17.0-1.15",37721,"ListA","woman","chinese","CFA11",NA,NA,NA,"null",NA,NA,NA,NA,NA,NA
"null","正在介绍",NA,"html-keyboard-response",292,1448233,"0.0-17.0-2.15",37721,"ListA","woman","chinese","CFA11",NA,NA,NA,"null",NA,NA,NA,NA,NA,NA
"5879.999999999767",NA,NA,"survey-text",293,1454127,"0.0-17.0-3.15",37721,"ListA","woman","chinese","CFA11",NA,NA,NA,NA,"{""Q0"":""凯特正在介绍麦克""}","<img src='gifs/ChineseGender4a.gif' style='height:400px;''></img>","介绍","正在介绍","chinese",NA
"null","<div style=""font-size:60px;"">+</div>",NA,"html-keyboard-response",294,1454631,"0.0-17.0-0.16",37721,"ListA","woman","chinese","CFA11",NA,NA,NA,"null",NA,NA,NA,NA,NA,NA
"null","<img src='gifs/BlackGender4b.gif' style='height:400px;''></img>",NA,"html-keyboard-response",295,1456634,"0.0-17.0-1.16",37721,"ListA","woman","chinese","CFA11",NA,NA,NA,"null",NA,NA,NA,NA,NA,NA
"null","正在走向",NA,"html-keyboard-response",296,1459638,"0.0-17.0-2.16",37721,"ListA","woman","chinese","CFA11",NA,NA,NA,"null",NA,NA,NA,NA,NA,NA
"6537",NA,NA,"survey-text",297,1466187,"0.0-17.0-3.16",37721,"ListA","woman","chinese","CFA11",NA,NA,NA,NA,"{""Q0"":""霍普正在走向戴夫""}","<img src='gifs/BlackGender4b.gif' style='height:400px;''></img>","走向","正在走向","chinese",NA
"null","<div style=""font-size:60px;"">+</div>",NA,"html-keyboard-response",298,1466690,"0.0-17.0-0.17",37721,"ListA","woman","chinese","CFA11",NA,NA,NA,"null",NA,NA,NA,NA,NA,NA
"null","<img src='gifs/FemaleRace3a.gif' style='height:400px;''></img>",NA,"html-keyboard-response",299,1468693,"0.0-17.0-1.17",37721,"ListA","woman","chinese","CFA11",NA,NA,NA,"null",NA,NA,NA,NA,NA,NA
"null","正在说服",NA,"html-keyboard-response",300,1471697,"0.0-17.0-2.17",37721,"ListA","woman","chinese","CFA11",NA,NA,NA,"null",NA,NA,NA,NA,NA,NA
"6734",NA,NA,"survey-text",301,1478442,"0.0-17.0-3.17",37721,"ListA","woman","chinese","CFA11",NA,NA,NA,NA,"{""Q0"":""贝斯正在说服露丝""}","<img src='gifs/FemaleRace3a.gif' style='height:400px;''></img>","说服","正在说服","chinese",NA
"3296","<p>Thank you for completing that task.</p><p>The final part of this session is a short questionnaire.</p><p>Press Continue.</p>",0,"html-button-response",302,1481740,"0.0-18.0",37721,"ListA","woman","chinese","CFA11",NA,NA,NA,NA,NA,NA,NA,NA,NA,NA
"57995.00000000023",NA,NA,"survey-text",303,1540759,"0.0-19.0",37721,"ListA","woman","chinese","CFA11",NA,NA,NA,NA,"{""Q0"":""21"",""Q1"":""Chinese"",""Q2"":""Chinese"",""Q3"":""UK"",""Q4"":""Chinese "",""Q5"":""Yellow"",""Q6"":""Female""}",NA,NA,NA,NA,"demographics"
"2277","<p>Have you lived in the UK for the last 5 years or more?</p>",1,"html-button-response",304,1543039,"0.0-20.0",37721,"ListA","woman","chinese","CFA11",NA,NA,NA,NA,NA,NA,NA,NA,NA,"fiveyears"
"9812",NA,NA,"external-html",305,1554080,"0.0-21.0",37721,"ListA","woman","chinese","CFA11","debrief.html",NA,NA,NA,NA,NA,NA,NA,NA,NA
"10625",NA,NA,"survey-text",306,1564713,"0.0-22.0",37721,"ListA","woman","chinese","CFA11",NA,NA,NA,NA,"{""ptpt_id"":""CFA11""}",NA,NA,NA,NA,"worker_id"
