"rt","stimulus","button_pressed","trial_type","trial_index","time_elapsed","internal_node_id","subject","list","ppt_gender","ppt_language","ptptID","url","first_guess","correct","key_press","responses","image","verb","phrase","condition","test_part"
"34220.300000000745","Welcome to the experiment. Press Continue to begin.",0,"html-button-response",0,34222,"0.0-0.0",43615,"ListA","man","chinese","SW_C_M_A7",NA,NA,NA,NA,NA,NA,NA,NA,NA,NA
"205444.19999999925",NA,NA,"external-html",1,240966,"0.0-1.0",43615,"ListA","man","chinese","SW_C_M_A7","consent.html",NA,NA,NA,NA,NA,NA,NA,NA,NA
"46382.800000000745","<p>在下一页中，您将看到8个人物肖像和他们各自的名字。</p><p>请花费几分钟的时间记住这些人物及其所对应的名字。</p><p>之后的实验中需要您对人物的名字做出回忆，</p><p>因此在实验开始前请确保您已 经完全记住这些人物及其所对应的名字。</p><p><strong>然后您将完成一个测试以检验您对人物和名字的记忆。</strong></p><p>完成此记忆测试后，您将正式进入实验。</p><p>准备好了吗？</p>",0,"html-button-response",2,287349,"0.0-2.0",43615,"ListA","man","chinese","SW_C_M_A7",NA,NA,NA,NA,NA,NA,NA,NA,NA,NA
"28265.5","<img src='img/portrait_matrix_listA_chinese.jpg' style='width:900px;height:500px;''></img><p>如果您已经记住了所有的人物和名字，请点击继续。</p><p><strong>请注意：您对先前记忆的面孔将在本实验中被测试5次。</strong></p>",0,"html-button-response",3,316630,"0.0-3.0-0.0",43615,"ListA","man","chinese","SW_C_M_A7",NA,NA,NA,NA,NA,NA,NA,NA,NA,NA
"4062.199999999255","<img src=""portrait/BW2.jpg""style=""height:400px;""></img>",2,"html-button-response",4,321701,"0.0-3.0-1.0",43615,"ListA","man","chinese","SW_C_M_A7",NA,"true",2,NA,NA,NA,NA,NA,NA,NA
"null","正确",NA,"html-keyboard-response",5,323204,"0.0-3.0-2.0-0.0",43615,"ListA","man","chinese","SW_C_M_A7",NA,NA,NA,"null",NA,NA,NA,NA,NA,NA
"3680.699999999255","<img src=""portrait/BM2.jpg""style=""height:400px;""></img>",5,"html-button-response",6,326885,"0.0-3.0-4.0",43615,"ListA","man","chinese","SW_C_M_A7",NA,"true",5,NA,NA,NA,NA,NA,NA,NA
"null","正确",NA,"html-keyboard-response",7,328403,"0.0-3.0-5.0-0.0",43615,"ListA","man","chinese","SW_C_M_A7",NA,NA,NA,"null",NA,NA,NA,NA,NA,NA
"4209.400000002235","<img src=""portrait/WM1.jpg""style=""height:400px;""></img>",6,"html-button-response",8,332613,"0.0-3.0-7.0",43615,"ListA","man","chinese","SW_C_M_A7",NA,"true",6,NA,NA,NA,NA,NA,NA,NA
"null","正确",NA,"html-keyboard-response",9,334144,"0.0-3.0-8.0-0.0",43615,"ListA","man","chinese","SW_C_M_A7",NA,NA,NA,"null",NA,NA,NA,NA,NA,NA
"3581.099999997765","<img src=""portrait/BW1.jpg""style=""height:400px;""></img>",0,"html-button-response",10,337726,"0.0-3.0-10.0",43615,"ListA","man","chinese","SW_C_M_A7",NA,"true",0,NA,NA,NA,NA,NA,NA,NA
"null","正确",NA,"html-keyboard-response",11,339227,"0.0-3.0-11.0-0.0",43615,"ListA","man","chinese","SW_C_M_A7",NA,NA,NA,"null",NA,NA,NA,NA,NA,NA
"3489.39999999851","<img src=""portrait/WM2.jpg""style=""height:400px;""></img>",7,"html-button-response",12,342717,"0.0-3.0-13.0",43615,"ListA","man","chinese","SW_C_M_A7",NA,"true",7,NA,NA,NA,NA,NA,NA,NA
"null","正确",NA,"html-keyboard-response",13,344227,"0.0-3.0-14.0-0.0",43615,"ListA","man","chinese","SW_C_M_A7",NA,NA,NA,"null",NA,NA,NA,NA,NA,NA
"2609.5","<img src=""portrait/WW1.jpg""style=""height:400px;""></img>",1,"html-button-response",14,346837,"0.0-3.0-16.0",43615,"ListA","man","chinese","SW_C_M_A7",NA,"true",1,NA,NA,NA,NA,NA,NA,NA
"null","正确",NA,"html-keyboard-response",15,348360,"0.0-3.0-17.0-0.0",43615,"ListA","man","chinese","SW_C_M_A7",NA,NA,NA,"null",NA,NA,NA,NA,NA,NA
"2388.10000000149","<img src=""portrait/WW2.jpg""style=""height:400px;""></img>",3,"html-button-response",16,350749,"0.0-3.0-19.0",43615,"ListA","man","chinese","SW_C_M_A7",NA,"true",3,NA,NA,NA,NA,NA,NA,NA
"null","正确",NA,"html-keyboard-response",17,352275,"0.0-3.0-20.0-0.0",43615,"ListA","man","chinese","SW_C_M_A7",NA,NA,NA,"null",NA,NA,NA,NA,NA,NA
"2513.400000002235","<img src=""portrait/BM1.jpg""style=""height:400px;""></img>",4,"html-button-response",18,354789,"0.0-3.0-22.0",43615,"ListA","man","chinese","SW_C_M_A7",NA,"true",4,NA,NA,NA,NA,NA,NA,NA
"null","正确",NA,"html-keyboard-response",19,356296,"0.0-3.0-23.0-0.0",43615,"ListA","man","chinese","SW_C_M_A7",NA,NA,NA,"null",NA,NA,NA,NA,NA,NA
"1787.8999999985099","<p>您第一次在8题里答对了 8 题。 请点击继续</p>",0,"html-button-response",20,358085,"0.0-3.0-25.0",43615,"ListA","man","chinese","SW_C_M_A7",NA,NA,NA,NA,NA,NA,NA,NA,NA,NA
"33111.199999999255","<p>此次实验您将会看到先前记忆任务里的人物照片。</p><p>人物照片消失后您将看到一个动词短语，请正确回忆人物的名字并用特定的 动词短语组成一句完整的句子。</p><p>请在指定的框内输入您的答案。在进入下一题之前请确保您填写了完整的句子。</p><p>人物照片和动词短语只会在屏幕上出现几秒钟，因此请您答题时尽量集中注意力。</p><p>以下是例子。请您在准备好后按下“继续”。</p><img src='img/chinese_speaking_example.jpg' style='width:800px;height:460px;''></img>",0,"html-button-response",21,392213,"0.0-4.0",43615,"ListA","man","chinese","SW_C_M_A7",NA,NA,NA,NA,NA,NA,NA,NA,NA,NA
"2078.699999999255","<p>在实验开始前，将为您展示两个示例实验。</p>",0,"html-button-response",22,395293,"0.0-5.0",43615,"ListA","man","chinese","SW_C_M_A7",NA,NA,NA,NA,NA,NA,NA,NA,NA,NA
"null","<img src='img/meet.gif' style='height:400px;''></img>",NA,"html-keyboard-response",23,398315,"0.0-6.0",43615,"ListA","man","chinese","SW_C_M_A7",NA,NA,NA,"null",NA,NA,NA,NA,NA,NA
"null","<p>正在约见</p>",NA,"html-keyboard-response",24,400326,"0.0-7.0",43615,"ListA","man","chinese","SW_C_M_A7",NA,NA,NA,"null",NA,NA,NA,NA,NA,NA
"5918.900000002235","<p><b>答案:</b> 凯特正在约见贝斯</p>",0,"html-button-response",25,406245,"0.0-8.0",43615,"ListA","man","chinese","SW_C_M_A7",NA,NA,NA,NA,NA,NA,NA,NA,NA,NA
"null","<img src='img/spy.gif' style='height:400px;''></img>",NA,"html-keyboard-response",26,409249,"0.0-9.0",43615,"ListA","man","chinese","SW_C_M_A7",NA,NA,NA,"null",NA,NA,NA,NA,NA,NA
"null","<p>正在监视</p>",NA,"html-keyboard-response",27,411257,"0.0-10.0",43615,"ListA","man","chinese","SW_C_M_A7",NA,NA,NA,"null",NA,NA,NA,NA,NA,NA
"2027.2000000029802","<p><b>答案:</b> 卢克正在监视戴夫</p>",0,"html-button-response",28,413285,"0.0-11.0",43615,"ListA","man","chinese","SW_C_M_A7",NA,NA,NA,NA,NA,NA,NA,NA,NA,NA
"6364.89999999851","<p>准备好开始了吗？</p><br><p><strong>请记住，您的答案需是一句完整的句子</strong></p><p><strong>，并用给到的图片人物和动词短语作答。</strong></p><p><strong>只有正确并完整完成实验才可获得报酬。</strong></p><p><strong> 您不需要加入任何标点符号。</strong></p><br><p>请按 ‘继续’ 键开始。</p>",0,"html-button-response",29,420653,"0.0-12.0",43615,"ListA","man","chinese","SW_C_M_A7",NA,NA,NA,NA,NA,NA,NA,NA,NA,NA
"null","<div style=""font-size:60px;"">+</div>",NA,"html-keyboard-response",30,422155,"0.0-13.0-0.0",43615,"ListA","man","chinese","SW_C_M_A7",NA,NA,NA,"null",NA,NA,NA,NA,NA,NA
"null","<img src='gifs/BlackGender4a.gif' style='height:400px;''></img>",NA,"html-keyboard-response",31,424162,"0.0-13.0-1.0",43615,"ListA","man","chinese","SW_C_M_A7",NA,NA,NA,"null",NA,NA,NA,NA,NA,NA
"null","正在看着",NA,"html-keyboard-response",32,427173,"0.0-13.0-2.0",43615,"ListA","man","chinese","SW_C_M_A7",NA,NA,NA,"null",NA,NA,NA,NA,NA,NA
"33751.10000000149",NA,NA,"survey-text",33,460926,"0.0-13.0-3.0",43615,"ListA","man","chinese","SW_C_M_A7",NA,NA,NA,NA,"{""Q0"":""戴夫正在看着霍普""}","<img src='gifs/BlackGender4a.gif' style='height:400px;''></img>","看着","正在看着","chinese",NA
"null","<div style=""font-size:60px;"">+</div>",NA,"html-keyboard-response",34,461431,"0.0-13.0-0.1",43615,"ListA","man","chinese","SW_C_M_A7",NA,NA,NA,"null",NA,NA,NA,NA,NA,NA
"null","<img src='gifs/MaleRace2a.gif' style='height:400px;''></img>",NA,"html-keyboard-response",35,463447,"0.0-13.0-1.1",43615,"ListA","man","chinese","SW_C_M_A7",NA,NA,NA,"null",NA,NA,NA,NA,NA,NA
"null","正在走向",NA,"html-keyboard-response",36,466449,"0.0-13.0-2.1",43615,"ListA","man","chinese","SW_C_M_A7",NA,NA,NA,"null",NA,NA,NA,NA,NA,NA
"47451.699999999255",NA,NA,"survey-text",37,513902,"0.0-13.0-3.1",43615,"ListA","man","chinese","SW_C_M_A7",NA,NA,NA,NA,"{""Q0"":""戴夫正在走向弗雷""}","<img src='gifs/MaleRace2a.gif' style='height:400px;''></img>","走向","正在走向","chinese",NA
"null","<div style=""font-size:60px;"">+</div>",NA,"html-keyboard-response",38,514406,"0.0-13.0-0.2",43615,"ListA","man","chinese","SW_C_M_A7",NA,NA,NA,"null",NA,NA,NA,NA,NA,NA
"null","<img src='gifs/MaleRace1b.gif' style='height:400px;''></img>",NA,"html-keyboard-response",39,516417,"0.0-13.0-1.2",43615,"ListA","man","chinese","SW_C_M_A7",NA,NA,NA,"null",NA,NA,NA,NA,NA,NA
"null","正在答应",NA,"html-keyboard-response",40,519425,"0.0-13.0-2.2",43615,"ListA","man","chinese","SW_C_M_A7",NA,NA,NA,"null",NA,NA,NA,NA,NA,NA
"26594.79999999702",NA,NA,"survey-text",41,546021,"0.0-13.0-3.2",43615,"ListA","man","chinese","SW_C_M_A7",NA,NA,NA,NA,"{""Q0"":""卢克正在答应弗雷""}","<img src='gifs/MaleRace1b.gif' style='height:400px;''></img>","答应","正在答应","chinese",NA
"null","<div style=""font-size:60px;"">+</div>",NA,"html-keyboard-response",42,546530,"0.0-13.0-0.3",43615,"ListA","man","chinese","SW_C_M_A7",NA,NA,NA,"null",NA,NA,NA,NA,NA,NA
"null","<img src='gifs/BlackGender3a.gif' style='height:400px;''></img>",NA,"html-keyboard-response",43,548531,"0.0-13.0-1.3",43615,"ListA","man","chinese","SW_C_M_A7",NA,NA,NA,"null",NA,NA,NA,NA,NA,NA
"null","正在介绍",NA,"html-keyboard-response",44,551532,"0.0-13.0-2.3",43615,"ListA","man","chinese","SW_C_M_A7",NA,NA,NA,"null",NA,NA,NA,NA,NA,NA
"27680.599999997765",NA,NA,"survey-text",45,579214,"0.0-13.0-3.3",43615,"ListA","man","chinese","SW_C_M_A7",NA,NA,NA,NA,"{""Q0"":""卢克正在介绍霍普""}","<img src='gifs/BlackGender3a.gif' style='height:400px;''></img>","介绍","正在介绍","chinese",NA
"null","<div style=""font-size:60px;"">+</div>",NA,"html-keyboard-response",46,579721,"0.0-13.0-0.4",43615,"ListA","man","chinese","SW_C_M_A7",NA,NA,NA,"null",NA,NA,NA,NA,NA,NA
"null","<img src='gifs/FemaleRace3b.gif' style='height:400px;''></img>",NA,"html-keyboard-response",47,581737,"0.0-13.0-1.4",43615,"ListA","man","chinese","SW_C_M_A7",NA,NA,NA,"null",NA,NA,NA,NA,NA,NA
"null","正在面向",NA,"html-keyboard-response",48,584737,"0.0-13.0-2.4",43615,"ListA","man","chinese","SW_C_M_A7",NA,NA,NA,"null",NA,NA,NA,NA,NA,NA
"68075",NA,NA,"survey-text",49,652813,"0.0-13.0-3.4",43615,"ListA","man","chinese","SW_C_M_A7",NA,NA,NA,NA,"{""Q0"":""露丝正在面向贝斯""}","<img src='gifs/FemaleRace3b.gif' style='height:400px;''></img>","面向","正在面向","chinese",NA
"null","<div style=""font-size:60px;"">+</div>",NA,"html-keyboard-response",50,653319,"0.0-13.0-0.5",43615,"ListA","man","chinese","SW_C_M_A7",NA,NA,NA,"null",NA,NA,NA,NA,NA,NA
"null","<img src='gifs/ChineseGender1b.gif' style='height:400px;''></img>",NA,"html-keyboard-response",51,655321,"0.0-13.0-1.5",43615,"ListA","man","chinese","SW_C_M_A7",NA,NA,NA,"null",NA,NA,NA,NA,NA,NA
"null","正在走向",NA,"html-keyboard-response",52,658322,"0.0-13.0-2.5",43615,"ListA","man","chinese","SW_C_M_A7",NA,NA,NA,"null",NA,NA,NA,NA,NA,NA
"27889.39999999851",NA,NA,"survey-text",53,686213,"0.0-13.0-3.5",43615,"ListA","man","chinese","SW_C_M_A7",NA,NA,NA,NA,"{""Q0"":""凯特正在走向弗雷""}","<img src='gifs/ChineseGender1b.gif' style='height:400px;''></img>","走向","正在走向","chinese",NA
"null","<div style=""font-size:60px;"">+</div>",NA,"html-keyboard-response",54,686714,"0.0-13.0-0.6",43615,"ListA","man","chinese","SW_C_M_A7",NA,NA,NA,"null",NA,NA,NA,NA,NA,NA
"null","<img src='gifs/ChineseGender2a.gif' style='height:400px;''></img>",NA,"html-keyboard-response",55,688722,"0.0-13.0-1.6",43615,"ListA","man","chinese","SW_C_M_A7",NA,NA,NA,"null",NA,NA,NA,NA,NA,NA
"null","正在跟随",NA,"html-keyboard-response",56,691723,"0.0-13.0-2.6",43615,"ListA","man","chinese","SW_C_M_A7",NA,NA,NA,"null",NA,NA,NA,NA,NA,NA
"40377",NA,NA,"survey-text",57,732102,"0.0-13.0-3.6",43615,"ListA","man","chinese","SW_C_M_A7",NA,NA,NA,NA,"{""Q0"":""弗雷正在跟随贝斯""}","<img src='gifs/ChineseGender2a.gif' style='height:400px;''></img>","跟随","正在跟随","chinese",NA
"null","<div style=""font-size:60px;"">+</div>",NA,"html-keyboard-response",58,732602,"0.0-13.0-0.7",43615,"ListA","man","chinese","SW_C_M_A7",NA,NA,NA,"null",NA,NA,NA,NA,NA,NA
"null","<img src='gifs/MaleRace4a.gif' style='height:400px;''></img>",NA,"html-keyboard-response",59,734604,"0.0-13.0-1.7",43615,"ListA","man","chinese","SW_C_M_A7",NA,NA,NA,"null",NA,NA,NA,NA,NA,NA
"null","正在触摸",NA,"html-keyboard-response",60,737606,"0.0-13.0-2.7",43615,"ListA","man","chinese","SW_C_M_A7",NA,NA,NA,"null",NA,NA,NA,NA,NA,NA
"57182",NA,NA,"survey-text",61,794789,"0.0-13.0-3.7",43615,"ListA","man","chinese","SW_C_M_A7",NA,NA,NA,NA,"{""Q0"":""戴夫正在触摸麦克""}","<img src='gifs/MaleRace4a.gif' style='height:400px;''></img>","触摸","正在触摸","chinese",NA
"null","<div style=""font-size:60px;"">+</div>",NA,"html-keyboard-response",62,795299,"0.0-13.0-0.8",43615,"ListA","man","chinese","SW_C_M_A7",NA,NA,NA,"null",NA,NA,NA,NA,NA,NA
"null","<img src='gifs/FemaleRace1a.gif' style='height:400px;''></img>",NA,"html-keyboard-response",63,797301,"0.0-13.0-1.8",43615,"ListA","man","chinese","SW_C_M_A7",NA,NA,NA,"null",NA,NA,NA,NA,NA,NA
"null","正在陪伴",NA,"html-keyboard-response",64,800302,"0.0-13.0-2.8",43615,"ListA","man","chinese","SW_C_M_A7",NA,NA,NA,"null",NA,NA,NA,NA,NA,NA
"26878.29999999702",NA,NA,"survey-text",65,827181,"0.0-13.0-3.8",43615,"ListA","man","chinese","SW_C_M_A7",NA,NA,NA,NA,"{""Q0"":""凯特正在陪伴露丝""}","<img src='gifs/FemaleRace1a.gif' style='height:400px;''></img>","陪伴","正在陪伴","chinese",NA
"null","<div style=""font-size:60px;"">+</div>",NA,"html-keyboard-response",66,827689,"0.0-13.0-0.9",43615,"ListA","man","chinese","SW_C_M_A7",NA,NA,NA,"null",NA,NA,NA,NA,NA,NA
"null","<img src='gifs/MaleRace3a.gif' style='height:400px;''></img>",NA,"html-keyboard-response",67,829691,"0.0-13.0-1.9",43615,"ListA","man","chinese","SW_C_M_A7",NA,NA,NA,"null",NA,NA,NA,NA,NA,NA
"null","正在表扬",NA,"html-keyboard-response",68,832692,"0.0-13.0-2.9",43615,"ListA","man","chinese","SW_C_M_A7",NA,NA,NA,"null",NA,NA,NA,NA,NA,NA
"24024",NA,NA,"survey-text",69,856717,"0.0-13.0-3.9",43615,"ListA","man","chinese","SW_C_M_A7",NA,NA,NA,NA,"{""Q0"":""卢克正在表扬麦克""}","<img src='gifs/MaleRace3a.gif' style='height:400px;''></img>","表扬","正在表扬","chinese",NA
"null","<div style=""font-size:60px;"">+</div>",NA,"html-keyboard-response",70,857218,"0.0-13.0-0.10",43615,"ListA","man","chinese","SW_C_M_A7",NA,NA,NA,"null",NA,NA,NA,NA,NA,NA
"null","<img src='gifs/BlackGender4a.gif' style='height:400px;''></img>",NA,"html-keyboard-response",71,859221,"0.0-13.0-1.10",43615,"ListA","man","chinese","SW_C_M_A7",NA,NA,NA,"null",NA,NA,NA,NA,NA,NA
"null","正在介绍",NA,"html-keyboard-response",72,862222,"0.0-13.0-2.10",43615,"ListA","man","chinese","SW_C_M_A7",NA,NA,NA,"null",NA,NA,NA,NA,NA,NA
"53605.5",NA,NA,"survey-text",73,915829,"0.0-13.0-3.10",43615,"ListA","man","chinese","SW_C_M_A7",NA,NA,NA,NA,"{""Q0"":""戴夫正在介绍霍普""}","<img src='gifs/BlackGender4a.gif' style='height:400px;''></img>","介绍","正在介绍","chinese",NA
"null","<div style=""font-size:60px;"">+</div>",NA,"html-keyboard-response",74,916335,"0.0-13.0-0.11",43615,"ListA","man","chinese","SW_C_M_A7",NA,NA,NA,"null",NA,NA,NA,NA,NA,NA
"null","<img src='gifs/FemaleRace2a.gif' style='height:400px;''></img>",NA,"html-keyboard-response",75,918339,"0.0-13.0-1.11",43615,"ListA","man","chinese","SW_C_M_A7",NA,NA,NA,"null",NA,NA,NA,NA,NA,NA
"null","正在表扬",NA,"html-keyboard-response",76,921341,"0.0-13.0-2.11",43615,"ListA","man","chinese","SW_C_M_A7",NA,NA,NA,"null",NA,NA,NA,NA,NA,NA
"21662.699999999255",NA,NA,"survey-text",77,943004,"0.0-13.0-3.11",43615,"ListA","man","chinese","SW_C_M_A7",NA,NA,NA,NA,"{""Q0"":""霍普正在表扬凯特""}","<img src='gifs/FemaleRace2a.gif' style='height:400px;''></img>","表扬","正在表扬","chinese",NA
"null","<div style=""font-size:60px;"">+</div>",NA,"html-keyboard-response",78,943511,"0.0-13.0-0.12",43615,"ListA","man","chinese","SW_C_M_A7",NA,NA,NA,"null",NA,NA,NA,NA,NA,NA
"null","<img src='gifs/MaleRace3b.gif' style='height:400px;''></img>",NA,"html-keyboard-response",79,945516,"0.0-13.0-1.12",43615,"ListA","man","chinese","SW_C_M_A7",NA,NA,NA,"null",NA,NA,NA,NA,NA,NA
"null","正在面向",NA,"html-keyboard-response",80,948525,"0.0-13.0-2.12",43615,"ListA","man","chinese","SW_C_M_A7",NA,NA,NA,"null",NA,NA,NA,NA,NA,NA
"22693.900000002235",NA,NA,"survey-text",81,971221,"0.0-13.0-3.12",43615,"ListA","man","chinese","SW_C_M_A7",NA,NA,NA,NA,"{""Q0"":""卢克正在面向麦克""}","<img src='gifs/MaleRace3b.gif' style='height:400px;''></img>","面向","正在面向","chinese",NA
"null","<div style=""font-size:60px;"">+</div>",NA,"html-keyboard-response",82,971735,"0.0-13.0-0.13",43615,"ListA","man","chinese","SW_C_M_A7",NA,NA,NA,"null",NA,NA,NA,NA,NA,NA
"null","<img src='gifs/BlackGender3b.gif' style='height:400px;''></img>",NA,"html-keyboard-response",83,973736,"0.0-13.0-1.13",43615,"ListA","man","chinese","SW_C_M_A7",NA,NA,NA,"null",NA,NA,NA,NA,NA,NA
"null","正在触摸",NA,"html-keyboard-response",84,976744,"0.0-13.0-2.13",43615,"ListA","man","chinese","SW_C_M_A7",NA,NA,NA,"null",NA,NA,NA,NA,NA,NA
"21027.599999997765",NA,NA,"survey-text",85,997774,"0.0-13.0-3.13",43615,"ListA","man","chinese","SW_C_M_A7",NA,NA,NA,NA,"{""Q0"":""霍普正在触摸卢克""}","<img src='gifs/BlackGender3b.gif' style='height:400px;''></img>","触摸","正在触摸","chinese",NA
"null","<div style=""font-size:60px;"">+</div>",NA,"html-keyboard-response",86,998274,"0.0-13.0-0.14",43615,"ListA","man","chinese","SW_C_M_A7",NA,NA,NA,"null",NA,NA,NA,NA,NA,NA
"null","<img src='gifs/ChineseGender4a.gif' style='height:400px;''></img>",NA,"html-keyboard-response",87,1000275,"0.0-13.0-1.14",43615,"ListA","man","chinese","SW_C_M_A7",NA,NA,NA,"null",NA,NA,NA,NA,NA,NA
"null","正在看着",NA,"html-keyboard-response",88,1003283,"0.0-13.0-2.14",43615,"ListA","man","chinese","SW_C_M_A7",NA,NA,NA,"null",NA,NA,NA,NA,NA,NA
"22216.5",NA,NA,"survey-text",89,1025501,"0.0-13.0-3.14",43615,"ListA","man","chinese","SW_C_M_A7",NA,NA,NA,NA,"{""Q0"":""麦克正在看着凯特""}","<img src='gifs/ChineseGender4a.gif' style='height:400px;''></img>","看着","正在看着","chinese",NA
"null","<div style=""font-size:60px;"">+</div>",NA,"html-keyboard-response",90,1026013,"0.0-13.0-0.15",43615,"ListA","man","chinese","SW_C_M_A7",NA,NA,NA,"null",NA,NA,NA,NA,NA,NA
"null","<img src='gifs/MaleRace3a.gif' style='height:400px;''></img>",NA,"html-keyboard-response",91,1028027,"0.0-13.0-1.15",43615,"ListA","man","chinese","SW_C_M_A7",NA,NA,NA,"null",NA,NA,NA,NA,NA,NA
"null","正在跟随",NA,"html-keyboard-response",92,1031028,"0.0-13.0-2.15",43615,"ListA","man","chinese","SW_C_M_A7",NA,NA,NA,"null",NA,NA,NA,NA,NA,NA
"20032.099999997765",NA,NA,"survey-text",93,1051061,"0.0-13.0-3.15",43615,"ListA","man","chinese","SW_C_M_A7",NA,NA,NA,NA,"{""Q0"":""卢克正在跟随麦克""}","<img src='gifs/MaleRace3a.gif' style='height:400px;''></img>","跟随","正在跟随","chinese",NA
"null","<div style=""font-size:60px;"">+</div>",NA,"html-keyboard-response",94,1051576,"0.0-13.0-0.16",43615,"ListA","man","chinese","SW_C_M_A7",NA,NA,NA,"null",NA,NA,NA,NA,NA,NA
"null","<img src='gifs/FemaleRace2b.gif' style='height:400px;''></img>",NA,"html-keyboard-response",95,1053588,"0.0-13.0-1.16",43615,"ListA","man","chinese","SW_C_M_A7",NA,NA,NA,"null",NA,NA,NA,NA,NA,NA
"null","正在聘用",NA,"html-keyboard-response",96,1056588,"0.0-13.0-2.16",43615,"ListA","man","chinese","SW_C_M_A7",NA,NA,NA,"null",NA,NA,NA,NA,NA,NA
"20903.5",NA,NA,"survey-text",97,1077493,"0.0-13.0-3.16",43615,"ListA","man","chinese","SW_C_M_A7",NA,NA,NA,NA,"{""Q0"":""霍普正在聘用凯特""}","<img src='gifs/FemaleRace2b.gif' style='height:400px;''></img>","聘用","正在聘用","chinese",NA
"null","<div style=""font-size:60px;"">+</div>",NA,"html-keyboard-response",98,1077997,"0.0-13.0-0.17",43615,"ListA","man","chinese","SW_C_M_A7",NA,NA,NA,"null",NA,NA,NA,NA,NA,NA
"null","<img src='gifs/FemaleRace4a.gif' style='height:400px;''></img>",NA,"html-keyboard-response",99,1080009,"0.0-13.0-1.17",43615,"ListA","man","chinese","SW_C_M_A7",NA,NA,NA,"null",NA,NA,NA,NA,NA,NA
"null","正在聘用",NA,"html-keyboard-response",100,1083009,"0.0-13.0-2.17",43615,"ListA","man","chinese","SW_C_M_A7",NA,NA,NA,"null",NA,NA,NA,NA,NA,NA
"24682.39999999851",NA,NA,"survey-text",101,1107693,"0.0-13.0-3.17",43615,"ListA","man","chinese","SW_C_M_A7",NA,NA,NA,NA,"{""Q0"":""卢克正在聘用贝斯""}","<img src='gifs/FemaleRace4a.gif' style='height:400px;''></img>","聘用","正在聘用","chinese",NA
"13734.800000000745","<img src='img/portrait_matrix_listA_chinese.jpg' style='width:900px;height:500px;''></img><p>如果您已经记住了所有的人物和名字，请点击继续。</p><p><strong>请注意：您对先前记忆的面孔将在本实验中被测试5次。</strong></p>",0,"html-button-response",102,1121429,"0.0-14.0-0.0",43615,"ListA","man","chinese","SW_C_M_A7",NA,NA,NA,NA,NA,NA,NA,NA,NA,NA
"3716.5","<img src=""portrait/BM2.jpg""style=""height:400px;""></img>",5,"html-button-response",103,1126157,"0.0-14.0-1.0",43615,"ListA","man","chinese","SW_C_M_A7",NA,"true",5,NA,NA,NA,NA,NA,NA,NA
"null","正确",NA,"html-keyboard-response",104,1127674,"0.0-14.0-2.0-0.0",43615,"ListA","man","chinese","SW_C_M_A7",NA,NA,NA,"null",NA,NA,NA,NA,NA,NA
"2322.5","<img src=""portrait/WW2.jpg""style=""height:400px;""></img>",3,"html-button-response",105,1129998,"0.0-14.0-4.0",43615,"ListA","man","chinese","SW_C_M_A7",NA,"true",3,NA,NA,NA,NA,NA,NA,NA
"null","正确",NA,"html-keyboard-response",106,1131513,"0.0-14.0-5.0-0.0",43615,"ListA","man","chinese","SW_C_M_A7",NA,NA,NA,"null",NA,NA,NA,NA,NA,NA
"3170.900000002235","<img src=""portrait/BW2.jpg""style=""height:400px;""></img>",2,"html-button-response",107,1134685,"0.0-14.0-7.0",43615,"ListA","man","chinese","SW_C_M_A7",NA,"true",2,NA,NA,NA,NA,NA,NA,NA
"null","正确",NA,"html-keyboard-response",108,1136193,"0.0-14.0-8.0-0.0",43615,"ListA","man","chinese","SW_C_M_A7",NA,NA,NA,"null",NA,NA,NA,NA,NA,NA
"3467.5","<img src=""portrait/BW1.jpg""style=""height:400px;""></img>",0,"html-button-response",109,1139661,"0.0-14.0-10.0",43615,"ListA","man","chinese","SW_C_M_A7",NA,"true",0,NA,NA,NA,NA,NA,NA,NA
"null","正确",NA,"html-keyboard-response",110,1141183,"0.0-14.0-11.0-0.0",43615,"ListA","man","chinese","SW_C_M_A7",NA,NA,NA,"null",NA,NA,NA,NA,NA,NA
"3373","<img src=""portrait/WM1.jpg""style=""height:400px;""></img>",6,"html-button-response",111,1144557,"0.0-14.0-13.0",43615,"ListA","man","chinese","SW_C_M_A7",NA,"true",6,NA,NA,NA,NA,NA,NA,NA
"null","正确",NA,"html-keyboard-response",112,1146060,"0.0-14.0-14.0-0.0",43615,"ListA","man","chinese","SW_C_M_A7",NA,NA,NA,"null",NA,NA,NA,NA,NA,NA
"2832.5","<img src=""portrait/WW1.jpg""style=""height:400px;""></img>",1,"html-button-response",113,1148893,"0.0-14.0-16.0",43615,"ListA","man","chinese","SW_C_M_A7",NA,"true",1,NA,NA,NA,NA,NA,NA,NA
"null","正确",NA,"html-keyboard-response",114,1150395,"0.0-14.0-17.0-0.0",43615,"ListA","man","chinese","SW_C_M_A7",NA,NA,NA,"null",NA,NA,NA,NA,NA,NA
"4210.5","<img src=""portrait/BM1.jpg""style=""height:400px;""></img>",4,"html-button-response",115,1154606,"0.0-14.0-19.0",43615,"ListA","man","chinese","SW_C_M_A7",NA,"true",4,NA,NA,NA,NA,NA,NA,NA
"null","正确",NA,"html-keyboard-response",116,1156108,"0.0-14.0-20.0-0.0",43615,"ListA","man","chinese","SW_C_M_A7",NA,NA,NA,"null",NA,NA,NA,NA,NA,NA
"3871.7000000029802","<img src=""portrait/WM2.jpg""style=""height:400px;""></img>",7,"html-button-response",117,1159981,"0.0-14.0-22.0",43615,"ListA","man","chinese","SW_C_M_A7",NA,"true",7,NA,NA,NA,NA,NA,NA,NA
"null","正确",NA,"html-keyboard-response",118,1161491,"0.0-14.0-23.0-0.0",43615,"ListA","man","chinese","SW_C_M_A7",NA,NA,NA,"null",NA,NA,NA,NA,NA,NA
"2817.199999999255","<p>您第一次在8题里答对了 8 题。 请点击继续</p>",0,"html-button-response",119,1164309,"0.0-14.0-25.0",43615,"ListA","man","chinese","SW_C_M_A7",NA,NA,NA,NA,NA,NA,NA,NA,NA,NA
"null","<div style=""font-size:60px;"">+</div>",NA,"html-keyboard-response",120,1165813,"0.0-15.0-0.0",43615,"ListA","man","chinese","SW_C_M_A7",NA,NA,NA,"null",NA,NA,NA,NA,NA,NA
"null","<img src='gifs/ChineseGender2a.gif' style='height:400px;''></img>",NA,"html-keyboard-response",121,1167827,"0.0-15.0-1.0",43615,"ListA","man","chinese","SW_C_M_A7",NA,NA,NA,"null",NA,NA,NA,NA,NA,NA
"null","正在面向",NA,"html-keyboard-response",122,1170827,"0.0-15.0-2.0",43615,"ListA","man","chinese","SW_C_M_A7",NA,NA,NA,"null",NA,NA,NA,NA,NA,NA
"20368.699999999255",NA,NA,"survey-text",123,1191196,"0.0-15.0-3.0",43615,"ListA","man","chinese","SW_C_M_A7",NA,NA,NA,NA,"{""Q0"":""贝斯正在面向弗雷""}","<img src='gifs/ChineseGender2a.gif' style='height:400px;''></img>","面向","正在面向","chinese",NA
"null","<div style=""font-size:60px;"">+</div>",NA,"html-keyboard-response",124,1191707,"0.0-15.0-0.1",43615,"ListA","man","chinese","SW_C_M_A7",NA,NA,NA,"null",NA,NA,NA,NA,NA,NA
"null","<img src='gifs/FemaleRace4a.gif' style='height:400px;''></img>",NA,"html-keyboard-response",125,1193719,"0.0-15.0-1.1",43615,"ListA","man","chinese","SW_C_M_A7",NA,NA,NA,"null",NA,NA,NA,NA,NA,NA
"null","正在说服",NA,"html-keyboard-response",126,1196720,"0.0-15.0-2.1",43615,"ListA","man","chinese","SW_C_M_A7",NA,NA,NA,"null",NA,NA,NA,NA,NA,NA
"31275.300000000745",NA,NA,"survey-text",127,1227997,"0.0-15.0-3.1",43615,"ListA","man","chinese","SW_C_M_A7",NA,NA,NA,NA,"{""Q0"":""贝斯正在说服霍普""}","<img src='gifs/FemaleRace4a.gif' style='height:400px;''></img>","说服","正在说服","chinese",NA
"null","<div style=""font-size:60px;"">+</div>",NA,"html-keyboard-response",128,1228506,"0.0-15.0-0.2",43615,"ListA","man","chinese","SW_C_M_A7",NA,NA,NA,"null",NA,NA,NA,NA,NA,NA
"null","<img src='gifs/FemaleRace2a.gif' style='height:400px;''></img>",NA,"html-keyboard-response",129,1230521,"0.0-15.0-1.2",43615,"ListA","man","chinese","SW_C_M_A7",NA,NA,NA,"null",NA,NA,NA,NA,NA,NA
"null","正在陪伴",NA,"html-keyboard-response",130,1233533,"0.0-15.0-2.2",43615,"ListA","man","chinese","SW_C_M_A7",NA,NA,NA,"null",NA,NA,NA,NA,NA,NA
"19750.29999999702",NA,NA,"survey-text",131,1253285,"0.0-15.0-3.2",43615,"ListA","man","chinese","SW_C_M_A7",NA,NA,NA,NA,"{""Q0"":""凯特正在陪伴霍普""}","<img src='gifs/FemaleRace2a.gif' style='height:400px;''></img>","陪伴","正在陪伴","chinese",NA
"null","<div style=""font-size:60px;"">+</div>",NA,"html-keyboard-response",132,1253800,"0.0-15.0-0.3",43615,"ListA","man","chinese","SW_C_M_A7",NA,NA,NA,"null",NA,NA,NA,NA,NA,NA
"null","<img src='gifs/BlackGender2a.gif' style='height:400px;''></img>",NA,"html-keyboard-response",133,1255816,"0.0-15.0-1.3",43615,"ListA","man","chinese","SW_C_M_A7",NA,NA,NA,"null",NA,NA,NA,NA,NA,NA
"null","正在提到",NA,"html-keyboard-response",134,1258819,"0.0-15.0-2.3",43615,"ListA","man","chinese","SW_C_M_A7",NA,NA,NA,"null",NA,NA,NA,NA,NA,NA
"36248.800000000745",NA,NA,"survey-text",135,1295069,"0.0-15.0-3.3",43615,"ListA","man","chinese","SW_C_M_A7",NA,NA,NA,NA,"{""Q0"":""戴夫正在提到露丝""}","<img src='gifs/BlackGender2a.gif' style='height:400px;''></img>","提到","正在提到","chinese",NA
"null","<div style=""font-size:60px;"">+</div>",NA,"html-keyboard-response",136,1295570,"0.0-15.0-0.4",43615,"ListA","man","chinese","SW_C_M_A7",NA,NA,NA,"null",NA,NA,NA,NA,NA,NA
"null","<img src='gifs/ChineseGender1a.gif' style='height:400px;''></img>",NA,"html-keyboard-response",137,1297571,"0.0-15.0-1.4",43615,"ListA","man","chinese","SW_C_M_A7",NA,NA,NA,"null",NA,NA,NA,NA,NA,NA
"null","正在看着",NA,"html-keyboard-response",138,1300573,"0.0-15.0-2.4",43615,"ListA","man","chinese","SW_C_M_A7",NA,NA,NA,"null",NA,NA,NA,NA,NA,NA
"22790.400000002235",NA,NA,"survey-text",139,1323365,"0.0-15.0-3.4",43615,"ListA","man","chinese","SW_C_M_A7",NA,NA,NA,NA,"{""Q0"":""弗雷正在看着凯特""}","<img src='gifs/ChineseGender1a.gif' style='height:400px;''></img>","看着","正在看着","chinese",NA
"null","<div style=""font-size:60px;"">+</div>",NA,"html-keyboard-response",140,1323871,"0.0-15.0-0.5",43615,"ListA","man","chinese","SW_C_M_A7",NA,NA,NA,"null",NA,NA,NA,NA,NA,NA
"null","<img src='gifs/FemaleRace3b.gif' style='height:400px;''></img>",NA,"html-keyboard-response",141,1325881,"0.0-15.0-1.5",43615,"ListA","man","chinese","SW_C_M_A7",NA,NA,NA,"null",NA,NA,NA,NA,NA,NA
"null","正在跟随",NA,"html-keyboard-response",142,1328882,"0.0-15.0-2.5",43615,"ListA","man","chinese","SW_C_M_A7",NA,NA,NA,"null",NA,NA,NA,NA,NA,NA
"19569.699999999255",NA,NA,"survey-text",143,1348453,"0.0-15.0-3.5",43615,"ListA","man","chinese","SW_C_M_A7",NA,NA,NA,NA,"{""Q0"":""露丝正在跟随贝斯""}","<img src='gifs/FemaleRace3b.gif' style='height:400px;''></img>","跟随","正在跟随","chinese",NA
"null","<div style=""font-size:60px;"">+</div>",NA,"html-keyboard-response",144,1348964,"0.0-15.0-0.6",43615,"ListA","man","chinese","SW_C_M_A7",NA,NA,NA,"null",NA,NA,NA,NA,NA,NA
"null","<img src='gifs/FemaleRace4b.gif' style='height:400px;''></img>",NA,"html-keyboard-response",145,1350972,"0.0-15.0-1.6",43615,"ListA","man","chinese","SW_C_M_A7",NA,NA,NA,"null",NA,NA,NA,NA,NA,NA
"null","正在提到",NA,"html-keyboard-response",146,1353972,"0.0-15.0-2.6",43615,"ListA","man","chinese","SW_C_M_A7",NA,NA,NA,"null",NA,NA,NA,NA,NA,NA
"19511.39999999851",NA,NA,"survey-text",147,1373485,"0.0-15.0-3.6",43615,"ListA","man","chinese","SW_C_M_A7",NA,NA,NA,NA,"{""Q0"":""贝斯正在提到霍普""}","<img src='gifs/FemaleRace4b.gif' style='height:400px;''></img>","提到","正在提到","chinese",NA
"null","<div style=""font-size:60px;"">+</div>",NA,"html-keyboard-response",148,1373989,"0.0-15.0-0.7",43615,"ListA","man","chinese","SW_C_M_A7",NA,NA,NA,"null",NA,NA,NA,NA,NA,NA
"null","<img src='gifs/ChineseGender4a.gif' style='height:400px;''></img>",NA,"html-keyboard-response",149,1376005,"0.0-15.0-1.7",43615,"ListA","man","chinese","SW_C_M_A7",NA,NA,NA,"null",NA,NA,NA,NA,NA,NA
"null","正在联系",NA,"html-keyboard-response",150,1379005,"0.0-15.0-2.7",43615,"ListA","man","chinese","SW_C_M_A7",NA,NA,NA,"null",NA,NA,NA,NA,NA,NA
"19142.599999997765",NA,NA,"survey-text",151,1398149,"0.0-15.0-3.7",43615,"ListA","man","chinese","SW_C_M_A7",NA,NA,NA,NA,"{""Q0"":""凯特正在联系麦克""}","<img src='gifs/ChineseGender4a.gif' style='height:400px;''></img>","联系","正在联系","chinese",NA
"null","<div style=""font-size:60px;"">+</div>",NA,"html-keyboard-response",152,1398665,"0.0-15.0-0.8",43615,"ListA","man","chinese","SW_C_M_A7",NA,NA,NA,"null",NA,NA,NA,NA,NA,NA
"null","<img src='gifs/ChineseGender3b.gif' style='height:400px;''></img>",NA,"html-keyboard-response",153,1400666,"0.0-15.0-1.8",43615,"ListA","man","chinese","SW_C_M_A7",NA,NA,NA,"null",NA,NA,NA,NA,NA,NA
"null","正在加入",NA,"html-keyboard-response",154,1403667,"0.0-15.0-2.8",43615,"ListA","man","chinese","SW_C_M_A7",NA,NA,NA,"null",NA,NA,NA,NA,NA,NA
"21737",NA,NA,"survey-text",155,1425405,"0.0-15.0-3.8",43615,"ListA","man","chinese","SW_C_M_A7",NA,NA,NA,NA,"{""Q0"":""麦克正在加入贝斯""}","<img src='gifs/ChineseGender3b.gif' style='height:400px;''></img>","加入","正在加入","chinese",NA
"null","<div style=""font-size:60px;"">+</div>",NA,"html-keyboard-response",156,1425920,"0.0-15.0-0.9",43615,"ListA","man","chinese","SW_C_M_A7",NA,NA,NA,"null",NA,NA,NA,NA,NA,NA
"null","<img src='gifs/MaleRace4a.gif' style='height:400px;''></img>",NA,"html-keyboard-response",157,1427931,"0.0-15.0-1.9",43615,"ListA","man","chinese","SW_C_M_A7",NA,NA,NA,"null",NA,NA,NA,NA,NA,NA
"null","正在联系",NA,"html-keyboard-response",158,1430935,"0.0-15.0-2.9",43615,"ListA","man","chinese","SW_C_M_A7",NA,NA,NA,"null",NA,NA,NA,NA,NA,NA
"20812.199999999255",NA,NA,"survey-text",159,1451749,"0.0-15.0-3.9",43615,"ListA","man","chinese","SW_C_M_A7",NA,NA,NA,NA,"{""Q0"":""戴夫正在联系麦克""}","<img src='gifs/MaleRace4a.gif' style='height:400px;''></img>","联系","正在联系","chinese",NA
"null","<div style=""font-size:60px;"">+</div>",NA,"html-keyboard-response",160,1452259,"0.0-15.0-0.10",43615,"ListA","man","chinese","SW_C_M_A7",NA,NA,NA,"null",NA,NA,NA,NA,NA,NA
"null","<img src='gifs/BlackGender1b.gif' style='height:400px;''></img>",NA,"html-keyboard-response",161,1454274,"0.0-15.0-1.10",43615,"ListA","man","chinese","SW_C_M_A7",NA,NA,NA,"null",NA,NA,NA,NA,NA,NA
"null","正在陪伴",NA,"html-keyboard-response",162,1457275,"0.0-15.0-2.10",43615,"ListA","man","chinese","SW_C_M_A7",NA,NA,NA,"null",NA,NA,NA,NA,NA,NA
"21848.60000000149",NA,NA,"survey-text",163,1479125,"0.0-15.0-3.10",43615,"ListA","man","chinese","SW_C_M_A7",NA,NA,NA,NA,"{""Q0"":""卢克正在陪伴露丝""}","<img src='gifs/BlackGender1b.gif' style='height:400px;''></img>","陪伴","正在陪伴","chinese",NA
"null","<div style=""font-size:60px;"">+</div>",NA,"html-keyboard-response",164,1479630,"0.0-15.0-0.11",43615,"ListA","man","chinese","SW_C_M_A7",NA,NA,NA,"null",NA,NA,NA,NA,NA,NA
"null","<img src='gifs/BlackGender4b.gif' style='height:400px;''></img>",NA,"html-keyboard-response",165,1481631,"0.0-15.0-1.11",43615,"ListA","man","chinese","SW_C_M_A7",NA,NA,NA,"null",NA,NA,NA,NA,NA,NA
"null","正在提到",NA,"html-keyboard-response",166,1484632,"0.0-15.0-2.11",43615,"ListA","man","chinese","SW_C_M_A7",NA,NA,NA,"null",NA,NA,NA,NA,NA,NA
"19404",NA,NA,"survey-text",167,1504037,"0.0-15.0-3.11",43615,"ListA","man","chinese","SW_C_M_A7",NA,NA,NA,NA,"{""Q0"":""戴夫正在提到霍普""}","<img src='gifs/BlackGender4b.gif' style='height:400px;''></img>","提到","正在提到","chinese",NA
"null","<div style=""font-size:60px;"">+</div>",NA,"html-keyboard-response",168,1504545,"0.0-15.0-0.12",43615,"ListA","man","chinese","SW_C_M_A7",NA,NA,NA,"null",NA,NA,NA,NA,NA,NA
"null","<img src='gifs/BlackGender2a.gif' style='height:400px;''></img>",NA,"html-keyboard-response",169,1506559,"0.0-15.0-1.12",43615,"ListA","man","chinese","SW_C_M_A7",NA,NA,NA,"null",NA,NA,NA,NA,NA,NA
"null","正在走向",NA,"html-keyboard-response",170,1509560,"0.0-15.0-2.12",43615,"ListA","man","chinese","SW_C_M_A7",NA,NA,NA,"null",NA,NA,NA,NA,NA,NA
"32228",NA,NA,"survey-text",171,1541788,"0.0-15.0-3.12",43615,"ListA","man","chinese","SW_C_M_A7",NA,NA,NA,NA,"{""Q0"":""戴夫正在走向露丝""}","<img src='gifs/BlackGender2a.gif' style='height:400px;''></img>","走向","正在走向","chinese",NA
"null","<div style=""font-size:60px;"">+</div>",NA,"html-keyboard-response",172,1542297,"0.0-15.0-0.13",43615,"ListA","man","chinese","SW_C_M_A7",NA,NA,NA,"null",NA,NA,NA,NA,NA,NA
"null","<img src='gifs/FemaleRace1b.gif' style='height:400px;''></img>",NA,"html-keyboard-response",173,1544298,"0.0-15.0-1.13",43615,"ListA","man","chinese","SW_C_M_A7",NA,NA,NA,"null",NA,NA,NA,NA,NA,NA
"null","正在接近",NA,"html-keyboard-response",174,1547302,"0.0-15.0-2.13",43615,"ListA","man","chinese","SW_C_M_A7",NA,NA,NA,"null",NA,NA,NA,NA,NA,NA
"35980.79999999702",NA,NA,"survey-text",175,1583284,"0.0-15.0-3.13",43615,"ListA","man","chinese","SW_C_M_A7",NA,NA,NA,NA,"{""Q0"":""凯特正在接近露丝""}","<img src='gifs/FemaleRace1b.gif' style='height:400px;''></img>","接近","正在接近","chinese",NA
"null","<div style=""font-size:60px;"">+</div>",NA,"html-keyboard-response",176,1583789,"0.0-15.0-0.14",43615,"ListA","man","chinese","SW_C_M_A7",NA,NA,NA,"null",NA,NA,NA,NA,NA,NA
"null","<img src='gifs/BlackGender2b.gif' style='height:400px;''></img>",NA,"html-keyboard-response",177,1585802,"0.0-15.0-1.14",43615,"ListA","man","chinese","SW_C_M_A7",NA,NA,NA,"null",NA,NA,NA,NA,NA,NA
"null","正在表扬",NA,"html-keyboard-response",178,1588816,"0.0-15.0-2.14",43615,"ListA","man","chinese","SW_C_M_A7",NA,NA,NA,"null",NA,NA,NA,NA,NA,NA
"36346.5",NA,NA,"survey-text",179,1625164,"0.0-15.0-3.14",43615,"ListA","man","chinese","SW_C_M_A7",NA,NA,NA,NA,"{""Q0"":""戴夫正在表扬露丝""}","<img src='gifs/BlackGender2b.gif' style='height:400px;''></img>","表扬","正在表扬","chinese",NA
"null","<div style=""font-size:60px;"">+</div>",NA,"html-keyboard-response",180,1625676,"0.0-15.0-0.15",43615,"ListA","man","chinese","SW_C_M_A7",NA,NA,NA,"null",NA,NA,NA,NA,NA,NA
"null","<img src='gifs/ChineseGender2b.gif' style='height:400px;''></img>",NA,"html-keyboard-response",181,1627688,"0.0-15.0-1.15",43615,"ListA","man","chinese","SW_C_M_A7",NA,NA,NA,"null",NA,NA,NA,NA,NA,NA
"null","正在聆听",NA,"html-keyboard-response",182,1630693,"0.0-15.0-2.15",43615,"ListA","man","chinese","SW_C_M_A7",NA,NA,NA,"null",NA,NA,NA,NA,NA,NA
"22533.89999999851",NA,NA,"survey-text",183,1653228,"0.0-15.0-3.15",43615,"ListA","man","chinese","SW_C_M_A7",NA,NA,NA,NA,"{""Q0"":""弗雷正在聆听贝斯""}","<img src='gifs/ChineseGender2b.gif' style='height:400px;''></img>","聆听","正在聆听","chinese",NA
"null","<div style=""font-size:60px;"">+</div>",NA,"html-keyboard-response",184,1653733,"0.0-15.0-0.16",43615,"ListA","man","chinese","SW_C_M_A7",NA,NA,NA,"null",NA,NA,NA,NA,NA,NA
"null","<img src='gifs/MaleRace2b.gif' style='height:400px;''></img>",NA,"html-keyboard-response",185,1655748,"0.0-15.0-1.16",43615,"ListA","man","chinese","SW_C_M_A7",NA,NA,NA,"null",NA,NA,NA,NA,NA,NA
"null","正在联系",NA,"html-keyboard-response",186,1658749,"0.0-15.0-2.16",43615,"ListA","man","chinese","SW_C_M_A7",NA,NA,NA,"null",NA,NA,NA,NA,NA,NA
"30639",NA,NA,"survey-text",187,1689389,"0.0-15.0-3.16",43615,"ListA","man","chinese","SW_C_M_A7",NA,NA,NA,NA,"{""Q0"":""戴夫正在联系弗雷""}","<img src='gifs/MaleRace2b.gif' style='height:400px;''></img>","联系","正在联系","chinese",NA
"null","<div style=""font-size:60px;"">+</div>",NA,"html-keyboard-response",188,1689898,"0.0-15.0-0.17",43615,"ListA","man","chinese","SW_C_M_A7",NA,NA,NA,"null",NA,NA,NA,NA,NA,NA
"null","<img src='gifs/MaleRace2b.gif' style='height:400px;''></img>",NA,"html-keyboard-response",189,1691906,"0.0-15.0-1.17",43615,"ListA","man","chinese","SW_C_M_A7",NA,NA,NA,"null",NA,NA,NA,NA,NA,NA
"null","正在加入",NA,"html-keyboard-response",190,1694907,"0.0-15.0-2.17",43615,"ListA","man","chinese","SW_C_M_A7",NA,NA,NA,"null",NA,NA,NA,NA,NA,NA
"25896.60000000149",NA,NA,"survey-text",191,1720805,"0.0-15.0-3.17",43615,"ListA","man","chinese","SW_C_M_A7",NA,NA,NA,NA,"{""Q0"":""弗雷正在加入戴夫""}","<img src='gifs/MaleRace2b.gif' style='height:400px;''></img>","加入","正在加入","chinese",NA
"10655.10000000149","<img src='img/portrait_matrix_listA_chinese.jpg' style='width:900px;height:500px;''></img><p>如果您已经记住了所有的人物和名字，请点击继续。</p><p><strong>请注意：您对先前记忆的面孔将在本实验中被测试5次。</strong></p>",0,"html-button-response",192,1731461,"0.0-16.0-0.0",43615,"ListA","man","chinese","SW_C_M_A7",NA,NA,NA,NA,NA,NA,NA,NA,NA,NA
"3309.300000000745","<img src=""portrait/BM2.jpg""style=""height:400px;""></img>",5,"html-button-response",193,1735781,"0.0-16.0-1.0",43615,"ListA","man","chinese","SW_C_M_A7",NA,"true",5,NA,NA,NA,NA,NA,NA,NA
"null","正确",NA,"html-keyboard-response",194,1737294,"0.0-16.0-2.0-0.0",43615,"ListA","man","chinese","SW_C_M_A7",NA,NA,NA,"null",NA,NA,NA,NA,NA,NA
"2342.199999999255","<img src=""portrait/BM1.jpg""style=""height:400px;""></img>",4,"html-button-response",195,1739637,"0.0-16.0-4.0",43615,"ListA","man","chinese","SW_C_M_A7",NA,"true",4,NA,NA,NA,NA,NA,NA,NA
"null","正确",NA,"html-keyboard-response",196,1741162,"0.0-16.0-5.0-0.0",43615,"ListA","man","chinese","SW_C_M_A7",NA,NA,NA,"null",NA,NA,NA,NA,NA,NA
"2273.699999999255","<img src=""portrait/BW2.jpg""style=""height:400px;""></img>",2,"html-button-response",197,1743437,"0.0-16.0-7.0",43615,"ListA","man","chinese","SW_C_M_A7",NA,"true",2,NA,NA,NA,NA,NA,NA,NA
"null","正确",NA,"html-keyboard-response",198,1744944,"0.0-16.0-8.0-0.0",43615,"ListA","man","chinese","SW_C_M_A7",NA,NA,NA,"null",NA,NA,NA,NA,NA,NA
"3379.5","<img src=""portrait/WM1.jpg""style=""height:400px;""></img>",6,"html-button-response",199,1748325,"0.0-16.0-10.0",43615,"ListA","man","chinese","SW_C_M_A7",NA,"true",6,NA,NA,NA,NA,NA,NA,NA
"null","正确",NA,"html-keyboard-response",200,1749840,"0.0-16.0-11.0-0.0",43615,"ListA","man","chinese","SW_C_M_A7",NA,NA,NA,"null",NA,NA,NA,NA,NA,NA
"4236.39999999851","<img src=""portrait/WW1.jpg""style=""height:400px;""></img>",1,"html-button-response",201,1754077,"0.0-16.0-13.0",43615,"ListA","man","chinese","SW_C_M_A7",NA,"true",1,NA,NA,NA,NA,NA,NA,NA
"null","正确",NA,"html-keyboard-response",202,1755582,"0.0-16.0-14.0-0.0",43615,"ListA","man","chinese","SW_C_M_A7",NA,NA,NA,"null",NA,NA,NA,NA,NA,NA
"1590.199999999255","<img src=""portrait/WW2.jpg""style=""height:400px;""></img>",3,"html-button-response",203,1757173,"0.0-16.0-16.0",43615,"ListA","man","chinese","SW_C_M_A7",NA,"true",3,NA,NA,NA,NA,NA,NA,NA
"null","正确",NA,"html-keyboard-response",204,1758678,"0.0-16.0-17.0-0.0",43615,"ListA","man","chinese","SW_C_M_A7",NA,NA,NA,"null",NA,NA,NA,NA,NA,NA
"3150.400000002235","<img src=""portrait/BW1.jpg""style=""height:400px;""></img>",0,"html-button-response",205,1761829,"0.0-16.0-19.0",43615,"ListA","man","chinese","SW_C_M_A7",NA,"true",0,NA,NA,NA,NA,NA,NA,NA
"null","正确",NA,"html-keyboard-response",206,1763342,"0.0-16.0-20.0-0.0",43615,"ListA","man","chinese","SW_C_M_A7",NA,NA,NA,"null",NA,NA,NA,NA,NA,NA
"2549.800000000745","<img src=""portrait/WM2.jpg""style=""height:400px;""></img>",7,"html-button-response",207,1765893,"0.0-16.0-22.0",43615,"ListA","man","chinese","SW_C_M_A7",NA,"true",7,NA,NA,NA,NA,NA,NA,NA
"null","正确",NA,"html-keyboard-response",208,1767399,"0.0-16.0-23.0-0.0",43615,"ListA","man","chinese","SW_C_M_A7",NA,NA,NA,"null",NA,NA,NA,NA,NA,NA
"1924.5999999977648","<p>您第一次在8题里答对了 8 题。 请点击继续</p>",0,"html-button-response",209,1769324,"0.0-16.0-25.0",43615,"ListA","man","chinese","SW_C_M_A7",NA,NA,NA,NA,NA,NA,NA,NA,NA,NA
"null","<div style=""font-size:60px;"">+</div>",NA,"html-keyboard-response",210,1770850,"0.0-17.0-0.0",43615,"ListA","man","chinese","SW_C_M_A7",NA,NA,NA,"null",NA,NA,NA,NA,NA,NA
"null","<img src='gifs/FemaleRace3a.gif' style='height:400px;''></img>",NA,"html-keyboard-response",211,1772851,"0.0-17.0-1.0",43615,"ListA","man","chinese","SW_C_M_A7",NA,NA,NA,"null",NA,NA,NA,NA,NA,NA
"null","正在联系",NA,"html-keyboard-response",212,1775851,"0.0-17.0-2.0",43615,"ListA","man","chinese","SW_C_M_A7",NA,NA,NA,"null",NA,NA,NA,NA,NA,NA
"19983.39999999851",NA,NA,"survey-text",213,1795836,"0.0-17.0-3.0",43615,"ListA","man","chinese","SW_C_M_A7",NA,NA,NA,NA,"{""Q0"":""贝斯正在联系露丝""}","<img src='gifs/FemaleRace3a.gif' style='height:400px;''></img>","联系","正在联系","chinese",NA
"null","<div style=""font-size:60px;"">+</div>",NA,"html-keyboard-response",214,1796341,"0.0-17.0-0.1",43615,"ListA","man","chinese","SW_C_M_A7",NA,NA,NA,"null",NA,NA,NA,NA,NA,NA
"null","<img src='gifs/BlackGender3b.gif' style='height:400px;''></img>",NA,"html-keyboard-response",215,1798351,"0.0-17.0-1.1",43615,"ListA","man","chinese","SW_C_M_A7",NA,NA,NA,"null",NA,NA,NA,NA,NA,NA
"null","正在触摸",NA,"html-keyboard-response",216,1801353,"0.0-17.0-2.1",43615,"ListA","man","chinese","SW_C_M_A7",NA,NA,NA,"null",NA,NA,NA,NA,NA,NA
"20146.599999997765",NA,NA,"survey-text",217,1821500,"0.0-17.0-3.1",43615,"ListA","man","chinese","SW_C_M_A7",NA,NA,NA,NA,"{""Q0"":""霍普正在触摸卢克""}","<img src='gifs/BlackGender3b.gif' style='height:400px;''></img>","触摸","正在触摸","chinese",NA
"null","<div style=""font-size:60px;"">+</div>",NA,"html-keyboard-response",218,1822012,"0.0-17.0-0.2",43615,"ListA","man","chinese","SW_C_M_A7",NA,NA,NA,"null",NA,NA,NA,NA,NA,NA
"null","<img src='gifs/BlackGender1a.gif' style='height:400px;''></img>",NA,"html-keyboard-response",219,1824024,"0.0-17.0-1.2",43615,"ListA","man","chinese","SW_C_M_A7",NA,NA,NA,"null",NA,NA,NA,NA,NA,NA
"null","正在面向",NA,"html-keyboard-response",220,1827025,"0.0-17.0-2.2",43615,"ListA","man","chinese","SW_C_M_A7",NA,NA,NA,"null",NA,NA,NA,NA,NA,NA
"19338.099999997765",NA,NA,"survey-text",221,1846364,"0.0-17.0-3.2",43615,"ListA","man","chinese","SW_C_M_A7",NA,NA,NA,NA,"{""Q0"":""卢克正在面向露丝""}","<img src='gifs/BlackGender1a.gif' style='height:400px;''></img>","面向","正在面向","chinese",NA
"null","<div style=""font-size:60px;"">+</div>",NA,"html-keyboard-response",222,1846864,"0.0-17.0-0.3",43615,"ListA","man","chinese","SW_C_M_A7",NA,NA,NA,"null",NA,NA,NA,NA,NA,NA
"null","<img src='gifs/BlackGender2b.gif' style='height:400px;''></img>",NA,"html-keyboard-response",223,1848867,"0.0-17.0-1.3",43615,"ListA","man","chinese","SW_C_M_A7",NA,NA,NA,"null",NA,NA,NA,NA,NA,NA
"null","正在聘用",NA,"html-keyboard-response",224,1851869,"0.0-17.0-2.3",43615,"ListA","man","chinese","SW_C_M_A7",NA,NA,NA,"null",NA,NA,NA,NA,NA,NA
"24477.5",NA,NA,"survey-text",225,1876348,"0.0-17.0-3.3",43615,"ListA","man","chinese","SW_C_M_A7",NA,NA,NA,NA,"{""Q0"":""露丝正在聘用戴夫""}","<img src='gifs/BlackGender2b.gif' style='height:400px;''></img>","聘用","正在聘用","chinese",NA
"null","<div style=""font-size:60px;"">+</div>",NA,"html-keyboard-response",226,1876856,"0.0-17.0-0.4",43615,"ListA","man","chinese","SW_C_M_A7",NA,NA,NA,"null",NA,NA,NA,NA,NA,NA
"null","<img src='gifs/MaleRace2a.gif' style='height:400px;''></img>",NA,"html-keyboard-response",227,1878862,"0.0-17.0-1.4",43615,"ListA","man","chinese","SW_C_M_A7",NA,NA,NA,"null",NA,NA,NA,NA,NA,NA
"null","正在聆听",NA,"html-keyboard-response",228,1881867,"0.0-17.0-2.4",43615,"ListA","man","chinese","SW_C_M_A7",NA,NA,NA,"null",NA,NA,NA,NA,NA,NA
"18055.599999997765",NA,NA,"survey-text",229,1899924,"0.0-17.0-3.4",43615,"ListA","man","chinese","SW_C_M_A7",NA,NA,NA,NA,"{""Q0"":""戴夫正在聆听弗雷""}","<img src='gifs/MaleRace2a.gif' style='height:400px;''></img>","聆听","正在聆听","chinese",NA
"null","<div style=""font-size:60px;"">+</div>",NA,"html-keyboard-response",230,1900436,"0.0-17.0-0.5",43615,"ListA","man","chinese","SW_C_M_A7",NA,NA,NA,"null",NA,NA,NA,NA,NA,NA
"null","<img src='gifs/ChineseGender2b.gif' style='height:400px;''></img>",NA,"html-keyboard-response",231,1902446,"0.0-17.0-1.5",43615,"ListA","man","chinese","SW_C_M_A7",NA,NA,NA,"null",NA,NA,NA,NA,NA,NA
"null","正在加入",NA,"html-keyboard-response",232,1905447,"0.0-17.0-2.5",43615,"ListA","man","chinese","SW_C_M_A7",NA,NA,NA,"null",NA,NA,NA,NA,NA,NA
"16916.5",NA,NA,"survey-text",233,1922364,"0.0-17.0-3.5",43615,"ListA","man","chinese","SW_C_M_A7",NA,NA,NA,NA,"{""Q0"":""弗雷正在加入贝斯""}","<img src='gifs/ChineseGender2b.gif' style='height:400px;''></img>","加入","正在加入","chinese",NA
"null","<div style=""font-size:60px;"">+</div>",NA,"html-keyboard-response",234,1922873,"0.0-17.0-0.6",43615,"ListA","man","chinese","SW_C_M_A7",NA,NA,NA,"null",NA,NA,NA,NA,NA,NA
"null","<img src='gifs/MaleRace1a.gif' style='height:400px;''></img>",NA,"html-keyboard-response",235,1924875,"0.0-17.0-1.6",43615,"ListA","man","chinese","SW_C_M_A7",NA,NA,NA,"null",NA,NA,NA,NA,NA,NA
"null","正在聘用",NA,"html-keyboard-response",236,1927876,"0.0-17.0-2.6",43615,"ListA","man","chinese","SW_C_M_A7",NA,NA,NA,"null",NA,NA,NA,NA,NA,NA
"18247.199999999255",NA,NA,"survey-text",237,1946124,"0.0-17.0-3.6",43615,"ListA","man","chinese","SW_C_M_A7",NA,NA,NA,NA,"{""Q0"":""弗雷正在聘用卢克""}","<img src='gifs/MaleRace1a.gif' style='height:400px;''></img>","聘用","正在聘用","chinese",NA
"null","<div style=""font-size:60px;"">+</div>",NA,"html-keyboard-response",238,1946637,"0.0-17.0-0.7",43615,"ListA","man","chinese","SW_C_M_A7",NA,NA,NA,"null",NA,NA,NA,NA,NA,NA
"null","<img src='gifs/ChineseGender3b.gif' style='height:400px;''></img>",NA,"html-keyboard-response",239,1948652,"0.0-17.0-1.7",43615,"ListA","man","chinese","SW_C_M_A7",NA,NA,NA,"null",NA,NA,NA,NA,NA,NA
"null","正在加入",NA,"html-keyboard-response",240,1951655,"0.0-17.0-2.7",43615,"ListA","man","chinese","SW_C_M_A7",NA,NA,NA,"null",NA,NA,NA,NA,NA,NA
"17027.599999997765",NA,NA,"survey-text",241,1968684,"0.0-17.0-3.7",43615,"ListA","man","chinese","SW_C_M_A7",NA,NA,NA,NA,"{""Q0"":""麦克正在加入贝斯""}","<img src='gifs/ChineseGender3b.gif' style='height:400px;''></img>","加入","正在加入","chinese",NA
"null","<div style=""font-size:60px;"">+</div>",NA,"html-keyboard-response",242,1969198,"0.0-17.0-0.8",43615,"ListA","man","chinese","SW_C_M_A7",NA,NA,NA,"null",NA,NA,NA,NA,NA,NA
"null","<img src='gifs/BlackGender1a.gif' style='height:400px;''></img>",NA,"html-keyboard-response",243,1971199,"0.0-17.0-1.8",43615,"ListA","man","chinese","SW_C_M_A7",NA,NA,NA,"null",NA,NA,NA,NA,NA,NA
"null","正在陪伴",NA,"html-keyboard-response",244,1974200,"0.0-17.0-2.8",43615,"ListA","man","chinese","SW_C_M_A7",NA,NA,NA,"null",NA,NA,NA,NA,NA,NA
"14123.60000000149",NA,NA,"survey-text",245,1988324,"0.0-17.0-3.8",43615,"ListA","man","chinese","SW_C_M_A7",NA,NA,NA,NA,"{""Q0"":""卢克正在陪伴露丝""}","<img src='gifs/BlackGender1a.gif' style='height:400px;''></img>","陪伴","正在陪伴","chinese",NA
"null","<div style=""font-size:60px;"">+</div>",NA,"html-keyboard-response",246,1988825,"0.0-17.0-0.9",43615,"ListA","man","chinese","SW_C_M_A7",NA,NA,NA,"null",NA,NA,NA,NA,NA,NA
"null","<img src='gifs/ChineseGender1a.gif' style='height:400px;''></img>",NA,"html-keyboard-response",247,1990828,"0.0-17.0-1.9",43615,"ListA","man","chinese","SW_C_M_A7",NA,NA,NA,"null",NA,NA,NA,NA,NA,NA
"null","正在表扬",NA,"html-keyboard-response",248,1993829,"0.0-17.0-2.9",43615,"ListA","man","chinese","SW_C_M_A7",NA,NA,NA,"null",NA,NA,NA,NA,NA,NA
"16998.60000000149",NA,NA,"survey-text",249,2010829,"0.0-17.0-3.9",43615,"ListA","man","chinese","SW_C_M_A7",NA,NA,NA,NA,"{""Q0"":""凯特正在表扬弗雷""}","<img src='gifs/ChineseGender1a.gif' style='height:400px;''></img>","表扬","正在表扬","chinese",NA
"null","<div style=""font-size:60px;"">+</div>",NA,"html-keyboard-response",250,2011336,"0.0-17.0-0.10",43615,"ListA","man","chinese","SW_C_M_A7",NA,NA,NA,"null",NA,NA,NA,NA,NA,NA
"null","<img src='gifs/BlackGender4b.gif' style='height:400px;''></img>",NA,"html-keyboard-response",251,2013345,"0.0-17.0-1.10",43615,"ListA","man","chinese","SW_C_M_A7",NA,NA,NA,"null",NA,NA,NA,NA,NA,NA
"null","正在接近",NA,"html-keyboard-response",252,2016355,"0.0-17.0-2.10",43615,"ListA","man","chinese","SW_C_M_A7",NA,NA,NA,"null",NA,NA,NA,NA,NA,NA
"26728.800000000745",NA,NA,"survey-text",253,2043085,"0.0-17.0-3.10",43615,"ListA","man","chinese","SW_C_M_A7",NA,NA,NA,NA,"{""Q0"":""霍普正在接近戴夫""}","<img src='gifs/BlackGender4b.gif' style='height:400px;''></img>","接近","正在接近","chinese",NA
"null","<div style=""font-size:60px;"">+</div>",NA,"html-keyboard-response",254,2043598,"0.0-17.0-0.11",43615,"ListA","man","chinese","SW_C_M_A7",NA,NA,NA,"null",NA,NA,NA,NA,NA,NA
"null","<img src='gifs/MaleRace3b.gif' style='height:400px;''></img>",NA,"html-keyboard-response",255,2045614,"0.0-17.0-1.11",43615,"ListA","man","chinese","SW_C_M_A7",NA,NA,NA,"null",NA,NA,NA,NA,NA,NA
"null","正在走向",NA,"html-keyboard-response",256,2048619,"0.0-17.0-2.11",43615,"ListA","man","chinese","SW_C_M_A7",NA,NA,NA,"null",NA,NA,NA,NA,NA,NA
"18592.199999999255",NA,NA,"survey-text",257,2067212,"0.0-17.0-3.11",43615,"ListA","man","chinese","SW_C_M_A7",NA,NA,NA,NA,"{""Q0"":""麦克正在走向卢克""}","<img src='gifs/MaleRace3b.gif' style='height:400px;''></img>","走向","正在走向","chinese",NA
"null","<div style=""font-size:60px;"">+</div>",NA,"html-keyboard-response",258,2067727,"0.0-17.0-0.12",43615,"ListA","man","chinese","SW_C_M_A7",NA,NA,NA,"null",NA,NA,NA,NA,NA,NA
"null","<img src='gifs/ChineseGender3a.gif' style='height:400px;''></img>",NA,"html-keyboard-response",259,2069728,"0.0-17.0-1.12",43615,"ListA","man","chinese","SW_C_M_A7",NA,NA,NA,"null",NA,NA,NA,NA,NA,NA
"null","正在聆听",NA,"html-keyboard-response",260,2072736,"0.0-17.0-2.12",43615,"ListA","man","chinese","SW_C_M_A7",NA,NA,NA,"null",NA,NA,NA,NA,NA,NA
"16179.300000000745",NA,NA,"survey-text",261,2088917,"0.0-17.0-3.12",43615,"ListA","man","chinese","SW_C_M_A7",NA,NA,NA,NA,"{""Q0"":""麦克正在聆听贝斯""}","<img src='gifs/ChineseGender3a.gif' style='height:400px;''></img>","聆听","正在聆听","chinese",NA
"null","<div style=""font-size:60px;"">+</div>",NA,"html-keyboard-response",262,2089422,"0.0-17.0-0.13",43615,"ListA","man","chinese","SW_C_M_A7",NA,NA,NA,"null",NA,NA,NA,NA,NA,NA
"null","<img src='gifs/MaleRace1a.gif' style='height:400px;''></img>",NA,"html-keyboard-response",263,2091426,"0.0-17.0-1.13",43615,"ListA","man","chinese","SW_C_M_A7",NA,NA,NA,"null",NA,NA,NA,NA,NA,NA
"null","正在触摸",NA,"html-keyboard-response",264,2094432,"0.0-17.0-2.13",43615,"ListA","man","chinese","SW_C_M_A7",NA,NA,NA,"null",NA,NA,NA,NA,NA,NA
"17900",NA,NA,"survey-text",265,2112333,"0.0-17.0-3.13",43615,"ListA","man","chinese","SW_C_M_A7",NA,NA,NA,NA,"{""Q0"":""卢克正在触摸弗雷""}","<img src='gifs/MaleRace1a.gif' style='height:400px;''></img>","触摸","正在触摸","chinese",NA
"null","<div style=""font-size:60px;"">+</div>",NA,"html-keyboard-response",266,2112848,"0.0-17.0-0.14",43615,"ListA","man","chinese","SW_C_M_A7",NA,NA,NA,"null",NA,NA,NA,NA,NA,NA
"null","<img src='gifs/FemaleRace2b.gif' style='height:400px;''></img>",NA,"html-keyboard-response",267,2114858,"0.0-17.0-1.14",43615,"ListA","man","chinese","SW_C_M_A7",NA,NA,NA,"null",NA,NA,NA,NA,NA,NA
"null","正在答应",NA,"html-keyboard-response",268,2117871,"0.0-17.0-2.14",43615,"ListA","man","chinese","SW_C_M_A7",NA,NA,NA,"null",NA,NA,NA,NA,NA,NA
"15988.39999999851",NA,NA,"survey-text",269,2133860,"0.0-17.0-3.14",43615,"ListA","man","chinese","SW_C_M_A7",NA,NA,NA,NA,"{""Q0"":""霍普正在答应凯特""}","<img src='gifs/FemaleRace2b.gif' style='height:400px;''></img>","答应","正在答应","chinese",NA
"null","<div style=""font-size:60px;"">+</div>",NA,"html-keyboard-response",270,2134368,"0.0-17.0-0.15",43615,"ListA","man","chinese","SW_C_M_A7",NA,NA,NA,"null",NA,NA,NA,NA,NA,NA
"null","<img src='gifs/ChineseGender3a.gif' style='height:400px;''></img>",NA,"html-keyboard-response",271,2136375,"0.0-17.0-1.15",43615,"ListA","man","chinese","SW_C_M_A7",NA,NA,NA,"null",NA,NA,NA,NA,NA,NA
"null","正在说服",NA,"html-keyboard-response",272,2139388,"0.0-17.0-2.15",43615,"ListA","man","chinese","SW_C_M_A7",NA,NA,NA,"null",NA,NA,NA,NA,NA,NA
"16191.60000000149",NA,NA,"survey-text",273,2155581,"0.0-17.0-3.15",43615,"ListA","man","chinese","SW_C_M_A7",NA,NA,NA,NA,"{""Q0"":""贝斯正在说服麦克""}","<img src='gifs/ChineseGender3a.gif' style='height:400px;''></img>","说服","正在说服","chinese",NA
"null","<div style=""font-size:60px;"">+</div>",NA,"html-keyboard-response",274,2156085,"0.0-17.0-0.16",43615,"ListA","man","chinese","SW_C_M_A7",NA,NA,NA,"null",NA,NA,NA,NA,NA,NA
"null","<img src='gifs/BlackGender3a.gif' style='height:400px;''></img>",NA,"html-keyboard-response",275,2158101,"0.0-17.0-1.16",43615,"ListA","man","chinese","SW_C_M_A7",NA,NA,NA,"null",NA,NA,NA,NA,NA,NA
"null","正在答应",NA,"html-keyboard-response",276,2161110,"0.0-17.0-2.16",43615,"ListA","man","chinese","SW_C_M_A7",NA,NA,NA,"null",NA,NA,NA,NA,NA,NA
"15477",NA,NA,"survey-text",277,2176589,"0.0-17.0-3.16",43615,"ListA","man","chinese","SW_C_M_A7",NA,NA,NA,NA,"{""Q0"":""卢克正在答应霍普""}","<img src='gifs/BlackGender3a.gif' style='height:400px;''></img>","答应","正在答应","chinese",NA
"null","<div style=""font-size:60px;"">+</div>",NA,"html-keyboard-response",278,2177097,"0.0-17.0-0.17",43615,"ListA","man","chinese","SW_C_M_A7",NA,NA,NA,"null",NA,NA,NA,NA,NA,NA
"null","<img src='gifs/MaleRace4b.gif' style='height:400px;''></img>",NA,"html-keyboard-response",279,2179099,"0.0-17.0-1.17",43615,"ListA","man","chinese","SW_C_M_A7",NA,NA,NA,"null",NA,NA,NA,NA,NA,NA
"null","正在说服",NA,"html-keyboard-response",280,2182100,"0.0-17.0-2.17",43615,"ListA","man","chinese","SW_C_M_A7",NA,NA,NA,"null",NA,NA,NA,NA,NA,NA
"15919.10000000149",NA,NA,"survey-text",281,2198020,"0.0-17.0-3.17",43615,"ListA","man","chinese","SW_C_M_A7",NA,NA,NA,NA,"{""Q0"":""戴夫正在说服麦克""}","<img src='gifs/MaleRace4b.gif' style='height:400px;''></img>","说服","正在说服","chinese",NA
"23254.89999999851","<p>Thank you for completing that task.</p><p>The final part of this session is a short questionnaire.</p><p>Press Continue.</p>",0,"html-button-response",282,2221276,"0.0-18.0",43615,"ListA","man","chinese","SW_C_M_A7",NA,NA,NA,NA,NA,NA,NA,NA,NA,NA
"74554.5",NA,NA,"survey-text",283,2296836,"0.0-19.0",43615,"ListA","man","chinese","SW_C_M_A7",NA,NA,NA,NA,"{""Q0"":""21"",""Q1"":""汉语"",""Q2"":""汉语"",""Q3"":""中国"",""Q4"":""中国"",""Q5"":""汉族"",""Q6"":""男""}",NA,NA,NA,NA,"demographics"
"10007.10000000149","<p>Have you lived in the UK for the last 5 years or more?</p>",1,"html-button-response",284,2306844,"0.0-20.0",43615,"ListA","man","chinese","SW_C_M_A7",NA,NA,NA,NA,NA,NA,NA,NA,NA,"fiveyears"
"18025.79999999702",NA,NA,"external-html",285,2327100,"0.0-21.0",43615,"ListA","man","chinese","SW_C_M_A7","debrief.html",NA,NA,NA,NA,NA,NA,NA,NA,NA
"17910.5",NA,NA,"survey-text",286,2345012,"0.0-22.0",43615,"ListA","man","chinese","SW_C_M_A7",NA,NA,NA,NA,"{""ptpt_id"":""SW_C_M_A7""}",NA,NA,NA,NA,"worker_id"
