"rt","stimulus","button_pressed","trial_type","trial_index","time_elapsed","internal_node_id","subject","list","ppt_gender","ppt_language","ptptID","url","first_guess","correct","key_press","responses","image","verb","phrase","condition","test_part"
"210595.70000004768","Welcome to the experiment. Press Continue to begin.",0,"html-button-response",0,210613,"0.0-0.0",51637,"ListB","woman","chinese","SW_C_F_B7",NA,NA,NA,NA,NA,NA,NA,NA,NA,NA
"36774.10000002384",NA,NA,"external-html",1,248468,"0.0-1.0",51637,"ListB","woman","chinese","SW_C_F_B7","consent.html",NA,NA,NA,NA,NA,NA,NA,NA,NA
"14884.600000023842","<p>在下一页中，您将看到8个人物肖像和他们各自的名字。</p><p>请花费几分钟的时间记住这些人物及其所对应的名字。</p><p>之后的实验中需要您对人物的名字做出回忆，</p><p>因此在实验开始前请确保您已 经完全记住这些人物及其所对应的名字。</p><p><strong>然后您将完成一个测试以检验您对人物和名字的记忆。</strong></p><p>完成此记忆测试后，您将正式进入实验。</p><p>准备好了吗？</p>",0,"html-button-response",2,263354,"0.0-2.0",51637,"ListB","woman","chinese","SW_C_F_B7",NA,NA,NA,NA,NA,NA,NA,NA,NA,NA
"114753.60000002384","<img src='img/portrait_matrix_listB_chinese.jpg' style='width:900px;height:500px;''></img><p>如果您已经记住了所有的人物和名字，请点击继续。</p><p><strong>请注意：您对先前记忆的面孔将在本实验中被测试5次。</strong></p>",0,"html-button-response",3,379116,"0.0-3.0-0.0",51637,"ListB","woman","chinese","SW_C_F_B7",NA,NA,NA,NA,NA,NA,NA,NA,NA,NA
"5147","<img src=""portrait/WW1.jpg""style=""height:400px;""></img>",1,"html-button-response",4,385279,"0.0-3.0-1.0",51637,"ListB","woman","chinese","SW_C_F_B7",NA,"true",1,NA,NA,NA,NA,NA,NA,NA
"null","正确",NA,"html-keyboard-response",5,386789,"0.0-3.0-2.0-0.0",51637,"ListB","woman","chinese","SW_C_F_B7",NA,NA,NA,"null",NA,NA,NA,NA,NA,NA
"3450.6999999284744","<img src=""portrait/BW2.jpg""style=""height:400px;""></img>",2,"html-button-response",6,390243,"0.0-3.0-4.0",51637,"ListB","woman","chinese","SW_C_F_B7",NA,"true",2,NA,NA,NA,NA,NA,NA,NA
"null","正确",NA,"html-keyboard-response",7,391751,"0.0-3.0-5.0-0.0",51637,"ListB","woman","chinese","SW_C_F_B7",NA,NA,NA,"null",NA,NA,NA,NA,NA,NA
"4472.600000023842","<img src=""portrait/WW2.jpg""style=""height:400px;""></img>",3,"html-button-response",8,396227,"0.0-3.0-7.0",51637,"ListB","woman","chinese","SW_C_F_B7",NA,"true",3,NA,NA,NA,NA,NA,NA,NA
"null","正确",NA,"html-keyboard-response",9,397735,"0.0-3.0-8.0-0.0",51637,"ListB","woman","chinese","SW_C_F_B7",NA,NA,NA,"null",NA,NA,NA,NA,NA,NA
"3112","<img src=""portrait/WM1.jpg""style=""height:400px;""></img>",6,"html-button-response",10,400851,"0.0-3.0-10.0",51637,"ListB","woman","chinese","SW_C_F_B7",NA,"true",6,NA,NA,NA,NA,NA,NA,NA
"null","正确",NA,"html-keyboard-response",11,402360,"0.0-3.0-11.0-0.0",51637,"ListB","woman","chinese","SW_C_F_B7",NA,NA,NA,"null",NA,NA,NA,NA,NA,NA
"5462.699999928474","<img src=""portrait/BM2.jpg""style=""height:400px;""></img>",5,"html-button-response",12,407825,"0.0-3.0-13.0",51637,"ListB","woman","chinese","SW_C_F_B7",NA,"true",5,NA,NA,NA,NA,NA,NA,NA
"null","正确",NA,"html-keyboard-response",13,409334,"0.0-3.0-14.0-0.0",51637,"ListB","woman","chinese","SW_C_F_B7",NA,NA,NA,"null",NA,NA,NA,NA,NA,NA
"10155.5","<img src=""portrait/BW1.jpg""style=""height:400px;""></img>",0,"html-button-response",14,419492,"0.0-3.0-16.0",51637,"ListB","woman","chinese","SW_C_F_B7",NA,"true",0,NA,NA,NA,NA,NA,NA,NA
"null","正确",NA,"html-keyboard-response",15,420999,"0.0-3.0-17.0-0.0",51637,"ListB","woman","chinese","SW_C_F_B7",NA,NA,NA,"null",NA,NA,NA,NA,NA,NA
"3731.5","<img src=""portrait/BM1.jpg""style=""height:400px;""></img>",4,"html-button-response",16,424733,"0.0-3.0-19.0",51637,"ListB","woman","chinese","SW_C_F_B7",NA,"true",4,NA,NA,NA,NA,NA,NA,NA
"null","正确",NA,"html-keyboard-response",17,426247,"0.0-3.0-20.0-0.0",51637,"ListB","woman","chinese","SW_C_F_B7",NA,NA,NA,"null",NA,NA,NA,NA,NA,NA
"4573","<img src=""portrait/WM2.jpg""style=""height:400px;""></img>",7,"html-button-response",18,430823,"0.0-3.0-22.0",51637,"ListB","woman","chinese","SW_C_F_B7",NA,"true",7,NA,NA,NA,NA,NA,NA,NA
"null","正确",NA,"html-keyboard-response",19,432341,"0.0-3.0-23.0-0.0",51637,"ListB","woman","chinese","SW_C_F_B7",NA,NA,NA,"null",NA,NA,NA,NA,NA,NA
"1131.2999999523163","<p>您第一次在8题里答对了 8 题。 请点击继续</p>",0,"html-button-response",20,433475,"0.0-3.0-25.0",51637,"ListB","woman","chinese","SW_C_F_B7",NA,NA,NA,NA,NA,NA,NA,NA,NA,NA
"33360.90000009537","<p>此次实验您将会看到先前记忆任务里的人物照片。</p><p>人物照片消失后您将看到一个动词短语，请正确回忆人物的名字并用特定的 动词短语组成一句完整的句子。</p><p>请在指定的框内输入您的答案。在进入下一题之前请确保您填写了完整的句子。</p><p>人物照片和动词短语只会在屏幕上出现几秒钟，因此请您答题时尽量集中注意力。</p><p>以下是例子。请您在准备好后按下“继续”。</p><img src='img/chinese_speaking_example.jpg' style='width:800px;height:460px;''></img>",0,"html-button-response",21,467843,"0.0-4.0",51637,"ListB","woman","chinese","SW_C_F_B7",NA,NA,NA,NA,NA,NA,NA,NA,NA,NA
"1432","<p>在实验开始前，将为您展示两个示例实验。</p>",0,"html-button-response",22,470289,"0.0-5.0",51637,"ListB","woman","chinese","SW_C_F_B7",NA,NA,NA,NA,NA,NA,NA,NA,NA,NA
"null","<img src='img/meet.gif' style='height:400px;''></img>",NA,"html-keyboard-response",23,473303,"0.0-6.0",51637,"ListB","woman","chinese","SW_C_F_B7",NA,NA,NA,"null",NA,NA,NA,NA,NA,NA
"null","<p>正在约见</p>",NA,"html-keyboard-response",24,475307,"0.0-7.0",51637,"ListB","woman","chinese","SW_C_F_B7",NA,NA,NA,"null",NA,NA,NA,NA,NA,NA
"1737","<p><b>答案：</b> 霍普正在会见露丝</p>",0,"html-button-response",25,477046,"0.0-8.0",51637,"ListB","woman","chinese","SW_C_F_B7",NA,NA,NA,NA,NA,NA,NA,NA,NA,NA
"null","<img src='img/spy.gif' style='height:400px;''></img>",NA,"html-keyboard-response",26,480054,"0.0-9.0",51637,"ListB","woman","chinese","SW_C_F_B7",NA,NA,NA,"null",NA,NA,NA,NA,NA,NA
"null","<p>正在监视</p>",NA,"html-keyboard-response",27,482062,"0.0-10.0",51637,"ListB","woman","chinese","SW_C_F_B7",NA,NA,NA,"null",NA,NA,NA,NA,NA,NA
"2250.600000023842","<p><b>答案：</b> 弗雷正在监视麦克</p>",0,"html-button-response",28,484314,"0.0-11.0",51637,"ListB","woman","chinese","SW_C_F_B7",NA,NA,NA,NA,NA,NA,NA,NA,NA,NA
"2518.399999976158","<p>准备好开始了吗？</p><br><p><strong>请记住，您的答案需是一句完整的句子</strong></p><p><strong>，并用给到的图片人物和动词短语作答。</strong></p><p><strong>只有正确并完整完成实验才可获得报酬。</strong></p><p><strong> 您不需要加入任何标点符号。</strong></p><br><p>请按 ‘继续’ 键开始。</p>",0,"html-button-response",29,487838,"0.0-12.0",51637,"ListB","woman","chinese","SW_C_F_B7",NA,NA,NA,NA,NA,NA,NA,NA,NA,NA
"null","<div style=""font-size:60px;"">+</div>",NA,"html-keyboard-response",30,489342,"0.0-13.0-0.0",51637,"ListB","woman","chinese","SW_C_F_B7",NA,NA,NA,"null",NA,NA,NA,NA,NA,NA
"null","<img src='gifs/BlackGender3a.gif' style='height:400px;''></img>",NA,"html-keyboard-response",31,491350,"0.0-13.0-1.0",51637,"ListB","woman","chinese","SW_C_F_B7",NA,NA,NA,"null",NA,NA,NA,NA,NA,NA
"null","正在跟随",NA,"html-keyboard-response",32,494358,"0.0-13.0-2.0",51637,"ListB","woman","chinese","SW_C_F_B7",NA,NA,NA,"null",NA,NA,NA,NA,NA,NA
"16951.799999952316",NA,NA,"survey-text",33,511315,"0.0-13.0-3.0",51637,"ListB","woman","chinese","SW_C_F_B7",NA,NA,NA,NA,"{""Q0"":""凯特正在跟随弗雷""}","<img src='gifs/BlackGender3a.gif' style='height:400px;''></img>","跟随","正在跟随","chinese",NA
"null","<div style=""font-size:60px;"">+</div>",NA,"html-keyboard-response",34,511823,"0.0-13.0-0.1",51637,"ListB","woman","chinese","SW_C_F_B7",NA,NA,NA,"null",NA,NA,NA,NA,NA,NA
"null","<img src='gifs/FemaleRace3a.gif' style='height:400px;''></img>",NA,"html-keyboard-response",35,513830,"0.0-13.0-1.1",51637,"ListB","woman","chinese","SW_C_F_B7",NA,NA,NA,"null",NA,NA,NA,NA,NA,NA
"null","正在介绍",NA,"html-keyboard-response",36,516838,"0.0-13.0-2.1",51637,"ListB","woman","chinese","SW_C_F_B7",NA,NA,NA,"null",NA,NA,NA,NA,NA,NA
"15819.5",NA,NA,"survey-text",37,532662,"0.0-13.0-3.1",51637,"ListB","woman","chinese","SW_C_F_B7",NA,NA,NA,NA,"{""Q0"":""露丝正在介绍贝斯""}","<img src='gifs/FemaleRace3a.gif' style='height:400px;''></img>","介绍","正在介绍","chinese",NA
"null","<div style=""font-size:60px;"">+</div>",NA,"html-keyboard-response",38,533163,"0.0-13.0-0.2",51637,"ListB","woman","chinese","SW_C_F_B7",NA,NA,NA,"null",NA,NA,NA,NA,NA,NA
"null","<img src='gifs/FemaleRace1a.gif' style='height:400px;''></img>",NA,"html-keyboard-response",39,535171,"0.0-13.0-1.2",51637,"ListB","woman","chinese","SW_C_F_B7",NA,NA,NA,"null",NA,NA,NA,NA,NA,NA
"null","正在陪伴",NA,"html-keyboard-response",40,538180,"0.0-13.0-2.2",51637,"ListB","woman","chinese","SW_C_F_B7",NA,NA,NA,"null",NA,NA,NA,NA,NA,NA
"14015.399999976158",NA,NA,"survey-text",41,552199,"0.0-13.0-3.2",51637,"ListB","woman","chinese","SW_C_F_B7",NA,NA,NA,NA,"{""Q0"":""贝斯正在陪伴霍普""}","<img src='gifs/FemaleRace1a.gif' style='height:400px;''></img>","陪伴","正在陪伴","chinese",NA
"null","<div style=""font-size:60px;"">+</div>",NA,"html-keyboard-response",42,552702,"0.0-13.0-0.3",51637,"ListB","woman","chinese","SW_C_F_B7",NA,NA,NA,"null",NA,NA,NA,NA,NA,NA
"null","<img src='gifs/MaleRace2a.gif' style='height:400px;''></img>",NA,"html-keyboard-response",43,554709,"0.0-13.0-1.3",51637,"ListB","woman","chinese","SW_C_F_B7",NA,NA,NA,"null",NA,NA,NA,NA,NA,NA
"null","正在聘用",NA,"html-keyboard-response",44,557711,"0.0-13.0-2.3",51637,"ListB","woman","chinese","SW_C_F_B7",NA,NA,NA,"null",NA,NA,NA,NA,NA,NA
"15016.299999952316",NA,NA,"survey-text",45,572731,"0.0-13.0-3.3",51637,"ListB","woman","chinese","SW_C_F_B7",NA,NA,NA,NA,"{""Q0"":""卢克正在聘用麦克""}","<img src='gifs/MaleRace2a.gif' style='height:400px;''></img>","聘用","正在聘用","chinese",NA
"null","<div style=""font-size:60px;"">+</div>",NA,"html-keyboard-response",46,573236,"0.0-13.0-0.4",51637,"ListB","woman","chinese","SW_C_F_B7",NA,NA,NA,"null",NA,NA,NA,NA,NA,NA
"null","<img src='gifs/BlackGender4a.gif' style='height:400px;''></img>",NA,"html-keyboard-response",47,575247,"0.0-13.0-1.4",51637,"ListB","woman","chinese","SW_C_F_B7",NA,NA,NA,"null",NA,NA,NA,NA,NA,NA
"null","正在联系",NA,"html-keyboard-response",48,578255,"0.0-13.0-2.4",51637,"ListB","woman","chinese","SW_C_F_B7",NA,NA,NA,"null",NA,NA,NA,NA,NA,NA
"12235.199999928474",NA,NA,"survey-text",49,590495,"0.0-13.0-3.4",51637,"ListB","woman","chinese","SW_C_F_B7",NA,NA,NA,NA,"{""Q0"":""麦克正在联系凯特""}","<img src='gifs/BlackGender4a.gif' style='height:400px;''></img>","联系","正在联系","chinese",NA
"null","<div style=""font-size:60px;"">+</div>",NA,"html-keyboard-response",50,591000,"0.0-13.0-0.5",51637,"ListB","woman","chinese","SW_C_F_B7",NA,NA,NA,"null",NA,NA,NA,NA,NA,NA
"null","<img src='gifs/ChineseGender1a.gif' style='height:400px;''></img>",NA,"html-keyboard-response",51,593006,"0.0-13.0-1.5",51637,"ListB","woman","chinese","SW_C_F_B7",NA,NA,NA,"null",NA,NA,NA,NA,NA,NA
"null","正在面向",NA,"html-keyboard-response",52,596015,"0.0-13.0-2.5",51637,"ListB","woman","chinese","SW_C_F_B7",NA,NA,NA,"null",NA,NA,NA,NA,NA,NA
"11595.199999928474",NA,NA,"survey-text",53,607615,"0.0-13.0-3.5",51637,"ListB","woman","chinese","SW_C_F_B7",NA,NA,NA,NA,"{""Q0"":""卢克正在面向霍普""}","<img src='gifs/ChineseGender1a.gif' style='height:400px;''></img>","面向","正在面向","chinese",NA
"null","<div style=""font-size:60px;"">+</div>",NA,"html-keyboard-response",54,608123,"0.0-13.0-0.6",51637,"ListB","woman","chinese","SW_C_F_B7",NA,NA,NA,"null",NA,NA,NA,NA,NA,NA
"null","<img src='gifs/BlackGender1a.gif' style='height:400px;''></img>",NA,"html-keyboard-response",55,610127,"0.0-13.0-1.6",51637,"ListB","woman","chinese","SW_C_F_B7",NA,NA,NA,"null",NA,NA,NA,NA,NA,NA
"null","正在面向",NA,"html-keyboard-response",56,613129,"0.0-13.0-2.6",51637,"ListB","woman","chinese","SW_C_F_B7",NA,NA,NA,"null",NA,NA,NA,NA,NA,NA
"10727.200000047684",NA,NA,"survey-text",57,623860,"0.0-13.0-3.6",51637,"ListB","woman","chinese","SW_C_F_B7",NA,NA,NA,NA,"{""Q0"":""贝斯正在面向弗雷""}","<img src='gifs/BlackGender1a.gif' style='height:400px;''></img>","面向","正在面向","chinese",NA
"null","<div style=""font-size:60px;"">+</div>",NA,"html-keyboard-response",58,624366,"0.0-13.0-0.7",51637,"ListB","woman","chinese","SW_C_F_B7",NA,NA,NA,"null",NA,NA,NA,NA,NA,NA
"null","<img src='gifs/MaleRace2a.gif' style='height:400px;''></img>",NA,"html-keyboard-response",59,626372,"0.0-13.0-1.7",51637,"ListB","woman","chinese","SW_C_F_B7",NA,NA,NA,"null",NA,NA,NA,NA,NA,NA
"null","正在聆听",NA,"html-keyboard-response",60,629381,"0.0-13.0-2.7",51637,"ListB","woman","chinese","SW_C_F_B7",NA,NA,NA,"null",NA,NA,NA,NA,NA,NA
"10439.100000023842",NA,NA,"survey-text",61,639824,"0.0-13.0-3.7",51637,"ListB","woman","chinese","SW_C_F_B7",NA,NA,NA,NA,"{""Q0"":""麦克正在聆听卢克""}","<img src='gifs/MaleRace2a.gif' style='height:400px;''></img>","聆听","正在聆听","chinese",NA
"null","<div style=""font-size:60px;"">+</div>",NA,"html-keyboard-response",62,640330,"0.0-13.0-0.8",51637,"ListB","woman","chinese","SW_C_F_B7",NA,NA,NA,"null",NA,NA,NA,NA,NA,NA
"null","<img src='gifs/ChineseGender2a.gif' style='height:400px;''></img>",NA,"html-keyboard-response",63,642333,"0.0-13.0-1.8",51637,"ListB","woman","chinese","SW_C_F_B7",NA,NA,NA,"null",NA,NA,NA,NA,NA,NA
"null","正在接近",NA,"html-keyboard-response",64,645338,"0.0-13.0-2.8",51637,"ListB","woman","chinese","SW_C_F_B7",NA,NA,NA,"null",NA,NA,NA,NA,NA,NA
"9619.099999904633",NA,NA,"survey-text",65,654960,"0.0-13.0-3.8",51637,"ListB","woman","chinese","SW_C_F_B7",NA,NA,NA,NA,"{""Q0"":""卢克正在接近露丝""}","<img src='gifs/ChineseGender2a.gif' style='height:400px;''></img>","接近","正在接近","chinese",NA
"null","<div style=""font-size:60px;"">+</div>",NA,"html-keyboard-response",66,655463,"0.0-13.0-0.9",51637,"ListB","woman","chinese","SW_C_F_B7",NA,NA,NA,"null",NA,NA,NA,NA,NA,NA
"null","<img src='gifs/MaleRace4b.gif' style='height:400px;''></img>",NA,"html-keyboard-response",67,657470,"0.0-13.0-1.9",51637,"ListB","woman","chinese","SW_C_F_B7",NA,NA,NA,"null",NA,NA,NA,NA,NA,NA
"null","正在聆听",NA,"html-keyboard-response",68,660478,"0.0-13.0-2.9",51637,"ListB","woman","chinese","SW_C_F_B7",NA,NA,NA,"null",NA,NA,NA,NA,NA,NA
"16603.5",NA,NA,"survey-text",69,677086,"0.0-13.0-3.9",51637,"ListB","woman","chinese","SW_C_F_B7",NA,NA,NA,NA,"{""Q0"":""麦克正在聆听戴夫""}","<img src='gifs/MaleRace4b.gif' style='height:400px;''></img>","聆听","正在聆听","chinese",NA
"null","<div style=""font-size:60px;"">+</div>",NA,"html-keyboard-response",70,677589,"0.0-13.0-0.10",51637,"ListB","woman","chinese","SW_C_F_B7",NA,NA,NA,"null",NA,NA,NA,NA,NA,NA
"null","<img src='gifs/ChineseGender4b.gif' style='height:400px;''></img>",NA,"html-keyboard-response",71,679598,"0.0-13.0-1.10",51637,"ListB","woman","chinese","SW_C_F_B7",NA,NA,NA,"null",NA,NA,NA,NA,NA,NA
"null","正在加入",NA,"html-keyboard-response",72,682606,"0.0-13.0-2.10",51637,"ListB","woman","chinese","SW_C_F_B7",NA,NA,NA,"null",NA,NA,NA,NA,NA,NA
"15646.600000023842",NA,NA,"survey-text",73,698257,"0.0-13.0-3.10",51637,"ListB","woman","chinese","SW_C_F_B7",NA,NA,NA,NA,"{""Q0"":""霍普正在加入戴夫""}","<img src='gifs/ChineseGender4b.gif' style='height:400px;''></img>","加入","正在加入","chinese",NA
"null","<div style=""font-size:60px;"">+</div>",NA,"html-keyboard-response",74,698759,"0.0-13.0-0.11",51637,"ListB","woman","chinese","SW_C_F_B7",NA,NA,NA,"null",NA,NA,NA,NA,NA,NA
"null","<img src='gifs/ChineseGender3b.gif' style='height:400px;''></img>",NA,"html-keyboard-response",75,700771,"0.0-13.0-1.11",51637,"ListB","woman","chinese","SW_C_F_B7",NA,NA,NA,"null",NA,NA,NA,NA,NA,NA
"null","正在看着",NA,"html-keyboard-response",76,703776,"0.0-13.0-2.11",51637,"ListB","woman","chinese","SW_C_F_B7",NA,NA,NA,"null",NA,NA,NA,NA,NA,NA
"6536.600000023842",NA,NA,"survey-text",77,710316,"0.0-13.0-3.11",51637,"ListB","woman","chinese","SW_C_F_B7",NA,NA,NA,NA,"{""Q0"":""露丝正在看着戴夫""}","<img src='gifs/ChineseGender3b.gif' style='height:400px;''></img>","看着","正在看着","chinese",NA
"null","<div style=""font-size:60px;"">+</div>",NA,"html-keyboard-response",78,710821,"0.0-13.0-0.12",51637,"ListB","woman","chinese","SW_C_F_B7",NA,NA,NA,"null",NA,NA,NA,NA,NA,NA
"null","<img src='gifs/BlackGender2b.gif' style='height:400px;''></img>",NA,"html-keyboard-response",79,712830,"0.0-13.0-1.12",51637,"ListB","woman","chinese","SW_C_F_B7",NA,NA,NA,"null",NA,NA,NA,NA,NA,NA
"null","正在接近",NA,"html-keyboard-response",80,715838,"0.0-13.0-2.12",51637,"ListB","woman","chinese","SW_C_F_B7",NA,NA,NA,"null",NA,NA,NA,NA,NA,NA
"5195.899999976158",NA,NA,"survey-text",81,721038,"0.0-13.0-3.12",51637,"ListB","woman","chinese","SW_C_F_B7",NA,NA,NA,NA,"{""Q0"":""麦克正在接近贝斯""}","<img src='gifs/BlackGender2b.gif' style='height:400px;''></img>","接近","正在接近","chinese",NA
"null","<div style=""font-size:60px;"">+</div>",NA,"html-keyboard-response",82,721550,"0.0-13.0-0.13",51637,"ListB","woman","chinese","SW_C_F_B7",NA,NA,NA,"null",NA,NA,NA,NA,NA,NA
"null","<img src='gifs/ChineseGender1b.gif' style='height:400px;''></img>",NA,"html-keyboard-response",83,723566,"0.0-13.0-1.13",51637,"ListB","woman","chinese","SW_C_F_B7",NA,NA,NA,"null",NA,NA,NA,NA,NA,NA
"null","正在陪伴",NA,"html-keyboard-response",84,726573,"0.0-13.0-2.13",51637,"ListB","woman","chinese","SW_C_F_B7",NA,NA,NA,"null",NA,NA,NA,NA,NA,NA
"6927.200000047684",NA,NA,"survey-text",85,733504,"0.0-13.0-3.13",51637,"ListB","woman","chinese","SW_C_F_B7",NA,NA,NA,NA,"{""Q0"":""霍普正在陪伴卢克""}","<img src='gifs/ChineseGender1b.gif' style='height:400px;''></img>","陪伴","正在陪伴","chinese",NA
"null","<div style=""font-size:60px;"">+</div>",NA,"html-keyboard-response",86,734013,"0.0-13.0-0.14",51637,"ListB","woman","chinese","SW_C_F_B7",NA,NA,NA,"null",NA,NA,NA,NA,NA,NA
"null","<img src='gifs/FemaleRace3b.gif' style='height:400px;''></img>",NA,"html-keyboard-response",87,736020,"0.0-13.0-1.14",51637,"ListB","woman","chinese","SW_C_F_B7",NA,NA,NA,"null",NA,NA,NA,NA,NA,NA
"null","正在走向",NA,"html-keyboard-response",88,739026,"0.0-13.0-2.14",51637,"ListB","woman","chinese","SW_C_F_B7",NA,NA,NA,"null",NA,NA,NA,NA,NA,NA
"6635.699999928474",NA,NA,"survey-text",89,745666,"0.0-13.0-3.14",51637,"ListB","woman","chinese","SW_C_F_B7",NA,NA,NA,NA,"{""Q0"":""露丝正在走向贝斯""}","<img src='gifs/FemaleRace3b.gif' style='height:400px;''></img>","走向","正在走向","chinese",NA
"null","<div style=""font-size:60px;"">+</div>",NA,"html-keyboard-response",90,746172,"0.0-13.0-0.15",51637,"ListB","woman","chinese","SW_C_F_B7",NA,NA,NA,"null",NA,NA,NA,NA,NA,NA
"null","<img src='gifs/ChineseGender2b.gif' style='height:400px;''></img>",NA,"html-keyboard-response",91,748178,"0.0-13.0-1.15",51637,"ListB","woman","chinese","SW_C_F_B7",NA,NA,NA,"null",NA,NA,NA,NA,NA,NA
"null","正在答应",NA,"html-keyboard-response",92,751186,"0.0-13.0-2.15",51637,"ListB","woman","chinese","SW_C_F_B7",NA,NA,NA,"null",NA,NA,NA,NA,NA,NA
"12585.899999976158",NA,NA,"survey-text",93,763777,"0.0-13.0-3.15",51637,"ListB","woman","chinese","SW_C_F_B7",NA,NA,NA,NA,"{""Q0"":""露丝正在答应卢克""}","<img src='gifs/ChineseGender2b.gif' style='height:400px;''></img>","答应","正在答应","chinese",NA
"null","<div style=""font-size:60px;"">+</div>",NA,"html-keyboard-response",94,764282,"0.0-13.0-0.16",51637,"ListB","woman","chinese","SW_C_F_B7",NA,NA,NA,"null",NA,NA,NA,NA,NA,NA
"null","<img src='gifs/FemaleRace2a.gif' style='height:400px;''></img>",NA,"html-keyboard-response",95,766290,"0.0-13.0-1.16",51637,"ListB","woman","chinese","SW_C_F_B7",NA,NA,NA,"null",NA,NA,NA,NA,NA,NA
"null","正在看着",NA,"html-keyboard-response",96,769298,"0.0-13.0-2.16",51637,"ListB","woman","chinese","SW_C_F_B7",NA,NA,NA,"null",NA,NA,NA,NA,NA,NA
"9526.699999928474",NA,NA,"survey-text",97,778829,"0.0-13.0-3.16",51637,"ListB","woman","chinese","SW_C_F_B7",NA,NA,NA,NA,"{""Q0"":""凯特正在看着霍普""}","<img src='gifs/FemaleRace2a.gif' style='height:400px;''></img>","看着","正在看着","chinese",NA
"null","<div style=""font-size:60px;"">+</div>",NA,"html-keyboard-response",98,779336,"0.0-13.0-0.17",51637,"ListB","woman","chinese","SW_C_F_B7",NA,NA,NA,"null",NA,NA,NA,NA,NA,NA
"null","<img src='gifs/FemaleRace3b.gif' style='height:400px;''></img>",NA,"html-keyboard-response",99,781346,"0.0-13.0-1.17",51637,"ListB","woman","chinese","SW_C_F_B7",NA,NA,NA,"null",NA,NA,NA,NA,NA,NA
"null","正在触摸",NA,"html-keyboard-response",100,784356,"0.0-13.0-2.17",51637,"ListB","woman","chinese","SW_C_F_B7",NA,NA,NA,"null",NA,NA,NA,NA,NA,NA
"7442.299999952316",NA,NA,"survey-text",101,791803,"0.0-13.0-3.17",51637,"ListB","woman","chinese","SW_C_F_B7",NA,NA,NA,NA,"{""Q0"":""贝斯正在触摸露丝""}","<img src='gifs/FemaleRace3b.gif' style='height:400px;''></img>","触摸","正在触摸","chinese",NA
"4630.399999976158","<img src='img/portrait_matrix_listB_chinese.jpg' style='width:900px;height:500px;''></img><p>如果您已经记住了所有的人物和名字，请点击继续。</p><p><strong>请注意：您对先前记忆的面孔将在本实验中被测试5次。</strong></p>",0,"html-button-response",102,796436,"0.0-14.0-0.0",51637,"ListB","woman","chinese","SW_C_F_B7",NA,NA,NA,NA,NA,NA,NA,NA,NA,NA
"2930","<img src=""portrait/BM1.jpg""style=""height:400px;""></img>",4,"html-button-response",103,800375,"0.0-14.0-1.0",51637,"ListB","woman","chinese","SW_C_F_B7",NA,"true",4,NA,NA,NA,NA,NA,NA,NA
"null","正确",NA,"html-keyboard-response",104,801893,"0.0-14.0-2.0-0.0",51637,"ListB","woman","chinese","SW_C_F_B7",NA,NA,NA,"null",NA,NA,NA,NA,NA,NA
"3383.7999999523163","<img src=""portrait/WW2.jpg""style=""height:400px;""></img>",3,"html-button-response",105,805280,"0.0-14.0-4.0",51637,"ListB","woman","chinese","SW_C_F_B7",NA,"true",3,NA,NA,NA,NA,NA,NA,NA
"null","正确",NA,"html-keyboard-response",106,806802,"0.0-14.0-5.0-0.0",51637,"ListB","woman","chinese","SW_C_F_B7",NA,NA,NA,"null",NA,NA,NA,NA,NA,NA
"4133.5","<img src=""portrait/WM2.jpg""style=""height:400px;""></img>",7,"html-button-response",107,810939,"0.0-14.0-7.0",51637,"ListB","woman","chinese","SW_C_F_B7",NA,"true",7,NA,NA,NA,NA,NA,NA,NA
"null","正确",NA,"html-keyboard-response",108,812455,"0.0-14.0-8.0-0.0",51637,"ListB","woman","chinese","SW_C_F_B7",NA,NA,NA,"null",NA,NA,NA,NA,NA,NA
"1538.7000000476837","<img src=""portrait/BW2.jpg""style=""height:400px;""></img>",2,"html-button-response",109,813997,"0.0-14.0-10.0",51637,"ListB","woman","chinese","SW_C_F_B7",NA,"true",2,NA,NA,NA,NA,NA,NA,NA
"null","正确",NA,"html-keyboard-response",110,815508,"0.0-14.0-11.0-0.0",51637,"ListB","woman","chinese","SW_C_F_B7",NA,NA,NA,"null",NA,NA,NA,NA,NA,NA
"3572.100000023842","<img src=""portrait/BM2.jpg""style=""height:400px;""></img>",5,"html-button-response",111,819081,"0.0-14.0-13.0",51637,"ListB","woman","chinese","SW_C_F_B7",NA,"true",5,NA,NA,NA,NA,NA,NA,NA
"null","正确",NA,"html-keyboard-response",112,820593,"0.0-14.0-14.0-0.0",51637,"ListB","woman","chinese","SW_C_F_B7",NA,NA,NA,"null",NA,NA,NA,NA,NA,NA
"1986.1000000238419","<img src=""portrait/BW1.jpg""style=""height:400px;""></img>",0,"html-button-response",113,822582,"0.0-14.0-16.0",51637,"ListB","woman","chinese","SW_C_F_B7",NA,"true",0,NA,NA,NA,NA,NA,NA,NA
"null","正确",NA,"html-keyboard-response",114,824091,"0.0-14.0-17.0-0.0",51637,"ListB","woman","chinese","SW_C_F_B7",NA,NA,NA,"null",NA,NA,NA,NA,NA,NA
"1200.3999999761581","<img src=""portrait/WW1.jpg""style=""height:400px;""></img>",1,"html-button-response",115,825294,"0.0-14.0-19.0",51637,"ListB","woman","chinese","SW_C_F_B7",NA,"true",1,NA,NA,NA,NA,NA,NA,NA
"null","正确",NA,"html-keyboard-response",116,826808,"0.0-14.0-20.0-0.0",51637,"ListB","woman","chinese","SW_C_F_B7",NA,NA,NA,"null",NA,NA,NA,NA,NA,NA
"2193.7000000476837","<img src=""portrait/WM1.jpg""style=""height:400px;""></img>",6,"html-button-response",117,829005,"0.0-14.0-22.0",51637,"ListB","woman","chinese","SW_C_F_B7",NA,"true",6,NA,NA,NA,NA,NA,NA,NA
"null","正确",NA,"html-keyboard-response",118,830513,"0.0-14.0-23.0-0.0",51637,"ListB","woman","chinese","SW_C_F_B7",NA,NA,NA,"null",NA,NA,NA,NA,NA,NA
"1549.3999999761581","<p>您第一次在8题里答对了 8 题。 请点击继续</p>",0,"html-button-response",119,832065,"0.0-14.0-25.0",51637,"ListB","woman","chinese","SW_C_F_B7",NA,NA,NA,NA,NA,NA,NA,NA,NA,NA
"null","<div style=""font-size:60px;"">+</div>",NA,"html-keyboard-response",120,833582,"0.0-15.0-0.0",51637,"ListB","woman","chinese","SW_C_F_B7",NA,NA,NA,"null",NA,NA,NA,NA,NA,NA
"null","<img src='gifs/BlackGender1b.gif' style='height:400px;''></img>",NA,"html-keyboard-response",121,835596,"0.0-15.0-1.0",51637,"ListB","woman","chinese","SW_C_F_B7",NA,NA,NA,"null",NA,NA,NA,NA,NA,NA
"null","正在提到",NA,"html-keyboard-response",122,838604,"0.0-15.0-2.0",51637,"ListB","woman","chinese","SW_C_F_B7",NA,NA,NA,"null",NA,NA,NA,NA,NA,NA
"10242.900000095367",NA,NA,"survey-text",123,848850,"0.0-15.0-3.0",51637,"ListB","woman","chinese","SW_C_F_B7",NA,NA,NA,NA,"{""Q0"":""弗雷正在提到贝斯""}","<img src='gifs/BlackGender1b.gif' style='height:400px;''></img>","提到","正在提到","chinese",NA
"null","<div style=""font-size:60px;"">+</div>",NA,"html-keyboard-response",124,849356,"0.0-15.0-0.1",51637,"ListB","woman","chinese","SW_C_F_B7",NA,NA,NA,"null",NA,NA,NA,NA,NA,NA
"null","<img src='gifs/BlackGender3b.gif' style='height:400px;''></img>",NA,"html-keyboard-response",125,851360,"0.0-15.0-1.1",51637,"ListB","woman","chinese","SW_C_F_B7",NA,NA,NA,"null",NA,NA,NA,NA,NA,NA
"null","正在聘用",NA,"html-keyboard-response",126,854369,"0.0-15.0-2.1",51637,"ListB","woman","chinese","SW_C_F_B7",NA,NA,NA,"null",NA,NA,NA,NA,NA,NA
"5469.400000095367",NA,NA,"survey-text",127,859842,"0.0-15.0-3.1",51637,"ListB","woman","chinese","SW_C_F_B7",NA,NA,NA,NA,"{""Q0"":""弗雷正在聘用凯特""}","<img src='gifs/BlackGender3b.gif' style='height:400px;''></img>","聘用","正在聘用","chinese",NA
"null","<div style=""font-size:60px;"">+</div>",NA,"html-keyboard-response",128,860347,"0.0-15.0-0.2",51637,"ListB","woman","chinese","SW_C_F_B7",NA,NA,NA,"null",NA,NA,NA,NA,NA,NA
"null","<img src='gifs/ChineseGender2a.gif' style='height:400px;''></img>",NA,"html-keyboard-response",129,862349,"0.0-15.0-1.2",51637,"ListB","woman","chinese","SW_C_F_B7",NA,NA,NA,"null",NA,NA,NA,NA,NA,NA
"null","正在看着",NA,"html-keyboard-response",130,865361,"0.0-15.0-2.2",51637,"ListB","woman","chinese","SW_C_F_B7",NA,NA,NA,"null",NA,NA,NA,NA,NA,NA
"5637.299999952316",NA,NA,"survey-text",131,871002,"0.0-15.0-3.2",51637,"ListB","woman","chinese","SW_C_F_B7",NA,NA,NA,NA,"{""Q0"":""露丝正在看着卢克""}","<img src='gifs/ChineseGender2a.gif' style='height:400px;''></img>","看着","正在看着","chinese",NA
"null","<div style=""font-size:60px;"">+</div>",NA,"html-keyboard-response",132,871507,"0.0-15.0-0.3",51637,"ListB","woman","chinese","SW_C_F_B7",NA,NA,NA,"null",NA,NA,NA,NA,NA,NA
"null","<img src='gifs/FemaleRace3a.gif' style='height:400px;''></img>",NA,"html-keyboard-response",133,873515,"0.0-15.0-1.3",51637,"ListB","woman","chinese","SW_C_F_B7",NA,NA,NA,"null",NA,NA,NA,NA,NA,NA
"null","正在表扬",NA,"html-keyboard-response",134,876523,"0.0-15.0-2.3",51637,"ListB","woman","chinese","SW_C_F_B7",NA,NA,NA,"null",NA,NA,NA,NA,NA,NA
"6161.699999928474",NA,NA,"survey-text",135,882690,"0.0-15.0-3.3",51637,"ListB","woman","chinese","SW_C_F_B7",NA,NA,NA,NA,"{""Q0"":""露丝正在表扬贝斯""}","<img src='gifs/FemaleRace3a.gif' style='height:400px;''></img>","表扬","正在表扬","chinese",NA
"null","<div style=""font-size:60px;"">+</div>",NA,"html-keyboard-response",136,883191,"0.0-15.0-0.4",51637,"ListB","woman","chinese","SW_C_F_B7",NA,NA,NA,"null",NA,NA,NA,NA,NA,NA
"null","<img src='gifs/BlackGender1a.gif' style='height:400px;''></img>",NA,"html-keyboard-response",137,885200,"0.0-15.0-1.4",51637,"ListB","woman","chinese","SW_C_F_B7",NA,NA,NA,"null",NA,NA,NA,NA,NA,NA
"null","正在介绍",NA,"html-keyboard-response",138,888209,"0.0-15.0-2.4",51637,"ListB","woman","chinese","SW_C_F_B7",NA,NA,NA,"null",NA,NA,NA,NA,NA,NA
"11002.5",NA,NA,"survey-text",139,899216,"0.0-15.0-3.4",51637,"ListB","woman","chinese","SW_C_F_B7",NA,NA,NA,NA,"{""Q0"":""弗雷正在表扬贝斯""}","<img src='gifs/BlackGender1a.gif' style='height:400px;''></img>","介绍","正在介绍","chinese",NA
"null","<div style=""font-size:60px;"">+</div>",NA,"html-keyboard-response",140,899722,"0.0-15.0-0.5",51637,"ListB","woman","chinese","SW_C_F_B7",NA,NA,NA,"null",NA,NA,NA,NA,NA,NA
"null","<img src='gifs/MaleRace4b.gif' style='height:400px;''></img>",NA,"html-keyboard-response",141,901730,"0.0-15.0-1.5",51637,"ListB","woman","chinese","SW_C_F_B7",NA,NA,NA,"null",NA,NA,NA,NA,NA,NA
"null","正在答应",NA,"html-keyboard-response",142,904737,"0.0-15.0-2.5",51637,"ListB","woman","chinese","SW_C_F_B7",NA,NA,NA,"null",NA,NA,NA,NA,NA,NA
"5637.900000095367",NA,NA,"survey-text",143,910378,"0.0-15.0-3.5",51637,"ListB","woman","chinese","SW_C_F_B7",NA,NA,NA,NA,"{""Q0"":""戴夫正在答应麦克""}","<img src='gifs/MaleRace4b.gif' style='height:400px;''></img>","答应","正在答应","chinese",NA
"null","<div style=""font-size:60px;"">+</div>",NA,"html-keyboard-response",144,910881,"0.0-15.0-0.6",51637,"ListB","woman","chinese","SW_C_F_B7",NA,NA,NA,"null",NA,NA,NA,NA,NA,NA
"null","<img src='gifs/BlackGender2a.gif' style='height:400px;''></img>",NA,"html-keyboard-response",145,912891,"0.0-15.0-1.6",51637,"ListB","woman","chinese","SW_C_F_B7",NA,NA,NA,"null",NA,NA,NA,NA,NA,NA
"null","正在联系",NA,"html-keyboard-response",146,915899,"0.0-15.0-2.6",51637,"ListB","woman","chinese","SW_C_F_B7",NA,NA,NA,"null",NA,NA,NA,NA,NA,NA
"4856.799999952316",NA,NA,"survey-text",147,920761,"0.0-15.0-3.6",51637,"ListB","woman","chinese","SW_C_F_B7",NA,NA,NA,NA,"{""Q0"":""贝斯正在联系麦克""}","<img src='gifs/BlackGender2a.gif' style='height:400px;''></img>","联系","正在联系","chinese",NA
"null","<div style=""font-size:60px;"">+</div>",NA,"html-keyboard-response",148,921264,"0.0-15.0-0.7",51637,"ListB","woman","chinese","SW_C_F_B7",NA,NA,NA,"null",NA,NA,NA,NA,NA,NA
"null","<img src='gifs/FemaleRace4a.gif' style='height:400px;''></img>",NA,"html-keyboard-response",149,923275,"0.0-15.0-1.7",51637,"ListB","woman","chinese","SW_C_F_B7",NA,NA,NA,"null",NA,NA,NA,NA,NA,NA
"null","正在面向",NA,"html-keyboard-response",150,926283,"0.0-15.0-2.7",51637,"ListB","woman","chinese","SW_C_F_B7",NA,NA,NA,"null",NA,NA,NA,NA,NA,NA
"10730.299999952316",NA,NA,"survey-text",151,937018,"0.0-15.0-3.7",51637,"ListB","woman","chinese","SW_C_F_B7",NA,NA,NA,NA,"{""Q0"":""凯特正在面向露丝""}","<img src='gifs/FemaleRace4a.gif' style='height:400px;''></img>","面向","正在面向","chinese",NA
"null","<div style=""font-size:60px;"">+</div>",NA,"html-keyboard-response",152,937523,"0.0-15.0-0.8",51637,"ListB","woman","chinese","SW_C_F_B7",NA,NA,NA,"null",NA,NA,NA,NA,NA,NA
"null","<img src='gifs/BlackGender4b.gif' style='height:400px;''></img>",NA,"html-keyboard-response",153,939531,"0.0-15.0-1.8",51637,"ListB","woman","chinese","SW_C_F_B7",NA,NA,NA,"null",NA,NA,NA,NA,NA,NA
"null","正在表扬",NA,"html-keyboard-response",154,942538,"0.0-15.0-2.8",51637,"ListB","woman","chinese","SW_C_F_B7",NA,NA,NA,"null",NA,NA,NA,NA,NA,NA
"5828.799999952316",NA,NA,"survey-text",155,948370,"0.0-15.0-3.8",51637,"ListB","woman","chinese","SW_C_F_B7",NA,NA,NA,NA,"{""Q0"":""麦克正在表扬凯特""}","<img src='gifs/BlackGender4b.gif' style='height:400px;''></img>","表扬","正在表扬","chinese",NA
"null","<div style=""font-size:60px;"">+</div>",NA,"html-keyboard-response",156,948875,"0.0-15.0-0.9",51637,"ListB","woman","chinese","SW_C_F_B7",NA,NA,NA,"null",NA,NA,NA,NA,NA,NA
"null","<img src='gifs/ChineseGender3a.gif' style='height:400px;''></img>",NA,"html-keyboard-response",157,950880,"0.0-15.0-1.9",51637,"ListB","woman","chinese","SW_C_F_B7",NA,NA,NA,"null",NA,NA,NA,NA,NA,NA
"null","正在跟随",NA,"html-keyboard-response",158,953890,"0.0-15.0-2.9",51637,"ListB","woman","chinese","SW_C_F_B7",NA,NA,NA,"null",NA,NA,NA,NA,NA,NA
"5138.299999952316",NA,NA,"survey-text",159,959031,"0.0-15.0-3.9",51637,"ListB","woman","chinese","SW_C_F_B7",NA,NA,NA,NA,"{""Q0"":""戴夫正在跟随露丝""}","<img src='gifs/ChineseGender3a.gif' style='height:400px;''></img>","跟随","正在跟随","chinese",NA
"null","<div style=""font-size:60px;"">+</div>",NA,"html-keyboard-response",160,959536,"0.0-15.0-0.10",51637,"ListB","woman","chinese","SW_C_F_B7",NA,NA,NA,"null",NA,NA,NA,NA,NA,NA
"null","<img src='gifs/BlackGender3b.gif' style='height:400px;''></img>",NA,"html-keyboard-response",161,961546,"0.0-15.0-1.10",51637,"ListB","woman","chinese","SW_C_F_B7",NA,NA,NA,"null",NA,NA,NA,NA,NA,NA
"null","正在走向",NA,"html-keyboard-response",162,964554,"0.0-15.0-2.10",51637,"ListB","woman","chinese","SW_C_F_B7",NA,NA,NA,"null",NA,NA,NA,NA,NA,NA
"4926",NA,NA,"survey-text",163,969485,"0.0-15.0-3.10",51637,"ListB","woman","chinese","SW_C_F_B7",NA,NA,NA,NA,"{""Q0"":""凯特正在走向弗雷""}","<img src='gifs/BlackGender3b.gif' style='height:400px;''></img>","走向","正在走向","chinese",NA
"null","<div style=""font-size:60px;"">+</div>",NA,"html-keyboard-response",164,969989,"0.0-15.0-0.11",51637,"ListB","woman","chinese","SW_C_F_B7",NA,NA,NA,"null",NA,NA,NA,NA,NA,NA
"null","<img src='gifs/FemaleRace4b.gif' style='height:400px;''></img>",NA,"html-keyboard-response",165,972000,"0.0-15.0-1.11",51637,"ListB","woman","chinese","SW_C_F_B7",NA,NA,NA,"null",NA,NA,NA,NA,NA,NA
"null","正在表扬",NA,"html-keyboard-response",166,975008,"0.0-15.0-2.11",51637,"ListB","woman","chinese","SW_C_F_B7",NA,NA,NA,"null",NA,NA,NA,NA,NA,NA
"5338.799999952316",NA,NA,"survey-text",167,980351,"0.0-15.0-3.11",51637,"ListB","woman","chinese","SW_C_F_B7",NA,NA,NA,NA,"{""Q0"":""露丝正在表扬凯特""}","<img src='gifs/FemaleRace4b.gif' style='height:400px;''></img>","表扬","正在表扬","chinese",NA
"null","<div style=""font-size:60px;"">+</div>",NA,"html-keyboard-response",168,980857,"0.0-15.0-0.12",51637,"ListB","woman","chinese","SW_C_F_B7",NA,NA,NA,"null",NA,NA,NA,NA,NA,NA
"null","<img src='gifs/BlackGender1b.gif' style='height:400px;''></img>",NA,"html-keyboard-response",169,982863,"0.0-15.0-1.12",51637,"ListB","woman","chinese","SW_C_F_B7",NA,NA,NA,"null",NA,NA,NA,NA,NA,NA
"null","正在跟随",NA,"html-keyboard-response",170,985872,"0.0-15.0-2.12",51637,"ListB","woman","chinese","SW_C_F_B7",NA,NA,NA,"null",NA,NA,NA,NA,NA,NA
"6043.100000023842",NA,NA,"survey-text",171,991919,"0.0-15.0-3.12",51637,"ListB","woman","chinese","SW_C_F_B7",NA,NA,NA,NA,"{""Q0"":""贝斯正在跟随弗雷""}","<img src='gifs/BlackGender1b.gif' style='height:400px;''></img>","跟随","正在跟随","chinese",NA
"null","<div style=""font-size:60px;"">+</div>",NA,"html-keyboard-response",172,992426,"0.0-15.0-0.13",51637,"ListB","woman","chinese","SW_C_F_B7",NA,NA,NA,"null",NA,NA,NA,NA,NA,NA
"null","<img src='gifs/ChineseGender3a.gif' style='height:400px;''></img>",NA,"html-keyboard-response",173,994433,"0.0-15.0-1.13",51637,"ListB","woman","chinese","SW_C_F_B7",NA,NA,NA,"null",NA,NA,NA,NA,NA,NA
"null","正在说服",NA,"html-keyboard-response",174,997441,"0.0-15.0-2.13",51637,"ListB","woman","chinese","SW_C_F_B7",NA,NA,NA,"null",NA,NA,NA,NA,NA,NA
"7938.600000023842",NA,NA,"survey-text",175,1005383,"0.0-15.0-3.13",51637,"ListB","woman","chinese","SW_C_F_B7",NA,NA,NA,NA,"{""Q0"":""露丝正在说服戴夫""}","<img src='gifs/ChineseGender3a.gif' style='height:400px;''></img>","说服","正在说服","chinese",NA
"null","<div style=""font-size:60px;"">+</div>",NA,"html-keyboard-response",176,1005891,"0.0-15.0-0.14",51637,"ListB","woman","chinese","SW_C_F_B7",NA,NA,NA,"null",NA,NA,NA,NA,NA,NA
"null","<img src='gifs/FemaleRace1b.gif' style='height:400px;''></img>",NA,"html-keyboard-response",177,1007898,"0.0-15.0-1.14",51637,"ListB","woman","chinese","SW_C_F_B7",NA,NA,NA,"null",NA,NA,NA,NA,NA,NA
"null","正在聆听",NA,"html-keyboard-response",178,1010906,"0.0-15.0-2.14",51637,"ListB","woman","chinese","SW_C_F_B7",NA,NA,NA,"null",NA,NA,NA,NA,NA,NA
"6397.599999904633",NA,NA,"survey-text",179,1017308,"0.0-15.0-3.14",51637,"ListB","woman","chinese","SW_C_F_B7",NA,NA,NA,NA,"{""Q0"":""霍普正在聆听贝斯""}","<img src='gifs/FemaleRace1b.gif' style='height:400px;''></img>","聆听","正在聆听","chinese",NA
"null","<div style=""font-size:60px;"">+</div>",NA,"html-keyboard-response",180,1017814,"0.0-15.0-0.15",51637,"ListB","woman","chinese","SW_C_F_B7",NA,NA,NA,"null",NA,NA,NA,NA,NA,NA
"null","<img src='gifs/ChineseGender4b.gif' style='height:400px;''></img>",NA,"html-keyboard-response",181,1019824,"0.0-15.0-1.15",51637,"ListB","woman","chinese","SW_C_F_B7",NA,NA,NA,"null",NA,NA,NA,NA,NA,NA
"null","正在说服",NA,"html-keyboard-response",182,1022834,"0.0-15.0-2.15",51637,"ListB","woman","chinese","SW_C_F_B7",NA,NA,NA,"null",NA,NA,NA,NA,NA,NA
"5226.100000023842",NA,NA,"survey-text",183,1028064,"0.0-15.0-3.15",51637,"ListB","woman","chinese","SW_C_F_B7",NA,NA,NA,NA,"{""Q0"":""戴夫正在说服霍普""}","<img src='gifs/ChineseGender4b.gif' style='height:400px;''></img>","说服","正在说服","chinese",NA
"null","<div style=""font-size:60px;"">+</div>",NA,"html-keyboard-response",184,1028568,"0.0-15.0-0.16",51637,"ListB","woman","chinese","SW_C_F_B7",NA,NA,NA,"null",NA,NA,NA,NA,NA,NA
"null","<img src='gifs/MaleRace4a.gif' style='height:400px;''></img>",NA,"html-keyboard-response",185,1030577,"0.0-15.0-1.16",51637,"ListB","woman","chinese","SW_C_F_B7",NA,NA,NA,"null",NA,NA,NA,NA,NA,NA
"null","正在加入",NA,"html-keyboard-response",186,1033584,"0.0-15.0-2.16",51637,"ListB","woman","chinese","SW_C_F_B7",NA,NA,NA,"null",NA,NA,NA,NA,NA,NA
"4422.399999976158",NA,NA,"survey-text",187,1038011,"0.0-15.0-3.16",51637,"ListB","woman","chinese","SW_C_F_B7",NA,NA,NA,NA,"{""Q0"":""戴夫正在加入麦克""}","<img src='gifs/MaleRace4a.gif' style='height:400px;''></img>","加入","正在加入","chinese",NA
"null","<div style=""font-size:60px;"">+</div>",NA,"html-keyboard-response",188,1038521,"0.0-15.0-0.17",51637,"ListB","woman","chinese","SW_C_F_B7",NA,NA,NA,"null",NA,NA,NA,NA,NA,NA
"null","<img src='gifs/MaleRace2b.gif' style='height:400px;''></img>",NA,"html-keyboard-response",189,1040527,"0.0-15.0-1.17",51637,"ListB","woman","chinese","SW_C_F_B7",NA,NA,NA,"null",NA,NA,NA,NA,NA,NA
"null","正在介绍",NA,"html-keyboard-response",190,1043535,"0.0-15.0-2.17",51637,"ListB","woman","chinese","SW_C_F_B7",NA,NA,NA,"null",NA,NA,NA,NA,NA,NA
"4955.799999952316",NA,NA,"survey-text",191,1048494,"0.0-15.0-3.17",51637,"ListB","woman","chinese","SW_C_F_B7",NA,NA,NA,NA,"{""Q0"":""麦克正在介绍卢克""}","<img src='gifs/MaleRace2b.gif' style='height:400px;''></img>","介绍","正在介绍","chinese",NA
"1979.8999999761581","<img src='img/portrait_matrix_listB_chinese.jpg' style='width:900px;height:500px;''></img><p>如果您已经记住了所有的人物和名字，请点击继续。</p><p><strong>请注意：您对先前记忆的面孔将在本实验中被测试5次。</strong></p>",0,"html-button-response",192,1050477,"0.0-16.0-0.0",51637,"ListB","woman","chinese","SW_C_F_B7",NA,NA,NA,NA,NA,NA,NA,NA,NA,NA
"1278","<img src=""portrait/BW2.jpg""style=""height:400px;""></img>",2,"html-button-response",193,1052770,"0.0-16.0-1.0",51637,"ListB","woman","chinese","SW_C_F_B7",NA,"true",2,NA,NA,NA,NA,NA,NA,NA
"null","正确",NA,"html-keyboard-response",194,1054281,"0.0-16.0-2.0-0.0",51637,"ListB","woman","chinese","SW_C_F_B7",NA,NA,NA,"null",NA,NA,NA,NA,NA,NA
"1843","<img src=""portrait/BM1.jpg""style=""height:400px;""></img>",4,"html-button-response",195,1056126,"0.0-16.0-4.0",51637,"ListB","woman","chinese","SW_C_F_B7",NA,"true",4,NA,NA,NA,NA,NA,NA,NA
"null","正确",NA,"html-keyboard-response",196,1057633,"0.0-16.0-5.0-0.0",51637,"ListB","woman","chinese","SW_C_F_B7",NA,NA,NA,"null",NA,NA,NA,NA,NA,NA
"1331.1000000238419","<img src=""portrait/WW1.jpg""style=""height:400px;""></img>",1,"html-button-response",197,1058967,"0.0-16.0-7.0",51637,"ListB","woman","chinese","SW_C_F_B7",NA,"true",1,NA,NA,NA,NA,NA,NA,NA
"null","正确",NA,"html-keyboard-response",198,1060489,"0.0-16.0-8.0-0.0",51637,"ListB","woman","chinese","SW_C_F_B7",NA,NA,NA,"null",NA,NA,NA,NA,NA,NA
"2145","<img src=""portrait/WM1.jpg""style=""height:400px;""></img>",6,"html-button-response",199,1062637,"0.0-16.0-10.0",51637,"ListB","woman","chinese","SW_C_F_B7",NA,"true",6,NA,NA,NA,NA,NA,NA,NA
"null","正确",NA,"html-keyboard-response",200,1064158,"0.0-16.0-11.0-0.0",51637,"ListB","woman","chinese","SW_C_F_B7",NA,NA,NA,"null",NA,NA,NA,NA,NA,NA
"2412","<img src=""portrait/BM2.jpg""style=""height:400px;""></img>",5,"html-button-response",201,1066572,"0.0-16.0-13.0",51637,"ListB","woman","chinese","SW_C_F_B7",NA,"true",5,NA,NA,NA,NA,NA,NA,NA
"null","正确",NA,"html-keyboard-response",202,1068089,"0.0-16.0-14.0-0.0",51637,"ListB","woman","chinese","SW_C_F_B7",NA,NA,NA,"null",NA,NA,NA,NA,NA,NA
"1584.3999999761581","<img src=""portrait/BW1.jpg""style=""height:400px;""></img>",0,"html-button-response",203,1069677,"0.0-16.0-16.0",51637,"ListB","woman","chinese","SW_C_F_B7",NA,"true",0,NA,NA,NA,NA,NA,NA,NA
"null","正确",NA,"html-keyboard-response",204,1071184,"0.0-16.0-17.0-0.0",51637,"ListB","woman","chinese","SW_C_F_B7",NA,NA,NA,"null",NA,NA,NA,NA,NA,NA
"1426.6000000238419","<img src=""portrait/WM2.jpg""style=""height:400px;""></img>",7,"html-button-response",205,1072613,"0.0-16.0-19.0",51637,"ListB","woman","chinese","SW_C_F_B7",NA,"true",7,NA,NA,NA,NA,NA,NA,NA
"null","正确",NA,"html-keyboard-response",206,1074127,"0.0-16.0-20.0-0.0",51637,"ListB","woman","chinese","SW_C_F_B7",NA,NA,NA,"null",NA,NA,NA,NA,NA,NA
"2983.7999999523163","<img src=""portrait/WW2.jpg""style=""height:400px;""></img>",3,"html-button-response",207,1077114,"0.0-16.0-22.0",51637,"ListB","woman","chinese","SW_C_F_B7",NA,"true",3,NA,NA,NA,NA,NA,NA,NA
"null","正确",NA,"html-keyboard-response",208,1078622,"0.0-16.0-23.0-0.0",51637,"ListB","woman","chinese","SW_C_F_B7",NA,NA,NA,"null",NA,NA,NA,NA,NA,NA
"1234.5","<p>您第一次在8题里答对了 8 题。 请点击继续</p>",0,"html-button-response",209,1079860,"0.0-16.0-25.0",51637,"ListB","woman","chinese","SW_C_F_B7",NA,NA,NA,NA,NA,NA,NA,NA,NA,NA
"null","<div style=""font-size:60px;"">+</div>",NA,"html-keyboard-response",210,1081385,"0.0-17.0-0.0",51637,"ListB","woman","chinese","SW_C_F_B7",NA,NA,NA,"null",NA,NA,NA,NA,NA,NA
"null","<img src='gifs/ChineseGender4a.gif' style='height:400px;''></img>",NA,"html-keyboard-response",211,1083392,"0.0-17.0-1.0",51637,"ListB","woman","chinese","SW_C_F_B7",NA,NA,NA,"null",NA,NA,NA,NA,NA,NA
"null","正在接近",NA,"html-keyboard-response",212,1086398,"0.0-17.0-2.0",51637,"ListB","woman","chinese","SW_C_F_B7",NA,NA,NA,"null",NA,NA,NA,NA,NA,NA
"6665.799999952316",NA,NA,"survey-text",213,1093066,"0.0-17.0-3.0",51637,"ListB","woman","chinese","SW_C_F_B7",NA,NA,NA,NA,"{""Q0"":""戴夫正在接近霍普""}","<img src='gifs/ChineseGender4a.gif' style='height:400px;''></img>","接近","正在接近","chinese",NA
"null","<div style=""font-size:60px;"">+</div>",NA,"html-keyboard-response",214,1093576,"0.0-17.0-0.1",51637,"ListB","woman","chinese","SW_C_F_B7",NA,NA,NA,"null",NA,NA,NA,NA,NA,NA
"null","<img src='gifs/ChineseGender2b.gif' style='height:400px;''></img>",NA,"html-keyboard-response",215,1095585,"0.0-17.0-1.1",51637,"ListB","woman","chinese","SW_C_F_B7",NA,NA,NA,"null",NA,NA,NA,NA,NA,NA
"null","正在答应",NA,"html-keyboard-response",216,1098590,"0.0-17.0-2.1",51637,"ListB","woman","chinese","SW_C_F_B7",NA,NA,NA,"null",NA,NA,NA,NA,NA,NA
"5193.900000095367",NA,NA,"survey-text",217,1103788,"0.0-17.0-3.1",51637,"ListB","woman","chinese","SW_C_F_B7",NA,NA,NA,NA,"{""Q0"":""卢克正在答应露丝""}","<img src='gifs/ChineseGender2b.gif' style='height:400px;''></img>","答应","正在答应","chinese",NA
"null","<div style=""font-size:60px;"">+</div>",NA,"html-keyboard-response",218,1104297,"0.0-17.0-0.2",51637,"ListB","woman","chinese","SW_C_F_B7",NA,NA,NA,"null",NA,NA,NA,NA,NA,NA
"null","<img src='gifs/MaleRace3a.gif' style='height:400px;''></img>",NA,"html-keyboard-response",219,1106302,"0.0-17.0-1.2",51637,"ListB","woman","chinese","SW_C_F_B7",NA,NA,NA,"null",NA,NA,NA,NA,NA,NA
"null","正在答应",NA,"html-keyboard-response",220,1109310,"0.0-17.0-2.2",51637,"ListB","woman","chinese","SW_C_F_B7",NA,NA,NA,"null",NA,NA,NA,NA,NA,NA
"4488.399999976158",NA,NA,"survey-text",221,1113803,"0.0-17.0-3.2",51637,"ListB","woman","chinese","SW_C_F_B7",NA,NA,NA,NA,"{""Q0"":""戴夫正在答应弗雷""}","<img src='gifs/MaleRace3a.gif' style='height:400px;''></img>","答应","正在答应","chinese",NA
"null","<div style=""font-size:60px;"">+</div>",NA,"html-keyboard-response",222,1114309,"0.0-17.0-0.3",51637,"ListB","woman","chinese","SW_C_F_B7",NA,NA,NA,"null",NA,NA,NA,NA,NA,NA
"null","<img src='gifs/MaleRace3b.gif' style='height:400px;''></img>",NA,"html-keyboard-response",223,1116318,"0.0-17.0-1.3",51637,"ListB","woman","chinese","SW_C_F_B7",NA,NA,NA,"null",NA,NA,NA,NA,NA,NA
"null","正在联系",NA,"html-keyboard-response",224,1119320,"0.0-17.0-2.3",51637,"ListB","woman","chinese","SW_C_F_B7",NA,NA,NA,"null",NA,NA,NA,NA,NA,NA
"4793.299999952316",NA,NA,"survey-text",225,1124116,"0.0-17.0-3.3",51637,"ListB","woman","chinese","SW_C_F_B7",NA,NA,NA,NA,"{""Q0"":""弗雷正在联系戴夫""}","<img src='gifs/MaleRace3b.gif' style='height:400px;''></img>","联系","正在联系","chinese",NA
"null","<div style=""font-size:60px;"">+</div>",NA,"html-keyboard-response",226,1124623,"0.0-17.0-0.4",51637,"ListB","woman","chinese","SW_C_F_B7",NA,NA,NA,"null",NA,NA,NA,NA,NA,NA
"null","<img src='gifs/BlackGender2a.gif' style='height:400px;''></img>",NA,"html-keyboard-response",227,1126632,"0.0-17.0-1.4",51637,"ListB","woman","chinese","SW_C_F_B7",NA,NA,NA,"null",NA,NA,NA,NA,NA,NA
"null","正在联系",NA,"html-keyboard-response",228,1129640,"0.0-17.0-2.4",51637,"ListB","woman","chinese","SW_C_F_B7",NA,NA,NA,"null",NA,NA,NA,NA,NA,NA
"5438.799999952316",NA,NA,"survey-text",229,1135083,"0.0-17.0-3.4",51637,"ListB","woman","chinese","SW_C_F_B7",NA,NA,NA,NA,"{""Q0"":""麦克正在联系贝斯""}","<img src='gifs/BlackGender2a.gif' style='height:400px;''></img>","联系","正在联系","chinese",NA
"null","<div style=""font-size:60px;"">+</div>",NA,"html-keyboard-response",230,1135592,"0.0-17.0-0.5",51637,"ListB","woman","chinese","SW_C_F_B7",NA,NA,NA,"null",NA,NA,NA,NA,NA,NA
"null","<img src='gifs/FemaleRace4b.gif' style='height:400px;''></img>",NA,"html-keyboard-response",231,1137597,"0.0-17.0-1.5",51637,"ListB","woman","chinese","SW_C_F_B7",NA,NA,NA,"null",NA,NA,NA,NA,NA,NA
"null","正在提到",NA,"html-keyboard-response",232,1140606,"0.0-17.0-2.5",51637,"ListB","woman","chinese","SW_C_F_B7",NA,NA,NA,"null",NA,NA,NA,NA,NA,NA
"5354.099999904633",NA,NA,"survey-text",233,1145964,"0.0-17.0-3.5",51637,"ListB","woman","chinese","SW_C_F_B7",NA,NA,NA,NA,"{""Q0"":""凯特正在提到露丝""}","<img src='gifs/FemaleRace4b.gif' style='height:400px;''></img>","提到","正在提到","chinese",NA
"null","<div style=""font-size:60px;"">+</div>",NA,"html-keyboard-response",234,1146470,"0.0-17.0-0.6",51637,"ListB","woman","chinese","SW_C_F_B7",NA,NA,NA,"null",NA,NA,NA,NA,NA,NA
"null","<img src='gifs/MaleRace3b.gif' style='height:400px;''></img>",NA,"html-keyboard-response",235,1148475,"0.0-17.0-1.6",51637,"ListB","woman","chinese","SW_C_F_B7",NA,NA,NA,"null",NA,NA,NA,NA,NA,NA
"null","正在看着",NA,"html-keyboard-response",236,1151477,"0.0-17.0-2.6",51637,"ListB","woman","chinese","SW_C_F_B7",NA,NA,NA,"null",NA,NA,NA,NA,NA,NA
"7093.599999904633",NA,NA,"survey-text",237,1158575,"0.0-17.0-3.6",51637,"ListB","woman","chinese","SW_C_F_B7",NA,NA,NA,NA,"{""Q0"":""戴夫正在看着弗雷""}","<img src='gifs/MaleRace3b.gif' style='height:400px;''></img>","看着","正在看着","chinese",NA
"null","<div style=""font-size:60px;"">+</div>",NA,"html-keyboard-response",238,1159080,"0.0-17.0-0.7",51637,"ListB","woman","chinese","SW_C_F_B7",NA,NA,NA,"null",NA,NA,NA,NA,NA,NA
"null","<img src='gifs/FemaleRace4a.gif' style='height:400px;''></img>",NA,"html-keyboard-response",239,1161096,"0.0-17.0-1.7",51637,"ListB","woman","chinese","SW_C_F_B7",NA,NA,NA,"null",NA,NA,NA,NA,NA,NA
"null","正在表扬",NA,"html-keyboard-response",240,1164103,"0.0-17.0-2.7",51637,"ListB","woman","chinese","SW_C_F_B7",NA,NA,NA,"null",NA,NA,NA,NA,NA,NA
"5526.899999976158",NA,NA,"survey-text",241,1169632,"0.0-17.0-3.7",51637,"ListB","woman","chinese","SW_C_F_B7",NA,NA,NA,NA,"{""Q0"":""露丝正在表扬凯特""}","<img src='gifs/FemaleRace4a.gif' style='height:400px;''></img>","表扬","正在表扬","chinese",NA
"null","<div style=""font-size:60px;"">+</div>",NA,"html-keyboard-response",242,1170141,"0.0-17.0-0.8",51637,"ListB","woman","chinese","SW_C_F_B7",NA,NA,NA,"null",NA,NA,NA,NA,NA,NA
"null","<img src='gifs/MaleRace1b.gif' style='height:400px;''></img>",NA,"html-keyboard-response",243,1172152,"0.0-17.0-1.8",51637,"ListB","woman","chinese","SW_C_F_B7",NA,NA,NA,"null",NA,NA,NA,NA,NA,NA
"null","正在触摸",NA,"html-keyboard-response",244,1175153,"0.0-17.0-2.8",51637,"ListB","woman","chinese","SW_C_F_B7",NA,NA,NA,"null",NA,NA,NA,NA,NA,NA
"5086.100000023842",NA,NA,"survey-text",245,1180243,"0.0-17.0-3.8",51637,"ListB","woman","chinese","SW_C_F_B7",NA,NA,NA,NA,"{""Q0"":""弗雷正在触摸卢克""}","<img src='gifs/MaleRace1b.gif' style='height:400px;''></img>","触摸","正在触摸","chinese",NA
"null","<div style=""font-size:60px;"">+</div>",NA,"html-keyboard-response",246,1180749,"0.0-17.0-0.9",51637,"ListB","woman","chinese","SW_C_F_B7",NA,NA,NA,"null",NA,NA,NA,NA,NA,NA
"null","<img src='gifs/FemaleRace1a.gif' style='height:400px;''></img>",NA,"html-keyboard-response",247,1182760,"0.0-17.0-1.9",51637,"ListB","woman","chinese","SW_C_F_B7",NA,NA,NA,"null",NA,NA,NA,NA,NA,NA
"null","正在聘用",NA,"html-keyboard-response",248,1185768,"0.0-17.0-2.9",51637,"ListB","woman","chinese","SW_C_F_B7",NA,NA,NA,"null",NA,NA,NA,NA,NA,NA
"13101.399999976158",NA,NA,"survey-text",249,1198873,"0.0-17.0-3.9",51637,"ListB","woman","chinese","SW_C_F_B7",NA,NA,NA,NA,"{""Q0"":""霍普正在聘用贝斯""}","<img src='gifs/FemaleRace1a.gif' style='height:400px;''></img>","聘用","正在聘用","chinese",NA
"null","<div style=""font-size:60px;"">+</div>",NA,"html-keyboard-response",250,1199377,"0.0-17.0-0.10",51637,"ListB","woman","chinese","SW_C_F_B7",NA,NA,NA,"null",NA,NA,NA,NA,NA,NA
"null","<img src='gifs/MaleRace3a.gif' style='height:400px;''></img>",NA,"html-keyboard-response",251,1201383,"0.0-17.0-1.10",51637,"ListB","woman","chinese","SW_C_F_B7",NA,NA,NA,"null",NA,NA,NA,NA,NA,NA
"null","正在提到",NA,"html-keyboard-response",252,1204385,"0.0-17.0-2.10",51637,"ListB","woman","chinese","SW_C_F_B7",NA,NA,NA,"null",NA,NA,NA,NA,NA,NA
"8684.600000023842",NA,NA,"survey-text",253,1213072,"0.0-17.0-3.10",51637,"ListB","woman","chinese","SW_C_F_B7",NA,NA,NA,NA,"{""Q0"":""弗雷正在提到戴夫""}","<img src='gifs/MaleRace3a.gif' style='height:400px;''></img>","提到","正在提到","chinese",NA
"null","<div style=""font-size:60px;"">+</div>",NA,"html-keyboard-response",254,1213577,"0.0-17.0-0.11",51637,"ListB","woman","chinese","SW_C_F_B7",NA,NA,NA,"null",NA,NA,NA,NA,NA,NA
"null","<img src='gifs/FemaleRace2b.gif' style='height:400px;''></img>",NA,"html-keyboard-response",255,1215583,"0.0-17.0-1.11",51637,"ListB","woman","chinese","SW_C_F_B7",NA,NA,NA,"null",NA,NA,NA,NA,NA,NA
"null","正在说服",NA,"html-keyboard-response",256,1218590,"0.0-17.0-2.11",51637,"ListB","woman","chinese","SW_C_F_B7",NA,NA,NA,"null",NA,NA,NA,NA,NA,NA
"5083.200000047684",NA,NA,"survey-text",257,1223678,"0.0-17.0-3.11",51637,"ListB","woman","chinese","SW_C_F_B7",NA,NA,NA,NA,"{""Q0"":""霍普正在说服凯特""}","<img src='gifs/FemaleRace2b.gif' style='height:400px;''></img>","说服","正在说服","chinese",NA
"null","<div style=""font-size:60px;"">+</div>",NA,"html-keyboard-response",258,1224183,"0.0-17.0-0.12",51637,"ListB","woman","chinese","SW_C_F_B7",NA,NA,NA,"null",NA,NA,NA,NA,NA,NA
"null","<img src='gifs/MaleRace1a.gif' style='height:400px;''></img>",NA,"html-keyboard-response",259,1226190,"0.0-17.0-1.12",51637,"ListB","woman","chinese","SW_C_F_B7",NA,NA,NA,"null",NA,NA,NA,NA,NA,NA
"null","正在加入",NA,"html-keyboard-response",260,1229193,"0.0-17.0-2.12",51637,"ListB","woman","chinese","SW_C_F_B7",NA,NA,NA,"null",NA,NA,NA,NA,NA,NA
"5721.099999904633",NA,NA,"survey-text",261,1234916,"0.0-17.0-3.12",51637,"ListB","woman","chinese","SW_C_F_B7",NA,NA,NA,NA,"{""Q0"":""卢克正在加入弗雷""}","<img src='gifs/MaleRace1a.gif' style='height:400px;''></img>","加入","正在加入","chinese",NA
"null","<div style=""font-size:60px;"">+</div>",NA,"html-keyboard-response",262,1235422,"0.0-17.0-0.13",51637,"ListB","woman","chinese","SW_C_F_B7",NA,NA,NA,"null",NA,NA,NA,NA,NA,NA
"null","<img src='gifs/MaleRace1a.gif' style='height:400px;''></img>",NA,"html-keyboard-response",263,1237431,"0.0-17.0-1.13",51637,"ListB","woman","chinese","SW_C_F_B7",NA,NA,NA,"null",NA,NA,NA,NA,NA,NA
"null","正在加入",NA,"html-keyboard-response",264,1240439,"0.0-17.0-2.13",51637,"ListB","woman","chinese","SW_C_F_B7",NA,NA,NA,"null",NA,NA,NA,NA,NA,NA
"6387.399999976158",NA,NA,"survey-text",265,1246829,"0.0-17.0-3.13",51637,"ListB","woman","chinese","SW_C_F_B7",NA,NA,NA,NA,"{""Q0"":""弗雷正在加入卢克""}","<img src='gifs/MaleRace1a.gif' style='height:400px;''></img>","加入","正在加入","chinese",NA
"null","<div style=""font-size:60px;"">+</div>",NA,"html-keyboard-response",266,1247331,"0.0-17.0-0.14",51637,"ListB","woman","chinese","SW_C_F_B7",NA,NA,NA,"null",NA,NA,NA,NA,NA,NA
"null","<img src='gifs/ChineseGender4a.gif' style='height:400px;''></img>",NA,"html-keyboard-response",267,1249340,"0.0-17.0-1.14",51637,"ListB","woman","chinese","SW_C_F_B7",NA,NA,NA,"null",NA,NA,NA,NA,NA,NA
"null","正在聘用",NA,"html-keyboard-response",268,1252350,"0.0-17.0-2.14",51637,"ListB","woman","chinese","SW_C_F_B7",NA,NA,NA,"null",NA,NA,NA,NA,NA,NA
"7166.299999952316",NA,NA,"survey-text",269,1259520,"0.0-17.0-3.14",51637,"ListB","woman","chinese","SW_C_F_B7",NA,NA,NA,NA,"{""Q0"":""霍普正在聘用戴夫""}","<img src='gifs/ChineseGender4a.gif' style='height:400px;''></img>","聘用","正在聘用","chinese",NA
"null","<div style=""font-size:60px;"">+</div>",NA,"html-keyboard-response",270,1260028,"0.0-17.0-0.15",51637,"ListB","woman","chinese","SW_C_F_B7",NA,NA,NA,"null",NA,NA,NA,NA,NA,NA
"null","<img src='gifs/ChineseGender3b.gif' style='height:400px;''></img>",NA,"html-keyboard-response",271,1262039,"0.0-17.0-1.15",51637,"ListB","woman","chinese","SW_C_F_B7",NA,NA,NA,"null",NA,NA,NA,NA,NA,NA
"null","正在陪伴",NA,"html-keyboard-response",272,1265047,"0.0-17.0-2.15",51637,"ListB","woman","chinese","SW_C_F_B7",NA,NA,NA,"null",NA,NA,NA,NA,NA,NA
"4347.300000071526",NA,NA,"survey-text",273,1269398,"0.0-17.0-3.15",51637,"ListB","woman","chinese","SW_C_F_B7",NA,NA,NA,NA,"{""Q0"":""戴夫正在陪伴露丝""}","<img src='gifs/ChineseGender3b.gif' style='height:400px;''></img>","陪伴","正在陪伴","chinese",NA
"null","<div style=""font-size:60px;"">+</div>",NA,"html-keyboard-response",274,1269911,"0.0-17.0-0.16",51637,"ListB","woman","chinese","SW_C_F_B7",NA,NA,NA,"null",NA,NA,NA,NA,NA,NA
"null","<img src='gifs/BlackGender4a.gif' style='height:400px;''></img>",NA,"html-keyboard-response",275,1271915,"0.0-17.0-1.16",51637,"ListB","woman","chinese","SW_C_F_B7",NA,NA,NA,"null",NA,NA,NA,NA,NA,NA
"null","正在接近",NA,"html-keyboard-response",276,1274919,"0.0-17.0-2.16",51637,"ListB","woman","chinese","SW_C_F_B7",NA,NA,NA,"null",NA,NA,NA,NA,NA,NA
"6345.100000023842",NA,NA,"survey-text",277,1281268,"0.0-17.0-3.16",51637,"ListB","woman","chinese","SW_C_F_B7",NA,NA,NA,NA,"{""Q0"":""麦克正在接近凯特""}","<img src='gifs/BlackGender4a.gif' style='height:400px;''></img>","接近","正在接近","chinese",NA
"null","<div style=""font-size:60px;"">+</div>",NA,"html-keyboard-response",278,1281772,"0.0-17.0-0.17",51637,"ListB","woman","chinese","SW_C_F_B7",NA,NA,NA,"null",NA,NA,NA,NA,NA,NA
"null","<img src='gifs/ChineseGender1b.gif' style='height:400px;''></img>",NA,"html-keyboard-response",279,1283783,"0.0-17.0-1.17",51637,"ListB","woman","chinese","SW_C_F_B7",NA,NA,NA,"null",NA,NA,NA,NA,NA,NA
"null","正在陪伴",NA,"html-keyboard-response",280,1286791,"0.0-17.0-2.17",51637,"ListB","woman","chinese","SW_C_F_B7",NA,NA,NA,"null",NA,NA,NA,NA,NA,NA
"7309",NA,NA,"survey-text",281,1294104,"0.0-17.0-3.17",51637,"ListB","woman","chinese","SW_C_F_B7",NA,NA,NA,NA,"{""Q0"":""卢克正在陪伴霍普""}","<img src='gifs/ChineseGender1b.gif' style='height:400px;''></img>","陪伴","正在陪伴","chinese",NA
"1653","<p>Thank you for completing that task.</p><p>The final part of this session is a short questionnaire.</p><p>Press Continue.</p>",0,"html-button-response",282,1295760,"0.0-18.0",51637,"ListB","woman","chinese","SW_C_F_B7",NA,NA,NA,NA,NA,NA,NA,NA,NA,NA
"33631.59999990463",NA,NA,"survey-text",283,1330399,"0.0-19.0",51637,"ListB","woman","chinese","SW_C_F_B7",NA,NA,NA,NA,"{""Q0"":""29"",""Q1"":""Chinese"",""Q2"":""Chinese"",""Q3"":""United Kingdom"",""Q4"":""Chinese"",""Q5"":""Chinese"",""Q6"":""Female""}",NA,NA,NA,NA,"demographics"
"4652.299999952316","<p>Have you lived in the UK for the last 5 years or more?</p>",0,"html-button-response",284,1335055,"0.0-20.0",51637,"ListB","woman","chinese","SW_C_F_B7",NA,NA,NA,NA,NA,NA,NA,NA,NA,"fiveyears"
"3109.2000000476837",NA,NA,"external-html",285,1339251,"0.0-21.0",51637,"ListB","woman","chinese","SW_C_F_B7","debrief.html",NA,NA,NA,NA,NA,NA,NA,NA,NA
"11652.5",NA,NA,"survey-text",286,1350908,"0.0-22.0",51637,"ListB","woman","chinese","SW_C_F_B7",NA,NA,NA,NA,"{""ptpt_id"":""SW_C_F_B7""}",NA,NA,NA,NA,"worker_id"
