"rt","stimulus","button_pressed","trial_type","trial_index","time_elapsed","internal_node_id","subject","list","ppt_gender","ppt_language","url","first_guess","correct","key_press","responses","image","verb","phrase","condition","test_part"
"2089","Welcome to the experiment. Press Continue to begin.",0,"html-button-response",0,2094,"0.0-0.0",52558,"ListB","woman","english",NA,NA,NA,NA,NA,NA,NA,NA,NA,NA
"240717",NA,NA,"external-html",1,243866,"0.0-1.0",52558,"ListB","woman","english","consent.html",NA,NA,NA,NA,NA,NA,NA,NA,NA
"34325","<p>On the next page, you will see portraits of 8 people and their names.</p><p>Your first task is to take a few minutes to memorise the names of these people.</p><p>You will have to recall their names during the rest of the experiment, so it is</p><p>essential that you try to memorise these people and their names as best as you can.</p><p><strong>You will then be tested on your memory of these names and portraits.</strong></p><p>The experiment will start after you have completed this memory test.</p><p>Ready?</p>",0,"html-button-response",2,278192,"0.0-2.0",52558,"ListB","woman","english",NA,NA,NA,NA,NA,NA,NA,NA,NA,NA
"37796","<img src='img/portrait_matrix_listB.jpg' style='width:900px;height:500px;''></img><p>If you have memorised all the portraits and names and are ready to start, press Continue.</p><p><strong>Please note: Your memory of these faces will be tested 5 times during this experiment.</strong></p>",0,"html-button-response",3,316989,"0.0-3.0-0.0",52558,"ListB","woman","english",NA,NA,NA,NA,NA,NA,NA,NA,NA,NA
"3543","<img src=""portrait/WM1.jpg""style=""height:400px;""></img>",7,"html-button-response",4,321535,"0.0-3.0-1.0",52558,"ListB","woman","english",NA,TRUE,6,NA,NA,NA,NA,NA,NA,NA
"3367","<img src=""portrait/WM1.jpg""style=""height:400px;""></img>",6,"html-button-response",5,325907,"0.0-3.0-3.0-0.0",52558,"ListB","woman","english",NA,FALSE,6,NA,NA,NA,NA,NA,NA,NA
"null","CORRECT",NA,"html-keyboard-response",6,327413,"0.0-3.0-3.0-1.0-0.0",52558,"ListB","woman","english",NA,NA,NA,"null",NA,NA,NA,NA,NA,NA
"4473","<img src=""portrait/BW2.jpg""style=""height:400px;""></img>",2,"html-button-response",7,331889,"0.0-3.0-4.0",52558,"ListB","woman","english",NA,TRUE,2,NA,NA,NA,NA,NA,NA,NA
"null","CORRECT",NA,"html-keyboard-response",8,333394,"0.0-3.0-5.0-0.0",52558,"ListB","woman","english",NA,NA,NA,"null",NA,NA,NA,NA,NA,NA
"1706","<img src=""portrait/WW2.jpg""style=""height:400px;""></img>",3,"html-button-response",9,335103,"0.0-3.0-7.0",52558,"ListB","woman","english",NA,TRUE,3,NA,NA,NA,NA,NA,NA,NA
"null","CORRECT",NA,"html-keyboard-response",10,336605,"0.0-3.0-8.0-0.0",52558,"ListB","woman","english",NA,NA,NA,"null",NA,NA,NA,NA,NA,NA
"3160","<img src=""portrait/WW1.jpg""style=""height:400px;""></img>",1,"html-button-response",11,339768,"0.0-3.0-10.0",52558,"ListB","woman","english",NA,TRUE,1,NA,NA,NA,NA,NA,NA,NA
"null","CORRECT",NA,"html-keyboard-response",12,341272,"0.0-3.0-11.0-0.0",52558,"ListB","woman","english",NA,NA,NA,"null",NA,NA,NA,NA,NA,NA
"6876","<img src=""portrait/BM1.jpg""style=""height:400px;""></img>",4,"html-button-response",13,348150,"0.0-3.0-13.0",52558,"ListB","woman","english",NA,TRUE,4,NA,NA,NA,NA,NA,NA,NA
"null","CORRECT",NA,"html-keyboard-response",14,349653,"0.0-3.0-14.0-0.0",52558,"ListB","woman","english",NA,NA,NA,"null",NA,NA,NA,NA,NA,NA
"2396.000000000060","<img src=""portrait/WM2.jpg""style=""height:400px;""></img>",7,"html-button-response",15,352052,"0.0-3.0-16.0",52558,"ListB","woman","english",NA,TRUE,7,NA,NA,NA,NA,NA,NA,NA
"null","CORRECT",NA,"html-keyboard-response",16,353554,"0.0-3.0-17.0-0.0",52558,"ListB","woman","english",NA,NA,NA,"null",NA,NA,NA,NA,NA,NA
"2331","<img src=""portrait/BW1.jpg""style=""height:400px;""></img>",0,"html-button-response",17,355887,"0.0-3.0-19.0",52558,"ListB","woman","english",NA,TRUE,0,NA,NA,NA,NA,NA,NA,NA
"null","CORRECT",NA,"html-keyboard-response",18,357390,"0.0-3.0-20.0-0.0",52558,"ListB","woman","english",NA,NA,NA,"null",NA,NA,NA,NA,NA,NA
"1683.000000000060","<img src=""portrait/BM2.jpg""style=""height:400px;""></img>",5,"html-button-response",19,359076,"0.0-3.0-22.0",52558,"ListB","woman","english",NA,TRUE,5,NA,NA,NA,NA,NA,NA,NA
"null","CORRECT",NA,"html-keyboard-response",20,360579,"0.0-3.0-23.0-0.0",52558,"ListB","woman","english",NA,NA,NA,"null",NA,NA,NA,NA,NA,NA
"1831","<p>You got 7 out of 8 right first time. Press Continue.</p>",0,"html-button-response",21,362412,"0.0-3.0-25.0",52558,"ListB","woman","english",NA,NA,NA,NA,NA,NA,NA,NA,NA,NA
"4066","As you did not score 100%, the memory game will repeat. Press Continue.",0,"html-button-response",22,367480,"0.0-3.0-26.0-0.0",52558,"ListB","woman","english",NA,NA,NA,NA,NA,NA,NA,NA,NA,NA
"6289.000000000060","<img src='img/portrait_matrix_listB.jpg' style='width:900px;height:500px;''></img><p>If you have memorised all the portraits and names and are ready to start, press Continue.</p><p><strong>Please note: Your memory of these faces will be tested 5 times during this experiment.</strong></p>",0,"html-button-response",23,374772,"0.0-3.1-0.1",52558,"ListB","woman","english",NA,NA,NA,NA,NA,NA,NA,NA,NA,NA
"1410","<img src=""portrait/WM1.jpg""style=""height:400px;""></img>",6,"html-button-response",24,377185,"0.0-3.1-1.1",52558,"ListB","woman","english",NA,TRUE,6,NA,NA,NA,NA,NA,NA,NA
"null","CORRECT",NA,"html-keyboard-response",25,378690,"0.0-3.1-2.1-0.1",52558,"ListB","woman","english",NA,NA,NA,"null",NA,NA,NA,NA,NA,NA
"4725","<img src=""portrait/BW2.jpg""style=""height:400px;""></img>",2,"html-button-response",26,383417,"0.0-3.1-4.1",52558,"ListB","woman","english",NA,TRUE,2,NA,NA,NA,NA,NA,NA,NA
"null","CORRECT",NA,"html-keyboard-response",27,384922,"0.0-3.1-5.1-0.1",52558,"ListB","woman","english",NA,NA,NA,"null",NA,NA,NA,NA,NA,NA
"1187","<img src=""portrait/WW2.jpg""style=""height:400px;""></img>",3,"html-button-response",28,386112,"0.0-3.1-7.1",52558,"ListB","woman","english",NA,TRUE,3,NA,NA,NA,NA,NA,NA,NA
"null","CORRECT",NA,"html-keyboard-response",29,387617,"0.0-3.1-8.1-0.1",52558,"ListB","woman","english",NA,NA,NA,"null",NA,NA,NA,NA,NA,NA
"1535","<img src=""portrait/WW1.jpg""style=""height:400px;""></img>",1,"html-button-response",30,389154,"0.0-3.1-10.1",52558,"ListB","woman","english",NA,TRUE,1,NA,NA,NA,NA,NA,NA,NA
"null","CORRECT",NA,"html-keyboard-response",31,390656,"0.0-3.1-11.1-0.1",52558,"ListB","woman","english",NA,NA,NA,"null",NA,NA,NA,NA,NA,NA
"3521.999999999940","<img src=""portrait/BM1.jpg""style=""height:400px;""></img>",4,"html-button-response",32,394180,"0.0-3.1-13.1",52558,"ListB","woman","english",NA,TRUE,4,NA,NA,NA,NA,NA,NA,NA
"null","CORRECT",NA,"html-keyboard-response",33,395684,"0.0-3.1-14.1-0.1",52558,"ListB","woman","english",NA,NA,NA,"null",NA,NA,NA,NA,NA,NA
"1196","<img src=""portrait/WM2.jpg""style=""height:400px;""></img>",7,"html-button-response",34,396882,"0.0-3.1-16.1",52558,"ListB","woman","english",NA,TRUE,7,NA,NA,NA,NA,NA,NA,NA
"null","CORRECT",NA,"html-keyboard-response",35,398384,"0.0-3.1-17.1-0.1",52558,"ListB","woman","english",NA,NA,NA,"null",NA,NA,NA,NA,NA,NA
"1682","<img src=""portrait/BW1.jpg""style=""height:400px;""></img>",0,"html-button-response",36,400067,"0.0-3.1-19.1",52558,"ListB","woman","english",NA,TRUE,0,NA,NA,NA,NA,NA,NA,NA
"null","CORRECT",NA,"html-keyboard-response",37,401572,"0.0-3.1-20.1-0.1",52558,"ListB","woman","english",NA,NA,NA,"null",NA,NA,NA,NA,NA,NA
"1269.999999999940","<img src=""portrait/BM2.jpg""style=""height:400px;""></img>",5,"html-button-response",38,402844,"0.0-3.1-22.1",52558,"ListB","woman","english",NA,TRUE,5,NA,NA,NA,NA,NA,NA,NA
"null","CORRECT",NA,"html-keyboard-response",39,404347,"0.0-3.1-23.1-0.1",52558,"ListB","woman","english",NA,NA,NA,"null",NA,NA,NA,NA,NA,NA
"1061","<p>You got 8 out of 8 right first time. Press Continue.</p>",0,"html-button-response",40,405410,"0.0-3.1-25.1",52558,"ListB","woman","english",NA,NA,NA,NA,NA,NA,NA,NA,NA,NA
"37480","<p>In this experiment, you will view photographs of the people from the memory game.</p><p>By using the <strong>exact</strong> phrase given <i>after</i> the photograph appears and recalling the correct names of the people in the photographs, form a sentence describing an interaction. You do not need to capitalise names.</p><p>Type your answer in the space provided. Please complete every sentence before moving onto the next trial.</p><p>You will only have a few seconds to memorise each given photograph and phrase before you can respond, so try your best to focus.</p><p>An example is given below. Press 'Continue' when you are ready.</p><img src='img/speaking_example.jpg' style='width:800px;height:460px;''></img>",0,"html-button-response",41,443894,"0.0-4.0",52558,"ListB","woman","english",NA,NA,NA,NA,NA,NA,NA,NA,NA,NA
"2428","<p>Before the experiment starts, you will watch two example trials. Press 'Continue'.</p>",0,"html-button-response",42,447324,"0.0-5.0",52558,"ListB","woman","english",NA,NA,NA,NA,NA,NA,NA,NA,NA,NA
"null","<img src='img/meet.gif' style='height:400px;''></img>",NA,"html-keyboard-response",43,450325,"0.0-6.0",52558,"ListB","woman","english",NA,NA,NA,"null",NA,NA,NA,NA,NA,NA
"null","<p>is meeting</p>",NA,"html-keyboard-response",44,452326,"0.0-7.0",52558,"ListB","woman","english",NA,NA,NA,"null",NA,NA,NA,NA,NA,NA
"1615.000000000060","<p><b>Answer:</b> jane is meeting ruth</p>",0,"html-button-response",45,453942,"0.0-8.0",52558,"ListB","woman","english",NA,NA,NA,NA,NA,NA,NA,NA,NA,NA
"null","<img src='img/spy.gif' style='height:400px;''></img>",NA,"html-keyboard-response",46,456944,"0.0-9.0",52558,"ListB","woman","english",NA,NA,NA,"null",NA,NA,NA,NA,NA,NA
"null","<p>is being spied on by</p>",NA,"html-keyboard-response",47,458948,"0.0-10.0",52558,"ListB","woman","english",NA,NA,NA,"null",NA,NA,NA,NA,NA,NA
"3460","<p><b>Answer:</b> fred is being spied on by mike</p>",0,"html-button-response",48,462409,"0.0-11.0",52558,"ListB","woman","english",NA,NA,NA,NA,NA,NA,NA,NA,NA,NA
"33281","<p>Ready to start the experiment?</p><br><p><strong>Remember to describe the picture using a full sentence,</strong></p><p><strong>that combines the names of the people with the <i>exact</i> phrase given.</strong></p><p><strong>To receive full payment you must do this correctly.</strong></p><p><strong> You do not need to capitalise names or use punctuation.</strong></p><br><p>Press 'Continue' to begin.</p>",0,"html-button-response",49,496693,"0.0-12.0",52558,"ListB","woman","english",NA,NA,NA,NA,NA,NA,NA,NA,NA,NA
"null","<div style=""font-size:60px;"">+</div>",NA,"html-keyboard-response",50,498196,"0.0-13.0-0.0",52558,"ListB","woman","english",NA,NA,NA,"null",NA,NA,NA,NA,NA,NA
"null","<img src='gifs/ChineseGender3b.gif' style='height:400px;''></img>",NA,"html-keyboard-response",51,500197,"0.0-13.0-1.0",52558,"ListB","woman","english",NA,NA,NA,"null",NA,NA,NA,NA,NA,NA
"null","is following",NA,"html-keyboard-response",52,503198,"0.0-13.0-2.0",52558,"ListB","woman","english",NA,NA,NA,"null",NA,NA,NA,NA,NA,NA
"12891",NA,NA,"survey-text",53,516103,"0.0-13.0-3.0",52558,"ListB","woman","english",NA,NA,NA,NA,"{""Q0"":""ruth is following dave""}","<img src='gifs/ChineseGender3b.gif' style='height:400px;''></img>","following","is following","english",NA
"null","<div style=""font-size:60px;"">+</div>",NA,"html-keyboard-response",54,516608,"0.0-13.0-0.1",52558,"ListB","woman","english",NA,NA,NA,"null",NA,NA,NA,NA,NA,NA
"null","<img src='gifs/ChineseGender3b.gif' style='height:400px;''></img>",NA,"html-keyboard-response",55,518611,"0.0-13.0-1.1",52558,"ListB","woman","english",NA,NA,NA,"null",NA,NA,NA,NA,NA,NA
"null","is walking towards",NA,"html-keyboard-response",56,521613,"0.0-13.0-2.1",52558,"ListB","woman","english",NA,NA,NA,"null",NA,NA,NA,NA,NA,NA
"11146",NA,NA,"survey-text",57,532769,"0.0-13.0-3.1",52558,"ListB","woman","english",NA,NA,NA,NA,"{""Q0"":""dave is walking towards ruth""}","<img src='gifs/ChineseGender3b.gif' style='height:400px;''></img>","walking towards","is walking towards","english",NA
"null","<div style=""font-size:60px;"">+</div>",NA,"html-keyboard-response",58,533272,"0.0-13.0-0.2",52558,"ListB","woman","english",NA,NA,NA,"null",NA,NA,NA,NA,NA,NA
"null","<img src='gifs/FemaleRace2b.gif' style='height:400px;''></img>",NA,"html-keyboard-response",59,535275,"0.0-13.0-1.2",52558,"ListB","woman","english",NA,NA,NA,"null",NA,NA,NA,NA,NA,NA
"null","is facing",NA,"html-keyboard-response",60,538278,"0.0-13.0-2.2",52558,"ListB","woman","english",NA,NA,NA,"null",NA,NA,NA,NA,NA,NA
"10372",NA,NA,"survey-text",61,548659,"0.0-13.0-3.2",52558,"ListB","woman","english",NA,NA,NA,NA,"{""Q0"":""jane is facing kate""}","<img src='gifs/FemaleRace2b.gif' style='height:400px;''></img>","facing","is facing","english",NA
"null","<div style=""font-size:60px;"">+</div>",NA,"html-keyboard-response",62,549161,"0.0-13.0-0.3",52558,"ListB","woman","english",NA,NA,NA,"null",NA,NA,NA,NA,NA,NA
"null","<img src='gifs/MaleRace4b.gif' style='height:400px;''></img>",NA,"html-keyboard-response",63,551163,"0.0-13.0-1.3",52558,"ListB","woman","english",NA,NA,NA,"null",NA,NA,NA,NA,NA,NA
"null","is approaching",NA,"html-keyboard-response",64,554168,"0.0-13.0-2.3",52558,"ListB","woman","english",NA,NA,NA,"null",NA,NA,NA,NA,NA,NA
"10693",NA,NA,"survey-text",65,564869,"0.0-13.0-3.3",52558,"ListB","woman","english",NA,NA,NA,NA,"{""Q0"":""mike is approaching dave""}","<img src='gifs/MaleRace4b.gif' style='height:400px;''></img>","approaching","is approaching","english",NA
"null","<div style=""font-size:60px;"">+</div>",NA,"html-keyboard-response",66,565371,"0.0-13.0-0.4",52558,"ListB","woman","english",NA,NA,NA,"null",NA,NA,NA,NA,NA,NA
"null","<img src='gifs/MaleRace3a.gif' style='height:400px;''></img>",NA,"html-keyboard-response",67,567374,"0.0-13.0-1.4",52558,"ListB","woman","english",NA,NA,NA,"null",NA,NA,NA,NA,NA,NA
"null","is promising",NA,"html-keyboard-response",68,570375,"0.0-13.0-2.4",52558,"ListB","woman","english",NA,NA,NA,"null",NA,NA,NA,NA,NA,NA
"11200",NA,NA,"survey-text",69,581581,"0.0-13.0-3.4",52558,"ListB","woman","english",NA,NA,NA,NA,"{""Q0"":""dave is promising fred""}","<img src='gifs/MaleRace3a.gif' style='height:400px;''></img>","promising","is promising","english",NA
"null","<div style=""font-size:60px;"">+</div>",NA,"html-keyboard-response",70,582083,"0.0-13.0-0.5",52558,"ListB","woman","english",NA,NA,NA,"null",NA,NA,NA,NA,NA,NA
"null","<img src='gifs/ChineseGender1b.gif' style='height:400px;''></img>",NA,"html-keyboard-response",71,584085,"0.0-13.0-1.5",52558,"ListB","woman","english",NA,NA,NA,"null",NA,NA,NA,NA,NA,NA
"null","is facing",NA,"html-keyboard-response",72,587087,"0.0-13.0-2.5",52558,"ListB","woman","english",NA,NA,NA,"null",NA,NA,NA,NA,NA,NA
"8790.999999999880",NA,NA,"survey-text",73,595884,"0.0-13.0-3.5",52558,"ListB","woman","english",NA,NA,NA,NA,"{""Q0"":""luke is facing jane""}","<img src='gifs/ChineseGender1b.gif' style='height:400px;''></img>","facing","is facing","english",NA
"null","<div style=""font-size:60px;"">+</div>",NA,"html-keyboard-response",74,596386,"0.0-13.0-0.6",52558,"ListB","woman","english",NA,NA,NA,"null",NA,NA,NA,NA,NA,NA
"null","<img src='gifs/BlackGender4b.gif' style='height:400px;''></img>",NA,"html-keyboard-response",75,598388,"0.0-13.0-1.6",52558,"ListB","woman","english",NA,NA,NA,"null",NA,NA,NA,NA,NA,NA
"null","is walking towards",NA,"html-keyboard-response",76,601393,"0.0-13.0-2.6",52558,"ListB","woman","english",NA,NA,NA,"null",NA,NA,NA,NA,NA,NA
"12014.0000000001",NA,NA,"survey-text",77,613415,"0.0-13.0-3.6",52558,"ListB","woman","english",NA,NA,NA,NA,"{""Q0"":""mike is walking towards kate""}","<img src='gifs/BlackGender4b.gif' style='height:400px;''></img>","walking towards","is walking towards","english",NA
"null","<div style=""font-size:60px;"">+</div>",NA,"html-keyboard-response",78,613916,"0.0-13.0-0.7",52558,"ListB","woman","english",NA,NA,NA,"null",NA,NA,NA,NA,NA,NA
"null","<img src='gifs/ChineseGender3a.gif' style='height:400px;''></img>",NA,"html-keyboard-response",79,615919,"0.0-13.0-1.7",52558,"ListB","woman","english",NA,NA,NA,"null",NA,NA,NA,NA,NA,NA
"null","is approaching",NA,"html-keyboard-response",80,618922,"0.0-13.0-2.7",52558,"ListB","woman","english",NA,NA,NA,"null",NA,NA,NA,NA,NA,NA
"10052",NA,NA,"survey-text",81,628982,"0.0-13.0-3.7",52558,"ListB","woman","english",NA,NA,NA,NA,"{""Q0"":""ruth is approaching dave""}","<img src='gifs/ChineseGender3a.gif' style='height:400px;''></img>","approaching","is approaching","english",NA
"null","<div style=""font-size:60px;"">+</div>",NA,"html-keyboard-response",82,629486,"0.0-13.0-0.8",52558,"ListB","woman","english",NA,NA,NA,"null",NA,NA,NA,NA,NA,NA
"null","<img src='gifs/MaleRace2a.gif' style='height:400px;''></img>",NA,"html-keyboard-response",83,631489,"0.0-13.0-1.8",52558,"ListB","woman","english",NA,NA,NA,"null",NA,NA,NA,NA,NA,NA
"null","is facing",NA,"html-keyboard-response",84,634491,"0.0-13.0-2.8",52558,"ListB","woman","english",NA,NA,NA,"null",NA,NA,NA,NA,NA,NA
"7646",NA,NA,"survey-text",85,642145,"0.0-13.0-3.8",52558,"ListB","woman","english",NA,NA,NA,NA,"{""Q0"":""mike is facing luke""}","<img src='gifs/MaleRace2a.gif' style='height:400px;''></img>","facing","is facing","english",NA
"null","<div style=""font-size:60px;"">+</div>",NA,"html-keyboard-response",86,642646,"0.0-13.0-0.9",52558,"ListB","woman","english",NA,NA,NA,"null",NA,NA,NA,NA,NA,NA
"null","<img src='gifs/FemaleRace3a.gif' style='height:400px;''></img>",NA,"html-keyboard-response",87,644647,"0.0-13.0-1.9",52558,"ListB","woman","english",NA,NA,NA,"null",NA,NA,NA,NA,NA,NA
"null","is looking at",NA,"html-keyboard-response",88,647648,"0.0-13.0-2.9",52558,"ListB","woman","english",NA,NA,NA,"null",NA,NA,NA,NA,NA,NA
"8231",NA,NA,"survey-text",89,655884,"0.0-13.0-3.9",52558,"ListB","woman","english",NA,NA,NA,NA,"{""Q0"":""ruth is looking at beth""}","<img src='gifs/FemaleRace3a.gif' style='height:400px;''></img>","looking at","is looking at","english",NA
"null","<div style=""font-size:60px;"">+</div>",NA,"html-keyboard-response",90,656385,"0.0-13.0-0.10",52558,"ListB","woman","english",NA,NA,NA,"null",NA,NA,NA,NA,NA,NA
"null","<img src='gifs/MaleRace4b.gif' style='height:400px;''></img>",NA,"html-keyboard-response",91,658388,"0.0-13.0-1.10",52558,"ListB","woman","english",NA,NA,NA,"null",NA,NA,NA,NA,NA,NA
"null","is facing",NA,"html-keyboard-response",92,661390,"0.0-13.0-2.10",52558,"ListB","woman","english",NA,NA,NA,"null",NA,NA,NA,NA,NA,NA
"5975",NA,NA,"survey-text",93,667373,"0.0-13.0-3.10",52558,"ListB","woman","english",NA,NA,NA,NA,"{""Q0"":""dave is facing mike""}","<img src='gifs/MaleRace4b.gif' style='height:400px;''></img>","facing","is facing","english",NA
"null","<div style=""font-size:60px;"">+</div>",NA,"html-keyboard-response",94,667876,"0.0-13.0-0.11",52558,"ListB","woman","english",NA,NA,NA,"null",NA,NA,NA,NA,NA,NA
"null","<img src='gifs/BlackGender4b.gif' style='height:400px;''></img>",NA,"html-keyboard-response",95,669879,"0.0-13.0-1.11",52558,"ListB","woman","english",NA,NA,NA,"null",NA,NA,NA,NA,NA,NA
"null","is praising",NA,"html-keyboard-response",96,672881,"0.0-13.0-2.11",52558,"ListB","woman","english",NA,NA,NA,"null",NA,NA,NA,NA,NA,NA
"15783",NA,NA,"survey-text",97,688672,"0.0-13.0-3.11",52558,"ListB","woman","english",NA,NA,NA,NA,"{""Q0"":""kate is praising mike""}","<img src='gifs/BlackGender4b.gif' style='height:400px;''></img>","praising","is praising","english",NA
"null","<div style=""font-size:60px;"">+</div>",NA,"html-keyboard-response",98,689175,"0.0-13.0-0.12",52558,"ListB","woman","english",NA,NA,NA,"null",NA,NA,NA,NA,NA,NA
"null","<img src='gifs/BlackGender3a.gif' style='height:400px;''></img>",NA,"html-keyboard-response",99,691180,"0.0-13.0-1.12",52558,"ListB","woman","english",NA,NA,NA,"null",NA,NA,NA,NA,NA,NA
"null","is joining",NA,"html-keyboard-response",100,694182,"0.0-13.0-2.12",52558,"ListB","woman","english",NA,NA,NA,"null",NA,NA,NA,NA,NA,NA
"12769",NA,NA,"survey-text",101,706958,"0.0-13.0-3.12",52558,"ListB","woman","english",NA,NA,NA,NA,"{""Q0"":""kate is joining fred""}","<img src='gifs/BlackGender3a.gif' style='height:400px;''></img>","join","is joining","english",NA
"null","<div style=""font-size:60px;"">+</div>",NA,"html-keyboard-response",102,707461,"0.0-13.0-0.13",52558,"ListB","woman","english",NA,NA,NA,"null",NA,NA,NA,NA,NA,NA
"null","<img src='gifs/BlackGender3b.gif' style='height:400px;''></img>",NA,"html-keyboard-response",103,709464,"0.0-13.0-1.13",52558,"ListB","woman","english",NA,NA,NA,"null",NA,NA,NA,NA,NA,NA
"null","is mentioning",NA,"html-keyboard-response",104,712466,"0.0-13.0-2.13",52558,"ListB","woman","english",NA,NA,NA,"null",NA,NA,NA,NA,NA,NA
"9901",NA,NA,"survey-text",105,722375,"0.0-13.0-3.13",52558,"ListB","woman","english",NA,NA,NA,NA,"{""Q0"":""kate is mentioning fred""}","<img src='gifs/BlackGender3b.gif' style='height:400px;''></img>","mention","is mentioning","english",NA
"null","<div style=""font-size:60px;"">+</div>",NA,"html-keyboard-response",106,722877,"0.0-13.0-0.14",52558,"ListB","woman","english",NA,NA,NA,"null",NA,NA,NA,NA,NA,NA
"null","<img src='gifs/ChineseGender1b.gif' style='height:400px;''></img>",NA,"html-keyboard-response",107,724880,"0.0-13.0-1.14",52558,"ListB","woman","english",NA,NA,NA,"null",NA,NA,NA,NA,NA,NA
"null","is convincing",NA,"html-keyboard-response",108,727882,"0.0-13.0-2.14",52558,"ListB","woman","english",NA,NA,NA,"null",NA,NA,NA,NA,NA,NA
"11075",NA,NA,"survey-text",109,738965,"0.0-13.0-3.14",52558,"ListB","woman","english",NA,NA,NA,NA,"{""Q0"":""luke is convincing jane""}","<img src='gifs/ChineseGender1b.gif' style='height:400px;''></img>","convincing","is convincing","english",NA
"null","<div style=""font-size:60px;"">+</div>",NA,"html-keyboard-response",110,739467,"0.0-13.0-0.15",52558,"ListB","woman","english",NA,NA,NA,"null",NA,NA,NA,NA,NA,NA
"null","<img src='gifs/MaleRace3b.gif' style='height:400px;''></img>",NA,"html-keyboard-response",111,741470,"0.0-13.0-1.15",52558,"ListB","woman","english",NA,NA,NA,"null",NA,NA,NA,NA,NA,NA
"null","is looking at",NA,"html-keyboard-response",112,744472,"0.0-13.0-2.15",52558,"ListB","woman","english",NA,NA,NA,"null",NA,NA,NA,NA,NA,NA
"10611",NA,NA,"survey-text",113,755090,"0.0-13.0-3.15",52558,"ListB","woman","english",NA,NA,NA,NA,"{""Q0"":""fred is looking at dave""}","<img src='gifs/MaleRace3b.gif' style='height:400px;''></img>","looking at","is looking at","english",NA
"null","<div style=""font-size:60px;"">+</div>",NA,"html-keyboard-response",114,755593,"0.0-13.0-0.16",52558,"ListB","woman","english",NA,NA,NA,"null",NA,NA,NA,NA,NA,NA
"null","<img src='gifs/MaleRace3a.gif' style='height:400px;''></img>",NA,"html-keyboard-response",115,757595,"0.0-13.0-1.16",52558,"ListB","woman","english",NA,NA,NA,"null",NA,NA,NA,NA,NA,NA
"null","is promising",NA,"html-keyboard-response",116,760596,"0.0-13.0-2.16",52558,"ListB","woman","english",NA,NA,NA,"null",NA,NA,NA,NA,NA,NA
"7429",NA,NA,"survey-text",117,768031,"0.0-13.0-3.16",52558,"ListB","woman","english",NA,NA,NA,NA,"{""Q0"":""fred is promising dave""}","<img src='gifs/MaleRace3a.gif' style='height:400px;''></img>","promising","is promising","english",NA
"null","<div style=""font-size:60px;"">+</div>",NA,"html-keyboard-response",118,768533,"0.0-13.0-0.17",52558,"ListB","woman","english",NA,NA,NA,"null",NA,NA,NA,NA,NA,NA
"null","<img src='gifs/MaleRace1b.gif' style='height:400px;''></img>",NA,"html-keyboard-response",119,770535,"0.0-13.0-1.17",52558,"ListB","woman","english",NA,NA,NA,"null",NA,NA,NA,NA,NA,NA
"null","is contacting",NA,"html-keyboard-response",120,773537,"0.0-13.0-2.17",52558,"ListB","woman","english",NA,NA,NA,"null",NA,NA,NA,NA,NA,NA
"12098",NA,NA,"survey-text",121,785641,"0.0-13.0-3.17",52558,"ListB","woman","english",NA,NA,NA,NA,"{""Q0"":""fred is contacting luke""}","<img src='gifs/MaleRace1b.gif' style='height:400px;''></img>","contacting","is contacting","english",NA
"12511","<img src='img/portrait_matrix_listB.jpg' style='width:900px;height:500px;''></img><p>If you have memorised all the portraits and names and are ready to start, press Continue.</p><p><strong>Please note: Your memory of these faces will be tested 5 times during this experiment.</strong></p>",0,"html-button-response",122,798152,"0.0-14.0-0.0",52558,"ListB","woman","english",NA,NA,NA,NA,NA,NA,NA,NA,NA,NA
"2605.000000000120","<img src=""portrait/BM2.jpg""style=""height:400px;""></img>",5,"html-button-response",123,801759,"0.0-14.0-1.0",52558,"ListB","woman","english",NA,TRUE,5,NA,NA,NA,NA,NA,NA,NA
"null","CORRECT",NA,"html-keyboard-response",124,803263,"0.0-14.0-2.0-0.0",52558,"ListB","woman","english",NA,NA,NA,"null",NA,NA,NA,NA,NA,NA
"1383.999999999880","<img src=""portrait/WW2.jpg""style=""height:400px;""></img>",3,"html-button-response",125,804648,"0.0-14.0-4.0",52558,"ListB","woman","english",NA,TRUE,3,NA,NA,NA,NA,NA,NA,NA
"null","CORRECT",NA,"html-keyboard-response",126,806149,"0.0-14.0-5.0-0.0",52558,"ListB","woman","english",NA,NA,NA,"null",NA,NA,NA,NA,NA,NA
"1808","<img src=""portrait/BW1.jpg""style=""height:400px;""></img>",0,"html-button-response",127,807958,"0.0-14.0-7.0",52558,"ListB","woman","english",NA,TRUE,0,NA,NA,NA,NA,NA,NA,NA
"null","CORRECT",NA,"html-keyboard-response",128,809462,"0.0-14.0-8.0-0.0",52558,"ListB","woman","english",NA,NA,NA,"null",NA,NA,NA,NA,NA,NA
"1930","<img src=""portrait/WW1.jpg""style=""height:400px;""></img>",1,"html-button-response",129,811393,"0.0-14.0-10.0",52558,"ListB","woman","english",NA,TRUE,1,NA,NA,NA,NA,NA,NA,NA
"null","CORRECT",NA,"html-keyboard-response",130,812895,"0.0-14.0-11.0-0.0",52558,"ListB","woman","english",NA,NA,NA,"null",NA,NA,NA,NA,NA,NA
"1952","<img src=""portrait/WM1.jpg""style=""height:400px;""></img>",6,"html-button-response",131,814848,"0.0-14.0-13.0",52558,"ListB","woman","english",NA,TRUE,6,NA,NA,NA,NA,NA,NA,NA
"null","CORRECT",NA,"html-keyboard-response",132,816355,"0.0-14.0-14.0-0.0",52558,"ListB","woman","english",NA,NA,NA,"null",NA,NA,NA,NA,NA,NA
"2173","<img src=""portrait/BW2.jpg""style=""height:400px;""></img>",2,"html-button-response",133,818531,"0.0-14.0-16.0",52558,"ListB","woman","english",NA,TRUE,2,NA,NA,NA,NA,NA,NA,NA
"null","CORRECT",NA,"html-keyboard-response",134,820033,"0.0-14.0-17.0-0.0",52558,"ListB","woman","english",NA,NA,NA,"null",NA,NA,NA,NA,NA,NA
"1299","<img src=""portrait/WM2.jpg""style=""height:400px;""></img>",7,"html-button-response",135,821335,"0.0-14.0-19.0",52558,"ListB","woman","english",NA,TRUE,7,NA,NA,NA,NA,NA,NA,NA
"null","CORRECT",NA,"html-keyboard-response",136,822838,"0.0-14.0-20.0-0.0",52558,"ListB","woman","english",NA,NA,NA,"null",NA,NA,NA,NA,NA,NA
"1656","<img src=""portrait/BM1.jpg""style=""height:400px;""></img>",4,"html-button-response",137,824497,"0.0-14.0-22.0",52558,"ListB","woman","english",NA,TRUE,4,NA,NA,NA,NA,NA,NA,NA
"null","CORRECT",NA,"html-keyboard-response",138,825999,"0.0-14.0-23.0-0.0",52558,"ListB","woman","english",NA,NA,NA,"null",NA,NA,NA,NA,NA,NA
"1066.000000000120","<p>You got 8 out of 8 right first time. Press Continue.</p>",0,"html-button-response",139,827067,"0.0-14.0-25.0",52558,"ListB","woman","english",NA,NA,NA,NA,NA,NA,NA,NA,NA,NA
"null","<div style=""font-size:60px;"">+</div>",NA,"html-keyboard-response",140,828571,"0.0-15.0-0.0",52558,"ListB","woman","english",NA,NA,NA,"null",NA,NA,NA,NA,NA,NA
"null","<img src='gifs/FemaleRace3b.gif' style='height:400px;''></img>",NA,"html-keyboard-response",141,830573,"0.0-15.0-1.0",52558,"ListB","woman","english",NA,NA,NA,"null",NA,NA,NA,NA,NA,NA
"null","is listening to",NA,"html-keyboard-response",142,833575,"0.0-15.0-2.0",52558,"ListB","woman","english",NA,NA,NA,"null",NA,NA,NA,NA,NA,NA
"10645",NA,NA,"survey-text",143,844227,"0.0-15.0-3.0",52558,"ListB","woman","english",NA,NA,NA,NA,"{""Q0"":""ruth is listening to beth""}","<img src='gifs/FemaleRace3b.gif' style='height:400px;''></img>","listening to","is listening to","english",NA
"null","<div style=""font-size:60px;"">+</div>",NA,"html-keyboard-response",144,844730,"0.0-15.0-0.1",52558,"ListB","woman","english",NA,NA,NA,"null",NA,NA,NA,NA,NA,NA
"null","<img src='gifs/ChineseGender1a.gif' style='height:400px;''></img>",NA,"html-keyboard-response",145,846732,"0.0-15.0-1.1",52558,"ListB","woman","english",NA,NA,NA,"null",NA,NA,NA,NA,NA,NA
"null","is introducing",NA,"html-keyboard-response",146,849735,"0.0-15.0-2.1",52558,"ListB","woman","english",NA,NA,NA,"null",NA,NA,NA,NA,NA,NA
"11949.0000000001",NA,NA,"survey-text",147,861691,"0.0-15.0-3.1",52558,"ListB","woman","english",NA,NA,NA,NA,"{""Q0"":""luke is introducing jane""}","<img src='gifs/ChineseGender1a.gif' style='height:400px;''></img>","introducing","is introducing","english",NA
"null","<div style=""font-size:60px;"">+</div>",NA,"html-keyboard-response",148,862193,"0.0-15.0-0.2",52558,"ListB","woman","english",NA,NA,NA,"null",NA,NA,NA,NA,NA,NA
"null","<img src='gifs/ChineseGender2a.gif' style='height:400px;''></img>",NA,"html-keyboard-response",149,864196,"0.0-15.0-1.2",52558,"ListB","woman","english",NA,NA,NA,"null",NA,NA,NA,NA,NA,NA
"null","is contacting",NA,"html-keyboard-response",150,867199,"0.0-15.0-2.2",52558,"ListB","woman","english",NA,NA,NA,"null",NA,NA,NA,NA,NA,NA
"7620",NA,NA,"survey-text",151,874823,"0.0-15.0-3.2",52558,"ListB","woman","english",NA,NA,NA,NA,"{""Q0"":""luke is contacting ruth""}","<img src='gifs/ChineseGender2a.gif' style='height:400px;''></img>","contacting","is contacting","english",NA
"null","<div style=""font-size:60px;"">+</div>",NA,"html-keyboard-response",152,875324,"0.0-15.0-0.3",52558,"ListB","woman","english",NA,NA,NA,"null",NA,NA,NA,NA,NA,NA
"null","<img src='gifs/FemaleRace4b.gif' style='height:400px;''></img>",NA,"html-keyboard-response",153,877327,"0.0-15.0-1.3",52558,"ListB","woman","english",NA,NA,NA,"null",NA,NA,NA,NA,NA,NA
"null","is introducing",NA,"html-keyboard-response",154,880330,"0.0-15.0-2.3",52558,"ListB","woman","english",NA,NA,NA,"null",NA,NA,NA,NA,NA,NA
"8943",NA,NA,"survey-text",155,889289,"0.0-15.0-3.3",52558,"ListB","woman","english",NA,NA,NA,NA,"{""Q0"":""ruth is introducing kate""}","<img src='gifs/FemaleRace4b.gif' style='height:400px;''></img>","introducing","is introducing","english",NA
"null","<div style=""font-size:60px;"">+</div>",NA,"html-keyboard-response",156,889793,"0.0-15.0-0.4",52558,"ListB","woman","english",NA,NA,NA,"null",NA,NA,NA,NA,NA,NA
"null","<img src='gifs/FemaleRace4b.gif' style='height:400px;''></img>",NA,"html-keyboard-response",157,891796,"0.0-15.0-1.4",52558,"ListB","woman","english",NA,NA,NA,"null",NA,NA,NA,NA,NA,NA
"null","is mentioning",NA,"html-keyboard-response",158,894799,"0.0-15.0-2.4",52558,"ListB","woman","english",NA,NA,NA,"null",NA,NA,NA,NA,NA,NA
"8796.999999999880",NA,NA,"survey-text",159,903607,"0.0-15.0-3.4",52558,"ListB","woman","english",NA,NA,NA,NA,"{""Q0"":""kate is mentioning ruth""}","<img src='gifs/FemaleRace4b.gif' style='height:400px;''></img>","mention","is mentioning","english",NA
"null","<div style=""font-size:60px;"">+</div>",NA,"html-keyboard-response",160,904111,"0.0-15.0-0.5",52558,"ListB","woman","english",NA,NA,NA,"null",NA,NA,NA,NA,NA,NA
"null","<img src='gifs/BlackGender2a.gif' style='height:400px;''></img>",NA,"html-keyboard-response",161,906114,"0.0-15.0-1.5",52558,"ListB","woman","english",NA,NA,NA,"null",NA,NA,NA,NA,NA,NA
"null","is following",NA,"html-keyboard-response",162,909121,"0.0-15.0-2.5",52558,"ListB","woman","english",NA,NA,NA,"null",NA,NA,NA,NA,NA,NA
"6939",NA,NA,"survey-text",163,916067,"0.0-15.0-3.5",52558,"ListB","woman","english",NA,NA,NA,NA,"{""Q0"":""beth is following mike""}","<img src='gifs/BlackGender2a.gif' style='height:400px;''></img>","following","is following","english",NA
"null","<div style=""font-size:60px;"">+</div>",NA,"html-keyboard-response",164,916569,"0.0-15.0-0.6",52558,"ListB","woman","english",NA,NA,NA,"null",NA,NA,NA,NA,NA,NA
"null","<img src='gifs/BlackGender2a.gif' style='height:400px;''></img>",NA,"html-keyboard-response",165,918573,"0.0-15.0-1.6",52558,"ListB","woman","english",NA,NA,NA,"null",NA,NA,NA,NA,NA,NA
"null","is contacting",NA,"html-keyboard-response",166,921575,"0.0-15.0-2.6",52558,"ListB","woman","english",NA,NA,NA,"null",NA,NA,NA,NA,NA,NA
"5185",NA,NA,"survey-text",167,926772,"0.0-15.0-3.6",52558,"ListB","woman","english",NA,NA,NA,NA,"{""Q0"":""mike is contacting beth""}","<img src='gifs/BlackGender2a.gif' style='height:400px;''></img>","contacting","is contacting","english",NA
"null","<div style=""font-size:60px;"">+</div>",NA,"html-keyboard-response",168,927274,"0.0-15.0-0.7",52558,"ListB","woman","english",NA,NA,NA,"null",NA,NA,NA,NA,NA,NA
"null","<img src='gifs/MaleRace1a.gif' style='height:400px;''></img>",NA,"html-keyboard-response",169,929277,"0.0-15.0-1.7",52558,"ListB","woman","english",NA,NA,NA,"null",NA,NA,NA,NA,NA,NA
"null","is following",NA,"html-keyboard-response",170,932283,"0.0-15.0-2.7",52558,"ListB","woman","english",NA,NA,NA,"null",NA,NA,NA,NA,NA,NA
"6688",NA,NA,"survey-text",171,938979,"0.0-15.0-3.7",52558,"ListB","woman","english",NA,NA,NA,NA,"{""Q0"":""luke is following fred""}","<img src='gifs/MaleRace1a.gif' style='height:400px;''></img>","following","is following","english",NA
"null","<div style=""font-size:60px;"">+</div>",NA,"html-keyboard-response",172,939481,"0.0-15.0-0.8",52558,"ListB","woman","english",NA,NA,NA,"null",NA,NA,NA,NA,NA,NA
"null","<img src='gifs/MaleRace4a.gif' style='height:400px;''></img>",NA,"html-keyboard-response",173,941485,"0.0-15.0-1.8",52558,"ListB","woman","english",NA,NA,NA,"null",NA,NA,NA,NA,NA,NA
"null","is touching",NA,"html-keyboard-response",174,944493,"0.0-15.0-2.8",52558,"ListB","woman","english",NA,NA,NA,"null",NA,NA,NA,NA,NA,NA
"7270.999999999880",NA,NA,"survey-text",175,951771,"0.0-15.0-3.8",52558,"ListB","woman","english",NA,NA,NA,NA,"{""Q0"":""dave is touching mike""}","<img src='gifs/MaleRace4a.gif' style='height:400px;''></img>","touching","is touching","english",NA
"null","<div style=""font-size:60px;"">+</div>",NA,"html-keyboard-response",176,952273,"0.0-15.0-0.9",52558,"ListB","woman","english",NA,NA,NA,"null",NA,NA,NA,NA,NA,NA
"null","<img src='gifs/FemaleRace3a.gif' style='height:400px;''></img>",NA,"html-keyboard-response",177,954276,"0.0-15.0-1.9",52558,"ListB","woman","english",NA,NA,NA,"null",NA,NA,NA,NA,NA,NA
"null","is convincing",NA,"html-keyboard-response",178,957278,"0.0-15.0-2.9",52558,"ListB","woman","english",NA,NA,NA,"null",NA,NA,NA,NA,NA,NA
"5518.000000000120",NA,NA,"survey-text",179,962808,"0.0-15.0-3.9",52558,"ListB","woman","english",NA,NA,NA,NA,"{""Q0"":""ruth is convincing beth""}","<img src='gifs/FemaleRace3a.gif' style='height:400px;''></img>","convincing","is convincing","english",NA
"null","<div style=""font-size:60px;"">+</div>",NA,"html-keyboard-response",180,963310,"0.0-15.0-0.10",52558,"ListB","woman","english",NA,NA,NA,"null",NA,NA,NA,NA,NA,NA
"null","<img src='gifs/FemaleRace2b.gif' style='height:400px;''></img>",NA,"html-keyboard-response",181,965313,"0.0-15.0-1.10",52558,"ListB","woman","english",NA,NA,NA,"null",NA,NA,NA,NA,NA,NA
"null","is touching",NA,"html-keyboard-response",182,968315,"0.0-15.0-2.10",52558,"ListB","woman","english",NA,NA,NA,"null",NA,NA,NA,NA,NA,NA
"10763",NA,NA,"survey-text",183,979085,"0.0-15.0-3.10",52558,"ListB","woman","english",NA,NA,NA,NA,"{""Q0"":""kate is touching jane""}","<img src='gifs/FemaleRace2b.gif' style='height:400px;''></img>","touching","is touching","english",NA
"null","<div style=""font-size:60px;"">+</div>",NA,"html-keyboard-response",184,979588,"0.0-15.0-0.11",52558,"ListB","woman","english",NA,NA,NA,"null",NA,NA,NA,NA,NA,NA
"null","<img src='gifs/BlackGender1a.gif' style='height:400px;''></img>",NA,"html-keyboard-response",185,981592,"0.0-15.0-1.11",52558,"ListB","woman","english",NA,NA,NA,"null",NA,NA,NA,NA,NA,NA
"null","is praising",NA,"html-keyboard-response",186,984597,"0.0-15.0-2.11",52558,"ListB","woman","english",NA,NA,NA,"null",NA,NA,NA,NA,NA,NA
"9683.999999999880",NA,NA,"survey-text",187,994289,"0.0-15.0-3.11",52558,"ListB","woman","english",NA,NA,NA,NA,"{""Q0"":""beth is praising fred""}","<img src='gifs/BlackGender1a.gif' style='height:400px;''></img>","praising","is praising","english",NA
"null","<div style=""font-size:60px;"">+</div>",NA,"html-keyboard-response",188,994791,"0.0-15.0-0.12",52558,"ListB","woman","english",NA,NA,NA,"null",NA,NA,NA,NA,NA,NA
"null","<img src='gifs/FemaleRace1b.gif' style='height:400px;''></img>",NA,"html-keyboard-response",189,996794,"0.0-15.0-1.12",52558,"ListB","woman","english",NA,NA,NA,"null",NA,NA,NA,NA,NA,NA
"null","is contacting",NA,"html-keyboard-response",190,999800,"0.0-15.0-2.12",52558,"ListB","woman","english",NA,NA,NA,"null",NA,NA,NA,NA,NA,NA
"7873.000000000120",NA,NA,"survey-text",191,1007682,"0.0-15.0-3.12",52558,"ListB","woman","english",NA,NA,NA,NA,"{""Q0"":""jane is contacting beth""}","<img src='gifs/FemaleRace1b.gif' style='height:400px;''></img>","contacting","is contacting","english",NA
"null","<div style=""font-size:60px;"">+</div>",NA,"html-keyboard-response",192,1008184,"0.0-15.0-0.13",52558,"ListB","woman","english",NA,NA,NA,"null",NA,NA,NA,NA,NA,NA
"null","<img src='gifs/MaleRace2b.gif' style='height:400px;''></img>",NA,"html-keyboard-response",193,1010187,"0.0-15.0-1.13",52558,"ListB","woman","english",NA,NA,NA,"null",NA,NA,NA,NA,NA,NA
"null","is joining",NA,"html-keyboard-response",194,1013190,"0.0-15.0-2.13",52558,"ListB","woman","english",NA,NA,NA,"null",NA,NA,NA,NA,NA,NA
"8907.000000000120",NA,NA,"survey-text",195,1022103,"0.0-15.0-3.13",52558,"ListB","woman","english",NA,NA,NA,NA,"{""Q0"":""mike is joining dave""}","<img src='gifs/MaleRace2b.gif' style='height:400px;''></img>","join","is joining","english",NA
"null","<div style=""font-size:60px;"">+</div>",NA,"html-keyboard-response",196,1022605,"0.0-15.0-0.14",52558,"ListB","woman","english",NA,NA,NA,"null",NA,NA,NA,NA,NA,NA
"null","<img src='gifs/MaleRace2a.gif' style='height:400px;''></img>",NA,"html-keyboard-response",197,1024608,"0.0-15.0-1.14",52558,"ListB","woman","english",NA,NA,NA,"null",NA,NA,NA,NA,NA,NA
"null","is joining",NA,"html-keyboard-response",198,1027617,"0.0-15.0-2.14",52558,"ListB","woman","english",NA,NA,NA,"null",NA,NA,NA,NA,NA,NA
"6294.000000000120",NA,NA,"survey-text",199,1033918,"0.0-15.0-3.14",52558,"ListB","woman","english",NA,NA,NA,NA,"{""Q0"":""mike is joining dave""}","<img src='gifs/MaleRace2a.gif' style='height:400px;''></img>","join","is joining","english",NA
"null","<div style=""font-size:60px;"">+</div>",NA,"html-keyboard-response",200,1034421,"0.0-15.0-0.15",52558,"ListB","woman","english",NA,NA,NA,"null",NA,NA,NA,NA,NA,NA
"null","<img src='gifs/FemaleRace1a.gif' style='height:400px;''></img>",NA,"html-keyboard-response",201,1036424,"0.0-15.0-1.15",52558,"ListB","woman","english",NA,NA,NA,"null",NA,NA,NA,NA,NA,NA
"null","is looking at",NA,"html-keyboard-response",202,1039428,"0.0-15.0-2.15",52558,"ListB","woman","english",NA,NA,NA,"null",NA,NA,NA,NA,NA,NA
"6996",NA,NA,"survey-text",203,1046431,"0.0-15.0-3.15",52558,"ListB","woman","english",NA,NA,NA,NA,"{""Q0"":""beth is looking at jane""}","<img src='gifs/FemaleRace1a.gif' style='height:400px;''></img>","looking at","is looking at","english",NA
"null","<div style=""font-size:60px;"">+</div>",NA,"html-keyboard-response",204,1046932,"0.0-15.0-0.16",52558,"ListB","woman","english",NA,NA,NA,"null",NA,NA,NA,NA,NA,NA
"null","<img src='gifs/ChineseGender2a.gif' style='height:400px;''></img>",NA,"html-keyboard-response",205,1048934,"0.0-15.0-1.16",52558,"ListB","woman","english",NA,NA,NA,"null",NA,NA,NA,NA,NA,NA
"null","is joining",NA,"html-keyboard-response",206,1051936,"0.0-15.0-2.16",52558,"ListB","woman","english",NA,NA,NA,"null",NA,NA,NA,NA,NA,NA
"8679",NA,NA,"survey-text",207,1060623,"0.0-15.0-3.16",52558,"ListB","woman","english",NA,NA,NA,NA,"{""Q0"":""ruth is joining luke""}","<img src='gifs/ChineseGender2a.gif' style='height:400px;''></img>","join","is joining","english",NA
"null","<div style=""font-size:60px;"">+</div>",NA,"html-keyboard-response",208,1061125,"0.0-15.0-0.17",52558,"ListB","woman","english",NA,NA,NA,"null",NA,NA,NA,NA,NA,NA
"null","<img src='gifs/MaleRace3b.gif' style='height:400px;''></img>",NA,"html-keyboard-response",209,1063128,"0.0-15.0-1.17",52558,"ListB","woman","english",NA,NA,NA,"null",NA,NA,NA,NA,NA,NA
"null","is accompanying",NA,"html-keyboard-response",210,1066131,"0.0-15.0-2.17",52558,"ListB","woman","english",NA,NA,NA,"null",NA,NA,NA,NA,NA,NA
"16298",NA,NA,"survey-text",211,1082435,"0.0-15.0-3.17",52558,"ListB","woman","english",NA,NA,NA,NA,"{""Q0"":""dave is accompanying fred""}","<img src='gifs/MaleRace3b.gif' style='height:400px;''></img>","accompanying","is accompanying","english",NA
"2063","<img src='img/portrait_matrix_listB.jpg' style='width:900px;height:500px;''></img><p>If you have memorised all the portraits and names and are ready to start, press Continue.</p><p><strong>Please note: Your memory of these faces will be tested 5 times during this experiment.</strong></p>",0,"html-button-response",212,1084500,"0.0-16.0-0.0",52558,"ListB","woman","english",NA,NA,NA,NA,NA,NA,NA,NA,NA,NA
"2206.999999999770","<img src=""portrait/BM2.jpg""style=""height:400px;""></img>",5,"html-button-response",213,1087710,"0.0-16.0-1.0",52558,"ListB","woman","english",NA,TRUE,5,NA,NA,NA,NA,NA,NA,NA
"null","CORRECT",NA,"html-keyboard-response",214,1089214,"0.0-16.0-2.0-0.0",52558,"ListB","woman","english",NA,NA,NA,"null",NA,NA,NA,NA,NA,NA
"1411","<img src=""portrait/WM2.jpg""style=""height:400px;""></img>",7,"html-button-response",215,1090627,"0.0-16.0-4.0",52558,"ListB","woman","english",NA,TRUE,7,NA,NA,NA,NA,NA,NA,NA
"null","CORRECT",NA,"html-keyboard-response",216,1092129,"0.0-16.0-5.0-0.0",52558,"ListB","woman","english",NA,NA,NA,"null",NA,NA,NA,NA,NA,NA
"1695","<img src=""portrait/BW1.jpg""style=""height:400px;""></img>",0,"html-button-response",217,1093826,"0.0-16.0-7.0",52558,"ListB","woman","english",NA,TRUE,0,NA,NA,NA,NA,NA,NA,NA
"null","CORRECT",NA,"html-keyboard-response",218,1095329,"0.0-16.0-8.0-0.0",52558,"ListB","woman","english",NA,NA,NA,"null",NA,NA,NA,NA,NA,NA
"3152","<img src=""portrait/WM1.jpg""style=""height:400px;""></img>",6,"html-button-response",219,1098483,"0.0-16.0-10.0",52558,"ListB","woman","english",NA,TRUE,6,NA,NA,NA,NA,NA,NA,NA
"null","CORRECT",NA,"html-keyboard-response",220,1099986,"0.0-16.0-11.0-0.0",52558,"ListB","woman","english",NA,NA,NA,"null",NA,NA,NA,NA,NA,NA
"2293.000000000230","<img src=""portrait/BW2.jpg""style=""height:400px;""></img>",2,"html-button-response",221,1102281,"0.0-16.0-13.0",52558,"ListB","woman","english",NA,TRUE,2,NA,NA,NA,NA,NA,NA,NA
"null","CORRECT",NA,"html-keyboard-response",222,1103785,"0.0-16.0-14.0-0.0",52558,"ListB","woman","english",NA,NA,NA,"null",NA,NA,NA,NA,NA,NA
"1454","<img src=""portrait/WW1.jpg""style=""height:400px;""></img>",1,"html-button-response",223,1105241,"0.0-16.0-16.0",52558,"ListB","woman","english",NA,TRUE,1,NA,NA,NA,NA,NA,NA,NA
"null","CORRECT",NA,"html-keyboard-response",224,1106745,"0.0-16.0-17.0-0.0",52558,"ListB","woman","english",NA,NA,NA,"null",NA,NA,NA,NA,NA,NA
"1166","<img src=""portrait/WW2.jpg""style=""height:400px;""></img>",3,"html-button-response",225,1107914,"0.0-16.0-19.0",52558,"ListB","woman","english",NA,TRUE,3,NA,NA,NA,NA,NA,NA,NA
"null","CORRECT",NA,"html-keyboard-response",226,1109416,"0.0-16.0-20.0-0.0",52558,"ListB","woman","english",NA,NA,NA,"null",NA,NA,NA,NA,NA,NA
"1973","<img src=""portrait/BM1.jpg""style=""height:400px;""></img>",4,"html-button-response",227,1111391,"0.0-16.0-22.0",52558,"ListB","woman","english",NA,TRUE,4,NA,NA,NA,NA,NA,NA,NA
"null","CORRECT",NA,"html-keyboard-response",228,1112896,"0.0-16.0-23.0-0.0",52558,"ListB","woman","english",NA,NA,NA,"null",NA,NA,NA,NA,NA,NA
"10032","<p>You got 8 out of 8 right first time. Press Continue.</p>",0,"html-button-response",229,1122929,"0.0-16.0-25.0",52558,"ListB","woman","english",NA,NA,NA,NA,NA,NA,NA,NA,NA,NA
"null","<div style=""font-size:60px;"">+</div>",NA,"html-keyboard-response",230,1124432,"0.0-17.0-0.0",52558,"ListB","woman","english",NA,NA,NA,"null",NA,NA,NA,NA,NA,NA
"null","<img src='gifs/MaleRace1a.gif' style='height:400px;''></img>",NA,"html-keyboard-response",231,1126435,"0.0-17.0-1.0",52558,"ListB","woman","english",NA,NA,NA,"null",NA,NA,NA,NA,NA,NA
"null","is accompanying",NA,"html-keyboard-response",232,1129438,"0.0-17.0-2.0",52558,"ListB","woman","english",NA,NA,NA,"null",NA,NA,NA,NA,NA,NA
"9285",NA,NA,"survey-text",233,1138730,"0.0-17.0-3.0",52558,"ListB","woman","english",NA,NA,NA,NA,"{""Q0"":""fred is accompanying luke""}","<img src='gifs/MaleRace1a.gif' style='height:400px;''></img>","accompanying","is accompanying","english",NA
"null","<div style=""font-size:60px;"">+</div>",NA,"html-keyboard-response",234,1139232,"0.0-17.0-0.1",52558,"ListB","woman","english",NA,NA,NA,"null",NA,NA,NA,NA,NA,NA
"null","<img src='gifs/FemaleRace2a.gif' style='height:400px;''></img>",NA,"html-keyboard-response",235,1141235,"0.0-17.0-1.1",52558,"ListB","woman","english",NA,NA,NA,"null",NA,NA,NA,NA,NA,NA
"null","is employing",NA,"html-keyboard-response",236,1144238,"0.0-17.0-2.1",52558,"ListB","woman","english",NA,NA,NA,"null",NA,NA,NA,NA,NA,NA
"19635",NA,NA,"survey-text",237,1163879,"0.0-17.0-3.1",52558,"ListB","woman","english",NA,NA,NA,NA,"{""Q0"":""kate is employing jane""}","<img src='gifs/FemaleRace2a.gif' style='height:400px;''></img>","employing","is employing","english",NA
"null","<div style=""font-size:60px;"">+</div>",NA,"html-keyboard-response",238,1164383,"0.0-17.0-0.2",52558,"ListB","woman","english",NA,NA,NA,"null",NA,NA,NA,NA,NA,NA
"null","<img src='gifs/BlackGender2b.gif' style='height:400px;''></img>",NA,"html-keyboard-response",239,1166386,"0.0-17.0-1.2",52558,"ListB","woman","english",NA,NA,NA,"null",NA,NA,NA,NA,NA,NA
"null","is touching",NA,"html-keyboard-response",240,1169394,"0.0-17.0-2.2",52558,"ListB","woman","english",NA,NA,NA,"null",NA,NA,NA,NA,NA,NA
"5664",NA,NA,"survey-text",241,1175064,"0.0-17.0-3.2",52558,"ListB","woman","english",NA,NA,NA,NA,"{""Q0"":""mike is touching beth""}","<img src='gifs/BlackGender2b.gif' style='height:400px;''></img>","touching","is touching","english",NA
"null","<div style=""font-size:60px;"">+</div>",NA,"html-keyboard-response",242,1175566,"0.0-17.0-0.3",52558,"ListB","woman","english",NA,NA,NA,"null",NA,NA,NA,NA,NA,NA
"null","<img src='gifs/BlackGender3b.gif' style='height:400px;''></img>",NA,"html-keyboard-response",243,1177569,"0.0-17.0-1.3",52558,"ListB","woman","english",NA,NA,NA,"null",NA,NA,NA,NA,NA,NA
"null","is listening to",NA,"html-keyboard-response",244,1180572,"0.0-17.0-2.3",52558,"ListB","woman","english",NA,NA,NA,"null",NA,NA,NA,NA,NA,NA
"7321",NA,NA,"survey-text",245,1187900,"0.0-17.0-3.3",52558,"ListB","woman","english",NA,NA,NA,NA,"{""Q0"":""kate is listening to fred""}","<img src='gifs/BlackGender3b.gif' style='height:400px;''></img>","listening to","is listening to","english",NA
"null","<div style=""font-size:60px;"">+</div>",NA,"html-keyboard-response",246,1188405,"0.0-17.0-0.4",52558,"ListB","woman","english",NA,NA,NA,"null",NA,NA,NA,NA,NA,NA
"null","<img src='gifs/BlackGender3a.gif' style='height:400px;''></img>",NA,"html-keyboard-response",247,1190407,"0.0-17.0-1.4",52558,"ListB","woman","english",NA,NA,NA,"null",NA,NA,NA,NA,NA,NA
"null","is accompanying",NA,"html-keyboard-response",248,1193412,"0.0-17.0-2.4",52558,"ListB","woman","english",NA,NA,NA,"null",NA,NA,NA,NA,NA,NA
"9999",NA,NA,"survey-text",249,1203417,"0.0-17.0-3.4",52558,"ListB","woman","english",NA,NA,NA,NA,"{""Q0"":""fred is accompanying kate""}","<img src='gifs/BlackGender3a.gif' style='height:400px;''></img>","accompanying","is accompanying","english",NA
"null","<div style=""font-size:60px;"">+</div>",NA,"html-keyboard-response",250,1203920,"0.0-17.0-0.5",52558,"ListB","woman","english",NA,NA,NA,"null",NA,NA,NA,NA,NA,NA
"null","<img src='gifs/FemaleRace2a.gif' style='height:400px;''></img>",NA,"html-keyboard-response",251,1205923,"0.0-17.0-1.5",52558,"ListB","woman","english",NA,NA,NA,"null",NA,NA,NA,NA,NA,NA
"null","is employing",NA,"html-keyboard-response",252,1208928,"0.0-17.0-2.5",52558,"ListB","woman","english",NA,NA,NA,"null",NA,NA,NA,NA,NA,NA
"12435",NA,NA,"survey-text",253,1221369,"0.0-17.0-3.5",52558,"ListB","woman","english",NA,NA,NA,NA,"{""Q0"":""jane is employing kate""}","<img src='gifs/FemaleRace2a.gif' style='height:400px;''></img>","employing","is employing","english",NA
"null","<div style=""font-size:60px;"">+</div>",NA,"html-keyboard-response",254,1221871,"0.0-17.0-0.6",52558,"ListB","woman","english",NA,NA,NA,"null",NA,NA,NA,NA,NA,NA
"null","<img src='gifs/ChineseGender2b.gif' style='height:400px;''></img>",NA,"html-keyboard-response",255,1223874,"0.0-17.0-1.6",52558,"ListB","woman","english",NA,NA,NA,"null",NA,NA,NA,NA,NA,NA
"null","is promising",NA,"html-keyboard-response",256,1226889,"0.0-17.0-2.6",52558,"ListB","woman","english",NA,NA,NA,"null",NA,NA,NA,NA,NA,NA
"6009",NA,NA,"survey-text",257,1232903,"0.0-17.0-3.6",52558,"ListB","woman","english",NA,NA,NA,NA,"{""Q0"":""ruth is promising luke""}","<img src='gifs/ChineseGender2b.gif' style='height:400px;''></img>","promising","is promising","english",NA
"null","<div style=""font-size:60px;"">+</div>",NA,"html-keyboard-response",258,1233404,"0.0-17.0-0.7",52558,"ListB","woman","english",NA,NA,NA,"null",NA,NA,NA,NA,NA,NA
"null","<img src='gifs/MaleRace1b.gif' style='height:400px;''></img>",NA,"html-keyboard-response",259,1235407,"0.0-17.0-1.7",52558,"ListB","woman","english",NA,NA,NA,"null",NA,NA,NA,NA,NA,NA
"null","is listening to",NA,"html-keyboard-response",260,1238408,"0.0-17.0-2.7",52558,"ListB","woman","english",NA,NA,NA,"null",NA,NA,NA,NA,NA,NA
"7672",NA,NA,"survey-text",261,1246087,"0.0-17.0-3.7",52558,"ListB","woman","english",NA,NA,NA,NA,"{""Q0"":""luke is listening to fred""}","<img src='gifs/MaleRace1b.gif' style='height:400px;''></img>","listening to","is listening to","english",NA
"null","<div style=""font-size:60px;"">+</div>",NA,"html-keyboard-response",262,1246589,"0.0-17.0-0.8",52558,"ListB","woman","english",NA,NA,NA,"null",NA,NA,NA,NA,NA,NA
"null","<img src='gifs/ChineseGender2b.gif' style='height:400px;''></img>",NA,"html-keyboard-response",263,1248592,"0.0-17.0-1.8",52558,"ListB","woman","english",NA,NA,NA,"null",NA,NA,NA,NA,NA,NA
"null","is employing",NA,"html-keyboard-response",264,1251595,"0.0-17.0-2.8",52558,"ListB","woman","english",NA,NA,NA,"null",NA,NA,NA,NA,NA,NA
"9538",NA,NA,"survey-text",265,1261140,"0.0-17.0-3.8",52558,"ListB","woman","english",NA,NA,NA,NA,"{""Q0"":""luke is employing ruth""}","<img src='gifs/ChineseGender2b.gif' style='height:400px;''></img>","employing","is employing","english",NA
"null","<div style=""font-size:60px;"">+</div>",NA,"html-keyboard-response",266,1261643,"0.0-17.0-0.9",52558,"ListB","woman","english",NA,NA,NA,"null",NA,NA,NA,NA,NA,NA
"null","<img src='gifs/MaleRace4a.gif' style='height:400px;''></img>",NA,"html-keyboard-response",267,1263645,"0.0-17.0-1.9",52558,"ListB","woman","english",NA,NA,NA,"null",NA,NA,NA,NA,NA,NA
"null","is convincing",NA,"html-keyboard-response",268,1266648,"0.0-17.0-2.9",52558,"ListB","woman","english",NA,NA,NA,"null",NA,NA,NA,NA,NA,NA
"6535.000000000230",NA,NA,"survey-text",269,1273189,"0.0-17.0-3.9",52558,"ListB","woman","english",NA,NA,NA,NA,"{""Q0"":""mike is convincing dave""}","<img src='gifs/MaleRace4a.gif' style='height:400px;''></img>","convincing","is convincing","english",NA
"null","<div style=""font-size:60px;"">+</div>",NA,"html-keyboard-response",270,1273691,"0.0-17.0-0.10",52558,"ListB","woman","english",NA,NA,NA,"null",NA,NA,NA,NA,NA,NA
"null","<img src='gifs/BlackGender4a.gif' style='height:400px;''></img>",NA,"html-keyboard-response",271,1275694,"0.0-17.0-1.10",52558,"ListB","woman","english",NA,NA,NA,"null",NA,NA,NA,NA,NA,NA
"null","is walking towards",NA,"html-keyboard-response",272,1278696,"0.0-17.0-2.10",52558,"ListB","woman","english",NA,NA,NA,"null",NA,NA,NA,NA,NA,NA
"10362",NA,NA,"survey-text",273,1289066,"0.0-17.0-3.10",52558,"ListB","woman","english",NA,NA,NA,NA,"{""Q0"":""kate is walking towards mike""}","<img src='gifs/BlackGender4a.gif' style='height:400px;''></img>","walking towards","is walking towards","english",NA
"null","<div style=""font-size:60px;"">+</div>",NA,"html-keyboard-response",274,1289567,"0.0-17.0-0.11",52558,"ListB","woman","english",NA,NA,NA,"null",NA,NA,NA,NA,NA,NA
"null","<img src='gifs/BlackGender1b.gif' style='height:400px;''></img>",NA,"html-keyboard-response",275,1291571,"0.0-17.0-1.11",52558,"ListB","woman","english",NA,NA,NA,"null",NA,NA,NA,NA,NA,NA
"null","is listening to",NA,"html-keyboard-response",276,1294574,"0.0-17.0-2.11",52558,"ListB","woman","english",NA,NA,NA,"null",NA,NA,NA,NA,NA,NA
"6938",NA,NA,"survey-text",277,1301518,"0.0-17.0-3.11",52558,"ListB","woman","english",NA,NA,NA,NA,"{""Q0"":""fred is listening to beth""}","<img src='gifs/BlackGender1b.gif' style='height:400px;''></img>","listening to","is listening to","english",NA
"null","<div style=""font-size:60px;"">+</div>",NA,"html-keyboard-response",278,1302020,"0.0-17.0-0.12",52558,"ListB","woman","english",NA,NA,NA,"null",NA,NA,NA,NA,NA,NA
"null","<img src='gifs/ChineseGender1a.gif' style='height:400px;''></img>",NA,"html-keyboard-response",279,1304022,"0.0-17.0-1.12",52558,"ListB","woman","english",NA,NA,NA,"null",NA,NA,NA,NA,NA,NA
"null","is accompanying",NA,"html-keyboard-response",280,1307024,"0.0-17.0-2.12",52558,"ListB","woman","english",NA,NA,NA,"null",NA,NA,NA,NA,NA,NA
"8082.000000000230",NA,NA,"survey-text",281,1315111,"0.0-17.0-3.12",52558,"ListB","woman","english",NA,NA,NA,NA,"{""Q0"":""jane is accompanying luke""}","<img src='gifs/ChineseGender1a.gif' style='height:400px;''></img>","accompanying","is accompanying","english",NA
"null","<div style=""font-size:60px;"">+</div>",NA,"html-keyboard-response",282,1315613,"0.0-17.0-0.13",52558,"ListB","woman","english",NA,NA,NA,"null",NA,NA,NA,NA,NA,NA
"null","<img src='gifs/ChineseGender4a.gif' style='height:400px;''></img>",NA,"html-keyboard-response",283,1317615,"0.0-17.0-1.13",52558,"ListB","woman","english",NA,NA,NA,"null",NA,NA,NA,NA,NA,NA
"null","is introducing",NA,"html-keyboard-response",284,1320618,"0.0-17.0-2.13",52558,"ListB","woman","english",NA,NA,NA,"null",NA,NA,NA,NA,NA,NA
"9495",NA,NA,"survey-text",285,1330120,"0.0-17.0-3.13",52558,"ListB","woman","english",NA,NA,NA,NA,"{""Q0"":""dave is introducing jane""}","<img src='gifs/ChineseGender4a.gif' style='height:400px;''></img>","introducing","is introducing","english",NA
"null","<div style=""font-size:60px;"">+</div>",NA,"html-keyboard-response",286,1330622,"0.0-17.0-0.14",52558,"ListB","woman","english",NA,NA,NA,"null",NA,NA,NA,NA,NA,NA
"null","<img src='gifs/BlackGender1b.gif' style='height:400px;''></img>",NA,"html-keyboard-response",287,1332625,"0.0-17.0-1.14",52558,"ListB","woman","english",NA,NA,NA,"null",NA,NA,NA,NA,NA,NA
"null","is praising",NA,"html-keyboard-response",288,1335628,"0.0-17.0-2.14",52558,"ListB","woman","english",NA,NA,NA,"null",NA,NA,NA,NA,NA,NA
"7428.000000000230",NA,NA,"survey-text",289,1343062,"0.0-17.0-3.14",52558,"ListB","woman","english",NA,NA,NA,NA,"{""Q0"":""beth is praising fred""}","<img src='gifs/BlackGender1b.gif' style='height:400px;''></img>","praising","is praising","english",NA
"null","<div style=""font-size:60px;"">+</div>",NA,"html-keyboard-response",290,1343566,"0.0-17.0-0.15",52558,"ListB","woman","english",NA,NA,NA,"null",NA,NA,NA,NA,NA,NA
"null","<img src='gifs/FemaleRace4a.gif' style='height:400px;''></img>",NA,"html-keyboard-response",291,1345569,"0.0-17.0-1.15",52558,"ListB","woman","english",NA,NA,NA,"null",NA,NA,NA,NA,NA,NA
"null","is mentioning",NA,"html-keyboard-response",292,1348572,"0.0-17.0-2.15",52558,"ListB","woman","english",NA,NA,NA,"null",NA,NA,NA,NA,NA,NA
"7359",NA,NA,"survey-text",293,1355938,"0.0-17.0-3.15",52558,"ListB","woman","english",NA,NA,NA,NA,"{""Q0"":""kate is mentioning ruth""}","<img src='gifs/FemaleRace4a.gif' style='height:400px;''></img>","mention","is mentioning","english",NA
"null","<div style=""font-size:60px;"">+</div>",NA,"html-keyboard-response",294,1356440,"0.0-17.0-0.16",52558,"ListB","woman","english",NA,NA,NA,"null",NA,NA,NA,NA,NA,NA
"null","<img src='gifs/BlackGender1a.gif' style='height:400px;''></img>",NA,"html-keyboard-response",295,1358443,"0.0-17.0-1.16",52558,"ListB","woman","english",NA,NA,NA,"null",NA,NA,NA,NA,NA,NA
"null","is mentioning",NA,"html-keyboard-response",296,1361445,"0.0-17.0-2.16",52558,"ListB","woman","english",NA,NA,NA,"null",NA,NA,NA,NA,NA,NA
"4860.000000000230",NA,NA,"survey-text",297,1366311,"0.0-17.0-3.16",52558,"ListB","woman","english",NA,NA,NA,NA,"{""Q0"":""fred is mentioning beth""}","<img src='gifs/BlackGender1a.gif' style='height:400px;''></img>","mention","is mentioning","english",NA
"null","<div style=""font-size:60px;"">+</div>",NA,"html-keyboard-response",298,1366813,"0.0-17.0-0.17",52558,"ListB","woman","english",NA,NA,NA,"null",NA,NA,NA,NA,NA,NA
"null","<img src='gifs/BlackGender4a.gif' style='height:400px;''></img>",NA,"html-keyboard-response",299,1368815,"0.0-17.0-1.17",52558,"ListB","woman","english",NA,NA,NA,"null",NA,NA,NA,NA,NA,NA
"null","is looking at",NA,"html-keyboard-response",300,1371817,"0.0-17.0-2.17",52558,"ListB","woman","english",NA,NA,NA,"null",NA,NA,NA,NA,NA,NA
"8809",NA,NA,"survey-text",301,1380633,"0.0-17.0-3.17",52558,"ListB","woman","english",NA,NA,NA,NA,"{""Q0"":""mike is looking at kate""}","<img src='gifs/BlackGender4a.gif' style='height:400px;''></img>","looking at","is looking at","english",NA
"2833","<p>Thank you for completing that task.</p><p>The final part of this session is a short questionnaire.</p><p>Press Continue.</p>",0,"html-button-response",302,1383468,"0.0-18.0",52558,"ListB","woman","english",NA,NA,NA,NA,NA,NA,NA,NA,NA,NA
"94067",NA,NA,"survey-text",303,1478550,"0.0-19.0",52558,"ListB","woman","english",NA,NA,NA,NA,"{""Q0"":""23"",""Q1"":""Chinese"",""Q2"":""Chinese"",""Q3"":""UK"",""Q4"":""Chinese"",""Q5"":""Asian"",""Q6"":""female""}",NA,NA,NA,NA,"demographics"
"10214","<p>Have you lived in the UK for the last 5 years or more?</p>",1,"html-button-response",304,1488766,"0.0-20.0",52558,"ListB","woman","english",NA,NA,NA,NA,NA,NA,NA,NA,NA,"fiveyears"
"84384",NA,NA,"external-html",305,1574411,"0.0-21.0",52558,"ListB","woman","english","debrief.html",NA,NA,NA,NA,NA,NA,NA,NA,NA
"12579",NA,NA,"survey-text",306,1586999,"0.0-22.0",52558,"ListB","woman","english",NA,NA,NA,NA,"{""Q0"":""EFB4""}",NA,NA,NA,NA,"worker_id"
