"rt","stimulus","button_pressed","trial_type","trial_index","time_elapsed","internal_node_id","subject","list","ppt_gender","ppt_language","ptptID","url","first_guess","correct","key_press","responses","image","verb","phrase","condition","test_part"
"4268","Welcome to the experiment. Press Continue to begin.",0,"html-button-response",0,4277,"0.0-0.0",53661,"ListA","woman","chinese","CFA5",NA,NA,NA,NA,NA,NA,NA,NA,NA,NA
"19514",NA,NA,"external-html",1,24901,"0.0-1.0",53661,"ListA","woman","chinese","CFA5","consent.html",NA,NA,NA,NA,NA,NA,NA,NA,NA
"16636","<p>在下一页中，您将看到8个人物肖像和他们各自的名字。</p><p>请花费几分钟的时间记住这些人物及其所对应的名字。</p><p>之后的实验中需要您对人物的名字做出回忆，</p><p>因此在实验开始前请确保您已 经完全记住这些人物及其所对应的名字。</p><p><strong>然后您将完成一个测试以检验您对人物和名字的记忆。</strong></p><p>完成此记忆测试后，您将正式进入实验。</p><p>准备好了吗？</p>",0,"html-button-response",2,41539,"0.0-2.0",53661,"ListA","woman","chinese","CFA5",NA,NA,NA,NA,NA,NA,NA,NA,NA,NA
"60552","<img src='img/portrait_matrix_listA_chinese.jpg' style='width:900px;height:500px;''></img><p>如果您已经记住了所有的人物和名字，请点击继续。</p><p><strong>请注意：您对先前记忆的面孔将在本实验中被测试5次。</strong></p>",0,"html-button-response",3,103094,"0.0-3.0-0.0",53661,"ListA","woman","chinese","CFA5",NA,NA,NA,NA,NA,NA,NA,NA,NA,NA
"3688","<img src=""portrait/WW1.jpg""style=""height:400px;""></img>",1,"html-button-response",4,107785,"0.0-3.0-1.0",53661,"ListA","woman","chinese","CFA5",NA,"true",1,NA,NA,NA,NA,NA,NA,NA
"null","正确",NA,"html-keyboard-response",5,109291,"0.0-3.0-2.0-0.0",53661,"ListA","woman","chinese","CFA5",NA,NA,NA,"null",NA,NA,NA,NA,NA,NA
"1910","<img src=""portrait/WW2.jpg""style=""height:400px;""></img>",3,"html-button-response",6,111204,"0.0-3.0-4.0",53661,"ListA","woman","chinese","CFA5",NA,"true",3,NA,NA,NA,NA,NA,NA,NA
"null","正确",NA,"html-keyboard-response",7,112708,"0.0-3.0-5.0-0.0",53661,"ListA","woman","chinese","CFA5",NA,NA,NA,"null",NA,NA,NA,NA,NA,NA
"3974","<img src=""portrait/WM2.jpg""style=""height:400px;""></img>",7,"html-button-response",8,116684,"0.0-3.0-7.0",53661,"ListA","woman","chinese","CFA5",NA,"true",7,NA,NA,NA,NA,NA,NA,NA
"null","正确",NA,"html-keyboard-response",9,118188,"0.0-3.0-8.0-0.0",53661,"ListA","woman","chinese","CFA5",NA,NA,NA,"null",NA,NA,NA,NA,NA,NA
"5366","<img src=""portrait/BM2.jpg""style=""height:400px;""></img>",5,"html-button-response",10,123556,"0.0-3.0-10.0",53661,"ListA","woman","chinese","CFA5",NA,"true",5,NA,NA,NA,NA,NA,NA,NA
"null","正确",NA,"html-keyboard-response",11,125060,"0.0-3.0-11.0-0.0",53661,"ListA","woman","chinese","CFA5",NA,NA,NA,"null",NA,NA,NA,NA,NA,NA
"3825.9999999999854","<img src=""portrait/BM1.jpg""style=""height:400px;""></img>",4,"html-button-response",12,128889,"0.0-3.0-13.0",53661,"ListA","woman","chinese","CFA5",NA,"true",4,NA,NA,NA,NA,NA,NA,NA
"null","正确",NA,"html-keyboard-response",13,130393,"0.0-3.0-14.0-0.0",53661,"ListA","woman","chinese","CFA5",NA,NA,NA,"null",NA,NA,NA,NA,NA,NA
"5629","<img src=""portrait/BW2.jpg""style=""height:400px;""></img>",2,"html-button-response",14,136025,"0.0-3.0-16.0",53661,"ListA","woman","chinese","CFA5",NA,"true",2,NA,NA,NA,NA,NA,NA,NA
"null","正确",NA,"html-keyboard-response",15,137529,"0.0-3.0-17.0-0.0",53661,"ListA","woman","chinese","CFA5",NA,NA,NA,"null",NA,NA,NA,NA,NA,NA
"5027","<img src=""portrait/BW1.jpg""style=""height:400px;""></img>",0,"html-button-response",16,142559,"0.0-3.0-19.0",53661,"ListA","woman","chinese","CFA5",NA,"true",0,NA,NA,NA,NA,NA,NA,NA
"null","正确",NA,"html-keyboard-response",17,144062,"0.0-3.0-20.0-0.0",53661,"ListA","woman","chinese","CFA5",NA,NA,NA,"null",NA,NA,NA,NA,NA,NA
"4516","<img src=""portrait/WM1.jpg""style=""height:400px;""></img>",6,"html-button-response",18,148580,"0.0-3.0-22.0",53661,"ListA","woman","chinese","CFA5",NA,"true",6,NA,NA,NA,NA,NA,NA,NA
"null","正确",NA,"html-keyboard-response",19,150084,"0.0-3.0-23.0-0.0",53661,"ListA","woman","chinese","CFA5",NA,NA,NA,"null",NA,NA,NA,NA,NA,NA
"1579.000000000029","<p>您第一次在8题里答对了 8 题。 请点击继续</p>",0,"html-button-response",20,151666,"0.0-3.0-25.0",53661,"ListA","woman","chinese","CFA5",NA,NA,NA,NA,NA,NA,NA,NA,NA,NA
"41218","<p>此次实验您将会看到先前记忆任务里的人物照片。</p><p>人物照片消失后您将看到一个动词短语，请正确回忆人物的名字并用特定的 动词短语组成一句完整的句子。</p><p>请在指定的框内输入您的答案。在进入下一题之前请确保您填写了完整的句子。</p><p>人物照片和动词短语只会在屏幕上出现几秒钟，因此请您答题时尽量集中注意力。</p><p>以下是例子。请您在准备好后按下“继续”。</p><img src='img/chinese_speaking_example.jpg' style='width:800px;height:460px;''></img>",0,"html-button-response",21,193887,"0.0-4.0",53661,"ListA","woman","chinese","CFA5",NA,NA,NA,NA,NA,NA,NA,NA,NA,NA
"1949.000000000029","<p>在实验开始前，将为您展示两个示例实验。</p>",0,"html-button-response",22,196839,"0.0-5.0",53661,"ListA","woman","chinese","CFA5",NA,NA,NA,NA,NA,NA,NA,NA,NA,NA
"null","<img src='img/meet.gif' style='height:400px;''></img>",NA,"html-keyboard-response",23,199843,"0.0-6.0",53661,"ListA","woman","chinese","CFA5",NA,NA,NA,"null",NA,NA,NA,NA,NA,NA
"null","<p>正在约见</p>",NA,"html-keyboard-response",24,201845,"0.0-7.0",53661,"ListA","woman","chinese","CFA5",NA,NA,NA,"null",NA,NA,NA,NA,NA,NA
"4584","<p><b>答案:</b> 凯特正在约见贝斯</p>",0,"html-button-response",25,206431,"0.0-8.0",53661,"ListA","woman","chinese","CFA5",NA,NA,NA,NA,NA,NA,NA,NA,NA,NA
"null","<img src='img/spy.gif' style='height:400px;''></img>",NA,"html-keyboard-response",26,209434,"0.0-9.0",53661,"ListA","woman","chinese","CFA5",NA,NA,NA,"null",NA,NA,NA,NA,NA,NA
"null","<p>正在监视</p>",NA,"html-keyboard-response",27,211437,"0.0-10.0",53661,"ListA","woman","chinese","CFA5",NA,NA,NA,"null",NA,NA,NA,NA,NA,NA
"5545","<p><b>答案:</b> 卢克正在监视戴夫</p>",0,"html-button-response",28,216984,"0.0-11.0",53661,"ListA","woman","chinese","CFA5",NA,NA,NA,NA,NA,NA,NA,NA,NA,NA
"3818","<p>准备好开始了吗？</p><br><p><strong>请记住，您的答案需是一句完整的句子</strong></p><p><strong>，并用给到的图片人物和动词短语作答。</strong></p><p><strong>只有正确并完整完成实验才可获得报酬。</strong></p><p><strong> 您不需要加入任何标点符号。</strong></p><br><p>请按 ‘继续’ 键开始。</p>",0,"html-button-response",29,221805,"0.0-12.0",53661,"ListA","woman","chinese","CFA5",NA,NA,NA,NA,NA,NA,NA,NA,NA,NA
"null","<div style=""font-size:60px;"">+</div>",NA,"html-keyboard-response",30,223308,"0.0-13.0-0.0",53661,"ListA","woman","chinese","CFA5",NA,NA,NA,"null",NA,NA,NA,NA,NA,NA
"null","<img src='gifs/FemaleRace2b.gif' style='height:400px;''></img>",NA,"html-keyboard-response",31,225312,"0.0-13.0-1.0",53661,"ListA","woman","chinese","CFA5",NA,NA,NA,"null",NA,NA,NA,NA,NA,NA
"null","正在跟随",NA,"html-keyboard-response",32,228314,"0.0-13.0-2.0",53661,"ListA","woman","chinese","CFA5",NA,NA,NA,"null",NA,NA,NA,NA,NA,NA
"38513",NA,NA,"survey-text",33,266842,"0.0-13.0-3.0",53661,"ListA","woman","chinese","CFA5",NA,NA,NA,NA,"{""Q0"":""霍普正在跟随凯特""}","<img src='gifs/FemaleRace2b.gif' style='height:400px;''></img>","跟随","正在跟随","chinese",NA
"null","<div style=""font-size:60px;"">+</div>",NA,"html-keyboard-response",34,267345,"0.0-13.0-0.1",53661,"ListA","woman","chinese","CFA5",NA,NA,NA,"null",NA,NA,NA,NA,NA,NA
"null","<img src='gifs/FemaleRace4a.gif' style='height:400px;''></img>",NA,"html-keyboard-response",35,269348,"0.0-13.0-1.1",53661,"ListA","woman","chinese","CFA5",NA,NA,NA,"null",NA,NA,NA,NA,NA,NA
"null","正在接近",NA,"html-keyboard-response",36,272350,"0.0-13.0-2.1",53661,"ListA","woman","chinese","CFA5",NA,NA,NA,"null",NA,NA,NA,NA,NA,NA
"7051",NA,NA,"survey-text",37,279406,"0.0-13.0-3.1",53661,"ListA","woman","chinese","CFA5",NA,NA,NA,NA,"{""Q0"":""贝斯""}","<img src='gifs/FemaleRace4a.gif' style='height:400px;''></img>","接近","正在接近","chinese",NA
"null","<div style=""font-size:60px;"">+</div>",NA,"html-keyboard-response",38,279908,"0.0-13.0-0.2",53661,"ListA","woman","chinese","CFA5",NA,NA,NA,"null",NA,NA,NA,NA,NA,NA
"null","<img src='gifs/MaleRace3b.gif' style='height:400px;''></img>",NA,"html-keyboard-response",39,281911,"0.0-13.0-1.2",53661,"ListA","woman","chinese","CFA5",NA,NA,NA,"null",NA,NA,NA,NA,NA,NA
"null","正在加入",NA,"html-keyboard-response",40,284913,"0.0-13.0-2.2",53661,"ListA","woman","chinese","CFA5",NA,NA,NA,"null",NA,NA,NA,NA,NA,NA
"14205",NA,NA,"survey-text",41,299122,"0.0-13.0-3.2",53661,"ListA","woman","chinese","CFA5",NA,NA,NA,NA,"{""Q0"":""麦克正在加入卢克""}","<img src='gifs/MaleRace3b.gif' style='height:400px;''></img>","加入","正在加入","chinese",NA
"null","<div style=""font-size:60px;"">+</div>",NA,"html-keyboard-response",42,299624,"0.0-13.0-0.3",53661,"ListA","woman","chinese","CFA5",NA,NA,NA,"null",NA,NA,NA,NA,NA,NA
"null","<img src='gifs/MaleRace3a.gif' style='height:400px;''></img>",NA,"html-keyboard-response",43,301627,"0.0-13.0-1.3",53661,"ListA","woman","chinese","CFA5",NA,NA,NA,"null",NA,NA,NA,NA,NA,NA
"null","正在表扬",NA,"html-keyboard-response",44,304629,"0.0-13.0-2.3",53661,"ListA","woman","chinese","CFA5",NA,NA,NA,"null",NA,NA,NA,NA,NA,NA
"21684",NA,NA,"survey-text",45,326316,"0.0-13.0-3.3",53661,"ListA","woman","chinese","CFA5",NA,NA,NA,NA,"{""Q0"":""麦克正在表扬卢克""}","<img src='gifs/MaleRace3a.gif' style='height:400px;''></img>","表扬","正在表扬","chinese",NA
"null","<div style=""font-size:60px;"">+</div>",NA,"html-keyboard-response",46,326818,"0.0-13.0-0.4",53661,"ListA","woman","chinese","CFA5",NA,NA,NA,"null",NA,NA,NA,NA,NA,NA
"null","<img src='gifs/MaleRace1b.gif' style='height:400px;''></img>",NA,"html-keyboard-response",47,328821,"0.0-13.0-1.4",53661,"ListA","woman","chinese","CFA5",NA,NA,NA,"null",NA,NA,NA,NA,NA,NA
"null","正在提到",NA,"html-keyboard-response",48,331823,"0.0-13.0-2.4",53661,"ListA","woman","chinese","CFA5",NA,NA,NA,"null",NA,NA,NA,NA,NA,NA
"22172",NA,NA,"survey-text",49,353998,"0.0-13.0-3.4",53661,"ListA","woman","chinese","CFA5",NA,NA,NA,NA,"{""Q0"":""弗雷正在提到卢克""}","<img src='gifs/MaleRace1b.gif' style='height:400px;''></img>","提到","正在提到","chinese",NA
"null","<div style=""font-size:60px;"">+</div>",NA,"html-keyboard-response",50,354500,"0.0-13.0-0.5",53661,"ListA","woman","chinese","CFA5",NA,NA,NA,"null",NA,NA,NA,NA,NA,NA
"null","<img src='gifs/MaleRace1a.gif' style='height:400px;''></img>",NA,"html-keyboard-response",51,356503,"0.0-13.0-1.5",53661,"ListA","woman","chinese","CFA5",NA,NA,NA,"null",NA,NA,NA,NA,NA,NA
"null","正在说服",NA,"html-keyboard-response",52,359506,"0.0-13.0-2.5",53661,"ListA","woman","chinese","CFA5",NA,NA,NA,"null",NA,NA,NA,NA,NA,NA
"10153",NA,NA,"survey-text",53,369662,"0.0-13.0-3.5",53661,"ListA","woman","chinese","CFA5",NA,NA,NA,NA,"{""Q0"":""弗雷正在说服卢克""}","<img src='gifs/MaleRace1a.gif' style='height:400px;''></img>","说服","正在说服","chinese",NA
"null","<div style=""font-size:60px;"">+</div>",NA,"html-keyboard-response",54,370164,"0.0-13.0-0.6",53661,"ListA","woman","chinese","CFA5",NA,NA,NA,"null",NA,NA,NA,NA,NA,NA
"null","<img src='gifs/FemaleRace1b.gif' style='height:400px;''></img>",NA,"html-keyboard-response",55,372167,"0.0-13.0-1.6",53661,"ListA","woman","chinese","CFA5",NA,NA,NA,"null",NA,NA,NA,NA,NA,NA
"null","正在提到",NA,"html-keyboard-response",56,375170,"0.0-13.0-2.6",53661,"ListA","woman","chinese","CFA5",NA,NA,NA,"null",NA,NA,NA,NA,NA,NA
"33337",NA,NA,"survey-text",57,408511,"0.0-13.0-3.6",53661,"ListA","woman","chinese","CFA5",NA,NA,NA,NA,"{""Q0"":""贝斯正在说到Rose""}","<img src='gifs/FemaleRace1b.gif' style='height:400px;''></img>","提到","正在提到","chinese",NA
"null","<div style=""font-size:60px;"">+</div>",NA,"html-keyboard-response",58,409013,"0.0-13.0-0.7",53661,"ListA","woman","chinese","CFA5",NA,NA,NA,"null",NA,NA,NA,NA,NA,NA
"null","<img src='gifs/ChineseGender1b.gif' style='height:400px;''></img>",NA,"html-keyboard-response",59,411016,"0.0-13.0-1.7",53661,"ListA","woman","chinese","CFA5",NA,NA,NA,"null",NA,NA,NA,NA,NA,NA
"null","正在跟随",NA,"html-keyboard-response",60,414018,"0.0-13.0-2.7",53661,"ListA","woman","chinese","CFA5",NA,NA,NA,"null",NA,NA,NA,NA,NA,NA
"14664",NA,NA,"survey-text",61,428686,"0.0-13.0-3.7",53661,"ListA","woman","chinese","CFA5",NA,NA,NA,NA,"{""Q0"":""贝斯正在跟随弗雷""}","<img src='gifs/ChineseGender1b.gif' style='height:400px;''></img>","跟随","正在跟随","chinese",NA
"null","<div style=""font-size:60px;"">+</div>",NA,"html-keyboard-response",62,429188,"0.0-13.0-0.8",53661,"ListA","woman","chinese","CFA5",NA,NA,NA,"null",NA,NA,NA,NA,NA,NA
"null","<img src='gifs/ChineseGender2a.gif' style='height:400px;''></img>",NA,"html-keyboard-response",63,431191,"0.0-13.0-1.8",53661,"ListA","woman","chinese","CFA5",NA,NA,NA,"null",NA,NA,NA,NA,NA,NA
"null","正在联系",NA,"html-keyboard-response",64,434193,"0.0-13.0-2.8",53661,"ListA","woman","chinese","CFA5",NA,NA,NA,"null",NA,NA,NA,NA,NA,NA
"12426",NA,NA,"survey-text",65,446623,"0.0-13.0-3.8",53661,"ListA","woman","chinese","CFA5",NA,NA,NA,NA,"{""Q0"":""凯特正在联系弗雷""}","<img src='gifs/ChineseGender2a.gif' style='height:400px;''></img>","联系","正在联系","chinese",NA
"null","<div style=""font-size:60px;"">+</div>",NA,"html-keyboard-response",66,447125,"0.0-13.0-0.9",53661,"ListA","woman","chinese","CFA5",NA,NA,NA,"null",NA,NA,NA,NA,NA,NA
"null","<img src='gifs/BlackGender2b.gif' style='height:400px;''></img>",NA,"html-keyboard-response",67,449127,"0.0-13.0-1.9",53661,"ListA","woman","chinese","CFA5",NA,NA,NA,"null",NA,NA,NA,NA,NA,NA
"null","正在陪伴",NA,"html-keyboard-response",68,452130,"0.0-13.0-2.9",53661,"ListA","woman","chinese","CFA5",NA,NA,NA,"null",NA,NA,NA,NA,NA,NA
"22216",NA,NA,"survey-text",69,474349,"0.0-13.0-3.9",53661,"ListA","woman","chinese","CFA5",NA,NA,NA,NA,"{""Q0"":""柔斯正在陪伴""}","<img src='gifs/BlackGender2b.gif' style='height:400px;''></img>","陪伴","正在陪伴","chinese",NA
"null","<div style=""font-size:60px;"">+</div>",NA,"html-keyboard-response",70,474852,"0.0-13.0-0.10",53661,"ListA","woman","chinese","CFA5",NA,NA,NA,"null",NA,NA,NA,NA,NA,NA
"null","<img src='gifs/FemaleRace2a.gif' style='height:400px;''></img>",NA,"html-keyboard-response",71,476855,"0.0-13.0-1.10",53661,"ListA","woman","chinese","CFA5",NA,NA,NA,"null",NA,NA,NA,NA,NA,NA
"null","正在聘用",NA,"html-keyboard-response",72,479857,"0.0-13.0-2.10",53661,"ListA","woman","chinese","CFA5",NA,NA,NA,"null",NA,NA,NA,NA,NA,NA
"10186",NA,NA,"survey-text",73,490047,"0.0-13.0-3.10",53661,"ListA","woman","chinese","CFA5",NA,NA,NA,NA,"{""Q0"":""贝斯正在聘用霍普""}","<img src='gifs/FemaleRace2a.gif' style='height:400px;''></img>","聘用","正在聘用","chinese",NA
"null","<div style=""font-size:60px;"">+</div>",NA,"html-keyboard-response",74,490549,"0.0-13.0-0.11",53661,"ListA","woman","chinese","CFA5",NA,NA,NA,"null",NA,NA,NA,NA,NA,NA
"null","<img src='gifs/ChineseGender2b.gif' style='height:400px;''></img>",NA,"html-keyboard-response",75,492552,"0.0-13.0-1.11",53661,"ListA","woman","chinese","CFA5",NA,NA,NA,"null",NA,NA,NA,NA,NA,NA
"null","正在陪伴",NA,"html-keyboard-response",76,495554,"0.0-13.0-2.11",53661,"ListA","woman","chinese","CFA5",NA,NA,NA,"null",NA,NA,NA,NA,NA,NA
"11026",NA,NA,"survey-text",77,506583,"0.0-13.0-3.11",53661,"ListA","woman","chinese","CFA5",NA,NA,NA,NA,"{""Q0"":""弗雷正在陪伴凯特""}","<img src='gifs/ChineseGender2b.gif' style='height:400px;''></img>","陪伴","正在陪伴","chinese",NA
"null","<div style=""font-size:60px;"">+</div>",NA,"html-keyboard-response",78,507084,"0.0-13.0-0.12",53661,"ListA","woman","chinese","CFA5",NA,NA,NA,"null",NA,NA,NA,NA,NA,NA
"null","<img src='gifs/ChineseGender3b.gif' style='height:400px;''></img>",NA,"html-keyboard-response",79,509086,"0.0-13.0-1.12",53661,"ListA","woman","chinese","CFA5",NA,NA,NA,"null",NA,NA,NA,NA,NA,NA
"null","正在触摸",NA,"html-keyboard-response",80,512088,"0.0-13.0-2.12",53661,"ListA","woman","chinese","CFA5",NA,NA,NA,"null",NA,NA,NA,NA,NA,NA
"11727",NA,NA,"survey-text",81,523818,"0.0-13.0-3.12",53661,"ListA","woman","chinese","CFA5",NA,NA,NA,NA,"{""Q0"":""麦克正在触摸凯特""}","<img src='gifs/ChineseGender3b.gif' style='height:400px;''></img>","触摸","正在触摸","chinese",NA
"null","<div style=""font-size:60px;"">+</div>",NA,"html-keyboard-response",82,524321,"0.0-13.0-0.13",53661,"ListA","woman","chinese","CFA5",NA,NA,NA,"null",NA,NA,NA,NA,NA,NA
"null","<img src='gifs/MaleRace4a.gif' style='height:400px;''></img>",NA,"html-keyboard-response",83,526324,"0.0-13.0-1.13",53661,"ListA","woman","chinese","CFA5",NA,NA,NA,"null",NA,NA,NA,NA,NA,NA
"null","正在说服",NA,"html-keyboard-response",84,529326,"0.0-13.0-2.13",53661,"ListA","woman","chinese","CFA5",NA,NA,NA,"null",NA,NA,NA,NA,NA,NA
"18608.000000000116",NA,NA,"survey-text",85,547938,"0.0-13.0-3.13",53661,"ListA","woman","chinese","CFA5",NA,NA,NA,NA,"{""Q0"":""麦克正在说服""}","<img src='gifs/MaleRace4a.gif' style='height:400px;''></img>","说服","正在说服","chinese",NA
"null","<div style=""font-size:60px;"">+</div>",NA,"html-keyboard-response",86,548440,"0.0-13.0-0.14",53661,"ListA","woman","chinese","CFA5",NA,NA,NA,"null",NA,NA,NA,NA,NA,NA
"null","<img src='gifs/BlackGender3a.gif' style='height:400px;''></img>",NA,"html-keyboard-response",87,550442,"0.0-13.0-1.14",53661,"ListA","woman","chinese","CFA5",NA,NA,NA,"null",NA,NA,NA,NA,NA,NA
"null","正在聘用",NA,"html-keyboard-response",88,553445,"0.0-13.0-2.14",53661,"ListA","woman","chinese","CFA5",NA,NA,NA,"null",NA,NA,NA,NA,NA,NA
"11887",NA,NA,"survey-text",89,565335,"0.0-13.0-3.14",53661,"ListA","woman","chinese","CFA5",NA,NA,NA,NA,"{""Q0"":""霍普正在聘用""}","<img src='gifs/BlackGender3a.gif' style='height:400px;''></img>","聘用","正在聘用","chinese",NA
"null","<div style=""font-size:60px;"">+</div>",NA,"html-keyboard-response",90,565837,"0.0-13.0-0.15",53661,"ListA","woman","chinese","CFA5",NA,NA,NA,"null",NA,NA,NA,NA,NA,NA
"null","<img src='gifs/BlackGender1a.gif' style='height:400px;''></img>",NA,"html-keyboard-response",91,567840,"0.0-13.0-1.15",53661,"ListA","woman","chinese","CFA5",NA,NA,NA,"null",NA,NA,NA,NA,NA,NA
"null","正在答应",NA,"html-keyboard-response",92,570842,"0.0-13.0-2.15",53661,"ListA","woman","chinese","CFA5",NA,NA,NA,"null",NA,NA,NA,NA,NA,NA
"15900",NA,NA,"survey-text",93,586745,"0.0-13.0-3.15",53661,"ListA","woman","chinese","CFA5",NA,NA,NA,NA,"{""Q0"":""卢克正在答应霍普""}","<img src='gifs/BlackGender1a.gif' style='height:400px;''></img>","答应","正在答应","chinese",NA
"null","<div style=""font-size:60px;"">+</div>",NA,"html-keyboard-response",94,587248,"0.0-13.0-0.16",53661,"ListA","woman","chinese","CFA5",NA,NA,NA,"null",NA,NA,NA,NA,NA,NA
"null","<img src='gifs/FemaleRace1b.gif' style='height:400px;''></img>",NA,"html-keyboard-response",95,589249,"0.0-13.0-1.16",53661,"ListA","woman","chinese","CFA5",NA,NA,NA,"null",NA,NA,NA,NA,NA,NA
"null","正在表扬",NA,"html-keyboard-response",96,592252,"0.0-13.0-2.16",53661,"ListA","woman","chinese","CFA5",NA,NA,NA,"null",NA,NA,NA,NA,NA,NA
"15278",NA,NA,"survey-text",97,607532,"0.0-13.0-3.16",53661,"ListA","woman","chinese","CFA5",NA,NA,NA,NA,"{""Q0"":""贝斯正在表扬Rose""}","<img src='gifs/FemaleRace1b.gif' style='height:400px;''></img>","表扬","正在表扬","chinese",NA
"null","<div style=""font-size:60px;"">+</div>",NA,"html-keyboard-response",98,608034,"0.0-13.0-0.17",53661,"ListA","woman","chinese","CFA5",NA,NA,NA,"null",NA,NA,NA,NA,NA,NA
"null","<img src='gifs/BlackGender3a.gif' style='height:400px;''></img>",NA,"html-keyboard-response",99,610037,"0.0-13.0-1.17",53661,"ListA","woman","chinese","CFA5",NA,NA,NA,"null",NA,NA,NA,NA,NA,NA
"null","正在跟随",NA,"html-keyboard-response",100,613039,"0.0-13.0-2.17",53661,"ListA","woman","chinese","CFA5",NA,NA,NA,"null",NA,NA,NA,NA,NA,NA
"8089",NA,NA,"survey-text",101,621132,"0.0-13.0-3.17",53661,"ListA","woman","chinese","CFA5",NA,NA,NA,NA,"{""Q0"":""卢克正在跟随霍普""}","<img src='gifs/BlackGender3a.gif' style='height:400px;''></img>","跟随","正在跟随","chinese",NA
"25228.000000000116","<img src='img/portrait_matrix_listA_chinese.jpg' style='width:900px;height:500px;''></img><p>如果您已经记住了所有的人物和名字，请点击继续。</p><p><strong>请注意：您对先前记忆的面孔将在本实验中被测试5次。</strong></p>",0,"html-button-response",102,646361,"0.0-14.0-0.0",53661,"ListA","woman","chinese","CFA5",NA,NA,NA,NA,NA,NA,NA,NA,NA,NA
"4616","<img src=""portrait/BM2.jpg""style=""height:400px;""></img>",5,"html-button-response",103,651981,"0.0-14.0-1.0",53661,"ListA","woman","chinese","CFA5",NA,"true",5,NA,NA,NA,NA,NA,NA,NA
"null","正确",NA,"html-keyboard-response",104,653485,"0.0-14.0-2.0-0.0",53661,"ListA","woman","chinese","CFA5",NA,NA,NA,"null",NA,NA,NA,NA,NA,NA
"2263","<img src=""portrait/BW2.jpg""style=""height:400px;""></img>",2,"html-button-response",105,655752,"0.0-14.0-4.0",53661,"ListA","woman","chinese","CFA5",NA,"true",2,NA,NA,NA,NA,NA,NA,NA
"null","正确",NA,"html-keyboard-response",106,657255,"0.0-14.0-5.0-0.0",53661,"ListA","woman","chinese","CFA5",NA,NA,NA,"null",NA,NA,NA,NA,NA,NA
"3330","<img src=""portrait/WW2.jpg""style=""height:400px;""></img>",1,"html-button-response",107,660588,"0.0-14.0-7.0",53661,"ListA","woman","chinese","CFA5",NA,"true",3,NA,NA,NA,NA,NA,NA,NA
"3050","<img src=""portrait/WW2.jpg""style=""height:400px;""></img>",3,"html-button-response",108,664641,"0.0-14.0-9.0-0.0",53661,"ListA","woman","chinese","CFA5",NA,"false",3,NA,NA,NA,NA,NA,NA,NA
"null","正确",NA,"html-keyboard-response",109,666144,"0.0-14.0-9.0-1.0-0.0",53661,"ListA","woman","chinese","CFA5",NA,NA,NA,"null",NA,NA,NA,NA,NA,NA
"5934","<img src=""portrait/WW1.jpg""style=""height:400px;""></img>",1,"html-button-response",110,672081,"0.0-14.0-10.0",53661,"ListA","woman","chinese","CFA5",NA,"true",1,NA,NA,NA,NA,NA,NA,NA
"null","正确",NA,"html-keyboard-response",111,673584,"0.0-14.0-11.0-0.0",53661,"ListA","woman","chinese","CFA5",NA,NA,NA,"null",NA,NA,NA,NA,NA,NA
"14066","<img src=""portrait/WM2.jpg""style=""height:400px;""></img>",7,"html-button-response",112,687652,"0.0-14.0-13.0",53661,"ListA","woman","chinese","CFA5",NA,"true",7,NA,NA,NA,NA,NA,NA,NA
"null","正确",NA,"html-keyboard-response",113,689155,"0.0-14.0-14.0-0.0",53661,"ListA","woman","chinese","CFA5",NA,NA,NA,"null",NA,NA,NA,NA,NA,NA
"2297","<img src=""portrait/BM1.jpg""style=""height:400px;""></img>",4,"html-button-response",114,691454,"0.0-14.0-16.0",53661,"ListA","woman","chinese","CFA5",NA,"true",4,NA,NA,NA,NA,NA,NA,NA
"null","正确",NA,"html-keyboard-response",115,692957,"0.0-14.0-17.0-0.0",53661,"ListA","woman","chinese","CFA5",NA,NA,NA,"null",NA,NA,NA,NA,NA,NA
"2081","<img src=""portrait/BW1.jpg""style=""height:400px;""></img>",0,"html-button-response",116,695040,"0.0-14.0-19.0",53661,"ListA","woman","chinese","CFA5",NA,"true",0,NA,NA,NA,NA,NA,NA,NA
"null","正确",NA,"html-keyboard-response",117,696544,"0.0-14.0-20.0-0.0",53661,"ListA","woman","chinese","CFA5",NA,NA,NA,"null",NA,NA,NA,NA,NA,NA
"2397.0000000001164","<img src=""portrait/WM1.jpg""style=""height:400px;""></img>",6,"html-button-response",118,698944,"0.0-14.0-22.0",53661,"ListA","woman","chinese","CFA5",NA,"true",6,NA,NA,NA,NA,NA,NA,NA
"null","正确",NA,"html-keyboard-response",119,700447,"0.0-14.0-23.0-0.0",53661,"ListA","woman","chinese","CFA5",NA,NA,NA,"null",NA,NA,NA,NA,NA,NA
"1380","<p>您第一次在8题里答对了 7 题。 请点击继续</p>",0,"html-button-response",120,701829,"0.0-14.0-25.0",53661,"ListA","woman","chinese","CFA5",NA,NA,NA,NA,NA,NA,NA,NA,NA,NA
"4801.999999999884","因为您没有全部答对，记忆游戏将重新开始。请点击继续。",0,"html-button-response",121,707634,"0.0-14.0-26.0-0.0",53661,"ListA","woman","chinese","CFA5",NA,NA,NA,NA,NA,NA,NA,NA,NA,NA
"1613","<img src='img/portrait_matrix_listA_chinese.jpg' style='width:900px;height:500px;''></img><p>如果您已经记住了所有的人物和名字，请点击继续。</p><p><strong>请注意：您对先前记忆的面孔将在本实验中被测试5次。</strong></p>",0,"html-button-response",122,710250,"0.0-14.1-0.1",53661,"ListA","woman","chinese","CFA5",NA,NA,NA,NA,NA,NA,NA,NA,NA,NA
"5368","<img src=""portrait/BM2.jpg""style=""height:400px;""></img>",5,"html-button-response",123,716620,"0.0-14.1-1.1",53661,"ListA","woman","chinese","CFA5",NA,"true",5,NA,NA,NA,NA,NA,NA,NA
"null","正确",NA,"html-keyboard-response",124,718124,"0.0-14.1-2.1-0.1",53661,"ListA","woman","chinese","CFA5",NA,NA,NA,"null",NA,NA,NA,NA,NA,NA
"7001","<img src=""portrait/BW2.jpg""style=""height:400px;""></img>",2,"html-button-response",125,725127,"0.0-14.1-4.1",53661,"ListA","woman","chinese","CFA5",NA,"true",2,NA,NA,NA,NA,NA,NA,NA
"null","正确",NA,"html-keyboard-response",126,726631,"0.0-14.1-5.1-0.1",53661,"ListA","woman","chinese","CFA5",NA,NA,NA,"null",NA,NA,NA,NA,NA,NA
"3310.0000000001164","<img src=""portrait/WW2.jpg""style=""height:400px;""></img>",3,"html-button-response",127,729943,"0.0-14.1-7.1",53661,"ListA","woman","chinese","CFA5",NA,"true",3,NA,NA,NA,NA,NA,NA,NA
"null","正确",NA,"html-keyboard-response",128,731447,"0.0-14.1-8.1-0.1",53661,"ListA","woman","chinese","CFA5",NA,NA,NA,"null",NA,NA,NA,NA,NA,NA
"1330","<img src=""portrait/WW1.jpg""style=""height:400px;""></img>",1,"html-button-response",129,732779,"0.0-14.1-10.1",53661,"ListA","woman","chinese","CFA5",NA,"true",1,NA,NA,NA,NA,NA,NA,NA
"null","正确",NA,"html-keyboard-response",130,734282,"0.0-14.1-11.1-0.1",53661,"ListA","woman","chinese","CFA5",NA,NA,NA,"null",NA,NA,NA,NA,NA,NA
"1596","<img src=""portrait/WM2.jpg""style=""height:400px;""></img>",7,"html-button-response",131,735881,"0.0-14.1-13.1",53661,"ListA","woman","chinese","CFA5",NA,"true",7,NA,NA,NA,NA,NA,NA,NA
"null","正确",NA,"html-keyboard-response",132,737384,"0.0-14.1-14.1-0.1",53661,"ListA","woman","chinese","CFA5",NA,NA,NA,"null",NA,NA,NA,NA,NA,NA
"3232","<img src=""portrait/BM1.jpg""style=""height:400px;""></img>",4,"html-button-response",133,740619,"0.0-14.1-16.1",53661,"ListA","woman","chinese","CFA5",NA,"true",4,NA,NA,NA,NA,NA,NA,NA
"null","正确",NA,"html-keyboard-response",134,742122,"0.0-14.1-17.1-0.1",53661,"ListA","woman","chinese","CFA5",NA,NA,NA,"null",NA,NA,NA,NA,NA,NA
"2081","<img src=""portrait/BW1.jpg""style=""height:400px;""></img>",0,"html-button-response",135,744204,"0.0-14.1-19.1",53661,"ListA","woman","chinese","CFA5",NA,"true",0,NA,NA,NA,NA,NA,NA,NA
"null","正确",NA,"html-keyboard-response",136,745708,"0.0-14.1-20.1-0.1",53661,"ListA","woman","chinese","CFA5",NA,NA,NA,"null",NA,NA,NA,NA,NA,NA
"1781.0000000001164","<img src=""portrait/WM1.jpg""style=""height:400px;""></img>",6,"html-button-response",137,747491,"0.0-14.1-22.1",53661,"ListA","woman","chinese","CFA5",NA,"true",6,NA,NA,NA,NA,NA,NA,NA
"null","正确",NA,"html-keyboard-response",138,748994,"0.0-14.1-23.1-0.1",53661,"ListA","woman","chinese","CFA5",NA,NA,NA,"null",NA,NA,NA,NA,NA,NA
"1147","<p>您第一次在8题里答对了 8 题。 请点击继续</p>",0,"html-button-response",139,750142,"0.0-14.1-25.1",53661,"ListA","woman","chinese","CFA5",NA,NA,NA,NA,NA,NA,NA,NA,NA,NA
"null","<div style=""font-size:60px;"">+</div>",NA,"html-keyboard-response",140,751645,"0.0-15.0-0.0",53661,"ListA","woman","chinese","CFA5",NA,NA,NA,"null",NA,NA,NA,NA,NA,NA
"null","<img src='gifs/BlackGender1b.gif' style='height:400px;''></img>",NA,"html-keyboard-response",141,753648,"0.0-15.0-1.0",53661,"ListA","woman","chinese","CFA5",NA,NA,NA,"null",NA,NA,NA,NA,NA,NA
"null","正在面向",NA,"html-keyboard-response",142,756650,"0.0-15.0-2.0",53661,"ListA","woman","chinese","CFA5",NA,NA,NA,"null",NA,NA,NA,NA,NA,NA
"9497",NA,NA,"survey-text",143,766151,"0.0-15.0-3.0",53661,"ListA","woman","chinese","CFA5",NA,NA,NA,NA,"{""Q0"":""露丝正在面向卢克""}","<img src='gifs/BlackGender1b.gif' style='height:400px;''></img>","面向","正在面向","chinese",NA
"null","<div style=""font-size:60px;"">+</div>",NA,"html-keyboard-response",144,766654,"0.0-15.0-0.1",53661,"ListA","woman","chinese","CFA5",NA,NA,NA,"null",NA,NA,NA,NA,NA,NA
"null","<img src='gifs/FemaleRace3b.gif' style='height:400px;''></img>",NA,"html-keyboard-response",145,768656,"0.0-15.0-1.1",53661,"ListA","woman","chinese","CFA5",NA,NA,NA,"null",NA,NA,NA,NA,NA,NA
"null","正在触摸",NA,"html-keyboard-response",146,771664,"0.0-15.0-2.1",53661,"ListA","woman","chinese","CFA5",NA,NA,NA,"null",NA,NA,NA,NA,NA,NA
"7436",NA,NA,"survey-text",147,779108,"0.0-15.0-3.1",53661,"ListA","woman","chinese","CFA5",NA,NA,NA,NA,"{""Q0"":""露丝正在触摸贝斯""}","<img src='gifs/FemaleRace3b.gif' style='height:400px;''></img>","触摸","正在触摸","chinese",NA
"null","<div style=""font-size:60px;"">+</div>",NA,"html-keyboard-response",148,779611,"0.0-15.0-0.2",53661,"ListA","woman","chinese","CFA5",NA,NA,NA,"null",NA,NA,NA,NA,NA,NA
"null","<img src='gifs/BlackGender4a.gif' style='height:400px;''></img>",NA,"html-keyboard-response",149,781613,"0.0-15.0-1.2",53661,"ListA","woman","chinese","CFA5",NA,NA,NA,"null",NA,NA,NA,NA,NA,NA
"null","正在介绍",NA,"html-keyboard-response",150,784616,"0.0-15.0-2.2",53661,"ListA","woman","chinese","CFA5",NA,NA,NA,"null",NA,NA,NA,NA,NA,NA
"13381",NA,NA,"survey-text",151,798001,"0.0-15.0-3.2",53661,"ListA","woman","chinese","CFA5",NA,NA,NA,NA,"{""Q0"":""霍普正在介绍戴夫""}","<img src='gifs/BlackGender4a.gif' style='height:400px;''></img>","介绍","正在介绍","chinese",NA
"null","<div style=""font-size:60px;"">+</div>",NA,"html-keyboard-response",152,798503,"0.0-15.0-0.3",53661,"ListA","woman","chinese","CFA5",NA,NA,NA,"null",NA,NA,NA,NA,NA,NA
"null","<img src='gifs/ChineseGender1b.gif' style='height:400px;''></img>",NA,"html-keyboard-response",153,800506,"0.0-15.0-1.3",53661,"ListA","woman","chinese","CFA5",NA,NA,NA,"null",NA,NA,NA,NA,NA,NA
"null","正在提到",NA,"html-keyboard-response",154,803508,"0.0-15.0-2.3",53661,"ListA","woman","chinese","CFA5",NA,NA,NA,"null",NA,NA,NA,NA,NA,NA
"7228",NA,NA,"survey-text",155,810739,"0.0-15.0-3.3",53661,"ListA","woman","chinese","CFA5",NA,NA,NA,NA,"{""Q0"":""麦克正在提到凯特""}","<img src='gifs/ChineseGender1b.gif' style='height:400px;''></img>","提到","正在提到","chinese",NA
"null","<div style=""font-size:60px;"">+</div>",NA,"html-keyboard-response",156,811241,"0.0-15.0-0.4",53661,"ListA","woman","chinese","CFA5",NA,NA,NA,"null",NA,NA,NA,NA,NA,NA
"null","<img src='gifs/ChineseGender1a.gif' style='height:400px;''></img>",NA,"html-keyboard-response",157,813243,"0.0-15.0-1.4",53661,"ListA","woman","chinese","CFA5",NA,NA,NA,"null",NA,NA,NA,NA,NA,NA
"null","正在加入",NA,"html-keyboard-response",158,816246,"0.0-15.0-2.4",53661,"ListA","woman","chinese","CFA5",NA,NA,NA,"null",NA,NA,NA,NA,NA,NA
"6637",NA,NA,"survey-text",159,822886,"0.0-15.0-3.4",53661,"ListA","woman","chinese","CFA5",NA,NA,NA,NA,"{""Q0"":""麦克正在加入凯特""}","<img src='gifs/ChineseGender1a.gif' style='height:400px;''></img>","加入","正在加入","chinese",NA
"null","<div style=""font-size:60px;"">+</div>",NA,"html-keyboard-response",160,823388,"0.0-15.0-0.5",53661,"ListA","woman","chinese","CFA5",NA,NA,NA,"null",NA,NA,NA,NA,NA,NA
"null","<img src='gifs/FemaleRace3b.gif' style='height:400px;''></img>",NA,"html-keyboard-response",161,825391,"0.0-15.0-1.5",53661,"ListA","woman","chinese","CFA5",NA,NA,NA,"null",NA,NA,NA,NA,NA,NA
"null","正在表扬",NA,"html-keyboard-response",162,828393,"0.0-15.0-2.5",53661,"ListA","woman","chinese","CFA5",NA,NA,NA,"null",NA,NA,NA,NA,NA,NA
"6939",NA,NA,"survey-text",163,835339,"0.0-15.0-3.5",53661,"ListA","woman","chinese","CFA5",NA,NA,NA,NA,"{""Q0"":""露丝正在表扬贝斯""}","<img src='gifs/FemaleRace3b.gif' style='height:400px;''></img>","表扬","正在表扬","chinese",NA
"null","<div style=""font-size:60px;"">+</div>",NA,"html-keyboard-response",164,835841,"0.0-15.0-0.6",53661,"ListA","woman","chinese","CFA5",NA,NA,NA,"null",NA,NA,NA,NA,NA,NA
"null","<img src='gifs/FemaleRace4b.gif' style='height:400px;''></img>",NA,"html-keyboard-response",165,837843,"0.0-15.0-1.6",53661,"ListA","woman","chinese","CFA5",NA,NA,NA,"null",NA,NA,NA,NA,NA,NA
"null","正在介绍",NA,"html-keyboard-response",166,840846,"0.0-15.0-2.6",53661,"ListA","woman","chinese","CFA5",NA,NA,NA,"null",NA,NA,NA,NA,NA,NA
"6565",NA,NA,"survey-text",167,847415,"0.0-15.0-3.6",53661,"ListA","woman","chinese","CFA5",NA,NA,NA,NA,"{""Q0"":""霍普正在介绍贝斯""}","<img src='gifs/FemaleRace4b.gif' style='height:400px;''></img>","介绍","正在介绍","chinese",NA
"null","<div style=""font-size:60px;"">+</div>",NA,"html-keyboard-response",168,847918,"0.0-15.0-0.7",53661,"ListA","woman","chinese","CFA5",NA,NA,NA,"null",NA,NA,NA,NA,NA,NA
"null","<img src='gifs/BlackGender3b.gif' style='height:400px;''></img>",NA,"html-keyboard-response",169,849921,"0.0-15.0-1.7",53661,"ListA","woman","chinese","CFA5",NA,NA,NA,"null",NA,NA,NA,NA,NA,NA
"null","正在走向",NA,"html-keyboard-response",170,852923,"0.0-15.0-2.7",53661,"ListA","woman","chinese","CFA5",NA,NA,NA,"null",NA,NA,NA,NA,NA,NA
"9376.999999999884",NA,NA,"survey-text",171,862304,"0.0-15.0-3.7",53661,"ListA","woman","chinese","CFA5",NA,NA,NA,NA,"{""Q0"":""霍普正在走向卢克""}","<img src='gifs/BlackGender3b.gif' style='height:400px;''></img>","走向","正在走向","chinese",NA
"null","<div style=""font-size:60px;"">+</div>",NA,"html-keyboard-response",172,862807,"0.0-15.0-0.8",53661,"ListA","woman","chinese","CFA5",NA,NA,NA,"null",NA,NA,NA,NA,NA,NA
"null","<img src='gifs/BlackGender4b.gif' style='height:400px;''></img>",NA,"html-keyboard-response",173,864809,"0.0-15.0-1.8",53661,"ListA","woman","chinese","CFA5",NA,NA,NA,"null",NA,NA,NA,NA,NA,NA
"null","正在走向",NA,"html-keyboard-response",174,867812,"0.0-15.0-2.8",53661,"ListA","woman","chinese","CFA5",NA,NA,NA,"null",NA,NA,NA,NA,NA,NA
"8004",NA,NA,"survey-text",175,875820,"0.0-15.0-3.8",53661,"ListA","woman","chinese","CFA5",NA,NA,NA,NA,"{""Q0"":""戴夫正在走向霍普""}","<img src='gifs/BlackGender4b.gif' style='height:400px;''></img>","走向","正在走向","chinese",NA
"null","<div style=""font-size:60px;"">+</div>",NA,"html-keyboard-response",176,876323,"0.0-15.0-0.9",53661,"ListA","woman","chinese","CFA5",NA,NA,NA,"null",NA,NA,NA,NA,NA,NA
"null","<img src='gifs/ChineseGender3b.gif' style='height:400px;''></img>",NA,"html-keyboard-response",177,878326,"0.0-15.0-1.9",53661,"ListA","woman","chinese","CFA5",NA,NA,NA,"null",NA,NA,NA,NA,NA,NA
"null","正在触摸",NA,"html-keyboard-response",178,881331,"0.0-15.0-2.9",53661,"ListA","woman","chinese","CFA5",NA,NA,NA,"null",NA,NA,NA,NA,NA,NA
"7104",NA,NA,"survey-text",179,888440,"0.0-15.0-3.9",53661,"ListA","woman","chinese","CFA5",NA,NA,NA,NA,"{""Q0"":""麦克 正在触摸贝斯""}","<img src='gifs/ChineseGender3b.gif' style='height:400px;''></img>","触摸","正在触摸","chinese",NA
"null","<div style=""font-size:60px;"">+</div>",NA,"html-keyboard-response",180,888942,"0.0-15.0-0.10",53661,"ListA","woman","chinese","CFA5",NA,NA,NA,"null",NA,NA,NA,NA,NA,NA
"null","<img src='gifs/ChineseGender4a.gif' style='height:400px;''></img>",NA,"html-keyboard-response",181,890945,"0.0-15.0-1.10",53661,"ListA","woman","chinese","CFA5",NA,NA,NA,"null",NA,NA,NA,NA,NA,NA
"null","正在陪伴",NA,"html-keyboard-response",182,893947,"0.0-15.0-2.10",53661,"ListA","woman","chinese","CFA5",NA,NA,NA,"null",NA,NA,NA,NA,NA,NA
"6968.000000000116",NA,NA,"survey-text",183,900918,"0.0-15.0-3.10",53661,"ListA","woman","chinese","CFA5",NA,NA,NA,NA,"{""Q0"":""凯特正在陪伴麦克""}","<img src='gifs/ChineseGender4a.gif' style='height:400px;''></img>","陪伴","正在陪伴","chinese",NA
"null","<div style=""font-size:60px;"">+</div>",NA,"html-keyboard-response",184,901421,"0.0-15.0-0.11",53661,"ListA","woman","chinese","CFA5",NA,NA,NA,"null",NA,NA,NA,NA,NA,NA
"null","<img src='gifs/MaleRace2b.gif' style='height:400px;''></img>",NA,"html-keyboard-response",185,903424,"0.0-15.0-1.11",53661,"ListA","woman","chinese","CFA5",NA,NA,NA,"null",NA,NA,NA,NA,NA,NA
"null","正在介绍",NA,"html-keyboard-response",186,906431,"0.0-15.0-2.11",53661,"ListA","woman","chinese","CFA5",NA,NA,NA,"null",NA,NA,NA,NA,NA,NA
"9146.000000000116",NA,NA,"survey-text",187,915581,"0.0-15.0-3.11",53661,"ListA","woman","chinese","CFA5",NA,NA,NA,NA,"{""Q0"":""麦克正在介绍戴夫""}","<img src='gifs/MaleRace2b.gif' style='height:400px;''></img>","介绍","正在介绍","chinese",NA
"null","<div style=""font-size:60px;"">+</div>",NA,"html-keyboard-response",188,916082,"0.0-15.0-0.12",53661,"ListA","woman","chinese","CFA5",NA,NA,NA,"null",NA,NA,NA,NA,NA,NA
"null","<img src='gifs/FemaleRace3a.gif' style='height:400px;''></img>",NA,"html-keyboard-response",189,918085,"0.0-15.0-1.12",53661,"ListA","woman","chinese","CFA5",NA,NA,NA,"null",NA,NA,NA,NA,NA,NA
"null","正在触摸",NA,"html-keyboard-response",190,921088,"0.0-15.0-2.12",53661,"ListA","woman","chinese","CFA5",NA,NA,NA,"null",NA,NA,NA,NA,NA,NA
"6753.999999999884",NA,NA,"survey-text",191,927846,"0.0-15.0-3.12",53661,"ListA","woman","chinese","CFA5",NA,NA,NA,NA,"{""Q0"":""露丝正在触摸贝斯""}","<img src='gifs/FemaleRace3a.gif' style='height:400px;''></img>","触摸","正在触摸","chinese",NA
"null","<div style=""font-size:60px;"">+</div>",NA,"html-keyboard-response",192,928347,"0.0-15.0-0.13",53661,"ListA","woman","chinese","CFA5",NA,NA,NA,"null",NA,NA,NA,NA,NA,NA
"null","<img src='gifs/BlackGender1b.gif' style='height:400px;''></img>",NA,"html-keyboard-response",193,930350,"0.0-15.0-1.13",53661,"ListA","woman","chinese","CFA5",NA,NA,NA,"null",NA,NA,NA,NA,NA,NA
"null","正在聘用",NA,"html-keyboard-response",194,933353,"0.0-15.0-2.13",53661,"ListA","woman","chinese","CFA5",NA,NA,NA,"null",NA,NA,NA,NA,NA,NA
"7688",NA,NA,"survey-text",195,941045,"0.0-15.0-3.13",53661,"ListA","woman","chinese","CFA5",NA,NA,NA,NA,"{""Q0"":""露丝正在聘用卢克""}","<img src='gifs/BlackGender1b.gif' style='height:400px;''></img>","聘用","正在聘用","chinese",NA
"null","<div style=""font-size:60px;"">+</div>",NA,"html-keyboard-response",196,941547,"0.0-15.0-0.14",53661,"ListA","woman","chinese","CFA5",NA,NA,NA,"null",NA,NA,NA,NA,NA,NA
"null","<img src='gifs/FemaleRace1a.gif' style='height:400px;''></img>",NA,"html-keyboard-response",197,943550,"0.0-15.0-1.14",53661,"ListA","woman","chinese","CFA5",NA,NA,NA,"null",NA,NA,NA,NA,NA,NA
"null","正在看着",NA,"html-keyboard-response",198,946552,"0.0-15.0-2.14",53661,"ListA","woman","chinese","CFA5",NA,NA,NA,"null",NA,NA,NA,NA,NA,NA
"5893",NA,NA,"survey-text",199,952455,"0.0-15.0-3.14",53661,"ListA","woman","chinese","CFA5",NA,NA,NA,NA,"{""Q0"":""凯特正在看着露丝""}","<img src='gifs/FemaleRace1a.gif' style='height:400px;''></img>","看着","正在看着","chinese",NA
"null","<div style=""font-size:60px;"">+</div>",NA,"html-keyboard-response",200,952957,"0.0-15.0-0.15",53661,"ListA","woman","chinese","CFA5",NA,NA,NA,"null",NA,NA,NA,NA,NA,NA
"null","<img src='gifs/BlackGender2a.gif' style='height:400px;''></img>",NA,"html-keyboard-response",201,954960,"0.0-15.0-1.15",53661,"ListA","woman","chinese","CFA5",NA,NA,NA,"null",NA,NA,NA,NA,NA,NA
"null","正在聆听",NA,"html-keyboard-response",202,957963,"0.0-15.0-2.15",53661,"ListA","woman","chinese","CFA5",NA,NA,NA,"null",NA,NA,NA,NA,NA,NA
"19857.000000000116",NA,NA,"survey-text",203,977827,"0.0-15.0-3.15",53661,"ListA","woman","chinese","CFA5",NA,NA,NA,NA,"{""Q0"":""戴夫正在聆听露丝""}","<img src='gifs/BlackGender2a.gif' style='height:400px;''></img>","聆听","正在聆听","chinese",NA
"null","<div style=""font-size:60px;"">+</div>",NA,"html-keyboard-response",204,978329,"0.0-15.0-0.16",53661,"ListA","woman","chinese","CFA5",NA,NA,NA,"null",NA,NA,NA,NA,NA,NA
"null","<img src='gifs/MaleRace4b.gif' style='height:400px;''></img>",NA,"html-keyboard-response",205,980331,"0.0-15.0-1.16",53661,"ListA","woman","chinese","CFA5",NA,NA,NA,"null",NA,NA,NA,NA,NA,NA
"null","正在陪伴",NA,"html-keyboard-response",206,983334,"0.0-15.0-2.16",53661,"ListA","woman","chinese","CFA5",NA,NA,NA,"null",NA,NA,NA,NA,NA,NA
"9035",NA,NA,"survey-text",207,992372,"0.0-15.0-3.16",53661,"ListA","woman","chinese","CFA5",NA,NA,NA,NA,"{""Q0"":""麦克正在陪伴戴夫""}","<img src='gifs/MaleRace4b.gif' style='height:400px;''></img>","陪伴","正在陪伴","chinese",NA
"null","<div style=""font-size:60px;"">+</div>",NA,"html-keyboard-response",208,992874,"0.0-15.0-0.17",53661,"ListA","woman","chinese","CFA5",NA,NA,NA,"null",NA,NA,NA,NA,NA,NA
"null","<img src='gifs/BlackGender2a.gif' style='height:400px;''></img>",NA,"html-keyboard-response",209,994877,"0.0-15.0-1.17",53661,"ListA","woman","chinese","CFA5",NA,NA,NA,"null",NA,NA,NA,NA,NA,NA
"null","正在提到",NA,"html-keyboard-response",210,997880,"0.0-15.0-2.17",53661,"ListA","woman","chinese","CFA5",NA,NA,NA,"null",NA,NA,NA,NA,NA,NA
"6511",NA,NA,"survey-text",211,1004394,"0.0-15.0-3.17",53661,"ListA","woman","chinese","CFA5",NA,NA,NA,NA,"{""Q0"":""露丝正在提到戴夫""}","<img src='gifs/BlackGender2a.gif' style='height:400px;''></img>","提到","正在提到","chinese",NA
"4885","<img src='img/portrait_matrix_listA_chinese.jpg' style='width:900px;height:500px;''></img><p>如果您已经记住了所有的人物和名字，请点击继续。</p><p><strong>请注意：您对先前记忆的面孔将在本实验中被测试5次。</strong></p>",0,"html-button-response",212,1009281,"0.0-16.0-0.0",53661,"ListA","woman","chinese","CFA5",NA,NA,NA,NA,NA,NA,NA,NA,NA,NA
"2699.0000000001164","<img src=""portrait/WM2.jpg""style=""height:400px;""></img>",7,"html-button-response",213,1012985,"0.0-16.0-1.0",53661,"ListA","woman","chinese","CFA5",NA,"true",7,NA,NA,NA,NA,NA,NA,NA
"null","正确",NA,"html-keyboard-response",214,1014489,"0.0-16.0-2.0-0.0",53661,"ListA","woman","chinese","CFA5",NA,NA,NA,"null",NA,NA,NA,NA,NA,NA
"2794","<img src=""portrait/BM2.jpg""style=""height:400px;""></img>",5,"html-button-response",215,1017286,"0.0-16.0-4.0",53661,"ListA","woman","chinese","CFA5",NA,"true",5,NA,NA,NA,NA,NA,NA,NA
"null","正确",NA,"html-keyboard-response",216,1018789,"0.0-16.0-5.0-0.0",53661,"ListA","woman","chinese","CFA5",NA,NA,NA,"null",NA,NA,NA,NA,NA,NA
"2768","<img src=""portrait/WW1.jpg""style=""height:400px;""></img>",1,"html-button-response",217,1021559,"0.0-16.0-7.0",53661,"ListA","woman","chinese","CFA5",NA,"true",1,NA,NA,NA,NA,NA,NA,NA
"null","正确",NA,"html-keyboard-response",218,1023063,"0.0-16.0-8.0-0.0",53661,"ListA","woman","chinese","CFA5",NA,NA,NA,"null",NA,NA,NA,NA,NA,NA
"1495.9999999998836","<img src=""portrait/WW2.jpg""style=""height:400px;""></img>",3,"html-button-response",219,1024562,"0.0-16.0-10.0",53661,"ListA","woman","chinese","CFA5",NA,"true",3,NA,NA,NA,NA,NA,NA,NA
"null","正确",NA,"html-keyboard-response",220,1026065,"0.0-16.0-11.0-0.0",53661,"ListA","woman","chinese","CFA5",NA,NA,NA,"null",NA,NA,NA,NA,NA,NA
"2163.9999999998836","<img src=""portrait/BW1.jpg""style=""height:400px;""></img>",0,"html-button-response",221,1028231,"0.0-16.0-13.0",53661,"ListA","woman","chinese","CFA5",NA,"true",0,NA,NA,NA,NA,NA,NA,NA
"null","正确",NA,"html-keyboard-response",222,1029734,"0.0-16.0-14.0-0.0",53661,"ListA","woman","chinese","CFA5",NA,NA,NA,"null",NA,NA,NA,NA,NA,NA
"4375","<img src=""portrait/BM1.jpg""style=""height:400px;""></img>",4,"html-button-response",223,1034111,"0.0-16.0-16.0",53661,"ListA","woman","chinese","CFA5",NA,"true",4,NA,NA,NA,NA,NA,NA,NA
"null","正确",NA,"html-keyboard-response",224,1035614,"0.0-16.0-17.0-0.0",53661,"ListA","woman","chinese","CFA5",NA,NA,NA,"null",NA,NA,NA,NA,NA,NA
"2095","<img src=""portrait/WM1.jpg""style=""height:400px;""></img>",6,"html-button-response",225,1037715,"0.0-16.0-19.0",53661,"ListA","woman","chinese","CFA5",NA,"true",6,NA,NA,NA,NA,NA,NA,NA
"null","正确",NA,"html-keyboard-response",226,1039219,"0.0-16.0-20.0-0.0",53661,"ListA","woman","chinese","CFA5",NA,NA,NA,"null",NA,NA,NA,NA,NA,NA
"1560","<img src=""portrait/BW2.jpg""style=""height:400px;""></img>",2,"html-button-response",227,1040783,"0.0-16.0-22.0",53661,"ListA","woman","chinese","CFA5",NA,"true",2,NA,NA,NA,NA,NA,NA,NA
"null","正确",NA,"html-keyboard-response",228,1042287,"0.0-16.0-23.0-0.0",53661,"ListA","woman","chinese","CFA5",NA,NA,NA,"null",NA,NA,NA,NA,NA,NA
"1062","<p>您第一次在8题里答对了 8 题。 请点击继续</p>",0,"html-button-response",229,1043351,"0.0-16.0-25.0",53661,"ListA","woman","chinese","CFA5",NA,NA,NA,NA,NA,NA,NA,NA,NA,NA
"null","<div style=""font-size:60px;"">+</div>",NA,"html-keyboard-response",230,1044856,"0.0-17.0-0.0",53661,"ListA","woman","chinese","CFA5",NA,NA,NA,"null",NA,NA,NA,NA,NA,NA
"null","<img src='gifs/MaleRace3a.gif' style='height:400px;''></img>",NA,"html-keyboard-response",231,1046859,"0.0-17.0-1.0",53661,"ListA","woman","chinese","CFA5",NA,NA,NA,"null",NA,NA,NA,NA,NA,NA
"null","正在加入",NA,"html-keyboard-response",232,1049864,"0.0-17.0-2.0",53661,"ListA","woman","chinese","CFA5",NA,NA,NA,"null",NA,NA,NA,NA,NA,NA
"10480",NA,NA,"survey-text",233,1060351,"0.0-17.0-3.0",53661,"ListA","woman","chinese","CFA5",NA,NA,NA,NA,"{""Q0"":""卢克正在加入麦克""}","<img src='gifs/MaleRace3a.gif' style='height:400px;''></img>","加入","正在加入","chinese",NA
"null","<div style=""font-size:60px;"">+</div>",NA,"html-keyboard-response",234,1060853,"0.0-17.0-0.1",53661,"ListA","woman","chinese","CFA5",NA,NA,NA,"null",NA,NA,NA,NA,NA,NA
"null","<img src='gifs/BlackGender4a.gif' style='height:400px;''></img>",NA,"html-keyboard-response",235,1062856,"0.0-17.0-1.1",53661,"ListA","woman","chinese","CFA5",NA,NA,NA,"null",NA,NA,NA,NA,NA,NA
"null","正在答应",NA,"html-keyboard-response",236,1065859,"0.0-17.0-2.1",53661,"ListA","woman","chinese","CFA5",NA,NA,NA,"null",NA,NA,NA,NA,NA,NA
"11283",NA,NA,"survey-text",237,1077147,"0.0-17.0-3.1",53661,"ListA","woman","chinese","CFA5",NA,NA,NA,NA,"{""Q0"":""霍普正在答应戴夫""}","<img src='gifs/BlackGender4a.gif' style='height:400px;''></img>","答应","正在答应","chinese",NA
"null","<div style=""font-size:60px;"">+</div>",NA,"html-keyboard-response",238,1077649,"0.0-17.0-0.2",53661,"ListA","woman","chinese","CFA5",NA,NA,NA,"null",NA,NA,NA,NA,NA,NA
"null","<img src='gifs/BlackGender1a.gif' style='height:400px;''></img>",NA,"html-keyboard-response",239,1079652,"0.0-17.0-1.2",53661,"ListA","woman","chinese","CFA5",NA,NA,NA,"null",NA,NA,NA,NA,NA,NA
"null","正在走向",NA,"html-keyboard-response",240,1082654,"0.0-17.0-2.2",53661,"ListA","woman","chinese","CFA5",NA,NA,NA,"null",NA,NA,NA,NA,NA,NA
"6448",NA,NA,"survey-text",241,1089106,"0.0-17.0-3.2",53661,"ListA","woman","chinese","CFA5",NA,NA,NA,NA,"{""Q0"":""露丝正在走向卢克""}","<img src='gifs/BlackGender1a.gif' style='height:400px;''></img>","走向","正在走向","chinese",NA
"null","<div style=""font-size:60px;"">+</div>",NA,"html-keyboard-response",242,1089608,"0.0-17.0-0.3",53661,"ListA","woman","chinese","CFA5",NA,NA,NA,"null",NA,NA,NA,NA,NA,NA
"null","<img src='gifs/ChineseGender2b.gif' style='height:400px;''></img>",NA,"html-keyboard-response",243,1091611,"0.0-17.0-1.3",53661,"ListA","woman","chinese","CFA5",NA,NA,NA,"null",NA,NA,NA,NA,NA,NA
"null","正在面向",NA,"html-keyboard-response",244,1094614,"0.0-17.0-2.3",53661,"ListA","woman","chinese","CFA5",NA,NA,NA,"null",NA,NA,NA,NA,NA,NA
"7449",NA,NA,"survey-text",245,1102066,"0.0-17.0-3.3",53661,"ListA","woman","chinese","CFA5",NA,NA,NA,NA,"{""Q0"":""弗雷正在面向贝斯""}","<img src='gifs/ChineseGender2b.gif' style='height:400px;''></img>","面向","正在面向","chinese",NA
"null","<div style=""font-size:60px;"">+</div>",NA,"html-keyboard-response",246,1102567,"0.0-17.0-0.4",53661,"ListA","woman","chinese","CFA5",NA,NA,NA,"null",NA,NA,NA,NA,NA,NA
"null","<img src='gifs/MaleRace4a.gif' style='height:400px;''></img>",NA,"html-keyboard-response",247,1104570,"0.0-17.0-1.4",53661,"ListA","woman","chinese","CFA5",NA,NA,NA,"null",NA,NA,NA,NA,NA,NA
"null","正在答应",NA,"html-keyboard-response",248,1107572,"0.0-17.0-2.4",53661,"ListA","woman","chinese","CFA5",NA,NA,NA,"null",NA,NA,NA,NA,NA,NA
"6902.000000000233",NA,NA,"survey-text",249,1114478,"0.0-17.0-3.4",53661,"ListA","woman","chinese","CFA5",NA,NA,NA,NA,"{""Q0"":""麦克正在答应戴夫""}","<img src='gifs/MaleRace4a.gif' style='height:400px;''></img>","答应","正在答应","chinese",NA
"null","<div style=""font-size:60px;"">+</div>",NA,"html-keyboard-response",250,1114980,"0.0-17.0-0.5",53661,"ListA","woman","chinese","CFA5",NA,NA,NA,"null",NA,NA,NA,NA,NA,NA
"null","<img src='gifs/FemaleRace3a.gif' style='height:400px;''></img>",NA,"html-keyboard-response",251,1116982,"0.0-17.0-1.5",53661,"ListA","woman","chinese","CFA5",NA,NA,NA,"null",NA,NA,NA,NA,NA,NA
"null","正在说服",NA,"html-keyboard-response",252,1119984,"0.0-17.0-2.5",53661,"ListA","woman","chinese","CFA5",NA,NA,NA,"null",NA,NA,NA,NA,NA,NA
"5934",NA,NA,"survey-text",253,1125922,"0.0-17.0-3.5",53661,"ListA","woman","chinese","CFA5",NA,NA,NA,NA,"{""Q0"":""露丝正在说服贝斯""}","<img src='gifs/FemaleRace3a.gif' style='height:400px;''></img>","说服","正在说服","chinese",NA
"null","<div style=""font-size:60px;"">+</div>",NA,"html-keyboard-response",254,1126425,"0.0-17.0-0.6",53661,"ListA","woman","chinese","CFA5",NA,NA,NA,"null",NA,NA,NA,NA,NA,NA
"null","<img src='gifs/ChineseGender1a.gif' style='height:400px;''></img>",NA,"html-keyboard-response",255,1128428,"0.0-17.0-1.6",53661,"ListA","woman","chinese","CFA5",NA,NA,NA,"null",NA,NA,NA,NA,NA,NA
"null","正在答应",NA,"html-keyboard-response",256,1131430,"0.0-17.0-2.6",53661,"ListA","woman","chinese","CFA5",NA,NA,NA,"null",NA,NA,NA,NA,NA,NA
"5995",NA,NA,"survey-text",257,1137429,"0.0-17.0-3.6",53661,"ListA","woman","chinese","CFA5",NA,NA,NA,NA,"{""Q0"":""弗雷正在答应凯特""}","<img src='gifs/ChineseGender1a.gif' style='height:400px;''></img>","答应","正在答应","chinese",NA
"null","<div style=""font-size:60px;"">+</div>",NA,"html-keyboard-response",258,1137931,"0.0-17.0-0.7",53661,"ListA","woman","chinese","CFA5",NA,NA,NA,"null",NA,NA,NA,NA,NA,NA
"null","<img src='gifs/MaleRace2b.gif' style='height:400px;''></img>",NA,"html-keyboard-response",259,1139934,"0.0-17.0-1.7",53661,"ListA","woman","chinese","CFA5",NA,NA,NA,"null",NA,NA,NA,NA,NA,NA
"null","正在看着",NA,"html-keyboard-response",260,1142936,"0.0-17.0-2.7",53661,"ListA","woman","chinese","CFA5",NA,NA,NA,"null",NA,NA,NA,NA,NA,NA
"7666",NA,NA,"survey-text",261,1150606,"0.0-17.0-3.7",53661,"ListA","woman","chinese","CFA5",NA,NA,NA,NA,"{""Q0"":""弗雷正在看着戴夫""}","<img src='gifs/MaleRace2b.gif' style='height:400px;''></img>","看着","正在看着","chinese",NA
"null","<div style=""font-size:60px;"">+</div>",NA,"html-keyboard-response",262,1151112,"0.0-17.0-0.8",53661,"ListA","woman","chinese","CFA5",NA,NA,NA,"null",NA,NA,NA,NA,NA,NA
"null","<img src='gifs/MaleRace2a.gif' style='height:400px;''></img>",NA,"html-keyboard-response",263,1153115,"0.0-17.0-1.8",53661,"ListA","woman","chinese","CFA5",NA,NA,NA,"null",NA,NA,NA,NA,NA,NA
"null","正在加入",NA,"html-keyboard-response",264,1156118,"0.0-17.0-2.8",53661,"ListA","woman","chinese","CFA5",NA,NA,NA,"null",NA,NA,NA,NA,NA,NA
"5793.999999999767",NA,NA,"survey-text",265,1161916,"0.0-17.0-3.8",53661,"ListA","woman","chinese","CFA5",NA,NA,NA,NA,"{""Q0"":""弗雷正在加入戴夫""}","<img src='gifs/MaleRace2a.gif' style='height:400px;''></img>","加入","正在加入","chinese",NA
"null","<div style=""font-size:60px;"">+</div>",NA,"html-keyboard-response",266,1162417,"0.0-17.0-0.9",53661,"ListA","woman","chinese","CFA5",NA,NA,NA,"null",NA,NA,NA,NA,NA,NA
"null","<img src='gifs/ChineseGender3a.gif' style='height:400px;''></img>",NA,"html-keyboard-response",267,1164420,"0.0-17.0-1.9",53661,"ListA","woman","chinese","CFA5",NA,NA,NA,"null",NA,NA,NA,NA,NA,NA
"null","正在介绍",NA,"html-keyboard-response",268,1167423,"0.0-17.0-2.9",53661,"ListA","woman","chinese","CFA5",NA,NA,NA,"null",NA,NA,NA,NA,NA,NA
"9951",NA,NA,"survey-text",269,1177378,"0.0-17.0-3.9",53661,"ListA","woman","chinese","CFA5",NA,NA,NA,NA,"{""Q0"":""贝斯正在介绍麦克""}","<img src='gifs/ChineseGender3a.gif' style='height:400px;''></img>","介绍","正在介绍","chinese",NA
"null","<div style=""font-size:60px;"">+</div>",NA,"html-keyboard-response",270,1177880,"0.0-17.0-0.10",53661,"ListA","woman","chinese","CFA5",NA,NA,NA,"null",NA,NA,NA,NA,NA,NA
"null","<img src='gifs/MaleRace2a.gif' style='height:400px;''></img>",NA,"html-keyboard-response",271,1179887,"0.0-17.0-1.10",53661,"ListA","woman","chinese","CFA5",NA,NA,NA,"null",NA,NA,NA,NA,NA,NA
"null","正在联系",NA,"html-keyboard-response",272,1182889,"0.0-17.0-2.10",53661,"ListA","woman","chinese","CFA5",NA,NA,NA,"null",NA,NA,NA,NA,NA,NA
"8965",NA,NA,"survey-text",273,1191858,"0.0-17.0-3.10",53661,"ListA","woman","chinese","CFA5",NA,NA,NA,NA,"{""Q0"":""弗雷正在联系戴夫""}","<img src='gifs/MaleRace2a.gif' style='height:400px;''></img>","联系","正在联系","chinese",NA
"null","<div style=""font-size:60px;"">+</div>",NA,"html-keyboard-response",274,1192361,"0.0-17.0-0.11",53661,"ListA","woman","chinese","CFA5",NA,NA,NA,"null",NA,NA,NA,NA,NA,NA
"null","<img src='gifs/ChineseGender4a.gif' style='height:400px;''></img>",NA,"html-keyboard-response",275,1194362,"0.0-17.0-1.11",53661,"ListA","woman","chinese","CFA5",NA,NA,NA,"null",NA,NA,NA,NA,NA,NA
"null","正在看着",NA,"html-keyboard-response",276,1197365,"0.0-17.0-2.11",53661,"ListA","woman","chinese","CFA5",NA,NA,NA,"null",NA,NA,NA,NA,NA,NA
"6421",NA,NA,"survey-text",277,1203789,"0.0-17.0-3.11",53661,"ListA","woman","chinese","CFA5",NA,NA,NA,NA,"{""Q0"":""凯特正在看着麦克""}","<img src='gifs/ChineseGender4a.gif' style='height:400px;''></img>","看着","正在看着","chinese",NA
"null","<div style=""font-size:60px;"">+</div>",NA,"html-keyboard-response",278,1204292,"0.0-17.0-0.12",53661,"ListA","woman","chinese","CFA5",NA,NA,NA,"null",NA,NA,NA,NA,NA,NA
"null","<img src='gifs/FemaleRace2b.gif' style='height:400px;''></img>",NA,"html-keyboard-response",279,1206294,"0.0-17.0-1.12",53661,"ListA","woman","chinese","CFA5",NA,NA,NA,"null",NA,NA,NA,NA,NA,NA
"null","正在聆听",NA,"html-keyboard-response",280,1209301,"0.0-17.0-2.12",53661,"ListA","woman","chinese","CFA5",NA,NA,NA,"null",NA,NA,NA,NA,NA,NA
"10997",NA,NA,"survey-text",281,1220301,"0.0-17.0-3.12",53661,"ListA","woman","chinese","CFA5",NA,NA,NA,NA,"{""Q0"":""霍普正在聆听凯特""}","<img src='gifs/FemaleRace2b.gif' style='height:400px;''></img>","聆听","正在聆听","chinese",NA
"null","<div style=""font-size:60px;"">+</div>",NA,"html-keyboard-response",282,1220802,"0.0-17.0-0.13",53661,"ListA","woman","chinese","CFA5",NA,NA,NA,"null",NA,NA,NA,NA,NA,NA
"null","<img src='gifs/FemaleRace1a.gif' style='height:400px;''></img>",NA,"html-keyboard-response",283,1222805,"0.0-17.0-1.13",53661,"ListA","woman","chinese","CFA5",NA,NA,NA,"null",NA,NA,NA,NA,NA,NA
"null","正在看着",NA,"html-keyboard-response",284,1225807,"0.0-17.0-2.13",53661,"ListA","woman","chinese","CFA5",NA,NA,NA,"null",NA,NA,NA,NA,NA,NA
"5595",NA,NA,"survey-text",285,1231406,"0.0-17.0-3.13",53661,"ListA","woman","chinese","CFA5",NA,NA,NA,NA,"{""Q0"":""凯特正在看着露丝""}","<img src='gifs/FemaleRace1a.gif' style='height:400px;''></img>","看着","正在看着","chinese",NA
"null","<div style=""font-size:60px;"">+</div>",NA,"html-keyboard-response",286,1231908,"0.0-17.0-0.14",53661,"ListA","woman","chinese","CFA5",NA,NA,NA,"null",NA,NA,NA,NA,NA,NA
"null","<img src='gifs/BlackGender4b.gif' style='height:400px;''></img>",NA,"html-keyboard-response",287,1233910,"0.0-17.0-1.14",53661,"ListA","woman","chinese","CFA5",NA,NA,NA,"null",NA,NA,NA,NA,NA,NA
"null","正在聆听",NA,"html-keyboard-response",288,1236913,"0.0-17.0-2.14",53661,"ListA","woman","chinese","CFA5",NA,NA,NA,"null",NA,NA,NA,NA,NA,NA
"8009",NA,NA,"survey-text",289,1244926,"0.0-17.0-3.14",53661,"ListA","woman","chinese","CFA5",NA,NA,NA,NA,"{""Q0"":""霍普正在聆听戴夫""}","<img src='gifs/BlackGender4b.gif' style='height:400px;''></img>","聆听","正在聆听","chinese",NA
"null","<div style=""font-size:60px;"">+</div>",NA,"html-keyboard-response",290,1245428,"0.0-17.0-0.15",53661,"ListA","woman","chinese","CFA5",NA,NA,NA,"null",NA,NA,NA,NA,NA,NA
"null","<img src='gifs/ChineseGender2a.gif' style='height:400px;''></img>",NA,"html-keyboard-response",291,1247430,"0.0-17.0-1.15",53661,"ListA","woman","chinese","CFA5",NA,NA,NA,"null",NA,NA,NA,NA,NA,NA
"null","正在聆听",NA,"html-keyboard-response",292,1250432,"0.0-17.0-2.15",53661,"ListA","woman","chinese","CFA5",NA,NA,NA,"null",NA,NA,NA,NA,NA,NA
"7371",NA,NA,"survey-text",293,1257807,"0.0-17.0-3.15",53661,"ListA","woman","chinese","CFA5",NA,NA,NA,NA,"{""Q0"":""弗雷正在聆听贝斯""}","<img src='gifs/ChineseGender2a.gif' style='height:400px;''></img>","聆听","正在聆听","chinese",NA
"null","<div style=""font-size:60px;"">+</div>",NA,"html-keyboard-response",294,1258309,"0.0-17.0-0.16",53661,"ListA","woman","chinese","CFA5",NA,NA,NA,"null",NA,NA,NA,NA,NA,NA
"null","<img src='gifs/FemaleRace4a.gif' style='height:400px;''></img>",NA,"html-keyboard-response",295,1260312,"0.0-17.0-1.16",53661,"ListA","woman","chinese","CFA5",NA,NA,NA,"null",NA,NA,NA,NA,NA,NA
"null","正在表扬",NA,"html-keyboard-response",296,1263325,"0.0-17.0-2.16",53661,"ListA","woman","chinese","CFA5",NA,NA,NA,"null",NA,NA,NA,NA,NA,NA
"6814",NA,NA,"survey-text",297,1270143,"0.0-17.0-3.16",53661,"ListA","woman","chinese","CFA5",NA,NA,NA,NA,"{""Q0"":""贝斯正在表扬霍普""}","<img src='gifs/FemaleRace4a.gif' style='height:400px;''></img>","表扬","正在表扬","chinese",NA
"null","<div style=""font-size:60px;"">+</div>",NA,"html-keyboard-response",298,1270645,"0.0-17.0-0.17",53661,"ListA","woman","chinese","CFA5",NA,NA,NA,"null",NA,NA,NA,NA,NA,NA
"null","<img src='gifs/BlackGender3b.gif' style='height:400px;''></img>",NA,"html-keyboard-response",299,1272648,"0.0-17.0-1.17",53661,"ListA","woman","chinese","CFA5",NA,NA,NA,"null",NA,NA,NA,NA,NA,NA
"null","正在聘用",NA,"html-keyboard-response",300,1275650,"0.0-17.0-2.17",53661,"ListA","woman","chinese","CFA5",NA,NA,NA,"null",NA,NA,NA,NA,NA,NA
"8917",NA,NA,"survey-text",301,1284573,"0.0-17.0-3.17",53661,"ListA","woman","chinese","CFA5",NA,NA,NA,NA,"{""Q0"":""霍普正在聘用卢克""}","<img src='gifs/BlackGender3b.gif' style='height:400px;''></img>","聘用","正在聘用","chinese",NA
"3243.999999999767","<p>Thank you for completing that task.</p><p>The final part of this session is a short questionnaire.</p><p>Press Continue.</p>",0,"html-button-response",302,1287818,"0.0-18.0",53661,"ListA","woman","chinese","CFA5",NA,NA,NA,NA,NA,NA,NA,NA,NA,NA
"26606",NA,NA,"survey-text",303,1315434,"0.0-19.0",53661,"ListA","woman","chinese","CFA5",NA,NA,NA,NA,"{""Q0"":""21"",""Q1"":""chinese"",""Q2"":""Chinese"",""Q3"":""United Kingdom "",""Q4"":""Chinese "",""Q5"":""Chinese "",""Q6"":""F""}",NA,NA,NA,NA,"demographics"
"12802.999999999767","<p>Have you lived in the UK for the last 5 years or more?</p>",1,"html-button-response",304,1328242,"0.0-20.0",53661,"ListA","woman","chinese","CFA5",NA,NA,NA,NA,NA,NA,NA,NA,NA,"fiveyears"
"9245",NA,NA,"external-html",305,1338743,"0.0-21.0",53661,"ListA","woman","chinese","CFA5","debrief.html",NA,NA,NA,NA,NA,NA,NA,NA,NA
"8524",NA,NA,"survey-text",306,1347272,"0.0-22.0",53661,"ListA","woman","chinese","CFA5",NA,NA,NA,NA,"{""ptpt_id"":""CFA5""}",NA,NA,NA,NA,"worker_id"
