"rt","stimulus","button_pressed","trial_type","trial_index","time_elapsed","internal_node_id","subject","list","ppt_gender","ppt_language","ptptID","url","first_guess","correct","key_press","responses","image","verb","phrase","condition","test_part"
"1217","Welcome to the experiment. Press Continue to begin.",0,"html-button-response",0,1218,"0.0-0.0",61164,"ListB","man","english","SW_E_M_B4",NA,NA,NA,NA,NA,NA,NA,NA,NA,NA
"3051",NA,NA,"external-html",1,5581,"0.0-1.0",61164,"ListB","man","english","SW_E_M_B4","consent.html",NA,NA,NA,NA,NA,NA,NA,NA,NA
"864","<p>On the next page, you will see portraits of 8 people and their names.</p><p>Your first task is to take a few minutes to memorise the names of these people.</p><p>You will have to recall their names during the rest of the experiment, so it is</p><p>essential that you try to memorise these people and their names as best as you can.</p><p><strong>You will then be tested on your memory of these names and portraits.</strong></p><p>The experiment will start after you have completed this memory test.</p><p>Ready?</p>",0,"html-button-response",2,6447,"0.0-2.0",61164,"ListB","man","english","SW_E_M_B4",NA,NA,NA,NA,NA,NA,NA,NA,NA,NA
"122934","<img src='img/portrait_matrix_listB.jpg' style='width:900px;height:500px;''></img><p>If you have memorised all the portraits and names and are ready to start, press Continue.</p><p><strong>Please note: Your memory of these faces will be tested 5 times during this experiment.</strong></p>",0,"html-button-response",3,130385,"0.0-3.0-0.0",61164,"ListB","man","english","SW_E_M_B4",NA,NA,NA,NA,NA,NA,NA,NA,NA,NA
"2527","<img src=""portrait/WM2.jpg""style=""height:400px;""></img>",7,"html-button-response",4,133922,"0.0-3.0-1.0",61164,"ListB","man","english","SW_E_M_B4",NA,"true",7,NA,NA,NA,NA,NA,NA,NA
"null","CORRECT",NA,"html-keyboard-response",5,135439,"0.0-3.0-2.0-0.0",61164,"ListB","man","english","SW_E_M_B4",NA,NA,NA,"null",NA,NA,NA,NA,NA,NA
"2638","<img src=""portrait/BM2.jpg""style=""height:400px;""></img>",5,"html-button-response",6,138077,"0.0-3.0-4.0",61164,"ListB","man","english","SW_E_M_B4",NA,"true",5,NA,NA,NA,NA,NA,NA,NA
"null","CORRECT",NA,"html-keyboard-response",7,139603,"0.0-3.0-5.0-0.0",61164,"ListB","man","english","SW_E_M_B4",NA,NA,NA,"null",NA,NA,NA,NA,NA,NA
"2598","<img src=""portrait/WM1.jpg""style=""height:400px;""></img>",6,"html-button-response",8,142202,"0.0-3.0-7.0",61164,"ListB","man","english","SW_E_M_B4",NA,"true",6,NA,NA,NA,NA,NA,NA,NA
"null","CORRECT",NA,"html-keyboard-response",9,143712,"0.0-3.0-8.0-0.0",61164,"ListB","man","english","SW_E_M_B4",NA,NA,NA,"null",NA,NA,NA,NA,NA,NA
"3932","<img src=""portrait/BW1.jpg""style=""height:400px;""></img>",0,"html-button-response",10,147646,"0.0-3.0-10.0",61164,"ListB","man","english","SW_E_M_B4",NA,"true",0,NA,NA,NA,NA,NA,NA,NA
"null","CORRECT",NA,"html-keyboard-response",11,149158,"0.0-3.0-11.0-0.0",61164,"ListB","man","english","SW_E_M_B4",NA,NA,NA,"null",NA,NA,NA,NA,NA,NA
"3771","<img src=""portrait/BW2.jpg""style=""height:400px;""></img>",2,"html-button-response",12,152930,"0.0-3.0-13.0",61164,"ListB","man","english","SW_E_M_B4",NA,"true",2,NA,NA,NA,NA,NA,NA,NA
"null","CORRECT",NA,"html-keyboard-response",13,154447,"0.0-3.0-14.0-0.0",61164,"ListB","man","english","SW_E_M_B4",NA,NA,NA,"null",NA,NA,NA,NA,NA,NA
"4413","<img src=""portrait/WW1.jpg""style=""height:400px;""></img>",1,"html-button-response",14,158861,"0.0-3.0-16.0",61164,"ListB","man","english","SW_E_M_B4",NA,"true",1,NA,NA,NA,NA,NA,NA,NA
"null","CORRECT",NA,"html-keyboard-response",15,160377,"0.0-3.0-17.0-0.0",61164,"ListB","man","english","SW_E_M_B4",NA,NA,NA,"null",NA,NA,NA,NA,NA,NA
"3522","<img src=""portrait/BM1.jpg""style=""height:400px;""></img>",4,"html-button-response",16,163900,"0.0-3.0-19.0",61164,"ListB","man","english","SW_E_M_B4",NA,"true",4,NA,NA,NA,NA,NA,NA,NA
"null","CORRECT",NA,"html-keyboard-response",17,165421,"0.0-3.0-20.0-0.0",61164,"ListB","man","english","SW_E_M_B4",NA,NA,NA,"null",NA,NA,NA,NA,NA,NA
"2679","<img src=""portrait/WW2.jpg""style=""height:400px;""></img>",3,"html-button-response",18,168100,"0.0-3.0-22.0",61164,"ListB","man","english","SW_E_M_B4",NA,"true",3,NA,NA,NA,NA,NA,NA,NA
"null","CORRECT",NA,"html-keyboard-response",19,169619,"0.0-3.0-23.0-0.0",61164,"ListB","man","english","SW_E_M_B4",NA,NA,NA,"null",NA,NA,NA,NA,NA,NA
"2305","<p>You got 8 out of 8 right first time. Press Continue.</p>",0,"html-button-response",20,171925,"0.0-3.0-25.0",61164,"ListB","man","english","SW_E_M_B4",NA,NA,NA,NA,NA,NA,NA,NA,NA,NA
"1581","<p>In this experiment, you will view photographs of the people from the memory game.</p><p>By using the <strong>exact</strong> phrase given <i>after</i> the photograph appears and recalling the correct names of the people in the photographs, form a sentence describing an interaction. You do not need to capitalise names.</p><p>Type your answer in the space provided. Please complete every sentence before moving onto the next trial.</p><p>You will only have a few seconds to memorise each given photograph and phrase before you can respond, so try your best to focus.</p><p>An example is given below. Press 'Continue' when you are ready.</p><img src='img/speaking_example.jpg' style='width:800px;height:460px;''></img>",0,"html-button-response",21,174521,"0.0-4.0",61164,"ListB","man","english","SW_E_M_B4",NA,NA,NA,NA,NA,NA,NA,NA,NA,NA
"2631","<p>Before the experiment starts, you will watch two example trials. Press 'Continue'.</p>",0,"html-button-response",22,178166,"0.0-5.0",61164,"ListB","man","english","SW_E_M_B4",NA,NA,NA,NA,NA,NA,NA,NA,NA,NA
"null","<img src='img/meet.gif' style='height:400px;''></img>",NA,"html-keyboard-response",23,181174,"0.0-6.0",61164,"ListB","man","english","SW_E_M_B4",NA,NA,NA,"null",NA,NA,NA,NA,NA,NA
"null","<p>is meeting</p>",NA,"html-keyboard-response",24,183186,"0.0-7.0",61164,"ListB","man","english","SW_E_M_B4",NA,NA,NA,"null",NA,NA,NA,NA,NA,NA
"1663","<p><b>Answer:</b> jane is meeting ruth</p>",0,"html-button-response",25,184850,"0.0-8.0",61164,"ListB","man","english","SW_E_M_B4",NA,NA,NA,NA,NA,NA,NA,NA,NA,NA
"null","<img src='img/spy.gif' style='height:400px;''></img>",NA,"html-keyboard-response",26,187864,"0.0-9.0",61164,"ListB","man","english","SW_E_M_B4",NA,NA,NA,"null",NA,NA,NA,NA,NA,NA
"null","<p>is being spied on by</p>",NA,"html-keyboard-response",27,189871,"0.0-10.0",61164,"ListB","man","english","SW_E_M_B4",NA,NA,NA,"null",NA,NA,NA,NA,NA,NA
"22565","<p><b>Answer:</b> fred is being spied on by mike</p>",0,"html-button-response",28,212436,"0.0-11.0",61164,"ListB","man","english","SW_E_M_B4",NA,NA,NA,NA,NA,NA,NA,NA,NA,NA
"58043","<p>Ready to start the experiment?</p><br><p><strong>Remember to describe the picture using a full sentence,</strong></p><p><strong>that combines the names of the people with the <i>exact</i> phrase given.</strong></p><p><strong>To receive full payment you must do this correctly.</strong></p><p><strong> You do not need to capitalise names or use punctuation.</strong></p><br><p>Press 'Continue' to begin.</p>",0,"html-button-response",29,271486,"0.0-12.0",61164,"ListB","man","english","SW_E_M_B4",NA,NA,NA,NA,NA,NA,NA,NA,NA,NA
"null","<div style=""font-size:60px;"">+</div>",NA,"html-keyboard-response",30,273005,"0.0-13.0-0.0",61164,"ListB","man","english","SW_E_M_B4",NA,NA,NA,"null",NA,NA,NA,NA,NA,NA
"null","<img src='gifs/FemaleRace4b.gif' style='height:400px;''></img>",NA,"html-keyboard-response",31,275009,"0.0-13.0-1.0",61164,"ListB","man","english","SW_E_M_B4",NA,NA,NA,"null",NA,NA,NA,NA,NA,NA
"null","is approaching",NA,"html-keyboard-response",32,278022,"0.0-13.0-2.0",61164,"ListB","man","english","SW_E_M_B4",NA,NA,NA,"null",NA,NA,NA,NA,NA,NA
"30595",NA,NA,"survey-text",33,308620,"0.0-13.0-3.0",61164,"ListB","man","english","SW_E_M_B4",NA,NA,NA,NA,"{""Q0"":""kate is approaching  ruth""}","<img src='gifs/FemaleRace4b.gif' style='height:400px;''></img>","approaching","is approaching","english",NA
"null","<div style=""font-size:60px;"">+</div>",NA,"html-keyboard-response",34,309129,"0.0-13.0-0.1",61164,"ListB","man","english","SW_E_M_B4",NA,NA,NA,"null",NA,NA,NA,NA,NA,NA
"null","<img src='gifs/MaleRace4a.gif' style='height:400px;''></img>",NA,"html-keyboard-response",35,311132,"0.0-13.0-1.1",61164,"ListB","man","english","SW_E_M_B4",NA,NA,NA,"null",NA,NA,NA,NA,NA,NA
"null","is joining",NA,"html-keyboard-response",36,314138,"0.0-13.0-2.1",61164,"ListB","man","english","SW_E_M_B4",NA,NA,NA,"null",NA,NA,NA,NA,NA,NA
"11098",NA,NA,"survey-text",37,325237,"0.0-13.0-3.1",61164,"ListB","man","english","SW_E_M_B4",NA,NA,NA,NA,"{""Q0"":""mike is joining dave""}","<img src='gifs/MaleRace4a.gif' style='height:400px;''></img>","join","is joining","english",NA
"null","<div style=""font-size:60px;"">+</div>",NA,"html-keyboard-response",38,325743,"0.0-13.0-0.2",61164,"ListB","man","english","SW_E_M_B4",NA,NA,NA,"null",NA,NA,NA,NA,NA,NA
"null","<img src='gifs/FemaleRace1b.gif' style='height:400px;''></img>",NA,"html-keyboard-response",39,327758,"0.0-13.0-1.2",61164,"ListB","man","english","SW_E_M_B4",NA,NA,NA,"null",NA,NA,NA,NA,NA,NA
"null","is employing",NA,"html-keyboard-response",40,330768,"0.0-13.0-2.2",61164,"ListB","man","english","SW_E_M_B4",NA,NA,NA,"null",NA,NA,NA,NA,NA,NA
"15369",NA,NA,"survey-text",41,346139,"0.0-13.0-3.2",61164,"ListB","man","english","SW_E_M_B4",NA,NA,NA,NA,"{""Q0"":""beth is employing jane""}","<img src='gifs/FemaleRace1b.gif' style='height:400px;''></img>","employing","is employing","english",NA
"null","<div style=""font-size:60px;"">+</div>",NA,"html-keyboard-response",42,346641,"0.0-13.0-0.3",61164,"ListB","man","english","SW_E_M_B4",NA,NA,NA,"null",NA,NA,NA,NA,NA,NA
"null","<img src='gifs/ChineseGender3a.gif' style='height:400px;''></img>",NA,"html-keyboard-response",43,348648,"0.0-13.0-1.3",61164,"ListB","man","english","SW_E_M_B4",NA,NA,NA,"null",NA,NA,NA,NA,NA,NA
"null","is accompanying",NA,"html-keyboard-response",44,351649,"0.0-13.0-2.3",61164,"ListB","man","english","SW_E_M_B4",NA,NA,NA,"null",NA,NA,NA,NA,NA,NA
"20253",NA,NA,"survey-text",45,371904,"0.0-13.0-3.3",61164,"ListB","man","english","SW_E_M_B4",NA,NA,NA,NA,"{""Q0"":""ruth is accompanying dave""}","<img src='gifs/ChineseGender3a.gif' style='height:400px;''></img>","accompanying","is accompanying","english",NA
"null","<div style=""font-size:60px;"">+</div>",NA,"html-keyboard-response",46,372420,"0.0-13.0-0.4",61164,"ListB","man","english","SW_E_M_B4",NA,NA,NA,"null",NA,NA,NA,NA,NA,NA
"null","<img src='gifs/ChineseGender4b.gif' style='height:400px;''></img>",NA,"html-keyboard-response",47,374428,"0.0-13.0-1.4",61164,"ListB","man","english","SW_E_M_B4",NA,NA,NA,"null",NA,NA,NA,NA,NA,NA
"null","is accompanying",NA,"html-keyboard-response",48,377443,"0.0-13.0-2.4",61164,"ListB","man","english","SW_E_M_B4",NA,NA,NA,"null",NA,NA,NA,NA,NA,NA
"17170",NA,NA,"survey-text",49,394614,"0.0-13.0-3.4",61164,"ListB","man","english","SW_E_M_B4",NA,NA,NA,NA,"{""Q0"":""jane is accompanying dave""}","<img src='gifs/ChineseGender4b.gif' style='height:400px;''></img>","accompanying","is accompanying","english",NA
"null","<div style=""font-size:60px;"">+</div>",NA,"html-keyboard-response",50,395125,"0.0-13.0-0.5",61164,"ListB","man","english","SW_E_M_B4",NA,NA,NA,"null",NA,NA,NA,NA,NA,NA
"null","<img src='gifs/ChineseGender4a.gif' style='height:400px;''></img>",NA,"html-keyboard-response",51,397140,"0.0-13.0-1.5",61164,"ListB","man","english","SW_E_M_B4",NA,NA,NA,"null",NA,NA,NA,NA,NA,NA
"null","is mentioning",NA,"html-keyboard-response",52,400155,"0.0-13.0-2.5",61164,"ListB","man","english","SW_E_M_B4",NA,NA,NA,"null",NA,NA,NA,NA,NA,NA
"15482",NA,NA,"survey-text",53,415638,"0.0-13.0-3.5",61164,"ListB","man","english","SW_E_M_B4",NA,NA,NA,NA,"{""Q0"":""dave is mentioning jane""}","<img src='gifs/ChineseGender4a.gif' style='height:400px;''></img>","mention","is mentioning","english",NA
"null","<div style=""font-size:60px;"">+</div>",NA,"html-keyboard-response",54,416148,"0.0-13.0-0.6",61164,"ListB","man","english","SW_E_M_B4",NA,NA,NA,"null",NA,NA,NA,NA,NA,NA
"null","<img src='gifs/MaleRace3a.gif' style='height:400px;''></img>",NA,"html-keyboard-response",55,418164,"0.0-13.0-1.6",61164,"ListB","man","english","SW_E_M_B4",NA,NA,NA,"null",NA,NA,NA,NA,NA,NA
"null","is praising",NA,"html-keyboard-response",56,421168,"0.0-13.0-2.6",61164,"ListB","man","english","SW_E_M_B4",NA,NA,NA,"null",NA,NA,NA,NA,NA,NA
"10787",NA,NA,"survey-text",57,431957,"0.0-13.0-3.6",61164,"ListB","man","english","SW_E_M_B4",NA,NA,NA,NA,"{""Q0"":""dave is praising fred""}","<img src='gifs/MaleRace3a.gif' style='height:400px;''></img>","praising","is praising","english",NA
"null","<div style=""font-size:60px;"">+</div>",NA,"html-keyboard-response",58,432459,"0.0-13.0-0.7",61164,"ListB","man","english","SW_E_M_B4",NA,NA,NA,"null",NA,NA,NA,NA,NA,NA
"null","<img src='gifs/MaleRace2b.gif' style='height:400px;''></img>",NA,"html-keyboard-response",59,434464,"0.0-13.0-1.7",61164,"ListB","man","english","SW_E_M_B4",NA,NA,NA,"null",NA,NA,NA,NA,NA,NA
"null","is introducing",NA,"html-keyboard-response",60,437466,"0.0-13.0-2.7",61164,"ListB","man","english","SW_E_M_B4",NA,NA,NA,"null",NA,NA,NA,NA,NA,NA
"21577",NA,NA,"survey-text",61,459045,"0.0-13.0-3.7",61164,"ListB","man","english","SW_E_M_B4",NA,NA,NA,NA,"{""Q0"":""mike is introducing luke""}","<img src='gifs/MaleRace2b.gif' style='height:400px;''></img>","introducing","is introducing","english",NA
"null","<div style=""font-size:60px;"">+</div>",NA,"html-keyboard-response",62,459558,"0.0-13.0-0.8",61164,"ListB","man","english","SW_E_M_B4",NA,NA,NA,"null",NA,NA,NA,NA,NA,NA
"null","<img src='gifs/BlackGender3a.gif' style='height:400px;''></img>",NA,"html-keyboard-response",63,461574,"0.0-13.0-1.8",61164,"ListB","man","english","SW_E_M_B4",NA,NA,NA,"null",NA,NA,NA,NA,NA,NA
"null","is joining",NA,"html-keyboard-response",64,464583,"0.0-13.0-2.8",61164,"ListB","man","english","SW_E_M_B4",NA,NA,NA,"null",NA,NA,NA,NA,NA,NA
"13575",NA,NA,"survey-text",65,478161,"0.0-13.0-3.8",61164,"ListB","man","english","SW_E_M_B4",NA,NA,NA,NA,"{""Q0"":""kate is joining beth""}","<img src='gifs/BlackGender3a.gif' style='height:400px;''></img>","join","is joining","english",NA
"null","<div style=""font-size:60px;"">+</div>",NA,"html-keyboard-response",66,478669,"0.0-13.0-0.9",61164,"ListB","man","english","SW_E_M_B4",NA,NA,NA,"null",NA,NA,NA,NA,NA,NA
"null","<img src='gifs/MaleRace4b.gif' style='height:400px;''></img>",NA,"html-keyboard-response",67,480670,"0.0-13.0-1.9",61164,"ListB","man","english","SW_E_M_B4",NA,NA,NA,"null",NA,NA,NA,NA,NA,NA
"null","is approaching",NA,"html-keyboard-response",68,483674,"0.0-13.0-2.9",61164,"ListB","man","english","SW_E_M_B4",NA,NA,NA,"null",NA,NA,NA,NA,NA,NA
"17256",NA,NA,"survey-text",69,500932,"0.0-13.0-3.9",61164,"ListB","man","english","SW_E_M_B4",NA,NA,NA,NA,"{""Q0"":""dave is approaching mike""}","<img src='gifs/MaleRace4b.gif' style='height:400px;''></img>","approaching","is approaching","english",NA
"null","<div style=""font-size:60px;"">+</div>",NA,"html-keyboard-response",70,501437,"0.0-13.0-0.10",61164,"ListB","man","english","SW_E_M_B4",NA,NA,NA,"null",NA,NA,NA,NA,NA,NA
"null","<img src='gifs/BlackGender2a.gif' style='height:400px;''></img>",NA,"html-keyboard-response",71,503444,"0.0-13.0-1.10",61164,"ListB","man","english","SW_E_M_B4",NA,NA,NA,"null",NA,NA,NA,NA,NA,NA
"null","is accompanying",NA,"html-keyboard-response",72,506459,"0.0-13.0-2.10",61164,"ListB","man","english","SW_E_M_B4",NA,NA,NA,"null",NA,NA,NA,NA,NA,NA
"19440",NA,NA,"survey-text",73,525903,"0.0-13.0-3.10",61164,"ListB","man","english","SW_E_M_B4",NA,NA,NA,NA,"{""Q0"":""mike is accompanying beth""}","<img src='gifs/BlackGender2a.gif' style='height:400px;''></img>","accompanying","is accompanying","english",NA
"null","<div style=""font-size:60px;"">+</div>",NA,"html-keyboard-response",74,526414,"0.0-13.0-0.11",61164,"ListB","man","english","SW_E_M_B4",NA,NA,NA,"null",NA,NA,NA,NA,NA,NA
"null","<img src='gifs/FemaleRace3b.gif' style='height:400px;''></img>",NA,"html-keyboard-response",75,528429,"0.0-13.0-1.11",61164,"ListB","man","english","SW_E_M_B4",NA,NA,NA,"null",NA,NA,NA,NA,NA,NA
"null","is walking towards",NA,"html-keyboard-response",76,531438,"0.0-13.0-2.11",61164,"ListB","man","english","SW_E_M_B4",NA,NA,NA,"null",NA,NA,NA,NA,NA,NA
"28291",NA,NA,"survey-text",77,559731,"0.0-13.0-3.11",61164,"ListB","man","english","SW_E_M_B4",NA,NA,NA,NA,"{""Q0"":""beth is walking towards  ruth""}","<img src='gifs/FemaleRace3b.gif' style='height:400px;''></img>","walking towards","is walking towards","english",NA
"null","<div style=""font-size:60px;"">+</div>",NA,"html-keyboard-response",78,560243,"0.0-13.0-0.12",61164,"ListB","man","english","SW_E_M_B4",NA,NA,NA,"null",NA,NA,NA,NA,NA,NA
"null","<img src='gifs/FemaleRace2b.gif' style='height:400px;''></img>",NA,"html-keyboard-response",79,562243,"0.0-13.0-1.12",61164,"ListB","man","english","SW_E_M_B4",NA,NA,NA,"null",NA,NA,NA,NA,NA,NA
"null","is promising",NA,"html-keyboard-response",80,565252,"0.0-13.0-2.12",61164,"ListB","man","english","SW_E_M_B4",NA,NA,NA,"null",NA,NA,NA,NA,NA,NA
"16264",NA,NA,"survey-text",81,581517,"0.0-13.0-3.12",61164,"ListB","man","english","SW_E_M_B4",NA,NA,NA,NA,"{""Q0"":""jane is promising kate""}","<img src='gifs/FemaleRace2b.gif' style='height:400px;''></img>","promising","is promising","english",NA
"null","<div style=""font-size:60px;"">+</div>",NA,"html-keyboard-response",82,582028,"0.0-13.0-0.13",61164,"ListB","man","english","SW_E_M_B4",NA,NA,NA,"null",NA,NA,NA,NA,NA,NA
"null","<img src='gifs/BlackGender4b.gif' style='height:400px;''></img>",NA,"html-keyboard-response",83,584038,"0.0-13.0-1.13",61164,"ListB","man","english","SW_E_M_B4",NA,NA,NA,"null",NA,NA,NA,NA,NA,NA
"null","is touching",NA,"html-keyboard-response",84,587051,"0.0-13.0-2.13",61164,"ListB","man","english","SW_E_M_B4",NA,NA,NA,"null",NA,NA,NA,NA,NA,NA
"10816",NA,NA,"survey-text",85,597870,"0.0-13.0-3.13",61164,"ListB","man","english","SW_E_M_B4",NA,NA,NA,NA,"{""Q0"":""mike is touching kate""}","<img src='gifs/BlackGender4b.gif' style='height:400px;''></img>","touching","is touching","english",NA
"null","<div style=""font-size:60px;"">+</div>",NA,"html-keyboard-response",86,598378,"0.0-13.0-0.14",61164,"ListB","man","english","SW_E_M_B4",NA,NA,NA,"null",NA,NA,NA,NA,NA,NA
"null","<img src='gifs/FemaleRace1a.gif' style='height:400px;''></img>",NA,"html-keyboard-response",87,600382,"0.0-13.0-1.14",61164,"ListB","man","english","SW_E_M_B4",NA,NA,NA,"null",NA,NA,NA,NA,NA,NA
"null","is promising",NA,"html-keyboard-response",88,603386,"0.0-13.0-2.14",61164,"ListB","man","english","SW_E_M_B4",NA,NA,NA,"null",NA,NA,NA,NA,NA,NA
"12382",NA,NA,"survey-text",89,615770,"0.0-13.0-3.14",61164,"ListB","man","english","SW_E_M_B4",NA,NA,NA,NA,"{""Q0"":""beth is promising jane""}","<img src='gifs/FemaleRace1a.gif' style='height:400px;''></img>","promising","is promising","english",NA
"null","<div style=""font-size:60px;"">+</div>",NA,"html-keyboard-response",90,616275,"0.0-13.0-0.15",61164,"ListB","man","english","SW_E_M_B4",NA,NA,NA,"null",NA,NA,NA,NA,NA,NA
"null","<img src='gifs/FemaleRace1b.gif' style='height:400px;''></img>",NA,"html-keyboard-response",91,618279,"0.0-13.0-1.15",61164,"ListB","man","english","SW_E_M_B4",NA,NA,NA,"null",NA,NA,NA,NA,NA,NA
"null","is joining",NA,"html-keyboard-response",92,621293,"0.0-13.0-2.15",61164,"ListB","man","english","SW_E_M_B4",NA,NA,NA,"null",NA,NA,NA,NA,NA,NA
"8192",NA,NA,"survey-text",93,629487,"0.0-13.0-3.15",61164,"ListB","man","english","SW_E_M_B4",NA,NA,NA,NA,"{""Q0"":""beth is joining jane""}","<img src='gifs/FemaleRace1b.gif' style='height:400px;''></img>","join","is joining","english",NA
"null","<div style=""font-size:60px;"">+</div>",NA,"html-keyboard-response",94,629993,"0.0-13.0-0.16",61164,"ListB","man","english","SW_E_M_B4",NA,NA,NA,"null",NA,NA,NA,NA,NA,NA
"null","<img src='gifs/BlackGender1b.gif' style='height:400px;''></img>",NA,"html-keyboard-response",95,632009,"0.0-13.0-1.16",61164,"ListB","man","english","SW_E_M_B4",NA,NA,NA,"null",NA,NA,NA,NA,NA,NA
"null","is facing",NA,"html-keyboard-response",96,635023,"0.0-13.0-2.16",61164,"ListB","man","english","SW_E_M_B4",NA,NA,NA,"null",NA,NA,NA,NA,NA,NA
"9748",NA,NA,"survey-text",97,644774,"0.0-13.0-3.16",61164,"ListB","man","english","SW_E_M_B4",NA,NA,NA,NA,"{""Q0"":""fred is facing beth""}","<img src='gifs/BlackGender1b.gif' style='height:400px;''></img>","facing","is facing","english",NA
"null","<div style=""font-size:60px;"">+</div>",NA,"html-keyboard-response",98,645278,"0.0-13.0-0.17",61164,"ListB","man","english","SW_E_M_B4",NA,NA,NA,"null",NA,NA,NA,NA,NA,NA
"null","<img src='gifs/MaleRace4a.gif' style='height:400px;''></img>",NA,"html-keyboard-response",99,647294,"0.0-13.0-1.17",61164,"ListB","man","english","SW_E_M_B4",NA,NA,NA,"null",NA,NA,NA,NA,NA,NA
"null","is approaching",NA,"html-keyboard-response",100,650304,"0.0-13.0-2.17",61164,"ListB","man","english","SW_E_M_B4",NA,NA,NA,"null",NA,NA,NA,NA,NA,NA
"14865",NA,NA,"survey-text",101,665169,"0.0-13.0-3.17",61164,"ListB","man","english","SW_E_M_B4",NA,NA,NA,NA,"{""Q0"":""mike is approaching dave""}","<img src='gifs/MaleRace4a.gif' style='height:400px;''></img>","approaching","is approaching","english",NA
"2829","<img src='img/portrait_matrix_listB.jpg' style='width:900px;height:500px;''></img><p>If you have memorised all the portraits and names and are ready to start, press Continue.</p><p><strong>Please note: Your memory of these faces will be tested 5 times during this experiment.</strong></p>",0,"html-button-response",102,667999,"0.0-14.0-0.0",61164,"ListB","man","english","SW_E_M_B4",NA,NA,NA,NA,NA,NA,NA,NA,NA,NA
"2584","<img src=""portrait/WM1.jpg""style=""height:400px;""></img>",6,"html-button-response",103,671597,"0.0-14.0-1.0",61164,"ListB","man","english","SW_E_M_B4",NA,"true",6,NA,NA,NA,NA,NA,NA,NA
"null","CORRECT",NA,"html-keyboard-response",104,673114,"0.0-14.0-2.0-0.0",61164,"ListB","man","english","SW_E_M_B4",NA,NA,NA,"null",NA,NA,NA,NA,NA,NA
"2651","<img src=""portrait/BW2.jpg""style=""height:400px;""></img>",2,"html-button-response",105,675766,"0.0-14.0-4.0",61164,"ListB","man","english","SW_E_M_B4",NA,"true",2,NA,NA,NA,NA,NA,NA,NA
"null","CORRECT",NA,"html-keyboard-response",106,677280,"0.0-14.0-5.0-0.0",61164,"ListB","man","english","SW_E_M_B4",NA,NA,NA,"null",NA,NA,NA,NA,NA,NA
"4004","<img src=""portrait/BM1.jpg""style=""height:400px;""></img>",4,"html-button-response",107,681284,"0.0-14.0-7.0",61164,"ListB","man","english","SW_E_M_B4",NA,"true",4,NA,NA,NA,NA,NA,NA,NA
"null","CORRECT",NA,"html-keyboard-response",108,682803,"0.0-14.0-8.0-0.0",61164,"ListB","man","english","SW_E_M_B4",NA,NA,NA,"null",NA,NA,NA,NA,NA,NA
"2686","<img src=""portrait/BW1.jpg""style=""height:400px;""></img>",0,"html-button-response",109,685489,"0.0-14.0-10.0",61164,"ListB","man","english","SW_E_M_B4",NA,"true",0,NA,NA,NA,NA,NA,NA,NA
"null","CORRECT",NA,"html-keyboard-response",110,687005,"0.0-14.0-11.0-0.0",61164,"ListB","man","english","SW_E_M_B4",NA,NA,NA,"null",NA,NA,NA,NA,NA,NA
"12596","<img src=""portrait/BM2.jpg""style=""height:400px;""></img>",5,"html-button-response",111,699603,"0.0-14.0-13.0",61164,"ListB","man","english","SW_E_M_B4",NA,"true",5,NA,NA,NA,NA,NA,NA,NA
"null","CORRECT",NA,"html-keyboard-response",112,701125,"0.0-14.0-14.0-0.0",61164,"ListB","man","english","SW_E_M_B4",NA,NA,NA,"null",NA,NA,NA,NA,NA,NA
"2552","<img src=""portrait/WW1.jpg""style=""height:400px;""></img>",1,"html-button-response",113,703678,"0.0-14.0-16.0",61164,"ListB","man","english","SW_E_M_B4",NA,"true",1,NA,NA,NA,NA,NA,NA,NA
"null","CORRECT",NA,"html-keyboard-response",114,705192,"0.0-14.0-17.0-0.0",61164,"ListB","man","english","SW_E_M_B4",NA,NA,NA,"null",NA,NA,NA,NA,NA,NA
"1631","<img src=""portrait/WM2.jpg""style=""height:400px;""></img>",7,"html-button-response",115,706825,"0.0-14.0-19.0",61164,"ListB","man","english","SW_E_M_B4",NA,"true",7,NA,NA,NA,NA,NA,NA,NA
"null","CORRECT",NA,"html-keyboard-response",116,708348,"0.0-14.0-20.0-0.0",61164,"ListB","man","english","SW_E_M_B4",NA,NA,NA,"null",NA,NA,NA,NA,NA,NA
"1966","<img src=""portrait/WW2.jpg""style=""height:400px;""></img>",3,"html-button-response",117,710315,"0.0-14.0-22.0",61164,"ListB","man","english","SW_E_M_B4",NA,"true",3,NA,NA,NA,NA,NA,NA,NA
"null","CORRECT",NA,"html-keyboard-response",118,711838,"0.0-14.0-23.0-0.0",61164,"ListB","man","english","SW_E_M_B4",NA,NA,NA,"null",NA,NA,NA,NA,NA,NA
"1980","<p>You got 8 out of 8 right first time. Press Continue.</p>",0,"html-button-response",119,713819,"0.0-14.0-25.0",61164,"ListB","man","english","SW_E_M_B4",NA,NA,NA,NA,NA,NA,NA,NA,NA,NA
"null","<div style=""font-size:60px;"">+</div>",NA,"html-keyboard-response",120,715329,"0.0-15.0-0.0",61164,"ListB","man","english","SW_E_M_B4",NA,NA,NA,"null",NA,NA,NA,NA,NA,NA
"null","<img src='gifs/BlackGender3b.gif' style='height:400px;''></img>",NA,"html-keyboard-response",121,717344,"0.0-15.0-1.0",61164,"ListB","man","english","SW_E_M_B4",NA,NA,NA,"null",NA,NA,NA,NA,NA,NA
"null","is facing",NA,"html-keyboard-response",122,720358,"0.0-15.0-2.0",61164,"ListB","man","english","SW_E_M_B4",NA,NA,NA,"null",NA,NA,NA,NA,NA,NA
"17956",NA,NA,"survey-text",123,738317,"0.0-15.0-3.0",61164,"ListB","man","english","SW_E_M_B4",NA,NA,NA,NA,"{""Q0"":""fred is facing kate""}","<img src='gifs/BlackGender3b.gif' style='height:400px;''></img>","facing","is facing","english",NA
"null","<div style=""font-size:60px;"">+</div>",NA,"html-keyboard-response",124,738825,"0.0-15.0-0.1",61164,"ListB","man","english","SW_E_M_B4",NA,NA,NA,"null",NA,NA,NA,NA,NA,NA
"null","<img src='gifs/MaleRace2b.gif' style='height:400px;''></img>",NA,"html-keyboard-response",125,740838,"0.0-15.0-1.1",61164,"ListB","man","english","SW_E_M_B4",NA,NA,NA,"null",NA,NA,NA,NA,NA,NA
"null","is touching",NA,"html-keyboard-response",126,743851,"0.0-15.0-2.1",61164,"ListB","man","english","SW_E_M_B4",NA,NA,NA,"null",NA,NA,NA,NA,NA,NA
"11209",NA,NA,"survey-text",127,755063,"0.0-15.0-3.1",61164,"ListB","man","english","SW_E_M_B4",NA,NA,NA,NA,"{""Q0"":""luke is touching mike""}","<img src='gifs/MaleRace2b.gif' style='height:400px;''></img>","touching","is touching","english",NA
"null","<div style=""font-size:60px;"">+</div>",NA,"html-keyboard-response",128,755577,"0.0-15.0-0.2",61164,"ListB","man","english","SW_E_M_B4",NA,NA,NA,"null",NA,NA,NA,NA,NA,NA
"null","<img src='gifs/BlackGender4a.gif' style='height:400px;''></img>",NA,"html-keyboard-response",129,757593,"0.0-15.0-1.2",61164,"ListB","man","english","SW_E_M_B4",NA,NA,NA,"null",NA,NA,NA,NA,NA,NA
"null","is convincing",NA,"html-keyboard-response",130,760604,"0.0-15.0-2.2",61164,"ListB","man","english","SW_E_M_B4",NA,NA,NA,"null",NA,NA,NA,NA,NA,NA
"11910",NA,NA,"survey-text",131,772516,"0.0-15.0-3.2",61164,"ListB","man","english","SW_E_M_B4",NA,NA,NA,NA,"{""Q0"":""mike is convincing kate""}","<img src='gifs/BlackGender4a.gif' style='height:400px;''></img>","convincing","is convincing","english",NA
"null","<div style=""font-size:60px;"">+</div>",NA,"html-keyboard-response",132,773022,"0.0-15.0-0.3",61164,"ListB","man","english","SW_E_M_B4",NA,NA,NA,"null",NA,NA,NA,NA,NA,NA
"null","<img src='gifs/ChineseGender3b.gif' style='height:400px;''></img>",NA,"html-keyboard-response",133,775034,"0.0-15.0-1.3",61164,"ListB","man","english","SW_E_M_B4",NA,NA,NA,"null",NA,NA,NA,NA,NA,NA
"null","is looking at",NA,"html-keyboard-response",134,778046,"0.0-15.0-2.3",61164,"ListB","man","english","SW_E_M_B4",NA,NA,NA,"null",NA,NA,NA,NA,NA,NA
"19046",NA,NA,"survey-text",135,797095,"0.0-15.0-3.3",61164,"ListB","man","english","SW_E_M_B4",NA,NA,NA,NA,"{""Q0"":""ruth is looking at dave""}","<img src='gifs/ChineseGender3b.gif' style='height:400px;''></img>","looking at","is looking at","english",NA
"null","<div style=""font-size:60px;"">+</div>",NA,"html-keyboard-response",136,797597,"0.0-15.0-0.4",61164,"ListB","man","english","SW_E_M_B4",NA,NA,NA,"null",NA,NA,NA,NA,NA,NA
"null","<img src='gifs/FemaleRace3b.gif' style='height:400px;''></img>",NA,"html-keyboard-response",137,799612,"0.0-15.0-1.4",61164,"ListB","man","english","SW_E_M_B4",NA,NA,NA,"null",NA,NA,NA,NA,NA,NA
"null","is listening to",NA,"html-keyboard-response",138,802621,"0.0-15.0-2.4",61164,"ListB","man","english","SW_E_M_B4",NA,NA,NA,"null",NA,NA,NA,NA,NA,NA
"16211",NA,NA,"survey-text",139,818834,"0.0-15.0-3.4",61164,"ListB","man","english","SW_E_M_B4",NA,NA,NA,NA,"{""Q0"":""beth is listening to ruth""}","<img src='gifs/FemaleRace3b.gif' style='height:400px;''></img>","listening to","is listening to","english",NA
"null","<div style=""font-size:60px;"">+</div>",NA,"html-keyboard-response",140,819342,"0.0-15.0-0.5",61164,"ListB","man","english","SW_E_M_B4",NA,NA,NA,"null",NA,NA,NA,NA,NA,NA
"null","<img src='gifs/FemaleRace3a.gif' style='height:400px;''></img>",NA,"html-keyboard-response",141,821355,"0.0-15.0-1.5",61164,"ListB","man","english","SW_E_M_B4",NA,NA,NA,"null",NA,NA,NA,NA,NA,NA
"null","is employing",NA,"html-keyboard-response",142,824366,"0.0-15.0-2.5",61164,"ListB","man","english","SW_E_M_B4",NA,NA,NA,"null",NA,NA,NA,NA,NA,NA
"17403",NA,NA,"survey-text",143,841769,"0.0-15.0-3.5",61164,"ListB","man","english","SW_E_M_B4",NA,NA,NA,NA,"{""Q0"":""ruth is employing beth""}","<img src='gifs/FemaleRace3a.gif' style='height:400px;''></img>","employing","is employing","english",NA
"null","<div style=""font-size:60px;"">+</div>",NA,"html-keyboard-response",144,842282,"0.0-15.0-0.6",61164,"ListB","man","english","SW_E_M_B4",NA,NA,NA,"null",NA,NA,NA,NA,NA,NA
"null","<img src='gifs/ChineseGender1a.gif' style='height:400px;''></img>",NA,"html-keyboard-response",145,844292,"0.0-15.0-1.6",61164,"ListB","man","english","SW_E_M_B4",NA,NA,NA,"null",NA,NA,NA,NA,NA,NA
"null","is following",NA,"html-keyboard-response",146,847292,"0.0-15.0-2.6",61164,"ListB","man","english","SW_E_M_B4",NA,NA,NA,"null",NA,NA,NA,NA,NA,NA
"19487",NA,NA,"survey-text",147,866780,"0.0-15.0-3.6",61164,"ListB","man","english","SW_E_M_B4",NA,NA,NA,NA,"{""Q0"":""luke is following jane""}","<img src='gifs/ChineseGender1a.gif' style='height:400px;''></img>","following","is following","english",NA
"null","<div style=""font-size:60px;"">+</div>",NA,"html-keyboard-response",148,867291,"0.0-15.0-0.7",61164,"ListB","man","english","SW_E_M_B4",NA,NA,NA,"null",NA,NA,NA,NA,NA,NA
"null","<img src='gifs/BlackGender2b.gif' style='height:400px;''></img>",NA,"html-keyboard-response",149,869305,"0.0-15.0-1.7",61164,"ListB","man","english","SW_E_M_B4",NA,NA,NA,"null",NA,NA,NA,NA,NA,NA
"null","is praising",NA,"html-keyboard-response",150,872317,"0.0-15.0-2.7",61164,"ListB","man","english","SW_E_M_B4",NA,NA,NA,"null",NA,NA,NA,NA,NA,NA
"14094",NA,NA,"survey-text",151,886414,"0.0-15.0-3.7",61164,"ListB","man","english","SW_E_M_B4",NA,NA,NA,NA,"{""Q0"":""mike is praising beth""}","<img src='gifs/BlackGender2b.gif' style='height:400px;''></img>","praising","is praising","english",NA
"null","<div style=""font-size:60px;"">+</div>",NA,"html-keyboard-response",152,886928,"0.0-15.0-0.8",61164,"ListB","man","english","SW_E_M_B4",NA,NA,NA,"null",NA,NA,NA,NA,NA,NA
"null","<img src='gifs/MaleRace3b.gif' style='height:400px;''></img>",NA,"html-keyboard-response",153,888938,"0.0-15.0-1.8",61164,"ListB","man","english","SW_E_M_B4",NA,NA,NA,"null",NA,NA,NA,NA,NA,NA
"null","is following",NA,"html-keyboard-response",154,891946,"0.0-15.0-2.8",61164,"ListB","man","english","SW_E_M_B4",NA,NA,NA,"null",NA,NA,NA,NA,NA,NA
"11289",NA,NA,"survey-text",155,903236,"0.0-15.0-3.8",61164,"ListB","man","english","SW_E_M_B4",NA,NA,NA,NA,"{""Q0"":""brth is following dave""}","<img src='gifs/MaleRace3b.gif' style='height:400px;''></img>","following","is following","english",NA
"null","<div style=""font-size:60px;"">+</div>",NA,"html-keyboard-response",156,903745,"0.0-15.0-0.9",61164,"ListB","man","english","SW_E_M_B4",NA,NA,NA,"null",NA,NA,NA,NA,NA,NA
"null","<img src='gifs/BlackGender4b.gif' style='height:400px;''></img>",NA,"html-keyboard-response",157,905748,"0.0-15.0-1.9",61164,"ListB","man","english","SW_E_M_B4",NA,NA,NA,"null",NA,NA,NA,NA,NA,NA
"null","is listening to",NA,"html-keyboard-response",158,908762,"0.0-15.0-2.9",61164,"ListB","man","english","SW_E_M_B4",NA,NA,NA,"null",NA,NA,NA,NA,NA,NA
"8951",NA,NA,"survey-text",159,917716,"0.0-15.0-3.9",61164,"ListB","man","english","SW_E_M_B4",NA,NA,NA,NA,"{""Q0"":""mike is listening to kate""}","<img src='gifs/BlackGender4b.gif' style='height:400px;''></img>","listening to","is listening to","english",NA
"null","<div style=""font-size:60px;"">+</div>",NA,"html-keyboard-response",160,918221,"0.0-15.0-0.10",61164,"ListB","man","english","SW_E_M_B4",NA,NA,NA,"null",NA,NA,NA,NA,NA,NA
"null","<img src='gifs/ChineseGender1a.gif' style='height:400px;''></img>",NA,"html-keyboard-response",161,920225,"0.0-15.0-1.10",61164,"ListB","man","english","SW_E_M_B4",NA,NA,NA,"null",NA,NA,NA,NA,NA,NA
"null","is praising",NA,"html-keyboard-response",162,923240,"0.0-15.0-2.10",61164,"ListB","man","english","SW_E_M_B4",NA,NA,NA,"null",NA,NA,NA,NA,NA,NA
"16000",NA,NA,"survey-text",163,939242,"0.0-15.0-3.10",61164,"ListB","man","english","SW_E_M_B4",NA,NA,NA,NA,"{""Q0"":""jane is praising luke""}","<img src='gifs/ChineseGender1a.gif' style='height:400px;''></img>","praising","is praising","english",NA
"null","<div style=""font-size:60px;"">+</div>",NA,"html-keyboard-response",164,939754,"0.0-15.0-0.11",61164,"ListB","man","english","SW_E_M_B4",NA,NA,NA,"null",NA,NA,NA,NA,NA,NA
"null","<img src='gifs/ChineseGender2a.gif' style='height:400px;''></img>",NA,"html-keyboard-response",165,941765,"0.0-15.0-1.11",61164,"ListB","man","english","SW_E_M_B4",NA,NA,NA,"null",NA,NA,NA,NA,NA,NA
"null","is walking towards",NA,"html-keyboard-response",166,944770,"0.0-15.0-2.11",61164,"ListB","man","english","SW_E_M_B4",NA,NA,NA,"null",NA,NA,NA,NA,NA,NA
"15257",NA,NA,"survey-text",167,960030,"0.0-15.0-3.11",61164,"ListB","man","english","SW_E_M_B4",NA,NA,NA,NA,"{""Q0"":""luke is walking towards ruth""}","<img src='gifs/ChineseGender2a.gif' style='height:400px;''></img>","walking towards","is walking towards","english",NA
"null","<div style=""font-size:60px;"">+</div>",NA,"html-keyboard-response",168,960537,"0.0-15.0-0.12",61164,"ListB","man","english","SW_E_M_B4",NA,NA,NA,"null",NA,NA,NA,NA,NA,NA
"null","<img src='gifs/BlackGender1a.gif' style='height:400px;''></img>",NA,"html-keyboard-response",169,962540,"0.0-15.0-1.12",61164,"ListB","man","english","SW_E_M_B4",NA,NA,NA,"null",NA,NA,NA,NA,NA,NA
"null","is contacting",NA,"html-keyboard-response",170,965547,"0.0-15.0-2.12",61164,"ListB","man","english","SW_E_M_B4",NA,NA,NA,"null",NA,NA,NA,NA,NA,NA
"15214",NA,NA,"survey-text",171,980763,"0.0-15.0-3.12",61164,"ListB","man","english","SW_E_M_B4",NA,NA,NA,NA,"{""Q0"":""beth is contacting fred""}","<img src='gifs/BlackGender1a.gif' style='height:400px;''></img>","contacting","is contacting","english",NA
"null","<div style=""font-size:60px;"">+</div>",NA,"html-keyboard-response",172,981269,"0.0-15.0-0.13",61164,"ListB","man","english","SW_E_M_B4",NA,NA,NA,"null",NA,NA,NA,NA,NA,NA
"null","<img src='gifs/MaleRace1b.gif' style='height:400px;''></img>",NA,"html-keyboard-response",173,983275,"0.0-15.0-1.13",61164,"ListB","man","english","SW_E_M_B4",NA,NA,NA,"null",NA,NA,NA,NA,NA,NA
"null","is promising",NA,"html-keyboard-response",174,986290,"0.0-15.0-2.13",61164,"ListB","man","english","SW_E_M_B4",NA,NA,NA,"null",NA,NA,NA,NA,NA,NA
"14726",NA,NA,"survey-text",175,1001017,"0.0-15.0-3.13",61164,"ListB","man","english","SW_E_M_B4",NA,NA,NA,NA,"{""Q0"":""luke is promising fred""}","<img src='gifs/MaleRace1b.gif' style='height:400px;''></img>","promising","is promising","english",NA
"null","<div style=""font-size:60px;"">+</div>",NA,"html-keyboard-response",176,1001532,"0.0-15.0-0.14",61164,"ListB","man","english","SW_E_M_B4",NA,NA,NA,"null",NA,NA,NA,NA,NA,NA
"null","<img src='gifs/FemaleRace4b.gif' style='height:400px;''></img>",NA,"html-keyboard-response",177,1003546,"0.0-15.0-1.14",61164,"ListB","man","english","SW_E_M_B4",NA,NA,NA,"null",NA,NA,NA,NA,NA,NA
"null","is looking at",NA,"html-keyboard-response",178,1006553,"0.0-15.0-2.14",61164,"ListB","man","english","SW_E_M_B4",NA,NA,NA,"null",NA,NA,NA,NA,NA,NA
"21195",NA,NA,"survey-text",179,1027750,"0.0-15.0-3.14",61164,"ListB","man","english","SW_E_M_B4",NA,NA,NA,NA,"{""Q0"":""kate is looking at ruth""}","<img src='gifs/FemaleRace4b.gif' style='height:400px;''></img>","looking at","is looking at","english",NA
"null","<div style=""font-size:60px;"">+</div>",NA,"html-keyboard-response",180,1028257,"0.0-15.0-0.15",61164,"ListB","man","english","SW_E_M_B4",NA,NA,NA,"null",NA,NA,NA,NA,NA,NA
"null","<img src='gifs/ChineseGender1b.gif' style='height:400px;''></img>",NA,"html-keyboard-response",181,1030264,"0.0-15.0-1.15",61164,"ListB","man","english","SW_E_M_B4",NA,NA,NA,"null",NA,NA,NA,NA,NA,NA
"null","is looking at",NA,"html-keyboard-response",182,1033275,"0.0-15.0-2.15",61164,"ListB","man","english","SW_E_M_B4",NA,NA,NA,"null",NA,NA,NA,NA,NA,NA
"22519",NA,NA,"survey-text",183,1055797,"0.0-15.0-3.15",61164,"ListB","man","english","SW_E_M_B4",NA,NA,NA,NA,"{""Q0"":""jane is looking at luke""}","<img src='gifs/ChineseGender1b.gif' style='height:400px;''></img>","looking at","is looking at","english",NA
"null","<div style=""font-size:60px;"">+</div>",NA,"html-keyboard-response",184,1056312,"0.0-15.0-0.16",61164,"ListB","man","english","SW_E_M_B4",NA,NA,NA,"null",NA,NA,NA,NA,NA,NA
"null","<img src='gifs/BlackGender2b.gif' style='height:400px;''></img>",NA,"html-keyboard-response",185,1058322,"0.0-15.0-1.16",61164,"ListB","man","english","SW_E_M_B4",NA,NA,NA,"null",NA,NA,NA,NA,NA,NA
"null","is accompanying",NA,"html-keyboard-response",186,1061323,"0.0-15.0-2.16",61164,"ListB","man","english","SW_E_M_B4",NA,NA,NA,"null",NA,NA,NA,NA,NA,NA
"16507",NA,NA,"survey-text",187,1077832,"0.0-15.0-3.16",61164,"ListB","man","english","SW_E_M_B4",NA,NA,NA,NA,"{""Q0"":""beth is accompanying mike""}","<img src='gifs/BlackGender2b.gif' style='height:400px;''></img>","accompanying","is accompanying","english",NA
"null","<div style=""font-size:60px;"">+</div>",NA,"html-keyboard-response",188,1078337,"0.0-15.0-0.17",61164,"ListB","man","english","SW_E_M_B4",NA,NA,NA,"null",NA,NA,NA,NA,NA,NA
"null","<img src='gifs/MaleRace1a.gif' style='height:400px;''></img>",NA,"html-keyboard-response",189,1080340,"0.0-15.0-1.17",61164,"ListB","man","english","SW_E_M_B4",NA,NA,NA,"null",NA,NA,NA,NA,NA,NA
"null","is touching",NA,"html-keyboard-response",190,1083352,"0.0-15.0-2.17",61164,"ListB","man","english","SW_E_M_B4",NA,NA,NA,"null",NA,NA,NA,NA,NA,NA
"18529",NA,NA,"survey-text",191,1101882,"0.0-15.0-3.17",61164,"ListB","man","english","SW_E_M_B4",NA,NA,NA,NA,"{""Q0"":""fred is touching luke""}","<img src='gifs/MaleRace1a.gif' style='height:400px;''></img>","touching","is touching","english",NA
"2876","<img src='img/portrait_matrix_listB.jpg' style='width:900px;height:500px;''></img><p>If you have memorised all the portraits and names and are ready to start, press Continue.</p><p><strong>Please note: Your memory of these faces will be tested 5 times during this experiment.</strong></p>",0,"html-button-response",192,1104760,"0.0-16.0-0.0",61164,"ListB","man","english","SW_E_M_B4",NA,NA,NA,NA,NA,NA,NA,NA,NA,NA
"3460","<img src=""portrait/BW2.jpg""style=""height:400px;""></img>",2,"html-button-response",193,1109231,"0.0-16.0-1.0",61164,"ListB","man","english","SW_E_M_B4",NA,"true",2,NA,NA,NA,NA,NA,NA,NA
"null","CORRECT",NA,"html-keyboard-response",194,1110739,"0.0-16.0-2.0-0.0",61164,"ListB","man","english","SW_E_M_B4",NA,NA,NA,"null",NA,NA,NA,NA,NA,NA
"3161","<img src=""portrait/BM1.jpg""style=""height:400px;""></img>",4,"html-button-response",195,1113900,"0.0-16.0-4.0",61164,"ListB","man","english","SW_E_M_B4",NA,"true",4,NA,NA,NA,NA,NA,NA,NA
"null","CORRECT",NA,"html-keyboard-response",196,1115428,"0.0-16.0-5.0-0.0",61164,"ListB","man","english","SW_E_M_B4",NA,NA,NA,"null",NA,NA,NA,NA,NA,NA
"2019","<img src=""portrait/BM2.jpg""style=""height:400px;""></img>",5,"html-button-response",197,1117447,"0.0-16.0-7.0",61164,"ListB","man","english","SW_E_M_B4",NA,"true",5,NA,NA,NA,NA,NA,NA,NA
"null","CORRECT",NA,"html-keyboard-response",198,1118964,"0.0-16.0-8.0-0.0",61164,"ListB","man","english","SW_E_M_B4",NA,NA,NA,"null",NA,NA,NA,NA,NA,NA
"2996","<img src=""portrait/WW1.jpg""style=""height:400px;""></img>",1,"html-button-response",199,1121963,"0.0-16.0-10.0",61164,"ListB","man","english","SW_E_M_B4",NA,"true",1,NA,NA,NA,NA,NA,NA,NA
"null","CORRECT",NA,"html-keyboard-response",200,1123486,"0.0-16.0-11.0-0.0",61164,"ListB","man","english","SW_E_M_B4",NA,NA,NA,"null",NA,NA,NA,NA,NA,NA
"2348","<img src=""portrait/WW2.jpg""style=""height:400px;""></img>",3,"html-button-response",201,1125835,"0.0-16.0-13.0",61164,"ListB","man","english","SW_E_M_B4",NA,"true",3,NA,NA,NA,NA,NA,NA,NA
"null","CORRECT",NA,"html-keyboard-response",202,1127346,"0.0-16.0-14.0-0.0",61164,"ListB","man","english","SW_E_M_B4",NA,NA,NA,"null",NA,NA,NA,NA,NA,NA
"2218","<img src=""portrait/WM2.jpg""style=""height:400px;""></img>",7,"html-button-response",203,1129565,"0.0-16.0-16.0",61164,"ListB","man","english","SW_E_M_B4",NA,"true",7,NA,NA,NA,NA,NA,NA,NA
"null","CORRECT",NA,"html-keyboard-response",204,1131077,"0.0-16.0-17.0-0.0",61164,"ListB","man","english","SW_E_M_B4",NA,NA,NA,"null",NA,NA,NA,NA,NA,NA
"7272","<img src=""portrait/WM1.jpg""style=""height:400px;""></img>",6,"html-button-response",205,1138350,"0.0-16.0-19.0",61164,"ListB","man","english","SW_E_M_B4",NA,"true",6,NA,NA,NA,NA,NA,NA,NA
"null","CORRECT",NA,"html-keyboard-response",206,1139868,"0.0-16.0-20.0-0.0",61164,"ListB","man","english","SW_E_M_B4",NA,NA,NA,"null",NA,NA,NA,NA,NA,NA
"4525","<img src=""portrait/BW1.jpg""style=""height:400px;""></img>",0,"html-button-response",207,1144394,"0.0-16.0-22.0",61164,"ListB","man","english","SW_E_M_B4",NA,"true",0,NA,NA,NA,NA,NA,NA,NA
"null","CORRECT",NA,"html-keyboard-response",208,1145906,"0.0-16.0-23.0-0.0",61164,"ListB","man","english","SW_E_M_B4",NA,NA,NA,"null",NA,NA,NA,NA,NA,NA
"4132","<p>You got 8 out of 8 right first time. Press Continue.</p>",0,"html-button-response",209,1150039,"0.0-16.0-25.0",61164,"ListB","man","english","SW_E_M_B4",NA,NA,NA,NA,NA,NA,NA,NA,NA,NA
"null","<div style=""font-size:60px;"">+</div>",NA,"html-keyboard-response",210,1151545,"0.0-17.0-0.0",61164,"ListB","man","english","SW_E_M_B4",NA,NA,NA,"null",NA,NA,NA,NA,NA,NA
"null","<img src='gifs/MaleRace1b.gif' style='height:400px;''></img>",NA,"html-keyboard-response",211,1153552,"0.0-17.0-1.0",61164,"ListB","man","english","SW_E_M_B4",NA,NA,NA,"null",NA,NA,NA,NA,NA,NA
"null","is employing",NA,"html-keyboard-response",212,1156562,"0.0-17.0-2.0",61164,"ListB","man","english","SW_E_M_B4",NA,NA,NA,"null",NA,NA,NA,NA,NA,NA
"13192",NA,NA,"survey-text",213,1169757,"0.0-17.0-3.0",61164,"ListB","man","english","SW_E_M_B4",NA,NA,NA,NA,"{""Q0"":""luke is employing fred""}","<img src='gifs/MaleRace1b.gif' style='height:400px;''></img>","employing","is employing","english",NA
"null","<div style=""font-size:60px;"">+</div>",NA,"html-keyboard-response",214,1170267,"0.0-17.0-0.1",61164,"ListB","man","english","SW_E_M_B4",NA,NA,NA,"null",NA,NA,NA,NA,NA,NA
"null","<img src='gifs/FemaleRace4a.gif' style='height:400px;''></img>",NA,"html-keyboard-response",215,1172281,"0.0-17.0-1.1",61164,"ListB","man","english","SW_E_M_B4",NA,NA,NA,"null",NA,NA,NA,NA,NA,NA
"null","is walking towards",NA,"html-keyboard-response",216,1175295,"0.0-17.0-2.1",61164,"ListB","man","english","SW_E_M_B4",NA,NA,NA,"null",NA,NA,NA,NA,NA,NA
"16615",NA,NA,"survey-text",217,1191912,"0.0-17.0-3.1",61164,"ListB","man","english","SW_E_M_B4",NA,NA,NA,NA,"{""Q0"":""kate is walking towards ruth""}","<img src='gifs/FemaleRace4a.gif' style='height:400px;''></img>","walking towards","is walking towards","english",NA
"null","<div style=""font-size:60px;"">+</div>",NA,"html-keyboard-response",218,1192426,"0.0-17.0-0.2",61164,"ListB","man","english","SW_E_M_B4",NA,NA,NA,"null",NA,NA,NA,NA,NA,NA
"null","<img src='gifs/FemaleRace3a.gif' style='height:400px;''></img>",NA,"html-keyboard-response",219,1194440,"0.0-17.0-1.2",61164,"ListB","man","english","SW_E_M_B4",NA,NA,NA,"null",NA,NA,NA,NA,NA,NA
"null","is convincing",NA,"html-keyboard-response",220,1197448,"0.0-17.0-2.2",61164,"ListB","man","english","SW_E_M_B4",NA,NA,NA,"null",NA,NA,NA,NA,NA,NA
"16425",NA,NA,"survey-text",221,1213874,"0.0-17.0-3.2",61164,"ListB","man","english","SW_E_M_B4",NA,NA,NA,NA,"{""Q0"":""ruth is convincing beth""}","<img src='gifs/FemaleRace3a.gif' style='height:400px;''></img>","convincing","is convincing","english",NA
"null","<div style=""font-size:60px;"">+</div>",NA,"html-keyboard-response",222,1214386,"0.0-17.0-0.3",61164,"ListB","man","english","SW_E_M_B4",NA,NA,NA,"null",NA,NA,NA,NA,NA,NA
"null","<img src='gifs/ChineseGender2b.gif' style='height:400px;''></img>",NA,"html-keyboard-response",223,1216399,"0.0-17.0-1.3",61164,"ListB","man","english","SW_E_M_B4",NA,NA,NA,"null",NA,NA,NA,NA,NA,NA
"null","is introducing",NA,"html-keyboard-response",224,1219413,"0.0-17.0-2.3",61164,"ListB","man","english","SW_E_M_B4",NA,NA,NA,"null",NA,NA,NA,NA,NA,NA
"23711",NA,NA,"survey-text",225,1243127,"0.0-17.0-3.3",61164,"ListB","man","english","SW_E_M_B4",NA,NA,NA,NA,"{""Q0"":""ruth is introducing luke""}","<img src='gifs/ChineseGender2b.gif' style='height:400px;''></img>","introducing","is introducing","english",NA
"null","<div style=""font-size:60px;"">+</div>",NA,"html-keyboard-response",226,1243630,"0.0-17.0-0.4",61164,"ListB","man","english","SW_E_M_B4",NA,NA,NA,"null",NA,NA,NA,NA,NA,NA
"null","<img src='gifs/BlackGender2a.gif' style='height:400px;''></img>",NA,"html-keyboard-response",227,1245639,"0.0-17.0-1.4",61164,"ListB","man","english","SW_E_M_B4",NA,NA,NA,"null",NA,NA,NA,NA,NA,NA
"null","is looking at",NA,"html-keyboard-response",228,1248652,"0.0-17.0-2.4",61164,"ListB","man","english","SW_E_M_B4",NA,NA,NA,"null",NA,NA,NA,NA,NA,NA
"14283",NA,NA,"survey-text",229,1262938,"0.0-17.0-3.4",61164,"ListB","man","english","SW_E_M_B4",NA,NA,NA,NA,"{""Q0"":""mike is looking at beth""}","<img src='gifs/BlackGender2a.gif' style='height:400px;''></img>","looking at","is looking at","english",NA
"null","<div style=""font-size:60px;"">+</div>",NA,"html-keyboard-response",230,1263442,"0.0-17.0-0.5",61164,"ListB","man","english","SW_E_M_B4",NA,NA,NA,"null",NA,NA,NA,NA,NA,NA
"null","<img src='gifs/MaleRace2a.gif' style='height:400px;''></img>",NA,"html-keyboard-response",231,1265445,"0.0-17.0-1.5",61164,"ListB","man","english","SW_E_M_B4",NA,NA,NA,"null",NA,NA,NA,NA,NA,NA
"null","is joining",NA,"html-keyboard-response",232,1268456,"0.0-17.0-2.5",61164,"ListB","man","english","SW_E_M_B4",NA,NA,NA,"null",NA,NA,NA,NA,NA,NA
"9981",NA,NA,"survey-text",233,1278440,"0.0-17.0-3.5",61164,"ListB","man","english","SW_E_M_B4",NA,NA,NA,NA,"{""Q0"":""mike is joining luke""}","<img src='gifs/MaleRace2a.gif' style='height:400px;''></img>","join","is joining","english",NA
"null","<div style=""font-size:60px;"">+</div>",NA,"html-keyboard-response",234,1278942,"0.0-17.0-0.6",61164,"ListB","man","english","SW_E_M_B4",NA,NA,NA,"null",NA,NA,NA,NA,NA,NA
"null","<img src='gifs/BlackGender3a.gif' style='height:400px;''></img>",NA,"html-keyboard-response",235,1280943,"0.0-17.0-1.6",61164,"ListB","man","english","SW_E_M_B4",NA,NA,NA,"null",NA,NA,NA,NA,NA,NA
"null","is contacting",NA,"html-keyboard-response",236,1283946,"0.0-17.0-2.6",61164,"ListB","man","english","SW_E_M_B4",NA,NA,NA,"null",NA,NA,NA,NA,NA,NA
"18958",NA,NA,"survey-text",237,1302908,"0.0-17.0-3.6",61164,"ListB","man","english","SW_E_M_B4",NA,NA,NA,NA,"{""Q0"":""fred is contacting kate""}","<img src='gifs/BlackGender3a.gif' style='height:400px;''></img>","contacting","is contacting","english",NA
"null","<div style=""font-size:60px;"">+</div>",NA,"html-keyboard-response",238,1303410,"0.0-17.0-0.7",61164,"ListB","man","english","SW_E_M_B4",NA,NA,NA,"null",NA,NA,NA,NA,NA,NA
"null","<img src='gifs/ChineseGender4a.gif' style='height:400px;''></img>",NA,"html-keyboard-response",239,1305416,"0.0-17.0-1.7",61164,"ListB","man","english","SW_E_M_B4",NA,NA,NA,"null",NA,NA,NA,NA,NA,NA
"null","is praising",NA,"html-keyboard-response",240,1308422,"0.0-17.0-2.7",61164,"ListB","man","english","SW_E_M_B4",NA,NA,NA,"null",NA,NA,NA,NA,NA,NA
"15486",NA,NA,"survey-text",241,1323911,"0.0-17.0-3.7",61164,"ListB","man","english","SW_E_M_B4",NA,NA,NA,NA,"{""Q0"":""jane is praising dave""}","<img src='gifs/ChineseGender4a.gif' style='height:400px;''></img>","praising","is praising","english",NA
"null","<div style=""font-size:60px;"">+</div>",NA,"html-keyboard-response",242,1324420,"0.0-17.0-0.8",61164,"ListB","man","english","SW_E_M_B4",NA,NA,NA,"null",NA,NA,NA,NA,NA,NA
"null","<img src='gifs/FemaleRace2a.gif' style='height:400px;''></img>",NA,"html-keyboard-response",243,1326422,"0.0-17.0-1.8",61164,"ListB","man","english","SW_E_M_B4",NA,NA,NA,"null",NA,NA,NA,NA,NA,NA
"null","is convincing",NA,"html-keyboard-response",244,1329428,"0.0-17.0-2.8",61164,"ListB","man","english","SW_E_M_B4",NA,NA,NA,"null",NA,NA,NA,NA,NA,NA
"20428",NA,NA,"survey-text",245,1349859,"0.0-17.0-3.8",61164,"ListB","man","english","SW_E_M_B4",NA,NA,NA,NA,"{""Q0"":""kate is convincing jane""}","<img src='gifs/FemaleRace2a.gif' style='height:400px;''></img>","convincing","is convincing","english",NA
"null","<div style=""font-size:60px;"">+</div>",NA,"html-keyboard-response",246,1350373,"0.0-17.0-0.9",61164,"ListB","man","english","SW_E_M_B4",NA,NA,NA,"null",NA,NA,NA,NA,NA,NA
"null","<img src='gifs/BlackGender1b.gif' style='height:400px;''></img>",NA,"html-keyboard-response",247,1352388,"0.0-17.0-1.9",61164,"ListB","man","english","SW_E_M_B4",NA,NA,NA,"null",NA,NA,NA,NA,NA,NA
"null","is following",NA,"html-keyboard-response",248,1355390,"0.0-17.0-2.9",61164,"ListB","man","english","SW_E_M_B4",NA,NA,NA,"null",NA,NA,NA,NA,NA,NA
"15616",NA,NA,"survey-text",249,1371007,"0.0-17.0-3.9",61164,"ListB","man","english","SW_E_M_B4",NA,NA,NA,NA,"{""Q0"":""beth is following fred""}","<img src='gifs/BlackGender1b.gif' style='height:400px;''></img>","following","is following","english",NA
"null","<div style=""font-size:60px;"">+</div>",NA,"html-keyboard-response",250,1371510,"0.0-17.0-0.10",61164,"ListB","man","english","SW_E_M_B4",NA,NA,NA,"null",NA,NA,NA,NA,NA,NA
"null","<img src='gifs/FemaleRace1a.gif' style='height:400px;''></img>",NA,"html-keyboard-response",251,1373523,"0.0-17.0-1.10",61164,"ListB","man","english","SW_E_M_B4",NA,NA,NA,"null",NA,NA,NA,NA,NA,NA
"null","is mentioning",NA,"html-keyboard-response",252,1376538,"0.0-17.0-2.10",61164,"ListB","man","english","SW_E_M_B4",NA,NA,NA,"null",NA,NA,NA,NA,NA,NA
"18416",NA,NA,"survey-text",253,1394958,"0.0-17.0-3.10",61164,"ListB","man","english","SW_E_M_B4",NA,NA,NA,NA,"{""Q0"":""jane is mentioning beth""}","<img src='gifs/FemaleRace1a.gif' style='height:400px;''></img>","mention","is mentioning","english",NA
"null","<div style=""font-size:60px;"">+</div>",NA,"html-keyboard-response",254,1395466,"0.0-17.0-0.11",61164,"ListB","man","english","SW_E_M_B4",NA,NA,NA,"null",NA,NA,NA,NA,NA,NA
"null","<img src='gifs/MaleRace3b.gif' style='height:400px;''></img>",NA,"html-keyboard-response",255,1397467,"0.0-17.0-1.11",61164,"ListB","man","english","SW_E_M_B4",NA,NA,NA,"null",NA,NA,NA,NA,NA,NA
"null","is touching",NA,"html-keyboard-response",256,1400471,"0.0-17.0-2.11",61164,"ListB","man","english","SW_E_M_B4",NA,NA,NA,"null",NA,NA,NA,NA,NA,NA
"18104",NA,NA,"survey-text",257,1418577,"0.0-17.0-3.11",61164,"ListB","man","english","SW_E_M_B4",NA,NA,NA,NA,"{""Q0"":""dave is touching fred""}","<img src='gifs/MaleRace3b.gif' style='height:400px;''></img>","touching","is touching","english",NA
"null","<div style=""font-size:60px;"">+</div>",NA,"html-keyboard-response",258,1419079,"0.0-17.0-0.12",61164,"ListB","man","english","SW_E_M_B4",NA,NA,NA,"null",NA,NA,NA,NA,NA,NA
"null","<img src='gifs/ChineseGender4b.gif' style='height:400px;''></img>",NA,"html-keyboard-response",259,1421091,"0.0-17.0-1.12",61164,"ListB","man","english","SW_E_M_B4",NA,NA,NA,"null",NA,NA,NA,NA,NA,NA
"null","is walking towards",NA,"html-keyboard-response",260,1424105,"0.0-17.0-2.12",61164,"ListB","man","english","SW_E_M_B4",NA,NA,NA,"null",NA,NA,NA,NA,NA,NA
"18693",NA,NA,"survey-text",261,1442799,"0.0-17.0-3.12",61164,"ListB","man","english","SW_E_M_B4",NA,NA,NA,NA,"{""Q0"":""dave is walking towards jane""}","<img src='gifs/ChineseGender4b.gif' style='height:400px;''></img>","walking towards","is walking towards","english",NA
"null","<div style=""font-size:60px;"">+</div>",NA,"html-keyboard-response",262,1443309,"0.0-17.0-0.13",61164,"ListB","man","english","SW_E_M_B4",NA,NA,NA,"null",NA,NA,NA,NA,NA,NA
"null","<img src='gifs/FemaleRace4a.gif' style='height:400px;''></img>",NA,"html-keyboard-response",263,1445313,"0.0-17.0-1.13",61164,"ListB","man","english","SW_E_M_B4",NA,NA,NA,"null",NA,NA,NA,NA,NA,NA
"null","is introducing",NA,"html-keyboard-response",264,1448325,"0.0-17.0-2.13",61164,"ListB","man","english","SW_E_M_B4",NA,NA,NA,"null",NA,NA,NA,NA,NA,NA
"25330",NA,NA,"survey-text",265,1473657,"0.0-17.0-3.13",61164,"ListB","man","english","SW_E_M_B4",NA,NA,NA,NA,"{""Q0"":""ruth is introducing kate""}","<img src='gifs/FemaleRace4a.gif' style='height:400px;''></img>","introducing","is introducing","english",NA
"null","<div style=""font-size:60px;"">+</div>",NA,"html-keyboard-response",266,1474159,"0.0-17.0-0.14",61164,"ListB","man","english","SW_E_M_B4",NA,NA,NA,"null",NA,NA,NA,NA,NA,NA
"null","<img src='gifs/ChineseGender1b.gif' style='height:400px;''></img>",NA,"html-keyboard-response",267,1476162,"0.0-17.0-1.14",61164,"ListB","man","english","SW_E_M_B4",NA,NA,NA,"null",NA,NA,NA,NA,NA,NA
"null","is following",NA,"html-keyboard-response",268,1479163,"0.0-17.0-2.14",61164,"ListB","man","english","SW_E_M_B4",NA,NA,NA,"null",NA,NA,NA,NA,NA,NA
"11360",NA,NA,"survey-text",269,1490526,"0.0-17.0-3.14",61164,"ListB","man","english","SW_E_M_B4",NA,NA,NA,NA,"{""Q0"":""luke is following jane""}","<img src='gifs/ChineseGender1b.gif' style='height:400px;''></img>","following","is following","english",NA
"null","<div style=""font-size:60px;"">+</div>",NA,"html-keyboard-response",270,1491037,"0.0-17.0-0.15",61164,"ListB","man","english","SW_E_M_B4",NA,NA,NA,"null",NA,NA,NA,NA,NA,NA
"null","<img src='gifs/MaleRace2a.gif' style='height:400px;''></img>",NA,"html-keyboard-response",271,1493038,"0.0-17.0-1.15",61164,"ListB","man","english","SW_E_M_B4",NA,NA,NA,"null",NA,NA,NA,NA,NA,NA
"null","is listening to",NA,"html-keyboard-response",272,1496044,"0.0-17.0-2.15",61164,"ListB","man","english","SW_E_M_B4",NA,NA,NA,"null",NA,NA,NA,NA,NA,NA
"21177",NA,NA,"survey-text",273,1517224,"0.0-17.0-3.15",61164,"ListB","man","english","SW_E_M_B4",NA,NA,NA,NA,"{""Q0"":""mike is listening to luke""}","<img src='gifs/MaleRace2a.gif' style='height:400px;''></img>","listening to","is listening to","english",NA
"null","<div style=""font-size:60px;"">+</div>",NA,"html-keyboard-response",274,1517734,"0.0-17.0-0.16",61164,"ListB","man","english","SW_E_M_B4",NA,NA,NA,"null",NA,NA,NA,NA,NA,NA
"null","<img src='gifs/BlackGender1a.gif' style='height:400px;''></img>",NA,"html-keyboard-response",275,1519743,"0.0-17.0-1.16",61164,"ListB","man","english","SW_E_M_B4",NA,NA,NA,"null",NA,NA,NA,NA,NA,NA
"null","is contacting",NA,"html-keyboard-response",276,1522756,"0.0-17.0-2.16",61164,"ListB","man","english","SW_E_M_B4",NA,NA,NA,"null",NA,NA,NA,NA,NA,NA
"18943",NA,NA,"survey-text",277,1541701,"0.0-17.0-3.16",61164,"ListB","man","english","SW_E_M_B4",NA,NA,NA,NA,"{""Q0"":""beth is contacting fred""}","<img src='gifs/BlackGender1a.gif' style='height:400px;''></img>","contacting","is contacting","english",NA
"null","<div style=""font-size:60px;"">+</div>",NA,"html-keyboard-response",278,1542207,"0.0-17.0-0.17",61164,"ListB","man","english","SW_E_M_B4",NA,NA,NA,"null",NA,NA,NA,NA,NA,NA
"null","<img src='gifs/MaleRace4b.gif' style='height:400px;''></img>",NA,"html-keyboard-response",279,1544219,"0.0-17.0-1.17",61164,"ListB","man","english","SW_E_M_B4",NA,NA,NA,"null",NA,NA,NA,NA,NA,NA
"null","is mentioning",NA,"html-keyboard-response",280,1547230,"0.0-17.0-2.17",61164,"ListB","man","english","SW_E_M_B4",NA,NA,NA,"null",NA,NA,NA,NA,NA,NA
"12675",NA,NA,"survey-text",281,1559906,"0.0-17.0-3.17",61164,"ListB","man","english","SW_E_M_B4",NA,NA,NA,NA,"{""Q0"":""dave is mentioning mike""}","<img src='gifs/MaleRace4b.gif' style='height:400px;''></img>","mention","is mentioning","english",NA
"2057","<p>Thank you for completing that task.</p><p>The final part of this session is a short questionnaire.</p><p>Press Continue.</p>",0,"html-button-response",282,1561963,"0.0-18.0",61164,"ListB","man","english","SW_E_M_B4",NA,NA,NA,NA,NA,NA,NA,NA,NA,NA
"71461",NA,NA,"survey-text",283,1634438,"0.0-19.0",61164,"ListB","man","english","SW_E_M_B4",NA,NA,NA,NA,"{""Q0"":""20"",""Q1"":""chinese"",""Q2"":""chinese"",""Q3"":""英国"",""Q4"":""china"",""Q5"":""English"",""Q6"":""man""}",NA,NA,NA,NA,"demographics"
"1728","<p>Have you lived in the UK for the last 5 years or more?</p>",1,"html-button-response",284,1636167,"0.0-20.0",61164,"ListB","man","english","SW_E_M_B4",NA,NA,NA,NA,NA,NA,NA,NA,NA,"fiveyears"
"1699",NA,NA,"external-html",285,1640660,"0.0-21.0",61164,"ListB","man","english","SW_E_M_B4","debrief.html",NA,NA,NA,NA,NA,NA,NA,NA,NA
"15435",NA,NA,"survey-text",286,1656097,"0.0-22.0",61164,"ListB","man","english","SW_E_M_B4",NA,NA,NA,NA,"{""ptpt_id"":""SW_E_M_B4""}",NA,NA,NA,NA,"worker_id"
