"rt","stimulus","button_pressed","trial_type","trial_index","time_elapsed","internal_node_id","subject","list","ppt_gender","ppt_language","ptptID","url","first_guess","correct","key_press","responses","image","verb","phrase","condition","test_part"
"1283.1000000014901","Welcome to the experiment. Press Continue to begin.",0,"html-button-response",0,1286,"0.0-0.0",621,"ListB","woman","chinese","SW_C_F_B4",NA,NA,NA,NA,NA,NA,NA,NA,NA,NA
"4068",NA,NA,"external-html",1,6365,"0.0-1.0",621,"ListB","woman","chinese","SW_C_F_B4","consent.html",NA,NA,NA,NA,NA,NA,NA,NA,NA
"8745.599999999627","<p>在下一页中，您将看到8个人物肖像和他们各自的名字。</p><p>请花费几分钟的时间记住这些人物及其所对应的名字。</p><p>之后的实验中需要您对人物的名字做出回忆，</p><p>因此在实验开始前请确保您已 经完全记住这些人物及其所对应的名字。</p><p><strong>然后您将完成一个测试以检验您对人物和名字的记忆。</strong></p><p>完成此记忆测试后，您将正式进入实验。</p><p>准备好了吗？</p>",0,"html-button-response",2,15112,"0.0-2.0",621,"ListB","woman","chinese","SW_C_F_B4",NA,NA,NA,NA,NA,NA,NA,NA,NA,NA
"7891.89999999851","<img src='img/portrait_matrix_listB_chinese.jpg' style='width:900px;height:500px;''></img><p>如果您已经记住了所有的人物和名字，请点击继续。</p><p><strong>请注意：您对先前记忆的面孔将在本实验中被测试5次。</strong></p>",0,"html-button-response",3,24018,"0.0-3.0-0.0",621,"ListB","woman","chinese","SW_C_F_B4",NA,NA,NA,NA,NA,NA,NA,NA,NA,NA
"3805.5","<img src=""portrait/WW2.jpg""style=""height:400px;""></img>",3,"html-button-response",4,28834,"0.0-3.0-1.0",621,"ListB","woman","chinese","SW_C_F_B4",NA,"true",3,NA,NA,NA,NA,NA,NA,NA
"null","正确",NA,"html-keyboard-response",5,30355,"0.0-3.0-2.0-0.0",621,"ListB","woman","chinese","SW_C_F_B4",NA,NA,NA,"null",NA,NA,NA,NA,NA,NA
"10581.099999999627","<img src=""portrait/BW1.jpg""style=""height:400px;""></img>",0,"html-button-response",6,40939,"0.0-3.0-4.0",621,"ListB","woman","chinese","SW_C_F_B4",NA,"true",0,NA,NA,NA,NA,NA,NA,NA
"null","正确",NA,"html-keyboard-response",7,42465,"0.0-3.0-5.0-0.0",621,"ListB","woman","chinese","SW_C_F_B4",NA,NA,NA,"null",NA,NA,NA,NA,NA,NA
"5858.4000000003725","<img src=""portrait/BW2.jpg""style=""height:400px;""></img>",2,"html-button-response",8,48325,"0.0-3.0-7.0",621,"ListB","woman","chinese","SW_C_F_B4",NA,"true",2,NA,NA,NA,NA,NA,NA,NA
"null","正确",NA,"html-keyboard-response",9,49837,"0.0-3.0-8.0-0.0",621,"ListB","woman","chinese","SW_C_F_B4",NA,NA,NA,"null",NA,NA,NA,NA,NA,NA
"3181.2000000011176","<img src=""portrait/BM1.jpg""style=""height:400px;""></img>",4,"html-button-response",10,53020,"0.0-3.0-10.0",621,"ListB","woman","chinese","SW_C_F_B4",NA,"true",4,NA,NA,NA,NA,NA,NA,NA
"null","正确",NA,"html-keyboard-response",11,54555,"0.0-3.0-11.0-0.0",621,"ListB","woman","chinese","SW_C_F_B4",NA,NA,NA,"null",NA,NA,NA,NA,NA,NA
"3857.800000000745","<img src=""portrait/BM2.jpg""style=""height:400px;""></img>",5,"html-button-response",12,58414,"0.0-3.0-13.0",621,"ListB","woman","chinese","SW_C_F_B4",NA,"true",5,NA,NA,NA,NA,NA,NA,NA
"null","正确",NA,"html-keyboard-response",13,59931,"0.0-3.0-14.0-0.0",621,"ListB","woman","chinese","SW_C_F_B4",NA,NA,NA,"null",NA,NA,NA,NA,NA,NA
"4050.39999999851","<img src=""portrait/WM2.jpg""style=""height:400px;""></img>",7,"html-button-response",14,63984,"0.0-3.0-16.0",621,"ListB","woman","chinese","SW_C_F_B4",NA,"true",7,NA,NA,NA,NA,NA,NA,NA
"null","正确",NA,"html-keyboard-response",15,65508,"0.0-3.0-17.0-0.0",621,"ListB","woman","chinese","SW_C_F_B4",NA,NA,NA,"null",NA,NA,NA,NA,NA,NA
"1717.3999999985099","<img src=""portrait/WM1.jpg""style=""height:400px;""></img>",6,"html-button-response",16,67227,"0.0-3.0-19.0",621,"ListB","woman","chinese","SW_C_F_B4",NA,"true",6,NA,NA,NA,NA,NA,NA,NA
"null","正确",NA,"html-keyboard-response",17,68751,"0.0-3.0-20.0-0.0",621,"ListB","woman","chinese","SW_C_F_B4",NA,NA,NA,"null",NA,NA,NA,NA,NA,NA
"3231.4000000003725","<img src=""portrait/WW1.jpg""style=""height:400px;""></img>",1,"html-button-response",18,71984,"0.0-3.0-22.0",621,"ListB","woman","chinese","SW_C_F_B4",NA,"true",1,NA,NA,NA,NA,NA,NA,NA
"null","正确",NA,"html-keyboard-response",19,73513,"0.0-3.0-23.0-0.0",621,"ListB","woman","chinese","SW_C_F_B4",NA,NA,NA,"null",NA,NA,NA,NA,NA,NA
"1843.800000000745","<p>您第一次在8题里答对了 8 题。 请点击继续</p>",0,"html-button-response",20,75359,"0.0-3.0-25.0",621,"ListB","woman","chinese","SW_C_F_B4",NA,NA,NA,NA,NA,NA,NA,NA,NA,NA
"3387.4000000003725","<p>此次实验您将会看到先前记忆任务里的人物照片。</p><p>人物照片消失后您将看到一个动词短语，请正确回忆人物的名字并用特定的 动词短语组成一句完整的句子。</p><p>请在指定的框内输入您的答案。在进入下一题之前请确保您填写了完整的句子。</p><p>人物照片和动词短语只会在屏幕上出现几秒钟，因此请您答题时尽量集中注意力。</p><p>以下是例子。请您在准备好后按下“继续”。</p><img src='img/chinese_speaking_example.jpg' style='width:800px;height:460px;''></img>",0,"html-button-response",21,79761,"0.0-4.0",621,"ListB","woman","chinese","SW_C_F_B4",NA,NA,NA,NA,NA,NA,NA,NA,NA,NA
"1391.9000000003725","<p>在实验开始前，将为您展示两个示例实验。</p>",0,"html-button-response",22,82168,"0.0-5.0",621,"ListB","woman","chinese","SW_C_F_B4",NA,NA,NA,NA,NA,NA,NA,NA,NA,NA
"null","<img src='img/meet.gif' style='height:400px;''></img>",NA,"html-keyboard-response",23,85199,"0.0-6.0",621,"ListB","woman","chinese","SW_C_F_B4",NA,NA,NA,"null",NA,NA,NA,NA,NA,NA
"null","<p>正在约见</p>",NA,"html-keyboard-response",24,87228,"0.0-7.0",621,"ListB","woman","chinese","SW_C_F_B4",NA,NA,NA,"null",NA,NA,NA,NA,NA,NA
"9351.800000000745","<p><b>答案：</b> 霍普正在会见露丝</p>",0,"html-button-response",25,96581,"0.0-8.0",621,"ListB","woman","chinese","SW_C_F_B4",NA,NA,NA,NA,NA,NA,NA,NA,NA,NA
"null","<img src='img/spy.gif' style='height:400px;''></img>",NA,"html-keyboard-response",26,99604,"0.0-9.0",621,"ListB","woman","chinese","SW_C_F_B4",NA,NA,NA,"null",NA,NA,NA,NA,NA,NA
"null","<p>正在监视</p>",NA,"html-keyboard-response",27,101637,"0.0-10.0",621,"ListB","woman","chinese","SW_C_F_B4",NA,NA,NA,"null",NA,NA,NA,NA,NA,NA
"2865.9000000003725","<p><b>答案：</b> 弗雷正在监视麦克</p>",0,"html-button-response",28,104504,"0.0-11.0",621,"ListB","woman","chinese","SW_C_F_B4",NA,NA,NA,NA,NA,NA,NA,NA,NA,NA
"4383.5","<p>准备好开始了吗？</p><br><p><strong>请记住，您的答案需是一句完整的句子</strong></p><p><strong>，并用给到的图片人物和动词短语作答。</strong></p><p><strong>只有正确并完整完成实验才可获得报酬。</strong></p><p><strong> 您不需要加入任何标点符号。</strong></p><br><p>请按 ‘继续’ 键开始。</p>",0,"html-button-response",29,109901,"0.0-12.0",621,"ListB","woman","chinese","SW_C_F_B4",NA,NA,NA,NA,NA,NA,NA,NA,NA,NA
"null","<div style=""font-size:60px;"">+</div>",NA,"html-keyboard-response",30,111427,"0.0-13.0-0.0",621,"ListB","woman","chinese","SW_C_F_B4",NA,NA,NA,"null",NA,NA,NA,NA,NA,NA
"null","<img src='gifs/FemaleRace3b.gif' style='height:400px;''></img>",NA,"html-keyboard-response",31,113444,"0.0-13.0-1.0",621,"ListB","woman","chinese","SW_C_F_B4",NA,NA,NA,"null",NA,NA,NA,NA,NA,NA
"null","正在介绍",NA,"html-keyboard-response",32,116450,"0.0-13.0-2.0",621,"ListB","woman","chinese","SW_C_F_B4",NA,NA,NA,"null",NA,NA,NA,NA,NA,NA
"10912.5",NA,NA,"survey-text",33,127366,"0.0-13.0-3.0",621,"ListB","woman","chinese","SW_C_F_B4",NA,NA,NA,NA,"{""Q0"":""露丝正在介绍贝斯""}","<img src='gifs/FemaleRace3b.gif' style='height:400px;''></img>","介绍","正在介绍","chinese",NA
"null","<div style=""font-size:60px;"">+</div>",NA,"html-keyboard-response",34,127879,"0.0-13.0-0.1",621,"ListB","woman","chinese","SW_C_F_B4",NA,NA,NA,"null",NA,NA,NA,NA,NA,NA
"null","<img src='gifs/BlackGender2b.gif' style='height:400px;''></img>",NA,"html-keyboard-response",35,129890,"0.0-13.0-1.1",621,"ListB","woman","chinese","SW_C_F_B4",NA,NA,NA,"null",NA,NA,NA,NA,NA,NA
"null","正在陪伴",NA,"html-keyboard-response",36,132925,"0.0-13.0-2.1",621,"ListB","woman","chinese","SW_C_F_B4",NA,NA,NA,"null",NA,NA,NA,NA,NA,NA
"7821.700000001118",NA,NA,"survey-text",37,140751,"0.0-13.0-3.1",621,"ListB","woman","chinese","SW_C_F_B4",NA,NA,NA,NA,"{""Q0"":""麦克正在陪伴贝斯""}","<img src='gifs/BlackGender2b.gif' style='height:400px;''></img>","陪伴","正在陪伴","chinese",NA
"null","<div style=""font-size:60px;"">+</div>",NA,"html-keyboard-response",38,141265,"0.0-13.0-0.2",621,"ListB","woman","chinese","SW_C_F_B4",NA,NA,NA,"null",NA,NA,NA,NA,NA,NA
"null","<img src='gifs/BlackGender4b.gif' style='height:400px;''></img>",NA,"html-keyboard-response",39,143276,"0.0-13.0-1.2",621,"ListB","woman","chinese","SW_C_F_B4",NA,NA,NA,"null",NA,NA,NA,NA,NA,NA
"null","正在聆听",NA,"html-keyboard-response",40,146309,"0.0-13.0-2.2",621,"ListB","woman","chinese","SW_C_F_B4",NA,NA,NA,"null",NA,NA,NA,NA,NA,NA
"8236.5",NA,NA,"survey-text",41,154548,"0.0-13.0-3.2",621,"ListB","woman","chinese","SW_C_F_B4",NA,NA,NA,NA,"{""Q0"":""麦克正在聆听凯特""}","<img src='gifs/BlackGender4b.gif' style='height:400px;''></img>","聆听","正在聆听","chinese",NA
"null","<div style=""font-size:60px;"">+</div>",NA,"html-keyboard-response",42,155062,"0.0-13.0-0.3",621,"ListB","woman","chinese","SW_C_F_B4",NA,NA,NA,"null",NA,NA,NA,NA,NA,NA
"null","<img src='gifs/BlackGender1a.gif' style='height:400px;''></img>",NA,"html-keyboard-response",43,157075,"0.0-13.0-1.3",621,"ListB","woman","chinese","SW_C_F_B4",NA,NA,NA,"null",NA,NA,NA,NA,NA,NA
"null","正在跟随",NA,"html-keyboard-response",44,160105,"0.0-13.0-2.3",621,"ListB","woman","chinese","SW_C_F_B4",NA,NA,NA,"null",NA,NA,NA,NA,NA,NA
"12519.300000000745",NA,NA,"survey-text",45,172627,"0.0-13.0-3.3",621,"ListB","woman","chinese","SW_C_F_B4",NA,NA,NA,NA,"{""Q0"":""贝斯正在跟随弗雷""}","<img src='gifs/BlackGender1a.gif' style='height:400px;''></img>","跟随","正在跟随","chinese",NA
"null","<div style=""font-size:60px;"">+</div>",NA,"html-keyboard-response",46,173138,"0.0-13.0-0.4",621,"ListB","woman","chinese","SW_C_F_B4",NA,NA,NA,"null",NA,NA,NA,NA,NA,NA
"null","<img src='gifs/MaleRace2b.gif' style='height:400px;''></img>",NA,"html-keyboard-response",47,175152,"0.0-13.0-1.4",621,"ListB","woman","chinese","SW_C_F_B4",NA,NA,NA,"null",NA,NA,NA,NA,NA,NA
"null","正在面向",NA,"html-keyboard-response",48,178161,"0.0-13.0-2.4",621,"ListB","woman","chinese","SW_C_F_B4",NA,NA,NA,"null",NA,NA,NA,NA,NA,NA
"10364",NA,NA,"survey-text",49,188528,"0.0-13.0-3.4",621,"ListB","woman","chinese","SW_C_F_B4",NA,NA,NA,NA,"{""Q0"":""麦克正在面向卢克""}","<img src='gifs/MaleRace2b.gif' style='height:400px;''></img>","面向","正在面向","chinese",NA
"null","<div style=""font-size:60px;"">+</div>",NA,"html-keyboard-response",50,189038,"0.0-13.0-0.5",621,"ListB","woman","chinese","SW_C_F_B4",NA,NA,NA,"null",NA,NA,NA,NA,NA,NA
"null","<img src='gifs/MaleRace2a.gif' style='height:400px;''></img>",NA,"html-keyboard-response",51,191051,"0.0-13.0-1.5",621,"ListB","woman","chinese","SW_C_F_B4",NA,NA,NA,"null",NA,NA,NA,NA,NA,NA
"null","正在表扬",NA,"html-keyboard-response",52,194060,"0.0-13.0-2.5",621,"ListB","woman","chinese","SW_C_F_B4",NA,NA,NA,"null",NA,NA,NA,NA,NA,NA
"7615.5",NA,NA,"survey-text",53,201678,"0.0-13.0-3.5",621,"ListB","woman","chinese","SW_C_F_B4",NA,NA,NA,NA,"{""Q0"":""卢克正在表扬麦克""}","<img src='gifs/MaleRace2a.gif' style='height:400px;''></img>","表扬","正在表扬","chinese",NA
"null","<div style=""font-size:60px;"">+</div>",NA,"html-keyboard-response",54,202190,"0.0-13.0-0.6",621,"ListB","woman","chinese","SW_C_F_B4",NA,NA,NA,"null",NA,NA,NA,NA,NA,NA
"null","<img src='gifs/ChineseGender2b.gif' style='height:400px;''></img>",NA,"html-keyboard-response",55,204202,"0.0-13.0-1.6",621,"ListB","woman","chinese","SW_C_F_B4",NA,NA,NA,"null",NA,NA,NA,NA,NA,NA
"null","正在陪伴",NA,"html-keyboard-response",56,207236,"0.0-13.0-2.6",621,"ListB","woman","chinese","SW_C_F_B4",NA,NA,NA,"null",NA,NA,NA,NA,NA,NA
"7519.0999999996275",NA,NA,"survey-text",57,214758,"0.0-13.0-3.6",621,"ListB","woman","chinese","SW_C_F_B4",NA,NA,NA,NA,"{""Q0"":""露丝正在陪伴卢克""}","<img src='gifs/ChineseGender2b.gif' style='height:400px;''></img>","陪伴","正在陪伴","chinese",NA
"null","<div style=""font-size:60px;"">+</div>",NA,"html-keyboard-response",58,215270,"0.0-13.0-0.7",621,"ListB","woman","chinese","SW_C_F_B4",NA,NA,NA,"null",NA,NA,NA,NA,NA,NA
"null","<img src='gifs/ChineseGender2a.gif' style='height:400px;''></img>",NA,"html-keyboard-response",59,217275,"0.0-13.0-1.7",621,"ListB","woman","chinese","SW_C_F_B4",NA,NA,NA,"null",NA,NA,NA,NA,NA,NA
"null","正在面向",NA,"html-keyboard-response",60,220310,"0.0-13.0-2.7",621,"ListB","woman","chinese","SW_C_F_B4",NA,NA,NA,"null",NA,NA,NA,NA,NA,NA
"6728.5",NA,NA,"survey-text",61,227040,"0.0-13.0-3.7",621,"ListB","woman","chinese","SW_C_F_B4",NA,NA,NA,NA,"{""Q0"":""卢克正在面向露丝""}","<img src='gifs/ChineseGender2a.gif' style='height:400px;''></img>","面向","正在面向","chinese",NA
"null","<div style=""font-size:60px;"">+</div>",NA,"html-keyboard-response",62,227554,"0.0-13.0-0.8",621,"ListB","woman","chinese","SW_C_F_B4",NA,NA,NA,"null",NA,NA,NA,NA,NA,NA
"null","<img src='gifs/MaleRace1b.gif' style='height:400px;''></img>",NA,"html-keyboard-response",63,229569,"0.0-13.0-1.8",621,"ListB","woman","chinese","SW_C_F_B4",NA,NA,NA,"null",NA,NA,NA,NA,NA,NA
"null","正在答应",NA,"html-keyboard-response",64,232579,"0.0-13.0-2.8",621,"ListB","woman","chinese","SW_C_F_B4",NA,NA,NA,"null",NA,NA,NA,NA,NA,NA
"10392.5",NA,NA,"survey-text",65,242975,"0.0-13.0-3.8",621,"ListB","woman","chinese","SW_C_F_B4",NA,NA,NA,NA,"{""Q0"":""弗雷正在答应卢克""}","<img src='gifs/MaleRace1b.gif' style='height:400px;''></img>","答应","正在答应","chinese",NA
"null","<div style=""font-size:60px;"">+</div>",NA,"html-keyboard-response",66,243491,"0.0-13.0-0.9",621,"ListB","woman","chinese","SW_C_F_B4",NA,NA,NA,"null",NA,NA,NA,NA,NA,NA
"null","<img src='gifs/BlackGender4a.gif' style='height:400px;''></img>",NA,"html-keyboard-response",67,245497,"0.0-13.0-1.9",621,"ListB","woman","chinese","SW_C_F_B4",NA,NA,NA,"null",NA,NA,NA,NA,NA,NA
"null","正在看着",NA,"html-keyboard-response",68,248511,"0.0-13.0-2.9",621,"ListB","woman","chinese","SW_C_F_B4",NA,NA,NA,"null",NA,NA,NA,NA,NA,NA
"17101.099999999627",NA,NA,"survey-text",69,265615,"0.0-13.0-3.9",621,"ListB","woman","chinese","SW_C_F_B4",NA,NA,NA,NA,"{""Q0"":""凯特正在看着麦克""}","<img src='gifs/BlackGender4a.gif' style='height:400px;''></img>","看着","正在看着","chinese",NA
"null","<div style=""font-size:60px;"">+</div>",NA,"html-keyboard-response",70,266161,"0.0-13.0-0.10",621,"ListB","woman","chinese","SW_C_F_B4",NA,NA,NA,"null",NA,NA,NA,NA,NA,NA
"null","<img src='gifs/MaleRace3b.gif' style='height:400px;''></img>",NA,"html-keyboard-response",71,268193,"0.0-13.0-1.10",621,"ListB","woman","chinese","SW_C_F_B4",NA,NA,NA,"null",NA,NA,NA,NA,NA,NA
"null","正在陪伴",NA,"html-keyboard-response",72,271219,"0.0-13.0-2.10",621,"ListB","woman","chinese","SW_C_F_B4",NA,NA,NA,"null",NA,NA,NA,NA,NA,NA
"8390.400000000373",NA,NA,"survey-text",73,279612,"0.0-13.0-3.10",621,"ListB","woman","chinese","SW_C_F_B4",NA,NA,NA,NA,"{""Q0"":""弗雷正在陪伴戴夫""}","<img src='gifs/MaleRace3b.gif' style='height:400px;''></img>","陪伴","正在陪伴","chinese",NA
"null","<div style=""font-size:60px;"">+</div>",NA,"html-keyboard-response",74,280125,"0.0-13.0-0.11",621,"ListB","woman","chinese","SW_C_F_B4",NA,NA,NA,"null",NA,NA,NA,NA,NA,NA
"null","<img src='gifs/FemaleRace2a.gif' style='height:400px;''></img>",NA,"html-keyboard-response",75,282137,"0.0-13.0-1.11",621,"ListB","woman","chinese","SW_C_F_B4",NA,NA,NA,"null",NA,NA,NA,NA,NA,NA
"null","正在提到",NA,"html-keyboard-response",76,285179,"0.0-13.0-2.11",621,"ListB","woman","chinese","SW_C_F_B4",NA,NA,NA,"null",NA,NA,NA,NA,NA,NA
"8128.9000000003725",NA,NA,"survey-text",77,293311,"0.0-13.0-3.11",621,"ListB","woman","chinese","SW_C_F_B4",NA,NA,NA,NA,"{""Q0"":""凯特正在提到霍普""}","<img src='gifs/FemaleRace2a.gif' style='height:400px;''></img>","提到","正在提到","chinese",NA
"null","<div style=""font-size:60px;"">+</div>",NA,"html-keyboard-response",78,293823,"0.0-13.0-0.12",621,"ListB","woman","chinese","SW_C_F_B4",NA,NA,NA,"null",NA,NA,NA,NA,NA,NA
"null","<img src='gifs/FemaleRace1a.gif' style='height:400px;''></img>",NA,"html-keyboard-response",79,295835,"0.0-13.0-1.12",621,"ListB","woman","chinese","SW_C_F_B4",NA,NA,NA,"null",NA,NA,NA,NA,NA,NA
"null","正在看着",NA,"html-keyboard-response",80,298853,"0.0-13.0-2.12",621,"ListB","woman","chinese","SW_C_F_B4",NA,NA,NA,"null",NA,NA,NA,NA,NA,NA
"9150.199999999255",NA,NA,"survey-text",81,308005,"0.0-13.0-3.12",621,"ListB","woman","chinese","SW_C_F_B4",NA,NA,NA,NA,"{""Q0"":""贝斯正在看着霍普""}","<img src='gifs/FemaleRace1a.gif' style='height:400px;''></img>","看着","正在看着","chinese",NA
"null","<div style=""font-size:60px;"">+</div>",NA,"html-keyboard-response",82,308518,"0.0-13.0-0.13",621,"ListB","woman","chinese","SW_C_F_B4",NA,NA,NA,"null",NA,NA,NA,NA,NA,NA
"null","<img src='gifs/BlackGender1a.gif' style='height:400px;''></img>",NA,"html-keyboard-response",83,310553,"0.0-13.0-1.13",621,"ListB","woman","chinese","SW_C_F_B4",NA,NA,NA,"null",NA,NA,NA,NA,NA,NA
"null","正在提到",NA,"html-keyboard-response",84,313590,"0.0-13.0-2.13",621,"ListB","woman","chinese","SW_C_F_B4",NA,NA,NA,"null",NA,NA,NA,NA,NA,NA
"7138.699999999255",NA,NA,"survey-text",85,320731,"0.0-13.0-3.13",621,"ListB","woman","chinese","SW_C_F_B4",NA,NA,NA,NA,"{""Q0"":""弗雷正在提到贝斯""}","<img src='gifs/BlackGender1a.gif' style='height:400px;''></img>","提到","正在提到","chinese",NA
"null","<div style=""font-size:60px;"">+</div>",NA,"html-keyboard-response",86,321247,"0.0-13.0-0.14",621,"ListB","woman","chinese","SW_C_F_B4",NA,NA,NA,"null",NA,NA,NA,NA,NA,NA
"null","<img src='gifs/BlackGender2a.gif' style='height:400px;''></img>",NA,"html-keyboard-response",87,323261,"0.0-13.0-1.14",621,"ListB","woman","chinese","SW_C_F_B4",NA,NA,NA,"null",NA,NA,NA,NA,NA,NA
"null","正在触摸",NA,"html-keyboard-response",88,326275,"0.0-13.0-2.14",621,"ListB","woman","chinese","SW_C_F_B4",NA,NA,NA,"null",NA,NA,NA,NA,NA,NA
"6698.199999999255",NA,NA,"survey-text",89,332977,"0.0-13.0-3.14",621,"ListB","woman","chinese","SW_C_F_B4",NA,NA,NA,NA,"{""Q0"":""贝斯正在触摸麦克""}","<img src='gifs/BlackGender2a.gif' style='height:400px;''></img>","触摸","正在触摸","chinese",NA
"null","<div style=""font-size:60px;"">+</div>",NA,"html-keyboard-response",90,333490,"0.0-13.0-0.15",621,"ListB","woman","chinese","SW_C_F_B4",NA,NA,NA,"null",NA,NA,NA,NA,NA,NA
"null","<img src='gifs/BlackGender1b.gif' style='height:400px;''></img>",NA,"html-keyboard-response",91,335500,"0.0-13.0-1.15",621,"ListB","woman","chinese","SW_C_F_B4",NA,NA,NA,"null",NA,NA,NA,NA,NA,NA
"null","正在答应",NA,"html-keyboard-response",92,338507,"0.0-13.0-2.15",621,"ListB","woman","chinese","SW_C_F_B4",NA,NA,NA,"null",NA,NA,NA,NA,NA,NA
"7065",NA,NA,"survey-text",93,345574,"0.0-13.0-3.15",621,"ListB","woman","chinese","SW_C_F_B4",NA,NA,NA,NA,"{""Q0"":""弗雷正在答应贝斯""}","<img src='gifs/BlackGender1b.gif' style='height:400px;''></img>","答应","正在答应","chinese",NA
"null","<div style=""font-size:60px;"">+</div>",NA,"html-keyboard-response",94,346086,"0.0-13.0-0.16",621,"ListB","woman","chinese","SW_C_F_B4",NA,NA,NA,"null",NA,NA,NA,NA,NA,NA
"null","<img src='gifs/ChineseGender4a.gif' style='height:400px;''></img>",NA,"html-keyboard-response",95,348093,"0.0-13.0-1.16",621,"ListB","woman","chinese","SW_C_F_B4",NA,NA,NA,"null",NA,NA,NA,NA,NA,NA
"null","正在接近",NA,"html-keyboard-response",96,351110,"0.0-13.0-2.16",621,"ListB","woman","chinese","SW_C_F_B4",NA,NA,NA,"null",NA,NA,NA,NA,NA,NA
"7794",NA,NA,"survey-text",97,358906,"0.0-13.0-3.16",621,"ListB","woman","chinese","SW_C_F_B4",NA,NA,NA,NA,"{""Q0"":""戴夫正在接近霍普""}","<img src='gifs/ChineseGender4a.gif' style='height:400px;''></img>","接近","正在接近","chinese",NA
"null","<div style=""font-size:60px;"">+</div>",NA,"html-keyboard-response",98,359422,"0.0-13.0-0.17",621,"ListB","woman","chinese","SW_C_F_B4",NA,NA,NA,"null",NA,NA,NA,NA,NA,NA
"null","<img src='gifs/FemaleRace2b.gif' style='height:400px;''></img>",NA,"html-keyboard-response",99,361434,"0.0-13.0-1.17",621,"ListB","woman","chinese","SW_C_F_B4",NA,NA,NA,"null",NA,NA,NA,NA,NA,NA
"null","正在聆听",NA,"html-keyboard-response",100,364462,"0.0-13.0-2.17",621,"ListB","woman","chinese","SW_C_F_B4",NA,NA,NA,"null",NA,NA,NA,NA,NA,NA
"8337.400000000373",NA,NA,"survey-text",101,372802,"0.0-13.0-3.17",621,"ListB","woman","chinese","SW_C_F_B4",NA,NA,NA,NA,"{""Q0"":""霍普正在聆听凯特""}","<img src='gifs/FemaleRace2b.gif' style='height:400px;''></img>","聆听","正在聆听","chinese",NA
"5818.5999999996275","<img src='img/portrait_matrix_listB_chinese.jpg' style='width:900px;height:500px;''></img><p>如果您已经记住了所有的人物和名字，请点击继续。</p><p><strong>请注意：您对先前记忆的面孔将在本实验中被测试5次。</strong></p>",0,"html-button-response",102,378622,"0.0-14.0-0.0",621,"ListB","woman","chinese","SW_C_F_B4",NA,NA,NA,NA,NA,NA,NA,NA,NA,NA
"5113.800000000745","<img src=""portrait/BW2.jpg""style=""height:400px;""></img>",2,"html-button-response",103,384751,"0.0-14.0-1.0",621,"ListB","woman","chinese","SW_C_F_B4",NA,"true",2,NA,NA,NA,NA,NA,NA,NA
"null","正确",NA,"html-keyboard-response",104,386273,"0.0-14.0-2.0-0.0",621,"ListB","woman","chinese","SW_C_F_B4",NA,NA,NA,"null",NA,NA,NA,NA,NA,NA
"4619.39999999851","<img src=""portrait/BW1.jpg""style=""height:400px;""></img>",0,"html-button-response",105,390895,"0.0-14.0-4.0",621,"ListB","woman","chinese","SW_C_F_B4",NA,"true",0,NA,NA,NA,NA,NA,NA,NA
"null","正确",NA,"html-keyboard-response",106,392422,"0.0-14.0-5.0-0.0",621,"ListB","woman","chinese","SW_C_F_B4",NA,NA,NA,"null",NA,NA,NA,NA,NA,NA
"1605.800000000745","<img src=""portrait/WW1.jpg""style=""height:400px;""></img>",1,"html-button-response",107,394030,"0.0-14.0-7.0",621,"ListB","woman","chinese","SW_C_F_B4",NA,"true",1,NA,NA,NA,NA,NA,NA,NA
"null","正确",NA,"html-keyboard-response",108,395548,"0.0-14.0-8.0-0.0",621,"ListB","woman","chinese","SW_C_F_B4",NA,NA,NA,"null",NA,NA,NA,NA,NA,NA
"5003.5999999996275","<img src=""portrait/WM2.jpg""style=""height:400px;""></img>",7,"html-button-response",109,400554,"0.0-14.0-10.0",621,"ListB","woman","chinese","SW_C_F_B4",NA,"true",7,NA,NA,NA,NA,NA,NA,NA
"null","正确",NA,"html-keyboard-response",110,402082,"0.0-14.0-11.0-0.0",621,"ListB","woman","chinese","SW_C_F_B4",NA,NA,NA,"null",NA,NA,NA,NA,NA,NA
"4544.4000000003725","<img src=""portrait/BM2.jpg""style=""height:400px;""></img>",5,"html-button-response",111,406629,"0.0-14.0-13.0",621,"ListB","woman","chinese","SW_C_F_B4",NA,"true",5,NA,NA,NA,NA,NA,NA,NA
"null","正确",NA,"html-keyboard-response",112,408145,"0.0-14.0-14.0-0.0",621,"ListB","woman","chinese","SW_C_F_B4",NA,NA,NA,"null",NA,NA,NA,NA,NA,NA
"4070.199999999255","<img src=""portrait/BM1.jpg""style=""height:400px;""></img>",4,"html-button-response",113,412218,"0.0-14.0-16.0",621,"ListB","woman","chinese","SW_C_F_B4",NA,"true",4,NA,NA,NA,NA,NA,NA,NA
"null","正确",NA,"html-keyboard-response",114,413749,"0.0-14.0-17.0-0.0",621,"ListB","woman","chinese","SW_C_F_B4",NA,NA,NA,"null",NA,NA,NA,NA,NA,NA
"4289.9000000003725","<img src=""portrait/WM1.jpg""style=""height:400px;""></img>",6,"html-button-response",115,418041,"0.0-14.0-19.0",621,"ListB","woman","chinese","SW_C_F_B4",NA,"true",6,NA,NA,NA,NA,NA,NA,NA
"null","正确",NA,"html-keyboard-response",116,419573,"0.0-14.0-20.0-0.0",621,"ListB","woman","chinese","SW_C_F_B4",NA,NA,NA,"null",NA,NA,NA,NA,NA,NA
"2966.7000000011176","<img src=""portrait/WW2.jpg""style=""height:400px;""></img>",3,"html-button-response",117,422541,"0.0-14.0-22.0",621,"ListB","woman","chinese","SW_C_F_B4",NA,"true",3,NA,NA,NA,NA,NA,NA,NA
"null","正确",NA,"html-keyboard-response",118,424072,"0.0-14.0-23.0-0.0",621,"ListB","woman","chinese","SW_C_F_B4",NA,NA,NA,"null",NA,NA,NA,NA,NA,NA
"2402.9000000003725","<p>您第一次在8题里答对了 8 题。 请点击继续</p>",0,"html-button-response",119,426477,"0.0-14.0-25.0",621,"ListB","woman","chinese","SW_C_F_B4",NA,NA,NA,NA,NA,NA,NA,NA,NA,NA
"null","<div style=""font-size:60px;"">+</div>",NA,"html-keyboard-response",120,428001,"0.0-15.0-0.0",621,"ListB","woman","chinese","SW_C_F_B4",NA,NA,NA,"null",NA,NA,NA,NA,NA,NA
"null","<img src='gifs/FemaleRace3b.gif' style='height:400px;''></img>",NA,"html-keyboard-response",121,430003,"0.0-15.0-1.0",621,"ListB","woman","chinese","SW_C_F_B4",NA,NA,NA,"null",NA,NA,NA,NA,NA,NA
"null","正在说服",NA,"html-keyboard-response",122,433006,"0.0-15.0-2.0",621,"ListB","woman","chinese","SW_C_F_B4",NA,NA,NA,"null",NA,NA,NA,NA,NA,NA
"11870.200000001118",NA,NA,"survey-text",123,444880,"0.0-15.0-3.0",621,"ListB","woman","chinese","SW_C_F_B4",NA,NA,NA,NA,"{""Q0"":""贝斯正在说服露丝""}","<img src='gifs/FemaleRace3b.gif' style='height:400px;''></img>","说服","正在说服","chinese",NA
"null","<div style=""font-size:60px;"">+</div>",NA,"html-keyboard-response",124,445394,"0.0-15.0-0.1",621,"ListB","woman","chinese","SW_C_F_B4",NA,NA,NA,"null",NA,NA,NA,NA,NA,NA
"null","<img src='gifs/ChineseGender1a.gif' style='height:400px;''></img>",NA,"html-keyboard-response",125,447409,"0.0-15.0-1.1",621,"ListB","woman","chinese","SW_C_F_B4",NA,NA,NA,"null",NA,NA,NA,NA,NA,NA
"null","正在提到",NA,"html-keyboard-response",126,450447,"0.0-15.0-2.1",621,"ListB","woman","chinese","SW_C_F_B4",NA,NA,NA,"null",NA,NA,NA,NA,NA,NA
"6706.299999998882",NA,NA,"survey-text",127,457155,"0.0-15.0-3.1",621,"ListB","woman","chinese","SW_C_F_B4",NA,NA,NA,NA,"{""Q0"":""卢克正在提到霍普""}","<img src='gifs/ChineseGender1a.gif' style='height:400px;''></img>","提到","正在提到","chinese",NA
"null","<div style=""font-size:60px;"">+</div>",NA,"html-keyboard-response",128,457666,"0.0-15.0-0.2",621,"ListB","woman","chinese","SW_C_F_B4",NA,NA,NA,"null",NA,NA,NA,NA,NA,NA
"null","<img src='gifs/BlackGender2b.gif' style='height:400px;''></img>",NA,"html-keyboard-response",129,459669,"0.0-15.0-1.2",621,"ListB","woman","chinese","SW_C_F_B4",NA,NA,NA,"null",NA,NA,NA,NA,NA,NA
"null","正在走向",NA,"html-keyboard-response",130,462676,"0.0-15.0-2.2",621,"ListB","woman","chinese","SW_C_F_B4",NA,NA,NA,"null",NA,NA,NA,NA,NA,NA
"7980.9000000003725",NA,NA,"survey-text",131,470659,"0.0-15.0-3.2",621,"ListB","woman","chinese","SW_C_F_B4",NA,NA,NA,NA,"{""Q0"":""贝斯正在走向麦克""}","<img src='gifs/BlackGender2b.gif' style='height:400px;''></img>","走向","正在走向","chinese",NA
"null","<div style=""font-size:60px;"">+</div>",NA,"html-keyboard-response",132,471173,"0.0-15.0-0.3",621,"ListB","woman","chinese","SW_C_F_B4",NA,NA,NA,"null",NA,NA,NA,NA,NA,NA
"null","<img src='gifs/MaleRace2a.gif' style='height:400px;''></img>",NA,"html-keyboard-response",133,473184,"0.0-15.0-1.3",621,"ListB","woman","chinese","SW_C_F_B4",NA,NA,NA,"null",NA,NA,NA,NA,NA,NA
"null","正在走向",NA,"html-keyboard-response",134,476214,"0.0-15.0-2.3",621,"ListB","woman","chinese","SW_C_F_B4",NA,NA,NA,"null",NA,NA,NA,NA,NA,NA
"6661.0999999996275",NA,NA,"survey-text",135,482877,"0.0-15.0-3.3",621,"ListB","woman","chinese","SW_C_F_B4",NA,NA,NA,NA,"{""Q0"":""麦克正在走向卢克""}","<img src='gifs/MaleRace2a.gif' style='height:400px;''></img>","走向","正在走向","chinese",NA
"null","<div style=""font-size:60px;"">+</div>",NA,"html-keyboard-response",136,483389,"0.0-15.0-0.4",621,"ListB","woman","chinese","SW_C_F_B4",NA,NA,NA,"null",NA,NA,NA,NA,NA,NA
"null","<img src='gifs/ChineseGender4b.gif' style='height:400px;''></img>",NA,"html-keyboard-response",137,485405,"0.0-15.0-1.4",621,"ListB","woman","chinese","SW_C_F_B4",NA,NA,NA,"null",NA,NA,NA,NA,NA,NA
"null","正在触摸",NA,"html-keyboard-response",138,488415,"0.0-15.0-2.4",621,"ListB","woman","chinese","SW_C_F_B4",NA,NA,NA,"null",NA,NA,NA,NA,NA,NA
"9207.10000000149",NA,NA,"survey-text",139,497624,"0.0-15.0-3.4",621,"ListB","woman","chinese","SW_C_F_B4",NA,NA,NA,NA,"{""Q0"":""霍普正在触摸戴夫""}","<img src='gifs/ChineseGender4b.gif' style='height:400px;''></img>","触摸","正在触摸","chinese",NA
"null","<div style=""font-size:60px;"">+</div>",NA,"html-keyboard-response",140,498136,"0.0-15.0-0.5",621,"ListB","woman","chinese","SW_C_F_B4",NA,NA,NA,"null",NA,NA,NA,NA,NA,NA
"null","<img src='gifs/MaleRace4b.gif' style='height:400px;''></img>",NA,"html-keyboard-response",141,500147,"0.0-15.0-1.5",621,"ListB","woman","chinese","SW_C_F_B4",NA,NA,NA,"null",NA,NA,NA,NA,NA,NA
"null","正在跟随",NA,"html-keyboard-response",142,503175,"0.0-15.0-2.5",621,"ListB","woman","chinese","SW_C_F_B4",NA,NA,NA,"null",NA,NA,NA,NA,NA,NA
"6915.5",NA,NA,"survey-text",143,510093,"0.0-15.0-3.5",621,"ListB","woman","chinese","SW_C_F_B4",NA,NA,NA,NA,"{""Q0"":""麦克正在跟随戴夫""}","<img src='gifs/MaleRace4b.gif' style='height:400px;''></img>","跟随","正在跟随","chinese",NA
"null","<div style=""font-size:60px;"">+</div>",NA,"html-keyboard-response",144,510604,"0.0-15.0-0.6",621,"ListB","woman","chinese","SW_C_F_B4",NA,NA,NA,"null",NA,NA,NA,NA,NA,NA
"null","<img src='gifs/MaleRace1b.gif' style='height:400px;''></img>",NA,"html-keyboard-response",145,512618,"0.0-15.0-1.6",621,"ListB","woman","chinese","SW_C_F_B4",NA,NA,NA,"null",NA,NA,NA,NA,NA,NA
"null","正在接近",NA,"html-keyboard-response",146,515635,"0.0-15.0-2.6",621,"ListB","woman","chinese","SW_C_F_B4",NA,NA,NA,"null",NA,NA,NA,NA,NA,NA
"12786.5",NA,NA,"survey-text",147,528425,"0.0-15.0-3.6",621,"ListB","woman","chinese","SW_C_F_B4",NA,NA,NA,NA,"{""Q0"":""卢克正在接近霍普""}","<img src='gifs/MaleRace1b.gif' style='height:400px;''></img>","接近","正在接近","chinese",NA
"null","<div style=""font-size:60px;"">+</div>",NA,"html-keyboard-response",148,528939,"0.0-15.0-0.7",621,"ListB","woman","chinese","SW_C_F_B4",NA,NA,NA,"null",NA,NA,NA,NA,NA,NA
"null","<img src='gifs/ChineseGender3a.gif' style='height:400px;''></img>",NA,"html-keyboard-response",149,530955,"0.0-15.0-1.7",621,"ListB","woman","chinese","SW_C_F_B4",NA,NA,NA,"null",NA,NA,NA,NA,NA,NA
"null","正在加入",NA,"html-keyboard-response",150,533998,"0.0-15.0-2.7",621,"ListB","woman","chinese","SW_C_F_B4",NA,NA,NA,"null",NA,NA,NA,NA,NA,NA
"7479.9000000003725",NA,NA,"survey-text",151,541480,"0.0-15.0-3.7",621,"ListB","woman","chinese","SW_C_F_B4",NA,NA,NA,NA,"{""Q0"":""戴夫正在加入露丝""}","<img src='gifs/ChineseGender3a.gif' style='height:400px;''></img>","加入","正在加入","chinese",NA
"null","<div style=""font-size:60px;"">+</div>",NA,"html-keyboard-response",152,541993,"0.0-15.0-0.8",621,"ListB","woman","chinese","SW_C_F_B4",NA,NA,NA,"null",NA,NA,NA,NA,NA,NA
"null","<img src='gifs/FemaleRace1a.gif' style='height:400px;''></img>",NA,"html-keyboard-response",153,544005,"0.0-15.0-1.8",621,"ListB","woman","chinese","SW_C_F_B4",NA,NA,NA,"null",NA,NA,NA,NA,NA,NA
"null","正在聆听",NA,"html-keyboard-response",154,547047,"0.0-15.0-2.8",621,"ListB","woman","chinese","SW_C_F_B4",NA,NA,NA,"null",NA,NA,NA,NA,NA,NA
"6494.799999998882",NA,NA,"survey-text",155,553544,"0.0-15.0-3.8",621,"ListB","woman","chinese","SW_C_F_B4",NA,NA,NA,NA,"{""Q0"":""霍普正在聆听贝斯""}","<img src='gifs/FemaleRace1a.gif' style='height:400px;''></img>","聆听","正在聆听","chinese",NA
"null","<div style=""font-size:60px;"">+</div>",NA,"html-keyboard-response",156,554057,"0.0-15.0-0.9",621,"ListB","woman","chinese","SW_C_F_B4",NA,NA,NA,"null",NA,NA,NA,NA,NA,NA
"null","<img src='gifs/MaleRace4b.gif' style='height:400px;''></img>",NA,"html-keyboard-response",157,556073,"0.0-15.0-1.9",621,"ListB","woman","chinese","SW_C_F_B4",NA,NA,NA,"null",NA,NA,NA,NA,NA,NA
"null","正在跟随",NA,"html-keyboard-response",158,559103,"0.0-15.0-2.9",621,"ListB","woman","chinese","SW_C_F_B4",NA,NA,NA,"null",NA,NA,NA,NA,NA,NA
"6374.0999999996275",NA,NA,"survey-text",159,565479,"0.0-15.0-3.9",621,"ListB","woman","chinese","SW_C_F_B4",NA,NA,NA,NA,"{""Q0"":""戴夫正在跟随麦克""}","<img src='gifs/MaleRace4b.gif' style='height:400px;''></img>","跟随","正在跟随","chinese",NA
"null","<div style=""font-size:60px;"">+</div>",NA,"html-keyboard-response",160,565993,"0.0-15.0-0.10",621,"ListB","woman","chinese","SW_C_F_B4",NA,NA,NA,"null",NA,NA,NA,NA,NA,NA
"null","<img src='gifs/ChineseGender4a.gif' style='height:400px;''></img>",NA,"html-keyboard-response",161,568003,"0.0-15.0-1.10",621,"ListB","woman","chinese","SW_C_F_B4",NA,NA,NA,"null",NA,NA,NA,NA,NA,NA
"null","正在加入",NA,"html-keyboard-response",162,571018,"0.0-15.0-2.10",621,"ListB","woman","chinese","SW_C_F_B4",NA,NA,NA,"null",NA,NA,NA,NA,NA,NA
"13819.699999999255",NA,NA,"survey-text",163,584841,"0.0-15.0-3.10",621,"ListB","woman","chinese","SW_C_F_B4",NA,NA,NA,NA,"{""Q0"":""霍普正在加入戴夫""}","<img src='gifs/ChineseGender4a.gif' style='height:400px;''></img>","加入","正在加入","chinese",NA
"null","<div style=""font-size:60px;"">+</div>",NA,"html-keyboard-response",164,585353,"0.0-15.0-0.11",621,"ListB","woman","chinese","SW_C_F_B4",NA,NA,NA,"null",NA,NA,NA,NA,NA,NA
"null","<img src='gifs/ChineseGender3b.gif' style='height:400px;''></img>",NA,"html-keyboard-response",165,587360,"0.0-15.0-1.11",621,"ListB","woman","chinese","SW_C_F_B4",NA,NA,NA,"null",NA,NA,NA,NA,NA,NA
"null","正在加入",NA,"html-keyboard-response",166,590387,"0.0-15.0-2.11",621,"ListB","woman","chinese","SW_C_F_B4",NA,NA,NA,"null",NA,NA,NA,NA,NA,NA
"6211.4000000003725",NA,NA,"survey-text",167,596600,"0.0-15.0-3.11",621,"ListB","woman","chinese","SW_C_F_B4",NA,NA,NA,NA,"{""Q0"":""露丝正在加入戴夫""}","<img src='gifs/ChineseGender3b.gif' style='height:400px;''></img>","加入","正在加入","chinese",NA
"null","<div style=""font-size:60px;"">+</div>",NA,"html-keyboard-response",168,597109,"0.0-15.0-0.12",621,"ListB","woman","chinese","SW_C_F_B4",NA,NA,NA,"null",NA,NA,NA,NA,NA,NA
"null","<img src='gifs/FemaleRace3a.gif' style='height:400px;''></img>",NA,"html-keyboard-response",169,599126,"0.0-15.0-1.12",621,"ListB","woman","chinese","SW_C_F_B4",NA,NA,NA,"null",NA,NA,NA,NA,NA,NA
"null","正在接近",NA,"html-keyboard-response",170,602148,"0.0-15.0-2.12",621,"ListB","woman","chinese","SW_C_F_B4",NA,NA,NA,"null",NA,NA,NA,NA,NA,NA
"11902.699999999255",NA,NA,"survey-text",171,614054,"0.0-15.0-3.12",621,"ListB","woman","chinese","SW_C_F_B4",NA,NA,NA,NA,"{""Q0"":""贝斯正在接近露丝""}","<img src='gifs/FemaleRace3a.gif' style='height:400px;''></img>","接近","正在接近","chinese",NA
"null","<div style=""font-size:60px;"">+</div>",NA,"html-keyboard-response",172,614565,"0.0-15.0-0.13",621,"ListB","woman","chinese","SW_C_F_B4",NA,NA,NA,"null",NA,NA,NA,NA,NA,NA
"null","<img src='gifs/MaleRace1a.gif' style='height:400px;''></img>",NA,"html-keyboard-response",173,616576,"0.0-15.0-1.13",621,"ListB","woman","chinese","SW_C_F_B4",NA,NA,NA,"null",NA,NA,NA,NA,NA,NA
"null","正在联系",NA,"html-keyboard-response",174,619606,"0.0-15.0-2.13",621,"ListB","woman","chinese","SW_C_F_B4",NA,NA,NA,"null",NA,NA,NA,NA,NA,NA
"10034.5",NA,NA,"survey-text",175,629643,"0.0-15.0-3.13",621,"ListB","woman","chinese","SW_C_F_B4",NA,NA,NA,NA,"{""Q0"":""卢克正在联系弗雷""}","<img src='gifs/MaleRace1a.gif' style='height:400px;''></img>","联系","正在联系","chinese",NA
"null","<div style=""font-size:60px;"">+</div>",NA,"html-keyboard-response",176,630157,"0.0-15.0-0.14",621,"ListB","woman","chinese","SW_C_F_B4",NA,NA,NA,"null",NA,NA,NA,NA,NA,NA
"null","<img src='gifs/MaleRace1a.gif' style='height:400px;''></img>",NA,"html-keyboard-response",177,632166,"0.0-15.0-1.14",621,"ListB","woman","chinese","SW_C_F_B4",NA,NA,NA,"null",NA,NA,NA,NA,NA,NA
"null","正在介绍",NA,"html-keyboard-response",178,635179,"0.0-15.0-2.14",621,"ListB","woman","chinese","SW_C_F_B4",NA,NA,NA,"null",NA,NA,NA,NA,NA,NA
"6625.299999998882",NA,NA,"survey-text",179,641806,"0.0-15.0-3.14",621,"ListB","woman","chinese","SW_C_F_B4",NA,NA,NA,NA,"{""Q0"":""弗雷正在介绍卢克""}","<img src='gifs/MaleRace1a.gif' style='height:400px;''></img>","介绍","正在介绍","chinese",NA
"null","<div style=""font-size:60px;"">+</div>",NA,"html-keyboard-response",180,642317,"0.0-15.0-0.15",621,"ListB","woman","chinese","SW_C_F_B4",NA,NA,NA,"null",NA,NA,NA,NA,NA,NA
"null","<img src='gifs/BlackGender3a.gif' style='height:400px;''></img>",NA,"html-keyboard-response",181,644324,"0.0-15.0-1.15",621,"ListB","woman","chinese","SW_C_F_B4",NA,NA,NA,"null",NA,NA,NA,NA,NA,NA
"null","正在说服",NA,"html-keyboard-response",182,647355,"0.0-15.0-2.15",621,"ListB","woman","chinese","SW_C_F_B4",NA,NA,NA,"null",NA,NA,NA,NA,NA,NA
"7495.199999999255",NA,NA,"survey-text",183,654853,"0.0-15.0-3.15",621,"ListB","woman","chinese","SW_C_F_B4",NA,NA,NA,NA,"{""Q0"":""弗雷正在说服凯特""}","<img src='gifs/BlackGender3a.gif' style='height:400px;''></img>","说服","正在说服","chinese",NA
"null","<div style=""font-size:60px;"">+</div>",NA,"html-keyboard-response",184,655366,"0.0-15.0-0.16",621,"ListB","woman","chinese","SW_C_F_B4",NA,NA,NA,"null",NA,NA,NA,NA,NA,NA
"null","<img src='gifs/BlackGender4b.gif' style='height:400px;''></img>",NA,"html-keyboard-response",185,657382,"0.0-15.0-1.16",621,"ListB","woman","chinese","SW_C_F_B4",NA,NA,NA,"null",NA,NA,NA,NA,NA,NA
"null","正在表扬",NA,"html-keyboard-response",186,660414,"0.0-15.0-2.16",621,"ListB","woman","chinese","SW_C_F_B4",NA,NA,NA,"null",NA,NA,NA,NA,NA,NA
"12041.900000000373",NA,NA,"survey-text",187,672459,"0.0-15.0-3.16",621,"ListB","woman","chinese","SW_C_F_B4",NA,NA,NA,NA,"{""Q0"":""凯特正在表扬麦克""}","<img src='gifs/BlackGender4b.gif' style='height:400px;''></img>","表扬","正在表扬","chinese",NA
"null","<div style=""font-size:60px;"">+</div>",NA,"html-keyboard-response",188,672970,"0.0-15.0-0.17",621,"ListB","woman","chinese","SW_C_F_B4",NA,NA,NA,"null",NA,NA,NA,NA,NA,NA
"null","<img src='gifs/FemaleRace4a.gif' style='height:400px;''></img>",NA,"html-keyboard-response",189,674982,"0.0-15.0-1.17",621,"ListB","woman","chinese","SW_C_F_B4",NA,NA,NA,"null",NA,NA,NA,NA,NA,NA
"null","正在介绍",NA,"html-keyboard-response",190,677998,"0.0-15.0-2.17",621,"ListB","woman","chinese","SW_C_F_B4",NA,NA,NA,"null",NA,NA,NA,NA,NA,NA
"7031.9000000003725",NA,NA,"survey-text",191,685033,"0.0-15.0-3.17",621,"ListB","woman","chinese","SW_C_F_B4",NA,NA,NA,NA,"{""Q0"":""凯特正在介绍露丝""}","<img src='gifs/FemaleRace4a.gif' style='height:400px;''></img>","介绍","正在介绍","chinese",NA
"3735.300000000745","<img src='img/portrait_matrix_listB_chinese.jpg' style='width:900px;height:500px;''></img><p>如果您已经记住了所有的人物和名字，请点击继续。</p><p><strong>请注意：您对先前记忆的面孔将在本实验中被测试5次。</strong></p>",0,"html-button-response",192,688771,"0.0-16.0-0.0",621,"ListB","woman","chinese","SW_C_F_B4",NA,NA,NA,NA,NA,NA,NA,NA,NA,NA
"3410.39999999851","<img src=""portrait/BM1.jpg""style=""height:400px;""></img>",4,"html-button-response",193,693199,"0.0-16.0-1.0",621,"ListB","woman","chinese","SW_C_F_B4",NA,"true",4,NA,NA,NA,NA,NA,NA,NA
"null","正确",NA,"html-keyboard-response",194,694710,"0.0-16.0-2.0-0.0",621,"ListB","woman","chinese","SW_C_F_B4",NA,NA,NA,"null",NA,NA,NA,NA,NA,NA
"4500.5999999996275","<img src=""portrait/WM2.jpg""style=""height:400px;""></img>",7,"html-button-response",195,699213,"0.0-16.0-4.0",621,"ListB","woman","chinese","SW_C_F_B4",NA,"true",7,NA,NA,NA,NA,NA,NA,NA
"null","正确",NA,"html-keyboard-response",196,700741,"0.0-16.0-5.0-0.0",621,"ListB","woman","chinese","SW_C_F_B4",NA,NA,NA,"null",NA,NA,NA,NA,NA,NA
"3077.9000000003725","<img src=""portrait/BW2.jpg""style=""height:400px;""></img>",2,"html-button-response",197,703821,"0.0-16.0-7.0",621,"ListB","woman","chinese","SW_C_F_B4",NA,"true",2,NA,NA,NA,NA,NA,NA,NA
"null","正确",NA,"html-keyboard-response",198,705379,"0.0-16.0-8.0-0.0",621,"ListB","woman","chinese","SW_C_F_B4",NA,NA,NA,"null",NA,NA,NA,NA,NA,NA
"5309.0999999996275","<img src=""portrait/WM1.jpg""style=""height:400px;""></img>",6,"html-button-response",199,710691,"0.0-16.0-10.0",621,"ListB","woman","chinese","SW_C_F_B4",NA,"true",6,NA,NA,NA,NA,NA,NA,NA
"null","正确",NA,"html-keyboard-response",200,712219,"0.0-16.0-11.0-0.0",621,"ListB","woman","chinese","SW_C_F_B4",NA,NA,NA,"null",NA,NA,NA,NA,NA,NA
"5325.699999999255","<img src=""portrait/BM2.jpg""style=""height:400px;""></img>",5,"html-button-response",201,717547,"0.0-16.0-13.0",621,"ListB","woman","chinese","SW_C_F_B4",NA,"true",5,NA,NA,NA,NA,NA,NA,NA
"null","正确",NA,"html-keyboard-response",202,719064,"0.0-16.0-14.0-0.0",621,"ListB","woman","chinese","SW_C_F_B4",NA,NA,NA,"null",NA,NA,NA,NA,NA,NA
"3171.9000000003725","<img src=""portrait/BW1.jpg""style=""height:400px;""></img>",0,"html-button-response",203,722238,"0.0-16.0-16.0",621,"ListB","woman","chinese","SW_C_F_B4",NA,"true",0,NA,NA,NA,NA,NA,NA,NA
"null","正确",NA,"html-keyboard-response",204,723807,"0.0-16.0-17.0-0.0",621,"ListB","woman","chinese","SW_C_F_B4",NA,NA,NA,"null",NA,NA,NA,NA,NA,NA
"2752.9000000003725","<img src=""portrait/WW1.jpg""style=""height:400px;""></img>",1,"html-button-response",205,726562,"0.0-16.0-19.0",621,"ListB","woman","chinese","SW_C_F_B4",NA,"true",1,NA,NA,NA,NA,NA,NA,NA
"null","正确",NA,"html-keyboard-response",206,728075,"0.0-16.0-20.0-0.0",621,"ListB","woman","chinese","SW_C_F_B4",NA,NA,NA,"null",NA,NA,NA,NA,NA,NA
"2328.0999999996275","<img src=""portrait/WW2.jpg""style=""height:400px;""></img>",3,"html-button-response",207,730405,"0.0-16.0-22.0",621,"ListB","woman","chinese","SW_C_F_B4",NA,"true",3,NA,NA,NA,NA,NA,NA,NA
"null","正确",NA,"html-keyboard-response",208,731970,"0.0-16.0-23.0-0.0",621,"ListB","woman","chinese","SW_C_F_B4",NA,NA,NA,"null",NA,NA,NA,NA,NA,NA
"3090.4000000003725","<p>您第一次在8题里答对了 8 题。 请点击继续</p>",0,"html-button-response",209,735062,"0.0-16.0-25.0",621,"ListB","woman","chinese","SW_C_F_B4",NA,NA,NA,NA,NA,NA,NA,NA,NA,NA
"null","<div style=""font-size:60px;"">+</div>",NA,"html-keyboard-response",210,736591,"0.0-17.0-0.0",621,"ListB","woman","chinese","SW_C_F_B4",NA,NA,NA,"null",NA,NA,NA,NA,NA,NA
"null","<img src='gifs/MaleRace4a.gif' style='height:400px;''></img>",NA,"html-keyboard-response",211,738593,"0.0-17.0-1.0",621,"ListB","woman","chinese","SW_C_F_B4",NA,NA,NA,"null",NA,NA,NA,NA,NA,NA
"null","正在看着",NA,"html-keyboard-response",212,741624,"0.0-17.0-2.0",621,"ListB","woman","chinese","SW_C_F_B4",NA,NA,NA,"null",NA,NA,NA,NA,NA,NA
"8229.099999999627",NA,NA,"survey-text",213,749856,"0.0-17.0-3.0",621,"ListB","woman","chinese","SW_C_F_B4",NA,NA,NA,NA,"{""Q0"":""戴夫正在看着麦克""}","<img src='gifs/MaleRace4a.gif' style='height:400px;''></img>","看着","正在看着","chinese",NA
"null","<div style=""font-size:60px;"">+</div>",NA,"html-keyboard-response",214,750369,"0.0-17.0-0.1",621,"ListB","woman","chinese","SW_C_F_B4",NA,NA,NA,"null",NA,NA,NA,NA,NA,NA
"null","<img src='gifs/ChineseGender4b.gif' style='height:400px;''></img>",NA,"html-keyboard-response",215,752383,"0.0-17.0-1.1",621,"ListB","woman","chinese","SW_C_F_B4",NA,NA,NA,"null",NA,NA,NA,NA,NA,NA
"null","正在陪伴",NA,"html-keyboard-response",216,755398,"0.0-17.0-2.1",621,"ListB","woman","chinese","SW_C_F_B4",NA,NA,NA,"null",NA,NA,NA,NA,NA,NA
"8255.800000000745",NA,NA,"survey-text",217,763657,"0.0-17.0-3.1",621,"ListB","woman","chinese","SW_C_F_B4",NA,NA,NA,NA,"{""Q0"":""戴夫正在陪伴弗雷""}","<img src='gifs/ChineseGender4b.gif' style='height:400px;''></img>","陪伴","正在陪伴","chinese",NA
"null","<div style=""font-size:60px;"">+</div>",NA,"html-keyboard-response",218,764172,"0.0-17.0-0.2",621,"ListB","woman","chinese","SW_C_F_B4",NA,NA,NA,"null",NA,NA,NA,NA,NA,NA
"null","<img src='gifs/ChineseGender1a.gif' style='height:400px;''></img>",NA,"html-keyboard-response",219,766180,"0.0-17.0-1.2",621,"ListB","woman","chinese","SW_C_F_B4",NA,NA,NA,"null",NA,NA,NA,NA,NA,NA
"null","正在聘用",NA,"html-keyboard-response",220,769193,"0.0-17.0-2.2",621,"ListB","woman","chinese","SW_C_F_B4",NA,NA,NA,"null",NA,NA,NA,NA,NA,NA
"7718.199999999255",NA,NA,"survey-text",221,776913,"0.0-17.0-3.2",621,"ListB","woman","chinese","SW_C_F_B4",NA,NA,NA,NA,"{""Q0"":""霍普正在聘用卢克""}","<img src='gifs/ChineseGender1a.gif' style='height:400px;''></img>","聘用","正在聘用","chinese",NA
"null","<div style=""font-size:60px;"">+</div>",NA,"html-keyboard-response",222,777425,"0.0-17.0-0.3",621,"ListB","woman","chinese","SW_C_F_B4",NA,NA,NA,"null",NA,NA,NA,NA,NA,NA
"null","<img src='gifs/FemaleRace1b.gif' style='height:400px;''></img>",NA,"html-keyboard-response",223,779429,"0.0-17.0-1.3",621,"ListB","woman","chinese","SW_C_F_B4",NA,NA,NA,"null",NA,NA,NA,NA,NA,NA
"null","正在聘用",NA,"html-keyboard-response",224,782450,"0.0-17.0-2.3",621,"ListB","woman","chinese","SW_C_F_B4",NA,NA,NA,"null",NA,NA,NA,NA,NA,NA
"7275",NA,NA,"survey-text",225,789728,"0.0-17.0-3.3",621,"ListB","woman","chinese","SW_C_F_B4",NA,NA,NA,NA,"{""Q0"":""贝斯正在聘用弗雷""}","<img src='gifs/FemaleRace1b.gif' style='height:400px;''></img>","聘用","正在聘用","chinese",NA
"null","<div style=""font-size:60px;"">+</div>",NA,"html-keyboard-response",226,790233,"0.0-17.0-0.4",621,"ListB","woman","chinese","SW_C_F_B4",NA,NA,NA,"null",NA,NA,NA,NA,NA,NA
"null","<img src='gifs/FemaleRace4a.gif' style='height:400px;''></img>",NA,"html-keyboard-response",227,792236,"0.0-17.0-1.4",621,"ListB","woman","chinese","SW_C_F_B4",NA,NA,NA,"null",NA,NA,NA,NA,NA,NA
"null","正在表扬",NA,"html-keyboard-response",228,795264,"0.0-17.0-2.4",621,"ListB","woman","chinese","SW_C_F_B4",NA,NA,NA,"null",NA,NA,NA,NA,NA,NA
"7365.799999998882",NA,NA,"survey-text",229,802633,"0.0-17.0-3.4",621,"ListB","woman","chinese","SW_C_F_B4",NA,NA,NA,NA,"{""Q0"":""露丝正在表扬凯特""}","<img src='gifs/FemaleRace4a.gif' style='height:400px;''></img>","表扬","正在表扬","chinese",NA
"null","<div style=""font-size:60px;"">+</div>",NA,"html-keyboard-response",230,803143,"0.0-17.0-0.5",621,"ListB","woman","chinese","SW_C_F_B4",NA,NA,NA,"null",NA,NA,NA,NA,NA,NA
"null","<img src='gifs/BlackGender2a.gif' style='height:400px;''></img>",NA,"html-keyboard-response",231,805159,"0.0-17.0-1.5",621,"ListB","woman","chinese","SW_C_F_B4",NA,NA,NA,"null",NA,NA,NA,NA,NA,NA
"null","正在介绍",NA,"html-keyboard-response",232,808185,"0.0-17.0-2.5",621,"ListB","woman","chinese","SW_C_F_B4",NA,NA,NA,"null",NA,NA,NA,NA,NA,NA
"9142.900000000373",NA,NA,"survey-text",233,817331,"0.0-17.0-3.5",621,"ListB","woman","chinese","SW_C_F_B4",NA,NA,NA,NA,"{""Q0"":""麦克正在介绍贝斯""}","<img src='gifs/BlackGender2a.gif' style='height:400px;''></img>","介绍","正在介绍","chinese",NA
"null","<div style=""font-size:60px;"">+</div>",NA,"html-keyboard-response",234,817844,"0.0-17.0-0.6",621,"ListB","woman","chinese","SW_C_F_B4",NA,NA,NA,"null",NA,NA,NA,NA,NA,NA
"null","<img src='gifs/FemaleRace2a.gif' style='height:400px;''></img>",NA,"html-keyboard-response",235,819855,"0.0-17.0-1.6",621,"ListB","woman","chinese","SW_C_F_B4",NA,NA,NA,"null",NA,NA,NA,NA,NA,NA
"null","正在面向",NA,"html-keyboard-response",236,822889,"0.0-17.0-2.6",621,"ListB","woman","chinese","SW_C_F_B4",NA,NA,NA,"null",NA,NA,NA,NA,NA,NA
"6630.0999999996275",NA,NA,"survey-text",237,829522,"0.0-17.0-3.6",621,"ListB","woman","chinese","SW_C_F_B4",NA,NA,NA,NA,"{""Q0"":""霍普正在面向凯特""}","<img src='gifs/FemaleRace2a.gif' style='height:400px;''></img>","面向","正在面向","chinese",NA
"null","<div style=""font-size:60px;"">+</div>",NA,"html-keyboard-response",238,830030,"0.0-17.0-0.7",621,"ListB","woman","chinese","SW_C_F_B4",NA,NA,NA,"null",NA,NA,NA,NA,NA,NA
"null","<img src='gifs/MaleRace3b.gif' style='height:400px;''></img>",NA,"html-keyboard-response",239,832038,"0.0-17.0-1.7",621,"ListB","woman","chinese","SW_C_F_B4",NA,NA,NA,"null",NA,NA,NA,NA,NA,NA
"null","正在面向",NA,"html-keyboard-response",240,835078,"0.0-17.0-2.7",621,"ListB","woman","chinese","SW_C_F_B4",NA,NA,NA,"null",NA,NA,NA,NA,NA,NA
"8466.099999999627",NA,NA,"survey-text",241,843547,"0.0-17.0-3.7",621,"ListB","woman","chinese","SW_C_F_B4",NA,NA,NA,NA,"{""Q0"":""戴夫正在面向麦克""}","<img src='gifs/MaleRace3b.gif' style='height:400px;''></img>","面向","正在面向","chinese",NA
"null","<div style=""font-size:60px;"">+</div>",NA,"html-keyboard-response",242,844059,"0.0-17.0-0.8",621,"ListB","woman","chinese","SW_C_F_B4",NA,NA,NA,"null",NA,NA,NA,NA,NA,NA
"null","<img src='gifs/MaleRace3a.gif' style='height:400px;''></img>",NA,"html-keyboard-response",243,846072,"0.0-17.0-1.8",621,"ListB","woman","chinese","SW_C_F_B4",NA,NA,NA,"null",NA,NA,NA,NA,NA,NA
"null","正在加入",NA,"html-keyboard-response",244,849090,"0.0-17.0-2.8",621,"ListB","woman","chinese","SW_C_F_B4",NA,NA,NA,"null",NA,NA,NA,NA,NA,NA
"7297.39999999851",NA,NA,"survey-text",245,856390,"0.0-17.0-3.8",621,"ListB","woman","chinese","SW_C_F_B4",NA,NA,NA,NA,"{""Q0"":""弗雷正在加入戴夫""}","<img src='gifs/MaleRace3a.gif' style='height:400px;''></img>","加入","正在加入","chinese",NA
"null","<div style=""font-size:60px;"">+</div>",NA,"html-keyboard-response",246,856901,"0.0-17.0-0.9",621,"ListB","woman","chinese","SW_C_F_B4",NA,NA,NA,"null",NA,NA,NA,NA,NA,NA
"null","<img src='gifs/BlackGender3b.gif' style='height:400px;''></img>",NA,"html-keyboard-response",247,858904,"0.0-17.0-1.9",621,"ListB","woman","chinese","SW_C_F_B4",NA,NA,NA,"null",NA,NA,NA,NA,NA,NA
"null","正在说服",NA,"html-keyboard-response",248,861926,"0.0-17.0-2.9",621,"ListB","woman","chinese","SW_C_F_B4",NA,NA,NA,"null",NA,NA,NA,NA,NA,NA
"7232.9000000003725",NA,NA,"survey-text",249,869162,"0.0-17.0-3.9",621,"ListB","woman","chinese","SW_C_F_B4",NA,NA,NA,NA,"{""Q0"":""凯特正在说服弗雷""}","<img src='gifs/BlackGender3b.gif' style='height:400px;''></img>","说服","正在说服","chinese",NA
"null","<div style=""font-size:60px;"">+</div>",NA,"html-keyboard-response",250,869673,"0.0-17.0-0.10",621,"ListB","woman","chinese","SW_C_F_B4",NA,NA,NA,"null",NA,NA,NA,NA,NA,NA
"null","<img src='gifs/BlackGender1b.gif' style='height:400px;''></img>",NA,"html-keyboard-response",251,871676,"0.0-17.0-1.10",621,"ListB","woman","chinese","SW_C_F_B4",NA,NA,NA,"null",NA,NA,NA,NA,NA,NA
"null","正在聆听",NA,"html-keyboard-response",252,874700,"0.0-17.0-2.10",621,"ListB","woman","chinese","SW_C_F_B4",NA,NA,NA,"null",NA,NA,NA,NA,NA,NA
"8913.400000000373",NA,NA,"survey-text",253,883616,"0.0-17.0-3.10",621,"ListB","woman","chinese","SW_C_F_B4",NA,NA,NA,NA,"{""Q0"":""贝斯正在聆听弗雷""}","<img src='gifs/BlackGender1b.gif' style='height:400px;''></img>","聆听","正在聆听","chinese",NA
"null","<div style=""font-size:60px;"">+</div>",NA,"html-keyboard-response",254,884125,"0.0-17.0-0.11",621,"ListB","woman","chinese","SW_C_F_B4",NA,NA,NA,"null",NA,NA,NA,NA,NA,NA
"null","<img src='gifs/ChineseGender3a.gif' style='height:400px;''></img>",NA,"html-keyboard-response",255,886140,"0.0-17.0-1.11",621,"ListB","woman","chinese","SW_C_F_B4",NA,NA,NA,"null",NA,NA,NA,NA,NA,NA
"null","正在触摸",NA,"html-keyboard-response",256,889163,"0.0-17.0-2.11",621,"ListB","woman","chinese","SW_C_F_B4",NA,NA,NA,"null",NA,NA,NA,NA,NA,NA
"6860.4000000003725",NA,NA,"survey-text",257,896026,"0.0-17.0-3.11",621,"ListB","woman","chinese","SW_C_F_B4",NA,NA,NA,NA,"{""Q0"":""露丝正在触摸戴夫""}","<img src='gifs/ChineseGender3a.gif' style='height:400px;''></img>","触摸","正在触摸","chinese",NA
"null","<div style=""font-size:60px;"">+</div>",NA,"html-keyboard-response",258,896537,"0.0-17.0-0.12",621,"ListB","woman","chinese","SW_C_F_B4",NA,NA,NA,"null",NA,NA,NA,NA,NA,NA
"null","<img src='gifs/MaleRace2b.gif' style='height:400px;''></img>",NA,"html-keyboard-response",259,898552,"0.0-17.0-1.12",621,"ListB","woman","chinese","SW_C_F_B4",NA,NA,NA,"null",NA,NA,NA,NA,NA,NA
"null","正在走向",NA,"html-keyboard-response",260,901579,"0.0-17.0-2.12",621,"ListB","woman","chinese","SW_C_F_B4",NA,NA,NA,"null",NA,NA,NA,NA,NA,NA
"6870.5",NA,NA,"survey-text",261,908452,"0.0-17.0-3.12",621,"ListB","woman","chinese","SW_C_F_B4",NA,NA,NA,NA,"{""Q0"":""卢克正在走向麦克""}","<img src='gifs/MaleRace2b.gif' style='height:400px;''></img>","走向","正在走向","chinese",NA
"null","<div style=""font-size:60px;"">+</div>",NA,"html-keyboard-response",262,908964,"0.0-17.0-0.13",621,"ListB","woman","chinese","SW_C_F_B4",NA,NA,NA,"null",NA,NA,NA,NA,NA,NA
"null","<img src='gifs/BlackGender3a.gif' style='height:400px;''></img>",NA,"html-keyboard-response",263,910982,"0.0-17.0-1.13",621,"ListB","woman","chinese","SW_C_F_B4",NA,NA,NA,"null",NA,NA,NA,NA,NA,NA
"null","正在走向",NA,"html-keyboard-response",264,913999,"0.0-17.0-2.13",621,"ListB","woman","chinese","SW_C_F_B4",NA,NA,NA,"null",NA,NA,NA,NA,NA,NA
"6948.800000000745",NA,NA,"survey-text",265,920951,"0.0-17.0-3.13",621,"ListB","woman","chinese","SW_C_F_B4",NA,NA,NA,NA,"{""Q0"":""弗雷正在走向凯特""}","<img src='gifs/BlackGender3a.gif' style='height:400px;''></img>","走向","正在走向","chinese",NA
"null","<div style=""font-size:60px;"">+</div>",NA,"html-keyboard-response",266,921454,"0.0-17.0-0.14",621,"ListB","woman","chinese","SW_C_F_B4",NA,NA,NA,"null",NA,NA,NA,NA,NA,NA
"null","<img src='gifs/ChineseGender3b.gif' style='height:400px;''></img>",NA,"html-keyboard-response",267,923467,"0.0-17.0-1.14",621,"ListB","woman","chinese","SW_C_F_B4",NA,NA,NA,"null",NA,NA,NA,NA,NA,NA
"null","正在聘用",NA,"html-keyboard-response",268,926478,"0.0-17.0-2.14",621,"ListB","woman","chinese","SW_C_F_B4",NA,NA,NA,"null",NA,NA,NA,NA,NA,NA
"7723.200000001118",NA,NA,"survey-text",269,934204,"0.0-17.0-3.14",621,"ListB","woman","chinese","SW_C_F_B4",NA,NA,NA,NA,"{""Q0"":""戴夫正在聘用露丝""}","<img src='gifs/ChineseGender3b.gif' style='height:400px;''></img>","聘用","正在聘用","chinese",NA
"null","<div style=""font-size:60px;"">+</div>",NA,"html-keyboard-response",270,934719,"0.0-17.0-0.15",621,"ListB","woman","chinese","SW_C_F_B4",NA,NA,NA,"null",NA,NA,NA,NA,NA,NA
"null","<img src='gifs/BlackGender3b.gif' style='height:400px;''></img>",NA,"html-keyboard-response",271,936729,"0.0-17.0-1.15",621,"ListB","woman","chinese","SW_C_F_B4",NA,NA,NA,"null",NA,NA,NA,NA,NA,NA
"null","正在联系",NA,"html-keyboard-response",272,939749,"0.0-17.0-2.15",621,"ListB","woman","chinese","SW_C_F_B4",NA,NA,NA,"null",NA,NA,NA,NA,NA,NA
"9479.699999999255",NA,NA,"survey-text",273,949232,"0.0-17.0-3.15",621,"ListB","woman","chinese","SW_C_F_B4",NA,NA,NA,NA,"{""Q0"":""凯特正在联系弗雷""}","<img src='gifs/BlackGender3b.gif' style='height:400px;''></img>","联系","正在联系","chinese",NA
"null","<div style=""font-size:60px;"">+</div>",NA,"html-keyboard-response",274,949743,"0.0-17.0-0.16",621,"ListB","woman","chinese","SW_C_F_B4",NA,NA,NA,"null",NA,NA,NA,NA,NA,NA
"null","<img src='gifs/ChineseGender2a.gif' style='height:400px;''></img>",NA,"html-keyboard-response",275,951755,"0.0-17.0-1.16",621,"ListB","woman","chinese","SW_C_F_B4",NA,NA,NA,"null",NA,NA,NA,NA,NA,NA
"null","正在表扬",NA,"html-keyboard-response",276,954765,"0.0-17.0-2.16",621,"ListB","woman","chinese","SW_C_F_B4",NA,NA,NA,"null",NA,NA,NA,NA,NA,NA
"6327.299999998882",NA,NA,"survey-text",277,961094,"0.0-17.0-3.16",621,"ListB","woman","chinese","SW_C_F_B4",NA,NA,NA,NA,"{""Q0"":""露丝正在表扬卢克""}","<img src='gifs/ChineseGender2a.gif' style='height:400px;''></img>","表扬","正在表扬","chinese",NA
"null","<div style=""font-size:60px;"">+</div>",NA,"html-keyboard-response",278,961609,"0.0-17.0-0.17",621,"ListB","woman","chinese","SW_C_F_B4",NA,NA,NA,"null",NA,NA,NA,NA,NA,NA
"null","<img src='gifs/BlackGender4a.gif' style='height:400px;''></img>",NA,"html-keyboard-response",279,963626,"0.0-17.0-1.17",621,"ListB","woman","chinese","SW_C_F_B4",NA,NA,NA,"null",NA,NA,NA,NA,NA,NA
"null","正在看着",NA,"html-keyboard-response",280,966660,"0.0-17.0-2.17",621,"ListB","woman","chinese","SW_C_F_B4",NA,NA,NA,"null",NA,NA,NA,NA,NA,NA
"6672",NA,NA,"survey-text",281,973335,"0.0-17.0-3.17",621,"ListB","woman","chinese","SW_C_F_B4",NA,NA,NA,NA,"{""Q0"":""麦克正在看着凯特""}","<img src='gifs/BlackGender4a.gif' style='height:400px;''></img>","看着","正在看着","chinese",NA
"3411.10000000149","<p>Thank you for completing that task.</p><p>The final part of this session is a short questionnaire.</p><p>Press Continue.</p>",0,"html-button-response",282,976748,"0.0-18.0",621,"ListB","woman","chinese","SW_C_F_B4",NA,NA,NA,NA,NA,NA,NA,NA,NA,NA
"89217.40000000037",NA,NA,"survey-text",283,1066987,"0.0-19.0",621,"ListB","woman","chinese","SW_C_F_B4",NA,NA,NA,NA,"{""Q0"":""21"",""Q1"":""Chinese"",""Q2"":""Chinese"",""Q3"":""China"",""Q4"":""Chinese"",""Q5"":""Han"",""Q6"":""female""}",NA,NA,NA,NA,"demographics"
"4069.2999999988824","<p>Have you lived in the UK for the last 5 years or more?</p>",1,"html-button-response",284,1071060,"0.0-20.0",621,"ListB","woman","chinese","SW_C_F_B4",NA,NA,NA,NA,NA,NA,NA,NA,NA,"fiveyears"
"66776.5",NA,NA,"external-html",285,1140091,"0.0-21.0",621,"ListB","woman","chinese","SW_C_F_B4","debrief.html",NA,NA,NA,NA,NA,NA,NA,NA,NA
"23195.10000000149",NA,NA,"survey-text",286,1163290,"0.0-22.0",621,"ListB","woman","chinese","SW_C_F_B4",NA,NA,NA,NA,"{""ptpt_id"":""SW_C_F_B4""}",NA,NA,NA,NA,"worker_id"
