"rt","stimulus","button_pressed","trial_type","trial_index","time_elapsed","internal_node_id","subject","list","ppt_gender","ppt_language","ptptID","url","first_guess","correct","key_press","responses","image","verb","phrase","condition","test_part"
"1573.199999988079","Welcome to the experiment. Press Continue to begin.",0,"html-button-response",0,1574,"0.0-0.0",62877,"ListA","man","english","SW_E_M_A1",NA,NA,NA,NA,NA,NA,NA,NA,NA,NA
"1192735.6000000238",NA,NA,"external-html",1,1195559,"0.0-1.0",62877,"ListA","man","english","SW_E_M_A1","consent.html",NA,NA,NA,NA,NA,NA,NA,NA,NA
"28077.20000001788","<p>On the next page, you will see portraits of 8 people and their names.</p><p>Your first task is to take a few minutes to memorise the names of these people.</p><p>You will have to recall their names during the rest of the experiment, so it is</p><p>essential that you try to memorise these people and their names as best as you can.</p><p><strong>You will then be tested on your memory of these names and portraits.</strong></p><p>The experiment will start after you have completed this memory test.</p><p>Ready?</p>",0,"html-button-response",2,1223639,"0.0-2.0",62877,"ListA","man","english","SW_E_M_A1",NA,NA,NA,NA,NA,NA,NA,NA,NA,NA
"14903.199999988079","<img src='img/portrait_matrix_listA.jpg' style='width:900px;height:500px;''></img><p>If you have memorised all the portraits and names and are ready to start, press Continue.</p><p><strong>Please note: Your memory of these faces will be tested 5 times during this experiment.</strong></p>",0,"html-button-response",3,1239550,"0.0-3.0-0.0",62877,"ListA","man","english","SW_E_M_A1",NA,NA,NA,NA,NA,NA,NA,NA,NA,NA
"16749.80000001192","<img src=""portrait/BW1.jpg""style=""height:400px;""></img>",0,"html-button-response",4,1257303,"0.0-3.0-1.0",62877,"ListA","man","english","SW_E_M_A1",NA,"true",0,NA,NA,NA,NA,NA,NA,NA
"null","CORRECT",NA,"html-keyboard-response",5,1258809,"0.0-3.0-2.0-0.0",62877,"ListA","man","english","SW_E_M_A1",NA,NA,NA,"null",NA,NA,NA,NA,NA,NA
"8252.699999988079","<img src=""portrait/BM2.jpg""style=""height:400px;""></img>",5,"html-button-response",6,1267062,"0.0-3.0-4.0",62877,"ListA","man","english","SW_E_M_A1",NA,"true",5,NA,NA,NA,NA,NA,NA,NA
"null","CORRECT",NA,"html-keyboard-response",7,1268574,"0.0-3.0-5.0-0.0",62877,"ListA","man","english","SW_E_M_A1",NA,NA,NA,"null",NA,NA,NA,NA,NA,NA
"3773.9000000059605","<img src=""portrait/WM1.jpg""style=""height:400px;""></img>",6,"html-button-response",8,1272351,"0.0-3.0-7.0",62877,"ListA","man","english","SW_E_M_A1",NA,"true",6,NA,NA,NA,NA,NA,NA,NA
"null","CORRECT",NA,"html-keyboard-response",9,1273870,"0.0-3.0-8.0-0.0",62877,"ListA","man","english","SW_E_M_A1",NA,NA,NA,"null",NA,NA,NA,NA,NA,NA
"7646.300000011921","<img src=""portrait/WW2.jpg""style=""height:400px;""></img>",3,"html-button-response",10,1281519,"0.0-3.0-10.0",62877,"ListA","man","english","SW_E_M_A1",NA,"true",3,NA,NA,NA,NA,NA,NA,NA
"null","CORRECT",NA,"html-keyboard-response",11,1283037,"0.0-3.0-11.0-0.0",62877,"ListA","man","english","SW_E_M_A1",NA,NA,NA,"null",NA,NA,NA,NA,NA,NA
"5166.199999988079","<img src=""portrait/WM2.jpg""style=""height:400px;""></img>",7,"html-button-response",12,1288206,"0.0-3.0-13.0",62877,"ListA","man","english","SW_E_M_A1",NA,"true",7,NA,NA,NA,NA,NA,NA,NA
"null","CORRECT",NA,"html-keyboard-response",13,1289732,"0.0-3.0-14.0-0.0",62877,"ListA","man","english","SW_E_M_A1",NA,NA,NA,"null",NA,NA,NA,NA,NA,NA
"8255.59999999404","<img src=""portrait/WW1.jpg""style=""height:400px;""></img>",1,"html-button-response",14,1297989,"0.0-3.0-16.0",62877,"ListA","man","english","SW_E_M_A1",NA,"true",1,NA,NA,NA,NA,NA,NA,NA
"null","CORRECT",NA,"html-keyboard-response",15,1299500,"0.0-3.0-17.0-0.0",62877,"ListA","man","english","SW_E_M_A1",NA,NA,NA,"null",NA,NA,NA,NA,NA,NA
"8816.799999982119","<img src=""portrait/BW2.jpg""style=""height:400px;""></img>",2,"html-button-response",16,1308318,"0.0-3.0-19.0",62877,"ListA","man","english","SW_E_M_A1",NA,"true",2,NA,NA,NA,NA,NA,NA,NA
"null","CORRECT",NA,"html-keyboard-response",17,1309836,"0.0-3.0-20.0-0.0",62877,"ListA","man","english","SW_E_M_A1",NA,NA,NA,"null",NA,NA,NA,NA,NA,NA
"4151.199999988079","<img src=""portrait/BM1.jpg""style=""height:400px;""></img>",4,"html-button-response",18,1313990,"0.0-3.0-22.0",62877,"ListA","man","english","SW_E_M_A1",NA,"true",4,NA,NA,NA,NA,NA,NA,NA
"null","CORRECT",NA,"html-keyboard-response",19,1315495,"0.0-3.0-23.0-0.0",62877,"ListA","man","english","SW_E_M_A1",NA,NA,NA,"null",NA,NA,NA,NA,NA,NA
"20525.19999998808","<p>You got 8 out of 8 right first time. Press Continue.</p>",0,"html-button-response",20,1336022,"0.0-3.0-25.0",62877,"ListA","man","english","SW_E_M_A1",NA,NA,NA,NA,NA,NA,NA,NA,NA,NA
"33911.09999999404","<p>In this experiment, you will view photographs of the people from the memory game.</p><p>By using the <strong>exact</strong> phrase given <i>after</i> the photograph appears and recalling the correct names of the people in the photographs, form a sentence describing an interaction. You do not need to capitalise names.</p><p>Type your answer in the space provided. Please complete every sentence before moving onto the next trial.</p><p>You will only have a few seconds to memorise each given photograph and phrase before you can respond, so try your best to focus.</p><p>An example is given below. Press 'Continue' when you are ready.</p><img src='img/speaking_example.jpg' style='width:800px;height:460px;''></img>",0,"html-button-response",21,1370950,"0.0-4.0",62877,"ListA","man","english","SW_E_M_A1",NA,NA,NA,NA,NA,NA,NA,NA,NA,NA
"13207.299999982119","<p>Before the experiment starts, you will watch two example trials. Press 'Continue'.</p>",0,"html-button-response",22,1385158,"0.0-5.0",62877,"ListA","man","english","SW_E_M_A1",NA,NA,NA,NA,NA,NA,NA,NA,NA,NA
"null","<img src='img/meet.gif' style='height:400px;''></img>",NA,"html-keyboard-response",23,1388167,"0.0-6.0",62877,"ListA","man","english","SW_E_M_A1",NA,NA,NA,"null",NA,NA,NA,NA,NA,NA
"null","<p>is meeting</p>",NA,"html-keyboard-response",24,1390175,"0.0-7.0",62877,"ListA","man","english","SW_E_M_A1",NA,NA,NA,"null",NA,NA,NA,NA,NA,NA
"12573.799999982119","<p><b>Answer:</b> kate is meeting beth</p>",0,"html-button-response",25,1402750,"0.0-8.0",62877,"ListA","man","english","SW_E_M_A1",NA,NA,NA,NA,NA,NA,NA,NA,NA,NA
"null","<img src='img/spy.gif' style='height:400px;''></img>",NA,"html-keyboard-response",26,1405764,"0.0-9.0",62877,"ListA","man","english","SW_E_M_A1",NA,NA,NA,"null",NA,NA,NA,NA,NA,NA
"null","<p>is being spied on by</p>",NA,"html-keyboard-response",27,1407770,"0.0-10.0",62877,"ListA","man","english","SW_E_M_A1",NA,NA,NA,"null",NA,NA,NA,NA,NA,NA
"22811","<p><b>Answer:</b> luke is being spied on by dave</p>",0,"html-button-response",28,1430582,"0.0-11.0",62877,"ListA","man","english","SW_E_M_A1",NA,NA,NA,NA,NA,NA,NA,NA,NA,NA
"22174.5","<p>Ready to start the experiment?</p><br><p><strong>Remember to describe the picture using a full sentence,</strong></p><p><strong>that combines the names of the people with the <i>exact</i> phrase given.</strong></p><p><strong>To receive full payment you must do this correctly.</strong></p><p><strong> You do not need to capitalise names or use punctuation.</strong></p><br><p>Press 'Continue' to begin.</p>",0,"html-button-response",29,1453759,"0.0-12.0",62877,"ListA","man","english","SW_E_M_A1",NA,NA,NA,NA,NA,NA,NA,NA,NA,NA
"null","<div style=""font-size:60px;"">+</div>",NA,"html-keyboard-response",30,1455261,"0.0-13.0-0.0",62877,"ListA","man","english","SW_E_M_A1",NA,NA,NA,"null",NA,NA,NA,NA,NA,NA
"null","<img src='gifs/FemaleRace3a.gif' style='height:400px;''></img>",NA,"html-keyboard-response",31,1457267,"0.0-13.0-1.0",62877,"ListA","man","english","SW_E_M_A1",NA,NA,NA,"null",NA,NA,NA,NA,NA,NA
"null","is joining",NA,"html-keyboard-response",32,1460276,"0.0-13.0-2.0",62877,"ListA","man","english","SW_E_M_A1",NA,NA,NA,"null",NA,NA,NA,NA,NA,NA
"72896.09999999404",NA,NA,"survey-text",33,1533175,"0.0-13.0-3.0",62877,"ListA","man","english","SW_E_M_A1",NA,NA,NA,NA,"{""Q0"":""ruth is joining beth""}","<img src='gifs/FemaleRace3a.gif' style='height:400px;''></img>","join","is joining","english",NA
"null","<div style=""font-size:60px;"">+</div>",NA,"html-keyboard-response",34,1533676,"0.0-13.0-0.1",62877,"ListA","man","english","SW_E_M_A1",NA,NA,NA,"null",NA,NA,NA,NA,NA,NA
"null","<img src='gifs/FemaleRace2b.gif' style='height:400px;''></img>",NA,"html-keyboard-response",35,1535677,"0.0-13.0-1.1",62877,"ListA","man","english","SW_E_M_A1",NA,NA,NA,"null",NA,NA,NA,NA,NA,NA
"null","is employing",NA,"html-keyboard-response",36,1538678,"0.0-13.0-2.1",62877,"ListA","man","english","SW_E_M_A1",NA,NA,NA,"null",NA,NA,NA,NA,NA,NA
"16652",NA,NA,"survey-text",37,1555335,"0.0-13.0-3.1",62877,"ListA","man","english","SW_E_M_A1",NA,NA,NA,NA,"{""Q0"":""kate  jane""}","<img src='gifs/FemaleRace2b.gif' style='height:400px;''></img>","employing","is employing","english",NA
"null","<div style=""font-size:60px;"">+</div>",NA,"html-keyboard-response",38,1555847,"0.0-13.0-0.2",62877,"ListA","man","english","SW_E_M_A1",NA,NA,NA,"null",NA,NA,NA,NA,NA,NA
"null","<img src='gifs/FemaleRace1a.gif' style='height:400px;''></img>",NA,"html-keyboard-response",39,1557849,"0.0-13.0-1.2",62877,"ListA","man","english","SW_E_M_A1",NA,NA,NA,"null",NA,NA,NA,NA,NA,NA
"null","is contacting",NA,"html-keyboard-response",40,1560850,"0.0-13.0-2.2",62877,"ListA","man","english","SW_E_M_A1",NA,NA,NA,"null",NA,NA,NA,NA,NA,NA
"9646.90000000596",NA,NA,"survey-text",41,1570499,"0.0-13.0-3.2",62877,"ListA","man","english","SW_E_M_A1",NA,NA,NA,NA,"{""Q0"":""ruth kate""}","<img src='gifs/FemaleRace1a.gif' style='height:400px;''></img>","contacting","is contacting","english",NA
"null","<div style=""font-size:60px;"">+</div>",NA,"html-keyboard-response",42,1571007,"0.0-13.0-0.3",62877,"ListA","man","english","SW_E_M_A1",NA,NA,NA,"null",NA,NA,NA,NA,NA,NA
"null","<img src='gifs/BlackGender1a.gif' style='height:400px;''></img>",NA,"html-keyboard-response",43,1573012,"0.0-13.0-1.3",62877,"ListA","man","english","SW_E_M_A1",NA,NA,NA,"null",NA,NA,NA,NA,NA,NA
"null","is mentioning",NA,"html-keyboard-response",44,1576012,"0.0-13.0-2.3",62877,"ListA","man","english","SW_E_M_A1",NA,NA,NA,"null",NA,NA,NA,NA,NA,NA
"5995.0999999940395",NA,NA,"survey-text",45,1582009,"0.0-13.0-3.3",62877,"ListA","man","english","SW_E_M_A1",NA,NA,NA,NA,"{""Q0"":""ruth luke""}","<img src='gifs/BlackGender1a.gif' style='height:400px;''></img>","mention","is mentioning","english",NA
"null","<div style=""font-size:60px;"">+</div>",NA,"html-keyboard-response",46,1582511,"0.0-13.0-0.4",62877,"ListA","man","english","SW_E_M_A1",NA,NA,NA,"null",NA,NA,NA,NA,NA,NA
"null","<img src='gifs/MaleRace1a.gif' style='height:400px;''></img>",NA,"html-keyboard-response",47,1584520,"0.0-13.0-1.4",62877,"ListA","man","english","SW_E_M_A1",NA,NA,NA,"null",NA,NA,NA,NA,NA,NA
"null","is listening to",NA,"html-keyboard-response",48,1587526,"0.0-13.0-2.4",62877,"ListA","man","english","SW_E_M_A1",NA,NA,NA,"null",NA,NA,NA,NA,NA,NA
"13668.90000000596",NA,NA,"survey-text",49,1601196,"0.0-13.0-3.4",62877,"ListA","man","english","SW_E_M_A1",NA,NA,NA,NA,"{""Q0"":""luke fred""}","<img src='gifs/MaleRace1a.gif' style='height:400px;''></img>","listening to","is listening to","english",NA
"null","<div style=""font-size:60px;"">+</div>",NA,"html-keyboard-response",50,1601707,"0.0-13.0-0.5",62877,"ListA","man","english","SW_E_M_A1",NA,NA,NA,"null",NA,NA,NA,NA,NA,NA
"null","<img src='gifs/BlackGender4b.gif' style='height:400px;''></img>",NA,"html-keyboard-response",51,1603710,"0.0-13.0-1.5",62877,"ListA","man","english","SW_E_M_A1",NA,NA,NA,"null",NA,NA,NA,NA,NA,NA
"null","is looking at",NA,"html-keyboard-response",52,1606711,"0.0-13.0-2.5",62877,"ListA","man","english","SW_E_M_A1",NA,NA,NA,"null",NA,NA,NA,NA,NA,NA
"47998.59999999404",NA,NA,"survey-text",53,1654711,"0.0-13.0-3.5",62877,"ListA","man","english","SW_E_M_A1",NA,NA,NA,NA,"{""Q0"":""jane  dave""}","<img src='gifs/BlackGender4b.gif' style='height:400px;''></img>","looking at","is looking at","english",NA
"null","<div style=""font-size:60px;"">+</div>",NA,"html-keyboard-response",54,1655212,"0.0-13.0-0.6",62877,"ListA","man","english","SW_E_M_A1",NA,NA,NA,"null",NA,NA,NA,NA,NA,NA
"null","<img src='gifs/MaleRace3b.gif' style='height:400px;''></img>",NA,"html-keyboard-response",55,1657213,"0.0-13.0-1.6",62877,"ListA","man","english","SW_E_M_A1",NA,NA,NA,"null",NA,NA,NA,NA,NA,NA
"null","is listening to",NA,"html-keyboard-response",56,1660213,"0.0-13.0-2.6",62877,"ListA","man","english","SW_E_M_A1",NA,NA,NA,"null",NA,NA,NA,NA,NA,NA
"15091.09999999404",NA,NA,"survey-text",57,1675306,"0.0-13.0-3.6",62877,"ListA","man","english","SW_E_M_A1",NA,NA,NA,NA,"{""Q0"":""mike""}","<img src='gifs/MaleRace3b.gif' style='height:400px;''></img>","listening to","is listening to","english",NA
"null","<div style=""font-size:60px;"">+</div>",NA,"html-keyboard-response",58,1675818,"0.0-13.0-0.7",62877,"ListA","man","english","SW_E_M_A1",NA,NA,NA,"null",NA,NA,NA,NA,NA,NA
"null","<img src='gifs/ChineseGender1b.gif' style='height:400px;''></img>",NA,"html-keyboard-response",59,1677819,"0.0-13.0-1.7",62877,"ListA","man","english","SW_E_M_A1",NA,NA,NA,"null",NA,NA,NA,NA,NA,NA
"null","is accompanying",NA,"html-keyboard-response",60,1680827,"0.0-13.0-2.7",62877,"ListA","man","english","SW_E_M_A1",NA,NA,NA,"null",NA,NA,NA,NA,NA,NA
"12102.699999988079",NA,NA,"survey-text",61,1692931,"0.0-13.0-3.7",62877,"ListA","man","english","SW_E_M_A1",NA,NA,NA,NA,"{""Q0"":""fred is accompanying kate""}","<img src='gifs/ChineseGender1b.gif' style='height:400px;''></img>","accompanying","is accompanying","english",NA
"null","<div style=""font-size:60px;"">+</div>",NA,"html-keyboard-response",62,1693446,"0.0-13.0-0.8",62877,"ListA","man","english","SW_E_M_A1",NA,NA,NA,"null",NA,NA,NA,NA,NA,NA
"null","<img src='gifs/BlackGender2b.gif' style='height:400px;''></img>",NA,"html-keyboard-response",63,1695450,"0.0-13.0-1.8",62877,"ListA","man","english","SW_E_M_A1",NA,NA,NA,"null",NA,NA,NA,NA,NA,NA
"null","is walking towards",NA,"html-keyboard-response",64,1698454,"0.0-13.0-2.8",62877,"ListA","man","english","SW_E_M_A1",NA,NA,NA,"null",NA,NA,NA,NA,NA,NA
"20523.70000001788",NA,NA,"survey-text",65,1718978,"0.0-13.0-3.8",62877,"ListA","man","english","SW_E_M_A1",NA,NA,NA,NA,"{""Q0"":"" ruth is walking towards dave""}","<img src='gifs/BlackGender2b.gif' style='height:400px;''></img>","walking towards","is walking towards","english",NA
"null","<div style=""font-size:60px;"">+</div>",NA,"html-keyboard-response",66,1719485,"0.0-13.0-0.9",62877,"ListA","man","english","SW_E_M_A1",NA,NA,NA,"null",NA,NA,NA,NA,NA,NA
"null","<img src='gifs/FemaleRace1b.gif' style='height:400px;''></img>",NA,"html-keyboard-response",67,1721492,"0.0-13.0-1.9",62877,"ListA","man","english","SW_E_M_A1",NA,NA,NA,"null",NA,NA,NA,NA,NA,NA
"null","is employing",NA,"html-keyboard-response",68,1724494,"0.0-13.0-2.9",62877,"ListA","man","english","SW_E_M_A1",NA,NA,NA,"null",NA,NA,NA,NA,NA,NA
"15569.699999988079",NA,NA,"survey-text",69,1740065,"0.0-13.0-3.9",62877,"ListA","man","english","SW_E_M_A1",NA,NA,NA,NA,"{""Q0"":"" ruth is employing kate""}","<img src='gifs/FemaleRace1b.gif' style='height:400px;''></img>","employing","is employing","english",NA
"null","<div style=""font-size:60px;"">+</div>",NA,"html-keyboard-response",70,1740565,"0.0-13.0-0.10",62877,"ListA","man","english","SW_E_M_A1",NA,NA,NA,"null",NA,NA,NA,NA,NA,NA
"null","<img src='gifs/ChineseGender4a.gif' style='height:400px;''></img>",NA,"html-keyboard-response",71,1742566,"0.0-13.0-1.10",62877,"ListA","man","english","SW_E_M_A1",NA,NA,NA,"null",NA,NA,NA,NA,NA,NA
"null","is looking at",NA,"html-keyboard-response",72,1745576,"0.0-13.0-2.10",62877,"ListA","man","english","SW_E_M_A1",NA,NA,NA,"null",NA,NA,NA,NA,NA,NA
"11409.59999999404",NA,NA,"survey-text",73,1756987,"0.0-13.0-3.10",62877,"ListA","man","english","SW_E_M_A1",NA,NA,NA,NA,"{""Q0"":""mike  is looking at kate""}","<img src='gifs/ChineseGender4a.gif' style='height:400px;''></img>","looking at","is looking at","english",NA
"null","<div style=""font-size:60px;"">+</div>",NA,"html-keyboard-response",74,1757498,"0.0-13.0-0.11",62877,"ListA","man","english","SW_E_M_A1",NA,NA,NA,"null",NA,NA,NA,NA,NA,NA
"null","<img src='gifs/MaleRace4b.gif' style='height:400px;''></img>",NA,"html-keyboard-response",75,1759501,"0.0-13.0-1.11",62877,"ListA","man","english","SW_E_M_A1",NA,NA,NA,"null",NA,NA,NA,NA,NA,NA
"null","is following",NA,"html-keyboard-response",76,1762513,"0.0-13.0-2.11",62877,"ListA","man","english","SW_E_M_A1",NA,NA,NA,"null",NA,NA,NA,NA,NA,NA
"13804.09999999404",NA,NA,"survey-text",77,1776322,"0.0-13.0-3.11",62877,"ListA","man","english","SW_E_M_A1",NA,NA,NA,NA,"{""Q0"":"" daveis following mike""}","<img src='gifs/MaleRace4b.gif' style='height:400px;''></img>","following","is following","english",NA
"null","<div style=""font-size:60px;"">+</div>",NA,"html-keyboard-response",78,1776825,"0.0-13.0-0.12",62877,"ListA","man","english","SW_E_M_A1",NA,NA,NA,"null",NA,NA,NA,NA,NA,NA
"null","<img src='gifs/MaleRace4a.gif' style='height:400px;''></img>",NA,"html-keyboard-response",79,1778829,"0.0-13.0-1.12",62877,"ListA","man","english","SW_E_M_A1",NA,NA,NA,"null",NA,NA,NA,NA,NA,NA
"null","is convincing",NA,"html-keyboard-response",80,1781842,"0.0-13.0-2.12",62877,"ListA","man","english","SW_E_M_A1",NA,NA,NA,"null",NA,NA,NA,NA,NA,NA
"8617.299999982119",NA,NA,"survey-text",81,1790461,"0.0-13.0-3.12",62877,"ListA","man","english","SW_E_M_A1",NA,NA,NA,NA,"{""Q0"":""dave is convincing mike ""}","<img src='gifs/MaleRace4a.gif' style='height:400px;''></img>","convincing","is convincing","english",NA
"null","<div style=""font-size:60px;"">+</div>",NA,"html-keyboard-response",82,1790965,"0.0-13.0-0.13",62877,"ListA","man","english","SW_E_M_A1",NA,NA,NA,"null",NA,NA,NA,NA,NA,NA
"null","<img src='gifs/ChineseGender2a.gif' style='height:400px;''></img>",NA,"html-keyboard-response",83,1792973,"0.0-13.0-1.13",62877,"ListA","man","english","SW_E_M_A1",NA,NA,NA,"null",NA,NA,NA,NA,NA,NA
"null","is accompanying",NA,"html-keyboard-response",84,1795987,"0.0-13.0-2.13",62877,"ListA","man","english","SW_E_M_A1",NA,NA,NA,"null",NA,NA,NA,NA,NA,NA
"11694.800000011921",NA,NA,"survey-text",85,1807683,"0.0-13.0-3.13",62877,"ListA","man","english","SW_E_M_A1",NA,NA,NA,NA,"{""Q0"":""fred is accompanying beth ""}","<img src='gifs/ChineseGender2a.gif' style='height:400px;''></img>","accompanying","is accompanying","english",NA
"null","<div style=""font-size:60px;"">+</div>",NA,"html-keyboard-response",86,1808195,"0.0-13.0-0.14",62877,"ListA","man","english","SW_E_M_A1",NA,NA,NA,"null",NA,NA,NA,NA,NA,NA
"null","<img src='gifs/MaleRace3b.gif' style='height:400px;''></img>",NA,"html-keyboard-response",87,1810205,"0.0-13.0-1.14",62877,"ListA","man","english","SW_E_M_A1",NA,NA,NA,"null",NA,NA,NA,NA,NA,NA
"null","is touching",NA,"html-keyboard-response",88,1813205,"0.0-13.0-2.14",62877,"ListA","man","english","SW_E_M_A1",NA,NA,NA,"null",NA,NA,NA,NA,NA,NA
"21502.5",NA,NA,"survey-text",89,1834709,"0.0-13.0-3.14",62877,"ListA","man","english","SW_E_M_A1",NA,NA,NA,NA,"{""Q0"":""mike is touching luke""}","<img src='gifs/MaleRace3b.gif' style='height:400px;''></img>","touching","is touching","english",NA
"null","<div style=""font-size:60px;"">+</div>",NA,"html-keyboard-response",90,1835213,"0.0-13.0-0.15",62877,"ListA","man","english","SW_E_M_A1",NA,NA,NA,"null",NA,NA,NA,NA,NA,NA
"null","<img src='gifs/BlackGender1b.gif' style='height:400px;''></img>",NA,"html-keyboard-response",91,1837215,"0.0-13.0-1.15",62877,"ListA","man","english","SW_E_M_A1",NA,NA,NA,"null",NA,NA,NA,NA,NA,NA
"null","is promising",NA,"html-keyboard-response",92,1840223,"0.0-13.0-2.15",62877,"ListA","man","english","SW_E_M_A1",NA,NA,NA,"null",NA,NA,NA,NA,NA,NA
"9870.799999982119",NA,NA,"survey-text",93,1850095,"0.0-13.0-3.15",62877,"ListA","man","english","SW_E_M_A1",NA,NA,NA,NA,"{""Q0"":""luke is promising ruth""}","<img src='gifs/BlackGender1b.gif' style='height:400px;''></img>","promising","is promising","english",NA
"null","<div style=""font-size:60px;"">+</div>",NA,"html-keyboard-response",94,1850609,"0.0-13.0-0.16",62877,"ListA","man","english","SW_E_M_A1",NA,NA,NA,"null",NA,NA,NA,NA,NA,NA
"null","<img src='gifs/MaleRace1b.gif' style='height:400px;''></img>",NA,"html-keyboard-response",95,1852612,"0.0-13.0-1.16",62877,"ListA","man","english","SW_E_M_A1",NA,NA,NA,"null",NA,NA,NA,NA,NA,NA
"null","is accompanying",NA,"html-keyboard-response",96,1855621,"0.0-13.0-2.16",62877,"ListA","man","english","SW_E_M_A1",NA,NA,NA,"null",NA,NA,NA,NA,NA,NA
"9324.90000000596",NA,NA,"survey-text",97,1864948,"0.0-13.0-3.16",62877,"ListA","man","english","SW_E_M_A1",NA,NA,NA,NA,"{""Q0"":""fred is accompanying jane""}","<img src='gifs/MaleRace1b.gif' style='height:400px;''></img>","accompanying","is accompanying","english",NA
"null","<div style=""font-size:60px;"">+</div>",NA,"html-keyboard-response",98,1865461,"0.0-13.0-0.17",62877,"ListA","man","english","SW_E_M_A1",NA,NA,NA,"null",NA,NA,NA,NA,NA,NA
"null","<img src='gifs/ChineseGender3b.gif' style='height:400px;''></img>",NA,"html-keyboard-response",99,1867463,"0.0-13.0-1.17",62877,"ListA","man","english","SW_E_M_A1",NA,NA,NA,"null",NA,NA,NA,NA,NA,NA
"null","is facing",NA,"html-keyboard-response",100,1870463,"0.0-13.0-2.17",62877,"ListA","man","english","SW_E_M_A1",NA,NA,NA,"null",NA,NA,NA,NA,NA,NA
"7545",NA,NA,"survey-text",101,1878010,"0.0-13.0-3.17",62877,"ListA","man","english","SW_E_M_A1",NA,NA,NA,NA,"{""Q0"":""mike is facing beth ""}","<img src='gifs/ChineseGender3b.gif' style='height:400px;''></img>","facing","is facing","english",NA
"4628.5","<img src='img/portrait_matrix_listA.jpg' style='width:900px;height:500px;''></img><p>If you have memorised all the portraits and names and are ready to start, press Continue.</p><p><strong>Please note: Your memory of these faces will be tested 5 times during this experiment.</strong></p>",0,"html-button-response",102,1882639,"0.0-14.0-0.0",62877,"ListA","man","english","SW_E_M_A1",NA,NA,NA,NA,NA,NA,NA,NA,NA,NA
"18773.20000001788","<img src=""portrait/BM2.jpg""style=""height:400px;""></img>",5,"html-button-response",103,1902414,"0.0-14.0-1.0",62877,"ListA","man","english","SW_E_M_A1",NA,"true",5,NA,NA,NA,NA,NA,NA,NA
"null","CORRECT",NA,"html-keyboard-response",104,1903929,"0.0-14.0-2.0-0.0",62877,"ListA","man","english","SW_E_M_A1",NA,NA,NA,"null",NA,NA,NA,NA,NA,NA
"21515.70000001788","<img src=""portrait/BW1.jpg""style=""height:400px;""></img>",0,"html-button-response",105,1925446,"0.0-14.0-4.0",62877,"ListA","man","english","SW_E_M_A1",NA,"true",0,NA,NA,NA,NA,NA,NA,NA
"null","CORRECT",NA,"html-keyboard-response",106,1926948,"0.0-14.0-5.0-0.0",62877,"ListA","man","english","SW_E_M_A1",NA,NA,NA,"null",NA,NA,NA,NA,NA,NA
"2937.0999999940395","<img src=""portrait/WM2.jpg""style=""height:400px;""></img>",7,"html-button-response",107,1929886,"0.0-14.0-7.0",62877,"ListA","man","english","SW_E_M_A1",NA,"true",7,NA,NA,NA,NA,NA,NA,NA
"null","CORRECT",NA,"html-keyboard-response",108,1931392,"0.0-14.0-8.0-0.0",62877,"ListA","man","english","SW_E_M_A1",NA,NA,NA,"null",NA,NA,NA,NA,NA,NA
"3324.899999976158","<img src=""portrait/WW2.jpg""style=""height:400px;""></img>",3,"html-button-response",109,1934718,"0.0-14.0-10.0",62877,"ListA","man","english","SW_E_M_A1",NA,"true",3,NA,NA,NA,NA,NA,NA,NA
"null","CORRECT",NA,"html-keyboard-response",110,1936243,"0.0-14.0-11.0-0.0",62877,"ListA","man","english","SW_E_M_A1",NA,NA,NA,"null",NA,NA,NA,NA,NA,NA
"4195.399999976158","<img src=""portrait/WM1.jpg""style=""height:400px;""></img>",6,"html-button-response",111,1940439,"0.0-14.0-13.0",62877,"ListA","man","english","SW_E_M_A1",NA,"true",6,NA,NA,NA,NA,NA,NA,NA
"null","CORRECT",NA,"html-keyboard-response",112,1941940,"0.0-14.0-14.0-0.0",62877,"ListA","man","english","SW_E_M_A1",NA,NA,NA,"null",NA,NA,NA,NA,NA,NA
"8841.699999988079","<img src=""portrait/WW1.jpg""style=""height:400px;""></img>",1,"html-button-response",113,1950783,"0.0-14.0-16.0",62877,"ListA","man","english","SW_E_M_A1",NA,"true",1,NA,NA,NA,NA,NA,NA,NA
"null","CORRECT",NA,"html-keyboard-response",114,1952293,"0.0-14.0-17.0-0.0",62877,"ListA","man","english","SW_E_M_A1",NA,NA,NA,"null",NA,NA,NA,NA,NA,NA
"4632.0999999940395","<img src=""portrait/BM1.jpg""style=""height:400px;""></img>",4,"html-button-response",115,1956926,"0.0-14.0-19.0",62877,"ListA","man","english","SW_E_M_A1",NA,"true",4,NA,NA,NA,NA,NA,NA,NA
"null","CORRECT",NA,"html-keyboard-response",116,1958428,"0.0-14.0-20.0-0.0",62877,"ListA","man","english","SW_E_M_A1",NA,NA,NA,"null",NA,NA,NA,NA,NA,NA
"9657.799999982119","<img src=""portrait/BW2.jpg""style=""height:400px;""></img>",2,"html-button-response",117,1968087,"0.0-14.0-22.0",62877,"ListA","man","english","SW_E_M_A1",NA,"true",2,NA,NA,NA,NA,NA,NA,NA
"null","CORRECT",NA,"html-keyboard-response",118,1969600,"0.0-14.0-23.0-0.0",62877,"ListA","man","english","SW_E_M_A1",NA,NA,NA,"null",NA,NA,NA,NA,NA,NA
"15253.90000000596","<p>You got 8 out of 8 right first time. Press Continue.</p>",0,"html-button-response",119,1984854,"0.0-14.0-25.0",62877,"ListA","man","english","SW_E_M_A1",NA,NA,NA,NA,NA,NA,NA,NA,NA,NA
"null","<div style=""font-size:60px;"">+</div>",NA,"html-keyboard-response",120,1986356,"0.0-15.0-0.0",62877,"ListA","man","english","SW_E_M_A1",NA,NA,NA,"null",NA,NA,NA,NA,NA,NA
"null","<img src='gifs/ChineseGender4a.gif' style='height:400px;''></img>",NA,"html-keyboard-response",121,1988357,"0.0-15.0-1.0",62877,"ListA","man","english","SW_E_M_A1",NA,NA,NA,"null",NA,NA,NA,NA,NA,NA
"null","is praising",NA,"html-keyboard-response",122,1991358,"0.0-15.0-2.0",62877,"ListA","man","english","SW_E_M_A1",NA,NA,NA,"null",NA,NA,NA,NA,NA,NA
"23949.5",NA,NA,"survey-text",123,2015309,"0.0-15.0-3.0",62877,"ListA","man","english","SW_E_M_A1",NA,NA,NA,NA,"{""Q0"":""kate is praising ruth""}","<img src='gifs/ChineseGender4a.gif' style='height:400px;''></img>","praising","is praising","english",NA
"null","<div style=""font-size:60px;"">+</div>",NA,"html-keyboard-response",124,2015816,"0.0-15.0-0.1",62877,"ListA","man","english","SW_E_M_A1",NA,NA,NA,"null",NA,NA,NA,NA,NA,NA
"null","<img src='gifs/FemaleRace2a.gif' style='height:400px;''></img>",NA,"html-keyboard-response",125,2017818,"0.0-15.0-1.1",62877,"ListA","man","english","SW_E_M_A1",NA,NA,NA,"null",NA,NA,NA,NA,NA,NA
"null","is facing",NA,"html-keyboard-response",126,2020828,"0.0-15.0-2.1",62877,"ListA","man","english","SW_E_M_A1",NA,NA,NA,"null",NA,NA,NA,NA,NA,NA
"9888.09999999404",NA,NA,"survey-text",127,2030721,"0.0-15.0-3.1",62877,"ListA","man","english","SW_E_M_A1",NA,NA,NA,NA,"{""Q0"":""kate is facing jane""}","<img src='gifs/FemaleRace2a.gif' style='height:400px;''></img>","facing","is facing","english",NA
"null","<div style=""font-size:60px;"">+</div>",NA,"html-keyboard-response",128,2031236,"0.0-15.0-0.2",62877,"ListA","man","english","SW_E_M_A1",NA,NA,NA,"null",NA,NA,NA,NA,NA,NA
"null","<img src='gifs/BlackGender3a.gif' style='height:400px;''></img>",NA,"html-keyboard-response",129,2033238,"0.0-15.0-1.2",62877,"ListA","man","english","SW_E_M_A1",NA,NA,NA,"null",NA,NA,NA,NA,NA,NA
"null","is approaching",NA,"html-keyboard-response",130,2036254,"0.0-15.0-2.2",62877,"ListA","man","english","SW_E_M_A1",NA,NA,NA,"null",NA,NA,NA,NA,NA,NA
"5665.899999976158",NA,NA,"survey-text",131,2041922,"0.0-15.0-3.2",62877,"ListA","man","english","SW_E_M_A1",NA,NA,NA,NA,"{""Q0"":""jane is approaching""}","<img src='gifs/BlackGender3a.gif' style='height:400px;''></img>","approaching","is approaching","english",NA
"null","<div style=""font-size:60px;"">+</div>",NA,"html-keyboard-response",132,2042432,"0.0-15.0-0.3",62877,"ListA","man","english","SW_E_M_A1",NA,NA,NA,"null",NA,NA,NA,NA,NA,NA
"null","<img src='gifs/MaleRace2b.gif' style='height:400px;''></img>",NA,"html-keyboard-response",133,2044434,"0.0-15.0-1.3",62877,"ListA","man","english","SW_E_M_A1",NA,NA,NA,"null",NA,NA,NA,NA,NA,NA
"null","is introducing",NA,"html-keyboard-response",134,2047436,"0.0-15.0-2.3",62877,"ListA","man","english","SW_E_M_A1",NA,NA,NA,"null",NA,NA,NA,NA,NA,NA
"33766.70000001788",NA,NA,"survey-text",135,2081204,"0.0-15.0-3.3",62877,"ListA","man","english","SW_E_M_A1",NA,NA,NA,NA,"{""Q0"":""fred is introducing dave""}","<img src='gifs/MaleRace2b.gif' style='height:400px;''></img>","introducing","is introducing","english",NA
"null","<div style=""font-size:60px;"">+</div>",NA,"html-keyboard-response",136,2081714,"0.0-15.0-0.4",62877,"ListA","man","english","SW_E_M_A1",NA,NA,NA,"null",NA,NA,NA,NA,NA,NA
"null","<img src='gifs/ChineseGender4b.gif' style='height:400px;''></img>",NA,"html-keyboard-response",137,2083717,"0.0-15.0-1.4",62877,"ListA","man","english","SW_E_M_A1",NA,NA,NA,"null",NA,NA,NA,NA,NA,NA
"null","is following",NA,"html-keyboard-response",138,2086720,"0.0-15.0-2.4",62877,"ListA","man","english","SW_E_M_A1",NA,NA,NA,"null",NA,NA,NA,NA,NA,NA
"11201.700000017881",NA,NA,"survey-text",139,2097923,"0.0-15.0-3.4",62877,"ListA","man","english","SW_E_M_A1",NA,NA,NA,NA,"{""Q0"":""kate mike""}","<img src='gifs/ChineseGender4b.gif' style='height:400px;''></img>","following","is following","english",NA
"null","<div style=""font-size:60px;"">+</div>",NA,"html-keyboard-response",140,2098438,"0.0-15.0-0.5",62877,"ListA","man","english","SW_E_M_A1",NA,NA,NA,"null",NA,NA,NA,NA,NA,NA
"null","<img src='gifs/FemaleRace3b.gif' style='height:400px;''></img>",NA,"html-keyboard-response",141,2100449,"0.0-15.0-1.5",62877,"ListA","man","english","SW_E_M_A1",NA,NA,NA,"null",NA,NA,NA,NA,NA,NA
"null","is facing",NA,"html-keyboard-response",142,2103458,"0.0-15.0-2.5",62877,"ListA","man","english","SW_E_M_A1",NA,NA,NA,"null",NA,NA,NA,NA,NA,NA
"12110.40000000596",NA,NA,"survey-text",143,2115572,"0.0-15.0-3.5",62877,"ListA","man","english","SW_E_M_A1",NA,NA,NA,NA,"{""Q0"":""ruth is facing beth""}","<img src='gifs/FemaleRace3b.gif' style='height:400px;''></img>","facing","is facing","english",NA
"null","<div style=""font-size:60px;"">+</div>",NA,"html-keyboard-response",144,2116080,"0.0-15.0-0.6",62877,"ListA","man","english","SW_E_M_A1",NA,NA,NA,"null",NA,NA,NA,NA,NA,NA
"null","<img src='gifs/BlackGender3b.gif' style='height:400px;''></img>",NA,"html-keyboard-response",145,2118084,"0.0-15.0-1.6",62877,"ListA","man","english","SW_E_M_A1",NA,NA,NA,"null",NA,NA,NA,NA,NA,NA
"null","is contacting",NA,"html-keyboard-response",146,2121099,"0.0-15.0-2.6",62877,"ListA","man","english","SW_E_M_A1",NA,NA,NA,"null",NA,NA,NA,NA,NA,NA
"11018.09999999404",NA,NA,"survey-text",147,2132121,"0.0-15.0-3.6",62877,"ListA","man","english","SW_E_M_A1",NA,NA,NA,NA,"{""Q0"":""jane is contacting luke""}","<img src='gifs/BlackGender3b.gif' style='height:400px;''></img>","contacting","is contacting","english",NA
"null","<div style=""font-size:60px;"">+</div>",NA,"html-keyboard-response",148,2132627,"0.0-15.0-0.7",62877,"ListA","man","english","SW_E_M_A1",NA,NA,NA,"null",NA,NA,NA,NA,NA,NA
"null","<img src='gifs/ChineseGender3b.gif' style='height:400px;''></img>",NA,"html-keyboard-response",149,2134634,"0.0-15.0-1.7",62877,"ListA","man","english","SW_E_M_A1",NA,NA,NA,"null",NA,NA,NA,NA,NA,NA
"null","is looking at",NA,"html-keyboard-response",150,2137647,"0.0-15.0-2.7",62877,"ListA","man","english","SW_E_M_A1",NA,NA,NA,"null",NA,NA,NA,NA,NA,NA
"10872.40000000596",NA,NA,"survey-text",151,2148521,"0.0-15.0-3.7",62877,"ListA","man","english","SW_E_M_A1",NA,NA,NA,NA,"{""Q0"":""mikeis looking at ruth""}","<img src='gifs/ChineseGender3b.gif' style='height:400px;''></img>","looking at","is looking at","english",NA
"null","<div style=""font-size:60px;"">+</div>",NA,"html-keyboard-response",152,2149027,"0.0-15.0-0.8",62877,"ListA","man","english","SW_E_M_A1",NA,NA,NA,"null",NA,NA,NA,NA,NA,NA
"null","<img src='gifs/BlackGender1a.gif' style='height:400px;''></img>",NA,"html-keyboard-response",153,2151036,"0.0-15.0-1.8",62877,"ListA","man","english","SW_E_M_A1",NA,NA,NA,"null",NA,NA,NA,NA,NA,NA
"null","is approaching",NA,"html-keyboard-response",154,2154038,"0.0-15.0-2.8",62877,"ListA","man","english","SW_E_M_A1",NA,NA,NA,"null",NA,NA,NA,NA,NA,NA
"3949",NA,NA,"survey-text",155,2157989,"0.0-15.0-3.8",62877,"ListA","man","english","SW_E_M_A1",NA,NA,NA,NA,"{""Q0"":""is approaching ""}","<img src='gifs/BlackGender1a.gif' style='height:400px;''></img>","approaching","is approaching","english",NA
"null","<div style=""font-size:60px;"">+</div>",NA,"html-keyboard-response",156,2158500,"0.0-15.0-0.9",62877,"ListA","man","english","SW_E_M_A1",NA,NA,NA,"null",NA,NA,NA,NA,NA,NA
"null","<img src='gifs/FemaleRace1a.gif' style='height:400px;''></img>",NA,"html-keyboard-response",157,2160502,"0.0-15.0-1.9",62877,"ListA","man","english","SW_E_M_A1",NA,NA,NA,"null",NA,NA,NA,NA,NA,NA
"null","is introducing",NA,"html-keyboard-response",158,2163503,"0.0-15.0-2.9",62877,"ListA","man","english","SW_E_M_A1",NA,NA,NA,"null",NA,NA,NA,NA,NA,NA
"6882.4000000059605",NA,NA,"survey-text",159,2170391,"0.0-15.0-3.9",62877,"ListA","man","english","SW_E_M_A1",NA,NA,NA,NA,"{""Q0"":""kate is introducing ruth""}","<img src='gifs/FemaleRace1a.gif' style='height:400px;''></img>","introducing","is introducing","english",NA
"null","<div style=""font-size:60px;"">+</div>",NA,"html-keyboard-response",160,2170901,"0.0-15.0-0.10",62877,"ListA","man","english","SW_E_M_A1",NA,NA,NA,"null",NA,NA,NA,NA,NA,NA
"null","<img src='gifs/MaleRace4a.gif' style='height:400px;''></img>",NA,"html-keyboard-response",161,2172908,"0.0-15.0-1.10",62877,"ListA","man","english","SW_E_M_A1",NA,NA,NA,"null",NA,NA,NA,NA,NA,NA
"null","is touching",NA,"html-keyboard-response",162,2175914,"0.0-15.0-2.10",62877,"ListA","man","english","SW_E_M_A1",NA,NA,NA,"null",NA,NA,NA,NA,NA,NA
"8476.199999988079",NA,NA,"survey-text",163,2184392,"0.0-15.0-3.10",62877,"ListA","man","english","SW_E_M_A1",NA,NA,NA,NA,"{""Q0"":""dave is touching mike""}","<img src='gifs/MaleRace4a.gif' style='height:400px;''></img>","touching","is touching","english",NA
"null","<div style=""font-size:60px;"">+</div>",NA,"html-keyboard-response",164,2184893,"0.0-15.0-0.11",62877,"ListA","man","english","SW_E_M_A1",NA,NA,NA,"null",NA,NA,NA,NA,NA,NA
"null","<img src='gifs/ChineseGender3a.gif' style='height:400px;''></img>",NA,"html-keyboard-response",165,2186896,"0.0-15.0-1.11",62877,"ListA","man","english","SW_E_M_A1",NA,NA,NA,"null",NA,NA,NA,NA,NA,NA
"null","is approaching",NA,"html-keyboard-response",166,2189898,"0.0-15.0-2.11",62877,"ListA","man","english","SW_E_M_A1",NA,NA,NA,"null",NA,NA,NA,NA,NA,NA
"7701.5999999940395",NA,NA,"survey-text",167,2197601,"0.0-15.0-3.11",62877,"ListA","man","english","SW_E_M_A1",NA,NA,NA,NA,"{""Q0"":""mike is approaching beth""}","<img src='gifs/ChineseGender3a.gif' style='height:400px;''></img>","approaching","is approaching","english",NA
"null","<div style=""font-size:60px;"">+</div>",NA,"html-keyboard-response",168,2198108,"0.0-15.0-0.12",62877,"ListA","man","english","SW_E_M_A1",NA,NA,NA,"null",NA,NA,NA,NA,NA,NA
"null","<img src='gifs/FemaleRace4b.gif' style='height:400px;''></img>",NA,"html-keyboard-response",169,2200109,"0.0-15.0-1.12",62877,"ListA","man","english","SW_E_M_A1",NA,NA,NA,"null",NA,NA,NA,NA,NA,NA
"null","is employing",NA,"html-keyboard-response",170,2203111,"0.0-15.0-2.12",62877,"ListA","man","english","SW_E_M_A1",NA,NA,NA,"null",NA,NA,NA,NA,NA,NA
"5799",NA,NA,"survey-text",171,2208912,"0.0-15.0-3.12",62877,"ListA","man","english","SW_E_M_A1",NA,NA,NA,NA,"{""Q0"":""beth is employing jane""}","<img src='gifs/FemaleRace4b.gif' style='height:400px;''></img>","employing","is employing","english",NA
"null","<div style=""font-size:60px;"">+</div>",NA,"html-keyboard-response",172,2209417,"0.0-15.0-0.13",62877,"ListA","man","english","SW_E_M_A1",NA,NA,NA,"null",NA,NA,NA,NA,NA,NA
"null","<img src='gifs/MaleRace2b.gif' style='height:400px;''></img>",NA,"html-keyboard-response",173,2211418,"0.0-15.0-1.13",62877,"ListA","man","english","SW_E_M_A1",NA,NA,NA,"null",NA,NA,NA,NA,NA,NA
"null","is introducing",NA,"html-keyboard-response",174,2214420,"0.0-15.0-2.13",62877,"ListA","man","english","SW_E_M_A1",NA,NA,NA,"null",NA,NA,NA,NA,NA,NA
"15292.09999999404",NA,NA,"survey-text",175,2229713,"0.0-15.0-3.13",62877,"ListA","man","english","SW_E_M_A1",NA,NA,NA,NA,"{""Q0"":""fred is introducing dave""}","<img src='gifs/MaleRace2b.gif' style='height:400px;''></img>","introducing","is introducing","english",NA
"null","<div style=""font-size:60px;"">+</div>",NA,"html-keyboard-response",176,2230224,"0.0-15.0-0.14",62877,"ListA","man","english","SW_E_M_A1",NA,NA,NA,"null",NA,NA,NA,NA,NA,NA
"null","<img src='gifs/BlackGender4b.gif' style='height:400px;''></img>",NA,"html-keyboard-response",177,2232228,"0.0-15.0-1.14",62877,"ListA","man","english","SW_E_M_A1",NA,NA,NA,"null",NA,NA,NA,NA,NA,NA
"null","is employing",NA,"html-keyboard-response",178,2235238,"0.0-15.0-2.14",62877,"ListA","man","english","SW_E_M_A1",NA,NA,NA,"null",NA,NA,NA,NA,NA,NA
"5349.9000000059605",NA,NA,"survey-text",179,2240590,"0.0-15.0-3.14",62877,"ListA","man","english","SW_E_M_A1",NA,NA,NA,NA,"{""Q0"":""jane is employing dave""}","<img src='gifs/BlackGender4b.gif' style='height:400px;''></img>","employing","is employing","english",NA
"null","<div style=""font-size:60px;"">+</div>",NA,"html-keyboard-response",180,2241100,"0.0-15.0-0.15",62877,"ListA","man","english","SW_E_M_A1",NA,NA,NA,"null",NA,NA,NA,NA,NA,NA
"null","<img src='gifs/ChineseGender2a.gif' style='height:400px;''></img>",NA,"html-keyboard-response",181,2243103,"0.0-15.0-1.15",62877,"ListA","man","english","SW_E_M_A1",NA,NA,NA,"null",NA,NA,NA,NA,NA,NA
"null","is joining",NA,"html-keyboard-response",182,2246104,"0.0-15.0-2.15",62877,"ListA","man","english","SW_E_M_A1",NA,NA,NA,"null",NA,NA,NA,NA,NA,NA
"8907.600000023842",NA,NA,"survey-text",183,2255016,"0.0-15.0-3.15",62877,"ListA","man","english","SW_E_M_A1",NA,NA,NA,NA,"{""Q0"":""fred is joining beth""}","<img src='gifs/ChineseGender2a.gif' style='height:400px;''></img>","join","is joining","english",NA
"null","<div style=""font-size:60px;"">+</div>",NA,"html-keyboard-response",184,2255524,"0.0-15.0-0.16",62877,"ListA","man","english","SW_E_M_A1",NA,NA,NA,"null",NA,NA,NA,NA,NA,NA
"null","<img src='gifs/ChineseGender3a.gif' style='height:400px;''></img>",NA,"html-keyboard-response",185,2257526,"0.0-15.0-1.16",62877,"ListA","man","english","SW_E_M_A1",NA,NA,NA,"null",NA,NA,NA,NA,NA,NA
"null","is joining",NA,"html-keyboard-response",186,2260527,"0.0-15.0-2.16",62877,"ListA","man","english","SW_E_M_A1",NA,NA,NA,"null",NA,NA,NA,NA,NA,NA
"8605",NA,NA,"survey-text",187,2269135,"0.0-15.0-3.16",62877,"ListA","man","english","SW_E_M_A1",NA,NA,NA,NA,"{""Q0"":""beth is joining mike""}","<img src='gifs/ChineseGender3a.gif' style='height:400px;''></img>","join","is joining","english",NA
"null","<div style=""font-size:60px;"">+</div>",NA,"html-keyboard-response",188,2269644,"0.0-15.0-0.17",62877,"ListA","man","english","SW_E_M_A1",NA,NA,NA,"null",NA,NA,NA,NA,NA,NA
"null","<img src='gifs/MaleRace3a.gif' style='height:400px;''></img>",NA,"html-keyboard-response",189,2271655,"0.0-15.0-1.17",62877,"ListA","man","english","SW_E_M_A1",NA,NA,NA,"null",NA,NA,NA,NA,NA,NA
"null","is accompanying",NA,"html-keyboard-response",190,2274656,"0.0-15.0-2.17",62877,"ListA","man","english","SW_E_M_A1",NA,NA,NA,"null",NA,NA,NA,NA,NA,NA
"7270.399999976158",NA,NA,"survey-text",191,2281928,"0.0-15.0-3.17",62877,"ListA","man","english","SW_E_M_A1",NA,NA,NA,NA,"{""Q0"":""mike is joining luke ""}","<img src='gifs/MaleRace3a.gif' style='height:400px;''></img>","accompanying","is accompanying","english",NA
"17461.40000000596","<img src='img/portrait_matrix_listA.jpg' style='width:900px;height:500px;''></img><p>If you have memorised all the portraits and names and are ready to start, press Continue.</p><p><strong>Please note: Your memory of these faces will be tested 5 times during this experiment.</strong></p>",0,"html-button-response",192,2299390,"0.0-16.0-0.0",62877,"ListA","man","english","SW_E_M_A1",NA,NA,NA,NA,NA,NA,NA,NA,NA,NA
"6775","<img src=""portrait/WM2.jpg""style=""height:400px;""></img>",7,"html-button-response",193,2307166,"0.0-16.0-1.0",62877,"ListA","man","english","SW_E_M_A1",NA,"true",7,NA,NA,NA,NA,NA,NA,NA
"null","CORRECT",NA,"html-keyboard-response",194,2308682,"0.0-16.0-2.0-0.0",62877,"ListA","man","english","SW_E_M_A1",NA,NA,NA,"null",NA,NA,NA,NA,NA,NA
"3420.100000023842","<img src=""portrait/BM1.jpg""style=""height:400px;""></img>",4,"html-button-response",195,2312103,"0.0-16.0-4.0",62877,"ListA","man","english","SW_E_M_A1",NA,"true",4,NA,NA,NA,NA,NA,NA,NA
"null","CORRECT",NA,"html-keyboard-response",196,2313624,"0.0-16.0-5.0-0.0",62877,"ListA","man","english","SW_E_M_A1",NA,NA,NA,"null",NA,NA,NA,NA,NA,NA
"3021.199999988079","<img src=""portrait/BW1.jpg""style=""height:400px;""></img>",0,"html-button-response",197,2316646,"0.0-16.0-7.0",62877,"ListA","man","english","SW_E_M_A1",NA,"true",0,NA,NA,NA,NA,NA,NA,NA
"null","CORRECT",NA,"html-keyboard-response",198,2318148,"0.0-16.0-8.0-0.0",62877,"ListA","man","english","SW_E_M_A1",NA,NA,NA,"null",NA,NA,NA,NA,NA,NA
"2048.4000000059605","<img src=""portrait/WW1.jpg""style=""height:400px;""></img>",1,"html-button-response",199,2320198,"0.0-16.0-10.0",62877,"ListA","man","english","SW_E_M_A1",NA,"true",1,NA,NA,NA,NA,NA,NA,NA
"null","CORRECT",NA,"html-keyboard-response",200,2321701,"0.0-16.0-11.0-0.0",62877,"ListA","man","english","SW_E_M_A1",NA,NA,NA,"null",NA,NA,NA,NA,NA,NA
"2727.9000000059605","<img src=""portrait/WM1.jpg""style=""height:400px;""></img>",6,"html-button-response",201,2324430,"0.0-16.0-13.0",62877,"ListA","man","english","SW_E_M_A1",NA,"true",6,NA,NA,NA,NA,NA,NA,NA
"null","CORRECT",NA,"html-keyboard-response",202,2325945,"0.0-16.0-14.0-0.0",62877,"ListA","man","english","SW_E_M_A1",NA,NA,NA,"null",NA,NA,NA,NA,NA,NA
"4163.300000011921","<img src=""portrait/BM2.jpg""style=""height:400px;""></img>",5,"html-button-response",203,2330110,"0.0-16.0-16.0",62877,"ListA","man","english","SW_E_M_A1",NA,"true",5,NA,NA,NA,NA,NA,NA,NA
"null","CORRECT",NA,"html-keyboard-response",204,2331618,"0.0-16.0-17.0-0.0",62877,"ListA","man","english","SW_E_M_A1",NA,NA,NA,"null",NA,NA,NA,NA,NA,NA
"3097.5999999940395","<img src=""portrait/WW2.jpg""style=""height:400px;""></img>",3,"html-button-response",205,2334718,"0.0-16.0-19.0",62877,"ListA","man","english","SW_E_M_A1",NA,"true",3,NA,NA,NA,NA,NA,NA,NA
"null","CORRECT",NA,"html-keyboard-response",206,2336233,"0.0-16.0-20.0-0.0",62877,"ListA","man","english","SW_E_M_A1",NA,NA,NA,"null",NA,NA,NA,NA,NA,NA
"4619.9000000059605","<img src=""portrait/BW2.jpg""style=""height:400px;""></img>",2,"html-button-response",207,2340854,"0.0-16.0-22.0",62877,"ListA","man","english","SW_E_M_A1",NA,"true",2,NA,NA,NA,NA,NA,NA,NA
"null","CORRECT",NA,"html-keyboard-response",208,2342357,"0.0-16.0-23.0-0.0",62877,"ListA","man","english","SW_E_M_A1",NA,NA,NA,"null",NA,NA,NA,NA,NA,NA
"1576.4000000059605","<p>You got 8 out of 8 right first time. Press Continue.</p>",0,"html-button-response",209,2343934,"0.0-16.0-25.0",62877,"ListA","man","english","SW_E_M_A1",NA,NA,NA,NA,NA,NA,NA,NA,NA,NA
"null","<div style=""font-size:60px;"">+</div>",NA,"html-keyboard-response",210,2345462,"0.0-17.0-0.0",62877,"ListA","man","english","SW_E_M_A1",NA,NA,NA,"null",NA,NA,NA,NA,NA,NA
"null","<img src='gifs/MaleRace2a.gif' style='height:400px;''></img>",NA,"html-keyboard-response",211,2347470,"0.0-17.0-1.0",62877,"ListA","man","english","SW_E_M_A1",NA,NA,NA,"null",NA,NA,NA,NA,NA,NA
"null","is approaching",NA,"html-keyboard-response",212,2350476,"0.0-17.0-2.0",62877,"ListA","man","english","SW_E_M_A1",NA,NA,NA,"null",NA,NA,NA,NA,NA,NA
"6425.9000000059605",NA,NA,"survey-text",213,2356904,"0.0-17.0-3.0",62877,"ListA","man","english","SW_E_M_A1",NA,NA,NA,NA,"{""Q0"":""fred is approaching dave""}","<img src='gifs/MaleRace2a.gif' style='height:400px;''></img>","approaching","is approaching","english",NA
"null","<div style=""font-size:60px;"">+</div>",NA,"html-keyboard-response",214,2357420,"0.0-17.0-0.1",62877,"ListA","man","english","SW_E_M_A1",NA,NA,NA,"null",NA,NA,NA,NA,NA,NA
"null","<img src='gifs/ChineseGender1a.gif' style='height:400px;''></img>",NA,"html-keyboard-response",215,2359426,"0.0-17.0-1.1",62877,"ListA","man","english","SW_E_M_A1",NA,NA,NA,"null",NA,NA,NA,NA,NA,NA
"null","is looking at",NA,"html-keyboard-response",216,2362430,"0.0-17.0-2.1",62877,"ListA","man","english","SW_E_M_A1",NA,NA,NA,"null",NA,NA,NA,NA,NA,NA
"8367.5",NA,NA,"survey-text",217,2370799,"0.0-17.0-3.1",62877,"ListA","man","english","SW_E_M_A1",NA,NA,NA,NA,"{""Q0"":""kate is looking at fred""}","<img src='gifs/ChineseGender1a.gif' style='height:400px;''></img>","looking at","is looking at","english",NA
"null","<div style=""font-size:60px;"">+</div>",NA,"html-keyboard-response",218,2371300,"0.0-17.0-0.2",62877,"ListA","man","english","SW_E_M_A1",NA,NA,NA,"null",NA,NA,NA,NA,NA,NA
"null","<img src='gifs/BlackGender3b.gif' style='height:400px;''></img>",NA,"html-keyboard-response",219,2373302,"0.0-17.0-1.2",62877,"ListA","man","english","SW_E_M_A1",NA,NA,NA,"null",NA,NA,NA,NA,NA,NA
"null","is following",NA,"html-keyboard-response",220,2376304,"0.0-17.0-2.2",62877,"ListA","man","english","SW_E_M_A1",NA,NA,NA,"null",NA,NA,NA,NA,NA,NA
"10381.59999999404",NA,NA,"survey-text",221,2386687,"0.0-17.0-3.2",62877,"ListA","man","english","SW_E_M_A1",NA,NA,NA,NA,"{""Q0"":""jane is followingfred""}","<img src='gifs/BlackGender3b.gif' style='height:400px;''></img>","following","is following","english",NA
"null","<div style=""font-size:60px;"">+</div>",NA,"html-keyboard-response",222,2387202,"0.0-17.0-0.3",62877,"ListA","man","english","SW_E_M_A1",NA,NA,NA,"null",NA,NA,NA,NA,NA,NA
"null","<img src='gifs/FemaleRace2a.gif' style='height:400px;''></img>",NA,"html-keyboard-response",223,2389203,"0.0-17.0-1.3",62877,"ListA","man","english","SW_E_M_A1",NA,NA,NA,"null",NA,NA,NA,NA,NA,NA
"null","is promising",NA,"html-keyboard-response",224,2392204,"0.0-17.0-2.3",62877,"ListA","man","english","SW_E_M_A1",NA,NA,NA,"null",NA,NA,NA,NA,NA,NA
"5398.5",NA,NA,"survey-text",225,2397604,"0.0-17.0-3.3",62877,"ListA","man","english","SW_E_M_A1",NA,NA,NA,NA,"{""Q0"":""kate is promising jane""}","<img src='gifs/FemaleRace2a.gif' style='height:400px;''></img>","promising","is promising","english",NA
"null","<div style=""font-size:60px;"">+</div>",NA,"html-keyboard-response",226,2398109,"0.0-17.0-0.4",62877,"ListA","man","english","SW_E_M_A1",NA,NA,NA,"null",NA,NA,NA,NA,NA,NA
"null","<img src='gifs/MaleRace4b.gif' style='height:400px;''></img>",NA,"html-keyboard-response",227,2400113,"0.0-17.0-1.4",62877,"ListA","man","english","SW_E_M_A1",NA,NA,NA,"null",NA,NA,NA,NA,NA,NA
"null","is contacting",NA,"html-keyboard-response",228,2403113,"0.0-17.0-2.4",62877,"ListA","man","english","SW_E_M_A1",NA,NA,NA,"null",NA,NA,NA,NA,NA,NA
"6088.5999999940395",NA,NA,"survey-text",229,2409203,"0.0-17.0-3.4",62877,"ListA","man","english","SW_E_M_A1",NA,NA,NA,NA,"{""Q0"":""mike is contactingdave""}","<img src='gifs/MaleRace4b.gif' style='height:400px;''></img>","contacting","is contacting","english",NA
"null","<div style=""font-size:60px;"">+</div>",NA,"html-keyboard-response",230,2409706,"0.0-17.0-0.5",62877,"ListA","man","english","SW_E_M_A1",NA,NA,NA,"null",NA,NA,NA,NA,NA,NA
"null","<img src='gifs/MaleRace2a.gif' style='height:400px;''></img>",NA,"html-keyboard-response",231,2411715,"0.0-17.0-1.5",62877,"ListA","man","english","SW_E_M_A1",NA,NA,NA,"null",NA,NA,NA,NA,NA,NA
"null","is walking towards",NA,"html-keyboard-response",232,2414718,"0.0-17.0-2.5",62877,"ListA","man","english","SW_E_M_A1",NA,NA,NA,"null",NA,NA,NA,NA,NA,NA
"8181.600000023842",NA,NA,"survey-text",233,2422901,"0.0-17.0-3.5",62877,"ListA","man","english","SW_E_M_A1",NA,NA,NA,NA,"{""Q0"":""dave fred""}","<img src='gifs/MaleRace2a.gif' style='height:400px;''></img>","walking towards","is walking towards","english",NA
"null","<div style=""font-size:60px;"">+</div>",NA,"html-keyboard-response",234,2423411,"0.0-17.0-0.6",62877,"ListA","man","english","SW_E_M_A1",NA,NA,NA,"null",NA,NA,NA,NA,NA,NA
"null","<img src='gifs/FemaleRace4b.gif' style='height:400px;''></img>",NA,"html-keyboard-response",235,2425414,"0.0-17.0-1.6",62877,"ListA","man","english","SW_E_M_A1",NA,NA,NA,"null",NA,NA,NA,NA,NA,NA
"null","is contacting",NA,"html-keyboard-response",236,2428427,"0.0-17.0-2.6",62877,"ListA","man","english","SW_E_M_A1",NA,NA,NA,"null",NA,NA,NA,NA,NA,NA
"15924.5",NA,NA,"survey-text",237,2444354,"0.0-17.0-3.6",62877,"ListA","man","english","SW_E_M_A1",NA,NA,NA,NA,"{""Q0"":""jane contacting kate""}","<img src='gifs/FemaleRace4b.gif' style='height:400px;''></img>","contacting","is contacting","english",NA
"null","<div style=""font-size:60px;"">+</div>",NA,"html-keyboard-response",238,2444860,"0.0-17.0-0.7",62877,"ListA","man","english","SW_E_M_A1",NA,NA,NA,"null",NA,NA,NA,NA,NA,NA
"null","<img src='gifs/MaleRace1b.gif' style='height:400px;''></img>",NA,"html-keyboard-response",239,2446871,"0.0-17.0-1.7",62877,"ListA","man","english","SW_E_M_A1",NA,NA,NA,"null",NA,NA,NA,NA,NA,NA
"null","is convincing",NA,"html-keyboard-response",240,2449872,"0.0-17.0-2.7",62877,"ListA","man","english","SW_E_M_A1",NA,NA,NA,"null",NA,NA,NA,NA,NA,NA
"8037.5",NA,NA,"survey-text",241,2457911,"0.0-17.0-3.7",62877,"ListA","man","english","SW_E_M_A1",NA,NA,NA,NA,"{""Q0"":""fred is convincing mike""}","<img src='gifs/MaleRace1b.gif' style='height:400px;''></img>","convincing","is convincing","english",NA
"null","<div style=""font-size:60px;"">+</div>",NA,"html-keyboard-response",242,2458418,"0.0-17.0-0.8",62877,"ListA","man","english","SW_E_M_A1",NA,NA,NA,"null",NA,NA,NA,NA,NA,NA
"null","<img src='gifs/FemaleRace4a.gif' style='height:400px;''></img>",NA,"html-keyboard-response",243,2460434,"0.0-17.0-1.8",62877,"ListA","man","english","SW_E_M_A1",NA,NA,NA,"null",NA,NA,NA,NA,NA,NA
"null","is promising",NA,"html-keyboard-response",244,2463436,"0.0-17.0-2.8",62877,"ListA","man","english","SW_E_M_A1",NA,NA,NA,"null",NA,NA,NA,NA,NA,NA
"9549.299999982119",NA,NA,"survey-text",245,2472990,"0.0-17.0-3.8",62877,"ListA","man","english","SW_E_M_A1",NA,NA,NA,NA,"{""Q0"":""jane beth""}","<img src='gifs/FemaleRace4a.gif' style='height:400px;''></img>","promising","is promising","english",NA
"null","<div style=""font-size:60px;"">+</div>",NA,"html-keyboard-response",246,2473503,"0.0-17.0-0.9",62877,"ListA","man","english","SW_E_M_A1",NA,NA,NA,"null",NA,NA,NA,NA,NA,NA
"null","<img src='gifs/ChineseGender2b.gif' style='height:400px;''></img>",NA,"html-keyboard-response",247,2475515,"0.0-17.0-1.9",62877,"ListA","man","english","SW_E_M_A1",NA,NA,NA,"null",NA,NA,NA,NA,NA,NA
"null","is mentioning",NA,"html-keyboard-response",248,2478519,"0.0-17.0-2.9",62877,"ListA","man","english","SW_E_M_A1",NA,NA,NA,"null",NA,NA,NA,NA,NA,NA
"6501.4000000059605",NA,NA,"survey-text",249,2485023,"0.0-17.0-3.9",62877,"ListA","man","english","SW_E_M_A1",NA,NA,NA,NA,"{""Q0"":""fred is mentioning beth ""}","<img src='gifs/ChineseGender2b.gif' style='height:400px;''></img>","mention","is mentioning","english",NA
"null","<div style=""font-size:60px;"">+</div>",NA,"html-keyboard-response",250,2485538,"0.0-17.0-0.10",62877,"ListA","man","english","SW_E_M_A1",NA,NA,NA,"null",NA,NA,NA,NA,NA,NA
"null","<img src='gifs/BlackGender3a.gif' style='height:400px;''></img>",NA,"html-keyboard-response",251,2487547,"0.0-17.0-1.10",62877,"ListA","man","english","SW_E_M_A1",NA,NA,NA,"null",NA,NA,NA,NA,NA,NA
"null","is praising",NA,"html-keyboard-response",252,2490555,"0.0-17.0-2.10",62877,"ListA","man","english","SW_E_M_A1",NA,NA,NA,"null",NA,NA,NA,NA,NA,NA
"15788.299999982119",NA,NA,"survey-text",253,2506348,"0.0-17.0-3.10",62877,"ListA","man","english","SW_E_M_A1",NA,NA,NA,NA,"{""Q0"":""luke is praising kate""}","<img src='gifs/BlackGender3a.gif' style='height:400px;''></img>","praising","is praising","english",NA
"null","<div style=""font-size:60px;"">+</div>",NA,"html-keyboard-response",254,2506862,"0.0-17.0-0.11",62877,"ListA","man","english","SW_E_M_A1",NA,NA,NA,"null",NA,NA,NA,NA,NA,NA
"null","<img src='gifs/MaleRace3a.gif' style='height:400px;''></img>",NA,"html-keyboard-response",255,2508867,"0.0-17.0-1.11",62877,"ListA","man","english","SW_E_M_A1",NA,NA,NA,"null",NA,NA,NA,NA,NA,NA
"null","is praising",NA,"html-keyboard-response",256,2511868,"0.0-17.0-2.11",62877,"ListA","man","english","SW_E_M_A1",NA,NA,NA,"null",NA,NA,NA,NA,NA,NA
"6550.699999988079",NA,NA,"survey-text",257,2518420,"0.0-17.0-3.11",62877,"ListA","man","english","SW_E_M_A1",NA,NA,NA,NA,"{""Q0"":""luke is praising mike""}","<img src='gifs/MaleRace3a.gif' style='height:400px;''></img>","praising","is praising","english",NA
"null","<div style=""font-size:60px;"">+</div>",NA,"html-keyboard-response",258,2518923,"0.0-17.0-0.12",62877,"ListA","man","english","SW_E_M_A1",NA,NA,NA,"null",NA,NA,NA,NA,NA,NA
"null","<img src='gifs/BlackGender4a.gif' style='height:400px;''></img>",NA,"html-keyboard-response",259,2520934,"0.0-17.0-1.12",62877,"ListA","man","english","SW_E_M_A1",NA,NA,NA,"null",NA,NA,NA,NA,NA,NA
"null","is convincing",NA,"html-keyboard-response",260,2523938,"0.0-17.0-2.12",62877,"ListA","man","english","SW_E_M_A1",NA,NA,NA,"null",NA,NA,NA,NA,NA,NA
"3278.5",NA,NA,"survey-text",261,2527218,"0.0-17.0-3.12",62877,"ListA","man","english","SW_E_M_A1",NA,NA,NA,NA,"{""Q0"":""dave""}","<img src='gifs/BlackGender4a.gif' style='height:400px;''></img>","convincing","is convincing","english",NA
"null","<div style=""font-size:60px;"">+</div>",NA,"html-keyboard-response",262,2527721,"0.0-17.0-0.13",62877,"ListA","man","english","SW_E_M_A1",NA,NA,NA,"null",NA,NA,NA,NA,NA,NA
"null","<img src='gifs/FemaleRace1b.gif' style='height:400px;''></img>",NA,"html-keyboard-response",263,2529724,"0.0-17.0-1.13",62877,"ListA","man","english","SW_E_M_A1",NA,NA,NA,"null",NA,NA,NA,NA,NA,NA
"null","is mentioning",NA,"html-keyboard-response",264,2532738,"0.0-17.0-2.13",62877,"ListA","man","english","SW_E_M_A1",NA,NA,NA,"null",NA,NA,NA,NA,NA,NA
"6366.800000011921",NA,NA,"survey-text",265,2539107,"0.0-17.0-3.13",62877,"ListA","man","english","SW_E_M_A1",NA,NA,NA,NA,"{""Q0"":""ruth is mentioning kate""}","<img src='gifs/FemaleRace1b.gif' style='height:400px;''></img>","mention","is mentioning","english",NA
"null","<div style=""font-size:60px;"">+</div>",NA,"html-keyboard-response",266,2539621,"0.0-17.0-0.14",62877,"ListA","man","english","SW_E_M_A1",NA,NA,NA,"null",NA,NA,NA,NA,NA,NA
"null","<img src='gifs/MaleRace1a.gif' style='height:400px;''></img>",NA,"html-keyboard-response",267,2541625,"0.0-17.0-1.14",62877,"ListA","man","english","SW_E_M_A1",NA,NA,NA,"null",NA,NA,NA,NA,NA,NA
"null","is following",NA,"html-keyboard-response",268,2544626,"0.0-17.0-2.14",62877,"ListA","man","english","SW_E_M_A1",NA,NA,NA,"null",NA,NA,NA,NA,NA,NA
"10142.40000000596",NA,NA,"survey-text",269,2554773,"0.0-17.0-3.14",62877,"ListA","man","english","SW_E_M_A1",NA,NA,NA,NA,"{""Q0"":""luke is following fred""}","<img src='gifs/MaleRace1a.gif' style='height:400px;''></img>","following","is following","english",NA
"null","<div style=""font-size:60px;"">+</div>",NA,"html-keyboard-response",270,2555278,"0.0-17.0-0.15",62877,"ListA","man","english","SW_E_M_A1",NA,NA,NA,"null",NA,NA,NA,NA,NA,NA
"null","<img src='gifs/FemaleRace3b.gif' style='height:400px;''></img>",NA,"html-keyboard-response",271,2557283,"0.0-17.0-1.15",62877,"ListA","man","english","SW_E_M_A1",NA,NA,NA,"null",NA,NA,NA,NA,NA,NA
"null","is listening to",NA,"html-keyboard-response",272,2560300,"0.0-17.0-2.15",62877,"ListA","man","english","SW_E_M_A1",NA,NA,NA,"null",NA,NA,NA,NA,NA,NA
"41527.5",NA,NA,"survey-text",273,2601832,"0.0-17.0-3.15",62877,"ListA","man","english","SW_E_M_A1",NA,NA,NA,NA,"{""Q0"":""ruth is listening to beth""}","<img src='gifs/FemaleRace3b.gif' style='height:400px;''></img>","listening to","is listening to","english",NA
"null","<div style=""font-size:60px;"">+</div>",NA,"html-keyboard-response",274,2602337,"0.0-17.0-0.16",62877,"ListA","man","english","SW_E_M_A1",NA,NA,NA,"null",NA,NA,NA,NA,NA,NA
"null","<img src='gifs/ChineseGender4b.gif' style='height:400px;''></img>",NA,"html-keyboard-response",275,2604342,"0.0-17.0-1.16",62877,"ListA","man","english","SW_E_M_A1",NA,NA,NA,"null",NA,NA,NA,NA,NA,NA
"null","is touching",NA,"html-keyboard-response",276,2607354,"0.0-17.0-2.16",62877,"ListA","man","english","SW_E_M_A1",NA,NA,NA,"null",NA,NA,NA,NA,NA,NA
"7292.4000000059605",NA,NA,"survey-text",277,2614651,"0.0-17.0-3.16",62877,"ListA","man","english","SW_E_M_A1",NA,NA,NA,NA,"{""Q0"":""mike is touching kate""}","<img src='gifs/ChineseGender4b.gif' style='height:400px;''></img>","touching","is touching","english",NA
"null","<div style=""font-size:60px;"">+</div>",NA,"html-keyboard-response",278,2615154,"0.0-17.0-0.17",62877,"ListA","man","english","SW_E_M_A1",NA,NA,NA,"null",NA,NA,NA,NA,NA,NA
"null","<img src='gifs/BlackGender2a.gif' style='height:400px;''></img>",NA,"html-keyboard-response",279,2617156,"0.0-17.0-1.17",62877,"ListA","man","english","SW_E_M_A1",NA,NA,NA,"null",NA,NA,NA,NA,NA,NA
"null","is touching",NA,"html-keyboard-response",280,2620172,"0.0-17.0-2.17",62877,"ListA","man","english","SW_E_M_A1",NA,NA,NA,"null",NA,NA,NA,NA,NA,NA
"5231.100000023842",NA,NA,"survey-text",281,2625405,"0.0-17.0-3.17",62877,"ListA","man","english","SW_E_M_A1",NA,NA,NA,NA,"{""Q0"":""ruth is touching dave""}","<img src='gifs/BlackGender2a.gif' style='height:400px;''></img>","touching","is touching","english",NA
"12376.899999976158","<p>Thank you for completing that task.</p><p>The final part of this session is a short questionnaire.</p><p>Press Continue.</p>",0,"html-button-response",282,2637783,"0.0-18.0",62877,"ListA","man","english","SW_E_M_A1",NA,NA,NA,NA,NA,NA,NA,NA,NA,NA
"124929.59999999404",NA,NA,"survey-text",283,2763727,"0.0-19.0",62877,"ListA","man","english","SW_E_M_A1",NA,NA,NA,NA,"{""Q0"":""22 age"",""Q1"":""chinese"",""Q2"":""english"",""Q3"":""china"",""Q4"":""china"",""Q5"":""SW_E_M_A1"",""Q6"":""male""}",NA,NA,NA,NA,"demographics"
"43982.90000000596",NA,NA,"external-html",284,2807943,"0.0-20.0",62877,"ListA","man","english","SW_E_M_A1","debrief.html",NA,NA,NA,NA,NA,NA,NA,NA,NA
"25678.59999999404",NA,NA,"survey-text",285,2833623,"0.0-21.0",62877,"ListA","man","english","SW_E_M_A1",NA,NA,NA,NA,"{""ptpt_id"":""SW_E_M_A1""}",NA,NA,NA,NA,"worker_id"
