"rt","stimulus","button_pressed","trial_type","trial_index","time_elapsed","internal_node_id","subject","list","ppt_gender","ppt_language","ptptID","url","first_guess","correct","key_press","responses","image","verb","phrase","condition","test_part"
"1760.2000000029802","Welcome to the experiment. Press Continue to begin.",0,"html-button-response",0,1762,"0.0-0.0",70706,"ListB","man","chinese","SW_C_M_B3",NA,NA,NA,NA,NA,NA,NA,NA,NA,NA
"9188.60000000149",NA,NA,"external-html",1,12755,"0.0-1.0",70706,"ListB","man","chinese","SW_C_M_B3","consent.html",NA,NA,NA,NA,NA,NA,NA,NA,NA
"24047.29999999702","<p>在下一页中，您将看到8个人物肖像和他们各自的名字。</p><p>请花费几分钟的时间记住这些人物及其所对应的名字。</p><p>之后的实验中需要您对人物的名字做出回忆，</p><p>因此在实验开始前请确保您已 经完全记住这些人物及其所对应的名字。</p><p><strong>然后您将完成一个测试以检验您对人物和名字的记忆。</strong></p><p>完成此记忆测试后，您将正式进入实验。</p><p>准备好了吗？</p>",0,"html-button-response",2,36803,"0.0-2.0",70706,"ListB","man","chinese","SW_C_M_B3",NA,NA,NA,NA,NA,NA,NA,NA,NA,NA
"216736.3999999985","<img src='img/portrait_matrix_listB_chinese.jpg' style='width:900px;height:500px;''></img><p>如果您已经记住了所有的人物和名字，请点击继续。</p><p><strong>请注意：您对先前记忆的面孔将在本实验中被测试5次。</strong></p>",0,"html-button-response",3,254550,"0.0-3.0-0.0",70706,"ListB","man","chinese","SW_C_M_B3",NA,NA,NA,NA,NA,NA,NA,NA,NA,NA
"2959.39999999851","<img src=""portrait/BW1.jpg""style=""height:400px;""></img>",0,"html-button-response",4,258517,"0.0-3.0-1.0",70706,"ListB","man","chinese","SW_C_M_B3",NA,"true",0,NA,NA,NA,NA,NA,NA,NA
"null","正确",NA,"html-keyboard-response",5,260032,"0.0-3.0-2.0-0.0",70706,"ListB","man","chinese","SW_C_M_B3",NA,NA,NA,"null",NA,NA,NA,NA,NA,NA
"2825.3000000044703","<img src=""portrait/BW2.jpg""style=""height:400px;""></img>",2,"html-button-response",6,262859,"0.0-3.0-4.0",70706,"ListB","man","chinese","SW_C_M_B3",NA,"true",2,NA,NA,NA,NA,NA,NA,NA
"null","正确",NA,"html-keyboard-response",7,264369,"0.0-3.0-5.0-0.0",70706,"ListB","man","chinese","SW_C_M_B3",NA,NA,NA,"null",NA,NA,NA,NA,NA,NA
"2818.5","<img src=""portrait/BM2.jpg""style=""height:400px;""></img>",5,"html-button-response",8,267188,"0.0-3.0-7.0",70706,"ListB","man","chinese","SW_C_M_B3",NA,"true",5,NA,NA,NA,NA,NA,NA,NA
"null","正确",NA,"html-keyboard-response",9,268703,"0.0-3.0-8.0-0.0",70706,"ListB","man","chinese","SW_C_M_B3",NA,NA,NA,"null",NA,NA,NA,NA,NA,NA
"2542","<img src=""portrait/WM1.jpg""style=""height:400px;""></img>",6,"html-button-response",10,271246,"0.0-3.0-10.0",70706,"ListB","man","chinese","SW_C_M_B3",NA,"true",6,NA,NA,NA,NA,NA,NA,NA
"null","正确",NA,"html-keyboard-response",11,272758,"0.0-3.0-11.0-0.0",70706,"ListB","man","chinese","SW_C_M_B3",NA,NA,NA,"null",NA,NA,NA,NA,NA,NA
"8192.90000000596","<img src=""portrait/BM1.jpg""style=""height:400px;""></img>",4,"html-button-response",12,280951,"0.0-3.0-13.0",70706,"ListB","man","chinese","SW_C_M_B3",NA,"true",4,NA,NA,NA,NA,NA,NA,NA
"null","正确",NA,"html-keyboard-response",13,282462,"0.0-3.0-14.0-0.0",70706,"ListB","man","chinese","SW_C_M_B3",NA,NA,NA,"null",NA,NA,NA,NA,NA,NA
"3773.2000000029802","<img src=""portrait/WW1.jpg""style=""height:400px;""></img>",1,"html-button-response",14,286236,"0.0-3.0-16.0",70706,"ListB","man","chinese","SW_C_M_B3",NA,"true",1,NA,NA,NA,NA,NA,NA,NA
"null","正确",NA,"html-keyboard-response",15,287748,"0.0-3.0-17.0-0.0",70706,"ListB","man","chinese","SW_C_M_B3",NA,NA,NA,"null",NA,NA,NA,NA,NA,NA
"2453.5","<img src=""portrait/WW2.jpg""style=""height:400px;""></img>",3,"html-button-response",16,290202,"0.0-3.0-19.0",70706,"ListB","man","chinese","SW_C_M_B3",NA,"true",3,NA,NA,NA,NA,NA,NA,NA
"null","正确",NA,"html-keyboard-response",17,291710,"0.0-3.0-20.0-0.0",70706,"ListB","man","chinese","SW_C_M_B3",NA,NA,NA,"null",NA,NA,NA,NA,NA,NA
"1850.6000000014901","<img src=""portrait/WM2.jpg""style=""height:400px;""></img>",7,"html-button-response",18,293561,"0.0-3.0-22.0",70706,"ListB","man","chinese","SW_C_M_B3",NA,"true",7,NA,NA,NA,NA,NA,NA,NA
"null","正确",NA,"html-keyboard-response",19,295066,"0.0-3.0-23.0-0.0",70706,"ListB","man","chinese","SW_C_M_B3",NA,NA,NA,"null",NA,NA,NA,NA,NA,NA
"2209.2999999970198","<p>您第一次在8题里答对了 8 题。 请点击继续</p>",0,"html-button-response",20,297276,"0.0-3.0-25.0",70706,"ListB","man","chinese","SW_C_M_B3",NA,NA,NA,NA,NA,NA,NA,NA,NA,NA
"54837.60000000149","<p>此次实验您将会看到先前记忆任务里的人物照片。</p><p>人物照片消失后您将看到一个动词短语，请正确回忆人物的名字并用特定的 动词短语组成一句完整的句子。</p><p>请在指定的框内输入您的答案。在进入下一题之前请确保您填写了完整的句子。</p><p>人物照片和动词短语只会在屏幕上出现几秒钟，因此请您答题时尽量集中注意力。</p><p>以下是例子。请您在准备好后按下“继续”。</p><img src='img/chinese_speaking_example.jpg' style='width:800px;height:460px;''></img>",0,"html-button-response",21,353117,"0.0-4.0",70706,"ListB","man","chinese","SW_C_M_B3",NA,NA,NA,NA,NA,NA,NA,NA,NA,NA
"2705.3000000044703","<p>在实验开始前，将为您展示两个示例实验。</p>",0,"html-button-response",22,356828,"0.0-5.0",70706,"ListB","man","chinese","SW_C_M_B3",NA,NA,NA,NA,NA,NA,NA,NA,NA,NA
"null","<img src='img/meet.gif' style='height:400px;''></img>",NA,"html-keyboard-response",23,359833,"0.0-6.0",70706,"ListB","man","chinese","SW_C_M_B3",NA,NA,NA,"null",NA,NA,NA,NA,NA,NA
"null","<p>正在约见</p>",NA,"html-keyboard-response",24,361838,"0.0-7.0",70706,"ListB","man","chinese","SW_C_M_B3",NA,NA,NA,"null",NA,NA,NA,NA,NA,NA
"8383.19999999553","<p><b>答案：</b> 霍普正在约见露丝</p>",0,"html-button-response",25,370222,"0.0-8.0",70706,"ListB","man","chinese","SW_C_M_B3",NA,NA,NA,NA,NA,NA,NA,NA,NA,NA
"null","<img src='img/spy.gif' style='height:400px;''></img>",NA,"html-keyboard-response",26,373231,"0.0-9.0",70706,"ListB","man","chinese","SW_C_M_B3",NA,NA,NA,"null",NA,NA,NA,NA,NA,NA
"null","<p>正在监视</p>",NA,"html-keyboard-response",27,375233,"0.0-10.0",70706,"ListB","man","chinese","SW_C_M_B3",NA,NA,NA,"null",NA,NA,NA,NA,NA,NA
"11146","<p><b>答案：</b> 弗雷正在监视麦克</p>",0,"html-button-response",28,386380,"0.0-11.0",70706,"ListB","man","chinese","SW_C_M_B3",NA,NA,NA,NA,NA,NA,NA,NA,NA,NA
"9403","<p>准备好开始了吗？</p><br><p><strong>请记住，您的答案需是一句完整的句子</strong></p><p><strong>，并用给到的图片人物和动词短语作答。</strong></p><p><strong>只有正确并完整完成实验才可获得报酬。</strong></p><p><strong> 您不需要加入任何标点符号。</strong></p><br><p>请按 ‘继续’ 键开始。</p>",0,"html-button-response",29,396785,"0.0-12.0",70706,"ListB","man","chinese","SW_C_M_B3",NA,NA,NA,NA,NA,NA,NA,NA,NA,NA
"null","<div style=""font-size:60px;"">+</div>",NA,"html-keyboard-response",30,398292,"0.0-13.0-0.0",70706,"ListB","man","chinese","SW_C_M_B3",NA,NA,NA,"null",NA,NA,NA,NA,NA,NA
"null","<img src='gifs/FemaleRace2a.gif' style='height:400px;''></img>",NA,"html-keyboard-response",31,400298,"0.0-13.0-1.0",70706,"ListB","man","chinese","SW_C_M_B3",NA,NA,NA,"null",NA,NA,NA,NA,NA,NA
"null","正在答应",NA,"html-keyboard-response",32,403299,"0.0-13.0-2.0",70706,"ListB","man","chinese","SW_C_M_B3",NA,NA,NA,"null",NA,NA,NA,NA,NA,NA
"35007.60000000149",NA,NA,"survey-text",33,438316,"0.0-13.0-3.0",70706,"ListB","man","chinese","SW_C_M_B3",NA,NA,NA,NA,"{""Q0"":""霍普正在答应凯特""}","<img src='gifs/FemaleRace2a.gif' style='height:400px;''></img>","答应","正在答应","chinese",NA
"null","<div style=""font-size:60px;"">+</div>",NA,"html-keyboard-response",34,438825,"0.0-13.0-0.1",70706,"ListB","man","chinese","SW_C_M_B3",NA,NA,NA,"null",NA,NA,NA,NA,NA,NA
"null","<img src='gifs/MaleRace4a.gif' style='height:400px;''></img>",NA,"html-keyboard-response",35,440826,"0.0-13.0-1.1",70706,"ListB","man","chinese","SW_C_M_B3",NA,NA,NA,"null",NA,NA,NA,NA,NA,NA
"null","正在接近",NA,"html-keyboard-response",36,443833,"0.0-13.0-2.1",70706,"ListB","man","chinese","SW_C_M_B3",NA,NA,NA,"null",NA,NA,NA,NA,NA,NA
"14786.19999999553",NA,NA,"survey-text",37,458620,"0.0-13.0-3.1",70706,"ListB","man","chinese","SW_C_M_B3",NA,NA,NA,NA,"{""Q0"":""戴夫正在接近麦克""}","<img src='gifs/MaleRace4a.gif' style='height:400px;''></img>","接近","正在接近","chinese",NA
"null","<div style=""font-size:60px;"">+</div>",NA,"html-keyboard-response",38,459128,"0.0-13.0-0.2",70706,"ListB","man","chinese","SW_C_M_B3",NA,NA,NA,"null",NA,NA,NA,NA,NA,NA
"null","<img src='gifs/MaleRace2a.gif' style='height:400px;''></img>",NA,"html-keyboard-response",39,461134,"0.0-13.0-1.2",70706,"ListB","man","chinese","SW_C_M_B3",NA,NA,NA,"null",NA,NA,NA,NA,NA,NA
"null","正在聘用",NA,"html-keyboard-response",40,464136,"0.0-13.0-2.2",70706,"ListB","man","chinese","SW_C_M_B3",NA,NA,NA,"null",NA,NA,NA,NA,NA,NA
"13231.30000000447",NA,NA,"survey-text",41,477369,"0.0-13.0-3.2",70706,"ListB","man","chinese","SW_C_M_B3",NA,NA,NA,NA,"{""Q0"":""卢克正在聘用麦克""}","<img src='gifs/MaleRace2a.gif' style='height:400px;''></img>","聘用","正在聘用","chinese",NA
"null","<div style=""font-size:60px;"">+</div>",NA,"html-keyboard-response",42,477873,"0.0-13.0-0.3",70706,"ListB","man","chinese","SW_C_M_B3",NA,NA,NA,"null",NA,NA,NA,NA,NA,NA
"null","<img src='gifs/ChineseGender2a.gif' style='height:400px;''></img>",NA,"html-keyboard-response",43,479875,"0.0-13.0-1.3",70706,"ListB","man","chinese","SW_C_M_B3",NA,NA,NA,"null",NA,NA,NA,NA,NA,NA
"null","正在联系",NA,"html-keyboard-response",44,482876,"0.0-13.0-2.3",70706,"ListB","man","chinese","SW_C_M_B3",NA,NA,NA,"null",NA,NA,NA,NA,NA,NA
"12808.89999999851",NA,NA,"survey-text",45,495687,"0.0-13.0-3.3",70706,"ListB","man","chinese","SW_C_M_B3",NA,NA,NA,NA,"{""Q0"":""卢克正在联系露丝""}","<img src='gifs/ChineseGender2a.gif' style='height:400px;''></img>","联系","正在联系","chinese",NA
"null","<div style=""font-size:60px;"">+</div>",NA,"html-keyboard-response",46,496195,"0.0-13.0-0.4",70706,"ListB","man","chinese","SW_C_M_B3",NA,NA,NA,"null",NA,NA,NA,NA,NA,NA
"null","<img src='gifs/FemaleRace1a.gif' style='height:400px;''></img>",NA,"html-keyboard-response",47,498200,"0.0-13.0-1.4",70706,"ListB","man","chinese","SW_C_M_B3",NA,NA,NA,"null",NA,NA,NA,NA,NA,NA
"null","正在走向",NA,"html-keyboard-response",48,501203,"0.0-13.0-2.4",70706,"ListB","man","chinese","SW_C_M_B3",NA,NA,NA,"null",NA,NA,NA,NA,NA,NA
"16031.29999999702",NA,NA,"survey-text",49,517236,"0.0-13.0-3.4",70706,"ListB","man","chinese","SW_C_M_B3",NA,NA,NA,NA,"{""Q0"":""霍普正在走向贝斯""}","<img src='gifs/FemaleRace1a.gif' style='height:400px;''></img>","走向","正在走向","chinese",NA
"null","<div style=""font-size:60px;"">+</div>",NA,"html-keyboard-response",50,517738,"0.0-13.0-0.5",70706,"ListB","man","chinese","SW_C_M_B3",NA,NA,NA,"null",NA,NA,NA,NA,NA,NA
"null","<img src='gifs/ChineseGender3a.gif' style='height:400px;''></img>",NA,"html-keyboard-response",51,519740,"0.0-13.0-1.5",70706,"ListB","man","chinese","SW_C_M_B3",NA,NA,NA,"null",NA,NA,NA,NA,NA,NA
"null","正在说服",NA,"html-keyboard-response",52,522743,"0.0-13.0-2.5",70706,"ListB","man","chinese","SW_C_M_B3",NA,NA,NA,"null",NA,NA,NA,NA,NA,NA
"10125.30000000447",NA,NA,"survey-text",53,532870,"0.0-13.0-3.5",70706,"ListB","man","chinese","SW_C_M_B3",NA,NA,NA,NA,"{""Q0"":""戴夫正在说服露丝""}","<img src='gifs/ChineseGender3a.gif' style='height:400px;''></img>","说服","正在说服","chinese",NA
"null","<div style=""font-size:60px;"">+</div>",NA,"html-keyboard-response",54,533373,"0.0-13.0-0.6",70706,"ListB","man","chinese","SW_C_M_B3",NA,NA,NA,"null",NA,NA,NA,NA,NA,NA
"null","<img src='gifs/BlackGender1b.gif' style='height:400px;''></img>",NA,"html-keyboard-response",55,535378,"0.0-13.0-1.6",70706,"ListB","man","chinese","SW_C_M_B3",NA,NA,NA,"null",NA,NA,NA,NA,NA,NA
"null","正在说服",NA,"html-keyboard-response",56,538379,"0.0-13.0-2.6",70706,"ListB","man","chinese","SW_C_M_B3",NA,NA,NA,"null",NA,NA,NA,NA,NA,NA
"199708.30000000447",NA,NA,"survey-text",57,738088,"0.0-13.0-3.6",70706,"ListB","man","chinese","SW_C_M_B3",NA,NA,NA,NA,"{""Q0"":""贝斯正在接近戴夫 ""}","<img src='gifs/BlackGender1b.gif' style='height:400px;''></img>","说服","正在说服","chinese",NA
"null","<div style=""font-size:60px;"">+</div>",NA,"html-keyboard-response",58,738590,"0.0-13.0-0.7",70706,"ListB","man","chinese","SW_C_M_B3",NA,NA,NA,"null",NA,NA,NA,NA,NA,NA
"null","<img src='gifs/BlackGender2b.gif' style='height:400px;''></img>",NA,"html-keyboard-response",59,740597,"0.0-13.0-1.7",70706,"ListB","man","chinese","SW_C_M_B3",NA,NA,NA,"null",NA,NA,NA,NA,NA,NA
"null","正在提到",NA,"html-keyboard-response",60,743599,"0.0-13.0-2.7",70706,"ListB","man","chinese","SW_C_M_B3",NA,NA,NA,"null",NA,NA,NA,NA,NA,NA
"21463.10000000149",NA,NA,"survey-text",61,765064,"0.0-13.0-3.7",70706,"ListB","man","chinese","SW_C_M_B3",NA,NA,NA,NA,"{""Q0"":""贝斯正在提到麦克""}","<img src='gifs/BlackGender2b.gif' style='height:400px;''></img>","提到","正在提到","chinese",NA
"null","<div style=""font-size:60px;"">+</div>",NA,"html-keyboard-response",62,765570,"0.0-13.0-0.8",70706,"ListB","man","chinese","SW_C_M_B3",NA,NA,NA,"null",NA,NA,NA,NA,NA,NA
"null","<img src='gifs/MaleRace2b.gif' style='height:400px;''></img>",NA,"html-keyboard-response",63,767579,"0.0-13.0-1.8",70706,"ListB","man","chinese","SW_C_M_B3",NA,NA,NA,"null",NA,NA,NA,NA,NA,NA
"null","正在看着",NA,"html-keyboard-response",64,770583,"0.0-13.0-2.8",70706,"ListB","man","chinese","SW_C_M_B3",NA,NA,NA,"null",NA,NA,NA,NA,NA,NA
"8779.09999999404",NA,NA,"survey-text",65,779363,"0.0-13.0-3.8",70706,"ListB","man","chinese","SW_C_M_B3",NA,NA,NA,NA,"{""Q0"":""卢克正在看着麦克""}","<img src='gifs/MaleRace2b.gif' style='height:400px;''></img>","看着","正在看着","chinese",NA
"null","<div style=""font-size:60px;"">+</div>",NA,"html-keyboard-response",66,779867,"0.0-13.0-0.9",70706,"ListB","man","chinese","SW_C_M_B3",NA,NA,NA,"null",NA,NA,NA,NA,NA,NA
"null","<img src='gifs/FemaleRace1b.gif' style='height:400px;''></img>",NA,"html-keyboard-response",67,781873,"0.0-13.0-1.9",70706,"ListB","man","chinese","SW_C_M_B3",NA,NA,NA,"null",NA,NA,NA,NA,NA,NA
"null","正在陪伴",NA,"html-keyboard-response",68,784881,"0.0-13.0-2.9",70706,"ListB","man","chinese","SW_C_M_B3",NA,NA,NA,"null",NA,NA,NA,NA,NA,NA
"11613.90000000596",NA,NA,"survey-text",69,796496,"0.0-13.0-3.9",70706,"ListB","man","chinese","SW_C_M_B3",NA,NA,NA,NA,"{""Q0"":""霍普正在陪伴贝斯""}","<img src='gifs/FemaleRace1b.gif' style='height:400px;''></img>","陪伴","正在陪伴","chinese",NA
"null","<div style=""font-size:60px;"">+</div>",NA,"html-keyboard-response",70,796998,"0.0-13.0-0.10",70706,"ListB","man","chinese","SW_C_M_B3",NA,NA,NA,"null",NA,NA,NA,NA,NA,NA
"null","<img src='gifs/FemaleRace1a.gif' style='height:400px;''></img>",NA,"html-keyboard-response",71,799007,"0.0-13.0-1.10",70706,"ListB","man","chinese","SW_C_M_B3",NA,NA,NA,"null",NA,NA,NA,NA,NA,NA
"null","正在陪伴",NA,"html-keyboard-response",72,802009,"0.0-13.0-2.10",70706,"ListB","man","chinese","SW_C_M_B3",NA,NA,NA,"null",NA,NA,NA,NA,NA,NA
"9635.39999999851",NA,NA,"survey-text",73,811646,"0.0-13.0-3.10",70706,"ListB","man","chinese","SW_C_M_B3",NA,NA,NA,NA,"{""Q0"":""霍普正在陪伴贝斯""}","<img src='gifs/FemaleRace1a.gif' style='height:400px;''></img>","陪伴","正在陪伴","chinese",NA
"null","<div style=""font-size:60px;"">+</div>",NA,"html-keyboard-response",74,812152,"0.0-13.0-0.11",70706,"ListB","man","chinese","SW_C_M_B3",NA,NA,NA,"null",NA,NA,NA,NA,NA,NA
"null","<img src='gifs/ChineseGender2b.gif' style='height:400px;''></img>",NA,"html-keyboard-response",75,814161,"0.0-13.0-1.11",70706,"ListB","man","chinese","SW_C_M_B3",NA,NA,NA,"null",NA,NA,NA,NA,NA,NA
"null","正在表扬",NA,"html-keyboard-response",76,817166,"0.0-13.0-2.11",70706,"ListB","man","chinese","SW_C_M_B3",NA,NA,NA,"null",NA,NA,NA,NA,NA,NA
"12989.29999999702",NA,NA,"survey-text",77,830157,"0.0-13.0-3.11",70706,"ListB","man","chinese","SW_C_M_B3",NA,NA,NA,NA,"{""Q0"":""卢克正在表扬露丝""}","<img src='gifs/ChineseGender2b.gif' style='height:400px;''></img>","表扬","正在表扬","chinese",NA
"null","<div style=""font-size:60px;"">+</div>",NA,"html-keyboard-response",78,830660,"0.0-13.0-0.12",70706,"ListB","man","chinese","SW_C_M_B3",NA,NA,NA,"null",NA,NA,NA,NA,NA,NA
"null","<img src='gifs/MaleRace3b.gif' style='height:400px;''></img>",NA,"html-keyboard-response",79,832667,"0.0-13.0-1.12",70706,"ListB","man","chinese","SW_C_M_B3",NA,NA,NA,"null",NA,NA,NA,NA,NA,NA
"null","正在跟随",NA,"html-keyboard-response",80,835669,"0.0-13.0-2.12",70706,"ListB","man","chinese","SW_C_M_B3",NA,NA,NA,"null",NA,NA,NA,NA,NA,NA
"114538.10000000149",NA,NA,"survey-text",81,950208,"0.0-13.0-3.12",70706,"ListB","man","chinese","SW_C_M_B3",NA,NA,NA,NA,"{""Q0"":""戴夫正在跟随塔尔""}","<img src='gifs/MaleRace3b.gif' style='height:400px;''></img>","跟随","正在跟随","chinese",NA
"null","<div style=""font-size:60px;"">+</div>",NA,"html-keyboard-response",82,950716,"0.0-13.0-0.13",70706,"ListB","man","chinese","SW_C_M_B3",NA,NA,NA,"null",NA,NA,NA,NA,NA,NA
"null","<img src='gifs/BlackGender4a.gif' style='height:400px;''></img>",NA,"html-keyboard-response",83,952720,"0.0-13.0-1.13",70706,"ListB","man","chinese","SW_C_M_B3",NA,NA,NA,"null",NA,NA,NA,NA,NA,NA
"null","正在加入",NA,"html-keyboard-response",84,955723,"0.0-13.0-2.13",70706,"ListB","man","chinese","SW_C_M_B3",NA,NA,NA,"null",NA,NA,NA,NA,NA,NA
"15349.39999999851",NA,NA,"survey-text",85,971074,"0.0-13.0-3.13",70706,"ListB","man","chinese","SW_C_M_B3",NA,NA,NA,NA,"{""Q0"":""麦克正在加入凯特""}","<img src='gifs/BlackGender4a.gif' style='height:400px;''></img>","加入","正在加入","chinese",NA
"null","<div style=""font-size:60px;"">+</div>",NA,"html-keyboard-response",86,971576,"0.0-13.0-0.14",70706,"ListB","man","chinese","SW_C_M_B3",NA,NA,NA,"null",NA,NA,NA,NA,NA,NA
"null","<img src='gifs/BlackGender4b.gif' style='height:400px;''></img>",NA,"html-keyboard-response",87,973582,"0.0-13.0-1.14",70706,"ListB","man","chinese","SW_C_M_B3",NA,NA,NA,"null",NA,NA,NA,NA,NA,NA
"null","正在介绍",NA,"html-keyboard-response",88,976589,"0.0-13.0-2.14",70706,"ListB","man","chinese","SW_C_M_B3",NA,NA,NA,"null",NA,NA,NA,NA,NA,NA
"11971.30000000447",NA,NA,"survey-text",89,988562,"0.0-13.0-3.14",70706,"ListB","man","chinese","SW_C_M_B3",NA,NA,NA,NA,"{""Q0"":""麦克正在介绍凯特""}","<img src='gifs/BlackGender4b.gif' style='height:400px;''></img>","介绍","正在介绍","chinese",NA
"null","<div style=""font-size:60px;"">+</div>",NA,"html-keyboard-response",90,989070,"0.0-13.0-0.15",70706,"ListB","man","chinese","SW_C_M_B3",NA,NA,NA,"null",NA,NA,NA,NA,NA,NA
"null","<img src='gifs/FemaleRace2a.gif' style='height:400px;''></img>",NA,"html-keyboard-response",91,991074,"0.0-13.0-1.15",70706,"ListB","man","chinese","SW_C_M_B3",NA,NA,NA,"null",NA,NA,NA,NA,NA,NA
"null","正在跟随",NA,"html-keyboard-response",92,994080,"0.0-13.0-2.15",70706,"ListB","man","chinese","SW_C_M_B3",NA,NA,NA,"null",NA,NA,NA,NA,NA,NA
"15133.29999999702",NA,NA,"survey-text",93,1009215,"0.0-13.0-3.15",70706,"ListB","man","chinese","SW_C_M_B3",NA,NA,NA,NA,"{""Q0"":""霍普正在跟随凯特""}","<img src='gifs/FemaleRace2a.gif' style='height:400px;''></img>","跟随","正在跟随","chinese",NA
"null","<div style=""font-size:60px;"">+</div>",NA,"html-keyboard-response",94,1009719,"0.0-13.0-0.16",70706,"ListB","man","chinese","SW_C_M_B3",NA,NA,NA,"null",NA,NA,NA,NA,NA,NA
"null","<img src='gifs/FemaleRace3b.gif' style='height:400px;''></img>",NA,"html-keyboard-response",95,1011730,"0.0-13.0-1.16",70706,"ListB","man","chinese","SW_C_M_B3",NA,NA,NA,"null",NA,NA,NA,NA,NA,NA
"null","正在加入",NA,"html-keyboard-response",96,1014737,"0.0-13.0-2.16",70706,"ListB","man","chinese","SW_C_M_B3",NA,NA,NA,"null",NA,NA,NA,NA,NA,NA
"12898.40000000596",NA,NA,"survey-text",97,1027637,"0.0-13.0-3.16",70706,"ListB","man","chinese","SW_C_M_B3",NA,NA,NA,NA,"{""Q0"":""贝斯正在接近露丝""}","<img src='gifs/FemaleRace3b.gif' style='height:400px;''></img>","加入","正在加入","chinese",NA
"null","<div style=""font-size:60px;"">+</div>",NA,"html-keyboard-response",98,1028138,"0.0-13.0-0.17",70706,"ListB","man","chinese","SW_C_M_B3",NA,NA,NA,"null",NA,NA,NA,NA,NA,NA
"null","<img src='gifs/FemaleRace4a.gif' style='height:400px;''></img>",NA,"html-keyboard-response",99,1030147,"0.0-13.0-1.17",70706,"ListB","man","chinese","SW_C_M_B3",NA,NA,NA,"null",NA,NA,NA,NA,NA,NA
"null","正在接近",NA,"html-keyboard-response",100,1033152,"0.0-13.0-2.17",70706,"ListB","man","chinese","SW_C_M_B3",NA,NA,NA,"null",NA,NA,NA,NA,NA,NA
"11282.70000000298",NA,NA,"survey-text",101,1044437,"0.0-13.0-3.17",70706,"ListB","man","chinese","SW_C_M_B3",NA,NA,NA,NA,"{""Q0"":""露丝正在接近凯特""}","<img src='gifs/FemaleRace4a.gif' style='height:400px;''></img>","接近","正在接近","chinese",NA
"20039.5","<img src='img/portrait_matrix_listB_chinese.jpg' style='width:900px;height:500px;''></img><p>如果您已经记住了所有的人物和名字，请点击继续。</p><p><strong>请注意：您对先前记忆的面孔将在本实验中被测试5次。</strong></p>",0,"html-button-response",102,1064477,"0.0-14.0-0.0",70706,"ListB","man","chinese","SW_C_M_B3",NA,NA,NA,NA,NA,NA,NA,NA,NA,NA
"3294.89999999851","<img src=""portrait/BW2.jpg""style=""height:400px;""></img>",2,"html-button-response",103,1068777,"0.0-14.0-1.0",70706,"ListB","man","chinese","SW_C_M_B3",NA,"true",2,NA,NA,NA,NA,NA,NA,NA
"null","正确",NA,"html-keyboard-response",104,1070293,"0.0-14.0-2.0-0.0",70706,"ListB","man","chinese","SW_C_M_B3",NA,NA,NA,"null",NA,NA,NA,NA,NA,NA
"2075.5","<img src=""portrait/BW1.jpg""style=""height:400px;""></img>",0,"html-button-response",105,1072371,"0.0-14.0-4.0",70706,"ListB","man","chinese","SW_C_M_B3",NA,"true",0,NA,NA,NA,NA,NA,NA,NA
"null","正确",NA,"html-keyboard-response",106,1073889,"0.0-14.0-5.0-0.0",70706,"ListB","man","chinese","SW_C_M_B3",NA,NA,NA,"null",NA,NA,NA,NA,NA,NA
"2418.8000000044703","<img src=""portrait/WM1.jpg""style=""height:400px;""></img>",6,"html-button-response",107,1076308,"0.0-14.0-7.0",70706,"ListB","man","chinese","SW_C_M_B3",NA,"true",6,NA,NA,NA,NA,NA,NA,NA
"null","正确",NA,"html-keyboard-response",108,1077822,"0.0-14.0-8.0-0.0",70706,"ListB","man","chinese","SW_C_M_B3",NA,NA,NA,"null",NA,NA,NA,NA,NA,NA
"1505.6999999955297","<img src=""portrait/BM2.jpg""style=""height:400px;""></img>",5,"html-button-response",109,1079328,"0.0-14.0-10.0",70706,"ListB","man","chinese","SW_C_M_B3",NA,"true",5,NA,NA,NA,NA,NA,NA,NA
"null","正确",NA,"html-keyboard-response",110,1080833,"0.0-14.0-11.0-0.0",70706,"ListB","man","chinese","SW_C_M_B3",NA,NA,NA,"null",NA,NA,NA,NA,NA,NA
"1600.9000000059605","<img src=""portrait/WM2.jpg""style=""height:400px;""></img>",7,"html-button-response",111,1082435,"0.0-14.0-13.0",70706,"ListB","man","chinese","SW_C_M_B3",NA,"true",7,NA,NA,NA,NA,NA,NA,NA
"null","正确",NA,"html-keyboard-response",112,1083946,"0.0-14.0-14.0-0.0",70706,"ListB","man","chinese","SW_C_M_B3",NA,NA,NA,"null",NA,NA,NA,NA,NA,NA
"1402.6000000014901","<img src=""portrait/WW2.jpg""style=""height:400px;""></img>",3,"html-button-response",113,1085350,"0.0-14.0-16.0",70706,"ListB","man","chinese","SW_C_M_B3",NA,"true",3,NA,NA,NA,NA,NA,NA,NA
"null","正确",NA,"html-keyboard-response",114,1086856,"0.0-14.0-17.0-0.0",70706,"ListB","man","chinese","SW_C_M_B3",NA,NA,NA,"null",NA,NA,NA,NA,NA,NA
"3354.60000000149","<img src=""portrait/WW1.jpg""style=""height:400px;""></img>",1,"html-button-response",115,1090212,"0.0-14.0-19.0",70706,"ListB","man","chinese","SW_C_M_B3",NA,"true",1,NA,NA,NA,NA,NA,NA,NA
"null","正确",NA,"html-keyboard-response",116,1091723,"0.0-14.0-20.0-0.0",70706,"ListB","man","chinese","SW_C_M_B3",NA,NA,NA,"null",NA,NA,NA,NA,NA,NA
"1822.2999999970198","<img src=""portrait/BM1.jpg""style=""height:400px;""></img>",4,"html-button-response",117,1093547,"0.0-14.0-22.0",70706,"ListB","man","chinese","SW_C_M_B3",NA,"true",4,NA,NA,NA,NA,NA,NA,NA
"null","正确",NA,"html-keyboard-response",118,1095064,"0.0-14.0-23.0-0.0",70706,"ListB","man","chinese","SW_C_M_B3",NA,NA,NA,"null",NA,NA,NA,NA,NA,NA
"2842.1999999955297","<p>您第一次在8题里答对了 8 题。 请点击继续</p>",0,"html-button-response",119,1097906,"0.0-14.0-25.0",70706,"ListB","man","chinese","SW_C_M_B3",NA,NA,NA,NA,NA,NA,NA,NA,NA,NA
"null","<div style=""font-size:60px;"">+</div>",NA,"html-keyboard-response",120,1099418,"0.0-15.0-0.0",70706,"ListB","man","chinese","SW_C_M_B3",NA,NA,NA,"null",NA,NA,NA,NA,NA,NA
"null","<img src='gifs/ChineseGender1b.gif' style='height:400px;''></img>",NA,"html-keyboard-response",121,1101422,"0.0-15.0-1.0",70706,"ListB","man","chinese","SW_C_M_B3",NA,NA,NA,"null",NA,NA,NA,NA,NA,NA
"null","正在触摸",NA,"html-keyboard-response",122,1104431,"0.0-15.0-2.0",70706,"ListB","man","chinese","SW_C_M_B3",NA,NA,NA,"null",NA,NA,NA,NA,NA,NA
"14764.10000000149",NA,NA,"survey-text",123,1119196,"0.0-15.0-3.0",70706,"ListB","man","chinese","SW_C_M_B3",NA,NA,NA,NA,"{""Q0"":""卢克正在触摸霍普""}","<img src='gifs/ChineseGender1b.gif' style='height:400px;''></img>","触摸","正在触摸","chinese",NA
"null","<div style=""font-size:60px;"">+</div>",NA,"html-keyboard-response",124,1119698,"0.0-15.0-0.1",70706,"ListB","man","chinese","SW_C_M_B3",NA,NA,NA,"null",NA,NA,NA,NA,NA,NA
"null","<img src='gifs/ChineseGender3a.gif' style='height:400px;''></img>",NA,"html-keyboard-response",125,1121703,"0.0-15.0-1.1",70706,"ListB","man","chinese","SW_C_M_B3",NA,NA,NA,"null",NA,NA,NA,NA,NA,NA
"null","正在答应",NA,"html-keyboard-response",126,1124708,"0.0-15.0-2.1",70706,"ListB","man","chinese","SW_C_M_B3",NA,NA,NA,"null",NA,NA,NA,NA,NA,NA
"7174.5",NA,NA,"survey-text",127,1131880,"0.0-15.0-3.1",70706,"ListB","man","chinese","SW_C_M_B3",NA,NA,NA,NA,"{""Q0"":""露丝正在答应戴夫""}","<img src='gifs/ChineseGender3a.gif' style='height:400px;''></img>","答应","正在答应","chinese",NA
"null","<div style=""font-size:60px;"">+</div>",NA,"html-keyboard-response",128,1132388,"0.0-15.0-0.2",70706,"ListB","man","chinese","SW_C_M_B3",NA,NA,NA,"null",NA,NA,NA,NA,NA,NA
"null","<img src='gifs/MaleRace3b.gif' style='height:400px;''></img>",NA,"html-keyboard-response",129,1134389,"0.0-15.0-1.2",70706,"ListB","man","chinese","SW_C_M_B3",NA,NA,NA,"null",NA,NA,NA,NA,NA,NA
"null","正在表扬",NA,"html-keyboard-response",130,1137391,"0.0-15.0-2.2",70706,"ListB","man","chinese","SW_C_M_B3",NA,NA,NA,"null",NA,NA,NA,NA,NA,NA
"11955.30000000447",NA,NA,"survey-text",131,1149348,"0.0-15.0-3.2",70706,"ListB","man","chinese","SW_C_M_B3",NA,NA,NA,NA,"{""Q0"":""戴夫正在表扬弗雷""}","<img src='gifs/MaleRace3b.gif' style='height:400px;''></img>","表扬","正在表扬","chinese",NA
"null","<div style=""font-size:60px;"">+</div>",NA,"html-keyboard-response",132,1149854,"0.0-15.0-0.3",70706,"ListB","man","chinese","SW_C_M_B3",NA,NA,NA,"null",NA,NA,NA,NA,NA,NA
"null","<img src='gifs/BlackGender4b.gif' style='height:400px;''></img>",NA,"html-keyboard-response",133,1151861,"0.0-15.0-1.3",70706,"ListB","man","chinese","SW_C_M_B3",NA,NA,NA,"null",NA,NA,NA,NA,NA,NA
"null","正在触摸",NA,"html-keyboard-response",134,1154868,"0.0-15.0-2.3",70706,"ListB","man","chinese","SW_C_M_B3",NA,NA,NA,"null",NA,NA,NA,NA,NA,NA
"8177.39999999851",NA,NA,"survey-text",135,1163047,"0.0-15.0-3.3",70706,"ListB","man","chinese","SW_C_M_B3",NA,NA,NA,NA,"{""Q0"":""凯特正在触摸麦克""}","<img src='gifs/BlackGender4b.gif' style='height:400px;''></img>","触摸","正在触摸","chinese",NA
"null","<div style=""font-size:60px;"">+</div>",NA,"html-keyboard-response",136,1163553,"0.0-15.0-0.4",70706,"ListB","man","chinese","SW_C_M_B3",NA,NA,NA,"null",NA,NA,NA,NA,NA,NA
"null","<img src='gifs/FemaleRace4a.gif' style='height:400px;''></img>",NA,"html-keyboard-response",137,1165556,"0.0-15.0-1.4",70706,"ListB","man","chinese","SW_C_M_B3",NA,NA,NA,"null",NA,NA,NA,NA,NA,NA
"null","正在触摸",NA,"html-keyboard-response",138,1168560,"0.0-15.0-2.4",70706,"ListB","man","chinese","SW_C_M_B3",NA,NA,NA,"null",NA,NA,NA,NA,NA,NA
"10162",NA,NA,"survey-text",139,1178723,"0.0-15.0-3.4",70706,"ListB","man","chinese","SW_C_M_B3",NA,NA,NA,NA,"{""Q0"":""露丝正在触摸凯特""}","<img src='gifs/FemaleRace4a.gif' style='height:400px;''></img>","触摸","正在触摸","chinese",NA
"null","<div style=""font-size:60px;"">+</div>",NA,"html-keyboard-response",140,1179230,"0.0-15.0-0.5",70706,"ListB","man","chinese","SW_C_M_B3",NA,NA,NA,"null",NA,NA,NA,NA,NA,NA
"null","<img src='gifs/MaleRace1b.gif' style='height:400px;''></img>",NA,"html-keyboard-response",141,1181235,"0.0-15.0-1.5",70706,"ListB","man","chinese","SW_C_M_B3",NA,NA,NA,"null",NA,NA,NA,NA,NA,NA
"null","正在跟随",NA,"html-keyboard-response",142,1184239,"0.0-15.0-2.5",70706,"ListB","man","chinese","SW_C_M_B3",NA,NA,NA,"null",NA,NA,NA,NA,NA,NA
"8853.39999999851",NA,NA,"survey-text",143,1193097,"0.0-15.0-3.5",70706,"ListB","man","chinese","SW_C_M_B3",NA,NA,NA,NA,"{""Q0"":""弗雷正在跟随卢克""}","<img src='gifs/MaleRace1b.gif' style='height:400px;''></img>","跟随","正在跟随","chinese",NA
"null","<div style=""font-size:60px;"">+</div>",NA,"html-keyboard-response",144,1193598,"0.0-15.0-0.6",70706,"ListB","man","chinese","SW_C_M_B3",NA,NA,NA,"null",NA,NA,NA,NA,NA,NA
"null","<img src='gifs/BlackGender3b.gif' style='height:400px;''></img>",NA,"html-keyboard-response",145,1195606,"0.0-15.0-1.6",70706,"ListB","man","chinese","SW_C_M_B3",NA,NA,NA,"null",NA,NA,NA,NA,NA,NA
"null","正在面向",NA,"html-keyboard-response",146,1198611,"0.0-15.0-2.6",70706,"ListB","man","chinese","SW_C_M_B3",NA,NA,NA,"null",NA,NA,NA,NA,NA,NA
"9431.60000000149",NA,NA,"survey-text",147,1208044,"0.0-15.0-3.6",70706,"ListB","man","chinese","SW_C_M_B3",NA,NA,NA,NA,"{""Q0"":""弗雷正在面向凯特""}","<img src='gifs/BlackGender3b.gif' style='height:400px;''></img>","面向","正在面向","chinese",NA
"null","<div style=""font-size:60px;"">+</div>",NA,"html-keyboard-response",148,1208548,"0.0-15.0-0.7",70706,"ListB","man","chinese","SW_C_M_B3",NA,NA,NA,"null",NA,NA,NA,NA,NA,NA
"null","<img src='gifs/BlackGender3b.gif' style='height:400px;''></img>",NA,"html-keyboard-response",149,1210550,"0.0-15.0-1.7",70706,"ListB","man","chinese","SW_C_M_B3",NA,NA,NA,"null",NA,NA,NA,NA,NA,NA
"null","正在答应",NA,"html-keyboard-response",150,1213555,"0.0-15.0-2.7",70706,"ListB","man","chinese","SW_C_M_B3",NA,NA,NA,"null",NA,NA,NA,NA,NA,NA
"7327.4000000059605",NA,NA,"survey-text",151,1220884,"0.0-15.0-3.7",70706,"ListB","man","chinese","SW_C_M_B3",NA,NA,NA,NA,"{""Q0"":""凯特正在答应弗雷""}","<img src='gifs/BlackGender3b.gif' style='height:400px;''></img>","答应","正在答应","chinese",NA
"null","<div style=""font-size:60px;"">+</div>",NA,"html-keyboard-response",152,1221386,"0.0-15.0-0.8",70706,"ListB","man","chinese","SW_C_M_B3",NA,NA,NA,"null",NA,NA,NA,NA,NA,NA
"null","<img src='gifs/MaleRace2b.gif' style='height:400px;''></img>",NA,"html-keyboard-response",153,1223392,"0.0-15.0-1.8",70706,"ListB","man","chinese","SW_C_M_B3",NA,NA,NA,"null",NA,NA,NA,NA,NA,NA
"null","正在走向",NA,"html-keyboard-response",154,1226398,"0.0-15.0-2.8",70706,"ListB","man","chinese","SW_C_M_B3",NA,NA,NA,"null",NA,NA,NA,NA,NA,NA
"7388.39999999851",NA,NA,"survey-text",155,1233788,"0.0-15.0-3.8",70706,"ListB","man","chinese","SW_C_M_B3",NA,NA,NA,NA,"{""Q0"":""卢克正在走向麦克""}","<img src='gifs/MaleRace2b.gif' style='height:400px;''></img>","走向","正在走向","chinese",NA
"null","<div style=""font-size:60px;"">+</div>",NA,"html-keyboard-response",156,1234291,"0.0-15.0-0.9",70706,"ListB","man","chinese","SW_C_M_B3",NA,NA,NA,"null",NA,NA,NA,NA,NA,NA
"null","<img src='gifs/BlackGender1a.gif' style='height:400px;''></img>",NA,"html-keyboard-response",157,1236292,"0.0-15.0-1.9",70706,"ListB","man","chinese","SW_C_M_B3",NA,NA,NA,"null",NA,NA,NA,NA,NA,NA
"null","正在加入",NA,"html-keyboard-response",158,1239300,"0.0-15.0-2.9",70706,"ListB","man","chinese","SW_C_M_B3",NA,NA,NA,"null",NA,NA,NA,NA,NA,NA
"8686.5",NA,NA,"survey-text",159,1247988,"0.0-15.0-3.9",70706,"ListB","man","chinese","SW_C_M_B3",NA,NA,NA,NA,"{""Q0"":""贝斯正在加入弗雷""}","<img src='gifs/BlackGender1a.gif' style='height:400px;''></img>","加入","正在加入","chinese",NA
"null","<div style=""font-size:60px;"">+</div>",NA,"html-keyboard-response",160,1248488,"0.0-15.0-0.10",70706,"ListB","man","chinese","SW_C_M_B3",NA,NA,NA,"null",NA,NA,NA,NA,NA,NA
"null","<img src='gifs/ChineseGender3b.gif' style='height:400px;''></img>",NA,"html-keyboard-response",161,1250498,"0.0-15.0-1.10",70706,"ListB","man","chinese","SW_C_M_B3",NA,NA,NA,"null",NA,NA,NA,NA,NA,NA
"null","正在聘用",NA,"html-keyboard-response",162,1253505,"0.0-15.0-2.10",70706,"ListB","man","chinese","SW_C_M_B3",NA,NA,NA,"null",NA,NA,NA,NA,NA,NA
"8023.89999999851",NA,NA,"survey-text",163,1261530,"0.0-15.0-3.10",70706,"ListB","man","chinese","SW_C_M_B3",NA,NA,NA,NA,"{""Q0"":""露丝正在聘用戴夫""}","<img src='gifs/ChineseGender3b.gif' style='height:400px;''></img>","聘用","正在聘用","chinese",NA
"null","<div style=""font-size:60px;"">+</div>",NA,"html-keyboard-response",164,1262033,"0.0-15.0-0.11",70706,"ListB","man","chinese","SW_C_M_B3",NA,NA,NA,"null",NA,NA,NA,NA,NA,NA
"null","<img src='gifs/FemaleRace4b.gif' style='height:400px;''></img>",NA,"html-keyboard-response",165,1264037,"0.0-15.0-1.11",70706,"ListB","man","chinese","SW_C_M_B3",NA,NA,NA,"null",NA,NA,NA,NA,NA,NA
"null","正在聆听",NA,"html-keyboard-response",166,1267043,"0.0-15.0-2.11",70706,"ListB","man","chinese","SW_C_M_B3",NA,NA,NA,"null",NA,NA,NA,NA,NA,NA
"11484.79999999702",NA,NA,"survey-text",167,1278530,"0.0-15.0-3.11",70706,"ListB","man","chinese","SW_C_M_B3",NA,NA,NA,NA,"{""Q0"":""露丝正在聆听凯特""}","<img src='gifs/FemaleRace4b.gif' style='height:400px;''></img>","聆听","正在聆听","chinese",NA
"null","<div style=""font-size:60px;"">+</div>",NA,"html-keyboard-response",168,1279031,"0.0-15.0-0.12",70706,"ListB","man","chinese","SW_C_M_B3",NA,NA,NA,"null",NA,NA,NA,NA,NA,NA
"null","<img src='gifs/FemaleRace4b.gif' style='height:400px;''></img>",NA,"html-keyboard-response",169,1281040,"0.0-15.0-1.12",70706,"ListB","man","chinese","SW_C_M_B3",NA,NA,NA,"null",NA,NA,NA,NA,NA,NA
"null","正在触摸",NA,"html-keyboard-response",170,1284047,"0.0-15.0-2.12",70706,"ListB","man","chinese","SW_C_M_B3",NA,NA,NA,"null",NA,NA,NA,NA,NA,NA
"10396.20000000298",NA,NA,"survey-text",171,1294445,"0.0-15.0-3.12",70706,"ListB","man","chinese","SW_C_M_B3",NA,NA,NA,NA,"{""Q0"":""凯特正在触摸露丝""}","<img src='gifs/FemaleRace4b.gif' style='height:400px;''></img>","触摸","正在触摸","chinese",NA
"null","<div style=""font-size:60px;"">+</div>",NA,"html-keyboard-response",172,1294949,"0.0-15.0-0.13",70706,"ListB","man","chinese","SW_C_M_B3",NA,NA,NA,"null",NA,NA,NA,NA,NA,NA
"null","<img src='gifs/FemaleRace3a.gif' style='height:400px;''></img>",NA,"html-keyboard-response",173,1296953,"0.0-15.0-1.13",70706,"ListB","man","chinese","SW_C_M_B3",NA,NA,NA,"null",NA,NA,NA,NA,NA,NA
"null","正在表扬",NA,"html-keyboard-response",174,1299955,"0.0-15.0-2.13",70706,"ListB","man","chinese","SW_C_M_B3",NA,NA,NA,"null",NA,NA,NA,NA,NA,NA
"7895.60000000149",NA,NA,"survey-text",175,1307852,"0.0-15.0-3.13",70706,"ListB","man","chinese","SW_C_M_B3",NA,NA,NA,NA,"{""Q0"":""露丝正在表扬贝斯""}","<img src='gifs/FemaleRace3a.gif' style='height:400px;''></img>","表扬","正在表扬","chinese",NA
"null","<div style=""font-size:60px;"">+</div>",NA,"html-keyboard-response",176,1308362,"0.0-15.0-0.14",70706,"ListB","man","chinese","SW_C_M_B3",NA,NA,NA,"null",NA,NA,NA,NA,NA,NA
"null","<img src='gifs/BlackGender3a.gif' style='height:400px;''></img>",NA,"html-keyboard-response",177,1310380,"0.0-15.0-1.14",70706,"ListB","man","chinese","SW_C_M_B3",NA,NA,NA,"null",NA,NA,NA,NA,NA,NA
"null","正在介绍",NA,"html-keyboard-response",178,1313388,"0.0-15.0-2.14",70706,"ListB","man","chinese","SW_C_M_B3",NA,NA,NA,"null",NA,NA,NA,NA,NA,NA
"9797.89999999851",NA,NA,"survey-text",179,1323187,"0.0-15.0-3.14",70706,"ListB","man","chinese","SW_C_M_B3",NA,NA,NA,NA,"{""Q0"":""弗雷正在介绍凯特""}","<img src='gifs/BlackGender3a.gif' style='height:400px;''></img>","介绍","正在介绍","chinese",NA
"null","<div style=""font-size:60px;"">+</div>",NA,"html-keyboard-response",180,1323690,"0.0-15.0-0.15",70706,"ListB","man","chinese","SW_C_M_B3",NA,NA,NA,"null",NA,NA,NA,NA,NA,NA
"null","<img src='gifs/BlackGender2a.gif' style='height:400px;''></img>",NA,"html-keyboard-response",181,1325698,"0.0-15.0-1.15",70706,"ListB","man","chinese","SW_C_M_B3",NA,NA,NA,"null",NA,NA,NA,NA,NA,NA
"null","正在联系",NA,"html-keyboard-response",182,1328706,"0.0-15.0-2.15",70706,"ListB","man","chinese","SW_C_M_B3",NA,NA,NA,"null",NA,NA,NA,NA,NA,NA
"8866.10000000149",NA,NA,"survey-text",183,1337574,"0.0-15.0-3.15",70706,"ListB","man","chinese","SW_C_M_B3",NA,NA,NA,NA,"{""Q0"":""麦克正在联系贝斯""}","<img src='gifs/BlackGender2a.gif' style='height:400px;''></img>","联系","正在联系","chinese",NA
"null","<div style=""font-size:60px;"">+</div>",NA,"html-keyboard-response",184,1338081,"0.0-15.0-0.16",70706,"ListB","man","chinese","SW_C_M_B3",NA,NA,NA,"null",NA,NA,NA,NA,NA,NA
"null","<img src='gifs/MaleRace4a.gif' style='height:400px;''></img>",NA,"html-keyboard-response",185,1340083,"0.0-15.0-1.16",70706,"ListB","man","chinese","SW_C_M_B3",NA,NA,NA,"null",NA,NA,NA,NA,NA,NA
"null","正在陪伴",NA,"html-keyboard-response",186,1343093,"0.0-15.0-2.16",70706,"ListB","man","chinese","SW_C_M_B3",NA,NA,NA,"null",NA,NA,NA,NA,NA,NA
"8442.70000000298",NA,NA,"survey-text",187,1351537,"0.0-15.0-3.16",70706,"ListB","man","chinese","SW_C_M_B3",NA,NA,NA,NA,"{""Q0"":""麦克正在陪伴戴夫""}","<img src='gifs/MaleRace4a.gif' style='height:400px;''></img>","陪伴","正在陪伴","chinese",NA
"null","<div style=""font-size:60px;"">+</div>",NA,"html-keyboard-response",188,1352038,"0.0-15.0-0.17",70706,"ListB","man","chinese","SW_C_M_B3",NA,NA,NA,"null",NA,NA,NA,NA,NA,NA
"null","<img src='gifs/BlackGender2a.gif' style='height:400px;''></img>",NA,"html-keyboard-response",189,1354044,"0.0-15.0-1.17",70706,"ListB","man","chinese","SW_C_M_B3",NA,NA,NA,"null",NA,NA,NA,NA,NA,NA
"null","正在看着",NA,"html-keyboard-response",190,1357047,"0.0-15.0-2.17",70706,"ListB","man","chinese","SW_C_M_B3",NA,NA,NA,"null",NA,NA,NA,NA,NA,NA
"7469.89999999851",NA,NA,"survey-text",191,1364518,"0.0-15.0-3.17",70706,"ListB","man","chinese","SW_C_M_B3",NA,NA,NA,NA,"{""Q0"":""麦克正在看着贝斯""}","<img src='gifs/BlackGender2a.gif' style='height:400px;''></img>","看着","正在看着","chinese",NA
"46477.80000000447","<img src='img/portrait_matrix_listB_chinese.jpg' style='width:900px;height:500px;''></img><p>如果您已经记住了所有的人物和名字，请点击继续。</p><p><strong>请注意：您对先前记忆的面孔将在本实验中被测试5次。</strong></p>",0,"html-button-response",192,1410992,"0.0-16.0-0.0",70706,"ListB","man","chinese","SW_C_M_B3",NA,NA,NA,NA,NA,NA,NA,NA,NA,NA
"2176.7999999970198","<img src=""portrait/BW2.jpg""style=""height:400px;""></img>",2,"html-button-response",193,1414176,"0.0-16.0-1.0",70706,"ListB","man","chinese","SW_C_M_B3",NA,"true",2,NA,NA,NA,NA,NA,NA,NA
"null","正确",NA,"html-keyboard-response",194,1415687,"0.0-16.0-2.0-0.0",70706,"ListB","man","chinese","SW_C_M_B3",NA,NA,NA,"null",NA,NA,NA,NA,NA,NA
"1468.2999999970198","<img src=""portrait/WW2.jpg""style=""height:400px;""></img>",3,"html-button-response",195,1417156,"0.0-16.0-4.0",70706,"ListB","man","chinese","SW_C_M_B3",NA,"true",3,NA,NA,NA,NA,NA,NA,NA
"null","正确",NA,"html-keyboard-response",196,1418663,"0.0-16.0-5.0-0.0",70706,"ListB","man","chinese","SW_C_M_B3",NA,NA,NA,"null",NA,NA,NA,NA,NA,NA
"2087.5","<img src=""portrait/BM2.jpg""style=""height:400px;""></img>",5,"html-button-response",197,1420752,"0.0-16.0-7.0",70706,"ListB","man","chinese","SW_C_M_B3",NA,"true",5,NA,NA,NA,NA,NA,NA,NA
"null","正确",NA,"html-keyboard-response",198,1422260,"0.0-16.0-8.0-0.0",70706,"ListB","man","chinese","SW_C_M_B3",NA,NA,NA,"null",NA,NA,NA,NA,NA,NA
"2106.4000000059605","<img src=""portrait/BM1.jpg""style=""height:400px;""></img>",4,"html-button-response",199,1424367,"0.0-16.0-10.0",70706,"ListB","man","chinese","SW_C_M_B3",NA,"true",4,NA,NA,NA,NA,NA,NA,NA
"null","正确",NA,"html-keyboard-response",200,1425881,"0.0-16.0-11.0-0.0",70706,"ListB","man","chinese","SW_C_M_B3",NA,NA,NA,"null",NA,NA,NA,NA,NA,NA
"1778","<img src=""portrait/WM1.jpg""style=""height:400px;""></img>",6,"html-button-response",201,1427661,"0.0-16.0-13.0",70706,"ListB","man","chinese","SW_C_M_B3",NA,"true",6,NA,NA,NA,NA,NA,NA,NA
"null","正确",NA,"html-keyboard-response",202,1429169,"0.0-16.0-14.0-0.0",70706,"ListB","man","chinese","SW_C_M_B3",NA,NA,NA,"null",NA,NA,NA,NA,NA,NA
"2283.4000000059605","<img src=""portrait/WW1.jpg""style=""height:400px;""></img>",1,"html-button-response",203,1431453,"0.0-16.0-16.0",70706,"ListB","man","chinese","SW_C_M_B3",NA,"true",1,NA,NA,NA,NA,NA,NA,NA
"null","正确",NA,"html-keyboard-response",204,1432964,"0.0-16.0-17.0-0.0",70706,"ListB","man","chinese","SW_C_M_B3",NA,NA,NA,"null",NA,NA,NA,NA,NA,NA
"3200.3000000044703","<img src=""portrait/BW1.jpg""style=""height:400px;""></img>",0,"html-button-response",205,1436165,"0.0-16.0-19.0",70706,"ListB","man","chinese","SW_C_M_B3",NA,"true",0,NA,NA,NA,NA,NA,NA,NA
"null","正确",NA,"html-keyboard-response",206,1437673,"0.0-16.0-20.0-0.0",70706,"ListB","man","chinese","SW_C_M_B3",NA,NA,NA,"null",NA,NA,NA,NA,NA,NA
"1949.5","<img src=""portrait/WM2.jpg""style=""height:400px;""></img>",7,"html-button-response",207,1439624,"0.0-16.0-22.0",70706,"ListB","man","chinese","SW_C_M_B3",NA,"true",7,NA,NA,NA,NA,NA,NA,NA
"null","正确",NA,"html-keyboard-response",208,1441128,"0.0-16.0-23.0-0.0",70706,"ListB","man","chinese","SW_C_M_B3",NA,NA,NA,"null",NA,NA,NA,NA,NA,NA
"1517","<p>您第一次在8题里答对了 8 题。 请点击继续</p>",0,"html-button-response",209,1442646,"0.0-16.0-25.0",70706,"ListB","man","chinese","SW_C_M_B3",NA,NA,NA,NA,NA,NA,NA,NA,NA,NA
"null","<div style=""font-size:60px;"">+</div>",NA,"html-keyboard-response",210,1444154,"0.0-17.0-0.0",70706,"ListB","man","chinese","SW_C_M_B3",NA,NA,NA,"null",NA,NA,NA,NA,NA,NA
"null","<img src='gifs/ChineseGender2a.gif' style='height:400px;''></img>",NA,"html-keyboard-response",211,1446156,"0.0-17.0-1.0",70706,"ListB","man","chinese","SW_C_M_B3",NA,NA,NA,"null",NA,NA,NA,NA,NA,NA
"null","正在聘用",NA,"html-keyboard-response",212,1449159,"0.0-17.0-2.0",70706,"ListB","man","chinese","SW_C_M_B3",NA,NA,NA,"null",NA,NA,NA,NA,NA,NA
"7736.89999999851",NA,NA,"survey-text",213,1456898,"0.0-17.0-3.0",70706,"ListB","man","chinese","SW_C_M_B3",NA,NA,NA,NA,"{""Q0"":""露丝正在聘用卢克""}","<img src='gifs/ChineseGender2a.gif' style='height:400px;''></img>","聘用","正在聘用","chinese",NA
"null","<div style=""font-size:60px;"">+</div>",NA,"html-keyboard-response",214,1457401,"0.0-17.0-0.1",70706,"ListB","man","chinese","SW_C_M_B3",NA,NA,NA,"null",NA,NA,NA,NA,NA,NA
"null","<img src='gifs/BlackGender1a.gif' style='height:400px;''></img>",NA,"html-keyboard-response",215,1459409,"0.0-17.0-1.1",70706,"ListB","man","chinese","SW_C_M_B3",NA,NA,NA,"null",NA,NA,NA,NA,NA,NA
"null","正在加入",NA,"html-keyboard-response",216,1462417,"0.0-17.0-2.1",70706,"ListB","man","chinese","SW_C_M_B3",NA,NA,NA,"null",NA,NA,NA,NA,NA,NA
"6408.39999999851",NA,NA,"survey-text",217,1468833,"0.0-17.0-3.1",70706,"ListB","man","chinese","SW_C_M_B3",NA,NA,NA,NA,"{""Q0"":""弗雷正在加入贝斯""}","<img src='gifs/BlackGender1a.gif' style='height:400px;''></img>","加入","正在加入","chinese",NA
"null","<div style=""font-size:60px;"">+</div>",NA,"html-keyboard-response",218,1469340,"0.0-17.0-0.2",70706,"ListB","man","chinese","SW_C_M_B3",NA,NA,NA,"null",NA,NA,NA,NA,NA,NA
"null","<img src='gifs/ChineseGender4b.gif' style='height:400px;''></img>",NA,"html-keyboard-response",219,1471346,"0.0-17.0-1.2",70706,"ListB","man","chinese","SW_C_M_B3",NA,NA,NA,"null",NA,NA,NA,NA,NA,NA
"null","正在介绍",NA,"html-keyboard-response",220,1474354,"0.0-17.0-2.2",70706,"ListB","man","chinese","SW_C_M_B3",NA,NA,NA,"null",NA,NA,NA,NA,NA,NA
"19704.20000000298",NA,NA,"survey-text",221,1494060,"0.0-17.0-3.2",70706,"ListB","man","chinese","SW_C_M_B3",NA,NA,NA,NA,"{""Q0"":""戴夫正在介绍霍普""}","<img src='gifs/ChineseGender4b.gif' style='height:400px;''></img>","介绍","正在介绍","chinese",NA
"null","<div style=""font-size:60px;"">+</div>",NA,"html-keyboard-response",222,1494562,"0.0-17.0-0.3",70706,"ListB","man","chinese","SW_C_M_B3",NA,NA,NA,"null",NA,NA,NA,NA,NA,NA
"null","<img src='gifs/FemaleRace1b.gif' style='height:400px;''></img>",NA,"html-keyboard-response",223,1496571,"0.0-17.0-1.3",70706,"ListB","man","chinese","SW_C_M_B3",NA,NA,NA,"null",NA,NA,NA,NA,NA,NA
"null","正在聆听",NA,"html-keyboard-response",224,1499573,"0.0-17.0-2.3",70706,"ListB","man","chinese","SW_C_M_B3",NA,NA,NA,"null",NA,NA,NA,NA,NA,NA
"6794.80000000447",NA,NA,"survey-text",225,1506369,"0.0-17.0-3.3",70706,"ListB","man","chinese","SW_C_M_B3",NA,NA,NA,NA,"{""Q0"":""贝斯正在聆听霍普""}","<img src='gifs/FemaleRace1b.gif' style='height:400px;''></img>","聆听","正在聆听","chinese",NA
"null","<div style=""font-size:60px;"">+</div>",NA,"html-keyboard-response",226,1506875,"0.0-17.0-0.4",70706,"ListB","man","chinese","SW_C_M_B3",NA,NA,NA,"null",NA,NA,NA,NA,NA,NA
"null","<img src='gifs/MaleRace3a.gif' style='height:400px;''></img>",NA,"html-keyboard-response",227,1508879,"0.0-17.0-1.4",70706,"ListB","man","chinese","SW_C_M_B3",NA,NA,NA,"null",NA,NA,NA,NA,NA,NA
"null","正在面向",NA,"html-keyboard-response",228,1511884,"0.0-17.0-2.4",70706,"ListB","man","chinese","SW_C_M_B3",NA,NA,NA,"null",NA,NA,NA,NA,NA,NA
"7544.39999999851",NA,NA,"survey-text",229,1519430,"0.0-17.0-3.4",70706,"ListB","man","chinese","SW_C_M_B3",NA,NA,NA,NA,"{""Q0"":""弗雷正在面向戴夫""}","<img src='gifs/MaleRace3a.gif' style='height:400px;''></img>","面向","正在面向","chinese",NA
"null","<div style=""font-size:60px;"">+</div>",NA,"html-keyboard-response",230,1519936,"0.0-17.0-0.5",70706,"ListB","man","chinese","SW_C_M_B3",NA,NA,NA,"null",NA,NA,NA,NA,NA,NA
"null","<img src='gifs/FemaleRace2b.gif' style='height:400px;''></img>",NA,"html-keyboard-response",231,1521940,"0.0-17.0-1.5",70706,"ListB","man","chinese","SW_C_M_B3",NA,NA,NA,"null",NA,NA,NA,NA,NA,NA
"null","正在看着",NA,"html-keyboard-response",232,1524948,"0.0-17.0-2.5",70706,"ListB","man","chinese","SW_C_M_B3",NA,NA,NA,"null",NA,NA,NA,NA,NA,NA
"7544.70000000298",NA,NA,"survey-text",233,1532491,"0.0-17.0-3.5",70706,"ListB","man","chinese","SW_C_M_B3",NA,NA,NA,NA,"{""Q0"":""凯特正在看着霍普""}","<img src='gifs/FemaleRace2b.gif' style='height:400px;''></img>","看着","正在看着","chinese",NA
"null","<div style=""font-size:60px;"">+</div>",NA,"html-keyboard-response",234,1532994,"0.0-17.0-0.6",70706,"ListB","man","chinese","SW_C_M_B3",NA,NA,NA,"null",NA,NA,NA,NA,NA,NA
"null","<img src='gifs/ChineseGender2b.gif' style='height:400px;''></img>",NA,"html-keyboard-response",235,1534998,"0.0-17.0-1.6",70706,"ListB","man","chinese","SW_C_M_B3",NA,NA,NA,"null",NA,NA,NA,NA,NA,NA
"null","正在跟随",NA,"html-keyboard-response",236,1538004,"0.0-17.0-2.6",70706,"ListB","man","chinese","SW_C_M_B3",NA,NA,NA,"null",NA,NA,NA,NA,NA,NA
"7404.89999999851",NA,NA,"survey-text",237,1545410,"0.0-17.0-3.6",70706,"ListB","man","chinese","SW_C_M_B3",NA,NA,NA,NA,"{""Q0"":""卢克正在跟随露丝""}","<img src='gifs/ChineseGender2b.gif' style='height:400px;''></img>","跟随","正在跟随","chinese",NA
"null","<div style=""font-size:60px;"">+</div>",NA,"html-keyboard-response",238,1545918,"0.0-17.0-0.7",70706,"ListB","man","chinese","SW_C_M_B3",NA,NA,NA,"null",NA,NA,NA,NA,NA,NA
"null","<img src='gifs/FemaleRace2b.gif' style='height:400px;''></img>",NA,"html-keyboard-response",239,1547924,"0.0-17.0-1.7",70706,"ListB","man","chinese","SW_C_M_B3",NA,NA,NA,"null",NA,NA,NA,NA,NA,NA
"null","正在提到",NA,"html-keyboard-response",240,1550925,"0.0-17.0-2.7",70706,"ListB","man","chinese","SW_C_M_B3",NA,NA,NA,"null",NA,NA,NA,NA,NA,NA
"7424.60000000149",NA,NA,"survey-text",241,1558352,"0.0-17.0-3.7",70706,"ListB","man","chinese","SW_C_M_B3",NA,NA,NA,NA,"{""Q0"":""凯特正在提到霍普""}","<img src='gifs/FemaleRace2b.gif' style='height:400px;''></img>","提到","正在提到","chinese",NA
"null","<div style=""font-size:60px;"">+</div>",NA,"html-keyboard-response",242,1558859,"0.0-17.0-0.8",70706,"ListB","man","chinese","SW_C_M_B3",NA,NA,NA,"null",NA,NA,NA,NA,NA,NA
"null","<img src='gifs/BlackGender1b.gif' style='height:400px;''></img>",NA,"html-keyboard-response",243,1560869,"0.0-17.0-1.8",70706,"ListB","man","chinese","SW_C_M_B3",NA,NA,NA,"null",NA,NA,NA,NA,NA,NA
"null","正在提到",NA,"html-keyboard-response",244,1563873,"0.0-17.0-2.8",70706,"ListB","man","chinese","SW_C_M_B3",NA,NA,NA,"null",NA,NA,NA,NA,NA,NA
"6838.39999999851",NA,NA,"survey-text",245,1570713,"0.0-17.0-3.8",70706,"ListB","man","chinese","SW_C_M_B3",NA,NA,NA,NA,"{""Q0"":""贝斯正在提到弗雷""}","<img src='gifs/BlackGender1b.gif' style='height:400px;''></img>","提到","正在提到","chinese",NA
"null","<div style=""font-size:60px;"">+</div>",NA,"html-keyboard-response",246,1571215,"0.0-17.0-0.9",70706,"ListB","man","chinese","SW_C_M_B3",NA,NA,NA,"null",NA,NA,NA,NA,NA,NA
"null","<img src='gifs/ChineseGender4b.gif' style='height:400px;''></img>",NA,"html-keyboard-response",247,1573225,"0.0-17.0-1.9",70706,"ListB","man","chinese","SW_C_M_B3",NA,NA,NA,"null",NA,NA,NA,NA,NA,NA
"null","正在提到",NA,"html-keyboard-response",248,1576231,"0.0-17.0-2.9",70706,"ListB","man","chinese","SW_C_M_B3",NA,NA,NA,"null",NA,NA,NA,NA,NA,NA
"6258.70000000298",NA,NA,"survey-text",249,1582491,"0.0-17.0-3.9",70706,"ListB","man","chinese","SW_C_M_B3",NA,NA,NA,NA,"{""Q0"":""戴夫正在提到霍普""}","<img src='gifs/ChineseGender4b.gif' style='height:400px;''></img>","提到","正在提到","chinese",NA
"null","<div style=""font-size:60px;"">+</div>",NA,"html-keyboard-response",250,1582999,"0.0-17.0-0.10",70706,"ListB","man","chinese","SW_C_M_B3",NA,NA,NA,"null",NA,NA,NA,NA,NA,NA
"null","<img src='gifs/MaleRace1a.gif' style='height:400px;''></img>",NA,"html-keyboard-response",251,1585009,"0.0-17.0-1.10",70706,"ListB","man","chinese","SW_C_M_B3",NA,NA,NA,"null",NA,NA,NA,NA,NA,NA
"null","正在面向",NA,"html-keyboard-response",252,1588021,"0.0-17.0-2.10",70706,"ListB","man","chinese","SW_C_M_B3",NA,NA,NA,"null",NA,NA,NA,NA,NA,NA
"9103.59999999404",NA,NA,"survey-text",253,1597126,"0.0-17.0-3.10",70706,"ListB","man","chinese","SW_C_M_B3",NA,NA,NA,NA,"{""Q0"":""弗雷正在面向卢克""}","<img src='gifs/MaleRace1a.gif' style='height:400px;''></img>","面向","正在面向","chinese",NA
"null","<div style=""font-size:60px;"">+</div>",NA,"html-keyboard-response",254,1597632,"0.0-17.0-0.11",70706,"ListB","man","chinese","SW_C_M_B3",NA,NA,NA,"null",NA,NA,NA,NA,NA,NA
"null","<img src='gifs/ChineseGender4a.gif' style='height:400px;''></img>",NA,"html-keyboard-response",255,1599637,"0.0-17.0-1.11",70706,"ListB","man","chinese","SW_C_M_B3",NA,NA,NA,"null",NA,NA,NA,NA,NA,NA
"null","正在走向",NA,"html-keyboard-response",256,1602641,"0.0-17.0-2.11",70706,"ListB","man","chinese","SW_C_M_B3",NA,NA,NA,"null",NA,NA,NA,NA,NA,NA
"6451.5",NA,NA,"survey-text",257,1609095,"0.0-17.0-3.11",70706,"ListB","man","chinese","SW_C_M_B3",NA,NA,NA,NA,"{""Q0"":""霍普正在走向戴夫""}","<img src='gifs/ChineseGender4a.gif' style='height:400px;''></img>","走向","正在走向","chinese",NA
"null","<div style=""font-size:60px;"">+</div>",NA,"html-keyboard-response",258,1609598,"0.0-17.0-0.12",70706,"ListB","man","chinese","SW_C_M_B3",NA,NA,NA,"null",NA,NA,NA,NA,NA,NA
"null","<img src='gifs/MaleRace1a.gif' style='height:400px;''></img>",NA,"html-keyboard-response",259,1611603,"0.0-17.0-1.12",70706,"ListB","man","chinese","SW_C_M_B3",NA,NA,NA,"null",NA,NA,NA,NA,NA,NA
"null","正在聆听",NA,"html-keyboard-response",260,1614609,"0.0-17.0-2.12",70706,"ListB","man","chinese","SW_C_M_B3",NA,NA,NA,"null",NA,NA,NA,NA,NA,NA
"6836.10000000149",NA,NA,"survey-text",261,1621447,"0.0-17.0-3.12",70706,"ListB","man","chinese","SW_C_M_B3",NA,NA,NA,NA,"{""Q0"":""弗雷正在聆听卢克""}","<img src='gifs/MaleRace1a.gif' style='height:400px;''></img>","聆听","正在聆听","chinese",NA
"null","<div style=""font-size:60px;"">+</div>",NA,"html-keyboard-response",262,1621948,"0.0-17.0-0.13",70706,"ListB","man","chinese","SW_C_M_B3",NA,NA,NA,"null",NA,NA,NA,NA,NA,NA
"null","<img src='gifs/BlackGender4a.gif' style='height:400px;''></img>",NA,"html-keyboard-response",263,1623955,"0.0-17.0-1.13",70706,"ListB","man","chinese","SW_C_M_B3",NA,NA,NA,"null",NA,NA,NA,NA,NA,NA
"null","正在介绍",NA,"html-keyboard-response",264,1626962,"0.0-17.0-2.13",70706,"ListB","man","chinese","SW_C_M_B3",NA,NA,NA,"null",NA,NA,NA,NA,NA,NA
"8027.10000000149",NA,NA,"survey-text",265,1634990,"0.0-17.0-3.13",70706,"ListB","man","chinese","SW_C_M_B3",NA,NA,NA,NA,"{""Q0"":""麦克正在介绍凯特""}","<img src='gifs/BlackGender4a.gif' style='height:400px;''></img>","介绍","正在介绍","chinese",NA
"null","<div style=""font-size:60px;"">+</div>",NA,"html-keyboard-response",266,1635491,"0.0-17.0-0.14",70706,"ListB","man","chinese","SW_C_M_B3",NA,NA,NA,"null",NA,NA,NA,NA,NA,NA
"null","<img src='gifs/ChineseGender1a.gif' style='height:400px;''></img>",NA,"html-keyboard-response",267,1637496,"0.0-17.0-1.14",70706,"ListB","man","chinese","SW_C_M_B3",NA,NA,NA,"null",NA,NA,NA,NA,NA,NA
"null","正在聘用",NA,"html-keyboard-response",268,1640504,"0.0-17.0-2.14",70706,"ListB","man","chinese","SW_C_M_B3",NA,NA,NA,"null",NA,NA,NA,NA,NA,NA
"7468.70000000298",NA,NA,"survey-text",269,1647975,"0.0-17.0-3.14",70706,"ListB","man","chinese","SW_C_M_B3",NA,NA,NA,NA,"{""Q0"":""霍普正在聘用卢克""}","<img src='gifs/ChineseGender1a.gif' style='height:400px;''></img>","聘用","正在聘用","chinese",NA
"null","<div style=""font-size:60px;"">+</div>",NA,"html-keyboard-response",270,1648478,"0.0-17.0-0.15",70706,"ListB","man","chinese","SW_C_M_B3",NA,NA,NA,"null",NA,NA,NA,NA,NA,NA
"null","<img src='gifs/FemaleRace3a.gif' style='height:400px;''></img>",NA,"html-keyboard-response",271,1650485,"0.0-17.0-1.15",70706,"ListB","man","chinese","SW_C_M_B3",NA,NA,NA,"null",NA,NA,NA,NA,NA,NA
"null","正在聆听",NA,"html-keyboard-response",272,1653489,"0.0-17.0-2.15",70706,"ListB","man","chinese","SW_C_M_B3",NA,NA,NA,"null",NA,NA,NA,NA,NA,NA
"5507.69999999553",NA,NA,"survey-text",273,1658998,"0.0-17.0-3.15",70706,"ListB","man","chinese","SW_C_M_B3",NA,NA,NA,NA,"{""Q0"":""露丝正在聆听贝斯""}","<img src='gifs/FemaleRace3a.gif' style='height:400px;''></img>","聆听","正在聆听","chinese",NA
"null","<div style=""font-size:60px;"">+</div>",NA,"html-keyboard-response",274,1659500,"0.0-17.0-0.16",70706,"ListB","man","chinese","SW_C_M_B3",NA,NA,NA,"null",NA,NA,NA,NA,NA,NA
"null","<img src='gifs/BlackGender3a.gif' style='height:400px;''></img>",NA,"html-keyboard-response",275,1661505,"0.0-17.0-1.16",70706,"ListB","man","chinese","SW_C_M_B3",NA,NA,NA,"null",NA,NA,NA,NA,NA,NA
"null","正在答应",NA,"html-keyboard-response",276,1664508,"0.0-17.0-2.16",70706,"ListB","man","chinese","SW_C_M_B3",NA,NA,NA,"null",NA,NA,NA,NA,NA,NA
"5718",NA,NA,"survey-text",277,1670228,"0.0-17.0-3.16",70706,"ListB","man","chinese","SW_C_M_B3",NA,NA,NA,NA,"{""Q0"":""弗雷正在答应凯特""}","<img src='gifs/BlackGender3a.gif' style='height:400px;''></img>","答应","正在答应","chinese",NA
"null","<div style=""font-size:60px;"">+</div>",NA,"html-keyboard-response",278,1670736,"0.0-17.0-0.17",70706,"ListB","man","chinese","SW_C_M_B3",NA,NA,NA,"null",NA,NA,NA,NA,NA,NA
"null","<img src='gifs/MaleRace3a.gif' style='height:400px;''></img>",NA,"html-keyboard-response",279,1672737,"0.0-17.0-1.17",70706,"ListB","man","chinese","SW_C_M_B3",NA,NA,NA,"null",NA,NA,NA,NA,NA,NA
"null","正在接近",NA,"html-keyboard-response",280,1675741,"0.0-17.0-2.17",70706,"ListB","man","chinese","SW_C_M_B3",NA,NA,NA,"null",NA,NA,NA,NA,NA,NA
"9024.80000000447",NA,NA,"survey-text",281,1684767,"0.0-17.0-3.17",70706,"ListB","man","chinese","SW_C_M_B3",NA,NA,NA,NA,"{""Q0"":""弗雷正在接近戴夫""}","<img src='gifs/MaleRace3a.gif' style='height:400px;''></img>","接近","正在接近","chinese",NA
"2071.10000000149","<p>Thank you for completing that task.</p><p>The final part of this session is a short questionnaire.</p><p>Press Continue.</p>",0,"html-button-response",282,1686839,"0.0-18.0",70706,"ListB","man","chinese","SW_C_M_B3",NA,NA,NA,NA,NA,NA,NA,NA,NA,NA
"113352.19999999553",NA,NA,"survey-text",283,1801197,"0.0-19.0",70706,"ListB","man","chinese","SW_C_M_B3",NA,NA,NA,NA,"{""Q0"":""18"",""Q1"":""中文"",""Q2"":""中文"",""Q3"":""中国"",""Q4"":""中国"",""Q5"":""汉族"",""Q6"":""男""}",NA,NA,NA,NA,"demographics"
"7822.80000000447","<p>Have you lived in the UK for the last 5 years or more?</p>",1,"html-button-response",284,1809021,"0.0-20.0",70706,"ListB","man","chinese","SW_C_M_B3",NA,NA,NA,NA,NA,NA,NA,NA,NA,"fiveyears"
"4242.5",NA,NA,"external-html",285,1815187,"0.0-21.0",70706,"ListB","man","chinese","SW_C_M_B3","debrief.html",NA,NA,NA,NA,NA,NA,NA,NA,NA
"328278.299999997",NA,NA,"survey-text",286,2143467,"0.0-22.0",70706,"ListB","man","chinese","SW_C_M_B3",NA,NA,NA,NA,"{""ptpt_id"":""SW_C_M_B3""}",NA,NA,NA,NA,"worker_id"
