"rt","stimulus","button_pressed","trial_type","trial_index","time_elapsed","internal_node_id","subject","list","ppt_gender","ppt_language","ptptID","url","first_guess","correct","key_press","responses","image","verb","phrase","condition","test_part"
"3411.800000190740","Welcome to the experiment. Press Continue to begin.",0,"html-button-response",0,3423,"0.0-0.0",71149,"ListB","man","chinese","CMB1",NA,NA,NA,NA,NA,NA,NA,NA,NA,NA
"12657.0999999046",NA,NA,"external-html",1,17382,"0.0-1.0",71149,"ListB","man","chinese","CMB1","consent.html",NA,NA,NA,NA,NA,NA,NA,NA,NA
"22225.3999996185","<p>在下一页中，您将看到8个人物肖像和他们各自的名字。</p><p>请花费几分钟的时间记住这些人物及其所对应的名字。</p><p>之后的实验中需要您对人物的名字做出回忆，</p><p>因此在实验开始前请确保您已 经完全记住这些人物及其所对应的名字。</p><p><strong>然后您将完成一个测试以检验您对人物和名字的记忆。</strong></p><p>完成此记忆测试后，您将正式进入实验。</p><p>准备好了吗？</p>",0,"html-button-response",2,39611,"0.0-2.0",71149,"ListB","man","chinese","CMB1",NA,NA,NA,NA,NA,NA,NA,NA,NA,NA
"144113.400000095","<img src='img/portrait_matrix_listB_chinese.jpg' style='width:900px;height:500px;''></img><p>如果您已经记住了所有的人物和名字，请点击继续。</p><p><strong>请注意：您对先前记忆的面孔将在本实验中被测试5次。</strong></p>",0,"html-button-response",3,184745,"0.0-3.0-0.0",71149,"ListB","man","chinese","CMB1",NA,NA,NA,NA,NA,NA,NA,NA,NA,NA
"6519.599999904630","<img src=""portrait/BM1.jpg""style=""height:400px;""></img>",4,"html-button-response",4,192274,"0.0-3.0-1.0",71149,"ListB","man","chinese","CMB1",NA,TRUE,4,NA,NA,NA,NA,NA,NA,NA
"null","正确",NA,"html-keyboard-response",5,193793,"0.0-3.0-2.0-0.0",71149,"ListB","man","chinese","CMB1",NA,NA,NA,"null",NA,NA,NA,NA,NA,NA
"10049.0999999046","<img src=""portrait/WM1.jpg""style=""height:400px;""></img>",6,"html-button-response",6,203846,"0.0-3.0-4.0",71149,"ListB","man","chinese","CMB1",NA,TRUE,6,NA,NA,NA,NA,NA,NA,NA
"null","正确",NA,"html-keyboard-response",7,205357,"0.0-3.0-5.0-0.0",71149,"ListB","man","chinese","CMB1",NA,NA,NA,"null",NA,NA,NA,NA,NA,NA
"9560","<img src=""portrait/BW1.jpg""style=""height:400px;""></img>",0,"html-button-response",8,214921,"0.0-3.0-7.0",71149,"ListB","man","chinese","CMB1",NA,TRUE,0,NA,NA,NA,NA,NA,NA,NA
"null","正确",NA,"html-keyboard-response",9,216446,"0.0-3.0-8.0-0.0",71149,"ListB","man","chinese","CMB1",NA,NA,NA,"null",NA,NA,NA,NA,NA,NA
"7886.399999618530","<img src=""portrait/BM2.jpg""style=""height:400px;""></img>",5,"html-button-response",10,224335,"0.0-3.0-10.0",71149,"ListB","man","chinese","CMB1",NA,TRUE,5,NA,NA,NA,NA,NA,NA,NA
"null","正确",NA,"html-keyboard-response",11,225867,"0.0-3.0-11.0-0.0",71149,"ListB","man","chinese","CMB1",NA,NA,NA,"null",NA,NA,NA,NA,NA,NA
"4019","<img src=""portrait/WW1.jpg""style=""height:400px;""></img>",1,"html-button-response",12,229889,"0.0-3.0-13.0",71149,"ListB","man","chinese","CMB1",NA,TRUE,1,NA,NA,NA,NA,NA,NA,NA
"null","正确",NA,"html-keyboard-response",13,231420,"0.0-3.0-14.0-0.0",71149,"ListB","man","chinese","CMB1",NA,NA,NA,"null",NA,NA,NA,NA,NA,NA
"2477.5","<img src=""portrait/WM2.jpg""style=""height:400px;""></img>",7,"html-button-response",14,233901,"0.0-3.0-16.0",71149,"ListB","man","chinese","CMB1",NA,TRUE,7,NA,NA,NA,NA,NA,NA,NA
"null","正确",NA,"html-keyboard-response",15,235414,"0.0-3.0-17.0-0.0",71149,"ListB","man","chinese","CMB1",NA,NA,NA,"null",NA,NA,NA,NA,NA,NA
"5539.5","<img src=""portrait/BW2.jpg""style=""height:400px;""></img>",2,"html-button-response",16,240956,"0.0-3.0-19.0",71149,"ListB","man","chinese","CMB1",NA,TRUE,2,NA,NA,NA,NA,NA,NA,NA
"null","正确",NA,"html-keyboard-response",17,242470,"0.0-3.0-20.0-0.0",71149,"ListB","man","chinese","CMB1",NA,NA,NA,"null",NA,NA,NA,NA,NA,NA
"6709.5","<img src=""portrait/WW2.jpg""style=""height:400px;""></img>",3,"html-button-response",18,249182,"0.0-3.0-22.0",71149,"ListB","man","chinese","CMB1",NA,TRUE,3,NA,NA,NA,NA,NA,NA,NA
"null","正确",NA,"html-keyboard-response",19,250709,"0.0-3.0-23.0-0.0",71149,"ListB","man","chinese","CMB1",NA,NA,NA,"null",NA,NA,NA,NA,NA,NA
"2783.400000095370","<p>您第一次在8题里答对了 8 题。 请点击继续</p>",0,"html-button-response",20,253496,"0.0-3.0-25.0",71149,"ListB","man","chinese","CMB1",NA,NA,NA,NA,NA,NA,NA,NA,NA,NA
"48880.8000001907","<p>此次实验您将会看到先前记忆任务里的人物照片。</p><p>人物照片消失后您将看到一个动词短语，请正确回忆人物的名字并用特定的 动词短语组成一句完整的句子。</p><p>请在指定的框内输入您的答案。在进入下一题之前请确保您填写了完整的句子。</p><p>人物照片和动词短语只会在屏幕上出现几秒钟，因此请您答题时尽量集中注意力。</p><p>以下是例子。请您在准备好后按下“继续”。</p><img src='img/chinese_speaking_example.jpg' style='width:800px;height:460px;''></img>",0,"html-button-response",21,303383,"0.0-4.0",71149,"ListB","man","chinese","CMB1",NA,NA,NA,NA,NA,NA,NA,NA,NA,NA
"3877.2000002861","<p>在实验开始前，将为您展示两个示例实验。</p>",0,"html-button-response",22,308278,"0.0-5.0",71149,"ListB","man","chinese","CMB1",NA,NA,NA,NA,NA,NA,NA,NA,NA,NA
"null","<img src='img/meet.gif' style='height:400px;''></img>",NA,"html-keyboard-response",23,311288,"0.0-6.0",71149,"ListB","man","chinese","CMB1",NA,NA,NA,"null",NA,NA,NA,NA,NA,NA
"null","<p>正在约见</p>",NA,"html-keyboard-response",24,313303,"0.0-7.0",71149,"ListB","man","chinese","CMB1",NA,NA,NA,"null",NA,NA,NA,NA,NA,NA
"2859.599999904630","<p><b>答案：</b> 霍普正在约见露丝</p>",0,"html-button-response",25,316164,"0.0-8.0",71149,"ListB","man","chinese","CMB1",NA,NA,NA,NA,NA,NA,NA,NA,NA,NA
"null","<img src='img/spy.gif' style='height:400px;''></img>",NA,"html-keyboard-response",26,319179,"0.0-9.0",71149,"ListB","man","chinese","CMB1",NA,NA,NA,"null",NA,NA,NA,NA,NA,NA
"null","<p>正在监视</p>",NA,"html-keyboard-response",27,321181,"0.0-10.0",71149,"ListB","man","chinese","CMB1",NA,NA,NA,"null",NA,NA,NA,NA,NA,NA
"1854.300000190730","<p><b>答案：</b> 弗雷正在监视麦克</p>",0,"html-button-response",28,323037,"0.0-11.0",71149,"ListB","man","chinese","CMB1",NA,NA,NA,NA,NA,NA,NA,NA,NA,NA
"11872.0999999046","<p>准备好开始了吗？</p><br><p><strong>请记住，您的答案需是一句完整的句子</strong></p><p><strong>，并用给到的图片人物和动词短语作答。</strong></p><p><strong>只有正确并完整完成实验才可获得报酬。</strong></p><p><strong> 您不需要加入任何标点符号。</strong></p><br><p>请按 ‘继续’ 键开始。</p>",0,"html-button-response",29,335925,"0.0-12.0",71149,"ListB","man","chinese","CMB1",NA,NA,NA,NA,NA,NA,NA,NA,NA,NA
"null","<div style=""font-size:60px;"">+</div>",NA,"html-keyboard-response",30,337453,"0.0-13.0-0.0",71149,"ListB","man","chinese","CMB1",NA,NA,NA,"null",NA,NA,NA,NA,NA,NA
"null","<img src='gifs/ChineseGender3b.gif' style='height:400px;''></img>",NA,"html-keyboard-response",31,339468,"0.0-13.0-1.0",71149,"ListB","man","chinese","CMB1",NA,NA,NA,"null",NA,NA,NA,NA,NA,NA
"null","正在面向",NA,"html-keyboard-response",32,342470,"0.0-13.0-2.0",71149,"ListB","man","chinese","CMB1",NA,NA,NA,"null",NA,NA,NA,NA,NA,NA
"26448.7999997139",NA,NA,"survey-text",33,368934,"0.0-13.0-3.0",71149,"ListB","man","chinese","CMB1",NA,NA,NA,NA,"{""Q0"":""戴夫正在面向露丝""}","<img src='gifs/ChineseGender3b.gif' style='height:400px;''></img>","面向","正在面向","chinese",NA
"null","<div style=""font-size:60px;"">+</div>",NA,"html-keyboard-response",34,369450,"0.0-13.0-0.1",71149,"ListB","man","chinese","CMB1",NA,NA,NA,"null",NA,NA,NA,NA,NA,NA
"null","<img src='gifs/BlackGender1b.gif' style='height:400px;''></img>",NA,"html-keyboard-response",35,371458,"0.0-13.0-1.1",71149,"ListB","man","chinese","CMB1",NA,NA,NA,"null",NA,NA,NA,NA,NA,NA
"null","正在介绍",NA,"html-keyboard-response",36,374462,"0.0-13.0-2.1",71149,"ListB","man","chinese","CMB1",NA,NA,NA,"null",NA,NA,NA,NA,NA,NA
"25219.6999998093",NA,NA,"survey-text",37,399685,"0.0-13.0-3.1",71149,"ListB","man","chinese","CMB1",NA,NA,NA,NA,"{""Q0"":""弗雷正在介绍贝斯""}","<img src='gifs/BlackGender1b.gif' style='height:400px;''></img>","介绍","正在介绍","chinese",NA
"null","<div style=""font-size:60px;"">+</div>",NA,"html-keyboard-response",38,400196,"0.0-13.0-0.2",71149,"ListB","man","chinese","CMB1",NA,NA,NA,"null",NA,NA,NA,NA,NA,NA
"null","<img src='gifs/ChineseGender1b.gif' style='height:400px;''></img>",NA,"html-keyboard-response",39,402206,"0.0-13.0-1.2",71149,"ListB","man","chinese","CMB1",NA,NA,NA,"null",NA,NA,NA,NA,NA,NA
"null","正在跟随",NA,"html-keyboard-response",40,405211,"0.0-13.0-2.2",71149,"ListB","man","chinese","CMB1",NA,NA,NA,"null",NA,NA,NA,NA,NA,NA
"18855.5",NA,NA,"survey-text",41,424077,"0.0-13.0-3.2",71149,"ListB","man","chinese","CMB1",NA,NA,NA,NA,"{""Q0"":""卢克正在跟随霍普""}","<img src='gifs/ChineseGender1b.gif' style='height:400px;''></img>","跟随","正在跟随","chinese",NA
"null","<div style=""font-size:60px;"">+</div>",NA,"html-keyboard-response",42,424582,"0.0-13.0-0.3",71149,"ListB","man","chinese","CMB1",NA,NA,NA,"null",NA,NA,NA,NA,NA,NA
"null","<img src='gifs/ChineseGender4a.gif' style='height:400px;''></img>",NA,"html-keyboard-response",43,426591,"0.0-13.0-1.3",71149,"ListB","man","chinese","CMB1",NA,NA,NA,"null",NA,NA,NA,NA,NA,NA
"null","正在走向",NA,"html-keyboard-response",44,429598,"0.0-13.0-2.3",71149,"ListB","man","chinese","CMB1",NA,NA,NA,"null",NA,NA,NA,NA,NA,NA
"7720",NA,NA,"survey-text",45,437321,"0.0-13.0-3.3",71149,"ListB","man","chinese","CMB1",NA,NA,NA,NA,"{""Q0"":""戴夫正在走向霍普""}","<img src='gifs/ChineseGender4a.gif' style='height:400px;''></img>","走向","正在走向","chinese",NA
"null","<div style=""font-size:60px;"">+</div>",NA,"html-keyboard-response",46,437833,"0.0-13.0-0.4",71149,"ListB","man","chinese","CMB1",NA,NA,NA,"null",NA,NA,NA,NA,NA,NA
"null","<img src='gifs/BlackGender3b.gif' style='height:400px;''></img>",NA,"html-keyboard-response",47,439843,"0.0-13.0-1.4",71149,"ListB","man","chinese","CMB1",NA,NA,NA,"null",NA,NA,NA,NA,NA,NA
"null","正在接近",NA,"html-keyboard-response",48,442849,"0.0-13.0-2.4",71149,"ListB","man","chinese","CMB1",NA,NA,NA,"null",NA,NA,NA,NA,NA,NA
"24474.0999999046",NA,NA,"survey-text",49,467326,"0.0-13.0-3.4",71149,"ListB","man","chinese","CMB1",NA,NA,NA,NA,"{""Q0"":""麦克正在接近凯特""}","<img src='gifs/BlackGender3b.gif' style='height:400px;''></img>","接近","正在接近","chinese",NA
"null","<div style=""font-size:60px;"">+</div>",NA,"html-keyboard-response",50,467843,"0.0-13.0-0.5",71149,"ListB","man","chinese","CMB1",NA,NA,NA,"null",NA,NA,NA,NA,NA,NA
"null","<img src='gifs/MaleRace2a.gif' style='height:400px;''></img>",NA,"html-keyboard-response",51,469857,"0.0-13.0-1.5",71149,"ListB","man","chinese","CMB1",NA,NA,NA,"null",NA,NA,NA,NA,NA,NA
"null","正在答应",NA,"html-keyboard-response",52,472859,"0.0-13.0-2.5",71149,"ListB","man","chinese","CMB1",NA,NA,NA,"null",NA,NA,NA,NA,NA,NA
"14084.3000001907",NA,NA,"survey-text",53,486947,"0.0-13.0-3.5",71149,"ListB","man","chinese","CMB1",NA,NA,NA,NA,"{""Q0"":""卢克正在答应麦克""}","<img src='gifs/MaleRace2a.gif' style='height:400px;''></img>","答应","正在答应","chinese",NA
"null","<div style=""font-size:60px;"">+</div>",NA,"html-keyboard-response",54,487459,"0.0-13.0-0.6",71149,"ListB","man","chinese","CMB1",NA,NA,NA,"null",NA,NA,NA,NA,NA,NA
"null","<img src='gifs/BlackGender1b.gif' style='height:400px;''></img>",NA,"html-keyboard-response",55,489468,"0.0-13.0-1.6",71149,"ListB","man","chinese","CMB1",NA,NA,NA,"null",NA,NA,NA,NA,NA,NA
"null","正在介绍",NA,"html-keyboard-response",56,492478,"0.0-13.0-2.6",71149,"ListB","man","chinese","CMB1",NA,NA,NA,"null",NA,NA,NA,NA,NA,NA
"66961.5",NA,NA,"survey-text",57,559445,"0.0-13.0-3.6",71149,"ListB","man","chinese","CMB1",NA,NA,NA,NA,"{""Q0"":""弗雷正在介绍贝斯""}","<img src='gifs/BlackGender1b.gif' style='height:400px;''></img>","介绍","正在介绍","chinese",NA
"null","<div style=""font-size:60px;"">+</div>",NA,"html-keyboard-response",58,559960,"0.0-13.0-0.7",71149,"ListB","man","chinese","CMB1",NA,NA,NA,"null",NA,NA,NA,NA,NA,NA
"null","<img src='gifs/MaleRace3b.gif' style='height:400px;''></img>",NA,"html-keyboard-response",59,561978,"0.0-13.0-1.7",71149,"ListB","man","chinese","CMB1",NA,NA,NA,"null",NA,NA,NA,NA,NA,NA
"null","正在表扬",NA,"html-keyboard-response",60,564993,"0.0-13.0-2.7",71149,"ListB","man","chinese","CMB1",NA,NA,NA,"null",NA,NA,NA,NA,NA,NA
"10574.5",NA,NA,"survey-text",61,575572,"0.0-13.0-3.7",71149,"ListB","man","chinese","CMB1",NA,NA,NA,NA,"{""Q0"":""戴夫正在表扬弗雷""}","<img src='gifs/MaleRace3b.gif' style='height:400px;''></img>","表扬","正在表扬","chinese",NA
"null","<div style=""font-size:60px;"">+</div>",NA,"html-keyboard-response",62,576092,"0.0-13.0-0.8",71149,"ListB","man","chinese","CMB1",NA,NA,NA,"null",NA,NA,NA,NA,NA,NA
"null","<img src='gifs/BlackGender1a.gif' style='height:400px;''></img>",NA,"html-keyboard-response",63,578096,"0.0-13.0-1.8",71149,"ListB","man","chinese","CMB1",NA,NA,NA,"null",NA,NA,NA,NA,NA,NA
"null","正在介绍",NA,"html-keyboard-response",64,581111,"0.0-13.0-2.8",71149,"ListB","man","chinese","CMB1",NA,NA,NA,"null",NA,NA,NA,NA,NA,NA
"15495.8000001907",NA,NA,"survey-text",65,596613,"0.0-13.0-3.8",71149,"ListB","man","chinese","CMB1",NA,NA,NA,NA,"{""Q0"":""贝斯正在介绍弗雷""}","<img src='gifs/BlackGender1a.gif' style='height:400px;''></img>","介绍","正在介绍","chinese",NA
"null","<div style=""font-size:60px;"">+</div>",NA,"html-keyboard-response",66,597130,"0.0-13.0-0.9",71149,"ListB","man","chinese","CMB1",NA,NA,NA,"null",NA,NA,NA,NA,NA,NA
"null","<img src='gifs/MaleRace4a.gif' style='height:400px;''></img>",NA,"html-keyboard-response",67,599142,"0.0-13.0-1.9",71149,"ListB","man","chinese","CMB1",NA,NA,NA,"null",NA,NA,NA,NA,NA,NA
"null","正在走向",NA,"html-keyboard-response",68,602149,"0.0-13.0-2.9",71149,"ListB","man","chinese","CMB1",NA,NA,NA,"null",NA,NA,NA,NA,NA,NA
"11318",NA,NA,"survey-text",69,613470,"0.0-13.0-3.9",71149,"ListB","man","chinese","CMB1",NA,NA,NA,NA,"{""Q0"":""戴夫正在走向麦克""}","<img src='gifs/MaleRace4a.gif' style='height:400px;''></img>","走向","正在走向","chinese",NA
"null","<div style=""font-size:60px;"">+</div>",NA,"html-keyboard-response",70,613988,"0.0-13.0-0.10",71149,"ListB","man","chinese","CMB1",NA,NA,NA,"null",NA,NA,NA,NA,NA,NA
"null","<img src='gifs/FemaleRace3a.gif' style='height:400px;''></img>",NA,"html-keyboard-response",71,615995,"0.0-13.0-1.10",71149,"ListB","man","chinese","CMB1",NA,NA,NA,"null",NA,NA,NA,NA,NA,NA
"null","正在聆听",NA,"html-keyboard-response",72,618997,"0.0-13.0-2.10",71149,"ListB","man","chinese","CMB1",NA,NA,NA,"null",NA,NA,NA,NA,NA,NA
"37622.6999998093",NA,NA,"survey-text",73,656620,"0.0-13.0-3.10",71149,"ListB","man","chinese","CMB1",NA,NA,NA,NA,"{""Q0"":""贝斯正在聆听露丝""}","<img src='gifs/FemaleRace3a.gif' style='height:400px;''></img>","聆听","正在聆听","chinese",NA
"null","<div style=""font-size:60px;"">+</div>",NA,"html-keyboard-response",74,657136,"0.0-13.0-0.11",71149,"ListB","man","chinese","CMB1",NA,NA,NA,"null",NA,NA,NA,NA,NA,NA
"null","<img src='gifs/ChineseGender3a.gif' style='height:400px;''></img>",NA,"html-keyboard-response",75,659154,"0.0-13.0-1.11",71149,"ListB","man","chinese","CMB1",NA,NA,NA,"null",NA,NA,NA,NA,NA,NA
"null","正在提到",NA,"html-keyboard-response",76,662158,"0.0-13.0-2.11",71149,"ListB","man","chinese","CMB1",NA,NA,NA,"null",NA,NA,NA,NA,NA,NA
"13278.4000000954",NA,NA,"survey-text",77,675439,"0.0-13.0-3.11",71149,"ListB","man","chinese","CMB1",NA,NA,NA,NA,"{""Q0"":""戴夫正在提到露丝""}","<img src='gifs/ChineseGender3a.gif' style='height:400px;''></img>","提到","正在提到","chinese",NA
"null","<div style=""font-size:60px;"">+</div>",NA,"html-keyboard-response",78,675951,"0.0-13.0-0.12",71149,"ListB","man","chinese","CMB1",NA,NA,NA,"null",NA,NA,NA,NA,NA,NA
"null","<img src='gifs/ChineseGender3b.gif' style='height:400px;''></img>",NA,"html-keyboard-response",79,677957,"0.0-13.0-1.12",71149,"ListB","man","chinese","CMB1",NA,NA,NA,"null",NA,NA,NA,NA,NA,NA
"null","正在陪伴",NA,"html-keyboard-response",80,680974,"0.0-13.0-2.12",71149,"ListB","man","chinese","CMB1",NA,NA,NA,"null",NA,NA,NA,NA,NA,NA
"6798.300000190740",NA,NA,"survey-text",81,687775,"0.0-13.0-3.12",71149,"ListB","man","chinese","CMB1",NA,NA,NA,NA,"{""Q0"":""戴夫正在陪伴露丝""}","<img src='gifs/ChineseGender3b.gif' style='height:400px;''></img>","陪伴","正在陪伴","chinese",NA
"null","<div style=""font-size:60px;"">+</div>",NA,"html-keyboard-response",82,688291,"0.0-13.0-0.13",71149,"ListB","man","chinese","CMB1",NA,NA,NA,"null",NA,NA,NA,NA,NA,NA
"null","<img src='gifs/MaleRace2b.gif' style='height:400px;''></img>",NA,"html-keyboard-response",83,690303,"0.0-13.0-1.13",71149,"ListB","man","chinese","CMB1",NA,NA,NA,"null",NA,NA,NA,NA,NA,NA
"null","正在跟随",NA,"html-keyboard-response",84,693307,"0.0-13.0-2.13",71149,"ListB","man","chinese","CMB1",NA,NA,NA,"null",NA,NA,NA,NA,NA,NA
"9319.599999904631",NA,NA,"survey-text",85,702634,"0.0-13.0-3.13",71149,"ListB","man","chinese","CMB1",NA,NA,NA,NA,"{""Q0"":""卢克正在跟随麦克""}","<img src='gifs/MaleRace2b.gif' style='height:400px;''></img>","跟随","正在跟随","chinese",NA
"null","<div style=""font-size:60px;"">+</div>",NA,"html-keyboard-response",86,703138,"0.0-13.0-0.14",71149,"ListB","man","chinese","CMB1",NA,NA,NA,"null",NA,NA,NA,NA,NA,NA
"null","<img src='gifs/FemaleRace4a.gif' style='height:400px;''></img>",NA,"html-keyboard-response",87,705144,"0.0-13.0-1.14",71149,"ListB","man","chinese","CMB1",NA,NA,NA,"null",NA,NA,NA,NA,NA,NA
"null","正在答应",NA,"html-keyboard-response",88,708147,"0.0-13.0-2.14",71149,"ListB","man","chinese","CMB1",NA,NA,NA,"null",NA,NA,NA,NA,NA,NA
"17221.2000002861",NA,NA,"survey-text",89,725372,"0.0-13.0-3.14",71149,"ListB","man","chinese","CMB1",NA,NA,NA,NA,"{""Q0"":""凯特正在答应露丝""}","<img src='gifs/FemaleRace4a.gif' style='height:400px;''></img>","答应","正在答应","chinese",NA
"null","<div style=""font-size:60px;"">+</div>",NA,"html-keyboard-response",90,725887,"0.0-13.0-0.15",71149,"ListB","man","chinese","CMB1",NA,NA,NA,"null",NA,NA,NA,NA,NA,NA
"null","<img src='gifs/BlackGender2a.gif' style='height:400px;''></img>",NA,"html-keyboard-response",91,727890,"0.0-13.0-1.15",71149,"ListB","man","chinese","CMB1",NA,NA,NA,"null",NA,NA,NA,NA,NA,NA
"null","正在聆听",NA,"html-keyboard-response",92,730908,"0.0-13.0-2.15",71149,"ListB","man","chinese","CMB1",NA,NA,NA,"null",NA,NA,NA,NA,NA,NA
"13867.3000001907",NA,NA,"survey-text",93,744779,"0.0-13.0-3.15",71149,"ListB","man","chinese","CMB1",NA,NA,NA,NA,"{""Q0"":""贝斯正在聆听麦克""}","<img src='gifs/BlackGender2a.gif' style='height:400px;''></img>","聆听","正在聆听","chinese",NA
"null","<div style=""font-size:60px;"">+</div>",NA,"html-keyboard-response",94,745286,"0.0-13.0-0.16",71149,"ListB","man","chinese","CMB1",NA,NA,NA,"null",NA,NA,NA,NA,NA,NA
"null","<img src='gifs/BlackGender3a.gif' style='height:400px;''></img>",NA,"html-keyboard-response",95,747298,"0.0-13.0-1.16",71149,"ListB","man","chinese","CMB1",NA,NA,NA,"null",NA,NA,NA,NA,NA,NA
"null","正在说服",NA,"html-keyboard-response",96,750309,"0.0-13.0-2.16",71149,"ListB","man","chinese","CMB1",NA,NA,NA,"null",NA,NA,NA,NA,NA,NA
"14726.5",NA,NA,"survey-text",97,765036,"0.0-13.0-3.16",71149,"ListB","man","chinese","CMB1",NA,NA,NA,NA,"{""Q0"":""凯特正在说服弗雷""}","<img src='gifs/BlackGender3a.gif' style='height:400px;''></img>","说服","正在说服","chinese",NA
"null","<div style=""font-size:60px;"">+</div>",NA,"html-keyboard-response",98,765541,"0.0-13.0-0.17",71149,"ListB","man","chinese","CMB1",NA,NA,NA,"null",NA,NA,NA,NA,NA,NA
"null","<img src='gifs/FemaleRace3b.gif' style='height:400px;''></img>",NA,"html-keyboard-response",99,767546,"0.0-13.0-1.17",71149,"ListB","man","chinese","CMB1",NA,NA,NA,"null",NA,NA,NA,NA,NA,NA
"null","正在走向",NA,"html-keyboard-response",100,770549,"0.0-13.0-2.17",71149,"ListB","man","chinese","CMB1",NA,NA,NA,"null",NA,NA,NA,NA,NA,NA
"9425.599999904631",NA,NA,"survey-text",101,779978,"0.0-13.0-3.17",71149,"ListB","man","chinese","CMB1",NA,NA,NA,NA,"{""Q0"":""露丝正在走向凯特""}","<img src='gifs/FemaleRace3b.gif' style='height:400px;''></img>","走向","正在走向","chinese",NA
"19391139.5999999","<img src='img/portrait_matrix_listB_chinese.jpg' style='width:900px;height:500px;''></img><p>如果您已经记住了所有的人物和名字，请点击继续。</p><p><strong>请注意：您对先前记忆的面孔将在本实验中被测试5次。</strong></p>",0,"html-button-response",102,20167150,"0.0-14.0-0.0",71149,"ListB","man","chinese","CMB1",NA,NA,NA,NA,NA,NA,NA,NA,NA,NA
"6533.599999904630","<img src=""portrait/BW1.jpg""style=""height:400px;""></img>",0,"html-button-response",103,20174720,"0.0-14.0-1.0",71149,"ListB","man","chinese","CMB1",NA,TRUE,0,NA,NA,NA,NA,NA,NA,NA
"null","正确",NA,"html-keyboard-response",104,20176237,"0.0-14.0-2.0-0.0",71149,"ListB","man","chinese","CMB1",NA,NA,NA,"null",NA,NA,NA,NA,NA,NA
"4544.199999809270","<img src=""portrait/WW1.jpg""style=""height:400px;""></img>",1,"html-button-response",105,20180787,"0.0-14.0-4.0",71149,"ListB","man","chinese","CMB1",NA,TRUE,1,NA,NA,NA,NA,NA,NA,NA
"null","正确",NA,"html-keyboard-response",106,20182301,"0.0-14.0-5.0-0.0",71149,"ListB","man","chinese","CMB1",NA,NA,NA,"null",NA,NA,NA,NA,NA,NA
"2727.7000002861","<img src=""portrait/WM2.jpg""style=""height:400px;""></img>",7,"html-button-response",107,20185034,"0.0-14.0-7.0",71149,"ListB","man","chinese","CMB1",NA,TRUE,7,NA,NA,NA,NA,NA,NA,NA
"null","正确",NA,"html-keyboard-response",108,20186556,"0.0-14.0-8.0-0.0",71149,"ListB","man","chinese","CMB1",NA,NA,NA,"null",NA,NA,NA,NA,NA,NA
"3637.300000190740","<img src=""portrait/WM1.jpg""style=""height:400px;""></img>",6,"html-button-response",109,20190198,"0.0-14.0-10.0",71149,"ListB","man","chinese","CMB1",NA,TRUE,6,NA,NA,NA,NA,NA,NA,NA
"null","正确",NA,"html-keyboard-response",110,20191725,"0.0-14.0-11.0-0.0",71149,"ListB","man","chinese","CMB1",NA,NA,NA,"null",NA,NA,NA,NA,NA,NA
"3221","<img src=""portrait/WW2.jpg""style=""height:400px;""></img>",3,"html-button-response",111,20194950,"0.0-14.0-13.0",71149,"ListB","man","chinese","CMB1",NA,TRUE,3,NA,NA,NA,NA,NA,NA,NA
"null","正确",NA,"html-keyboard-response",112,20196471,"0.0-14.0-14.0-0.0",71149,"ListB","man","chinese","CMB1",NA,NA,NA,"null",NA,NA,NA,NA,NA,NA
"3181.900000095370","<img src=""portrait/BM1.jpg""style=""height:400px;""></img>",4,"html-button-response",113,20199656,"0.0-14.0-16.0",71149,"ListB","man","chinese","CMB1",NA,TRUE,4,NA,NA,NA,NA,NA,NA,NA
"null","正确",NA,"html-keyboard-response",114,20201168,"0.0-14.0-17.0-0.0",71149,"ListB","man","chinese","CMB1",NA,NA,NA,"null",NA,NA,NA,NA,NA,NA
"9871.400000095369","<img src=""portrait/BM2.jpg""style=""height:400px;""></img>",5,"html-button-response",115,20211043,"0.0-14.0-19.0",71149,"ListB","man","chinese","CMB1",NA,TRUE,5,NA,NA,NA,NA,NA,NA,NA
"null","正确",NA,"html-keyboard-response",116,20212560,"0.0-14.0-20.0-0.0",71149,"ListB","man","chinese","CMB1",NA,NA,NA,"null",NA,NA,NA,NA,NA,NA
"3038.599999904630","<img src=""portrait/BW2.jpg""style=""height:400px;""></img>",2,"html-button-response",117,20215602,"0.0-14.0-22.0",71149,"ListB","man","chinese","CMB1",NA,TRUE,2,NA,NA,NA,NA,NA,NA,NA
"null","正确",NA,"html-keyboard-response",118,20217123,"0.0-14.0-23.0-0.0",71149,"ListB","man","chinese","CMB1",NA,NA,NA,"null",NA,NA,NA,NA,NA,NA
"1418.2999997139","<p>您第一次在8题里答对了 8 题。 请点击继续</p>",0,"html-button-response",119,20218548,"0.0-14.0-25.0",71149,"ListB","man","chinese","CMB1",NA,NA,NA,NA,NA,NA,NA,NA,NA,NA
"null","<div style=""font-size:60px;"">+</div>",NA,"html-keyboard-response",120,20220061,"0.0-15.0-0.0",71149,"ListB","man","chinese","CMB1",NA,NA,NA,"null",NA,NA,NA,NA,NA,NA
"null","<img src='gifs/MaleRace4b.gif' style='height:400px;''></img>",NA,"html-keyboard-response",121,20222078,"0.0-15.0-1.0",71149,"ListB","man","chinese","CMB1",NA,NA,NA,"null",NA,NA,NA,NA,NA,NA
"null","正在面向",NA,"html-keyboard-response",122,20225080,"0.0-15.0-2.0",71149,"ListB","man","chinese","CMB1",NA,NA,NA,"null",NA,NA,NA,NA,NA,NA
"53152.0999999046",NA,NA,"survey-text",123,20278252,"0.0-15.0-3.0",71149,"ListB","man","chinese","CMB1",NA,NA,NA,NA,"{""Q0"":""麦克正在面对戴夫""}","<img src='gifs/MaleRace4b.gif' style='height:400px;''></img>","面向","正在面向","chinese",NA
"null","<div style=""font-size:60px;"">+</div>",NA,"html-keyboard-response",124,20278762,"0.0-15.0-0.1",71149,"ListB","man","chinese","CMB1",NA,NA,NA,"null",NA,NA,NA,NA,NA,NA
"null","<img src='gifs/MaleRace1b.gif' style='height:400px;''></img>",NA,"html-keyboard-response",125,20280777,"0.0-15.0-1.1",71149,"ListB","man","chinese","CMB1",NA,NA,NA,"null",NA,NA,NA,NA,NA,NA
"null","正在触摸",NA,"html-keyboard-response",126,20283795,"0.0-15.0-2.1",71149,"ListB","man","chinese","CMB1",NA,NA,NA,"null",NA,NA,NA,NA,NA,NA
"19464.7000002861",NA,NA,"survey-text",127,20303270,"0.0-15.0-3.1",71149,"ListB","man","chinese","CMB1",NA,NA,NA,NA,"{""Q0"":""弗雷正在触摸卢克""}","<img src='gifs/MaleRace1b.gif' style='height:400px;''></img>","触摸","正在触摸","chinese",NA
"null","<div style=""font-size:60px;"">+</div>",NA,"html-keyboard-response",128,20303779,"0.0-15.0-0.2",71149,"ListB","man","chinese","CMB1",NA,NA,NA,"null",NA,NA,NA,NA,NA,NA
"null","<img src='gifs/BlackGender4b.gif' style='height:400px;''></img>",NA,"html-keyboard-response",129,20305788,"0.0-15.0-1.2",71149,"ListB","man","chinese","CMB1",NA,NA,NA,"null",NA,NA,NA,NA,NA,NA
"null","正在答应",NA,"html-keyboard-response",130,20308803,"0.0-15.0-2.2",71149,"ListB","man","chinese","CMB1",NA,NA,NA,"null",NA,NA,NA,NA,NA,NA
"20333.4000000954",NA,NA,"survey-text",131,20329141,"0.0-15.0-3.2",71149,"ListB","man","chinese","CMB1",NA,NA,NA,NA,"{""Q0"":""麦克正在答应凯特""}","<img src='gifs/BlackGender4b.gif' style='height:400px;''></img>","答应","正在答应","chinese",NA
"null","<div style=""font-size:60px;"">+</div>",NA,"html-keyboard-response",132,20329659,"0.0-15.0-0.3",71149,"ListB","man","chinese","CMB1",NA,NA,NA,"null",NA,NA,NA,NA,NA,NA
"null","<img src='gifs/MaleRace2a.gif' style='height:400px;''></img>",NA,"html-keyboard-response",133,20331665,"0.0-15.0-1.3",71149,"ListB","man","chinese","CMB1",NA,NA,NA,"null",NA,NA,NA,NA,NA,NA
"null","正在聆听",NA,"html-keyboard-response",134,20334669,"0.0-15.0-2.3",71149,"ListB","man","chinese","CMB1",NA,NA,NA,"null",NA,NA,NA,NA,NA,NA
"8245.199999809271",NA,NA,"survey-text",135,20342918,"0.0-15.0-3.3",71149,"ListB","man","chinese","CMB1",NA,NA,NA,NA,"{""Q0"":""麦克正在聆听卢克""}","<img src='gifs/MaleRace2a.gif' style='height:400px;''></img>","聆听","正在聆听","chinese",NA
"null","<div style=""font-size:60px;"">+</div>",NA,"html-keyboard-response",136,20343435,"0.0-15.0-0.4",71149,"ListB","man","chinese","CMB1",NA,NA,NA,"null",NA,NA,NA,NA,NA,NA
"null","<img src='gifs/MaleRace4b.gif' style='height:400px;''></img>",NA,"html-keyboard-response",137,20345447,"0.0-15.0-1.4",71149,"ListB","man","chinese","CMB1",NA,NA,NA,"null",NA,NA,NA,NA,NA,NA
"null","正在联系",NA,"html-keyboard-response",138,20348450,"0.0-15.0-2.4",71149,"ListB","man","chinese","CMB1",NA,NA,NA,"null",NA,NA,NA,NA,NA,NA
"17026.0999999046",NA,NA,"survey-text",139,20365485,"0.0-15.0-3.4",71149,"ListB","man","chinese","CMB1",NA,NA,NA,NA,"{""Q0"":""戴夫正在联系麦克""}","<img src='gifs/MaleRace4b.gif' style='height:400px;''></img>","联系","正在联系","chinese",NA
"null","<div style=""font-size:60px;"">+</div>",NA,"html-keyboard-response",140,20366000,"0.0-15.0-0.5",71149,"ListB","man","chinese","CMB1",NA,NA,NA,"null",NA,NA,NA,NA,NA,NA
"null","<img src='gifs/ChineseGender2b.gif' style='height:400px;''></img>",NA,"html-keyboard-response",141,20368011,"0.0-15.0-1.5",71149,"ListB","man","chinese","CMB1",NA,NA,NA,"null",NA,NA,NA,NA,NA,NA
"null","正在说服",NA,"html-keyboard-response",142,20371013,"0.0-15.0-2.5",71149,"ListB","man","chinese","CMB1",NA,NA,NA,"null",NA,NA,NA,NA,NA,NA
"9166.399999618530",NA,NA,"survey-text",143,20380184,"0.0-15.0-3.5",71149,"ListB","man","chinese","CMB1",NA,NA,NA,NA,"{""Q0"":""露丝正在说服卢克""}","<img src='gifs/ChineseGender2b.gif' style='height:400px;''></img>","说服","正在说服","chinese",NA
"null","<div style=""font-size:60px;"">+</div>",NA,"html-keyboard-response",144,20380701,"0.0-15.0-0.6",71149,"ListB","man","chinese","CMB1",NA,NA,NA,"null",NA,NA,NA,NA,NA,NA
"null","<img src='gifs/FemaleRace3b.gif' style='height:400px;''></img>",NA,"html-keyboard-response",145,20382706,"0.0-15.0-1.6",71149,"ListB","man","chinese","CMB1",NA,NA,NA,"null",NA,NA,NA,NA,NA,NA
"null","正在聘用",NA,"html-keyboard-response",146,20385712,"0.0-15.0-2.6",71149,"ListB","man","chinese","CMB1",NA,NA,NA,"null",NA,NA,NA,NA,NA,NA
"11377.9000000954",NA,NA,"survey-text",147,20397094,"0.0-15.0-3.6",71149,"ListB","man","chinese","CMB1",NA,NA,NA,NA,"{""Q0"":""凯特正在聘用露丝""}","<img src='gifs/FemaleRace3b.gif' style='height:400px;''></img>","聘用","正在聘用","chinese",NA
"null","<div style=""font-size:60px;"">+</div>",NA,"html-keyboard-response",148,20397604,"0.0-15.0-0.7",71149,"ListB","man","chinese","CMB1",NA,NA,NA,"null",NA,NA,NA,NA,NA,NA
"null","<img src='gifs/FemaleRace3a.gif' style='height:400px;''></img>",NA,"html-keyboard-response",149,20399625,"0.0-15.0-1.7",71149,"ListB","man","chinese","CMB1",NA,NA,NA,"null",NA,NA,NA,NA,NA,NA
"null","正在聘用",NA,"html-keyboard-response",150,20402628,"0.0-15.0-2.7",71149,"ListB","man","chinese","CMB1",NA,NA,NA,"null",NA,NA,NA,NA,NA,NA
"9410.900000095369",NA,NA,"survey-text",151,20412043,"0.0-15.0-3.7",71149,"ListB","man","chinese","CMB1",NA,NA,NA,NA,"{""Q0"":""露丝正在聘用凯特""}","<img src='gifs/FemaleRace3a.gif' style='height:400px;''></img>","聘用","正在聘用","chinese",NA
"null","<div style=""font-size:60px;"">+</div>",NA,"html-keyboard-response",152,20412548,"0.0-15.0-0.8",71149,"ListB","man","chinese","CMB1",NA,NA,NA,"null",NA,NA,NA,NA,NA,NA
"null","<img src='gifs/FemaleRace2a.gif' style='height:400px;''></img>",NA,"html-keyboard-response",153,20414568,"0.0-15.0-1.8",71149,"ListB","man","chinese","CMB1",NA,NA,NA,"null",NA,NA,NA,NA,NA,NA
"null","正在提到",NA,"html-keyboard-response",154,20417582,"0.0-15.0-2.8",71149,"ListB","man","chinese","CMB1",NA,NA,NA,"null",NA,NA,NA,NA,NA,NA
"28884.2999997139",NA,NA,"survey-text",155,20446470,"0.0-15.0-3.8",71149,"ListB","man","chinese","CMB1",NA,NA,NA,NA,"{""Q0"":""凯特正在提到露丝""}","<img src='gifs/FemaleRace2a.gif' style='height:400px;''></img>","提到","正在提到","chinese",NA
"null","<div style=""font-size:60px;"">+</div>",NA,"html-keyboard-response",156,20446976,"0.0-15.0-0.9",71149,"ListB","man","chinese","CMB1",NA,NA,NA,"null",NA,NA,NA,NA,NA,NA
"null","<img src='gifs/MaleRace1a.gif' style='height:400px;''></img>",NA,"html-keyboard-response",157,20448995,"0.0-15.0-1.9",71149,"ListB","man","chinese","CMB1",NA,NA,NA,"null",NA,NA,NA,NA,NA,NA
"null","正在陪伴",NA,"html-keyboard-response",158,20452003,"0.0-15.0-2.9",71149,"ListB","man","chinese","CMB1",NA,NA,NA,"null",NA,NA,NA,NA,NA,NA
"5629.300000190740",NA,NA,"survey-text",159,20457636,"0.0-15.0-3.9",71149,"ListB","man","chinese","CMB1",NA,NA,NA,NA,"{""Q0"":""卢克正在陪伴弗雷""}","<img src='gifs/MaleRace1a.gif' style='height:400px;''></img>","陪伴","正在陪伴","chinese",NA
"null","<div style=""font-size:60px;"">+</div>",NA,"html-keyboard-response",160,20458147,"0.0-15.0-0.10",71149,"ListB","man","chinese","CMB1",NA,NA,NA,"null",NA,NA,NA,NA,NA,NA
"null","<img src='gifs/FemaleRace1b.gif' style='height:400px;''></img>",NA,"html-keyboard-response",161,20460157,"0.0-15.0-1.10",71149,"ListB","man","chinese","CMB1",NA,NA,NA,"null",NA,NA,NA,NA,NA,NA
"null","正在聘用",NA,"html-keyboard-response",162,20463172,"0.0-15.0-2.10",71149,"ListB","man","chinese","CMB1",NA,NA,NA,"null",NA,NA,NA,NA,NA,NA
"8360.400000095369",NA,NA,"survey-text",163,20471537,"0.0-15.0-3.10",71149,"ListB","man","chinese","CMB1",NA,NA,NA,NA,"{""Q0"":""霍普正在聘用贝斯""}","<img src='gifs/FemaleRace1b.gif' style='height:400px;''></img>","聘用","正在聘用","chinese",NA
"null","<div style=""font-size:60px;"">+</div>",NA,"html-keyboard-response",164,20472050,"0.0-15.0-0.11",71149,"ListB","man","chinese","CMB1",NA,NA,NA,"null",NA,NA,NA,NA,NA,NA
"null","<img src='gifs/ChineseGender2b.gif' style='height:400px;''></img>",NA,"html-keyboard-response",165,20474064,"0.0-15.0-1.11",71149,"ListB","man","chinese","CMB1",NA,NA,NA,"null",NA,NA,NA,NA,NA,NA
"null","正在聘用",NA,"html-keyboard-response",166,20477072,"0.0-15.0-2.11",71149,"ListB","man","chinese","CMB1",NA,NA,NA,"null",NA,NA,NA,NA,NA,NA
"9648.800000190740",NA,NA,"survey-text",167,20486725,"0.0-15.0-3.11",71149,"ListB","man","chinese","CMB1",NA,NA,NA,NA,"{""Q0"":""卢克正在聘用露丝""}","<img src='gifs/ChineseGender2b.gif' style='height:400px;''></img>","聘用","正在聘用","chinese",NA
"null","<div style=""font-size:60px;"">+</div>",NA,"html-keyboard-response",168,20487244,"0.0-15.0-0.12",71149,"ListB","man","chinese","CMB1",NA,NA,NA,"null",NA,NA,NA,NA,NA,NA
"null","<img src='gifs/ChineseGender4a.gif' style='height:400px;''></img>",NA,"html-keyboard-response",169,20489248,"0.0-15.0-1.12",71149,"ListB","man","chinese","CMB1",NA,NA,NA,"null",NA,NA,NA,NA,NA,NA
"null","正在答应",NA,"html-keyboard-response",170,20492250,"0.0-15.0-2.12",71149,"ListB","man","chinese","CMB1",NA,NA,NA,"null",NA,NA,NA,NA,NA,NA
"10324.8000001907",NA,NA,"survey-text",171,20502579,"0.0-15.0-3.12",71149,"ListB","man","chinese","CMB1",NA,NA,NA,NA,"{""Q0"":""霍普正在说服戴夫""}","<img src='gifs/ChineseGender4a.gif' style='height:400px;''></img>","答应","正在答应","chinese",NA
"null","<div style=""font-size:60px;"">+</div>",NA,"html-keyboard-response",172,20503097,"0.0-15.0-0.13",71149,"ListB","man","chinese","CMB1",NA,NA,NA,"null",NA,NA,NA,NA,NA,NA
"null","<img src='gifs/BlackGender3b.gif' style='height:400px;''></img>",NA,"html-keyboard-response",173,20505107,"0.0-15.0-1.13",71149,"ListB","man","chinese","CMB1",NA,NA,NA,"null",NA,NA,NA,NA,NA,NA
"null","正在聆听",NA,"html-keyboard-response",174,20508110,"0.0-15.0-2.13",71149,"ListB","man","chinese","CMB1",NA,NA,NA,"null",NA,NA,NA,NA,NA,NA
"13244.4000000954",NA,NA,"survey-text",175,20521360,"0.0-15.0-3.13",71149,"ListB","man","chinese","CMB1",NA,NA,NA,NA,"{""Q0"":""凯特正在聆听弗雷""}","<img src='gifs/BlackGender3b.gif' style='height:400px;''></img>","聆听","正在聆听","chinese",NA
"null","<div style=""font-size:60px;"">+</div>",NA,"html-keyboard-response",176,20521865,"0.0-15.0-0.14",71149,"ListB","man","chinese","CMB1",NA,NA,NA,"null",NA,NA,NA,NA,NA,NA
"null","<img src='gifs/BlackGender2a.gif' style='height:400px;''></img>",NA,"html-keyboard-response",177,20523875,"0.0-15.0-1.14",71149,"ListB","man","chinese","CMB1",NA,NA,NA,"null",NA,NA,NA,NA,NA,NA
"null","正在联系",NA,"html-keyboard-response",178,20526878,"0.0-15.0-2.14",71149,"ListB","man","chinese","CMB1",NA,NA,NA,"null",NA,NA,NA,NA,NA,NA
"5497",NA,NA,"survey-text",179,20532379,"0.0-15.0-3.14",71149,"ListB","man","chinese","CMB1",NA,NA,NA,NA,"{""Q0"":""麦克正在联系贝斯""}","<img src='gifs/BlackGender2a.gif' style='height:400px;''></img>","联系","正在联系","chinese",NA
"null","<div style=""font-size:60px;"">+</div>",NA,"html-keyboard-response",180,20532888,"0.0-15.0-0.15",71149,"ListB","man","chinese","CMB1",NA,NA,NA,"null",NA,NA,NA,NA,NA,NA
"null","<img src='gifs/MaleRace3a.gif' style='height:400px;''></img>",NA,"html-keyboard-response",181,20534898,"0.0-15.0-1.15",71149,"ListB","man","chinese","CMB1",NA,NA,NA,"null",NA,NA,NA,NA,NA,NA
"null","正在跟随",NA,"html-keyboard-response",182,20537916,"0.0-15.0-2.15",71149,"ListB","man","chinese","CMB1",NA,NA,NA,"null",NA,NA,NA,NA,NA,NA
"10208.6999998093",NA,NA,"survey-text",183,20548129,"0.0-15.0-3.15",71149,"ListB","man","chinese","CMB1",NA,NA,NA,NA,"{""Q0"":""戴夫正在跟随弗雷""}","<img src='gifs/MaleRace3a.gif' style='height:400px;''></img>","跟随","正在跟随","chinese",NA
"null","<div style=""font-size:60px;"">+</div>",NA,"html-keyboard-response",184,20548641,"0.0-15.0-0.16",71149,"ListB","man","chinese","CMB1",NA,NA,NA,"null",NA,NA,NA,NA,NA,NA
"null","<img src='gifs/BlackGender4a.gif' style='height:400px;''></img>",NA,"html-keyboard-response",185,20550653,"0.0-15.0-1.16",71149,"ListB","man","chinese","CMB1",NA,NA,NA,"null",NA,NA,NA,NA,NA,NA
"null","正在表扬",NA,"html-keyboard-response",186,20553660,"0.0-15.0-2.16",71149,"ListB","man","chinese","CMB1",NA,NA,NA,"null",NA,NA,NA,NA,NA,NA
"10776.5999999046",NA,NA,"survey-text",187,20564440,"0.0-15.0-3.16",71149,"ListB","man","chinese","CMB1",NA,NA,NA,NA,"{""Q0"":""凯特正在表扬麦克""}","<img src='gifs/BlackGender4a.gif' style='height:400px;''></img>","表扬","正在表扬","chinese",NA
"null","<div style=""font-size:60px;"">+</div>",NA,"html-keyboard-response",188,20564953,"0.0-15.0-0.17",71149,"ListB","man","chinese","CMB1",NA,NA,NA,"null",NA,NA,NA,NA,NA,NA
"null","<img src='gifs/FemaleRace2b.gif' style='height:400px;''></img>",NA,"html-keyboard-response",189,20566963,"0.0-15.0-1.17",71149,"ListB","man","chinese","CMB1",NA,NA,NA,"null",NA,NA,NA,NA,NA,NA
"null","正在加入",NA,"html-keyboard-response",190,20569975,"0.0-15.0-2.17",71149,"ListB","man","chinese","CMB1",NA,NA,NA,"null",NA,NA,NA,NA,NA,NA
"17988.4000000954",NA,NA,"survey-text",191,20587968,"0.0-15.0-3.17",71149,"ListB","man","chinese","CMB1",NA,NA,NA,NA,"{""Q0"":""霍普正在表扬凯特""}","<img src='gifs/FemaleRace2b.gif' style='height:400px;''></img>","加入","正在加入","chinese",NA
"21468","<img src='img/portrait_matrix_listB_chinese.jpg' style='width:900px;height:500px;''></img><p>如果您已经记住了所有的人物和名字，请点击继续。</p><p><strong>请注意：您对先前记忆的面孔将在本实验中被测试5次。</strong></p>",0,"html-button-response",192,20609441,"0.0-16.0-0.0",71149,"ListB","man","chinese","CMB1",NA,NA,NA,NA,NA,NA,NA,NA,NA,NA
"3171","<img src=""portrait/WM1.jpg""style=""height:400px;""></img>",6,"html-button-response",193,20613627,"0.0-16.0-1.0",71149,"ListB","man","chinese","CMB1",NA,TRUE,6,NA,NA,NA,NA,NA,NA,NA
"null","正确",NA,"html-keyboard-response",194,20615139,"0.0-16.0-2.0-0.0",71149,"ListB","man","chinese","CMB1",NA,NA,NA,"null",NA,NA,NA,NA,NA,NA
"1895.900000095370","<img src=""portrait/WW2.jpg""style=""height:400px;""></img>",3,"html-button-response",195,20617037,"0.0-16.0-4.0",71149,"ListB","man","chinese","CMB1",NA,TRUE,3,NA,NA,NA,NA,NA,NA,NA
"null","正确",NA,"html-keyboard-response",196,20618548,"0.0-16.0-5.0-0.0",71149,"ListB","man","chinese","CMB1",NA,NA,NA,"null",NA,NA,NA,NA,NA,NA
"3144.099999904630","<img src=""portrait/BM2.jpg""style=""height:400px;""></img>",5,"html-button-response",197,20621695,"0.0-16.0-7.0",71149,"ListB","man","chinese","CMB1",NA,TRUE,5,NA,NA,NA,NA,NA,NA,NA
"null","正确",NA,"html-keyboard-response",198,20623213,"0.0-16.0-8.0-0.0",71149,"ListB","man","chinese","CMB1",NA,NA,NA,"null",NA,NA,NA,NA,NA,NA
"1464.600000381470","<img src=""portrait/WM2.jpg""style=""height:400px;""></img>",7,"html-button-response",199,20624682,"0.0-16.0-10.0",71149,"ListB","man","chinese","CMB1",NA,TRUE,7,NA,NA,NA,NA,NA,NA,NA
"null","正确",NA,"html-keyboard-response",200,20626199,"0.0-16.0-11.0-0.0",71149,"ListB","man","chinese","CMB1",NA,NA,NA,"null",NA,NA,NA,NA,NA,NA
"4232.900000095370","<img src=""portrait/BW2.jpg""style=""height:400px;""></img>",2,"html-button-response",201,20630434,"0.0-16.0-13.0",71149,"ListB","man","chinese","CMB1",NA,TRUE,2,NA,NA,NA,NA,NA,NA,NA
"null","正确",NA,"html-keyboard-response",202,20631946,"0.0-16.0-14.0-0.0",71149,"ListB","man","chinese","CMB1",NA,NA,NA,"null",NA,NA,NA,NA,NA,NA
"2142.899999618530","<img src=""portrait/BW1.jpg""style=""height:400px;""></img>",0,"html-button-response",203,20634091,"0.0-16.0-16.0",71149,"ListB","man","chinese","CMB1",NA,TRUE,0,NA,NA,NA,NA,NA,NA,NA
"null","正确",NA,"html-keyboard-response",204,20635608,"0.0-16.0-17.0-0.0",71149,"ListB","man","chinese","CMB1",NA,NA,NA,"null",NA,NA,NA,NA,NA,NA
"4403.7000002861","<img src=""portrait/BM1.jpg""style=""height:400px;""></img>",4,"html-button-response",205,20640014,"0.0-16.0-19.0",71149,"ListB","man","chinese","CMB1",NA,TRUE,4,NA,NA,NA,NA,NA,NA,NA
"null","正确",NA,"html-keyboard-response",206,20641524,"0.0-16.0-20.0-0.0",71149,"ListB","man","chinese","CMB1",NA,NA,NA,"null",NA,NA,NA,NA,NA,NA
"3989.400000095370","<img src=""portrait/WW1.jpg""style=""height:400px;""></img>",1,"html-button-response",207,20645519,"0.0-16.0-22.0",71149,"ListB","man","chinese","CMB1",NA,TRUE,1,NA,NA,NA,NA,NA,NA,NA
"null","正确",NA,"html-keyboard-response",208,20647049,"0.0-16.0-23.0-0.0",71149,"ListB","man","chinese","CMB1",NA,NA,NA,"null",NA,NA,NA,NA,NA,NA
"1382.2000002861","<p>您第一次在8题里答对了 8 题。 请点击继续</p>",0,"html-button-response",209,20648434,"0.0-16.0-25.0",71149,"ListB","man","chinese","CMB1",NA,NA,NA,NA,NA,NA,NA,NA,NA,NA
"null","<div style=""font-size:60px;"">+</div>",NA,"html-keyboard-response",210,20649946,"0.0-17.0-0.0",71149,"ListB","man","chinese","CMB1",NA,NA,NA,"null",NA,NA,NA,NA,NA,NA
"null","<img src='gifs/MaleRace3a.gif' style='height:400px;''></img>",NA,"html-keyboard-response",211,20651957,"0.0-17.0-1.0",71149,"ListB","man","chinese","CMB1",NA,NA,NA,"null",NA,NA,NA,NA,NA,NA
"null","正在加入",NA,"html-keyboard-response",212,20654964,"0.0-17.0-2.0",71149,"ListB","man","chinese","CMB1",NA,NA,NA,"null",NA,NA,NA,NA,NA,NA
"11162.3999996185",NA,NA,"survey-text",213,20666130,"0.0-17.0-3.0",71149,"ListB","man","chinese","CMB1",NA,NA,NA,NA,"{""Q0"":""弗雷正在加入戴夫""}","<img src='gifs/MaleRace3a.gif' style='height:400px;''></img>","加入","正在加入","chinese",NA
"null","<div style=""font-size:60px;"">+</div>",NA,"html-keyboard-response",214,20666637,"0.0-17.0-0.1",71149,"ListB","man","chinese","CMB1",NA,NA,NA,"null",NA,NA,NA,NA,NA,NA
"null","<img src='gifs/ChineseGender4b.gif' style='height:400px;''></img>",NA,"html-keyboard-response",215,20668657,"0.0-17.0-1.1",71149,"ListB","man","chinese","CMB1",NA,NA,NA,"null",NA,NA,NA,NA,NA,NA
"null","正在看着",NA,"html-keyboard-response",216,20671663,"0.0-17.0-2.1",71149,"ListB","man","chinese","CMB1",NA,NA,NA,"null",NA,NA,NA,NA,NA,NA
"14110.3000001907",NA,NA,"survey-text",217,20685778,"0.0-17.0-3.1",71149,"ListB","man","chinese","CMB1",NA,NA,NA,NA,"{""Q0"":""霍普正在看着戴夫""}","<img src='gifs/ChineseGender4b.gif' style='height:400px;''></img>","看着","正在看着","chinese",NA
"null","<div style=""font-size:60px;"">+</div>",NA,"html-keyboard-response",218,20686285,"0.0-17.0-0.2",71149,"ListB","man","chinese","CMB1",NA,NA,NA,"null",NA,NA,NA,NA,NA,NA
"null","<img src='gifs/BlackGender4b.gif' style='height:400px;''></img>",NA,"html-keyboard-response",219,20688302,"0.0-17.0-1.2",71149,"ListB","man","chinese","CMB1",NA,NA,NA,"null",NA,NA,NA,NA,NA,NA
"null","正在触摸",NA,"html-keyboard-response",220,20691305,"0.0-17.0-2.2",71149,"ListB","man","chinese","CMB1",NA,NA,NA,"null",NA,NA,NA,NA,NA,NA
"17109.1999998093",NA,NA,"survey-text",221,20708417,"0.0-17.0-3.2",71149,"ListB","man","chinese","CMB1",NA,NA,NA,NA,"{""Q0"":""凯特正在触摸麦克""}","<img src='gifs/BlackGender4b.gif' style='height:400px;''></img>","触摸","正在触摸","chinese",NA
"null","<div style=""font-size:60px;"">+</div>",NA,"html-keyboard-response",222,20708920,"0.0-17.0-0.3",71149,"ListB","man","chinese","CMB1",NA,NA,NA,"null",NA,NA,NA,NA,NA,NA
"null","<img src='gifs/ChineseGender1a.gif' style='height:400px;''></img>",NA,"html-keyboard-response",223,20710934,"0.0-17.0-1.3",71149,"ListB","man","chinese","CMB1",NA,NA,NA,"null",NA,NA,NA,NA,NA,NA
"null","正在提到",NA,"html-keyboard-response",224,20713936,"0.0-17.0-2.3",71149,"ListB","man","chinese","CMB1",NA,NA,NA,"null",NA,NA,NA,NA,NA,NA
"7625",NA,NA,"survey-text",225,20721565,"0.0-17.0-3.3",71149,"ListB","man","chinese","CMB1",NA,NA,NA,NA,"{""Q0"":""卢克正在提到霍普""}","<img src='gifs/ChineseGender1a.gif' style='height:400px;''></img>","提到","正在提到","chinese",NA
"null","<div style=""font-size:60px;"">+</div>",NA,"html-keyboard-response",226,20722080,"0.0-17.0-0.4",71149,"ListB","man","chinese","CMB1",NA,NA,NA,"null",NA,NA,NA,NA,NA,NA
"null","<img src='gifs/ChineseGender2a.gif' style='height:400px;''></img>",NA,"html-keyboard-response",227,20724087,"0.0-17.0-1.4",71149,"ListB","man","chinese","CMB1",NA,NA,NA,"null",NA,NA,NA,NA,NA,NA
"null","正在面向",NA,"html-keyboard-response",228,20727094,"0.0-17.0-2.4",71149,"ListB","man","chinese","CMB1",NA,NA,NA,"null",NA,NA,NA,NA,NA,NA
"7075.900000095370",NA,NA,"survey-text",229,20734173,"0.0-17.0-3.4",71149,"ListB","man","chinese","CMB1",NA,NA,NA,NA,"{""Q0"":""卢克正在面向露丝""}","<img src='gifs/ChineseGender2a.gif' style='height:400px;''></img>","面向","正在面向","chinese",NA
"null","<div style=""font-size:60px;"">+</div>",NA,"html-keyboard-response",230,20734682,"0.0-17.0-0.5",71149,"ListB","man","chinese","CMB1",NA,NA,NA,"null",NA,NA,NA,NA,NA,NA
"null","<img src='gifs/FemaleRace2b.gif' style='height:400px;''></img>",NA,"html-keyboard-response",231,20736692,"0.0-17.0-1.5",71149,"ListB","man","chinese","CMB1",NA,NA,NA,"null",NA,NA,NA,NA,NA,NA
"null","正在接近",NA,"html-keyboard-response",232,20739699,"0.0-17.0-2.5",71149,"ListB","man","chinese","CMB1",NA,NA,NA,"null",NA,NA,NA,NA,NA,NA
"8801",NA,NA,"survey-text",233,20748503,"0.0-17.0-3.5",71149,"ListB","man","chinese","CMB1",NA,NA,NA,NA,"{""Q0"":""凯特正在接近霍普""}","<img src='gifs/FemaleRace2b.gif' style='height:400px;''></img>","接近","正在接近","chinese",NA
"null","<div style=""font-size:60px;"">+</div>",NA,"html-keyboard-response",234,20749015,"0.0-17.0-0.6",71149,"ListB","man","chinese","CMB1",NA,NA,NA,"null",NA,NA,NA,NA,NA,NA
"null","<img src='gifs/MaleRace1b.gif' style='height:400px;''></img>",NA,"html-keyboard-response",235,20751028,"0.0-17.0-1.6",71149,"ListB","man","chinese","CMB1",NA,NA,NA,"null",NA,NA,NA,NA,NA,NA
"null","正在联系",NA,"html-keyboard-response",236,20754034,"0.0-17.0-2.6",71149,"ListB","man","chinese","CMB1",NA,NA,NA,"null",NA,NA,NA,NA,NA,NA
"6267.099999904630",NA,NA,"survey-text",237,20760305,"0.0-17.0-3.6",71149,"ListB","man","chinese","CMB1",NA,NA,NA,NA,"{""Q0"":""卢克正在联系弗雷""}","<img src='gifs/MaleRace1b.gif' style='height:400px;''></img>","联系","正在联系","chinese",NA
"null","<div style=""font-size:60px;"">+</div>",NA,"html-keyboard-response",238,20760810,"0.0-17.0-0.7",71149,"ListB","man","chinese","CMB1",NA,NA,NA,"null",NA,NA,NA,NA,NA,NA
"null","<img src='gifs/FemaleRace4b.gif' style='height:400px;''></img>",NA,"html-keyboard-response",239,20762824,"0.0-17.0-1.7",71149,"ListB","man","chinese","CMB1",NA,NA,NA,"null",NA,NA,NA,NA,NA,NA
"null","正在陪伴",NA,"html-keyboard-response",240,20765832,"0.0-17.0-2.7",71149,"ListB","man","chinese","CMB1",NA,NA,NA,"null",NA,NA,NA,NA,NA,NA
"6332.599999904630",NA,NA,"survey-text",241,20772170,"0.0-17.0-3.7",71149,"ListB","man","chinese","CMB1",NA,NA,NA,NA,"{""Q0"":""露丝正在陪伴凯特""}","<img src='gifs/FemaleRace4b.gif' style='height:400px;''></img>","陪伴","正在陪伴","chinese",NA
"null","<div style=""font-size:60px;"">+</div>",NA,"html-keyboard-response",242,20772676,"0.0-17.0-0.8",71149,"ListB","man","chinese","CMB1",NA,NA,NA,"null",NA,NA,NA,NA,NA,NA
"null","<img src='gifs/BlackGender2b.gif' style='height:400px;''></img>",NA,"html-keyboard-response",243,20774685,"0.0-17.0-1.8",71149,"ListB","man","chinese","CMB1",NA,NA,NA,"null",NA,NA,NA,NA,NA,NA
"null","正在触摸",NA,"html-keyboard-response",244,20777695,"0.0-17.0-2.8",71149,"ListB","man","chinese","CMB1",NA,NA,NA,"null",NA,NA,NA,NA,NA,NA
"6776.400000095370",NA,NA,"survey-text",245,20784477,"0.0-17.0-3.8",71149,"ListB","man","chinese","CMB1",NA,NA,NA,NA,"{""Q0"":""麦克正在触摸贝斯""}","<img src='gifs/BlackGender2b.gif' style='height:400px;''></img>","触摸","正在触摸","chinese",NA
"null","<div style=""font-size:60px;"">+</div>",NA,"html-keyboard-response",246,20784989,"0.0-17.0-0.9",71149,"ListB","man","chinese","CMB1",NA,NA,NA,"null",NA,NA,NA,NA,NA,NA
"null","<img src='gifs/ChineseGender4b.gif' style='height:400px;''></img>",NA,"html-keyboard-response",247,20787002,"0.0-17.0-1.9",71149,"ListB","man","chinese","CMB1",NA,NA,NA,"null",NA,NA,NA,NA,NA,NA
"null","正在接近",NA,"html-keyboard-response",248,20790013,"0.0-17.0-2.9",71149,"ListB","man","chinese","CMB1",NA,NA,NA,"null",NA,NA,NA,NA,NA,NA
"7333.5",NA,NA,"survey-text",249,20797352,"0.0-17.0-3.9",71149,"ListB","man","chinese","CMB1",NA,NA,NA,NA,"{""Q0"":""戴夫正在接近霍普""}","<img src='gifs/ChineseGender4b.gif' style='height:400px;''></img>","接近","正在接近","chinese",NA
"null","<div style=""font-size:60px;"">+</div>",NA,"html-keyboard-response",250,20797857,"0.0-17.0-0.10",71149,"ListB","man","chinese","CMB1",NA,NA,NA,"null",NA,NA,NA,NA,NA,NA
"null","<img src='gifs/MaleRace1a.gif' style='height:400px;''></img>",NA,"html-keyboard-response",251,20799862,"0.0-17.0-1.10",71149,"ListB","man","chinese","CMB1",NA,NA,NA,"null",NA,NA,NA,NA,NA,NA
"null","正在看着",NA,"html-keyboard-response",252,20802870,"0.0-17.0-2.10",71149,"ListB","man","chinese","CMB1",NA,NA,NA,"null",NA,NA,NA,NA,NA,NA
"6098.900000095370",NA,NA,"survey-text",253,20808974,"0.0-17.0-3.10",71149,"ListB","man","chinese","CMB1",NA,NA,NA,NA,"{""Q0"":""弗雷正在看着卢克""}","<img src='gifs/MaleRace1a.gif' style='height:400px;''></img>","看着","正在看着","chinese",NA
"null","<div style=""font-size:60px;"">+</div>",NA,"html-keyboard-response",254,20809482,"0.0-17.0-0.11",71149,"ListB","man","chinese","CMB1",NA,NA,NA,"null",NA,NA,NA,NA,NA,NA
"null","<img src='gifs/ChineseGender1a.gif' style='height:400px;''></img>",NA,"html-keyboard-response",255,20811496,"0.0-17.0-1.11",71149,"ListB","man","chinese","CMB1",NA,NA,NA,"null",NA,NA,NA,NA,NA,NA
"null","正在看着",NA,"html-keyboard-response",256,20814502,"0.0-17.0-2.11",71149,"ListB","man","chinese","CMB1",NA,NA,NA,"null",NA,NA,NA,NA,NA,NA
"6353.7999997139",NA,NA,"survey-text",257,20820863,"0.0-17.0-3.11",71149,"ListB","man","chinese","CMB1",NA,NA,NA,NA,"{""Q0"":""霍普正在看着卢克""}","<img src='gifs/ChineseGender1a.gif' style='height:400px;''></img>","看着","正在看着","chinese",NA
"null","<div style=""font-size:60px;"">+</div>",NA,"html-keyboard-response",258,20821377,"0.0-17.0-0.12",71149,"ListB","man","chinese","CMB1",NA,NA,NA,"null",NA,NA,NA,NA,NA,NA
"null","<img src='gifs/FemaleRace4a.gif' style='height:400px;''></img>",NA,"html-keyboard-response",259,20823392,"0.0-17.0-1.12",71149,"ListB","man","chinese","CMB1",NA,NA,NA,"null",NA,NA,NA,NA,NA,NA
"null","正在看着",NA,"html-keyboard-response",260,20826405,"0.0-17.0-2.12",71149,"ListB","man","chinese","CMB1",NA,NA,NA,"null",NA,NA,NA,NA,NA,NA
"10018.3999996185",NA,NA,"survey-text",261,20836429,"0.0-17.0-3.12",71149,"ListB","man","chinese","CMB1",NA,NA,NA,NA,"{""Q0"":""露丝正在看着凯特""}","<img src='gifs/FemaleRace4a.gif' style='height:400px;''></img>","看着","正在看着","chinese",NA
"null","<div style=""font-size:60px;"">+</div>",NA,"html-keyboard-response",262,20836940,"0.0-17.0-0.13",71149,"ListB","man","chinese","CMB1",NA,NA,NA,"null",NA,NA,NA,NA,NA,NA
"null","<img src='gifs/ChineseGender1b.gif' style='height:400px;''></img>",NA,"html-keyboard-response",263,20838954,"0.0-17.0-1.13",71149,"ListB","man","chinese","CMB1",NA,NA,NA,"null",NA,NA,NA,NA,NA,NA
"null","正在联系",NA,"html-keyboard-response",264,20841963,"0.0-17.0-2.13",71149,"ListB","man","chinese","CMB1",NA,NA,NA,"null",NA,NA,NA,NA,NA,NA
"10752.4000000954",NA,NA,"survey-text",265,20852719,"0.0-17.0-3.13",71149,"ListB","man","chinese","CMB1",NA,NA,NA,NA,"{""Q0"":""卢克正在联系霍普""}","<img src='gifs/ChineseGender1b.gif' style='height:400px;''></img>","联系","正在联系","chinese",NA
"null","<div style=""font-size:60px;"">+</div>",NA,"html-keyboard-response",266,20853225,"0.0-17.0-0.14",71149,"ListB","man","chinese","CMB1",NA,NA,NA,"null",NA,NA,NA,NA,NA,NA
"null","<img src='gifs/BlackGender2b.gif' style='height:400px;''></img>",NA,"html-keyboard-response",267,20855239,"0.0-17.0-1.14",71149,"ListB","man","chinese","CMB1",NA,NA,NA,"null",NA,NA,NA,NA,NA,NA
"null","正在走向",NA,"html-keyboard-response",268,20858243,"0.0-17.0-2.14",71149,"ListB","man","chinese","CMB1",NA,NA,NA,"null",NA,NA,NA,NA,NA,NA
"16149.7999997139",NA,NA,"survey-text",269,20874397,"0.0-17.0-3.14",71149,"ListB","man","chinese","CMB1",NA,NA,NA,NA,"{""Q0"":""贝斯正在走向麦克""}","<img src='gifs/BlackGender2b.gif' style='height:400px;''></img>","走向","正在走向","chinese",NA
"null","<div style=""font-size:60px;"">+</div>",NA,"html-keyboard-response",270,20874912,"0.0-17.0-0.15",71149,"ListB","man","chinese","CMB1",NA,NA,NA,"null",NA,NA,NA,NA,NA,NA
"null","<img src='gifs/FemaleRace1a.gif' style='height:400px;''></img>",NA,"html-keyboard-response",271,20876927,"0.0-17.0-1.15",71149,"ListB","man","chinese","CMB1",NA,NA,NA,"null",NA,NA,NA,NA,NA,NA
"null","正在说服",NA,"html-keyboard-response",272,20879930,"0.0-17.0-2.15",71149,"ListB","man","chinese","CMB1",NA,NA,NA,"null",NA,NA,NA,NA,NA,NA
"5422.099999904630",NA,NA,"survey-text",273,20885357,"0.0-17.0-3.15",71149,"ListB","man","chinese","CMB1",NA,NA,NA,NA,"{""Q0"":""贝斯正在说服霍普""}","<img src='gifs/FemaleRace1a.gif' style='height:400px;''></img>","说服","正在说服","chinese",NA
"null","<div style=""font-size:60px;"">+</div>",NA,"html-keyboard-response",274,20885872,"0.0-17.0-0.16",71149,"ListB","man","chinese","CMB1",NA,NA,NA,"null",NA,NA,NA,NA,NA,NA
"null","<img src='gifs/MaleRace3b.gif' style='height:400px;''></img>",NA,"html-keyboard-response",275,20887890,"0.0-17.0-1.16",71149,"ListB","man","chinese","CMB1",NA,NA,NA,"null",NA,NA,NA,NA,NA,NA
"null","正在说服",NA,"html-keyboard-response",276,20890906,"0.0-17.0-2.16",71149,"ListB","man","chinese","CMB1",NA,NA,NA,"null",NA,NA,NA,NA,NA,NA
"5515.2000002861",NA,NA,"survey-text",277,20896427,"0.0-17.0-3.16",71149,"ListB","man","chinese","CMB1",NA,NA,NA,NA,"{""Q0"":""戴夫正在说服弗雷""}","<img src='gifs/MaleRace3b.gif' style='height:400px;''></img>","说服","正在说服","chinese",NA
"null","<div style=""font-size:60px;"">+</div>",NA,"html-keyboard-response",278,20896932,"0.0-17.0-0.17",71149,"ListB","man","chinese","CMB1",NA,NA,NA,"null",NA,NA,NA,NA,NA,NA
"null","<img src='gifs/ChineseGender3a.gif' style='height:400px;''></img>",NA,"html-keyboard-response",279,20898941,"0.0-17.0-1.17",71149,"ListB","man","chinese","CMB1",NA,NA,NA,"null",NA,NA,NA,NA,NA,NA
"null","正在提到",NA,"html-keyboard-response",280,20901947,"0.0-17.0-2.17",71149,"ListB","man","chinese","CMB1",NA,NA,NA,"null",NA,NA,NA,NA,NA,NA
"5986",NA,NA,"survey-text",281,20907937,"0.0-17.0-3.17",71149,"ListB","man","chinese","CMB1",NA,NA,NA,NA,"{""Q0"":""露丝正在提到戴夫""}","<img src='gifs/ChineseGender3a.gif' style='height:400px;''></img>","提到","正在提到","chinese",NA
"4173.099999904630","<p>Thank you for completing that task.</p><p>The final part of this session is a short questionnaire.</p><p>Press Continue.</p>",0,"html-button-response",282,20912113,"0.0-18.0",71149,"ListB","man","chinese","CMB1",NA,NA,NA,NA,NA,NA,NA,NA,NA,NA
"58377.1999998093",NA,NA,"survey-text",283,20971508,"0.0-19.0",71149,"ListB","man","chinese","CMB1",NA,NA,NA,NA,"{""Q0"":""23"",""Q1"":""Mandarin"",""Q2"":""English"",""Q3"":""USA"",""Q4"":""China"",""Q5"":""Asian"",""Q6"":""Male""}",NA,NA,NA,NA,"demographics"
"3695.599999904630","<p>Have you lived in the UK for the last 5 years or more?</p>",1,"html-button-response",284,20975214,"0.0-20.0",71149,"ListB","man","chinese","CMB1",NA,NA,NA,NA,NA,NA,NA,NA,NA,"fiveyears"
"5981.300000190740",NA,NA,"external-html",285,20983543,"0.0-21.0",71149,"ListB","man","chinese","CMB1","debrief.html",NA,NA,NA,NA,NA,NA,NA,NA,NA
"41342",NA,NA,"survey-text",286,21024892,"0.0-22.0",71149,"ListB","man","chinese","CMB1",NA,NA,NA,NA,"{""ptpt_id"":""CMB1""}",NA,NA,NA,NA,"worker_id"
