"rt","stimulus","button_pressed","trial_type","trial_index","time_elapsed","internal_node_id","subject","list","ppt_gender","ppt_language","ptptID","url","first_guess","correct","key_press","responses","image","verb","phrase","condition","test_part"
"2465.7000000029802","Welcome to the experiment. Press Continue to begin.",0,"html-button-response",0,2468,"0.0-0.0",7526,"ListB","man","chinese","SW_C_M_B1",NA,NA,NA,NA,NA,NA,NA,NA,NA,NA
"134660.20000000298",NA,NA,"external-html",1,138167,"0.0-1.0",7526,"ListB","man","chinese","SW_C_M_B1","consent.html",NA,NA,NA,NA,NA,NA,NA,NA,NA
"30010.10000000149","<p>在下一页中，您将看到8个人物肖像和他们各自的名字。</p><p>请花费几分钟的时间记住这些人物及其所对应的名字。</p><p>之后的实验中需要您对人物的名字做出回忆，</p><p>因此在实验开始前请确保您已 经完全记住这些人物及其所对应的名字。</p><p><strong>然后您将完成一个测试以检验您对人物和名字的记忆。</strong></p><p>完成此记忆测试后，您将正式进入实验。</p><p>准备好了吗？</p>",0,"html-button-response",2,168177,"0.0-2.0",7526,"ListB","man","chinese","SW_C_M_B1",NA,NA,NA,NA,NA,NA,NA,NA,NA,NA
"103973.60000000149","<img src='img/portrait_matrix_listB_chinese.jpg' style='width:900px;height:500px;''></img><p>如果您已经记住了所有的人物和名字，请点击继续。</p><p><strong>请注意：您对先前记忆的面孔将在本实验中被测试5次。</strong></p>",0,"html-button-response",3,273152,"0.0-3.0-0.0",7526,"ListB","man","chinese","SW_C_M_B1",NA,NA,NA,NA,NA,NA,NA,NA,NA,NA
"15250.89999999851","<img src=""portrait/WW2.jpg""style=""height:400px;""></img>",1,"html-button-response",4,289410,"0.0-3.0-1.0",7526,"ListB","man","chinese","SW_C_M_B1",NA,"true",3,NA,NA,NA,NA,NA,NA,NA
"8782.29999999702","<img src=""portrait/WW2.jpg""style=""height:400px;""></img>",3,"html-button-response",5,299194,"0.0-3.0-3.0-0.0",7526,"ListB","man","chinese","SW_C_M_B1",NA,"false",3,NA,NA,NA,NA,NA,NA,NA
"null","正确",NA,"html-keyboard-response",6,300698,"0.0-3.0-3.0-1.0-0.0",7526,"ListB","man","chinese","SW_C_M_B1",NA,NA,NA,"null",NA,NA,NA,NA,NA,NA
"5547.79999999702","<img src=""portrait/WM2.jpg""style=""height:400px;""></img>",7,"html-button-response",7,306247,"0.0-3.0-4.0",7526,"ListB","man","chinese","SW_C_M_B1",NA,"true",7,NA,NA,NA,NA,NA,NA,NA
"null","正确",NA,"html-keyboard-response",8,307749,"0.0-3.0-5.0-0.0",7526,"ListB","man","chinese","SW_C_M_B1",NA,NA,NA,"null",NA,NA,NA,NA,NA,NA
"15713.60000000149","<img src=""portrait/BM2.jpg""style=""height:400px;""></img>",5,"html-button-response",9,323463,"0.0-3.0-7.0",7526,"ListB","man","chinese","SW_C_M_B1",NA,"true",5,NA,NA,NA,NA,NA,NA,NA
"null","正确",NA,"html-keyboard-response",10,324972,"0.0-3.0-8.0-0.0",7526,"ListB","man","chinese","SW_C_M_B1",NA,NA,NA,"null",NA,NA,NA,NA,NA,NA
"4959.39999999851","<img src=""portrait/WW1.jpg""style=""height:400px;""></img>",1,"html-button-response",11,329932,"0.0-3.0-10.0",7526,"ListB","man","chinese","SW_C_M_B1",NA,"true",1,NA,NA,NA,NA,NA,NA,NA
"null","正确",NA,"html-keyboard-response",12,331434,"0.0-3.0-11.0-0.0",7526,"ListB","man","chinese","SW_C_M_B1",NA,NA,NA,"null",NA,NA,NA,NA,NA,NA
"5214.89999999851","<img src=""portrait/BW1.jpg""style=""height:400px;""></img>",4,"html-button-response",13,336649,"0.0-3.0-13.0",7526,"ListB","man","chinese","SW_C_M_B1",NA,"true",0,NA,NA,NA,NA,NA,NA,NA
"2747.7000000029802","<img src=""portrait/BW1.jpg""style=""height:400px;""></img>",0,"html-button-response",14,340398,"0.0-3.0-15.0-0.0",7526,"ListB","man","chinese","SW_C_M_B1",NA,"false",0,NA,NA,NA,NA,NA,NA,NA
"null","正确",NA,"html-keyboard-response",15,341914,"0.0-3.0-15.0-1.0-0.0",7526,"ListB","man","chinese","SW_C_M_B1",NA,NA,NA,"null",NA,NA,NA,NA,NA,NA
"7010","<img src=""portrait/BW2.jpg""style=""height:400px;""></img>",2,"html-button-response",16,348925,"0.0-3.0-16.0",7526,"ListB","man","chinese","SW_C_M_B1",NA,"true",2,NA,NA,NA,NA,NA,NA,NA
"null","正确",NA,"html-keyboard-response",17,350427,"0.0-3.0-17.0-0.0",7526,"ListB","man","chinese","SW_C_M_B1",NA,NA,NA,"null",NA,NA,NA,NA,NA,NA
"13987.60000000149","<img src=""portrait/BM1.jpg""style=""height:400px;""></img>",4,"html-button-response",18,364415,"0.0-3.0-19.0",7526,"ListB","man","chinese","SW_C_M_B1",NA,"true",4,NA,NA,NA,NA,NA,NA,NA
"null","正确",NA,"html-keyboard-response",19,365917,"0.0-3.0-20.0-0.0",7526,"ListB","man","chinese","SW_C_M_B1",NA,NA,NA,"null",NA,NA,NA,NA,NA,NA
"3922.6999999955297","<img src=""portrait/WM1.jpg""style=""height:400px;""></img>",6,"html-button-response",20,369841,"0.0-3.0-22.0",7526,"ListB","man","chinese","SW_C_M_B1",NA,"true",6,NA,NA,NA,NA,NA,NA,NA
"null","正确",NA,"html-keyboard-response",21,371343,"0.0-3.0-23.0-0.0",7526,"ListB","man","chinese","SW_C_M_B1",NA,NA,NA,"null",NA,NA,NA,NA,NA,NA
"2203.10000000149","<p>您第一次在8题里答对了 6 题。 请点击继续</p>",0,"html-button-response",22,373547,"0.0-3.0-25.0",7526,"ListB","man","chinese","SW_C_M_B1",NA,NA,NA,NA,NA,NA,NA,NA,NA,NA
"4165.79999999702","因为您没有全部答对，记忆游戏将重新开始。请点击继续。",0,"html-button-response",23,378714,"0.0-3.0-26.0-0.0",7526,"ListB","man","chinese","SW_C_M_B1",NA,NA,NA,NA,NA,NA,NA,NA,NA,NA
"11908.5","<img src='img/portrait_matrix_listB_chinese.jpg' style='width:900px;height:500px;''></img><p>如果您已经记住了所有的人物和名字，请点击继续。</p><p><strong>请注意：您对先前记忆的面孔将在本实验中被测试5次。</strong></p>",0,"html-button-response",24,391624,"0.0-3.1-0.1",7526,"ListB","man","chinese","SW_C_M_B1",NA,NA,NA,NA,NA,NA,NA,NA,NA,NA
"3080.2000000029802","<img src=""portrait/WW2.jpg""style=""height:400px;""></img>",0,"html-button-response",25,395716,"0.0-3.1-1.1",7526,"ListB","man","chinese","SW_C_M_B1",NA,"true",3,NA,NA,NA,NA,NA,NA,NA
"3304.5","<img src=""portrait/WW2.jpg""style=""height:400px;""></img>",3,"html-button-response",26,400030,"0.0-3.1-3.1-0.1",7526,"ListB","man","chinese","SW_C_M_B1",NA,"false",3,NA,NA,NA,NA,NA,NA,NA
"null","正确",NA,"html-keyboard-response",27,401553,"0.0-3.1-3.1-1.1-0.1",7526,"ListB","man","chinese","SW_C_M_B1",NA,NA,NA,"null",NA,NA,NA,NA,NA,NA
"2640.5","<img src=""portrait/WM2.jpg""style=""height:400px;""></img>",7,"html-button-response",28,404194,"0.0-3.1-4.1",7526,"ListB","man","chinese","SW_C_M_B1",NA,"true",7,NA,NA,NA,NA,NA,NA,NA
"null","正确",NA,"html-keyboard-response",29,405702,"0.0-3.1-5.1-0.1",7526,"ListB","man","chinese","SW_C_M_B1",NA,NA,NA,"null",NA,NA,NA,NA,NA,NA
"3174.7000000029802","<img src=""portrait/BM2.jpg""style=""height:400px;""></img>",5,"html-button-response",30,408877,"0.0-3.1-7.1",7526,"ListB","man","chinese","SW_C_M_B1",NA,"true",5,NA,NA,NA,NA,NA,NA,NA
"null","正确",NA,"html-keyboard-response",31,410388,"0.0-3.1-8.1-0.1",7526,"ListB","man","chinese","SW_C_M_B1",NA,NA,NA,"null",NA,NA,NA,NA,NA,NA
"3697.60000000149","<img src=""portrait/WW1.jpg""style=""height:400px;""></img>",0,"html-button-response",32,414086,"0.0-3.1-10.1",7526,"ListB","man","chinese","SW_C_M_B1",NA,"true",1,NA,NA,NA,NA,NA,NA,NA
"5286.79999999702","<img src=""portrait/WW1.jpg""style=""height:400px;""></img>",1,"html-button-response",33,420378,"0.0-3.1-12.1-0.1",7526,"ListB","man","chinese","SW_C_M_B1",NA,"false",1,NA,NA,NA,NA,NA,NA,NA
"null","正确",NA,"html-keyboard-response",34,421893,"0.0-3.1-12.1-1.1-0.1",7526,"ListB","man","chinese","SW_C_M_B1",NA,NA,NA,"null",NA,NA,NA,NA,NA,NA
"7749.70000000298","<img src=""portrait/BW1.jpg""style=""height:400px;""></img>",0,"html-button-response",35,429643,"0.0-3.1-13.1",7526,"ListB","man","chinese","SW_C_M_B1",NA,"true",0,NA,NA,NA,NA,NA,NA,NA
"null","正确",NA,"html-keyboard-response",36,431157,"0.0-3.1-14.1-0.1",7526,"ListB","man","chinese","SW_C_M_B1",NA,NA,NA,"null",NA,NA,NA,NA,NA,NA
"4259.5","<img src=""portrait/BW2.jpg""style=""height:400px;""></img>",2,"html-button-response",37,435417,"0.0-3.1-16.1",7526,"ListB","man","chinese","SW_C_M_B1",NA,"true",2,NA,NA,NA,NA,NA,NA,NA
"null","正确",NA,"html-keyboard-response",38,436923,"0.0-3.1-17.1-0.1",7526,"ListB","man","chinese","SW_C_M_B1",NA,NA,NA,"null",NA,NA,NA,NA,NA,NA
"5211.30000000447","<img src=""portrait/BM1.jpg""style=""height:400px;""></img>",4,"html-button-response",39,442135,"0.0-3.1-19.1",7526,"ListB","man","chinese","SW_C_M_B1",NA,"true",4,NA,NA,NA,NA,NA,NA,NA
"null","正确",NA,"html-keyboard-response",40,443647,"0.0-3.1-20.1-0.1",7526,"ListB","man","chinese","SW_C_M_B1",NA,NA,NA,"null",NA,NA,NA,NA,NA,NA
"6338.39999999851","<img src=""portrait/WM1.jpg""style=""height:400px;""></img>",6,"html-button-response",41,449986,"0.0-3.1-22.1",7526,"ListB","man","chinese","SW_C_M_B1",NA,"true",6,NA,NA,NA,NA,NA,NA,NA
"null","正确",NA,"html-keyboard-response",42,451488,"0.0-3.1-23.1-0.1",7526,"ListB","man","chinese","SW_C_M_B1",NA,NA,NA,"null",NA,NA,NA,NA,NA,NA
"1052.7000000029802","<p>您第一次在8题里答对了 6 题。 请点击继续</p>",0,"html-button-response",43,452541,"0.0-3.1-25.1",7526,"ListB","man","chinese","SW_C_M_B1",NA,NA,NA,NA,NA,NA,NA,NA,NA,NA
"491.3999999985099","因为您没有全部答对，记忆游戏将重新开始。请点击继续。",0,"html-button-response",44,454042,"0.0-3.1-26.1-0.1",7526,"ListB","man","chinese","SW_C_M_B1",NA,NA,NA,NA,NA,NA,NA,NA,NA,NA
"1220.1000000014901","<img src='img/portrait_matrix_listB_chinese.jpg' style='width:900px;height:500px;''></img><p>如果您已经记住了所有的人物和名字，请点击继续。</p><p><strong>请注意：您对先前记忆的面孔将在本实验中被测试5次。</strong></p>",0,"html-button-response",45,456268,"0.0-3.2-0.2",7526,"ListB","man","chinese","SW_C_M_B1",NA,NA,NA,NA,NA,NA,NA,NA,NA,NA
"7257.39999999851","<img src=""portrait/WW2.jpg""style=""height:400px;""></img>",3,"html-button-response",46,464527,"0.0-3.2-1.2",7526,"ListB","man","chinese","SW_C_M_B1",NA,"true",3,NA,NA,NA,NA,NA,NA,NA
"null","正确",NA,"html-keyboard-response",47,466029,"0.0-3.2-2.2-0.2",7526,"ListB","man","chinese","SW_C_M_B1",NA,NA,NA,"null",NA,NA,NA,NA,NA,NA
"4473.60000000149","<img src=""portrait/WM2.jpg""style=""height:400px;""></img>",7,"html-button-response",48,470503,"0.0-3.2-4.2",7526,"ListB","man","chinese","SW_C_M_B1",NA,"true",7,NA,NA,NA,NA,NA,NA,NA
"null","正确",NA,"html-keyboard-response",49,472005,"0.0-3.2-5.2-0.2",7526,"ListB","man","chinese","SW_C_M_B1",NA,NA,NA,"null",NA,NA,NA,NA,NA,NA
"3727","<img src=""portrait/BM2.jpg""style=""height:400px;""></img>",5,"html-button-response",50,475732,"0.0-3.2-7.2",7526,"ListB","man","chinese","SW_C_M_B1",NA,"true",5,NA,NA,NA,NA,NA,NA,NA
"null","正确",NA,"html-keyboard-response",51,477233,"0.0-3.2-8.2-0.2",7526,"ListB","man","chinese","SW_C_M_B1",NA,NA,NA,"null",NA,NA,NA,NA,NA,NA
"3010.3000000044703","<img src=""portrait/WW1.jpg""style=""height:400px;""></img>",1,"html-button-response",52,480244,"0.0-3.2-10.2",7526,"ListB","man","chinese","SW_C_M_B1",NA,"true",1,NA,NA,NA,NA,NA,NA,NA
"null","正确",NA,"html-keyboard-response",53,481746,"0.0-3.2-11.2-0.2",7526,"ListB","man","chinese","SW_C_M_B1",NA,NA,NA,"null",NA,NA,NA,NA,NA,NA
"5583.0999999940395","<img src=""portrait/BW1.jpg""style=""height:400px;""></img>",0,"html-button-response",54,487330,"0.0-3.2-13.2",7526,"ListB","man","chinese","SW_C_M_B1",NA,"true",0,NA,NA,NA,NA,NA,NA,NA
"null","正确",NA,"html-keyboard-response",55,488830,"0.0-3.2-14.2-0.2",7526,"ListB","man","chinese","SW_C_M_B1",NA,NA,NA,"null",NA,NA,NA,NA,NA,NA
"2101.5","<img src=""portrait/BW2.jpg""style=""height:400px;""></img>",2,"html-button-response",56,490932,"0.0-3.2-16.2",7526,"ListB","man","chinese","SW_C_M_B1",NA,"true",2,NA,NA,NA,NA,NA,NA,NA
"null","正确",NA,"html-keyboard-response",57,492438,"0.0-3.2-17.2-0.2",7526,"ListB","man","chinese","SW_C_M_B1",NA,NA,NA,"null",NA,NA,NA,NA,NA,NA
"7592.89999999851","<img src=""portrait/BM1.jpg""style=""height:400px;""></img>",4,"html-button-response",58,500031,"0.0-3.2-19.2",7526,"ListB","man","chinese","SW_C_M_B1",NA,"true",4,NA,NA,NA,NA,NA,NA,NA
"null","正确",NA,"html-keyboard-response",59,501532,"0.0-3.2-20.2-0.2",7526,"ListB","man","chinese","SW_C_M_B1",NA,NA,NA,"null",NA,NA,NA,NA,NA,NA
"3047.8000000044703","<img src=""portrait/WM1.jpg""style=""height:400px;""></img>",6,"html-button-response",60,504581,"0.0-3.2-22.2",7526,"ListB","man","chinese","SW_C_M_B1",NA,"true",6,NA,NA,NA,NA,NA,NA,NA
"null","正确",NA,"html-keyboard-response",61,506088,"0.0-3.2-23.2-0.2",7526,"ListB","man","chinese","SW_C_M_B1",NA,NA,NA,"null",NA,NA,NA,NA,NA,NA
"922.1000000014901","<p>您第一次在8题里答对了 8 题。 请点击继续</p>",0,"html-button-response",62,507010,"0.0-3.2-25.2",7526,"ListB","man","chinese","SW_C_M_B1",NA,NA,NA,NA,NA,NA,NA,NA,NA,NA
"31035.70000000298","<p>此次实验您将会看到先前记忆任务里的人物照片。</p><p>人物照片消失后您将看到一个动词短语，请正确回忆人物的名字并用特定的 动词短语组成一句完整的句子。</p><p>请在指定的框内输入您的答案。在进入下一题之前请确保您填写了完整的句子。</p><p>人物照片和动词短语只会在屏幕上出现几秒钟，因此请您答题时尽量集中注意力。</p><p>以下是例子。请您在准备好后按下“继续”。</p><img src='img/chinese_speaking_example.jpg' style='width:800px;height:460px;''></img>",0,"html-button-response",63,539047,"0.0-4.0",7526,"ListB","man","chinese","SW_C_M_B1",NA,NA,NA,NA,NA,NA,NA,NA,NA,NA
"2009.6000000014901","<p>在实验开始前，将为您展示两个示例实验。</p>",0,"html-button-response",64,542058,"0.0-5.0",7526,"ListB","man","chinese","SW_C_M_B1",NA,NA,NA,NA,NA,NA,NA,NA,NA,NA
"null","<img src='img/meet.gif' style='height:400px;''></img>",NA,"html-keyboard-response",65,545064,"0.0-6.0",7526,"ListB","man","chinese","SW_C_M_B1",NA,NA,NA,"null",NA,NA,NA,NA,NA,NA
"null","<p>正在约见</p>",NA,"html-keyboard-response",66,547068,"0.0-7.0",7526,"ListB","man","chinese","SW_C_M_B1",NA,NA,NA,"null",NA,NA,NA,NA,NA,NA
"8410.40000000596","<p><b>答案：</b> 霍普正在约见露丝</p>",0,"html-button-response",67,555479,"0.0-8.0",7526,"ListB","man","chinese","SW_C_M_B1",NA,NA,NA,NA,NA,NA,NA,NA,NA,NA
"null","<img src='img/spy.gif' style='height:400px;''></img>",NA,"html-keyboard-response",68,558485,"0.0-9.0",7526,"ListB","man","chinese","SW_C_M_B1",NA,NA,NA,"null",NA,NA,NA,NA,NA,NA
"null","<p>正在监视</p>",NA,"html-keyboard-response",69,560492,"0.0-10.0",7526,"ListB","man","chinese","SW_C_M_B1",NA,NA,NA,"null",NA,NA,NA,NA,NA,NA
"5767.10000000149","<p><b>答案：</b> 弗雷正在监视麦克</p>",0,"html-button-response",70,566259,"0.0-11.0",7526,"ListB","man","chinese","SW_C_M_B1",NA,NA,NA,NA,NA,NA,NA,NA,NA,NA
"5313.60000000149","<p>准备好开始了吗？</p><br><p><strong>请记住，您的答案需是一句完整的句子</strong></p><p><strong>，并用给到的图片人物和动词短语作答。</strong></p><p><strong>只有正确并完整完成实验才可获得报酬。</strong></p><p><strong> 您不需要加入任何标点符号。</strong></p><br><p>请按 ‘继续’ 键开始。</p>",0,"html-button-response",71,572574,"0.0-12.0",7526,"ListB","man","chinese","SW_C_M_B1",NA,NA,NA,NA,NA,NA,NA,NA,NA,NA
"null","<div style=""font-size:60px;"">+</div>",NA,"html-keyboard-response",72,574076,"0.0-13.0-0.0",7526,"ListB","man","chinese","SW_C_M_B1",NA,NA,NA,"null",NA,NA,NA,NA,NA,NA
"null","<img src='gifs/ChineseGender3b.gif' style='height:400px;''></img>",NA,"html-keyboard-response",73,576089,"0.0-13.0-1.0",7526,"ListB","man","chinese","SW_C_M_B1",NA,NA,NA,"null",NA,NA,NA,NA,NA,NA
"null","正在提到",NA,"html-keyboard-response",74,579090,"0.0-13.0-2.0",7526,"ListB","man","chinese","SW_C_M_B1",NA,NA,NA,"null",NA,NA,NA,NA,NA,NA
"29196.60000000149",NA,NA,"survey-text",75,608289,"0.0-13.0-3.0",7526,"ListB","man","chinese","SW_C_M_B1",NA,NA,NA,NA,"{""Q0"":""戴夫正在约会露丝""}","<img src='gifs/ChineseGender3b.gif' style='height:400px;''></img>","提到","正在提到","chinese",NA
"null","<div style=""font-size:60px;"">+</div>",NA,"html-keyboard-response",76,608800,"0.0-13.0-0.1",7526,"ListB","man","chinese","SW_C_M_B1",NA,NA,NA,"null",NA,NA,NA,NA,NA,NA
"null","<img src='gifs/MaleRace3b.gif' style='height:400px;''></img>",NA,"html-keyboard-response",77,610801,"0.0-13.0-1.1",7526,"ListB","man","chinese","SW_C_M_B1",NA,NA,NA,"null",NA,NA,NA,NA,NA,NA
"null","正在说服",NA,"html-keyboard-response",78,613802,"0.0-13.0-2.1",7526,"ListB","man","chinese","SW_C_M_B1",NA,NA,NA,"null",NA,NA,NA,NA,NA,NA
"15448.30000000447",NA,NA,"survey-text",79,629252,"0.0-13.0-3.1",7526,"ListB","man","chinese","SW_C_M_B1",NA,NA,NA,NA,"{""Q0"":""戴夫正在说服弗雷""}","<img src='gifs/MaleRace3b.gif' style='height:400px;''></img>","说服","正在说服","chinese",NA
"null","<div style=""font-size:60px;"">+</div>",NA,"html-keyboard-response",80,629754,"0.0-13.0-0.2",7526,"ListB","man","chinese","SW_C_M_B1",NA,NA,NA,"null",NA,NA,NA,NA,NA,NA
"null","<img src='gifs/BlackGender2b.gif' style='height:400px;''></img>",NA,"html-keyboard-response",81,631757,"0.0-13.0-1.2",7526,"ListB","man","chinese","SW_C_M_B1",NA,NA,NA,"null",NA,NA,NA,NA,NA,NA
"null","正在加入",NA,"html-keyboard-response",82,634758,"0.0-13.0-2.2",7526,"ListB","man","chinese","SW_C_M_B1",NA,NA,NA,"null",NA,NA,NA,NA,NA,NA
"11508.90000000596",NA,NA,"survey-text",83,646268,"0.0-13.0-3.2",7526,"ListB","man","chinese","SW_C_M_B1",NA,NA,NA,NA,"{""Q0"":""麦克正在加入贝斯""}","<img src='gifs/BlackGender2b.gif' style='height:400px;''></img>","加入","正在加入","chinese",NA
"null","<div style=""font-size:60px;"">+</div>",NA,"html-keyboard-response",84,646777,"0.0-13.0-0.3",7526,"ListB","man","chinese","SW_C_M_B1",NA,NA,NA,"null",NA,NA,NA,NA,NA,NA
"null","<img src='gifs/BlackGender1a.gif' style='height:400px;''></img>",NA,"html-keyboard-response",85,648785,"0.0-13.0-1.3",7526,"ListB","man","chinese","SW_C_M_B1",NA,NA,NA,"null",NA,NA,NA,NA,NA,NA
"null","正在跟随",NA,"html-keyboard-response",86,651786,"0.0-13.0-2.3",7526,"ListB","man","chinese","SW_C_M_B1",NA,NA,NA,"null",NA,NA,NA,NA,NA,NA
"12748.60000000149",NA,NA,"survey-text",87,664536,"0.0-13.0-3.3",7526,"ListB","man","chinese","SW_C_M_B1",NA,NA,NA,NA,"{""Q0"":""贝斯正在跟随弗雷""}","<img src='gifs/BlackGender1a.gif' style='height:400px;''></img>","跟随","正在跟随","chinese",NA
"null","<div style=""font-size:60px;"">+</div>",NA,"html-keyboard-response",88,665050,"0.0-13.0-0.4",7526,"ListB","man","chinese","SW_C_M_B1",NA,NA,NA,"null",NA,NA,NA,NA,NA,NA
"null","<img src='gifs/BlackGender4a.gif' style='height:400px;''></img>",NA,"html-keyboard-response",89,667051,"0.0-13.0-1.4",7526,"ListB","man","chinese","SW_C_M_B1",NA,NA,NA,"null",NA,NA,NA,NA,NA,NA
"null","正在陪伴",NA,"html-keyboard-response",90,670063,"0.0-13.0-2.4",7526,"ListB","man","chinese","SW_C_M_B1",NA,NA,NA,"null",NA,NA,NA,NA,NA,NA
"13482",NA,NA,"survey-text",91,683546,"0.0-13.0-3.4",7526,"ListB","man","chinese","SW_C_M_B1",NA,NA,NA,NA,"{""Q0"":""麦克正在陪伴凯特""}","<img src='gifs/BlackGender4a.gif' style='height:400px;''></img>","陪伴","正在陪伴","chinese",NA
"null","<div style=""font-size:60px;"">+</div>",NA,"html-keyboard-response",92,684056,"0.0-13.0-0.5",7526,"ListB","man","chinese","SW_C_M_B1",NA,NA,NA,"null",NA,NA,NA,NA,NA,NA
"null","<img src='gifs/ChineseGender2b.gif' style='height:400px;''></img>",NA,"html-keyboard-response",93,686056,"0.0-13.0-1.5",7526,"ListB","man","chinese","SW_C_M_B1",NA,NA,NA,"null",NA,NA,NA,NA,NA,NA
"null","正在说服",NA,"html-keyboard-response",94,689057,"0.0-13.0-2.5",7526,"ListB","man","chinese","SW_C_M_B1",NA,NA,NA,"null",NA,NA,NA,NA,NA,NA
"56015.70000000298",NA,NA,"survey-text",95,745074,"0.0-13.0-3.5",7526,"ListB","man","chinese","SW_C_M_B1",NA,NA,NA,NA,"{""Q0"":""卢克正在说服露丝""}","<img src='gifs/ChineseGender2b.gif' style='height:400px;''></img>","说服","正在说服","chinese",NA
"null","<div style=""font-size:60px;"">+</div>",NA,"html-keyboard-response",96,745587,"0.0-13.0-0.6",7526,"ListB","man","chinese","SW_C_M_B1",NA,NA,NA,"null",NA,NA,NA,NA,NA,NA
"null","<img src='gifs/BlackGender3a.gif' style='height:400px;''></img>",NA,"html-keyboard-response",97,747588,"0.0-13.0-1.6",7526,"ListB","man","chinese","SW_C_M_B1",NA,NA,NA,"null",NA,NA,NA,NA,NA,NA
"null","正在面向",NA,"html-keyboard-response",98,750593,"0.0-13.0-2.6",7526,"ListB","man","chinese","SW_C_M_B1",NA,NA,NA,"null",NA,NA,NA,NA,NA,NA
"11038",NA,NA,"survey-text",99,761632,"0.0-13.0-3.6",7526,"ListB","man","chinese","SW_C_M_B1",NA,NA,NA,NA,"{""Q0"":""卡特正在面向弗雷""}","<img src='gifs/BlackGender3a.gif' style='height:400px;''></img>","面向","正在面向","chinese",NA
"null","<div style=""font-size:60px;"">+</div>",NA,"html-keyboard-response",100,762136,"0.0-13.0-0.7",7526,"ListB","man","chinese","SW_C_M_B1",NA,NA,NA,"null",NA,NA,NA,NA,NA,NA
"null","<img src='gifs/MaleRace3a.gif' style='height:400px;''></img>",NA,"html-keyboard-response",101,764137,"0.0-13.0-1.7",7526,"ListB","man","chinese","SW_C_M_B1",NA,NA,NA,"null",NA,NA,NA,NA,NA,NA
"null","正在聘用",NA,"html-keyboard-response",102,767139,"0.0-13.0-2.7",7526,"ListB","man","chinese","SW_C_M_B1",NA,NA,NA,"null",NA,NA,NA,NA,NA,NA
"11598",NA,NA,"survey-text",103,778738,"0.0-13.0-3.7",7526,"ListB","man","chinese","SW_C_M_B1",NA,NA,NA,NA,"{""Q0"":""戴夫正在聘用弗雷""}","<img src='gifs/MaleRace3a.gif' style='height:400px;''></img>","聘用","正在聘用","chinese",NA
"null","<div style=""font-size:60px;"">+</div>",NA,"html-keyboard-response",104,779253,"0.0-13.0-0.8",7526,"ListB","man","chinese","SW_C_M_B1",NA,NA,NA,"null",NA,NA,NA,NA,NA,NA
"null","<img src='gifs/FemaleRace3a.gif' style='height:400px;''></img>",NA,"html-keyboard-response",105,781254,"0.0-13.0-1.8",7526,"ListB","man","chinese","SW_C_M_B1",NA,NA,NA,"null",NA,NA,NA,NA,NA,NA
"null","正在表扬",NA,"html-keyboard-response",106,784256,"0.0-13.0-2.8",7526,"ListB","man","chinese","SW_C_M_B1",NA,NA,NA,"null",NA,NA,NA,NA,NA,NA
"19452.39999999851",NA,NA,"survey-text",107,803709,"0.0-13.0-3.8",7526,"ListB","man","chinese","SW_C_M_B1",NA,NA,NA,NA,"{""Q0"":""贝斯正在表扬露丝""}","<img src='gifs/FemaleRace3a.gif' style='height:400px;''></img>","表扬","正在表扬","chinese",NA
"null","<div style=""font-size:60px;"">+</div>",NA,"html-keyboard-response",108,804225,"0.0-13.0-0.9",7526,"ListB","man","chinese","SW_C_M_B1",NA,NA,NA,"null",NA,NA,NA,NA,NA,NA
"null","<img src='gifs/ChineseGender2a.gif' style='height:400px;''></img>",NA,"html-keyboard-response",109,806226,"0.0-13.0-1.9",7526,"ListB","man","chinese","SW_C_M_B1",NA,NA,NA,"null",NA,NA,NA,NA,NA,NA
"null","正在答应",NA,"html-keyboard-response",110,809228,"0.0-13.0-2.9",7526,"ListB","man","chinese","SW_C_M_B1",NA,NA,NA,"null",NA,NA,NA,NA,NA,NA
"22717.69999999553",NA,NA,"survey-text",111,831947,"0.0-13.0-3.9",7526,"ListB","man","chinese","SW_C_M_B1",NA,NA,NA,NA,"{""Q0"":""卢克正在答应霍普""}","<img src='gifs/ChineseGender2a.gif' style='height:400px;''></img>","答应","正在答应","chinese",NA
"null","<div style=""font-size:60px;"">+</div>",NA,"html-keyboard-response",112,832458,"0.0-13.0-0.10",7526,"ListB","man","chinese","SW_C_M_B1",NA,NA,NA,"null",NA,NA,NA,NA,NA,NA
"null","<img src='gifs/ChineseGender4b.gif' style='height:400px;''></img>",NA,"html-keyboard-response",113,834459,"0.0-13.0-1.10",7526,"ListB","man","chinese","SW_C_M_B1",NA,NA,NA,"null",NA,NA,NA,NA,NA,NA
"null","正在聆听",NA,"html-keyboard-response",114,837469,"0.0-13.0-2.10",7526,"ListB","man","chinese","SW_C_M_B1",NA,NA,NA,"null",NA,NA,NA,NA,NA,NA
"10321.39999999851",NA,NA,"survey-text",115,847791,"0.0-13.0-3.10",7526,"ListB","man","chinese","SW_C_M_B1",NA,NA,NA,NA,"{""Q0"":""戴夫正在聆听霍普""}","<img src='gifs/ChineseGender4b.gif' style='height:400px;''></img>","聆听","正在聆听","chinese",NA
"null","<div style=""font-size:60px;"">+</div>",NA,"html-keyboard-response",116,848293,"0.0-13.0-0.11",7526,"ListB","man","chinese","SW_C_M_B1",NA,NA,NA,"null",NA,NA,NA,NA,NA,NA
"null","<img src='gifs/MaleRace2a.gif' style='height:400px;''></img>",NA,"html-keyboard-response",117,850297,"0.0-13.0-1.11",7526,"ListB","man","chinese","SW_C_M_B1",NA,NA,NA,"null",NA,NA,NA,NA,NA,NA
"null","正在接近",NA,"html-keyboard-response",118,853305,"0.0-13.0-2.11",7526,"ListB","man","chinese","SW_C_M_B1",NA,NA,NA,"null",NA,NA,NA,NA,NA,NA
"9090.19999999553",NA,NA,"survey-text",119,862396,"0.0-13.0-3.11",7526,"ListB","man","chinese","SW_C_M_B1",NA,NA,NA,NA,"{""Q0"":""卢克正在接近麦克""}","<img src='gifs/MaleRace2a.gif' style='height:400px;''></img>","接近","正在接近","chinese",NA
"null","<div style=""font-size:60px;"">+</div>",NA,"html-keyboard-response",120,862904,"0.0-13.0-0.12",7526,"ListB","man","chinese","SW_C_M_B1",NA,NA,NA,"null",NA,NA,NA,NA,NA,NA
"null","<img src='gifs/ChineseGender3b.gif' style='height:400px;''></img>",NA,"html-keyboard-response",121,864906,"0.0-13.0-1.12",7526,"ListB","man","chinese","SW_C_M_B1",NA,NA,NA,"null",NA,NA,NA,NA,NA,NA
"null","正在面向",NA,"html-keyboard-response",122,867906,"0.0-13.0-2.12",7526,"ListB","man","chinese","SW_C_M_B1",NA,NA,NA,"null",NA,NA,NA,NA,NA,NA
"20966.5",NA,NA,"survey-text",123,888874,"0.0-13.0-3.12",7526,"ListB","man","chinese","SW_C_M_B1",NA,NA,NA,NA,"{""Q0"":""戴夫正在面向露丝""}","<img src='gifs/ChineseGender3b.gif' style='height:400px;''></img>","面向","正在面向","chinese",NA
"null","<div style=""font-size:60px;"">+</div>",NA,"html-keyboard-response",124,889383,"0.0-13.0-0.13",7526,"ListB","man","chinese","SW_C_M_B1",NA,NA,NA,"null",NA,NA,NA,NA,NA,NA
"null","<img src='gifs/BlackGender3a.gif' style='height:400px;''></img>",NA,"html-keyboard-response",125,891385,"0.0-13.0-1.13",7526,"ListB","man","chinese","SW_C_M_B1",NA,NA,NA,"null",NA,NA,NA,NA,NA,NA
"null","正在看着",NA,"html-keyboard-response",126,894385,"0.0-13.0-2.13",7526,"ListB","man","chinese","SW_C_M_B1",NA,NA,NA,"null",NA,NA,NA,NA,NA,NA
"16710",NA,NA,"survey-text",127,911096,"0.0-13.0-3.13",7526,"ListB","man","chinese","SW_C_M_B1",NA,NA,NA,NA,"{""Q0"":""弗雷正在看着凯特""}","<img src='gifs/BlackGender3a.gif' style='height:400px;''></img>","看着","正在看着","chinese",NA
"null","<div style=""font-size:60px;"">+</div>",NA,"html-keyboard-response",128,911607,"0.0-13.0-0.14",7526,"ListB","man","chinese","SW_C_M_B1",NA,NA,NA,"null",NA,NA,NA,NA,NA,NA
"null","<img src='gifs/MaleRace2b.gif' style='height:400px;''></img>",NA,"html-keyboard-response",129,913614,"0.0-13.0-1.14",7526,"ListB","man","chinese","SW_C_M_B1",NA,NA,NA,"null",NA,NA,NA,NA,NA,NA
"null","正在接近",NA,"html-keyboard-response",130,916615,"0.0-13.0-2.14",7526,"ListB","man","chinese","SW_C_M_B1",NA,NA,NA,"null",NA,NA,NA,NA,NA,NA
"11708.39999999851",NA,NA,"survey-text",131,928324,"0.0-13.0-3.14",7526,"ListB","man","chinese","SW_C_M_B1",NA,NA,NA,NA,"{""Q0"":""麦克正在接近卢克""}","<img src='gifs/MaleRace2b.gif' style='height:400px;''></img>","接近","正在接近","chinese",NA
"null","<div style=""font-size:60px;"">+</div>",NA,"html-keyboard-response",132,928829,"0.0-13.0-0.15",7526,"ListB","man","chinese","SW_C_M_B1",NA,NA,NA,"null",NA,NA,NA,NA,NA,NA
"null","<img src='gifs/FemaleRace2b.gif' style='height:400px;''></img>",NA,"html-keyboard-response",133,930831,"0.0-13.0-1.15",7526,"ListB","man","chinese","SW_C_M_B1",NA,NA,NA,"null",NA,NA,NA,NA,NA,NA
"null","正在加入",NA,"html-keyboard-response",134,933832,"0.0-13.0-2.15",7526,"ListB","man","chinese","SW_C_M_B1",NA,NA,NA,"null",NA,NA,NA,NA,NA,NA
"8105.60000000149",NA,NA,"survey-text",135,941939,"0.0-13.0-3.15",7526,"ListB","man","chinese","SW_C_M_B1",NA,NA,NA,NA,"{""Q0"":""霍普正在加入凯特""}","<img src='gifs/FemaleRace2b.gif' style='height:400px;''></img>","加入","正在加入","chinese",NA
"null","<div style=""font-size:60px;"">+</div>",NA,"html-keyboard-response",136,942445,"0.0-13.0-0.16",7526,"ListB","man","chinese","SW_C_M_B1",NA,NA,NA,"null",NA,NA,NA,NA,NA,NA
"null","<img src='gifs/BlackGender3b.gif' style='height:400px;''></img>",NA,"html-keyboard-response",137,944446,"0.0-13.0-1.16",7526,"ListB","man","chinese","SW_C_M_B1",NA,NA,NA,"null",NA,NA,NA,NA,NA,NA
"null","正在联系",NA,"html-keyboard-response",138,947457,"0.0-13.0-2.16",7526,"ListB","man","chinese","SW_C_M_B1",NA,NA,NA,"null",NA,NA,NA,NA,NA,NA
"8232",NA,NA,"survey-text",139,955690,"0.0-13.0-3.16",7526,"ListB","man","chinese","SW_C_M_B1",NA,NA,NA,NA,"{""Q0"":""弗雷正在联系凯特""}","<img src='gifs/BlackGender3b.gif' style='height:400px;''></img>","联系","正在联系","chinese",NA
"null","<div style=""font-size:60px;"">+</div>",NA,"html-keyboard-response",140,956205,"0.0-13.0-0.17",7526,"ListB","man","chinese","SW_C_M_B1",NA,NA,NA,"null",NA,NA,NA,NA,NA,NA
"null","<img src='gifs/ChineseGender4a.gif' style='height:400px;''></img>",NA,"html-keyboard-response",141,958206,"0.0-13.0-1.17",7526,"ListB","man","chinese","SW_C_M_B1",NA,NA,NA,"null",NA,NA,NA,NA,NA,NA
"null","正在面向",NA,"html-keyboard-response",142,961220,"0.0-13.0-2.17",7526,"ListB","man","chinese","SW_C_M_B1",NA,NA,NA,"null",NA,NA,NA,NA,NA,NA
"23298.89999999851",NA,NA,"survey-text",143,984520,"0.0-13.0-3.17",7526,"ListB","man","chinese","SW_C_M_B1",NA,NA,NA,NA,"{""Q0"":""霍普正在面向戴夫""}","<img src='gifs/ChineseGender4a.gif' style='height:400px;''></img>","面向","正在面向","chinese",NA
"6757.70000000298","<img src='img/portrait_matrix_listB_chinese.jpg' style='width:900px;height:500px;''></img><p>如果您已经记住了所有的人物和名字，请点击继续。</p><p><strong>请注意：您对先前记忆的面孔将在本实验中被测试5次。</strong></p>",0,"html-button-response",144,991279,"0.0-14.0-0.0",7526,"ListB","man","chinese","SW_C_M_B1",NA,NA,NA,NA,NA,NA,NA,NA,NA,NA
"7594.70000000298","<img src=""portrait/BW1.jpg""style=""height:400px;""></img>",0,"html-button-response",145,999885,"0.0-14.0-1.0",7526,"ListB","man","chinese","SW_C_M_B1",NA,"true",0,NA,NA,NA,NA,NA,NA,NA
"null","正确",NA,"html-keyboard-response",146,1001387,"0.0-14.0-2.0-0.0",7526,"ListB","man","chinese","SW_C_M_B1",NA,NA,NA,"null",NA,NA,NA,NA,NA,NA
"1252.4000000059605","<img src=""portrait/WW2.jpg""style=""height:400px;""></img>",3,"html-button-response",147,1002640,"0.0-14.0-4.0",7526,"ListB","man","chinese","SW_C_M_B1",NA,"true",3,NA,NA,NA,NA,NA,NA,NA
"null","正确",NA,"html-keyboard-response",148,1004147,"0.0-14.0-5.0-0.0",7526,"ListB","man","chinese","SW_C_M_B1",NA,NA,NA,"null",NA,NA,NA,NA,NA,NA
"1544.6000000014901","<img src=""portrait/WW1.jpg""style=""height:400px;""></img>",1,"html-button-response",149,1005693,"0.0-14.0-7.0",7526,"ListB","man","chinese","SW_C_M_B1",NA,"true",1,NA,NA,NA,NA,NA,NA,NA
"null","正确",NA,"html-keyboard-response",150,1007203,"0.0-14.0-8.0-0.0",7526,"ListB","man","chinese","SW_C_M_B1",NA,NA,NA,"null",NA,NA,NA,NA,NA,NA
"2654.2000000029802","<img src=""portrait/BM2.jpg""style=""height:400px;""></img>",5,"html-button-response",151,1009858,"0.0-14.0-10.0",7526,"ListB","man","chinese","SW_C_M_B1",NA,"true",5,NA,NA,NA,NA,NA,NA,NA
"null","正确",NA,"html-keyboard-response",152,1011371,"0.0-14.0-11.0-0.0",7526,"ListB","man","chinese","SW_C_M_B1",NA,NA,NA,"null",NA,NA,NA,NA,NA,NA
"3504.7000000029802","<img src=""portrait/BM1.jpg""style=""height:400px;""></img>",4,"html-button-response",153,1014877,"0.0-14.0-13.0",7526,"ListB","man","chinese","SW_C_M_B1",NA,"true",4,NA,NA,NA,NA,NA,NA,NA
"null","正确",NA,"html-keyboard-response",154,1016380,"0.0-14.0-14.0-0.0",7526,"ListB","man","chinese","SW_C_M_B1",NA,NA,NA,"null",NA,NA,NA,NA,NA,NA
"2044.8000000044703","<img src=""portrait/BW2.jpg""style=""height:400px;""></img>",2,"html-button-response",155,1018426,"0.0-14.0-16.0",7526,"ListB","man","chinese","SW_C_M_B1",NA,"true",2,NA,NA,NA,NA,NA,NA,NA
"null","正确",NA,"html-keyboard-response",156,1019927,"0.0-14.0-17.0-0.0",7526,"ListB","man","chinese","SW_C_M_B1",NA,NA,NA,"null",NA,NA,NA,NA,NA,NA
"3006.60000000149","<img src=""portrait/WM2.jpg""style=""height:400px;""></img>",7,"html-button-response",157,1022935,"0.0-14.0-19.0",7526,"ListB","man","chinese","SW_C_M_B1",NA,"true",7,NA,NA,NA,NA,NA,NA,NA
"null","正确",NA,"html-keyboard-response",158,1024437,"0.0-14.0-20.0-0.0",7526,"ListB","man","chinese","SW_C_M_B1",NA,NA,NA,"null",NA,NA,NA,NA,NA,NA
"4303.30000000447","<img src=""portrait/WM1.jpg""style=""height:400px;""></img>",6,"html-button-response",159,1028741,"0.0-14.0-22.0",7526,"ListB","man","chinese","SW_C_M_B1",NA,"true",6,NA,NA,NA,NA,NA,NA,NA
"null","正确",NA,"html-keyboard-response",160,1030243,"0.0-14.0-23.0-0.0",7526,"ListB","man","chinese","SW_C_M_B1",NA,NA,NA,"null",NA,NA,NA,NA,NA,NA
"993.2000000029802","<p>您第一次在8题里答对了 8 题。 请点击继续</p>",0,"html-button-response",161,1031237,"0.0-14.0-25.0",7526,"ListB","man","chinese","SW_C_M_B1",NA,NA,NA,NA,NA,NA,NA,NA,NA,NA
"null","<div style=""font-size:60px;"">+</div>",NA,"html-keyboard-response",162,1032739,"0.0-15.0-0.0",7526,"ListB","man","chinese","SW_C_M_B1",NA,NA,NA,"null",NA,NA,NA,NA,NA,NA
"null","<img src='gifs/BlackGender2a.gif' style='height:400px;''></img>",NA,"html-keyboard-response",163,1034740,"0.0-15.0-1.0",7526,"ListB","man","chinese","SW_C_M_B1",NA,NA,NA,"null",NA,NA,NA,NA,NA,NA
"null","正在跟随",NA,"html-keyboard-response",164,1037741,"0.0-15.0-2.0",7526,"ListB","man","chinese","SW_C_M_B1",NA,NA,NA,"null",NA,NA,NA,NA,NA,NA
"11640.69999999553",NA,NA,"survey-text",165,1049382,"0.0-15.0-3.0",7526,"ListB","man","chinese","SW_C_M_B1",NA,NA,NA,NA,"{""Q0"":""麦克正在跟随弗雷""}","<img src='gifs/BlackGender2a.gif' style='height:400px;''></img>","跟随","正在跟随","chinese",NA
"null","<div style=""font-size:60px;"">+</div>",NA,"html-keyboard-response",166,1049892,"0.0-15.0-0.1",7526,"ListB","man","chinese","SW_C_M_B1",NA,NA,NA,"null",NA,NA,NA,NA,NA,NA
"null","<img src='gifs/MaleRace3b.gif' style='height:400px;''></img>",NA,"html-keyboard-response",167,1051893,"0.0-15.0-1.1",7526,"ListB","man","chinese","SW_C_M_B1",NA,NA,NA,"null",NA,NA,NA,NA,NA,NA
"null","正在聘用",NA,"html-keyboard-response",168,1054903,"0.0-15.0-2.1",7526,"ListB","man","chinese","SW_C_M_B1",NA,NA,NA,"null",NA,NA,NA,NA,NA,NA
"8039.30000000447",NA,NA,"survey-text",169,1062944,"0.0-15.0-3.1",7526,"ListB","man","chinese","SW_C_M_B1",NA,NA,NA,NA,"{""Q0"":""戴夫正在聘用弗雷""}","<img src='gifs/MaleRace3b.gif' style='height:400px;''></img>","聘用","正在聘用","chinese",NA
"null","<div style=""font-size:60px;"">+</div>",NA,"html-keyboard-response",170,1063451,"0.0-15.0-0.2",7526,"ListB","man","chinese","SW_C_M_B1",NA,NA,NA,"null",NA,NA,NA,NA,NA,NA
"null","<img src='gifs/MaleRace2b.gif' style='height:400px;''></img>",NA,"html-keyboard-response",171,1065455,"0.0-15.0-1.2",7526,"ListB","man","chinese","SW_C_M_B1",NA,NA,NA,"null",NA,NA,NA,NA,NA,NA
"null","正在联系",NA,"html-keyboard-response",172,1068465,"0.0-15.0-2.2",7526,"ListB","man","chinese","SW_C_M_B1",NA,NA,NA,"null",NA,NA,NA,NA,NA,NA
"5949.60000000149",NA,NA,"survey-text",173,1074416,"0.0-15.0-3.2",7526,"ListB","man","chinese","SW_C_M_B1",NA,NA,NA,NA,"{""Q0"":""卢克正在联系麦克""}","<img src='gifs/MaleRace2b.gif' style='height:400px;''></img>","联系","正在联系","chinese",NA
"null","<div style=""font-size:60px;"">+</div>",NA,"html-keyboard-response",174,1074932,"0.0-15.0-0.3",7526,"ListB","man","chinese","SW_C_M_B1",NA,NA,NA,"null",NA,NA,NA,NA,NA,NA
"null","<img src='gifs/FemaleRace4a.gif' style='height:400px;''></img>",NA,"html-keyboard-response",175,1076935,"0.0-15.0-1.3",7526,"ListB","man","chinese","SW_C_M_B1",NA,NA,NA,"null",NA,NA,NA,NA,NA,NA
"null","正在答应",NA,"html-keyboard-response",176,1079944,"0.0-15.0-2.3",7526,"ListB","man","chinese","SW_C_M_B1",NA,NA,NA,"null",NA,NA,NA,NA,NA,NA
"7530.10000000149",NA,NA,"survey-text",177,1087475,"0.0-15.0-3.3",7526,"ListB","man","chinese","SW_C_M_B1",NA,NA,NA,NA,"{""Q0"":""凯特正在答应露丝""}","<img src='gifs/FemaleRace4a.gif' style='height:400px;''></img>","答应","正在答应","chinese",NA
"null","<div style=""font-size:60px;"">+</div>",NA,"html-keyboard-response",178,1087985,"0.0-15.0-0.4",7526,"ListB","man","chinese","SW_C_M_B1",NA,NA,NA,"null",NA,NA,NA,NA,NA,NA
"null","<img src='gifs/ChineseGender1b.gif' style='height:400px;''></img>",NA,"html-keyboard-response",179,1089987,"0.0-15.0-1.4",7526,"ListB","man","chinese","SW_C_M_B1",NA,NA,NA,"null",NA,NA,NA,NA,NA,NA
"null","正在答应",NA,"html-keyboard-response",180,1092996,"0.0-15.0-2.4",7526,"ListB","man","chinese","SW_C_M_B1",NA,NA,NA,"null",NA,NA,NA,NA,NA,NA
"11739.09999999404",NA,NA,"survey-text",181,1104737,"0.0-15.0-3.4",7526,"ListB","man","chinese","SW_C_M_B1",NA,NA,NA,NA,"{""Q0"":""霍普正在答应卢克""}","<img src='gifs/ChineseGender1b.gif' style='height:400px;''></img>","答应","正在答应","chinese",NA
"null","<div style=""font-size:60px;"">+</div>",NA,"html-keyboard-response",182,1105244,"0.0-15.0-0.5",7526,"ListB","man","chinese","SW_C_M_B1",NA,NA,NA,"null",NA,NA,NA,NA,NA,NA
"null","<img src='gifs/MaleRace4b.gif' style='height:400px;''></img>",NA,"html-keyboard-response",183,1107249,"0.0-15.0-1.5",7526,"ListB","man","chinese","SW_C_M_B1",NA,NA,NA,"null",NA,NA,NA,NA,NA,NA
"null","正在看着",NA,"html-keyboard-response",184,1110259,"0.0-15.0-2.5",7526,"ListB","man","chinese","SW_C_M_B1",NA,NA,NA,"null",NA,NA,NA,NA,NA,NA
"7753.89999999851",NA,NA,"survey-text",185,1118014,"0.0-15.0-3.5",7526,"ListB","man","chinese","SW_C_M_B1",NA,NA,NA,NA,"{""Q0"":""麦克正在看着戴夫""}","<img src='gifs/MaleRace4b.gif' style='height:400px;''></img>","看着","正在看着","chinese",NA
"null","<div style=""font-size:60px;"">+</div>",NA,"html-keyboard-response",186,1118525,"0.0-15.0-0.6",7526,"ListB","man","chinese","SW_C_M_B1",NA,NA,NA,"null",NA,NA,NA,NA,NA,NA
"null","<img src='gifs/FemaleRace3b.gif' style='height:400px;''></img>",NA,"html-keyboard-response",187,1120525,"0.0-15.0-1.6",7526,"ListB","man","chinese","SW_C_M_B1",NA,NA,NA,"null",NA,NA,NA,NA,NA,NA
"null","正在触摸",NA,"html-keyboard-response",188,1123540,"0.0-15.0-2.6",7526,"ListB","man","chinese","SW_C_M_B1",NA,NA,NA,"null",NA,NA,NA,NA,NA,NA
"7457",NA,NA,"survey-text",189,1130999,"0.0-15.0-3.6",7526,"ListB","man","chinese","SW_C_M_B1",NA,NA,NA,NA,"{""Q0"":""露丝正在触摸贝斯""}","<img src='gifs/FemaleRace3b.gif' style='height:400px;''></img>","触摸","正在触摸","chinese",NA
"null","<div style=""font-size:60px;"">+</div>",NA,"html-keyboard-response",190,1131502,"0.0-15.0-0.7",7526,"ListB","man","chinese","SW_C_M_B1",NA,NA,NA,"null",NA,NA,NA,NA,NA,NA
"null","<img src='gifs/FemaleRace4a.gif' style='height:400px;''></img>",NA,"html-keyboard-response",191,1133506,"0.0-15.0-1.7",7526,"ListB","man","chinese","SW_C_M_B1",NA,NA,NA,"null",NA,NA,NA,NA,NA,NA
"null","正在接近",NA,"html-keyboard-response",192,1136516,"0.0-15.0-2.7",7526,"ListB","man","chinese","SW_C_M_B1",NA,NA,NA,"null",NA,NA,NA,NA,NA,NA
"8157.70000000298",NA,NA,"survey-text",193,1144674,"0.0-15.0-3.7",7526,"ListB","man","chinese","SW_C_M_B1",NA,NA,NA,NA,"{""Q0"":""露丝正在接近凯特""}","<img src='gifs/FemaleRace4a.gif' style='height:400px;''></img>","接近","正在接近","chinese",NA
"null","<div style=""font-size:60px;"">+</div>",NA,"html-keyboard-response",194,1145181,"0.0-15.0-0.8",7526,"ListB","man","chinese","SW_C_M_B1",NA,NA,NA,"null",NA,NA,NA,NA,NA,NA
"null","<img src='gifs/ChineseGender3a.gif' style='height:400px;''></img>",NA,"html-keyboard-response",195,1147197,"0.0-15.0-1.8",7526,"ListB","man","chinese","SW_C_M_B1",NA,NA,NA,"null",NA,NA,NA,NA,NA,NA
"null","正在聘用",NA,"html-keyboard-response",196,1150201,"0.0-15.0-2.8",7526,"ListB","man","chinese","SW_C_M_B1",NA,NA,NA,"null",NA,NA,NA,NA,NA,NA
"7811.70000000298",NA,NA,"survey-text",197,1158014,"0.0-15.0-3.8",7526,"ListB","man","chinese","SW_C_M_B1",NA,NA,NA,NA,"{""Q0"":""戴夫正在聘用露丝""}","<img src='gifs/ChineseGender3a.gif' style='height:400px;''></img>","聘用","正在聘用","chinese",NA
"null","<div style=""font-size:60px;"">+</div>",NA,"html-keyboard-response",198,1158518,"0.0-15.0-0.9",7526,"ListB","man","chinese","SW_C_M_B1",NA,NA,NA,"null",NA,NA,NA,NA,NA,NA
"null","<img src='gifs/FemaleRace1b.gif' style='height:400px;''></img>",NA,"html-keyboard-response",199,1160522,"0.0-15.0-1.9",7526,"ListB","man","chinese","SW_C_M_B1",NA,NA,NA,"null",NA,NA,NA,NA,NA,NA
"null","正在表扬",NA,"html-keyboard-response",200,1163528,"0.0-15.0-2.9",7526,"ListB","man","chinese","SW_C_M_B1",NA,NA,NA,"null",NA,NA,NA,NA,NA,NA
"10991.5",NA,NA,"survey-text",201,1174521,"0.0-15.0-3.9",7526,"ListB","man","chinese","SW_C_M_B1",NA,NA,NA,NA,"{""Q0"":""霍普正在表扬贝斯""}","<img src='gifs/FemaleRace1b.gif' style='height:400px;''></img>","表扬","正在表扬","chinese",NA
"null","<div style=""font-size:60px;"">+</div>",NA,"html-keyboard-response",202,1175033,"0.0-15.0-0.10",7526,"ListB","man","chinese","SW_C_M_B1",NA,NA,NA,"null",NA,NA,NA,NA,NA,NA
"null","<img src='gifs/ChineseGender2a.gif' style='height:400px;''></img>",NA,"html-keyboard-response",203,1177039,"0.0-15.0-1.10",7526,"ListB","man","chinese","SW_C_M_B1",NA,NA,NA,"null",NA,NA,NA,NA,NA,NA
"null","正在触摸",NA,"html-keyboard-response",204,1180043,"0.0-15.0-2.10",7526,"ListB","man","chinese","SW_C_M_B1",NA,NA,NA,"null",NA,NA,NA,NA,NA,NA
"8843.10000000149",NA,NA,"survey-text",205,1188887,"0.0-15.0-3.10",7526,"ListB","man","chinese","SW_C_M_B1",NA,NA,NA,NA,"{""Q0"":""露丝正在触摸卢克""}","<img src='gifs/ChineseGender2a.gif' style='height:400px;''></img>","触摸","正在触摸","chinese",NA
"null","<div style=""font-size:60px;"">+</div>",NA,"html-keyboard-response",206,1189402,"0.0-15.0-0.11",7526,"ListB","man","chinese","SW_C_M_B1",NA,NA,NA,"null",NA,NA,NA,NA,NA,NA
"null","<img src='gifs/MaleRace4a.gif' style='height:400px;''></img>",NA,"html-keyboard-response",207,1191406,"0.0-15.0-1.11",7526,"ListB","man","chinese","SW_C_M_B1",NA,NA,NA,"null",NA,NA,NA,NA,NA,NA
"null","正在提到",NA,"html-keyboard-response",208,1194417,"0.0-15.0-2.11",7526,"ListB","man","chinese","SW_C_M_B1",NA,NA,NA,"null",NA,NA,NA,NA,NA,NA
"8256.20000000298",NA,NA,"survey-text",209,1202675,"0.0-15.0-3.11",7526,"ListB","man","chinese","SW_C_M_B1",NA,NA,NA,NA,"{""Q0"":""麦克正在提到戴夫""}","<img src='gifs/MaleRace4a.gif' style='height:400px;''></img>","提到","正在提到","chinese",NA
"null","<div style=""font-size:60px;"">+</div>",NA,"html-keyboard-response",210,1203183,"0.0-15.0-0.12",7526,"ListB","man","chinese","SW_C_M_B1",NA,NA,NA,"null",NA,NA,NA,NA,NA,NA
"null","<img src='gifs/BlackGender2b.gif' style='height:400px;''></img>",NA,"html-keyboard-response",211,1205189,"0.0-15.0-1.12",7526,"ListB","man","chinese","SW_C_M_B1",NA,NA,NA,"null",NA,NA,NA,NA,NA,NA
"null","正在聆听",NA,"html-keyboard-response",212,1208198,"0.0-15.0-2.12",7526,"ListB","man","chinese","SW_C_M_B1",NA,NA,NA,"null",NA,NA,NA,NA,NA,NA
"5560.29999999702",NA,NA,"survey-text",213,1213759,"0.0-15.0-3.12",7526,"ListB","man","chinese","SW_C_M_B1",NA,NA,NA,NA,"{""Q0"":""贝斯正在聆听麦克""}","<img src='gifs/BlackGender2b.gif' style='height:400px;''></img>","聆听","正在聆听","chinese",NA
"null","<div style=""font-size:60px;"">+</div>",NA,"html-keyboard-response",214,1214274,"0.0-15.0-0.13",7526,"ListB","man","chinese","SW_C_M_B1",NA,NA,NA,"null",NA,NA,NA,NA,NA,NA
"null","<img src='gifs/BlackGender4a.gif' style='height:400px;''></img>",NA,"html-keyboard-response",215,1216277,"0.0-15.0-1.13",7526,"ListB","man","chinese","SW_C_M_B1",NA,NA,NA,"null",NA,NA,NA,NA,NA,NA
"null","正在聆听",NA,"html-keyboard-response",216,1219281,"0.0-15.0-2.13",7526,"ListB","man","chinese","SW_C_M_B1",NA,NA,NA,"null",NA,NA,NA,NA,NA,NA
"7282.29999999702",NA,NA,"survey-text",217,1226565,"0.0-15.0-3.13",7526,"ListB","man","chinese","SW_C_M_B1",NA,NA,NA,NA,"{""Q0"":""麦克正在聆听凯特""}","<img src='gifs/BlackGender4a.gif' style='height:400px;''></img>","聆听","正在聆听","chinese",NA
"null","<div style=""font-size:60px;"">+</div>",NA,"html-keyboard-response",218,1227072,"0.0-15.0-0.14",7526,"ListB","man","chinese","SW_C_M_B1",NA,NA,NA,"null",NA,NA,NA,NA,NA,NA
"null","<img src='gifs/BlackGender4b.gif' style='height:400px;''></img>",NA,"html-keyboard-response",219,1229074,"0.0-15.0-1.14",7526,"ListB","man","chinese","SW_C_M_B1",NA,NA,NA,"null",NA,NA,NA,NA,NA,NA
"null","正在接近",NA,"html-keyboard-response",220,1232085,"0.0-15.0-2.14",7526,"ListB","man","chinese","SW_C_M_B1",NA,NA,NA,"null",NA,NA,NA,NA,NA,NA
"6619.5",NA,NA,"survey-text",221,1238706,"0.0-15.0-3.14",7526,"ListB","man","chinese","SW_C_M_B1",NA,NA,NA,NA,"{""Q0"":""麦克正在接近凯特""}","<img src='gifs/BlackGender4b.gif' style='height:400px;''></img>","接近","正在接近","chinese",NA
"null","<div style=""font-size:60px;"">+</div>",NA,"html-keyboard-response",222,1239211,"0.0-15.0-0.15",7526,"ListB","man","chinese","SW_C_M_B1",NA,NA,NA,"null",NA,NA,NA,NA,NA,NA
"null","<img src='gifs/MaleRace3a.gif' style='height:400px;''></img>",NA,"html-keyboard-response",223,1241213,"0.0-15.0-1.15",7526,"ListB","man","chinese","SW_C_M_B1",NA,NA,NA,"null",NA,NA,NA,NA,NA,NA
"null","正在看着",NA,"html-keyboard-response",224,1244218,"0.0-15.0-2.15",7526,"ListB","man","chinese","SW_C_M_B1",NA,NA,NA,"null",NA,NA,NA,NA,NA,NA
"11847.39999999851",NA,NA,"survey-text",225,1256067,"0.0-15.0-3.15",7526,"ListB","man","chinese","SW_C_M_B1",NA,NA,NA,NA,"{""Q0"":""弗雷正在看这卢克""}","<img src='gifs/MaleRace3a.gif' style='height:400px;''></img>","看着","正在看着","chinese",NA
"null","<div style=""font-size:60px;"">+</div>",NA,"html-keyboard-response",226,1256578,"0.0-15.0-0.16",7526,"ListB","man","chinese","SW_C_M_B1",NA,NA,NA,"null",NA,NA,NA,NA,NA,NA
"null","<img src='gifs/FemaleRace2a.gif' style='height:400px;''></img>",NA,"html-keyboard-response",227,1258581,"0.0-15.0-1.16",7526,"ListB","man","chinese","SW_C_M_B1",NA,NA,NA,"null",NA,NA,NA,NA,NA,NA
"null","正在提到",NA,"html-keyboard-response",228,1261591,"0.0-15.0-2.16",7526,"ListB","man","chinese","SW_C_M_B1",NA,NA,NA,"null",NA,NA,NA,NA,NA,NA
"7755",NA,NA,"survey-text",229,1269347,"0.0-15.0-3.16",7526,"ListB","man","chinese","SW_C_M_B1",NA,NA,NA,NA,"{""Q0"":""凯特正在提到霍普""}","<img src='gifs/FemaleRace2a.gif' style='height:400px;''></img>","提到","正在提到","chinese",NA
"null","<div style=""font-size:60px;"">+</div>",NA,"html-keyboard-response",230,1269857,"0.0-15.0-0.17",7526,"ListB","man","chinese","SW_C_M_B1",NA,NA,NA,"null",NA,NA,NA,NA,NA,NA
"null","<img src='gifs/BlackGender1b.gif' style='height:400px;''></img>",NA,"html-keyboard-response",231,1271862,"0.0-15.0-1.17",7526,"ListB","man","chinese","SW_C_M_B1",NA,NA,NA,"null",NA,NA,NA,NA,NA,NA
"null","正在触摸",NA,"html-keyboard-response",232,1274868,"0.0-15.0-2.17",7526,"ListB","man","chinese","SW_C_M_B1",NA,NA,NA,"null",NA,NA,NA,NA,NA,NA
"7387.19999999553",NA,NA,"survey-text",233,1282257,"0.0-15.0-3.17",7526,"ListB","man","chinese","SW_C_M_B1",NA,NA,NA,NA,"{""Q0"":""弗雷正在触摸贝斯""}","<img src='gifs/BlackGender1b.gif' style='height:400px;''></img>","触摸","正在触摸","chinese",NA
"6241.79999999702","<img src='img/portrait_matrix_listB_chinese.jpg' style='width:900px;height:500px;''></img><p>如果您已经记住了所有的人物和名字，请点击继续。</p><p><strong>请注意：您对先前记忆的面孔将在本实验中被测试5次。</strong></p>",0,"html-button-response",234,1288499,"0.0-16.0-0.0",7526,"ListB","man","chinese","SW_C_M_B1",NA,NA,NA,NA,NA,NA,NA,NA,NA,NA
"10233.5","<img src=""portrait/WM2.jpg""style=""height:400px;""></img>",7,"html-button-response",235,1299734,"0.0-16.0-1.0",7526,"ListB","man","chinese","SW_C_M_B1",NA,"true",7,NA,NA,NA,NA,NA,NA,NA
"null","正确",NA,"html-keyboard-response",236,1301248,"0.0-16.0-2.0-0.0",7526,"ListB","man","chinese","SW_C_M_B1",NA,NA,NA,"null",NA,NA,NA,NA,NA,NA
"2093","<img src=""portrait/BM1.jpg""style=""height:400px;""></img>",4,"html-button-response",237,1303342,"0.0-16.0-4.0",7526,"ListB","man","chinese","SW_C_M_B1",NA,"true",4,NA,NA,NA,NA,NA,NA,NA
"null","正确",NA,"html-keyboard-response",238,1304849,"0.0-16.0-5.0-0.0",7526,"ListB","man","chinese","SW_C_M_B1",NA,NA,NA,"null",NA,NA,NA,NA,NA,NA
"3778.2000000029802","<img src=""portrait/BW2.jpg""style=""height:400px;""></img>",2,"html-button-response",239,1308628,"0.0-16.0-7.0",7526,"ListB","man","chinese","SW_C_M_B1",NA,"true",2,NA,NA,NA,NA,NA,NA,NA
"null","正确",NA,"html-keyboard-response",240,1310130,"0.0-16.0-8.0-0.0",7526,"ListB","man","chinese","SW_C_M_B1",NA,NA,NA,"null",NA,NA,NA,NA,NA,NA
"4788.70000000298","<img src=""portrait/BW1.jpg""style=""height:400px;""></img>",0,"html-button-response",241,1314919,"0.0-16.0-10.0",7526,"ListB","man","chinese","SW_C_M_B1",NA,"true",0,NA,NA,NA,NA,NA,NA,NA
"null","正确",NA,"html-keyboard-response",242,1316421,"0.0-16.0-11.0-0.0",7526,"ListB","man","chinese","SW_C_M_B1",NA,NA,NA,"null",NA,NA,NA,NA,NA,NA
"1508.5","<img src=""portrait/WW2.jpg""style=""height:400px;""></img>",3,"html-button-response",243,1317930,"0.0-16.0-13.0",7526,"ListB","man","chinese","SW_C_M_B1",NA,"true",3,NA,NA,NA,NA,NA,NA,NA
"null","正确",NA,"html-keyboard-response",244,1319436,"0.0-16.0-14.0-0.0",7526,"ListB","man","chinese","SW_C_M_B1",NA,NA,NA,"null",NA,NA,NA,NA,NA,NA
"2010.1000000014901","<img src=""portrait/BM2.jpg""style=""height:400px;""></img>",5,"html-button-response",245,1321447,"0.0-16.0-16.0",7526,"ListB","man","chinese","SW_C_M_B1",NA,"true",5,NA,NA,NA,NA,NA,NA,NA
"null","正确",NA,"html-keyboard-response",246,1322968,"0.0-16.0-17.0-0.0",7526,"ListB","man","chinese","SW_C_M_B1",NA,NA,NA,"null",NA,NA,NA,NA,NA,NA
"2004.2999999970198","<img src=""portrait/WW1.jpg""style=""height:400px;""></img>",1,"html-button-response",247,1324973,"0.0-16.0-19.0",7526,"ListB","man","chinese","SW_C_M_B1",NA,"true",1,NA,NA,NA,NA,NA,NA,NA
"null","正确",NA,"html-keyboard-response",248,1326490,"0.0-16.0-20.0-0.0",7526,"ListB","man","chinese","SW_C_M_B1",NA,NA,NA,"null",NA,NA,NA,NA,NA,NA
"11931.60000000149","<img src=""portrait/WM1.jpg""style=""height:400px;""></img>",6,"html-button-response",249,1338422,"0.0-16.0-22.0",7526,"ListB","man","chinese","SW_C_M_B1",NA,"true",6,NA,NA,NA,NA,NA,NA,NA
"null","正确",NA,"html-keyboard-response",250,1339938,"0.0-16.0-23.0-0.0",7526,"ListB","man","chinese","SW_C_M_B1",NA,NA,NA,"null",NA,NA,NA,NA,NA,NA
"2036.6999999955297","<p>您第一次在8题里答对了 8 题。 请点击继续</p>",0,"html-button-response",251,1341975,"0.0-16.0-25.0",7526,"ListB","man","chinese","SW_C_M_B1",NA,NA,NA,NA,NA,NA,NA,NA,NA,NA
"null","<div style=""font-size:60px;"">+</div>",NA,"html-keyboard-response",252,1343488,"0.0-17.0-0.0",7526,"ListB","man","chinese","SW_C_M_B1",NA,NA,NA,"null",NA,NA,NA,NA,NA,NA
"null","<img src='gifs/ChineseGender1b.gif' style='height:400px;''></img>",NA,"html-keyboard-response",253,1345498,"0.0-17.0-1.0",7526,"ListB","man","chinese","SW_C_M_B1",NA,NA,NA,"null",NA,NA,NA,NA,NA,NA
"null","正在介绍",NA,"html-keyboard-response",254,1348503,"0.0-17.0-2.0",7526,"ListB","man","chinese","SW_C_M_B1",NA,NA,NA,"null",NA,NA,NA,NA,NA,NA
"7927.29999999702",NA,NA,"survey-text",255,1356432,"0.0-17.0-3.0",7526,"ListB","man","chinese","SW_C_M_B1",NA,NA,NA,NA,"{""Q0"":""卢克正在介绍露丝""}","<img src='gifs/ChineseGender1b.gif' style='height:400px;''></img>","介绍","正在介绍","chinese",NA
"null","<div style=""font-size:60px;"">+</div>",NA,"html-keyboard-response",256,1356936,"0.0-17.0-0.1",7526,"ListB","man","chinese","SW_C_M_B1",NA,NA,NA,"null",NA,NA,NA,NA,NA,NA
"null","<img src='gifs/ChineseGender2b.gif' style='height:400px;''></img>",NA,"html-keyboard-response",257,1358943,"0.0-17.0-1.1",7526,"ListB","man","chinese","SW_C_M_B1",NA,NA,NA,"null",NA,NA,NA,NA,NA,NA
"null","正在答应",NA,"html-keyboard-response",258,1361950,"0.0-17.0-2.1",7526,"ListB","man","chinese","SW_C_M_B1",NA,NA,NA,"null",NA,NA,NA,NA,NA,NA
"6259",NA,NA,"survey-text",259,1368210,"0.0-17.0-3.1",7526,"ListB","man","chinese","SW_C_M_B1",NA,NA,NA,NA,"{""Q0"":""卢克正在答应露丝""}","<img src='gifs/ChineseGender2b.gif' style='height:400px;''></img>","答应","正在答应","chinese",NA
"null","<div style=""font-size:60px;"">+</div>",NA,"html-keyboard-response",260,1368725,"0.0-17.0-0.2",7526,"ListB","man","chinese","SW_C_M_B1",NA,NA,NA,"null",NA,NA,NA,NA,NA,NA
"null","<img src='gifs/FemaleRace2a.gif' style='height:400px;''></img>",NA,"html-keyboard-response",261,1370729,"0.0-17.0-1.2",7526,"ListB","man","chinese","SW_C_M_B1",NA,NA,NA,"null",NA,NA,NA,NA,NA,NA
"null","正在看着",NA,"html-keyboard-response",262,1373733,"0.0-17.0-2.2",7526,"ListB","man","chinese","SW_C_M_B1",NA,NA,NA,"null",NA,NA,NA,NA,NA,NA
"5851.79999999702",NA,NA,"survey-text",263,1379587,"0.0-17.0-3.2",7526,"ListB","man","chinese","SW_C_M_B1",NA,NA,NA,NA,"{""Q0"":""霍普正在看着凯特""}","<img src='gifs/FemaleRace2a.gif' style='height:400px;''></img>","看着","正在看着","chinese",NA
"null","<div style=""font-size:60px;"">+</div>",NA,"html-keyboard-response",264,1380095,"0.0-17.0-0.3",7526,"ListB","man","chinese","SW_C_M_B1",NA,NA,NA,"null",NA,NA,NA,NA,NA,NA
"null","<img src='gifs/BlackGender1b.gif' style='height:400px;''></img>",NA,"html-keyboard-response",265,1382100,"0.0-17.0-1.3",7526,"ListB","man","chinese","SW_C_M_B1",NA,NA,NA,"null",NA,NA,NA,NA,NA,NA
"null","正在聆听",NA,"html-keyboard-response",266,1385102,"0.0-17.0-2.3",7526,"ListB","man","chinese","SW_C_M_B1",NA,NA,NA,"null",NA,NA,NA,NA,NA,NA
"7232.5",NA,NA,"survey-text",267,1392336,"0.0-17.0-3.3",7526,"ListB","man","chinese","SW_C_M_B1",NA,NA,NA,NA,"{""Q0"":""贝斯正在聆听弗雷""}","<img src='gifs/BlackGender1b.gif' style='height:400px;''></img>","聆听","正在聆听","chinese",NA
"null","<div style=""font-size:60px;"">+</div>",NA,"html-keyboard-response",268,1392839,"0.0-17.0-0.4",7526,"ListB","man","chinese","SW_C_M_B1",NA,NA,NA,"null",NA,NA,NA,NA,NA,NA
"null","<img src='gifs/ChineseGender4a.gif' style='height:400px;''></img>",NA,"html-keyboard-response",269,1394843,"0.0-17.0-1.4",7526,"ListB","man","chinese","SW_C_M_B1",NA,NA,NA,"null",NA,NA,NA,NA,NA,NA
"null","正在陪伴",NA,"html-keyboard-response",270,1397846,"0.0-17.0-2.4",7526,"ListB","man","chinese","SW_C_M_B1",NA,NA,NA,"null",NA,NA,NA,NA,NA,NA
"12122.40000000596",NA,NA,"survey-text",271,1409970,"0.0-17.0-3.4",7526,"ListB","man","chinese","SW_C_M_B1",NA,NA,NA,NA,"{""Q0"":""霍普正在陪伴戴夫""}","<img src='gifs/ChineseGender4a.gif' style='height:400px;''></img>","陪伴","正在陪伴","chinese",NA
"null","<div style=""font-size:60px;"">+</div>",NA,"html-keyboard-response",272,1410479,"0.0-17.0-0.5",7526,"ListB","man","chinese","SW_C_M_B1",NA,NA,NA,"null",NA,NA,NA,NA,NA,NA
"null","<img src='gifs/MaleRace1a.gif' style='height:400px;''></img>",NA,"html-keyboard-response",273,1412489,"0.0-17.0-1.5",7526,"ListB","man","chinese","SW_C_M_B1",NA,NA,NA,"null",NA,NA,NA,NA,NA,NA
"null","正在陪伴",NA,"html-keyboard-response",274,1415497,"0.0-17.0-2.5",7526,"ListB","man","chinese","SW_C_M_B1",NA,NA,NA,"null",NA,NA,NA,NA,NA,NA
"7690.5999999940395",NA,NA,"survey-text",275,1423189,"0.0-17.0-3.5",7526,"ListB","man","chinese","SW_C_M_B1",NA,NA,NA,NA,"{""Q0"":""卢克正在陪伴弗雷""}","<img src='gifs/MaleRace1a.gif' style='height:400px;''></img>","陪伴","正在陪伴","chinese",NA
"null","<div style=""font-size:60px;"">+</div>",NA,"html-keyboard-response",276,1423701,"0.0-17.0-0.6",7526,"ListB","man","chinese","SW_C_M_B1",NA,NA,NA,"null",NA,NA,NA,NA,NA,NA
"null","<img src='gifs/FemaleRace4b.gif' style='height:400px;''></img>",NA,"html-keyboard-response",277,1425706,"0.0-17.0-1.6",7526,"ListB","man","chinese","SW_C_M_B1",NA,NA,NA,"null",NA,NA,NA,NA,NA,NA
"null","正在说服",NA,"html-keyboard-response",278,1428712,"0.0-17.0-2.6",7526,"ListB","man","chinese","SW_C_M_B1",NA,NA,NA,"null",NA,NA,NA,NA,NA,NA
"5412.0999999940395",NA,NA,"survey-text",279,1434126,"0.0-17.0-3.6",7526,"ListB","man","chinese","SW_C_M_B1",NA,NA,NA,NA,"{""Q0"":""露丝正在说服凯特""}","<img src='gifs/FemaleRace4b.gif' style='height:400px;''></img>","说服","正在说服","chinese",NA
"null","<div style=""font-size:60px;"">+</div>",NA,"html-keyboard-response",280,1434629,"0.0-17.0-0.7",7526,"ListB","man","chinese","SW_C_M_B1",NA,NA,NA,"null",NA,NA,NA,NA,NA,NA
"null","<img src='gifs/FemaleRace3b.gif' style='height:400px;''></img>",NA,"html-keyboard-response",281,1436634,"0.0-17.0-1.7",7526,"ListB","man","chinese","SW_C_M_B1",NA,NA,NA,"null",NA,NA,NA,NA,NA,NA
"null","正在面向",NA,"html-keyboard-response",282,1439639,"0.0-17.0-2.7",7526,"ListB","man","chinese","SW_C_M_B1",NA,NA,NA,"null",NA,NA,NA,NA,NA,NA
"10103",NA,NA,"survey-text",283,1449743,"0.0-17.0-3.7",7526,"ListB","man","chinese","SW_C_M_B1",NA,NA,NA,NA,"{""Q0"":""贝斯正在面向露丝""}","<img src='gifs/FemaleRace3b.gif' style='height:400px;''></img>","面向","正在面向","chinese",NA
"null","<div style=""font-size:60px;"">+</div>",NA,"html-keyboard-response",284,1450250,"0.0-17.0-0.8",7526,"ListB","man","chinese","SW_C_M_B1",NA,NA,NA,"null",NA,NA,NA,NA,NA,NA
"null","<img src='gifs/BlackGender3b.gif' style='height:400px;''></img>",NA,"html-keyboard-response",285,1452256,"0.0-17.0-1.8",7526,"ListB","man","chinese","SW_C_M_B1",NA,NA,NA,"null",NA,NA,NA,NA,NA,NA
"null","正在表扬",NA,"html-keyboard-response",286,1455265,"0.0-17.0-2.8",7526,"ListB","man","chinese","SW_C_M_B1",NA,NA,NA,"null",NA,NA,NA,NA,NA,NA
"14045.29999999702",NA,NA,"survey-text",287,1469311,"0.0-17.0-3.8",7526,"ListB","man","chinese","SW_C_M_B1",NA,NA,NA,NA,"{""Q0"":""凯特正在表扬弗雷""}","<img src='gifs/BlackGender3b.gif' style='height:400px;''></img>","表扬","正在表扬","chinese",NA
"null","<div style=""font-size:60px;"">+</div>",NA,"html-keyboard-response",288,1469818,"0.0-17.0-0.9",7526,"ListB","man","chinese","SW_C_M_B1",NA,NA,NA,"null",NA,NA,NA,NA,NA,NA
"null","<img src='gifs/FemaleRace1a.gif' style='height:400px;''></img>",NA,"html-keyboard-response",289,1471825,"0.0-17.0-1.9",7526,"ListB","man","chinese","SW_C_M_B1",NA,NA,NA,"null",NA,NA,NA,NA,NA,NA
"null","正在介绍",NA,"html-keyboard-response",290,1474834,"0.0-17.0-2.9",7526,"ListB","man","chinese","SW_C_M_B1",NA,NA,NA,"null",NA,NA,NA,NA,NA,NA
"6393.79999999702",NA,NA,"survey-text",291,1481230,"0.0-17.0-3.9",7526,"ListB","man","chinese","SW_C_M_B1",NA,NA,NA,NA,"{""Q0"":""贝斯正在介绍霍普""}","<img src='gifs/FemaleRace1a.gif' style='height:400px;''></img>","介绍","正在介绍","chinese",NA
"null","<div style=""font-size:60px;"">+</div>",NA,"html-keyboard-response",292,1481734,"0.0-17.0-0.10",7526,"ListB","man","chinese","SW_C_M_B1",NA,NA,NA,"null",NA,NA,NA,NA,NA,NA
"null","<img src='gifs/MaleRace1a.gif' style='height:400px;''></img>",NA,"html-keyboard-response",293,1483738,"0.0-17.0-1.10",7526,"ListB","man","chinese","SW_C_M_B1",NA,NA,NA,"null",NA,NA,NA,NA,NA,NA
"null","正在走向",NA,"html-keyboard-response",294,1486745,"0.0-17.0-2.10",7526,"ListB","man","chinese","SW_C_M_B1",NA,NA,NA,"null",NA,NA,NA,NA,NA,NA
"18719.5",NA,NA,"survey-text",295,1505467,"0.0-17.0-3.10",7526,"ListB","man","chinese","SW_C_M_B1",NA,NA,NA,NA,"{""Q0"":""弗雷正在走向卢克""}","<img src='gifs/MaleRace1a.gif' style='height:400px;''></img>","走向","正在走向","chinese",NA
"null","<div style=""font-size:60px;"">+</div>",NA,"html-keyboard-response",296,1505971,"0.0-17.0-0.11",7526,"ListB","man","chinese","SW_C_M_B1",NA,NA,NA,"null",NA,NA,NA,NA,NA,NA
"null","<img src='gifs/ChineseGender4b.gif' style='height:400px;''></img>",NA,"html-keyboard-response",297,1507975,"0.0-17.0-1.11",7526,"ListB","man","chinese","SW_C_M_B1",NA,NA,NA,"null",NA,NA,NA,NA,NA,NA
"null","正在介绍",NA,"html-keyboard-response",298,1510980,"0.0-17.0-2.11",7526,"ListB","man","chinese","SW_C_M_B1",NA,NA,NA,"null",NA,NA,NA,NA,NA,NA
"8650.5",NA,NA,"survey-text",299,1519631,"0.0-17.0-3.11",7526,"ListB","man","chinese","SW_C_M_B1",NA,NA,NA,NA,"{""Q0"":""戴夫正在介绍霍普""}","<img src='gifs/ChineseGender4b.gif' style='height:400px;''></img>","介绍","正在介绍","chinese",NA
"null","<div style=""font-size:60px;"">+</div>",NA,"html-keyboard-response",300,1520143,"0.0-17.0-0.12",7526,"ListB","man","chinese","SW_C_M_B1",NA,NA,NA,"null",NA,NA,NA,NA,NA,NA
"null","<img src='gifs/BlackGender1a.gif' style='height:400px;''></img>",NA,"html-keyboard-response",301,1522147,"0.0-17.0-1.12",7526,"ListB","man","chinese","SW_C_M_B1",NA,NA,NA,"null",NA,NA,NA,NA,NA,NA
"null","正在介绍",NA,"html-keyboard-response",302,1525155,"0.0-17.0-2.12",7526,"ListB","man","chinese","SW_C_M_B1",NA,NA,NA,"null",NA,NA,NA,NA,NA,NA
"7339.89999999851",NA,NA,"survey-text",303,1532496,"0.0-17.0-3.12",7526,"ListB","man","chinese","SW_C_M_B1",NA,NA,NA,NA,"{""Q0"":""弗雷正在介绍贝斯""}","<img src='gifs/BlackGender1a.gif' style='height:400px;''></img>","介绍","正在介绍","chinese",NA
"null","<div style=""font-size:60px;"">+</div>",NA,"html-keyboard-response",304,1533005,"0.0-17.0-0.13",7526,"ListB","man","chinese","SW_C_M_B1",NA,NA,NA,"null",NA,NA,NA,NA,NA,NA
"null","<img src='gifs/MaleRace2a.gif' style='height:400px;''></img>",NA,"html-keyboard-response",305,1535007,"0.0-17.0-1.13",7526,"ListB","man","chinese","SW_C_M_B1",NA,NA,NA,"null",NA,NA,NA,NA,NA,NA
"null","正在联系",NA,"html-keyboard-response",306,1538012,"0.0-17.0-2.13",7526,"ListB","man","chinese","SW_C_M_B1",NA,NA,NA,"null",NA,NA,NA,NA,NA,NA
"14387.59999999404",NA,NA,"survey-text",307,1552402,"0.0-17.0-3.13",7526,"ListB","man","chinese","SW_C_M_B1",NA,NA,NA,NA,"{""Q0"":""麦克正在介绍卢克""}","<img src='gifs/MaleRace2a.gif' style='height:400px;''></img>","联系","正在联系","chinese",NA
"null","<div style=""font-size:60px;"">+</div>",NA,"html-keyboard-response",308,1552905,"0.0-17.0-0.14",7526,"ListB","man","chinese","SW_C_M_B1",NA,NA,NA,"null",NA,NA,NA,NA,NA,NA
"null","<img src='gifs/MaleRace4b.gif' style='height:400px;''></img>",NA,"html-keyboard-response",309,1554913,"0.0-17.0-1.14",7526,"ListB","man","chinese","SW_C_M_B1",NA,NA,NA,"null",NA,NA,NA,NA,NA,NA
"null","正在陪伴",NA,"html-keyboard-response",310,1557920,"0.0-17.0-2.14",7526,"ListB","man","chinese","SW_C_M_B1",NA,NA,NA,"null",NA,NA,NA,NA,NA,NA
"6424.69999999553",NA,NA,"survey-text",311,1564346,"0.0-17.0-3.14",7526,"ListB","man","chinese","SW_C_M_B1",NA,NA,NA,NA,"{""Q0"":""戴夫正在陪伴麦克""}","<img src='gifs/MaleRace4b.gif' style='height:400px;''></img>","陪伴","正在陪伴","chinese",NA
"null","<div style=""font-size:60px;"">+</div>",NA,"html-keyboard-response",312,1564849,"0.0-17.0-0.15",7526,"ListB","man","chinese","SW_C_M_B1",NA,NA,NA,"null",NA,NA,NA,NA,NA,NA
"null","<img src='gifs/ChineseGender1a.gif' style='height:400px;''></img>",NA,"html-keyboard-response",313,1566850,"0.0-17.0-1.15",7526,"ListB","man","chinese","SW_C_M_B1",NA,NA,NA,"null",NA,NA,NA,NA,NA,NA
"null","正在触摸",NA,"html-keyboard-response",314,1569853,"0.0-17.0-2.15",7526,"ListB","man","chinese","SW_C_M_B1",NA,NA,NA,"null",NA,NA,NA,NA,NA,NA
"14038.69999999553",NA,NA,"survey-text",315,1583893,"0.0-17.0-3.15",7526,"ListB","man","chinese","SW_C_M_B1",NA,NA,NA,NA,"{""Q0"":""卢克正在触摸霍普""}","<img src='gifs/ChineseGender1a.gif' style='height:400px;''></img>","触摸","正在触摸","chinese",NA
"null","<div style=""font-size:60px;"">+</div>",NA,"html-keyboard-response",316,1584404,"0.0-17.0-0.16",7526,"ListB","man","chinese","SW_C_M_B1",NA,NA,NA,"null",NA,NA,NA,NA,NA,NA
"null","<img src='gifs/MaleRace1b.gif' style='height:400px;''></img>",NA,"html-keyboard-response",317,1586406,"0.0-17.0-1.16",7526,"ListB","man","chinese","SW_C_M_B1",NA,NA,NA,"null",NA,NA,NA,NA,NA,NA
"null","正在说服",NA,"html-keyboard-response",318,1589419,"0.0-17.0-2.16",7526,"ListB","man","chinese","SW_C_M_B1",NA,NA,NA,"null",NA,NA,NA,NA,NA,NA
"12822.10000000149",NA,NA,"survey-text",319,1602242,"0.0-17.0-3.16",7526,"ListB","man","chinese","SW_C_M_B1",NA,NA,NA,NA,"{""Q0"":""弗雷正在说服卢克""}","<img src='gifs/MaleRace1b.gif' style='height:400px;''></img>","说服","正在说服","chinese",NA
"null","<div style=""font-size:60px;"">+</div>",NA,"html-keyboard-response",320,1602757,"0.0-17.0-0.17",7526,"ListB","man","chinese","SW_C_M_B1",NA,NA,NA,"null",NA,NA,NA,NA,NA,NA
"null","<img src='gifs/MaleRace1b.gif' style='height:400px;''></img>",NA,"html-keyboard-response",321,1604766,"0.0-17.0-1.17",7526,"ListB","man","chinese","SW_C_M_B1",NA,NA,NA,"null",NA,NA,NA,NA,NA,NA
"null","正在提到",NA,"html-keyboard-response",322,1607775,"0.0-17.0-2.17",7526,"ListB","man","chinese","SW_C_M_B1",NA,NA,NA,"null",NA,NA,NA,NA,NA,NA
"5935.89999999851",NA,NA,"survey-text",323,1613712,"0.0-17.0-3.17",7526,"ListB","man","chinese","SW_C_M_B1",NA,NA,NA,NA,"{""Q0"":""卢克正在提到弗雷""}","<img src='gifs/MaleRace1b.gif' style='height:400px;''></img>","提到","正在提到","chinese",NA
"5577.20000000298","<p>Thank you for completing that task.</p><p>The final part of this session is a short questionnaire.</p><p>Press Continue.</p>",0,"html-button-response",324,1619290,"0.0-18.0",7526,"ListB","man","chinese","SW_C_M_B1",NA,NA,NA,NA,NA,NA,NA,NA,NA,NA
"83988.10000000149",NA,NA,"survey-text",325,1704287,"0.0-19.0",7526,"ListB","man","chinese","SW_C_M_B1",NA,NA,NA,NA,"{""Q0"":""21"",""Q1"":""Chinese"",""Q2"":""English"",""Q3"":""Uk"",""Q4"":""China "",""Q5"":""Asian"",""Q6"":""Male""}",NA,NA,NA,NA,"demographics"
"7454.89999999851","<p>Have you lived in the UK for the last 5 years or more?</p>",0,"html-button-response",326,1711743,"0.0-20.0",7526,"ListB","man","chinese","SW_C_M_B1",NA,NA,NA,NA,NA,NA,NA,NA,NA,"fiveyears"
"13879.09999999404",NA,NA,"external-html",327,1726690,"0.0-21.0",7526,"ListB","man","chinese","SW_C_M_B1","debrief.html",NA,NA,NA,NA,NA,NA,NA,NA,NA
"10205.60000000149",NA,NA,"survey-text",328,1736897,"0.0-22.0",7526,"ListB","man","chinese","SW_C_M_B1",NA,NA,NA,NA,"{""ptpt_id"":""SW_C_M_B1""}",NA,NA,NA,NA,"worker_id"
