"rt","stimulus","button_pressed","trial_type","trial_index","time_elapsed","internal_node_id","subject","list","ppt_gender","ppt_language","ptptID","url","first_guess","correct","key_press","responses","image","verb","phrase","condition","test_part"
"1152","Welcome to the experiment. Press Continue to begin.",0,"html-button-response",0,1155,"0.0-0.0",80810,"ListA","man","english","SW_E_M_A5",NA,NA,NA,NA,NA,NA,NA,NA,NA,NA
"11504",NA,NA,"external-html",1,13678,"0.0-1.0",80810,"ListA","man","english","SW_E_M_A5","consent.html",NA,NA,NA,NA,NA,NA,NA,NA,NA
"1339","<p>On the next page, you will see portraits of 8 people and their names.</p><p>Your first task is to take a few minutes to memorise the names of these people.</p><p>You will have to recall their names during the rest of the experiment, so it is</p><p>essential that you try to memorise these people and their names as best as you can.</p><p><strong>You will then be tested on your memory of these names and portraits.</strong></p><p>The experiment will start after you have completed this memory test.</p><p>Ready?</p>",0,"html-button-response",2,15018,"0.0-2.0",80810,"ListA","man","english","SW_E_M_A5",NA,NA,NA,NA,NA,NA,NA,NA,NA,NA
"149041","<img src='img/portrait_matrix_listA.jpg' style='width:900px;height:500px;''></img><p>If you have memorised all the portraits and names and are ready to start, press Continue.</p><p><strong>Please note: Your memory of these faces will be tested 5 times during this experiment.</strong></p>",0,"html-button-response",3,165064,"0.0-3.0-0.0",80810,"ListA","man","english","SW_E_M_A5",NA,NA,NA,NA,NA,NA,NA,NA,NA,NA
"13696","<img src=""portrait/BM1.jpg""style=""height:400px;""></img>",4,"html-button-response",4,179765,"0.0-3.0-1.0",80810,"ListA","man","english","SW_E_M_A5",NA,"true",4,NA,NA,NA,NA,NA,NA,NA
"null","CORRECT",NA,"html-keyboard-response",5,181295,"0.0-3.0-2.0-0.0",80810,"ListA","man","english","SW_E_M_A5",NA,NA,NA,"null",NA,NA,NA,NA,NA,NA
"3345","<img src=""portrait/WW2.jpg""style=""height:400px;""></img>",3,"html-button-response",6,184640,"0.0-3.0-4.0",80810,"ListA","man","english","SW_E_M_A5",NA,"true",3,NA,NA,NA,NA,NA,NA,NA
"null","CORRECT",NA,"html-keyboard-response",7,186157,"0.0-3.0-5.0-0.0",80810,"ListA","man","english","SW_E_M_A5",NA,NA,NA,"null",NA,NA,NA,NA,NA,NA
"3429","<img src=""portrait/WM1.jpg""style=""height:400px;""></img>",6,"html-button-response",8,189589,"0.0-3.0-7.0",80810,"ListA","man","english","SW_E_M_A5",NA,"true",6,NA,NA,NA,NA,NA,NA,NA
"null","CORRECT",NA,"html-keyboard-response",9,191108,"0.0-3.0-8.0-0.0",80810,"ListA","man","english","SW_E_M_A5",NA,NA,NA,"null",NA,NA,NA,NA,NA,NA
"5103","<img src=""portrait/BW1.jpg""style=""height:400px;""></img>",0,"html-button-response",10,196212,"0.0-3.0-10.0",80810,"ListA","man","english","SW_E_M_A5",NA,"true",0,NA,NA,NA,NA,NA,NA,NA
"null","CORRECT",NA,"html-keyboard-response",11,197727,"0.0-3.0-11.0-0.0",80810,"ListA","man","english","SW_E_M_A5",NA,NA,NA,"null",NA,NA,NA,NA,NA,NA
"18209","<img src=""portrait/WW1.jpg""style=""height:400px;""></img>",1,"html-button-response",12,215937,"0.0-3.0-13.0",80810,"ListA","man","english","SW_E_M_A5",NA,"true",1,NA,NA,NA,NA,NA,NA,NA
"null","CORRECT",NA,"html-keyboard-response",13,217449,"0.0-3.0-14.0-0.0",80810,"ListA","man","english","SW_E_M_A5",NA,NA,NA,"null",NA,NA,NA,NA,NA,NA
"21982","<img src=""portrait/WM2.jpg""style=""height:400px;""></img>",7,"html-button-response",14,239433,"0.0-3.0-16.0",80810,"ListA","man","english","SW_E_M_A5",NA,"true",7,NA,NA,NA,NA,NA,NA,NA
"null","CORRECT",NA,"html-keyboard-response",15,240955,"0.0-3.0-17.0-0.0",80810,"ListA","man","english","SW_E_M_A5",NA,NA,NA,"null",NA,NA,NA,NA,NA,NA
"2683","<img src=""portrait/BM2.jpg""style=""height:400px;""></img>",5,"html-button-response",16,243639,"0.0-3.0-19.0",80810,"ListA","man","english","SW_E_M_A5",NA,"true",5,NA,NA,NA,NA,NA,NA,NA
"null","CORRECT",NA,"html-keyboard-response",17,245155,"0.0-3.0-20.0-0.0",80810,"ListA","man","english","SW_E_M_A5",NA,NA,NA,"null",NA,NA,NA,NA,NA,NA
"38247","<img src=""portrait/BW2.jpg""style=""height:400px;""></img>",2,"html-button-response",18,283403,"0.0-3.0-22.0",80810,"ListA","man","english","SW_E_M_A5",NA,"true",2,NA,NA,NA,NA,NA,NA,NA
"null","CORRECT",NA,"html-keyboard-response",19,284921,"0.0-3.0-23.0-0.0",80810,"ListA","man","english","SW_E_M_A5",NA,NA,NA,"null",NA,NA,NA,NA,NA,NA
"24858","<p>You got 8 out of 8 right first time. Press Continue.</p>",0,"html-button-response",20,309781,"0.0-3.0-25.0",80810,"ListA","man","english","SW_E_M_A5",NA,NA,NA,NA,NA,NA,NA,NA,NA,NA
"1533","<p>In this experiment, you will view photographs of the people from the memory game.</p><p>By using the <strong>exact</strong> phrase given <i>after</i> the photograph appears and recalling the correct names of the people in the photographs, form a sentence describing an interaction. You do not need to capitalise names.</p><p>Type your answer in the space provided. Please complete every sentence before moving onto the next trial.</p><p>You will only have a few seconds to memorise each given photograph and phrase before you can respond, so try your best to focus.</p><p>An example is given below. Press 'Continue' when you are ready.</p><img src='img/speaking_example.jpg' style='width:800px;height:460px;''></img>",0,"html-button-response",21,312327,"0.0-4.0",80810,"ListA","man","english","SW_E_M_A5",NA,NA,NA,NA,NA,NA,NA,NA,NA,NA
"3106","<p>Before the experiment starts, you will watch two example trials. Press 'Continue'.</p>",0,"html-button-response",22,316446,"0.0-5.0",80810,"ListA","man","english","SW_E_M_A5",NA,NA,NA,NA,NA,NA,NA,NA,NA,NA
"null","<img src='img/meet.gif' style='height:400px;''></img>",NA,"html-keyboard-response",23,319462,"0.0-6.0",80810,"ListA","man","english","SW_E_M_A5",NA,NA,NA,"null",NA,NA,NA,NA,NA,NA
"null","<p>is meeting</p>",NA,"html-keyboard-response",24,321472,"0.0-7.0",80810,"ListA","man","english","SW_E_M_A5",NA,NA,NA,"null",NA,NA,NA,NA,NA,NA
"5071","<p><b>Answer:</b> kate is meeting beth</p>",0,"html-button-response",25,326544,"0.0-8.0",80810,"ListA","man","english","SW_E_M_A5",NA,NA,NA,NA,NA,NA,NA,NA,NA,NA
"null","<img src='img/spy.gif' style='height:400px;''></img>",NA,"html-keyboard-response",26,329555,"0.0-9.0",80810,"ListA","man","english","SW_E_M_A5",NA,NA,NA,"null",NA,NA,NA,NA,NA,NA
"null","<p>is being spied on by</p>",NA,"html-keyboard-response",27,331560,"0.0-10.0",80810,"ListA","man","english","SW_E_M_A5",NA,NA,NA,"null",NA,NA,NA,NA,NA,NA
"2772","<p><b>Answer:</b> luke is being spied on by dave</p>",0,"html-button-response",28,334332,"0.0-11.0",80810,"ListA","man","english","SW_E_M_A5",NA,NA,NA,NA,NA,NA,NA,NA,NA,NA
"1142","<p>Ready to start the experiment?</p><br><p><strong>Remember to describe the picture using a full sentence,</strong></p><p><strong>that combines the names of the people with the <i>exact</i> phrase given.</strong></p><p><strong>To receive full payment you must do this correctly.</strong></p><p><strong> You do not need to capitalise names or use punctuation.</strong></p><br><p>Press 'Continue' to begin.</p>",0,"html-button-response",29,336483,"0.0-12.0",80810,"ListA","man","english","SW_E_M_A5",NA,NA,NA,NA,NA,NA,NA,NA,NA,NA
"null","<div style=""font-size:60px;"">+</div>",NA,"html-keyboard-response",30,338011,"0.0-13.0-0.0",80810,"ListA","man","english","SW_E_M_A5",NA,NA,NA,"null",NA,NA,NA,NA,NA,NA
"null","<img src='gifs/MaleRace3b.gif' style='height:400px;''></img>",NA,"html-keyboard-response",31,340014,"0.0-13.0-1.0",80810,"ListA","man","english","SW_E_M_A5",NA,NA,NA,"null",NA,NA,NA,NA,NA,NA
"null","is introducing",NA,"html-keyboard-response",32,343020,"0.0-13.0-2.0",80810,"ListA","man","english","SW_E_M_A5",NA,NA,NA,"null",NA,NA,NA,NA,NA,NA
"21162",NA,NA,"survey-text",33,364185,"0.0-13.0-3.0",80810,"ListA","man","english","SW_E_M_A5",NA,NA,NA,NA,"{""Q0"":""mike is introducing luke ""}","<img src='gifs/MaleRace3b.gif' style='height:400px;''></img>","introducing","is introducing","english",NA
"null","<div style=""font-size:60px;"">+</div>",NA,"html-keyboard-response",34,364687,"0.0-13.0-0.1",80810,"ListA","man","english","SW_E_M_A5",NA,NA,NA,"null",NA,NA,NA,NA,NA,NA
"null","<img src='gifs/ChineseGender4a.gif' style='height:400px;''></img>",NA,"html-keyboard-response",35,366695,"0.0-13.0-1.1",80810,"ListA","man","english","SW_E_M_A5",NA,NA,NA,"null",NA,NA,NA,NA,NA,NA
"null","is employing",NA,"html-keyboard-response",36,369698,"0.0-13.0-2.1",80810,"ListA","man","english","SW_E_M_A5",NA,NA,NA,"null",NA,NA,NA,NA,NA,NA
"18409",NA,NA,"survey-text",37,388109,"0.0-13.0-3.1",80810,"ListA","man","english","SW_E_M_A5",NA,NA,NA,NA,"{""Q0"":""kate is employing mike""}","<img src='gifs/ChineseGender4a.gif' style='height:400px;''></img>","employing","is employing","english",NA
"null","<div style=""font-size:60px;"">+</div>",NA,"html-keyboard-response",38,388624,"0.0-13.0-0.2",80810,"ListA","man","english","SW_E_M_A5",NA,NA,NA,"null",NA,NA,NA,NA,NA,NA
"null","<img src='gifs/ChineseGender3b.gif' style='height:400px;''></img>",NA,"html-keyboard-response",39,390632,"0.0-13.0-1.2",80810,"ListA","man","english","SW_E_M_A5",NA,NA,NA,"null",NA,NA,NA,NA,NA,NA
"null","is employing",NA,"html-keyboard-response",40,393634,"0.0-13.0-2.2",80810,"ListA","man","english","SW_E_M_A5",NA,NA,NA,"null",NA,NA,NA,NA,NA,NA
"13503",NA,NA,"survey-text",41,407138,"0.0-13.0-3.2",80810,"ListA","man","english","SW_E_M_A5",NA,NA,NA,NA,"{""Q0"":""mike is employing beth ""}","<img src='gifs/ChineseGender3b.gif' style='height:400px;''></img>","employing","is employing","english",NA
"null","<div style=""font-size:60px;"">+</div>",NA,"html-keyboard-response",42,407642,"0.0-13.0-0.3",80810,"ListA","man","english","SW_E_M_A5",NA,NA,NA,"null",NA,NA,NA,NA,NA,NA
"null","<img src='gifs/BlackGender4a.gif' style='height:400px;''></img>",NA,"html-keyboard-response",43,409655,"0.0-13.0-1.3",80810,"ListA","man","english","SW_E_M_A5",NA,NA,NA,"null",NA,NA,NA,NA,NA,NA
"null","is employing",NA,"html-keyboard-response",44,412667,"0.0-13.0-2.3",80810,"ListA","man","english","SW_E_M_A5",NA,NA,NA,"null",NA,NA,NA,NA,NA,NA
"229515",NA,NA,"survey-text",45,642183,"0.0-13.0-3.3",80810,"ListA","man","english","SW_E_M_A5",NA,NA,NA,NA,"{""Q0"":""dave is employing jane""}","<img src='gifs/BlackGender4a.gif' style='height:400px;''></img>","employing","is employing","english",NA
"null","<div style=""font-size:60px;"">+</div>",NA,"html-keyboard-response",46,642691,"0.0-13.0-0.4",80810,"ListA","man","english","SW_E_M_A5",NA,NA,NA,"null",NA,NA,NA,NA,NA,NA
"null","<img src='gifs/FemaleRace2b.gif' style='height:400px;''></img>",NA,"html-keyboard-response",47,644695,"0.0-13.0-1.4",80810,"ListA","man","english","SW_E_M_A5",NA,NA,NA,"null",NA,NA,NA,NA,NA,NA
"null","is listening to",NA,"html-keyboard-response",48,647697,"0.0-13.0-2.4",80810,"ListA","man","english","SW_E_M_A5",NA,NA,NA,"null",NA,NA,NA,NA,NA,NA
"22734",NA,NA,"survey-text",49,670433,"0.0-13.0-3.4",80810,"ListA","man","english","SW_E_M_A5",NA,NA,NA,NA,"{""Q0"":""jane is listening to kate""}","<img src='gifs/FemaleRace2b.gif' style='height:400px;''></img>","listening to","is listening to","english",NA
"null","<div style=""font-size:60px;"">+</div>",NA,"html-keyboard-response",50,670934,"0.0-13.0-0.5",80810,"ListA","man","english","SW_E_M_A5",NA,NA,NA,"null",NA,NA,NA,NA,NA,NA
"null","<img src='gifs/MaleRace4b.gif' style='height:400px;''></img>",NA,"html-keyboard-response",51,672939,"0.0-13.0-1.5",80810,"ListA","man","english","SW_E_M_A5",NA,NA,NA,"null",NA,NA,NA,NA,NA,NA
"null","is accompanying",NA,"html-keyboard-response",52,675947,"0.0-13.0-2.5",80810,"ListA","man","english","SW_E_M_A5",NA,NA,NA,"null",NA,NA,NA,NA,NA,NA
"15869",NA,NA,"survey-text",53,691819,"0.0-13.0-3.5",80810,"ListA","man","english","SW_E_M_A5",NA,NA,NA,NA,"{""Q0"":""dave is accompanying mike ""}","<img src='gifs/MaleRace4b.gif' style='height:400px;''></img>","accompanying","is accompanying","english",NA
"null","<div style=""font-size:60px;"">+</div>",NA,"html-keyboard-response",54,692330,"0.0-13.0-0.6",80810,"ListA","man","english","SW_E_M_A5",NA,NA,NA,"null",NA,NA,NA,NA,NA,NA
"null","<img src='gifs/ChineseGender3a.gif' style='height:400px;''></img>",NA,"html-keyboard-response",55,694342,"0.0-13.0-1.6",80810,"ListA","man","english","SW_E_M_A5",NA,NA,NA,"null",NA,NA,NA,NA,NA,NA
"null","is convincing",NA,"html-keyboard-response",56,697346,"0.0-13.0-2.6",80810,"ListA","man","english","SW_E_M_A5",NA,NA,NA,"null",NA,NA,NA,NA,NA,NA
"16152",NA,NA,"survey-text",57,713500,"0.0-13.0-3.6",80810,"ListA","man","english","SW_E_M_A5",NA,NA,NA,NA,"{""Q0"":""beth is convincing mike""}","<img src='gifs/ChineseGender3a.gif' style='height:400px;''></img>","convincing","is convincing","english",NA
"null","<div style=""font-size:60px;"">+</div>",NA,"html-keyboard-response",58,714015,"0.0-13.0-0.7",80810,"ListA","man","english","SW_E_M_A5",NA,NA,NA,"null",NA,NA,NA,NA,NA,NA
"null","<img src='gifs/FemaleRace1b.gif' style='height:400px;''></img>",NA,"html-keyboard-response",59,716027,"0.0-13.0-1.7",80810,"ListA","man","english","SW_E_M_A5",NA,NA,NA,"null",NA,NA,NA,NA,NA,NA
"null","is facing",NA,"html-keyboard-response",60,719036,"0.0-13.0-2.7",80810,"ListA","man","english","SW_E_M_A5",NA,NA,NA,"null",NA,NA,NA,NA,NA,NA
"10007",NA,NA,"survey-text",61,729045,"0.0-13.0-3.7",80810,"ListA","man","english","SW_E_M_A5",NA,NA,NA,NA,"{""Q0"":""ruth is facing kate""}","<img src='gifs/FemaleRace1b.gif' style='height:400px;''></img>","facing","is facing","english",NA
"null","<div style=""font-size:60px;"">+</div>",NA,"html-keyboard-response",62,729546,"0.0-13.0-0.8",80810,"ListA","man","english","SW_E_M_A5",NA,NA,NA,"null",NA,NA,NA,NA,NA,NA
"null","<img src='gifs/FemaleRace2a.gif' style='height:400px;''></img>",NA,"html-keyboard-response",63,731556,"0.0-13.0-1.8",80810,"ListA","man","english","SW_E_M_A5",NA,NA,NA,"null",NA,NA,NA,NA,NA,NA
"null","is walking towards",NA,"html-keyboard-response",64,734568,"0.0-13.0-2.8",80810,"ListA","man","english","SW_E_M_A5",NA,NA,NA,"null",NA,NA,NA,NA,NA,NA
"23717",NA,NA,"survey-text",65,758288,"0.0-13.0-3.8",80810,"ListA","man","english","SW_E_M_A5",NA,NA,NA,NA,"{""Q0"":""kate is walking towards jane ""}","<img src='gifs/FemaleRace2a.gif' style='height:400px;''></img>","walking towards","is walking towards","english",NA
"null","<div style=""font-size:60px;"">+</div>",NA,"html-keyboard-response",66,758796,"0.0-13.0-0.9",80810,"ListA","man","english","SW_E_M_A5",NA,NA,NA,"null",NA,NA,NA,NA,NA,NA
"null","<img src='gifs/MaleRace2b.gif' style='height:400px;''></img>",NA,"html-keyboard-response",67,760807,"0.0-13.0-1.9",80810,"ListA","man","english","SW_E_M_A5",NA,NA,NA,"null",NA,NA,NA,NA,NA,NA
"null","is contacting",NA,"html-keyboard-response",68,763823,"0.0-13.0-2.9",80810,"ListA","man","english","SW_E_M_A5",NA,NA,NA,"null",NA,NA,NA,NA,NA,NA
"26416",NA,NA,"survey-text",69,790241,"0.0-13.0-3.9",80810,"ListA","man","english","SW_E_M_A5",NA,NA,NA,NA,"{""Q0"":""dave is contacting fred ""}","<img src='gifs/MaleRace2b.gif' style='height:400px;''></img>","contacting","is contacting","english",NA
"null","<div style=""font-size:60px;"">+</div>",NA,"html-keyboard-response",70,790752,"0.0-13.0-0.10",80810,"ListA","man","english","SW_E_M_A5",NA,NA,NA,"null",NA,NA,NA,NA,NA,NA
"null","<img src='gifs/BlackGender2b.gif' style='height:400px;''></img>",NA,"html-keyboard-response",71,792757,"0.0-13.0-1.10",80810,"ListA","man","english","SW_E_M_A5",NA,NA,NA,"null",NA,NA,NA,NA,NA,NA
"null","is mentioning",NA,"html-keyboard-response",72,795771,"0.0-13.0-2.10",80810,"ListA","man","english","SW_E_M_A5",NA,NA,NA,"null",NA,NA,NA,NA,NA,NA
"26477",NA,NA,"survey-text",73,822251,"0.0-13.0-3.10",80810,"ListA","man","english","SW_E_M_A5",NA,NA,NA,NA,"{""Q0"":""dave is mentioning ruth""}","<img src='gifs/BlackGender2b.gif' style='height:400px;''></img>","mention","is mentioning","english",NA
"null","<div style=""font-size:60px;"">+</div>",NA,"html-keyboard-response",74,822752,"0.0-13.0-0.11",80810,"ListA","man","english","SW_E_M_A5",NA,NA,NA,"null",NA,NA,NA,NA,NA,NA
"null","<img src='gifs/MaleRace4b.gif' style='height:400px;''></img>",NA,"html-keyboard-response",75,824752,"0.0-13.0-1.11",80810,"ListA","man","english","SW_E_M_A5",NA,NA,NA,"null",NA,NA,NA,NA,NA,NA
"null","is joining",NA,"html-keyboard-response",76,827764,"0.0-13.0-2.11",80810,"ListA","man","english","SW_E_M_A5",NA,NA,NA,"null",NA,NA,NA,NA,NA,NA
"13856",NA,NA,"survey-text",77,841624,"0.0-13.0-3.11",80810,"ListA","man","english","SW_E_M_A5",NA,NA,NA,NA,"{""Q0"":""dave is joining mike""}","<img src='gifs/MaleRace4b.gif' style='height:400px;''></img>","join","is joining","english",NA
"null","<div style=""font-size:60px;"">+</div>",NA,"html-keyboard-response",78,842133,"0.0-13.0-0.12",80810,"ListA","man","english","SW_E_M_A5",NA,NA,NA,"null",NA,NA,NA,NA,NA,NA
"null","<img src='gifs/BlackGender2a.gif' style='height:400px;''></img>",NA,"html-keyboard-response",79,844137,"0.0-13.0-1.12",80810,"ListA","man","english","SW_E_M_A5",NA,NA,NA,"null",NA,NA,NA,NA,NA,NA
"null","is following",NA,"html-keyboard-response",80,847151,"0.0-13.0-2.12",80810,"ListA","man","english","SW_E_M_A5",NA,NA,NA,"null",NA,NA,NA,NA,NA,NA
"14883",NA,NA,"survey-text",81,862036,"0.0-13.0-3.12",80810,"ListA","man","english","SW_E_M_A5",NA,NA,NA,NA,"{""Q0"":""dave is following ruth""}","<img src='gifs/BlackGender2a.gif' style='height:400px;''></img>","following","is following","english",NA
"null","<div style=""font-size:60px;"">+</div>",NA,"html-keyboard-response",82,862548,"0.0-13.0-0.13",80810,"ListA","man","english","SW_E_M_A5",NA,NA,NA,"null",NA,NA,NA,NA,NA,NA
"null","<img src='gifs/BlackGender4b.gif' style='height:400px;''></img>",NA,"html-keyboard-response",83,864550,"0.0-13.0-1.13",80810,"ListA","man","english","SW_E_M_A5",NA,NA,NA,"null",NA,NA,NA,NA,NA,NA
"null","is promising",NA,"html-keyboard-response",84,867563,"0.0-13.0-2.13",80810,"ListA","man","english","SW_E_M_A5",NA,NA,NA,"null",NA,NA,NA,NA,NA,NA
"20615",NA,NA,"survey-text",85,888180,"0.0-13.0-3.13",80810,"ListA","man","english","SW_E_M_A5",NA,NA,NA,NA,"{""Q0"":""dave is promising jane ""}","<img src='gifs/BlackGender4b.gif' style='height:400px;''></img>","promising","is promising","english",NA
"null","<div style=""font-size:60px;"">+</div>",NA,"html-keyboard-response",86,888693,"0.0-13.0-0.14",80810,"ListA","man","english","SW_E_M_A5",NA,NA,NA,"null",NA,NA,NA,NA,NA,NA
"null","<img src='gifs/ChineseGender3a.gif' style='height:400px;''></img>",NA,"html-keyboard-response",87,890706,"0.0-13.0-1.14",80810,"ListA","man","english","SW_E_M_A5",NA,NA,NA,"null",NA,NA,NA,NA,NA,NA
"null","is facing",NA,"html-keyboard-response",88,893712,"0.0-13.0-2.14",80810,"ListA","man","english","SW_E_M_A5",NA,NA,NA,"null",NA,NA,NA,NA,NA,NA
"21956",NA,NA,"survey-text",89,915670,"0.0-13.0-3.14",80810,"ListA","man","english","SW_E_M_A5",NA,NA,NA,NA,"{""Q0"":""beth is facing mike""}","<img src='gifs/ChineseGender3a.gif' style='height:400px;''></img>","facing","is facing","english",NA
"null","<div style=""font-size:60px;"">+</div>",NA,"html-keyboard-response",90,916178,"0.0-13.0-0.15",80810,"ListA","man","english","SW_E_M_A5",NA,NA,NA,"null",NA,NA,NA,NA,NA,NA
"null","<img src='gifs/FemaleRace3a.gif' style='height:400px;''></img>",NA,"html-keyboard-response",91,918182,"0.0-13.0-1.15",80810,"ListA","man","english","SW_E_M_A5",NA,NA,NA,"null",NA,NA,NA,NA,NA,NA
"null","is approaching",NA,"html-keyboard-response",92,921189,"0.0-13.0-2.15",80810,"ListA","man","english","SW_E_M_A5",NA,NA,NA,"null",NA,NA,NA,NA,NA,NA
"24276",NA,NA,"survey-text",93,945467,"0.0-13.0-3.15",80810,"ListA","man","english","SW_E_M_A5",NA,NA,NA,NA,"{""Q0"":""ruth is approaching beth ""}","<img src='gifs/FemaleRace3a.gif' style='height:400px;''></img>","approaching","is approaching","english",NA
"null","<div style=""font-size:60px;"">+</div>",NA,"html-keyboard-response",94,945976,"0.0-13.0-0.16",80810,"ListA","man","english","SW_E_M_A5",NA,NA,NA,"null",NA,NA,NA,NA,NA,NA
"null","<img src='gifs/ChineseGender1b.gif' style='height:400px;''></img>",NA,"html-keyboard-response",95,947991,"0.0-13.0-1.16",80810,"ListA","man","english","SW_E_M_A5",NA,NA,NA,"null",NA,NA,NA,NA,NA,NA
"null","is following",NA,"html-keyboard-response",96,951003,"0.0-13.0-2.16",80810,"ListA","man","english","SW_E_M_A5",NA,NA,NA,"null",NA,NA,NA,NA,NA,NA
"11391",NA,NA,"survey-text",97,962396,"0.0-13.0-3.16",80810,"ListA","man","english","SW_E_M_A5",NA,NA,NA,NA,"{""Q0"":""fred is following kate""}","<img src='gifs/ChineseGender1b.gif' style='height:400px;''></img>","following","is following","english",NA
"null","<div style=""font-size:60px;"">+</div>",NA,"html-keyboard-response",98,962901,"0.0-13.0-0.17",80810,"ListA","man","english","SW_E_M_A5",NA,NA,NA,"null",NA,NA,NA,NA,NA,NA
"null","<img src='gifs/MaleRace1a.gif' style='height:400px;''></img>",NA,"html-keyboard-response",99,964913,"0.0-13.0-1.17",80810,"ListA","man","english","SW_E_M_A5",NA,NA,NA,"null",NA,NA,NA,NA,NA,NA
"null","is facing",NA,"html-keyboard-response",100,967923,"0.0-13.0-2.17",80810,"ListA","man","english","SW_E_M_A5",NA,NA,NA,"null",NA,NA,NA,NA,NA,NA
"14420",NA,NA,"survey-text",101,982345,"0.0-13.0-3.17",80810,"ListA","man","english","SW_E_M_A5",NA,NA,NA,NA,"{""Q0"":""ruth is facing fred""}","<img src='gifs/MaleRace1a.gif' style='height:400px;''></img>","facing","is facing","english",NA
"2584","<img src='img/portrait_matrix_listA.jpg' style='width:900px;height:500px;''></img><p>If you have memorised all the portraits and names and are ready to start, press Continue.</p><p><strong>Please note: Your memory of these faces will be tested 5 times during this experiment.</strong></p>",0,"html-button-response",102,984930,"0.0-14.0-0.0",80810,"ListA","man","english","SW_E_M_A5",NA,NA,NA,NA,NA,NA,NA,NA,NA,NA
"2470","<img src=""portrait/BW2.jpg""style=""height:400px;""></img>",2,"html-button-response",103,988409,"0.0-14.0-1.0",80810,"ListA","man","english","SW_E_M_A5",NA,"true",2,NA,NA,NA,NA,NA,NA,NA
"null","CORRECT",NA,"html-keyboard-response",104,989922,"0.0-14.0-2.0-0.0",80810,"ListA","man","english","SW_E_M_A5",NA,NA,NA,"null",NA,NA,NA,NA,NA,NA
"5169","<img src=""portrait/BW1.jpg""style=""height:400px;""></img>",0,"html-button-response",105,995093,"0.0-14.0-4.0",80810,"ListA","man","english","SW_E_M_A5",NA,"true",0,NA,NA,NA,NA,NA,NA,NA
"null","CORRECT",NA,"html-keyboard-response",106,996611,"0.0-14.0-5.0-0.0",80810,"ListA","man","english","SW_E_M_A5",NA,NA,NA,"null",NA,NA,NA,NA,NA,NA
"2783","<img src=""portrait/WM1.jpg""style=""height:400px;""></img>",6,"html-button-response",107,999396,"0.0-14.0-7.0",80810,"ListA","man","english","SW_E_M_A5",NA,"true",6,NA,NA,NA,NA,NA,NA,NA
"null","CORRECT",NA,"html-keyboard-response",108,1000908,"0.0-14.0-8.0-0.0",80810,"ListA","man","english","SW_E_M_A5",NA,NA,NA,"null",NA,NA,NA,NA,NA,NA
"1501","<img src=""portrait/WW2.jpg""style=""height:400px;""></img>",3,"html-button-response",109,1002411,"0.0-14.0-10.0",80810,"ListA","man","english","SW_E_M_A5",NA,"true",3,NA,NA,NA,NA,NA,NA,NA
"null","CORRECT",NA,"html-keyboard-response",110,1003930,"0.0-14.0-11.0-0.0",80810,"ListA","man","english","SW_E_M_A5",NA,NA,NA,"null",NA,NA,NA,NA,NA,NA
"1274","<img src=""portrait/WM2.jpg""style=""height:400px;""></img>",7,"html-button-response",111,1005205,"0.0-14.0-13.0",80810,"ListA","man","english","SW_E_M_A5",NA,"true",7,NA,NA,NA,NA,NA,NA,NA
"null","CORRECT",NA,"html-keyboard-response",112,1006723,"0.0-14.0-14.0-0.0",80810,"ListA","man","english","SW_E_M_A5",NA,NA,NA,"null",NA,NA,NA,NA,NA,NA
"2743","<img src=""portrait/BM1.jpg""style=""height:400px;""></img>",4,"html-button-response",113,1009467,"0.0-14.0-16.0",80810,"ListA","man","english","SW_E_M_A5",NA,"true",4,NA,NA,NA,NA,NA,NA,NA
"null","CORRECT",NA,"html-keyboard-response",114,1010974,"0.0-14.0-17.0-0.0",80810,"ListA","man","english","SW_E_M_A5",NA,NA,NA,"null",NA,NA,NA,NA,NA,NA
"3595","<img src=""portrait/WW1.jpg""style=""height:400px;""></img>",1,"html-button-response",115,1014569,"0.0-14.0-19.0",80810,"ListA","man","english","SW_E_M_A5",NA,"true",1,NA,NA,NA,NA,NA,NA,NA
"null","CORRECT",NA,"html-keyboard-response",116,1016080,"0.0-14.0-20.0-0.0",80810,"ListA","man","english","SW_E_M_A5",NA,NA,NA,"null",NA,NA,NA,NA,NA,NA
"7104","<img src=""portrait/BM2.jpg""style=""height:400px;""></img>",5,"html-button-response",117,1023184,"0.0-14.0-22.0",80810,"ListA","man","english","SW_E_M_A5",NA,"true",5,NA,NA,NA,NA,NA,NA,NA
"null","CORRECT",NA,"html-keyboard-response",118,1024713,"0.0-14.0-23.0-0.0",80810,"ListA","man","english","SW_E_M_A5",NA,NA,NA,"null",NA,NA,NA,NA,NA,NA
"2409","<p>You got 8 out of 8 right first time. Press Continue.</p>",0,"html-button-response",119,1027123,"0.0-14.0-25.0",80810,"ListA","man","english","SW_E_M_A5",NA,NA,NA,NA,NA,NA,NA,NA,NA,NA
"null","<div style=""font-size:60px;"">+</div>",NA,"html-keyboard-response",120,1028637,"0.0-15.0-0.0",80810,"ListA","man","english","SW_E_M_A5",NA,NA,NA,"null",NA,NA,NA,NA,NA,NA
"null","<img src='gifs/BlackGender4b.gif' style='height:400px;''></img>",NA,"html-keyboard-response",121,1030652,"0.0-15.0-1.0",80810,"ListA","man","english","SW_E_M_A5",NA,NA,NA,"null",NA,NA,NA,NA,NA,NA
"null","is touching",NA,"html-keyboard-response",122,1033660,"0.0-15.0-2.0",80810,"ListA","man","english","SW_E_M_A5",NA,NA,NA,"null",NA,NA,NA,NA,NA,NA
"23648",NA,NA,"survey-text",123,1057311,"0.0-15.0-3.0",80810,"ListA","man","english","SW_E_M_A5",NA,NA,NA,NA,"{""Q0"":""dave is touching jane""}","<img src='gifs/BlackGender4b.gif' style='height:400px;''></img>","touching","is touching","english",NA
"null","<div style=""font-size:60px;"">+</div>",NA,"html-keyboard-response",124,1057815,"0.0-15.0-0.1",80810,"ListA","man","english","SW_E_M_A5",NA,NA,NA,"null",NA,NA,NA,NA,NA,NA
"null","<img src='gifs/ChineseGender1a.gif' style='height:400px;''></img>",NA,"html-keyboard-response",125,1059819,"0.0-15.0-1.1",80810,"ListA","man","english","SW_E_M_A5",NA,NA,NA,"null",NA,NA,NA,NA,NA,NA
"null","is approaching",NA,"html-keyboard-response",126,1062825,"0.0-15.0-2.1",80810,"ListA","man","english","SW_E_M_A5",NA,NA,NA,"null",NA,NA,NA,NA,NA,NA
"20689",NA,NA,"survey-text",127,1083515,"0.0-15.0-3.1",80810,"ListA","man","english","SW_E_M_A5",NA,NA,NA,NA,"{""Q0"":""fred is approaching kate""}","<img src='gifs/ChineseGender1a.gif' style='height:400px;''></img>","approaching","is approaching","english",NA
"null","<div style=""font-size:60px;"">+</div>",NA,"html-keyboard-response",128,1084020,"0.0-15.0-0.2",80810,"ListA","man","english","SW_E_M_A5",NA,NA,NA,"null",NA,NA,NA,NA,NA,NA
"null","<img src='gifs/MaleRace2a.gif' style='height:400px;''></img>",NA,"html-keyboard-response",129,1086027,"0.0-15.0-1.2",80810,"ListA","man","english","SW_E_M_A5",NA,NA,NA,"null",NA,NA,NA,NA,NA,NA
"null","is contacting",NA,"html-keyboard-response",130,1089037,"0.0-15.0-2.2",80810,"ListA","man","english","SW_E_M_A5",NA,NA,NA,"null",NA,NA,NA,NA,NA,NA
"23422",NA,NA,"survey-text",131,1112462,"0.0-15.0-3.2",80810,"ListA","man","english","SW_E_M_A5",NA,NA,NA,NA,"{""Q0"":""fred is contacting dave""}","<img src='gifs/MaleRace2a.gif' style='height:400px;''></img>","contacting","is contacting","english",NA
"null","<div style=""font-size:60px;"">+</div>",NA,"html-keyboard-response",132,1112966,"0.0-15.0-0.3",80810,"ListA","man","english","SW_E_M_A5",NA,NA,NA,"null",NA,NA,NA,NA,NA,NA
"null","<img src='gifs/FemaleRace4b.gif' style='height:400px;''></img>",NA,"html-keyboard-response",133,1114971,"0.0-15.0-1.3",80810,"ListA","man","english","SW_E_M_A5",NA,NA,NA,"null",NA,NA,NA,NA,NA,NA
"null","is approaching",NA,"html-keyboard-response",134,1117981,"0.0-15.0-2.3",80810,"ListA","man","english","SW_E_M_A5",NA,NA,NA,"null",NA,NA,NA,NA,NA,NA
"19892",NA,NA,"survey-text",135,1137875,"0.0-15.0-3.3",80810,"ListA","man","english","SW_E_M_A5",NA,NA,NA,NA,"{""Q0"":""beth is approaching jane ""}","<img src='gifs/FemaleRace4b.gif' style='height:400px;''></img>","approaching","is approaching","english",NA
"null","<div style=""font-size:60px;"">+</div>",NA,"html-keyboard-response",136,1138390,"0.0-15.0-0.4",80810,"ListA","man","english","SW_E_M_A5",NA,NA,NA,"null",NA,NA,NA,NA,NA,NA
"null","<img src='gifs/MaleRace4a.gif' style='height:400px;''></img>",NA,"html-keyboard-response",137,1140398,"0.0-15.0-1.4",80810,"ListA","man","english","SW_E_M_A5",NA,NA,NA,"null",NA,NA,NA,NA,NA,NA
"null","is accompanying",NA,"html-keyboard-response",138,1143405,"0.0-15.0-2.4",80810,"ListA","man","english","SW_E_M_A5",NA,NA,NA,"null",NA,NA,NA,NA,NA,NA
"14176",NA,NA,"survey-text",139,1157583,"0.0-15.0-3.4",80810,"ListA","man","english","SW_E_M_A5",NA,NA,NA,NA,"{""Q0"":""dave is accompanying mike""}","<img src='gifs/MaleRace4a.gif' style='height:400px;''></img>","accompanying","is accompanying","english",NA
"null","<div style=""font-size:60px;"">+</div>",NA,"html-keyboard-response",140,1158087,"0.0-15.0-0.5",80810,"ListA","man","english","SW_E_M_A5",NA,NA,NA,"null",NA,NA,NA,NA,NA,NA
"null","<img src='gifs/MaleRace3a.gif' style='height:400px;''></img>",NA,"html-keyboard-response",141,1160100,"0.0-15.0-1.5",80810,"ListA","man","english","SW_E_M_A5",NA,NA,NA,"null",NA,NA,NA,NA,NA,NA
"null","is following",NA,"html-keyboard-response",142,1163102,"0.0-15.0-2.5",80810,"ListA","man","english","SW_E_M_A5",NA,NA,NA,"null",NA,NA,NA,NA,NA,NA
"10117",NA,NA,"survey-text",143,1173221,"0.0-15.0-3.5",80810,"ListA","man","english","SW_E_M_A5",NA,NA,NA,NA,"{""Q0"":""luke is following mike""}","<img src='gifs/MaleRace3a.gif' style='height:400px;''></img>","following","is following","english",NA
"null","<div style=""font-size:60px;"">+</div>",NA,"html-keyboard-response",144,1173737,"0.0-15.0-0.6",80810,"ListA","man","english","SW_E_M_A5",NA,NA,NA,"null",NA,NA,NA,NA,NA,NA
"null","<img src='gifs/BlackGender1a.gif' style='height:400px;''></img>",NA,"html-keyboard-response",145,1175752,"0.0-15.0-1.6",80810,"ListA","man","english","SW_E_M_A5",NA,NA,NA,"null",NA,NA,NA,NA,NA,NA
"null","is introducing",NA,"html-keyboard-response",146,1178762,"0.0-15.0-2.6",80810,"ListA","man","english","SW_E_M_A5",NA,NA,NA,"null",NA,NA,NA,NA,NA,NA
"22036",NA,NA,"survey-text",147,1200801,"0.0-15.0-3.6",80810,"ListA","man","english","SW_E_M_A5",NA,NA,NA,NA,"{""Q0"":""ruth is introducing luke""}","<img src='gifs/BlackGender1a.gif' style='height:400px;''></img>","introducing","is introducing","english",NA
"null","<div style=""font-size:60px;"">+</div>",NA,"html-keyboard-response",148,1201305,"0.0-15.0-0.7",80810,"ListA","man","english","SW_E_M_A5",NA,NA,NA,"null",NA,NA,NA,NA,NA,NA
"null","<img src='gifs/BlackGender3b.gif' style='height:400px;''></img>",NA,"html-keyboard-response",149,1203318,"0.0-15.0-1.7",80810,"ListA","man","english","SW_E_M_A5",NA,NA,NA,"null",NA,NA,NA,NA,NA,NA
"null","is walking towards",NA,"html-keyboard-response",150,1206325,"0.0-15.0-2.7",80810,"ListA","man","english","SW_E_M_A5",NA,NA,NA,"null",NA,NA,NA,NA,NA,NA
"31028",NA,NA,"survey-text",151,1237355,"0.0-15.0-3.7",80810,"ListA","man","english","SW_E_M_A5",NA,NA,NA,NA,"{""Q0"":""luke is walking towards jane ""}","<img src='gifs/BlackGender3b.gif' style='height:400px;''></img>","walking towards","is walking towards","english",NA
"null","<div style=""font-size:60px;"">+</div>",NA,"html-keyboard-response",152,1237859,"0.0-15.0-0.8",80810,"ListA","man","english","SW_E_M_A5",NA,NA,NA,"null",NA,NA,NA,NA,NA,NA
"null","<img src='gifs/BlackGender1a.gif' style='height:400px;''></img>",NA,"html-keyboard-response",153,1239870,"0.0-15.0-1.8",80810,"ListA","man","english","SW_E_M_A5",NA,NA,NA,"null",NA,NA,NA,NA,NA,NA
"null","is joining",NA,"html-keyboard-response",154,1242881,"0.0-15.0-2.8",80810,"ListA","man","english","SW_E_M_A5",NA,NA,NA,"null",NA,NA,NA,NA,NA,NA
"13764",NA,NA,"survey-text",155,1256646,"0.0-15.0-3.8",80810,"ListA","man","english","SW_E_M_A5",NA,NA,NA,NA,"{""Q0"":""luke is joining ruth ""}","<img src='gifs/BlackGender1a.gif' style='height:400px;''></img>","join","is joining","english",NA
"null","<div style=""font-size:60px;"">+</div>",NA,"html-keyboard-response",156,1257161,"0.0-15.0-0.9",80810,"ListA","man","english","SW_E_M_A5",NA,NA,NA,"null",NA,NA,NA,NA,NA,NA
"null","<img src='gifs/BlackGender1b.gif' style='height:400px;''></img>",NA,"html-keyboard-response",157,1259168,"0.0-15.0-1.9",80810,"ListA","man","english","SW_E_M_A5",NA,NA,NA,"null",NA,NA,NA,NA,NA,NA
"null","is listening to",NA,"html-keyboard-response",158,1262172,"0.0-15.0-2.9",80810,"ListA","man","english","SW_E_M_A5",NA,NA,NA,"null",NA,NA,NA,NA,NA,NA
"24474",NA,NA,"survey-text",159,1286649,"0.0-15.0-3.9",80810,"ListA","man","english","SW_E_M_A5",NA,NA,NA,NA,"{""Q0"":""ruth is listening to luke ""}","<img src='gifs/BlackGender1b.gif' style='height:400px;''></img>","listening to","is listening to","english",NA
"null","<div style=""font-size:60px;"">+</div>",NA,"html-keyboard-response",160,1287151,"0.0-15.0-0.10",80810,"ListA","man","english","SW_E_M_A5",NA,NA,NA,"null",NA,NA,NA,NA,NA,NA
"null","<img src='gifs/FemaleRace1a.gif' style='height:400px;''></img>",NA,"html-keyboard-response",161,1289154,"0.0-15.0-1.10",80810,"ListA","man","english","SW_E_M_A5",NA,NA,NA,"null",NA,NA,NA,NA,NA,NA
"null","is promising",NA,"html-keyboard-response",162,1292161,"0.0-15.0-2.10",80810,"ListA","man","english","SW_E_M_A5",NA,NA,NA,"null",NA,NA,NA,NA,NA,NA
"17122",NA,NA,"survey-text",163,1309286,"0.0-15.0-3.10",80810,"ListA","man","english","SW_E_M_A5",NA,NA,NA,NA,"{""Q0"":""ruth is promising kate""}","<img src='gifs/FemaleRace1a.gif' style='height:400px;''></img>","promising","is promising","english",NA
"null","<div style=""font-size:60px;"">+</div>",NA,"html-keyboard-response",164,1309798,"0.0-15.0-0.11",80810,"ListA","man","english","SW_E_M_A5",NA,NA,NA,"null",NA,NA,NA,NA,NA,NA
"null","<img src='gifs/MaleRace2a.gif' style='height:400px;''></img>",NA,"html-keyboard-response",165,1311812,"0.0-15.0-1.11",80810,"ListA","man","english","SW_E_M_A5",NA,NA,NA,"null",NA,NA,NA,NA,NA,NA
"null","is looking at",NA,"html-keyboard-response",166,1314822,"0.0-15.0-2.11",80810,"ListA","man","english","SW_E_M_A5",NA,NA,NA,"null",NA,NA,NA,NA,NA,NA
"16276",NA,NA,"survey-text",167,1331100,"0.0-15.0-3.11",80810,"ListA","man","english","SW_E_M_A5",NA,NA,NA,NA,"{""Q0"":""dave is looking at fred""}","<img src='gifs/MaleRace2a.gif' style='height:400px;''></img>","looking at","is looking at","english",NA
"null","<div style=""font-size:60px;"">+</div>",NA,"html-keyboard-response",168,1331606,"0.0-15.0-0.12",80810,"ListA","man","english","SW_E_M_A5",NA,NA,NA,"null",NA,NA,NA,NA,NA,NA
"null","<img src='gifs/BlackGender3a.gif' style='height:400px;''></img>",NA,"html-keyboard-response",169,1333606,"0.0-15.0-1.12",80810,"ListA","man","english","SW_E_M_A5",NA,NA,NA,"null",NA,NA,NA,NA,NA,NA
"null","is praising",NA,"html-keyboard-response",170,1336607,"0.0-15.0-2.12",80810,"ListA","man","english","SW_E_M_A5",NA,NA,NA,"null",NA,NA,NA,NA,NA,NA
"18583",NA,NA,"survey-text",171,1355193,"0.0-15.0-3.12",80810,"ListA","man","english","SW_E_M_A5",NA,NA,NA,NA,"{""Q0"":""luke is praising jane ""}","<img src='gifs/BlackGender3a.gif' style='height:400px;''></img>","praising","is praising","english",NA
"null","<div style=""font-size:60px;"">+</div>",NA,"html-keyboard-response",172,1355702,"0.0-15.0-0.13",80810,"ListA","man","english","SW_E_M_A5",NA,NA,NA,"null",NA,NA,NA,NA,NA,NA
"null","<img src='gifs/ChineseGender4a.gif' style='height:400px;''></img>",NA,"html-keyboard-response",173,1357716,"0.0-15.0-1.13",80810,"ListA","man","english","SW_E_M_A5",NA,NA,NA,"null",NA,NA,NA,NA,NA,NA
"null","is introducing",NA,"html-keyboard-response",174,1360728,"0.0-15.0-2.13",80810,"ListA","man","english","SW_E_M_A5",NA,NA,NA,"null",NA,NA,NA,NA,NA,NA
"41756",NA,NA,"survey-text",175,1402486,"0.0-15.0-3.13",80810,"ListA","man","english","SW_E_M_A5",NA,NA,NA,NA,"{""Q0"":""kate is introducing mike ""}","<img src='gifs/ChineseGender4a.gif' style='height:400px;''></img>","introducing","is introducing","english",NA
"null","<div style=""font-size:60px;"">+</div>",NA,"html-keyboard-response",176,1402999,"0.0-15.0-0.14",80810,"ListA","man","english","SW_E_M_A5",NA,NA,NA,"null",NA,NA,NA,NA,NA,NA
"null","<img src='gifs/MaleRace2b.gif' style='height:400px;''></img>",NA,"html-keyboard-response",177,1405011,"0.0-15.0-1.14",80810,"ListA","man","english","SW_E_M_A5",NA,NA,NA,"null",NA,NA,NA,NA,NA,NA
"null","is accompanying",NA,"html-keyboard-response",178,1408023,"0.0-15.0-2.14",80810,"ListA","man","english","SW_E_M_A5",NA,NA,NA,"null",NA,NA,NA,NA,NA,NA
"18278",NA,NA,"survey-text",179,1426302,"0.0-15.0-3.14",80810,"ListA","man","english","SW_E_M_A5",NA,NA,NA,NA,"{""Q0"":""fred is accompanying dave ""}","<img src='gifs/MaleRace2b.gif' style='height:400px;''></img>","accompanying","is accompanying","english",NA
"null","<div style=""font-size:60px;"">+</div>",NA,"html-keyboard-response",180,1426810,"0.0-15.0-0.15",80810,"ListA","man","english","SW_E_M_A5",NA,NA,NA,"null",NA,NA,NA,NA,NA,NA
"null","<img src='gifs/FemaleRace3b.gif' style='height:400px;''></img>",NA,"html-keyboard-response",181,1428818,"0.0-15.0-1.15",80810,"ListA","man","english","SW_E_M_A5",NA,NA,NA,"null",NA,NA,NA,NA,NA,NA
"null","is listening to",NA,"html-keyboard-response",182,1431827,"0.0-15.0-2.15",80810,"ListA","man","english","SW_E_M_A5",NA,NA,NA,"null",NA,NA,NA,NA,NA,NA
"22759",NA,NA,"survey-text",183,1454586,"0.0-15.0-3.15",80810,"ListA","man","english","SW_E_M_A5",NA,NA,NA,NA,"{""Q0"":""beth is listening to ruth ""}","<img src='gifs/FemaleRace3b.gif' style='height:400px;''></img>","listening to","is listening to","english",NA
"null","<div style=""font-size:60px;"">+</div>",NA,"html-keyboard-response",184,1455098,"0.0-15.0-0.16",80810,"ListA","man","english","SW_E_M_A5",NA,NA,NA,"null",NA,NA,NA,NA,NA,NA
"null","<img src='gifs/MaleRace1a.gif' style='height:400px;''></img>",NA,"html-keyboard-response",185,1457112,"0.0-15.0-1.16",80810,"ListA","man","english","SW_E_M_A5",NA,NA,NA,"null",NA,NA,NA,NA,NA,NA
"null","is praising",NA,"html-keyboard-response",186,1460127,"0.0-15.0-2.16",80810,"ListA","man","english","SW_E_M_A5",NA,NA,NA,"null",NA,NA,NA,NA,NA,NA
"22608",NA,NA,"survey-text",187,1482737,"0.0-15.0-3.16",80810,"ListA","man","english","SW_E_M_A5",NA,NA,NA,NA,"{""Q0"":""ruth is praising fred""}","<img src='gifs/MaleRace1a.gif' style='height:400px;''></img>","praising","is praising","english",NA
"null","<div style=""font-size:60px;"">+</div>",NA,"html-keyboard-response",188,1483241,"0.0-15.0-0.17",80810,"ListA","man","english","SW_E_M_A5",NA,NA,NA,"null",NA,NA,NA,NA,NA,NA
"null","<img src='gifs/MaleRace1b.gif' style='height:400px;''></img>",NA,"html-keyboard-response",189,1485241,"0.0-15.0-1.17",80810,"ListA","man","english","SW_E_M_A5",NA,NA,NA,"null",NA,NA,NA,NA,NA,NA
"null","is facing",NA,"html-keyboard-response",190,1488246,"0.0-15.0-2.17",80810,"ListA","man","english","SW_E_M_A5",NA,NA,NA,"null",NA,NA,NA,NA,NA,NA
"9648",NA,NA,"survey-text",191,1497896,"0.0-15.0-3.17",80810,"ListA","man","english","SW_E_M_A5",NA,NA,NA,NA,"{""Q0"":""fred is facing luke""}","<img src='gifs/MaleRace1b.gif' style='height:400px;''></img>","facing","is facing","english",NA
"2128","<img src='img/portrait_matrix_listA.jpg' style='width:900px;height:500px;''></img><p>If you have memorised all the portraits and names and are ready to start, press Continue.</p><p><strong>Please note: Your memory of these faces will be tested 5 times during this experiment.</strong></p>",0,"html-button-response",192,1500026,"0.0-16.0-0.0",80810,"ListA","man","english","SW_E_M_A5",NA,NA,NA,NA,NA,NA,NA,NA,NA,NA
"4035","<img src=""portrait/BW1.jpg""style=""height:400px;""></img>",0,"html-button-response",193,1505069,"0.0-16.0-1.0",80810,"ListA","man","english","SW_E_M_A5",NA,"true",0,NA,NA,NA,NA,NA,NA,NA
"null","CORRECT",NA,"html-keyboard-response",194,1506585,"0.0-16.0-2.0-0.0",80810,"ListA","man","english","SW_E_M_A5",NA,NA,NA,"null",NA,NA,NA,NA,NA,NA
"3023","<img src=""portrait/WW1.jpg""style=""height:400px;""></img>",1,"html-button-response",195,1509609,"0.0-16.0-4.0",80810,"ListA","man","english","SW_E_M_A5",NA,"true",1,NA,NA,NA,NA,NA,NA,NA
"null","CORRECT",NA,"html-keyboard-response",196,1511126,"0.0-16.0-5.0-0.0",80810,"ListA","man","english","SW_E_M_A5",NA,NA,NA,"null",NA,NA,NA,NA,NA,NA
"4612","<img src=""portrait/BM1.jpg""style=""height:400px;""></img>",4,"html-button-response",197,1515739,"0.0-16.0-7.0",80810,"ListA","man","english","SW_E_M_A5",NA,"true",4,NA,NA,NA,NA,NA,NA,NA
"null","CORRECT",NA,"html-keyboard-response",198,1517267,"0.0-16.0-8.0-0.0",80810,"ListA","man","english","SW_E_M_A5",NA,NA,NA,"null",NA,NA,NA,NA,NA,NA
"1721","<img src=""portrait/WM2.jpg""style=""height:400px;""></img>",7,"html-button-response",199,1518990,"0.0-16.0-10.0",80810,"ListA","man","english","SW_E_M_A5",NA,"true",7,NA,NA,NA,NA,NA,NA,NA
"null","CORRECT",NA,"html-keyboard-response",200,1520504,"0.0-16.0-11.0-0.0",80810,"ListA","man","english","SW_E_M_A5",NA,NA,NA,"null",NA,NA,NA,NA,NA,NA
"3033","<img src=""portrait/WM1.jpg""style=""height:400px;""></img>",6,"html-button-response",201,1523538,"0.0-16.0-13.0",80810,"ListA","man","english","SW_E_M_A5",NA,"true",6,NA,NA,NA,NA,NA,NA,NA
"null","CORRECT",NA,"html-keyboard-response",202,1525053,"0.0-16.0-14.0-0.0",80810,"ListA","man","english","SW_E_M_A5",NA,NA,NA,"null",NA,NA,NA,NA,NA,NA
"5123","<img src=""portrait/BM2.jpg""style=""height:400px;""></img>",5,"html-button-response",203,1530176,"0.0-16.0-16.0",80810,"ListA","man","english","SW_E_M_A5",NA,"true",5,NA,NA,NA,NA,NA,NA,NA
"null","CORRECT",NA,"html-keyboard-response",204,1531683,"0.0-16.0-17.0-0.0",80810,"ListA","man","english","SW_E_M_A5",NA,NA,NA,"null",NA,NA,NA,NA,NA,NA
"2187","<img src=""portrait/WW2.jpg""style=""height:400px;""></img>",3,"html-button-response",205,1533870,"0.0-16.0-19.0",80810,"ListA","man","english","SW_E_M_A5",NA,"true",3,NA,NA,NA,NA,NA,NA,NA
"null","CORRECT",NA,"html-keyboard-response",206,1535394,"0.0-16.0-20.0-0.0",80810,"ListA","man","english","SW_E_M_A5",NA,NA,NA,"null",NA,NA,NA,NA,NA,NA
"2188","<img src=""portrait/BW2.jpg""style=""height:400px;""></img>",2,"html-button-response",207,1537582,"0.0-16.0-22.0",80810,"ListA","man","english","SW_E_M_A5",NA,"true",2,NA,NA,NA,NA,NA,NA,NA
"null","CORRECT",NA,"html-keyboard-response",208,1539094,"0.0-16.0-23.0-0.0",80810,"ListA","man","english","SW_E_M_A5",NA,NA,NA,"null",NA,NA,NA,NA,NA,NA
"1075","<p>You got 8 out of 8 right first time. Press Continue.</p>",0,"html-button-response",209,1540171,"0.0-16.0-25.0",80810,"ListA","man","english","SW_E_M_A5",NA,NA,NA,NA,NA,NA,NA,NA,NA,NA
"null","<div style=""font-size:60px;"">+</div>",NA,"html-keyboard-response",210,1541691,"0.0-17.0-0.0",80810,"ListA","man","english","SW_E_M_A5",NA,NA,NA,"null",NA,NA,NA,NA,NA,NA
"null","<img src='gifs/MaleRace4a.gif' style='height:400px;''></img>",NA,"html-keyboard-response",211,1543694,"0.0-17.0-1.0",80810,"ListA","man","english","SW_E_M_A5",NA,NA,NA,"null",NA,NA,NA,NA,NA,NA
"null","is mentioning",NA,"html-keyboard-response",212,1546698,"0.0-17.0-2.0",80810,"ListA","man","english","SW_E_M_A5",NA,NA,NA,"null",NA,NA,NA,NA,NA,NA
"14253",NA,NA,"survey-text",213,1560953,"0.0-17.0-3.0",80810,"ListA","man","english","SW_E_M_A5",NA,NA,NA,NA,"{""Q0"":""dave is mentioning fred""}","<img src='gifs/MaleRace4a.gif' style='height:400px;''></img>","mention","is mentioning","english",NA
"null","<div style=""font-size:60px;"">+</div>",NA,"html-keyboard-response",214,1561454,"0.0-17.0-0.1",80810,"ListA","man","english","SW_E_M_A5",NA,NA,NA,"null",NA,NA,NA,NA,NA,NA
"null","<img src='gifs/FemaleRace3b.gif' style='height:400px;''></img>",NA,"html-keyboard-response",215,1563456,"0.0-17.0-1.1",80810,"ListA","man","english","SW_E_M_A5",NA,NA,NA,"null",NA,NA,NA,NA,NA,NA
"null","is joining",NA,"html-keyboard-response",216,1566467,"0.0-17.0-2.1",80810,"ListA","man","english","SW_E_M_A5",NA,NA,NA,"null",NA,NA,NA,NA,NA,NA
"11520",NA,NA,"survey-text",217,1577988,"0.0-17.0-3.1",80810,"ListA","man","english","SW_E_M_A5",NA,NA,NA,NA,"{""Q0"":""ruth is joining beth""}","<img src='gifs/FemaleRace3b.gif' style='height:400px;''></img>","join","is joining","english",NA
"null","<div style=""font-size:60px;"">+</div>",NA,"html-keyboard-response",218,1578498,"0.0-17.0-0.2",80810,"ListA","man","english","SW_E_M_A5",NA,NA,NA,"null",NA,NA,NA,NA,NA,NA
"null","<img src='gifs/ChineseGender2b.gif' style='height:400px;''></img>",NA,"html-keyboard-response",219,1580502,"0.0-17.0-1.2",80810,"ListA","man","english","SW_E_M_A5",NA,NA,NA,"null",NA,NA,NA,NA,NA,NA
"null","is accompanying",NA,"html-keyboard-response",220,1583516,"0.0-17.0-2.2",80810,"ListA","man","english","SW_E_M_A5",NA,NA,NA,"null",NA,NA,NA,NA,NA,NA
"20531",NA,NA,"survey-text",221,1604049,"0.0-17.0-3.2",80810,"ListA","man","english","SW_E_M_A5",NA,NA,NA,NA,"{""Q0"":""beth is accompanying fred""}","<img src='gifs/ChineseGender2b.gif' style='height:400px;''></img>","accompanying","is accompanying","english",NA
"null","<div style=""font-size:60px;"">+</div>",NA,"html-keyboard-response",222,1604562,"0.0-17.0-0.3",80810,"ListA","man","english","SW_E_M_A5",NA,NA,NA,"null",NA,NA,NA,NA,NA,NA
"null","<img src='gifs/FemaleRace1a.gif' style='height:400px;''></img>",NA,"html-keyboard-response",223,1606566,"0.0-17.0-1.3",80810,"ListA","man","english","SW_E_M_A5",NA,NA,NA,"null",NA,NA,NA,NA,NA,NA
"null","is looking at",NA,"html-keyboard-response",224,1609569,"0.0-17.0-2.3",80810,"ListA","man","english","SW_E_M_A5",NA,NA,NA,"null",NA,NA,NA,NA,NA,NA
"15223",NA,NA,"survey-text",225,1624794,"0.0-17.0-3.3",80810,"ListA","man","english","SW_E_M_A5",NA,NA,NA,NA,"{""Q0"":""kate is looking at ruth""}","<img src='gifs/FemaleRace1a.gif' style='height:400px;''></img>","looking at","is looking at","english",NA
"null","<div style=""font-size:60px;"">+</div>",NA,"html-keyboard-response",226,1625302,"0.0-17.0-0.4",80810,"ListA","man","english","SW_E_M_A5",NA,NA,NA,"null",NA,NA,NA,NA,NA,NA
"null","<img src='gifs/ChineseGender3b.gif' style='height:400px;''></img>",NA,"html-keyboard-response",227,1627308,"0.0-17.0-1.4",80810,"ListA","man","english","SW_E_M_A5",NA,NA,NA,"null",NA,NA,NA,NA,NA,NA
"null","is mentioning",NA,"html-keyboard-response",228,1630312,"0.0-17.0-2.4",80810,"ListA","man","english","SW_E_M_A5",NA,NA,NA,"null",NA,NA,NA,NA,NA,NA
"15176",NA,NA,"survey-text",229,1645491,"0.0-17.0-3.4",80810,"ListA","man","english","SW_E_M_A5",NA,NA,NA,NA,"{""Q0"":""mike is mentioning beth""}","<img src='gifs/ChineseGender3b.gif' style='height:400px;''></img>","mention","is mentioning","english",NA
"null","<div style=""font-size:60px;"">+</div>",NA,"html-keyboard-response",230,1645994,"0.0-17.0-0.5",80810,"ListA","man","english","SW_E_M_A5",NA,NA,NA,"null",NA,NA,NA,NA,NA,NA
"null","<img src='gifs/FemaleRace1b.gif' style='height:400px;''></img>",NA,"html-keyboard-response",231,1648005,"0.0-17.0-1.5",80810,"ListA","man","english","SW_E_M_A5",NA,NA,NA,"null",NA,NA,NA,NA,NA,NA
"null","is praising",NA,"html-keyboard-response",232,1651011,"0.0-17.0-2.5",80810,"ListA","man","english","SW_E_M_A5",NA,NA,NA,"null",NA,NA,NA,NA,NA,NA
"13984",NA,NA,"survey-text",233,1664997,"0.0-17.0-3.5",80810,"ListA","man","english","SW_E_M_A5",NA,NA,NA,NA,"{""Q0"":""ruth is praising kate""}","<img src='gifs/FemaleRace1b.gif' style='height:400px;''></img>","praising","is praising","english",NA
"null","<div style=""font-size:60px;"">+</div>",NA,"html-keyboard-response",234,1665511,"0.0-17.0-0.6",80810,"ListA","man","english","SW_E_M_A5",NA,NA,NA,"null",NA,NA,NA,NA,NA,NA
"null","<img src='gifs/BlackGender1b.gif' style='height:400px;''></img>",NA,"html-keyboard-response",235,1667526,"0.0-17.0-1.6",80810,"ListA","man","english","SW_E_M_A5",NA,NA,NA,"null",NA,NA,NA,NA,NA,NA
"null","is convincing",NA,"html-keyboard-response",236,1670529,"0.0-17.0-2.6",80810,"ListA","man","english","SW_E_M_A5",NA,NA,NA,"null",NA,NA,NA,NA,NA,NA
"14344",NA,NA,"survey-text",237,1684876,"0.0-17.0-3.6",80810,"ListA","man","english","SW_E_M_A5",NA,NA,NA,NA,"{""Q0"":""ruth is convincing luke""}","<img src='gifs/BlackGender1b.gif' style='height:400px;''></img>","convincing","is convincing","english",NA
"null","<div style=""font-size:60px;"">+</div>",NA,"html-keyboard-response",238,1685378,"0.0-17.0-0.7",80810,"ListA","man","english","SW_E_M_A5",NA,NA,NA,"null",NA,NA,NA,NA,NA,NA
"null","<img src='gifs/FemaleRace3a.gif' style='height:400px;''></img>",NA,"html-keyboard-response",239,1687380,"0.0-17.0-1.7",80810,"ListA","man","english","SW_E_M_A5",NA,NA,NA,"null",NA,NA,NA,NA,NA,NA
"null","is touching",NA,"html-keyboard-response",240,1690388,"0.0-17.0-2.7",80810,"ListA","man","english","SW_E_M_A5",NA,NA,NA,"null",NA,NA,NA,NA,NA,NA
"38968",NA,NA,"survey-text",241,1729359,"0.0-17.0-3.7",80810,"ListA","man","english","SW_E_M_A5",NA,NA,NA,NA,"{""Q0"":""beth is touching ruth ""}","<img src='gifs/FemaleRace3a.gif' style='height:400px;''></img>","touching","is touching","english",NA
"null","<div style=""font-size:60px;"">+</div>",NA,"html-keyboard-response",242,1729875,"0.0-17.0-0.8",80810,"ListA","man","english","SW_E_M_A5",NA,NA,NA,"null",NA,NA,NA,NA,NA,NA
"null","<img src='gifs/FemaleRace4a.gif' style='height:400px;''></img>",NA,"html-keyboard-response",243,1731880,"0.0-17.0-1.8",80810,"ListA","man","english","SW_E_M_A5",NA,NA,NA,"null",NA,NA,NA,NA,NA,NA
"null","is mentioning",NA,"html-keyboard-response",244,1734884,"0.0-17.0-2.8",80810,"ListA","man","english","SW_E_M_A5",NA,NA,NA,"null",NA,NA,NA,NA,NA,NA
"16348",NA,NA,"survey-text",245,1751235,"0.0-17.0-3.8",80810,"ListA","man","english","SW_E_M_A5",NA,NA,NA,NA,"{""Q0"":""jane is mentioning beth""}","<img src='gifs/FemaleRace4a.gif' style='height:400px;''></img>","mention","is mentioning","english",NA
"null","<div style=""font-size:60px;"">+</div>",NA,"html-keyboard-response",246,1751750,"0.0-17.0-0.9",80810,"ListA","man","english","SW_E_M_A5",NA,NA,NA,"null",NA,NA,NA,NA,NA,NA
"null","<img src='gifs/BlackGender2a.gif' style='height:400px;''></img>",NA,"html-keyboard-response",247,1753752,"0.0-17.0-1.9",80810,"ListA","man","english","SW_E_M_A5",NA,NA,NA,"null",NA,NA,NA,NA,NA,NA
"null","is looking at",NA,"html-keyboard-response",248,1756765,"0.0-17.0-2.9",80810,"ListA","man","english","SW_E_M_A5",NA,NA,NA,"null",NA,NA,NA,NA,NA,NA
"14622",NA,NA,"survey-text",249,1771388,"0.0-17.0-3.9",80810,"ListA","man","english","SW_E_M_A5",NA,NA,NA,NA,"{""Q0"":""dave is looking at ruth ""}","<img src='gifs/BlackGender2a.gif' style='height:400px;''></img>","looking at","is looking at","english",NA
"null","<div style=""font-size:60px;"">+</div>",NA,"html-keyboard-response",250,1771890,"0.0-17.0-0.10",80810,"ListA","man","english","SW_E_M_A5",NA,NA,NA,"null",NA,NA,NA,NA,NA,NA
"null","<img src='gifs/MaleRace3a.gif' style='height:400px;''></img>",NA,"html-keyboard-response",251,1773897,"0.0-17.0-1.10",80810,"ListA","man","english","SW_E_M_A5",NA,NA,NA,"null",NA,NA,NA,NA,NA,NA
"null","is walking towards",NA,"html-keyboard-response",252,1776907,"0.0-17.0-2.10",80810,"ListA","man","english","SW_E_M_A5",NA,NA,NA,"null",NA,NA,NA,NA,NA,NA
"20102",NA,NA,"survey-text",253,1797011,"0.0-17.0-3.10",80810,"ListA","man","english","SW_E_M_A5",NA,NA,NA,NA,"{""Q0"":""mike is walking towards luke""}","<img src='gifs/MaleRace3a.gif' style='height:400px;''></img>","walking towards","is walking towards","english",NA
"null","<div style=""font-size:60px;"">+</div>",NA,"html-keyboard-response",254,1797518,"0.0-17.0-0.11",80810,"ListA","man","english","SW_E_M_A5",NA,NA,NA,"null",NA,NA,NA,NA,NA,NA
"null","<img src='gifs/FemaleRace4b.gif' style='height:400px;''></img>",NA,"html-keyboard-response",255,1799527,"0.0-17.0-1.11",80810,"ListA","man","english","SW_E_M_A5",NA,NA,NA,"null",NA,NA,NA,NA,NA,NA
"null","is convincing",NA,"html-keyboard-response",256,1802541,"0.0-17.0-2.11",80810,"ListA","man","english","SW_E_M_A5",NA,NA,NA,"null",NA,NA,NA,NA,NA,NA
"20512",NA,NA,"survey-text",257,1823056,"0.0-17.0-3.11",80810,"ListA","man","english","SW_E_M_A5",NA,NA,NA,NA,"{""Q0"":""jane is convincing beth ""}","<img src='gifs/FemaleRace4b.gif' style='height:400px;''></img>","convincing","is convincing","english",NA
"null","<div style=""font-size:60px;"">+</div>",NA,"html-keyboard-response",258,1823564,"0.0-17.0-0.12",80810,"ListA","man","english","SW_E_M_A5",NA,NA,NA,"null",NA,NA,NA,NA,NA,NA
"null","<img src='gifs/MaleRace3b.gif' style='height:400px;''></img>",NA,"html-keyboard-response",259,1825570,"0.0-17.0-1.12",80810,"ListA","man","english","SW_E_M_A5",NA,NA,NA,"null",NA,NA,NA,NA,NA,NA
"null","is contacting",NA,"html-keyboard-response",260,1828571,"0.0-17.0-2.12",80810,"ListA","man","english","SW_E_M_A5",NA,NA,NA,"null",NA,NA,NA,NA,NA,NA
"21256",NA,NA,"survey-text",261,1849829,"0.0-17.0-3.12",80810,"ListA","man","english","SW_E_M_A5",NA,NA,NA,NA,"{""Q0"":""mike is contacting luke ""}","<img src='gifs/MaleRace3b.gif' style='height:400px;''></img>","contacting","is contacting","english",NA
"null","<div style=""font-size:60px;"">+</div>",NA,"html-keyboard-response",262,1850344,"0.0-17.0-0.13",80810,"ListA","man","english","SW_E_M_A5",NA,NA,NA,"null",NA,NA,NA,NA,NA,NA
"null","<img src='gifs/BlackGender2b.gif' style='height:400px;''></img>",NA,"html-keyboard-response",263,1852357,"0.0-17.0-1.13",80810,"ListA","man","english","SW_E_M_A5",NA,NA,NA,"null",NA,NA,NA,NA,NA,NA
"null","is introducing",NA,"html-keyboard-response",264,1855366,"0.0-17.0-2.13",80810,"ListA","man","english","SW_E_M_A5",NA,NA,NA,"null",NA,NA,NA,NA,NA,NA
"21831",NA,NA,"survey-text",265,1877199,"0.0-17.0-3.13",80810,"ListA","man","english","SW_E_M_A5",NA,NA,NA,NA,"{""Q0"":""ruth is introducing dave""}","<img src='gifs/BlackGender2b.gif' style='height:400px;''></img>","introducing","is introducing","english",NA
"null","<div style=""font-size:60px;"">+</div>",NA,"html-keyboard-response",266,1877708,"0.0-17.0-0.14",80810,"ListA","man","english","SW_E_M_A5",NA,NA,NA,"null",NA,NA,NA,NA,NA,NA
"null","<img src='gifs/BlackGender4a.gif' style='height:400px;''></img>",NA,"html-keyboard-response",267,1879710,"0.0-17.0-1.14",80810,"ListA","man","english","SW_E_M_A5",NA,NA,NA,"null",NA,NA,NA,NA,NA,NA
"null","is employing",NA,"html-keyboard-response",268,1882712,"0.0-17.0-2.14",80810,"ListA","man","english","SW_E_M_A5",NA,NA,NA,"null",NA,NA,NA,NA,NA,NA
"16299",NA,NA,"survey-text",269,1899014,"0.0-17.0-3.14",80810,"ListA","man","english","SW_E_M_A5",NA,NA,NA,NA,"{""Q0"":""dave is employing jane""}","<img src='gifs/BlackGender4a.gif' style='height:400px;''></img>","employing","is employing","english",NA
"null","<div style=""font-size:60px;"">+</div>",NA,"html-keyboard-response",270,1899523,"0.0-17.0-0.15",80810,"ListA","man","english","SW_E_M_A5",NA,NA,NA,"null",NA,NA,NA,NA,NA,NA
"null","<img src='gifs/ChineseGender2a.gif' style='height:400px;''></img>",NA,"html-keyboard-response",271,1901533,"0.0-17.0-1.15",80810,"ListA","man","english","SW_E_M_A5",NA,NA,NA,"null",NA,NA,NA,NA,NA,NA
"null","is looking at",NA,"html-keyboard-response",272,1904535,"0.0-17.0-2.15",80810,"ListA","man","english","SW_E_M_A5",NA,NA,NA,"null",NA,NA,NA,NA,NA,NA
"22641",NA,NA,"survey-text",273,1927180,"0.0-17.0-3.15",80810,"ListA","man","english","SW_E_M_A5",NA,NA,NA,NA,"{""Q0"":""jane is looking at fred""}","<img src='gifs/ChineseGender2a.gif' style='height:400px;''></img>","looking at","is looking at","english",NA
"null","<div style=""font-size:60px;"">+</div>",NA,"html-keyboard-response",274,1927684,"0.0-17.0-0.16",80810,"ListA","man","english","SW_E_M_A5",NA,NA,NA,"null",NA,NA,NA,NA,NA,NA
"null","<img src='gifs/FemaleRace4a.gif' style='height:400px;''></img>",NA,"html-keyboard-response",275,1929694,"0.0-17.0-1.16",80810,"ListA","man","english","SW_E_M_A5",NA,NA,NA,"null",NA,NA,NA,NA,NA,NA
"null","is listening to",NA,"html-keyboard-response",276,1932707,"0.0-17.0-2.16",80810,"ListA","man","english","SW_E_M_A5",NA,NA,NA,"null",NA,NA,NA,NA,NA,NA
"19278",NA,NA,"survey-text",277,1951989,"0.0-17.0-3.16",80810,"ListA","man","english","SW_E_M_A5",NA,NA,NA,NA,"{""Q0"":""jane is listening to beth""}","<img src='gifs/FemaleRace4a.gif' style='height:400px;''></img>","listening to","is listening to","english",NA
"null","<div style=""font-size:60px;"">+</div>",NA,"html-keyboard-response",278,1952495,"0.0-17.0-0.17",80810,"ListA","man","english","SW_E_M_A5",NA,NA,NA,"null",NA,NA,NA,NA,NA,NA
"null","<img src='gifs/BlackGender3a.gif' style='height:400px;''></img>",NA,"html-keyboard-response",279,1954500,"0.0-17.0-1.17",80810,"ListA","man","english","SW_E_M_A5",NA,NA,NA,"null",NA,NA,NA,NA,NA,NA
"null","is promising",NA,"html-keyboard-response",280,1957515,"0.0-17.0-2.17",80810,"ListA","man","english","SW_E_M_A5",NA,NA,NA,"null",NA,NA,NA,NA,NA,NA
"22569",NA,NA,"survey-text",281,1980087,"0.0-17.0-3.17",80810,"ListA","man","english","SW_E_M_A5",NA,NA,NA,NA,"{""Q0"":""jane is promising luke""}","<img src='gifs/BlackGender3a.gif' style='height:400px;''></img>","promising","is promising","english",NA
"2020","<p>Thank you for completing that task.</p><p>The final part of this session is a short questionnaire.</p><p>Press Continue.</p>",0,"html-button-response",282,1982107,"0.0-18.0",80810,"ListA","man","english","SW_E_M_A5",NA,NA,NA,NA,NA,NA,NA,NA,NA,NA
"57584",NA,NA,"survey-text",283,2040697,"0.0-19.0",80810,"ListA","man","english","SW_E_M_A5",NA,NA,NA,NA,"{""Q0"":""21"",""Q1"":""Chinese"",""Q2"":""Chinese"",""Q3"":""加拿大"",""Q4"":""China"",""Q5"":""English"",""Q6"":""man""}",NA,NA,NA,NA,"demographics"
"2519",NA,NA,"external-html",284,2043222,"0.0-20.0",80810,"ListA","man","english","SW_E_M_A5","debrief.html",NA,NA,NA,NA,NA,NA,NA,NA,NA
"47819",NA,NA,"survey-text",285,2091042,"0.0-21.0",80810,"ListA","man","english","SW_E_M_A5",NA,NA,NA,NA,"{""ptpt_id"":""SW_E_M_A5""}",NA,NA,NA,NA,"worker_id"
