"rt","stimulus","button_pressed","trial_type","trial_index","time_elapsed","internal_node_id","subject","list","ppt_gender","ppt_language","ptptID","url","first_guess","correct","key_press","responses","image","verb","phrase","condition","test_part"
"831.5","Welcome to the experiment. Press Continue to begin.",0,"html-button-response",0,834,"0.0-0.0",84940,"ListB","woman","chinese","SW_C_F_B11",NA,NA,NA,NA,NA,NA,NA,NA,NA,NA
"3985.7000000476837",NA,NA,"external-html",1,5834,"0.0-1.0",84940,"ListB","woman","chinese","SW_C_F_B11","consent.html",NA,NA,NA,NA,NA,NA,NA,NA,NA
"764.5","<p>在下一页中，您将看到8个人物肖像和他们各自的名字。</p><p>请花费几分钟的时间记住这些人物及其所对应的名字。</p><p>之后的实验中需要您对人物的名字做出回忆，</p><p>因此在实验开始前请确保您已 经完全记住这些人物及其所对应的名字。</p><p><strong>然后您将完成一个测试以检验您对人物和名字的记忆。</strong></p><p>完成此记忆测试后，您将正式进入实验。</p><p>准备好了吗？</p>",0,"html-button-response",2,6601,"0.0-2.0",84940,"ListB","woman","chinese","SW_C_F_B11",NA,NA,NA,NA,NA,NA,NA,NA,NA,NA
"12162.100000023842","<img src='img/portrait_matrix_listB_chinese.jpg' style='width:900px;height:500px;''></img><p>如果您已经记住了所有的人物和名字，请点击继续。</p><p><strong>请注意：您对先前记忆的面孔将在本实验中被测试5次。</strong></p>",0,"html-button-response",3,19769,"0.0-3.0-0.0",84940,"ListB","woman","chinese","SW_C_F_B11",NA,NA,NA,NA,NA,NA,NA,NA,NA,NA
"3163.600000023842","<img src=""portrait/BW2.jpg""style=""height:400px;""></img>",2,"html-button-response",4,23946,"0.0-3.0-1.0",84940,"ListB","woman","chinese","SW_C_F_B11",NA,"true",2,NA,NA,NA,NA,NA,NA,NA
"null","正确",NA,"html-keyboard-response",5,25453,"0.0-3.0-2.0-0.0",84940,"ListB","woman","chinese","SW_C_F_B11",NA,NA,NA,"null",NA,NA,NA,NA,NA,NA
"1250.3999999761581","<img src=""portrait/BW1.jpg""style=""height:400px;""></img>",0,"html-button-response",6,26705,"0.0-3.0-4.0",84940,"ListB","woman","chinese","SW_C_F_B11",NA,"true",0,NA,NA,NA,NA,NA,NA,NA
"null","正确",NA,"html-keyboard-response",7,28225,"0.0-3.0-5.0-0.0",84940,"ListB","woman","chinese","SW_C_F_B11",NA,NA,NA,"null",NA,NA,NA,NA,NA,NA
"2926.5","<img src=""portrait/WM2.jpg""style=""height:400px;""></img>",7,"html-button-response",8,31154,"0.0-3.0-7.0",84940,"ListB","woman","chinese","SW_C_F_B11",NA,"true",7,NA,NA,NA,NA,NA,NA,NA
"null","正确",NA,"html-keyboard-response",9,32661,"0.0-3.0-8.0-0.0",84940,"ListB","woman","chinese","SW_C_F_B11",NA,NA,NA,"null",NA,NA,NA,NA,NA,NA
"1441.5","<img src=""portrait/WW2.jpg""style=""height:400px;""></img>",3,"html-button-response",10,34105,"0.0-3.0-10.0",84940,"ListB","woman","chinese","SW_C_F_B11",NA,"true",3,NA,NA,NA,NA,NA,NA,NA
"null","正确",NA,"html-keyboard-response",11,35616,"0.0-3.0-11.0-0.0",84940,"ListB","woman","chinese","SW_C_F_B11",NA,NA,NA,"null",NA,NA,NA,NA,NA,NA
"1919.699999988079","<img src=""portrait/BM2.jpg""style=""height:400px;""></img>",5,"html-button-response",12,37538,"0.0-3.0-13.0",84940,"ListB","woman","chinese","SW_C_F_B11",NA,"true",5,NA,NA,NA,NA,NA,NA,NA
"null","正确",NA,"html-keyboard-response",13,39060,"0.0-3.0-14.0-0.0",84940,"ListB","woman","chinese","SW_C_F_B11",NA,NA,NA,"null",NA,NA,NA,NA,NA,NA
"1819.5","<img src=""portrait/BM1.jpg""style=""height:400px;""></img>",4,"html-button-response",14,40881,"0.0-3.0-16.0",84940,"ListB","woman","chinese","SW_C_F_B11",NA,"true",4,NA,NA,NA,NA,NA,NA,NA
"null","正确",NA,"html-keyboard-response",15,42399,"0.0-3.0-17.0-0.0",84940,"ListB","woman","chinese","SW_C_F_B11",NA,NA,NA,"null",NA,NA,NA,NA,NA,NA
"1623.800000011921","<img src=""portrait/WW1.jpg""style=""height:400px;""></img>",1,"html-button-response",16,44025,"0.0-3.0-19.0",84940,"ListB","woman","chinese","SW_C_F_B11",NA,"true",1,NA,NA,NA,NA,NA,NA,NA
"null","正确",NA,"html-keyboard-response",17,45536,"0.0-3.0-20.0-0.0",84940,"ListB","woman","chinese","SW_C_F_B11",NA,NA,NA,"null",NA,NA,NA,NA,NA,NA
"1238.300000011921","<img src=""portrait/WM1.jpg""style=""height:400px;""></img>",6,"html-button-response",18,46776,"0.0-3.0-22.0",84940,"ListB","woman","chinese","SW_C_F_B11",NA,"true",6,NA,NA,NA,NA,NA,NA,NA
"null","正确",NA,"html-keyboard-response",19,48288,"0.0-3.0-23.0-0.0",84940,"ListB","woman","chinese","SW_C_F_B11",NA,NA,NA,"null",NA,NA,NA,NA,NA,NA
"20182.80000001192","<p>您第一次在8题里答对了 8 题。 请点击继续</p>",0,"html-button-response",20,68473,"0.0-3.0-25.0",84940,"ListB","woman","chinese","SW_C_F_B11",NA,NA,NA,NA,NA,NA,NA,NA,NA,NA
"9680.399999976158","<p>此次实验您将会看到先前记忆任务里的人物照片。</p><p>人物照片消失后您将看到一个动词短语，请正确回忆人物的名字并用特定的 动词短语组成一句完整的句子。</p><p>请在指定的框内输入您的答案。在进入下一题之前请确保您填写了完整的句子。</p><p>人物照片和动词短语只会在屏幕上出现几秒钟，因此请您答题时尽量集中注意力。</p><p>以下是例子。请您在准备好后按下“继续”。</p><img src='img/chinese_speaking_example.jpg' style='width:800px;height:460px;''></img>",0,"html-button-response",21,79160,"0.0-4.0",84940,"ListB","woman","chinese","SW_C_F_B11",NA,NA,NA,NA,NA,NA,NA,NA,NA,NA
"1405","<p>在实验开始前，将为您展示两个示例实验。</p>",0,"html-button-response",22,81576,"0.0-5.0",84940,"ListB","woman","chinese","SW_C_F_B11",NA,NA,NA,NA,NA,NA,NA,NA,NA,NA
"null","<img src='img/meet.gif' style='height:400px;''></img>",NA,"html-keyboard-response",23,84583,"0.0-6.0",84940,"ListB","woman","chinese","SW_C_F_B11",NA,NA,NA,"null",NA,NA,NA,NA,NA,NA
"null","<p>正在约见</p>",NA,"html-keyboard-response",24,86592,"0.0-7.0",84940,"ListB","woman","chinese","SW_C_F_B11",NA,NA,NA,"null",NA,NA,NA,NA,NA,NA
"3319.600000023842","<p><b>答案：</b> 霍普正在会见露丝</p>",0,"html-button-response",25,89913,"0.0-8.0",84940,"ListB","woman","chinese","SW_C_F_B11",NA,NA,NA,NA,NA,NA,NA,NA,NA,NA
"null","<img src='img/spy.gif' style='height:400px;''></img>",NA,"html-keyboard-response",26,92928,"0.0-9.0",84940,"ListB","woman","chinese","SW_C_F_B11",NA,NA,NA,"null",NA,NA,NA,NA,NA,NA
"null","<p>正在监视</p>",NA,"html-keyboard-response",27,94933,"0.0-10.0",84940,"ListB","woman","chinese","SW_C_F_B11",NA,NA,NA,"null",NA,NA,NA,NA,NA,NA
"2251.5","<p><b>答案：</b> 弗雷正在监视麦克</p>",0,"html-button-response",28,97186,"0.0-11.0",84940,"ListB","woman","chinese","SW_C_F_B11",NA,NA,NA,NA,NA,NA,NA,NA,NA,NA
"1052.2000000476837","<p>准备好开始了吗？</p><br><p><strong>请记住，您的答案需是一句完整的句子</strong></p><p><strong>，并用给到的图片人物和动词短语作答。</strong></p><p><strong>只有正确并完整完成实验才可获得报酬。</strong></p><p><strong> 您不需要加入任何标点符号。</strong></p><br><p>请按 ‘继续’ 键开始。</p>",0,"html-button-response",29,99250,"0.0-12.0",84940,"ListB","woman","chinese","SW_C_F_B11",NA,NA,NA,NA,NA,NA,NA,NA,NA,NA
"null","<div style=""font-size:60px;"">+</div>",NA,"html-keyboard-response",30,100757,"0.0-13.0-0.0",84940,"ListB","woman","chinese","SW_C_F_B11",NA,NA,NA,"null",NA,NA,NA,NA,NA,NA
"null","<img src='gifs/ChineseGender4a.gif' style='height:400px;''></img>",NA,"html-keyboard-response",31,102762,"0.0-13.0-1.0",84940,"ListB","woman","chinese","SW_C_F_B11",NA,NA,NA,"null",NA,NA,NA,NA,NA,NA
"null","正在跟随",NA,"html-keyboard-response",32,105771,"0.0-13.0-2.0",84940,"ListB","woman","chinese","SW_C_F_B11",NA,NA,NA,"null",NA,NA,NA,NA,NA,NA
"3951.400000035763",NA,NA,"survey-text",33,109728,"0.0-13.0-3.0",84940,"ListB","woman","chinese","SW_C_F_B11",NA,NA,NA,NA,"{""Q0"":""霍普正在跟随戴夫""}","<img src='gifs/ChineseGender4a.gif' style='height:400px;''></img>","跟随","正在跟随","chinese",NA
"null","<div style=""font-size:60px;"">+</div>",NA,"html-keyboard-response",34,110239,"0.0-13.0-0.1",84940,"ListB","woman","chinese","SW_C_F_B11",NA,NA,NA,"null",NA,NA,NA,NA,NA,NA
"null","<img src='gifs/FemaleRace4b.gif' style='height:400px;''></img>",NA,"html-keyboard-response",35,112245,"0.0-13.0-1.1",84940,"ListB","woman","chinese","SW_C_F_B11",NA,NA,NA,"null",NA,NA,NA,NA,NA,NA
"null","正在走向",NA,"html-keyboard-response",36,115252,"0.0-13.0-2.1",84940,"ListB","woman","chinese","SW_C_F_B11",NA,NA,NA,"null",NA,NA,NA,NA,NA,NA
"16578",NA,NA,"survey-text",37,131835,"0.0-13.0-3.1",84940,"ListB","woman","chinese","SW_C_F_B11",NA,NA,NA,NA,"{""Q0"":""凯特正在走向露丝""}","<img src='gifs/FemaleRace4b.gif' style='height:400px;''></img>","走向","正在走向","chinese",NA
"null","<div style=""font-size:60px;"">+</div>",NA,"html-keyboard-response",38,132342,"0.0-13.0-0.2",84940,"ListB","woman","chinese","SW_C_F_B11",NA,NA,NA,"null",NA,NA,NA,NA,NA,NA
"null","<img src='gifs/ChineseGender1a.gif' style='height:400px;''></img>",NA,"html-keyboard-response",39,134348,"0.0-13.0-1.2",84940,"ListB","woman","chinese","SW_C_F_B11",NA,NA,NA,"null",NA,NA,NA,NA,NA,NA
"null","正在跟随",NA,"html-keyboard-response",40,137356,"0.0-13.0-2.2",84940,"ListB","woman","chinese","SW_C_F_B11",NA,NA,NA,"null",NA,NA,NA,NA,NA,NA
"8517.199999988079",NA,NA,"survey-text",41,145877,"0.0-13.0-3.2",84940,"ListB","woman","chinese","SW_C_F_B11",NA,NA,NA,NA,"{""Q0"":""卢克正在跟随霍普""}","<img src='gifs/ChineseGender1a.gif' style='height:400px;''></img>","跟随","正在跟随","chinese",NA
"null","<div style=""font-size:60px;"">+</div>",NA,"html-keyboard-response",42,146379,"0.0-13.0-0.3",84940,"ListB","woman","chinese","SW_C_F_B11",NA,NA,NA,"null",NA,NA,NA,NA,NA,NA
"null","<img src='gifs/MaleRace1b.gif' style='height:400px;''></img>",NA,"html-keyboard-response",43,148385,"0.0-13.0-1.3",84940,"ListB","woman","chinese","SW_C_F_B11",NA,NA,NA,"null",NA,NA,NA,NA,NA,NA
"null","正在面向",NA,"html-keyboard-response",44,151392,"0.0-13.0-2.3",84940,"ListB","woman","chinese","SW_C_F_B11",NA,NA,NA,"null",NA,NA,NA,NA,NA,NA
"3776.400000035763",NA,NA,"survey-text",45,155172,"0.0-13.0-3.3",84940,"ListB","woman","chinese","SW_C_F_B11",NA,NA,NA,NA,"{""Q0"":""卢克正在面向弗雷""}","<img src='gifs/MaleRace1b.gif' style='height:400px;''></img>","面向","正在面向","chinese",NA
"null","<div style=""font-size:60px;"">+</div>",NA,"html-keyboard-response",46,155681,"0.0-13.0-0.4",84940,"ListB","woman","chinese","SW_C_F_B11",NA,NA,NA,"null",NA,NA,NA,NA,NA,NA
"null","<img src='gifs/BlackGender3b.gif' style='height:400px;''></img>",NA,"html-keyboard-response",47,157687,"0.0-13.0-1.4",84940,"ListB","woman","chinese","SW_C_F_B11",NA,NA,NA,"null",NA,NA,NA,NA,NA,NA
"null","正在触摸",NA,"html-keyboard-response",48,160694,"0.0-13.0-2.4",84940,"ListB","woman","chinese","SW_C_F_B11",NA,NA,NA,"null",NA,NA,NA,NA,NA,NA
"5849.400000035763",NA,NA,"survey-text",49,166547,"0.0-13.0-3.4",84940,"ListB","woman","chinese","SW_C_F_B11",NA,NA,NA,NA,"{""Q0"":""凯特正在触摸弗雷""}","<img src='gifs/BlackGender3b.gif' style='height:400px;''></img>","触摸","正在触摸","chinese",NA
"null","<div style=""font-size:60px;"">+</div>",NA,"html-keyboard-response",50,167051,"0.0-13.0-0.5",84940,"ListB","woman","chinese","SW_C_F_B11",NA,NA,NA,"null",NA,NA,NA,NA,NA,NA
"null","<img src='gifs/ChineseGender3a.gif' style='height:400px;''></img>",NA,"html-keyboard-response",51,169056,"0.0-13.0-1.5",84940,"ListB","woman","chinese","SW_C_F_B11",NA,NA,NA,"null",NA,NA,NA,NA,NA,NA
"null","正在跟随",NA,"html-keyboard-response",52,172065,"0.0-13.0-2.5",84940,"ListB","woman","chinese","SW_C_F_B11",NA,NA,NA,"null",NA,NA,NA,NA,NA,NA
"6121.899999976158",NA,NA,"survey-text",53,178190,"0.0-13.0-3.5",84940,"ListB","woman","chinese","SW_C_F_B11",NA,NA,NA,NA,"{""Q0"":""露丝正在跟随戴夫""}","<img src='gifs/ChineseGender3a.gif' style='height:400px;''></img>","跟随","正在跟随","chinese",NA
"null","<div style=""font-size:60px;"">+</div>",NA,"html-keyboard-response",54,178699,"0.0-13.0-0.6",84940,"ListB","woman","chinese","SW_C_F_B11",NA,NA,NA,"null",NA,NA,NA,NA,NA,NA
"null","<img src='gifs/FemaleRace1a.gif' style='height:400px;''></img>",NA,"html-keyboard-response",55,180704,"0.0-13.0-1.6",84940,"ListB","woman","chinese","SW_C_F_B11",NA,NA,NA,"null",NA,NA,NA,NA,NA,NA
"null","正在触摸",NA,"html-keyboard-response",56,183713,"0.0-13.0-2.6",84940,"ListB","woman","chinese","SW_C_F_B11",NA,NA,NA,"null",NA,NA,NA,NA,NA,NA
"4829.599999964237",NA,NA,"survey-text",57,188537,"0.0-13.0-3.6",84940,"ListB","woman","chinese","SW_C_F_B11",NA,NA,NA,NA,"{""Q0"":""霍普正在触摸贝斯""}","<img src='gifs/FemaleRace1a.gif' style='height:400px;''></img>","触摸","正在触摸","chinese",NA
"null","<div style=""font-size:60px;"">+</div>",NA,"html-keyboard-response",58,189048,"0.0-13.0-0.7",84940,"ListB","woman","chinese","SW_C_F_B11",NA,NA,NA,"null",NA,NA,NA,NA,NA,NA
"null","<img src='gifs/BlackGender3a.gif' style='height:400px;''></img>",NA,"html-keyboard-response",59,191054,"0.0-13.0-1.7",84940,"ListB","woman","chinese","SW_C_F_B11",NA,NA,NA,"null",NA,NA,NA,NA,NA,NA
"null","正在答应",NA,"html-keyboard-response",60,194061,"0.0-13.0-2.7",84940,"ListB","woman","chinese","SW_C_F_B11",NA,NA,NA,"null",NA,NA,NA,NA,NA,NA
"5169.899999976158",NA,NA,"survey-text",61,199234,"0.0-13.0-3.7",84940,"ListB","woman","chinese","SW_C_F_B11",NA,NA,NA,NA,"{""Q0"":""弗雷正在答应凯特""}","<img src='gifs/BlackGender3a.gif' style='height:400px;''></img>","答应","正在答应","chinese",NA
"null","<div style=""font-size:60px;"">+</div>",NA,"html-keyboard-response",62,199736,"0.0-13.0-0.8",84940,"ListB","woman","chinese","SW_C_F_B11",NA,NA,NA,"null",NA,NA,NA,NA,NA,NA
"null","<img src='gifs/ChineseGender4a.gif' style='height:400px;''></img>",NA,"html-keyboard-response",63,201742,"0.0-13.0-1.8",84940,"ListB","woman","chinese","SW_C_F_B11",NA,NA,NA,"null",NA,NA,NA,NA,NA,NA
"null","正在表扬",NA,"html-keyboard-response",64,204750,"0.0-13.0-2.8",84940,"ListB","woman","chinese","SW_C_F_B11",NA,NA,NA,"null",NA,NA,NA,NA,NA,NA
"6612.5",NA,NA,"survey-text",65,211366,"0.0-13.0-3.8",84940,"ListB","woman","chinese","SW_C_F_B11",NA,NA,NA,NA,"{""Q0"":""霍普正在表扬戴夫""}","<img src='gifs/ChineseGender4a.gif' style='height:400px;''></img>","表扬","正在表扬","chinese",NA
"null","<div style=""font-size:60px;"">+</div>",NA,"html-keyboard-response",66,211885,"0.0-13.0-0.9",84940,"ListB","woman","chinese","SW_C_F_B11",NA,NA,NA,"null",NA,NA,NA,NA,NA,NA
"null","<img src='gifs/BlackGender4b.gif' style='height:400px;''></img>",NA,"html-keyboard-response",67,213891,"0.0-13.0-1.9",84940,"ListB","woman","chinese","SW_C_F_B11",NA,NA,NA,"null",NA,NA,NA,NA,NA,NA
"null","正在接近",NA,"html-keyboard-response",68,216900,"0.0-13.0-2.9",84940,"ListB","woman","chinese","SW_C_F_B11",NA,NA,NA,"null",NA,NA,NA,NA,NA,NA
"3567.300000011921",NA,NA,"survey-text",69,220471,"0.0-13.0-3.9",84940,"ListB","woman","chinese","SW_C_F_B11",NA,NA,NA,NA,"{""Q0"":""凯特正在接近麦克""}","<img src='gifs/BlackGender4b.gif' style='height:400px;''></img>","接近","正在接近","chinese",NA
"null","<div style=""font-size:60px;"">+</div>",NA,"html-keyboard-response",70,220974,"0.0-13.0-0.10",84940,"ListB","woman","chinese","SW_C_F_B11",NA,NA,NA,"null",NA,NA,NA,NA,NA,NA
"null","<img src='gifs/MaleRace1a.gif' style='height:400px;''></img>",NA,"html-keyboard-response",71,222980,"0.0-13.0-1.10",84940,"ListB","woman","chinese","SW_C_F_B11",NA,NA,NA,"null",NA,NA,NA,NA,NA,NA
"null","正在陪伴",NA,"html-keyboard-response",72,225988,"0.0-13.0-2.10",84940,"ListB","woman","chinese","SW_C_F_B11",NA,NA,NA,"null",NA,NA,NA,NA,NA,NA
"4250",NA,NA,"survey-text",73,230241,"0.0-13.0-3.10",84940,"ListB","woman","chinese","SW_C_F_B11",NA,NA,NA,NA,"{""Q0"":""弗雷正在陪伴卢克""}","<img src='gifs/MaleRace1a.gif' style='height:400px;''></img>","陪伴","正在陪伴","chinese",NA
"null","<div style=""font-size:60px;"">+</div>",NA,"html-keyboard-response",74,230744,"0.0-13.0-0.11",84940,"ListB","woman","chinese","SW_C_F_B11",NA,NA,NA,"null",NA,NA,NA,NA,NA,NA
"null","<img src='gifs/MaleRace2a.gif' style='height:400px;''></img>",NA,"html-keyboard-response",75,232750,"0.0-13.0-1.11",84940,"ListB","woman","chinese","SW_C_F_B11",NA,NA,NA,"null",NA,NA,NA,NA,NA,NA
"null","正在看着",NA,"html-keyboard-response",76,235758,"0.0-13.0-2.11",84940,"ListB","woman","chinese","SW_C_F_B11",NA,NA,NA,"null",NA,NA,NA,NA,NA,NA
"3542.2999999523163",NA,NA,"survey-text",77,239304,"0.0-13.0-3.11",84940,"ListB","woman","chinese","SW_C_F_B11",NA,NA,NA,NA,"{""Q0"":""麦克正在看着卢克""}","<img src='gifs/MaleRace2a.gif' style='height:400px;''></img>","看着","正在看着","chinese",NA
"null","<div style=""font-size:60px;"">+</div>",NA,"html-keyboard-response",78,239807,"0.0-13.0-0.12",84940,"ListB","woman","chinese","SW_C_F_B11",NA,NA,NA,"null",NA,NA,NA,NA,NA,NA
"null","<img src='gifs/MaleRace4b.gif' style='height:400px;''></img>",NA,"html-keyboard-response",79,241816,"0.0-13.0-1.12",84940,"ListB","woman","chinese","SW_C_F_B11",NA,NA,NA,"null",NA,NA,NA,NA,NA,NA
"null","正在聘用",NA,"html-keyboard-response",80,244824,"0.0-13.0-2.12",84940,"ListB","woman","chinese","SW_C_F_B11",NA,NA,NA,"null",NA,NA,NA,NA,NA,NA
"4976.400000035763",NA,NA,"survey-text",81,249808,"0.0-13.0-3.12",84940,"ListB","woman","chinese","SW_C_F_B11",NA,NA,NA,NA,"{""Q0"":""戴夫正在聘用麦克""}","<img src='gifs/MaleRace4b.gif' style='height:400px;''></img>","聘用","正在聘用","chinese",NA
"null","<div style=""font-size:60px;"">+</div>",NA,"html-keyboard-response",82,250311,"0.0-13.0-0.13",84940,"ListB","woman","chinese","SW_C_F_B11",NA,NA,NA,"null",NA,NA,NA,NA,NA,NA
"null","<img src='gifs/ChineseGender1b.gif' style='height:400px;''></img>",NA,"html-keyboard-response",83,252316,"0.0-13.0-1.13",84940,"ListB","woman","chinese","SW_C_F_B11",NA,NA,NA,"null",NA,NA,NA,NA,NA,NA
"null","正在答应",NA,"html-keyboard-response",84,255325,"0.0-13.0-2.13",84940,"ListB","woman","chinese","SW_C_F_B11",NA,NA,NA,"null",NA,NA,NA,NA,NA,NA
"3880.399999976158",NA,NA,"survey-text",85,259209,"0.0-13.0-3.13",84940,"ListB","woman","chinese","SW_C_F_B11",NA,NA,NA,NA,"{""Q0"":""卢克正在答应霍普""}","<img src='gifs/ChineseGender1b.gif' style='height:400px;''></img>","答应","正在答应","chinese",NA
"null","<div style=""font-size:60px;"">+</div>",NA,"html-keyboard-response",86,259719,"0.0-13.0-0.14",84940,"ListB","woman","chinese","SW_C_F_B11",NA,NA,NA,"null",NA,NA,NA,NA,NA,NA
"null","<img src='gifs/MaleRace1b.gif' style='height:400px;''></img>",NA,"html-keyboard-response",87,261724,"0.0-13.0-1.14",84940,"ListB","woman","chinese","SW_C_F_B11",NA,NA,NA,"null",NA,NA,NA,NA,NA,NA
"null","正在表扬",NA,"html-keyboard-response",88,264732,"0.0-13.0-2.14",84940,"ListB","woman","chinese","SW_C_F_B11",NA,NA,NA,"null",NA,NA,NA,NA,NA,NA
"3424.199999988079",NA,NA,"survey-text",89,268161,"0.0-13.0-3.14",84940,"ListB","woman","chinese","SW_C_F_B11",NA,NA,NA,NA,"{""Q0"":""卢克正在表扬弗雷""}","<img src='gifs/MaleRace1b.gif' style='height:400px;''></img>","表扬","正在表扬","chinese",NA
"null","<div style=""font-size:60px;"">+</div>",NA,"html-keyboard-response",90,268670,"0.0-13.0-0.15",84940,"ListB","woman","chinese","SW_C_F_B11",NA,NA,NA,"null",NA,NA,NA,NA,NA,NA
"null","<img src='gifs/ChineseGender1a.gif' style='height:400px;''></img>",NA,"html-keyboard-response",91,270685,"0.0-13.0-1.15",84940,"ListB","woman","chinese","SW_C_F_B11",NA,NA,NA,"null",NA,NA,NA,NA,NA,NA
"null","正在看着",NA,"html-keyboard-response",92,273692,"0.0-13.0-2.15",84940,"ListB","woman","chinese","SW_C_F_B11",NA,NA,NA,"null",NA,NA,NA,NA,NA,NA
"5862.399999976158",NA,NA,"survey-text",93,279559,"0.0-13.0-3.15",84940,"ListB","woman","chinese","SW_C_F_B11",NA,NA,NA,NA,"{""Q0"":""霍普正在看着卢克""}","<img src='gifs/ChineseGender1a.gif' style='height:400px;''></img>","看着","正在看着","chinese",NA
"null","<div style=""font-size:60px;"">+</div>",NA,"html-keyboard-response",94,280070,"0.0-13.0-0.16",84940,"ListB","woman","chinese","SW_C_F_B11",NA,NA,NA,"null",NA,NA,NA,NA,NA,NA
"null","<img src='gifs/FemaleRace3a.gif' style='height:400px;''></img>",NA,"html-keyboard-response",95,282077,"0.0-13.0-1.16",84940,"ListB","woman","chinese","SW_C_F_B11",NA,NA,NA,"null",NA,NA,NA,NA,NA,NA
"null","正在说服",NA,"html-keyboard-response",96,285084,"0.0-13.0-2.16",84940,"ListB","woman","chinese","SW_C_F_B11",NA,NA,NA,"null",NA,NA,NA,NA,NA,NA
"7068.199999988079",NA,NA,"survey-text",97,292156,"0.0-13.0-3.16",84940,"ListB","woman","chinese","SW_C_F_B11",NA,NA,NA,NA,"{""Q0"":""露丝正在说服贝斯""}","<img src='gifs/FemaleRace3a.gif' style='height:400px;''></img>","说服","正在说服","chinese",NA
"null","<div style=""font-size:60px;"">+</div>",NA,"html-keyboard-response",98,292668,"0.0-13.0-0.17",84940,"ListB","woman","chinese","SW_C_F_B11",NA,NA,NA,"null",NA,NA,NA,NA,NA,NA
"null","<img src='gifs/ChineseGender3b.gif' style='height:400px;''></img>",NA,"html-keyboard-response",99,294674,"0.0-13.0-1.17",84940,"ListB","woman","chinese","SW_C_F_B11",NA,NA,NA,"null",NA,NA,NA,NA,NA,NA
"null","正在联系",NA,"html-keyboard-response",100,297683,"0.0-13.0-2.17",84940,"ListB","woman","chinese","SW_C_F_B11",NA,NA,NA,"null",NA,NA,NA,NA,NA,NA
"5484.800000011921",NA,NA,"survey-text",101,303171,"0.0-13.0-3.17",84940,"ListB","woman","chinese","SW_C_F_B11",NA,NA,NA,NA,"{""Q0"":""戴夫正在联系露丝""}","<img src='gifs/ChineseGender3b.gif' style='height:400px;''></img>","联系","正在联系","chinese",NA
"11712.199999988079","<img src='img/portrait_matrix_listB_chinese.jpg' style='width:900px;height:500px;''></img><p>如果您已经记住了所有的人物和名字，请点击继续。</p><p><strong>请注意：您对先前记忆的面孔将在本实验中被测试5次。</strong></p>",0,"html-button-response",102,314883,"0.0-14.0-0.0",84940,"ListB","woman","chinese","SW_C_F_B11",NA,NA,NA,NA,NA,NA,NA,NA,NA,NA
"16019.199999988079","<img src=""portrait/BW2.jpg""style=""height:400px;""></img>",2,"html-button-response",103,331908,"0.0-14.0-1.0",84940,"ListB","woman","chinese","SW_C_F_B11",NA,"true",2,NA,NA,NA,NA,NA,NA,NA
"null","正确",NA,"html-keyboard-response",104,333419,"0.0-14.0-2.0-0.0",84940,"ListB","woman","chinese","SW_C_F_B11",NA,NA,NA,"null",NA,NA,NA,NA,NA,NA
"2213.5","<img src=""portrait/BW1.jpg""style=""height:400px;""></img>",0,"html-button-response",105,335635,"0.0-14.0-4.0",84940,"ListB","woman","chinese","SW_C_F_B11",NA,"true",0,NA,NA,NA,NA,NA,NA,NA
"null","正确",NA,"html-keyboard-response",106,337156,"0.0-14.0-5.0-0.0",84940,"ListB","woman","chinese","SW_C_F_B11",NA,NA,NA,"null",NA,NA,NA,NA,NA,NA
"1029.300000011921","<img src=""portrait/BM2.jpg""style=""height:400px;""></img>",5,"html-button-response",107,338188,"0.0-14.0-7.0",84940,"ListB","woman","chinese","SW_C_F_B11",NA,"true",5,NA,NA,NA,NA,NA,NA,NA
"null","正确",NA,"html-keyboard-response",108,339705,"0.0-14.0-8.0-0.0",84940,"ListB","woman","chinese","SW_C_F_B11",NA,NA,NA,"null",NA,NA,NA,NA,NA,NA
"1751.699999988079","<img src=""portrait/BM1.jpg""style=""height:400px;""></img>",4,"html-button-response",109,341460,"0.0-14.0-10.0",84940,"ListB","woman","chinese","SW_C_F_B11",NA,"true",4,NA,NA,NA,NA,NA,NA,NA
"null","正确",NA,"html-keyboard-response",110,342974,"0.0-14.0-11.0-0.0",84940,"ListB","woman","chinese","SW_C_F_B11",NA,NA,NA,"null",NA,NA,NA,NA,NA,NA
"971.6999999880791","<img src=""portrait/WW2.jpg""style=""height:400px;""></img>",3,"html-button-response",111,343948,"0.0-14.0-13.0",84940,"ListB","woman","chinese","SW_C_F_B11",NA,"true",3,NA,NA,NA,NA,NA,NA,NA
"null","正确",NA,"html-keyboard-response",112,345463,"0.0-14.0-14.0-0.0",84940,"ListB","woman","chinese","SW_C_F_B11",NA,NA,NA,"null",NA,NA,NA,NA,NA,NA
"1146.0999999642372","<img src=""portrait/WM1.jpg""style=""height:400px;""></img>",6,"html-button-response",113,346612,"0.0-14.0-16.0",84940,"ListB","woman","chinese","SW_C_F_B11",NA,"true",6,NA,NA,NA,NA,NA,NA,NA
"null","正确",NA,"html-keyboard-response",114,348133,"0.0-14.0-17.0-0.0",84940,"ListB","woman","chinese","SW_C_F_B11",NA,NA,NA,"null",NA,NA,NA,NA,NA,NA
"2261","<img src=""portrait/WM2.jpg""style=""height:400px;""></img>",7,"html-button-response",115,350396,"0.0-14.0-19.0",84940,"ListB","woman","chinese","SW_C_F_B11",NA,"true",7,NA,NA,NA,NA,NA,NA,NA
"null","正确",NA,"html-keyboard-response",116,351916,"0.0-14.0-20.0-0.0",84940,"ListB","woman","chinese","SW_C_F_B11",NA,NA,NA,"null",NA,NA,NA,NA,NA,NA
"1517.1000000238419","<img src=""portrait/WW1.jpg""style=""height:400px;""></img>",1,"html-button-response",117,353436,"0.0-14.0-22.0",84940,"ListB","woman","chinese","SW_C_F_B11",NA,"true",1,NA,NA,NA,NA,NA,NA,NA
"null","正确",NA,"html-keyboard-response",118,354950,"0.0-14.0-23.0-0.0",84940,"ListB","woman","chinese","SW_C_F_B11",NA,NA,NA,"null",NA,NA,NA,NA,NA,NA
"874.6999999880791","<p>您第一次在8题里答对了 8 题。 请点击继续</p>",0,"html-button-response",119,355827,"0.0-14.0-25.0",84940,"ListB","woman","chinese","SW_C_F_B11",NA,NA,NA,NA,NA,NA,NA,NA,NA,NA
"null","<div style=""font-size:60px;"">+</div>",NA,"html-keyboard-response",120,357343,"0.0-15.0-0.0",84940,"ListB","woman","chinese","SW_C_F_B11",NA,NA,NA,"null",NA,NA,NA,NA,NA,NA
"null","<img src='gifs/ChineseGender2b.gif' style='height:400px;''></img>",NA,"html-keyboard-response",121,359353,"0.0-15.0-1.0",84940,"ListB","woman","chinese","SW_C_F_B11",NA,NA,NA,"null",NA,NA,NA,NA,NA,NA
"null","正在答应",NA,"html-keyboard-response",122,362362,"0.0-15.0-2.0",84940,"ListB","woman","chinese","SW_C_F_B11",NA,NA,NA,"null",NA,NA,NA,NA,NA,NA
"3635",NA,NA,"survey-text",123,366000,"0.0-15.0-3.0",84940,"ListB","woman","chinese","SW_C_F_B11",NA,NA,NA,NA,"{""Q0"":""卢克正在答应露丝""}","<img src='gifs/ChineseGender2b.gif' style='height:400px;''></img>","答应","正在答应","chinese",NA
"null","<div style=""font-size:60px;"">+</div>",NA,"html-keyboard-response",124,366511,"0.0-15.0-0.1",84940,"ListB","woman","chinese","SW_C_F_B11",NA,NA,NA,"null",NA,NA,NA,NA,NA,NA
"null","<img src='gifs/MaleRace2b.gif' style='height:400px;''></img>",NA,"html-keyboard-response",125,368524,"0.0-15.0-1.1",84940,"ListB","woman","chinese","SW_C_F_B11",NA,NA,NA,"null",NA,NA,NA,NA,NA,NA
"null","正在介绍",NA,"html-keyboard-response",126,371532,"0.0-15.0-2.1",84940,"ListB","woman","chinese","SW_C_F_B11",NA,NA,NA,"null",NA,NA,NA,NA,NA,NA
"3392.300000011921",NA,NA,"survey-text",127,374928,"0.0-15.0-3.1",84940,"ListB","woman","chinese","SW_C_F_B11",NA,NA,NA,NA,"{""Q0"":""卢克正在介绍麦克""}","<img src='gifs/MaleRace2b.gif' style='height:400px;''></img>","介绍","正在介绍","chinese",NA
"null","<div style=""font-size:60px;"">+</div>",NA,"html-keyboard-response",128,375436,"0.0-15.0-0.2",84940,"ListB","woman","chinese","SW_C_F_B11",NA,NA,NA,"null",NA,NA,NA,NA,NA,NA
"null","<img src='gifs/ChineseGender2b.gif' style='height:400px;''></img>",NA,"html-keyboard-response",129,377441,"0.0-15.0-1.2",84940,"ListB","woman","chinese","SW_C_F_B11",NA,NA,NA,"null",NA,NA,NA,NA,NA,NA
"null","正在说服",NA,"html-keyboard-response",130,380449,"0.0-15.0-2.2",84940,"ListB","woman","chinese","SW_C_F_B11",NA,NA,NA,"null",NA,NA,NA,NA,NA,NA
"8160.699999988079",NA,NA,"survey-text",131,388614,"0.0-15.0-3.2",84940,"ListB","woman","chinese","SW_C_F_B11",NA,NA,NA,NA,"{""Q0"":""卢克正在说服露丝""}","<img src='gifs/ChineseGender2b.gif' style='height:400px;''></img>","说服","正在说服","chinese",NA
"null","<div style=""font-size:60px;"">+</div>",NA,"html-keyboard-response",132,389120,"0.0-15.0-0.3",84940,"ListB","woman","chinese","SW_C_F_B11",NA,NA,NA,"null",NA,NA,NA,NA,NA,NA
"null","<img src='gifs/BlackGender2a.gif' style='height:400px;''></img>",NA,"html-keyboard-response",133,391127,"0.0-15.0-1.3",84940,"ListB","woman","chinese","SW_C_F_B11",NA,NA,NA,"null",NA,NA,NA,NA,NA,NA
"null","正在面向",NA,"html-keyboard-response",134,394134,"0.0-15.0-2.3",84940,"ListB","woman","chinese","SW_C_F_B11",NA,NA,NA,"null",NA,NA,NA,NA,NA,NA
"6152.5",NA,NA,"survey-text",135,400290,"0.0-15.0-3.3",84940,"ListB","woman","chinese","SW_C_F_B11",NA,NA,NA,NA,"{""Q0"":""麦克正在面向贝斯""}","<img src='gifs/BlackGender2a.gif' style='height:400px;''></img>","面向","正在面向","chinese",NA
"null","<div style=""font-size:60px;"">+</div>",NA,"html-keyboard-response",136,400801,"0.0-15.0-0.4",84940,"ListB","woman","chinese","SW_C_F_B11",NA,NA,NA,"null",NA,NA,NA,NA,NA,NA
"null","<img src='gifs/MaleRace2a.gif' style='height:400px;''></img>",NA,"html-keyboard-response",137,402806,"0.0-15.0-1.4",84940,"ListB","woman","chinese","SW_C_F_B11",NA,NA,NA,"null",NA,NA,NA,NA,NA,NA
"null","正在看着",NA,"html-keyboard-response",138,405816,"0.0-15.0-2.4",84940,"ListB","woman","chinese","SW_C_F_B11",NA,NA,NA,"null",NA,NA,NA,NA,NA,NA
"6060",NA,NA,"survey-text",139,411879,"0.0-15.0-3.4",84940,"ListB","woman","chinese","SW_C_F_B11",NA,NA,NA,NA,"{""Q0"":""麦克正在看着卢克""}","<img src='gifs/MaleRace2a.gif' style='height:400px;''></img>","看着","正在看着","chinese",NA
"null","<div style=""font-size:60px;"">+</div>",NA,"html-keyboard-response",140,412386,"0.0-15.0-0.5",84940,"ListB","woman","chinese","SW_C_F_B11",NA,NA,NA,"null",NA,NA,NA,NA,NA,NA
"null","<img src='gifs/BlackGender2b.gif' style='height:400px;''></img>",NA,"html-keyboard-response",141,414390,"0.0-15.0-1.5",84940,"ListB","woman","chinese","SW_C_F_B11",NA,NA,NA,"null",NA,NA,NA,NA,NA,NA
"null","正在走向",NA,"html-keyboard-response",142,417397,"0.0-15.0-2.5",84940,"ListB","woman","chinese","SW_C_F_B11",NA,NA,NA,"null",NA,NA,NA,NA,NA,NA
"9815.199999988079",NA,NA,"survey-text",143,427216,"0.0-15.0-3.5",84940,"ListB","woman","chinese","SW_C_F_B11",NA,NA,NA,NA,"{""Q0"":""贝斯正在走向麦克""}","<img src='gifs/BlackGender2b.gif' style='height:400px;''></img>","走向","正在走向","chinese",NA
"null","<div style=""font-size:60px;"">+</div>",NA,"html-keyboard-response",144,427723,"0.0-15.0-0.6",84940,"ListB","woman","chinese","SW_C_F_B11",NA,NA,NA,"null",NA,NA,NA,NA,NA,NA
"null","<img src='gifs/MaleRace3b.gif' style='height:400px;''></img>",NA,"html-keyboard-response",145,429729,"0.0-15.0-1.6",84940,"ListB","woman","chinese","SW_C_F_B11",NA,NA,NA,"null",NA,NA,NA,NA,NA,NA
"null","正在陪伴",NA,"html-keyboard-response",146,432736,"0.0-15.0-2.6",84940,"ListB","woman","chinese","SW_C_F_B11",NA,NA,NA,"null",NA,NA,NA,NA,NA,NA
"6461.599999964237",NA,NA,"survey-text",147,439201,"0.0-15.0-3.6",84940,"ListB","woman","chinese","SW_C_F_B11",NA,NA,NA,NA,"{""Q0"":""戴夫正在陪伴弗雷""}","<img src='gifs/MaleRace3b.gif' style='height:400px;''></img>","陪伴","正在陪伴","chinese",NA
"null","<div style=""font-size:60px;"">+</div>",NA,"html-keyboard-response",148,439714,"0.0-15.0-0.7",84940,"ListB","woman","chinese","SW_C_F_B11",NA,NA,NA,"null",NA,NA,NA,NA,NA,NA
"null","<img src='gifs/BlackGender1b.gif' style='height:400px;''></img>",NA,"html-keyboard-response",149,441718,"0.0-15.0-1.7",84940,"ListB","woman","chinese","SW_C_F_B11",NA,NA,NA,"null",NA,NA,NA,NA,NA,NA
"null","正在介绍",NA,"html-keyboard-response",150,444726,"0.0-15.0-2.7",84940,"ListB","woman","chinese","SW_C_F_B11",NA,NA,NA,"null",NA,NA,NA,NA,NA,NA
"6770.399999976158",NA,NA,"survey-text",151,451500,"0.0-15.0-3.7",84940,"ListB","woman","chinese","SW_C_F_B11",NA,NA,NA,NA,"{""Q0"":""贝斯正在介绍弗雷""}","<img src='gifs/BlackGender1b.gif' style='height:400px;''></img>","介绍","正在介绍","chinese",NA
"null","<div style=""font-size:60px;"">+</div>",NA,"html-keyboard-response",152,452011,"0.0-15.0-0.8",84940,"ListB","woman","chinese","SW_C_F_B11",NA,NA,NA,"null",NA,NA,NA,NA,NA,NA
"null","<img src='gifs/FemaleRace2a.gif' style='height:400px;''></img>",NA,"html-keyboard-response",153,454018,"0.0-15.0-1.8",84940,"ListB","woman","chinese","SW_C_F_B11",NA,NA,NA,"null",NA,NA,NA,NA,NA,NA
"null","正在看着",NA,"html-keyboard-response",154,457024,"0.0-15.0-2.8",84940,"ListB","woman","chinese","SW_C_F_B11",NA,NA,NA,"null",NA,NA,NA,NA,NA,NA
"11148.099999964237",NA,NA,"survey-text",155,468176,"0.0-15.0-3.8",84940,"ListB","woman","chinese","SW_C_F_B11",NA,NA,NA,NA,"{""Q0"":""霍普正在看着凯特""}","<img src='gifs/FemaleRace2a.gif' style='height:400px;''></img>","看着","正在看着","chinese",NA
"null","<div style=""font-size:60px;"">+</div>",NA,"html-keyboard-response",156,468677,"0.0-15.0-0.9",84940,"ListB","woman","chinese","SW_C_F_B11",NA,NA,NA,"null",NA,NA,NA,NA,NA,NA
"null","<img src='gifs/MaleRace4a.gif' style='height:400px;''></img>",NA,"html-keyboard-response",157,470689,"0.0-15.0-1.9",84940,"ListB","woman","chinese","SW_C_F_B11",NA,NA,NA,"null",NA,NA,NA,NA,NA,NA
"null","正在跟随",NA,"html-keyboard-response",158,473697,"0.0-15.0-2.9",84940,"ListB","woman","chinese","SW_C_F_B11",NA,NA,NA,"null",NA,NA,NA,NA,NA,NA
"3290.5",NA,NA,"survey-text",159,476990,"0.0-15.0-3.9",84940,"ListB","woman","chinese","SW_C_F_B11",NA,NA,NA,NA,"{""Q0"":""麦克正在跟随戴夫""}","<img src='gifs/MaleRace4a.gif' style='height:400px;''></img>","跟随","正在跟随","chinese",NA
"null","<div style=""font-size:60px;"">+</div>",NA,"html-keyboard-response",160,477494,"0.0-15.0-0.10",84940,"ListB","woman","chinese","SW_C_F_B11",NA,NA,NA,"null",NA,NA,NA,NA,NA,NA
"null","<img src='gifs/ChineseGender3a.gif' style='height:400px;''></img>",NA,"html-keyboard-response",161,479500,"0.0-15.0-1.10",84940,"ListB","woman","chinese","SW_C_F_B11",NA,NA,NA,"null",NA,NA,NA,NA,NA,NA
"null","正在聆听",NA,"html-keyboard-response",162,482508,"0.0-15.0-2.10",84940,"ListB","woman","chinese","SW_C_F_B11",NA,NA,NA,"null",NA,NA,NA,NA,NA,NA
"4228.699999988079",NA,NA,"survey-text",163,486740,"0.0-15.0-3.10",84940,"ListB","woman","chinese","SW_C_F_B11",NA,NA,NA,NA,"{""Q0"":""露丝正在聆听戴夫""}","<img src='gifs/ChineseGender3a.gif' style='height:400px;''></img>","聆听","正在聆听","chinese",NA
"null","<div style=""font-size:60px;"">+</div>",NA,"html-keyboard-response",164,487242,"0.0-15.0-0.11",84940,"ListB","woman","chinese","SW_C_F_B11",NA,NA,NA,"null",NA,NA,NA,NA,NA,NA
"null","<img src='gifs/MaleRace3a.gif' style='height:400px;''></img>",NA,"html-keyboard-response",165,489254,"0.0-15.0-1.11",84940,"ListB","woman","chinese","SW_C_F_B11",NA,NA,NA,"null",NA,NA,NA,NA,NA,NA
"null","正在聆听",NA,"html-keyboard-response",166,492266,"0.0-15.0-2.11",84940,"ListB","woman","chinese","SW_C_F_B11",NA,NA,NA,"null",NA,NA,NA,NA,NA,NA
"5223.199999988079",NA,NA,"survey-text",167,497492,"0.0-15.0-3.11",84940,"ListB","woman","chinese","SW_C_F_B11",NA,NA,NA,NA,"{""Q0"":""弗雷正在聆听戴夫""}","<img src='gifs/MaleRace3a.gif' style='height:400px;''></img>","聆听","正在聆听","chinese",NA
"null","<div style=""font-size:60px;"">+</div>",NA,"html-keyboard-response",168,497996,"0.0-15.0-0.12",84940,"ListB","woman","chinese","SW_C_F_B11",NA,NA,NA,"null",NA,NA,NA,NA,NA,NA
"null","<img src='gifs/FemaleRace3b.gif' style='height:400px;''></img>",NA,"html-keyboard-response",169,500010,"0.0-15.0-1.12",84940,"ListB","woman","chinese","SW_C_F_B11",NA,NA,NA,"null",NA,NA,NA,NA,NA,NA
"null","正在说服",NA,"html-keyboard-response",170,503019,"0.0-15.0-2.12",84940,"ListB","woman","chinese","SW_C_F_B11",NA,NA,NA,"null",NA,NA,NA,NA,NA,NA
"4038.599999964237",NA,NA,"survey-text",171,507061,"0.0-15.0-3.12",84940,"ListB","woman","chinese","SW_C_F_B11",NA,NA,NA,NA,"{""Q0"":""贝斯正在说服露丝""}","<img src='gifs/FemaleRace3b.gif' style='height:400px;''></img>","说服","正在说服","chinese",NA
"null","<div style=""font-size:60px;"">+</div>",NA,"html-keyboard-response",172,507573,"0.0-15.0-0.13",84940,"ListB","woman","chinese","SW_C_F_B11",NA,NA,NA,"null",NA,NA,NA,NA,NA,NA
"null","<img src='gifs/ChineseGender4b.gif' style='height:400px;''></img>",NA,"html-keyboard-response",173,509580,"0.0-15.0-1.13",84940,"ListB","woman","chinese","SW_C_F_B11",NA,NA,NA,"null",NA,NA,NA,NA,NA,NA
"null","正在答应",NA,"html-keyboard-response",174,512588,"0.0-15.0-2.13",84940,"ListB","woman","chinese","SW_C_F_B11",NA,NA,NA,"null",NA,NA,NA,NA,NA,NA
"7644.699999988079",NA,NA,"survey-text",175,520237,"0.0-15.0-3.13",84940,"ListB","woman","chinese","SW_C_F_B11",NA,NA,NA,NA,"{""Q0"":""戴夫正在答应霍普""}","<img src='gifs/ChineseGender4b.gif' style='height:400px;''></img>","答应","正在答应","chinese",NA
"null","<div style=""font-size:60px;"">+</div>",NA,"html-keyboard-response",176,520747,"0.0-15.0-0.14",84940,"ListB","woman","chinese","SW_C_F_B11",NA,NA,NA,"null",NA,NA,NA,NA,NA,NA
"null","<img src='gifs/MaleRace3a.gif' style='height:400px;''></img>",NA,"html-keyboard-response",177,522752,"0.0-15.0-1.14",84940,"ListB","woman","chinese","SW_C_F_B11",NA,NA,NA,"null",NA,NA,NA,NA,NA,NA
"null","正在面向",NA,"html-keyboard-response",178,525758,"0.0-15.0-2.14",84940,"ListB","woman","chinese","SW_C_F_B11",NA,NA,NA,"null",NA,NA,NA,NA,NA,NA
"6019.899999976158",NA,NA,"survey-text",179,531782,"0.0-15.0-3.14",84940,"ListB","woman","chinese","SW_C_F_B11",NA,NA,NA,NA,"{""Q0"":""弗雷正在面向戴夫""}","<img src='gifs/MaleRace3a.gif' style='height:400px;''></img>","面向","正在面向","chinese",NA
"null","<div style=""font-size:60px;"">+</div>",NA,"html-keyboard-response",180,532289,"0.0-15.0-0.15",84940,"ListB","woman","chinese","SW_C_F_B11",NA,NA,NA,"null",NA,NA,NA,NA,NA,NA
"null","<img src='gifs/FemaleRace1a.gif' style='height:400px;''></img>",NA,"html-keyboard-response",181,534294,"0.0-15.0-1.15",84940,"ListB","woman","chinese","SW_C_F_B11",NA,NA,NA,"null",NA,NA,NA,NA,NA,NA
"null","正在聆听",NA,"html-keyboard-response",182,537303,"0.0-15.0-2.15",84940,"ListB","woman","chinese","SW_C_F_B11",NA,NA,NA,"null",NA,NA,NA,NA,NA,NA
"3828.7999999523163",NA,NA,"survey-text",183,541137,"0.0-15.0-3.15",84940,"ListB","woman","chinese","SW_C_F_B11",NA,NA,NA,NA,"{""Q0"":""霍普正在聆听贝斯""}","<img src='gifs/FemaleRace1a.gif' style='height:400px;''></img>","聆听","正在聆听","chinese",NA
"null","<div style=""font-size:60px;"">+</div>",NA,"html-keyboard-response",184,541644,"0.0-15.0-0.16",84940,"ListB","woman","chinese","SW_C_F_B11",NA,NA,NA,"null",NA,NA,NA,NA,NA,NA
"null","<img src='gifs/BlackGender1a.gif' style='height:400px;''></img>",NA,"html-keyboard-response",185,543649,"0.0-15.0-1.16",84940,"ListB","woman","chinese","SW_C_F_B11",NA,NA,NA,"null",NA,NA,NA,NA,NA,NA
"null","正在说服",NA,"html-keyboard-response",186,546657,"0.0-15.0-2.16",84940,"ListB","woman","chinese","SW_C_F_B11",NA,NA,NA,"null",NA,NA,NA,NA,NA,NA
"3627.199999988079",NA,NA,"survey-text",187,550284,"0.0-15.0-3.16",84940,"ListB","woman","chinese","SW_C_F_B11",NA,NA,NA,NA,"{""Q0"":""弗雷正在说服贝斯""}","<img src='gifs/BlackGender1a.gif' style='height:400px;''></img>","说服","正在说服","chinese",NA
"null","<div style=""font-size:60px;"">+</div>",NA,"html-keyboard-response",188,550792,"0.0-15.0-0.17",84940,"ListB","woman","chinese","SW_C_F_B11",NA,NA,NA,"null",NA,NA,NA,NA,NA,NA
"null","<img src='gifs/FemaleRace2b.gif' style='height:400px;''></img>",NA,"html-keyboard-response",189,552797,"0.0-15.0-1.17",84940,"ListB","woman","chinese","SW_C_F_B11",NA,NA,NA,"null",NA,NA,NA,NA,NA,NA
"null","正在联系",NA,"html-keyboard-response",190,555806,"0.0-15.0-2.17",84940,"ListB","woman","chinese","SW_C_F_B11",NA,NA,NA,"null",NA,NA,NA,NA,NA,NA
"6144.400000035763",NA,NA,"survey-text",191,561955,"0.0-15.0-3.17",84940,"ListB","woman","chinese","SW_C_F_B11",NA,NA,NA,NA,"{""Q0"":""凯特正在联系霍普""}","<img src='gifs/FemaleRace2b.gif' style='height:400px;''></img>","联系","正在联系","chinese",NA
"35897.700000047684","<img src='img/portrait_matrix_listB_chinese.jpg' style='width:900px;height:500px;''></img><p>如果您已经记住了所有的人物和名字，请点击继续。</p><p><strong>请注意：您对先前记忆的面孔将在本实验中被测试5次。</strong></p>",0,"html-button-response",192,597854,"0.0-16.0-0.0",84940,"ListB","woman","chinese","SW_C_F_B11",NA,NA,NA,NA,NA,NA,NA,NA,NA,NA
"1275.800000011921","<img src=""portrait/WW2.jpg""style=""height:400px;""></img>",3,"html-button-response",193,600134,"0.0-16.0-1.0",84940,"ListB","woman","chinese","SW_C_F_B11",NA,"true",3,NA,NA,NA,NA,NA,NA,NA
"null","正确",NA,"html-keyboard-response",194,601649,"0.0-16.0-2.0-0.0",84940,"ListB","woman","chinese","SW_C_F_B11",NA,NA,NA,"null",NA,NA,NA,NA,NA,NA
"1186.3999999761581","<img src=""portrait/WM2.jpg""style=""height:400px;""></img>",7,"html-button-response",195,602838,"0.0-16.0-4.0",84940,"ListB","woman","chinese","SW_C_F_B11",NA,"true",7,NA,NA,NA,NA,NA,NA,NA
"null","正确",NA,"html-keyboard-response",196,604359,"0.0-16.0-5.0-0.0",84940,"ListB","woman","chinese","SW_C_F_B11",NA,NA,NA,"null",NA,NA,NA,NA,NA,NA
"1980.5","<img src=""portrait/WM1.jpg""style=""height:400px;""></img>",6,"html-button-response",197,606343,"0.0-16.0-7.0",84940,"ListB","woman","chinese","SW_C_F_B11",NA,"true",6,NA,NA,NA,NA,NA,NA,NA
"null","正确",NA,"html-keyboard-response",198,607868,"0.0-16.0-8.0-0.0",84940,"ListB","woman","chinese","SW_C_F_B11",NA,NA,NA,"null",NA,NA,NA,NA,NA,NA
"1443.300000011921","<img src=""portrait/BW1.jpg""style=""height:400px;""></img>",0,"html-button-response",199,609313,"0.0-16.0-10.0",84940,"ListB","woman","chinese","SW_C_F_B11",NA,"true",0,NA,NA,NA,NA,NA,NA,NA
"null","正确",NA,"html-keyboard-response",200,610826,"0.0-16.0-11.0-0.0",84940,"ListB","woman","chinese","SW_C_F_B11",NA,NA,NA,"null",NA,NA,NA,NA,NA,NA
"1413.2000000476837","<img src=""portrait/BM2.jpg""style=""height:400px;""></img>",5,"html-button-response",201,612242,"0.0-16.0-13.0",84940,"ListB","woman","chinese","SW_C_F_B11",NA,"true",5,NA,NA,NA,NA,NA,NA,NA
"null","正确",NA,"html-keyboard-response",202,613749,"0.0-16.0-14.0-0.0",84940,"ListB","woman","chinese","SW_C_F_B11",NA,NA,NA,"null",NA,NA,NA,NA,NA,NA
"3090","<img src=""portrait/WW1.jpg""style=""height:400px;""></img>",1,"html-button-response",203,616841,"0.0-16.0-16.0",84940,"ListB","woman","chinese","SW_C_F_B11",NA,"true",1,NA,NA,NA,NA,NA,NA,NA
"null","正确",NA,"html-keyboard-response",204,618357,"0.0-16.0-17.0-0.0",84940,"ListB","woman","chinese","SW_C_F_B11",NA,NA,NA,"null",NA,NA,NA,NA,NA,NA
"1946.300000011921","<img src=""portrait/BW2.jpg""style=""height:400px;""></img>",2,"html-button-response",205,620306,"0.0-16.0-19.0",84940,"ListB","woman","chinese","SW_C_F_B11",NA,"true",2,NA,NA,NA,NA,NA,NA,NA
"null","正确",NA,"html-keyboard-response",206,621824,"0.0-16.0-20.0-0.0",84940,"ListB","woman","chinese","SW_C_F_B11",NA,NA,NA,"null",NA,NA,NA,NA,NA,NA
"574.6000000238419","<img src=""portrait/BM1.jpg""style=""height:400px;""></img>",4,"html-button-response",207,622401,"0.0-16.0-22.0",84940,"ListB","woman","chinese","SW_C_F_B11",NA,"true",4,NA,NA,NA,NA,NA,NA,NA
"null","正确",NA,"html-keyboard-response",208,623915,"0.0-16.0-23.0-0.0",84940,"ListB","woman","chinese","SW_C_F_B11",NA,NA,NA,"null",NA,NA,NA,NA,NA,NA
"827.8999999761581","<p>您第一次在8题里答对了 8 题。 请点击继续</p>",0,"html-button-response",209,624746,"0.0-16.0-25.0",84940,"ListB","woman","chinese","SW_C_F_B11",NA,NA,NA,NA,NA,NA,NA,NA,NA,NA
"null","<div style=""font-size:60px;"">+</div>",NA,"html-keyboard-response",210,626255,"0.0-17.0-0.0",84940,"ListB","woman","chinese","SW_C_F_B11",NA,NA,NA,"null",NA,NA,NA,NA,NA,NA
"null","<img src='gifs/MaleRace3b.gif' style='height:400px;''></img>",NA,"html-keyboard-response",211,628266,"0.0-17.0-1.0",84940,"ListB","woman","chinese","SW_C_F_B11",NA,NA,NA,"null",NA,NA,NA,NA,NA,NA
"null","正在加入",NA,"html-keyboard-response",212,631275,"0.0-17.0-2.0",84940,"ListB","woman","chinese","SW_C_F_B11",NA,NA,NA,"null",NA,NA,NA,NA,NA,NA
"5259.800000011921",NA,NA,"survey-text",213,636538,"0.0-17.0-3.0",84940,"ListB","woman","chinese","SW_C_F_B11",NA,NA,NA,NA,"{""Q0"":""戴夫正在加入弗雷""}","<img src='gifs/MaleRace3b.gif' style='height:400px;''></img>","加入","正在加入","chinese",NA
"null","<div style=""font-size:60px;"">+</div>",NA,"html-keyboard-response",214,637045,"0.0-17.0-0.1",84940,"ListB","woman","chinese","SW_C_F_B11",NA,NA,NA,"null",NA,NA,NA,NA,NA,NA
"null","<img src='gifs/FemaleRace3a.gif' style='height:400px;''></img>",NA,"html-keyboard-response",215,639050,"0.0-17.0-1.1",84940,"ListB","woman","chinese","SW_C_F_B11",NA,NA,NA,"null",NA,NA,NA,NA,NA,NA
"null","正在陪伴",NA,"html-keyboard-response",216,642058,"0.0-17.0-2.1",84940,"ListB","woman","chinese","SW_C_F_B11",NA,NA,NA,"null",NA,NA,NA,NA,NA,NA
"138226.80000001192",NA,NA,"survey-text",217,780290,"0.0-17.0-3.1",84940,"ListB","woman","chinese","SW_C_F_B11",NA,NA,NA,NA,"{""Q0"":""露丝正在陪伴贝斯""}","<img src='gifs/FemaleRace3a.gif' style='height:400px;''></img>","陪伴","正在陪伴","chinese",NA
"null","<div style=""font-size:60px;"">+</div>",NA,"html-keyboard-response",218,780801,"0.0-17.0-0.2",84940,"ListB","woman","chinese","SW_C_F_B11",NA,NA,NA,"null",NA,NA,NA,NA,NA,NA
"null","<img src='gifs/FemaleRace4a.gif' style='height:400px;''></img>",NA,"html-keyboard-response",219,782806,"0.0-17.0-1.2",84940,"ListB","woman","chinese","SW_C_F_B11",NA,NA,NA,"null",NA,NA,NA,NA,NA,NA
"null","正在触摸",NA,"html-keyboard-response",220,785814,"0.0-17.0-2.2",84940,"ListB","woman","chinese","SW_C_F_B11",NA,NA,NA,"null",NA,NA,NA,NA,NA,NA
"7683.699999988079",NA,NA,"survey-text",221,793502,"0.0-17.0-3.2",84940,"ListB","woman","chinese","SW_C_F_B11",NA,NA,NA,NA,"{""Q0"":""露丝正在触摸凯特""}","<img src='gifs/FemaleRace4a.gif' style='height:400px;''></img>","触摸","正在触摸","chinese",NA
"null","<div style=""font-size:60px;"">+</div>",NA,"html-keyboard-response",222,794005,"0.0-17.0-0.3",84940,"ListB","woman","chinese","SW_C_F_B11",NA,NA,NA,"null",NA,NA,NA,NA,NA,NA
"null","<img src='gifs/MaleRace1a.gif' style='height:400px;''></img>",NA,"html-keyboard-response",223,796012,"0.0-17.0-1.3",84940,"ListB","woman","chinese","SW_C_F_B11",NA,NA,NA,"null",NA,NA,NA,NA,NA,NA
"null","正在提到",NA,"html-keyboard-response",224,799019,"0.0-17.0-2.3",84940,"ListB","woman","chinese","SW_C_F_B11",NA,NA,NA,"null",NA,NA,NA,NA,NA,NA
"5384.699999988079",NA,NA,"survey-text",225,804408,"0.0-17.0-3.3",84940,"ListB","woman","chinese","SW_C_F_B11",NA,NA,NA,NA,"{""Q0"":""弗雷正在提到卢克""}","<img src='gifs/MaleRace1a.gif' style='height:400px;''></img>","提到","正在提到","chinese",NA
"null","<div style=""font-size:60px;"">+</div>",NA,"html-keyboard-response",226,804917,"0.0-17.0-0.4",84940,"ListB","woman","chinese","SW_C_F_B11",NA,NA,NA,"null",NA,NA,NA,NA,NA,NA
"null","<img src='gifs/BlackGender1b.gif' style='height:400px;''></img>",NA,"html-keyboard-response",227,806924,"0.0-17.0-1.4",84940,"ListB","woman","chinese","SW_C_F_B11",NA,NA,NA,"null",NA,NA,NA,NA,NA,NA
"null","正在加入",NA,"html-keyboard-response",228,809932,"0.0-17.0-2.4",84940,"ListB","woman","chinese","SW_C_F_B11",NA,NA,NA,"null",NA,NA,NA,NA,NA,NA
"4814.5",NA,NA,"survey-text",229,814750,"0.0-17.0-3.4",84940,"ListB","woman","chinese","SW_C_F_B11",NA,NA,NA,NA,"{""Q0"":""贝斯正在加入弗雷""}","<img src='gifs/BlackGender1b.gif' style='height:400px;''></img>","加入","正在加入","chinese",NA
"null","<div style=""font-size:60px;"">+</div>",NA,"html-keyboard-response",230,815254,"0.0-17.0-0.5",84940,"ListB","woman","chinese","SW_C_F_B11",NA,NA,NA,"null",NA,NA,NA,NA,NA,NA
"null","<img src='gifs/FemaleRace1b.gif' style='height:400px;''></img>",NA,"html-keyboard-response",231,817260,"0.0-17.0-1.5",84940,"ListB","woman","chinese","SW_C_F_B11",NA,NA,NA,"null",NA,NA,NA,NA,NA,NA
"null","正在面向",NA,"html-keyboard-response",232,820267,"0.0-17.0-2.5",84940,"ListB","woman","chinese","SW_C_F_B11",NA,NA,NA,"null",NA,NA,NA,NA,NA,NA
"3870.600000023842",NA,NA,"survey-text",233,824141,"0.0-17.0-3.5",84940,"ListB","woman","chinese","SW_C_F_B11",NA,NA,NA,NA,"{""Q0"":""贝斯正在面向霍普""}","<img src='gifs/FemaleRace1b.gif' style='height:400px;''></img>","面向","正在面向","chinese",NA
"null","<div style=""font-size:60px;"">+</div>",NA,"html-keyboard-response",234,824652,"0.0-17.0-0.6",84940,"ListB","woman","chinese","SW_C_F_B11",NA,NA,NA,"null",NA,NA,NA,NA,NA,NA
"null","<img src='gifs/BlackGender4a.gif' style='height:400px;''></img>",NA,"html-keyboard-response",235,826664,"0.0-17.0-1.6",84940,"ListB","woman","chinese","SW_C_F_B11",NA,NA,NA,"null",NA,NA,NA,NA,NA,NA
"null","正在接近",NA,"html-keyboard-response",236,829675,"0.0-17.0-2.6",84940,"ListB","woman","chinese","SW_C_F_B11",NA,NA,NA,"null",NA,NA,NA,NA,NA,NA
"3631.300000011921",NA,NA,"survey-text",237,833310,"0.0-17.0-3.6",84940,"ListB","woman","chinese","SW_C_F_B11",NA,NA,NA,NA,"{""Q0"":""麦克正在接近凯特""}","<img src='gifs/BlackGender4a.gif' style='height:400px;''></img>","接近","正在接近","chinese",NA
"null","<div style=""font-size:60px;"">+</div>",NA,"html-keyboard-response",238,833814,"0.0-17.0-0.7",84940,"ListB","woman","chinese","SW_C_F_B11",NA,NA,NA,"null",NA,NA,NA,NA,NA,NA
"null","<img src='gifs/BlackGender3b.gif' style='height:400px;''></img>",NA,"html-keyboard-response",239,835819,"0.0-17.0-1.7",84940,"ListB","woman","chinese","SW_C_F_B11",NA,NA,NA,"null",NA,NA,NA,NA,NA,NA
"null","正在介绍",NA,"html-keyboard-response",240,838828,"0.0-17.0-2.7",84940,"ListB","woman","chinese","SW_C_F_B11",NA,NA,NA,"null",NA,NA,NA,NA,NA,NA
"117224.69999998808",NA,NA,"survey-text",241,956055,"0.0-17.0-3.7",84940,"ListB","woman","chinese","SW_C_F_B11",NA,NA,NA,NA,"{""Q0"":""凯特正在介绍弗雷""}","<img src='gifs/BlackGender3b.gif' style='height:400px;''></img>","介绍","正在介绍","chinese",NA
"null","<div style=""font-size:60px;"">+</div>",NA,"html-keyboard-response",242,956564,"0.0-17.0-0.8",84940,"ListB","woman","chinese","SW_C_F_B11",NA,NA,NA,"null",NA,NA,NA,NA,NA,NA
"null","<img src='gifs/BlackGender4b.gif' style='height:400px;''></img>",NA,"html-keyboard-response",243,958575,"0.0-17.0-1.8",84940,"ListB","woman","chinese","SW_C_F_B11",NA,NA,NA,"null",NA,NA,NA,NA,NA,NA
"null","正在接近",NA,"html-keyboard-response",244,961579,"0.0-17.0-2.8",84940,"ListB","woman","chinese","SW_C_F_B11",NA,NA,NA,"null",NA,NA,NA,NA,NA,NA
"4055.300000011921",NA,NA,"survey-text",245,965638,"0.0-17.0-3.8",84940,"ListB","woman","chinese","SW_C_F_B11",NA,NA,NA,NA,"{""Q0"":""凯特正在接近麦克""}","<img src='gifs/BlackGender4b.gif' style='height:400px;''></img>","接近","正在接近","chinese",NA
"null","<div style=""font-size:60px;"">+</div>",NA,"html-keyboard-response",246,966144,"0.0-17.0-0.9",84940,"ListB","woman","chinese","SW_C_F_B11",NA,NA,NA,"null",NA,NA,NA,NA,NA,NA
"null","<img src='gifs/FemaleRace2b.gif' style='height:400px;''></img>",NA,"html-keyboard-response",247,968148,"0.0-17.0-1.9",84940,"ListB","woman","chinese","SW_C_F_B11",NA,NA,NA,"null",NA,NA,NA,NA,NA,NA
"null","正在接近",NA,"html-keyboard-response",248,971154,"0.0-17.0-2.9",84940,"ListB","woman","chinese","SW_C_F_B11",NA,NA,NA,"null",NA,NA,NA,NA,NA,NA
"7865.699999988079",NA,NA,"survey-text",249,979024,"0.0-17.0-3.9",84940,"ListB","woman","chinese","SW_C_F_B11",NA,NA,NA,NA,"{""Q0"":""凯特正在接近霍普""}","<img src='gifs/FemaleRace2b.gif' style='height:400px;''></img>","接近","正在接近","chinese",NA
"null","<div style=""font-size:60px;"">+</div>",NA,"html-keyboard-response",250,979531,"0.0-17.0-0.10",84940,"ListB","woman","chinese","SW_C_F_B11",NA,NA,NA,"null",NA,NA,NA,NA,NA,NA
"null","<img src='gifs/ChineseGender4b.gif' style='height:400px;''></img>",NA,"html-keyboard-response",251,981537,"0.0-17.0-1.10",84940,"ListB","woman","chinese","SW_C_F_B11",NA,NA,NA,"null",NA,NA,NA,NA,NA,NA
"null","正在提到",NA,"html-keyboard-response",252,984544,"0.0-17.0-2.10",84940,"ListB","woman","chinese","SW_C_F_B11",NA,NA,NA,"null",NA,NA,NA,NA,NA,NA
"6389.199999988079",NA,NA,"survey-text",253,990937,"0.0-17.0-3.10",84940,"ListB","woman","chinese","SW_C_F_B11",NA,NA,NA,NA,"{""Q0"":""戴夫正在提到霍普""}","<img src='gifs/ChineseGender4b.gif' style='height:400px;''></img>","提到","正在提到","chinese",NA
"null","<div style=""font-size:60px;"">+</div>",NA,"html-keyboard-response",254,991445,"0.0-17.0-0.11",84940,"ListB","woman","chinese","SW_C_F_B11",NA,NA,NA,"null",NA,NA,NA,NA,NA,NA
"null","<img src='gifs/BlackGender4a.gif' style='height:400px;''></img>",NA,"html-keyboard-response",255,993451,"0.0-17.0-1.11",84940,"ListB","woman","chinese","SW_C_F_B11",NA,NA,NA,"null",NA,NA,NA,NA,NA,NA
"null","正在走向",NA,"html-keyboard-response",256,996459,"0.0-17.0-2.11",84940,"ListB","woman","chinese","SW_C_F_B11",NA,NA,NA,"null",NA,NA,NA,NA,NA,NA
"3548.300000011921",NA,NA,"survey-text",257,1000011,"0.0-17.0-3.11",84940,"ListB","woman","chinese","SW_C_F_B11",NA,NA,NA,NA,"{""Q0"":""麦克正在走向凯特""}","<img src='gifs/BlackGender4a.gif' style='height:400px;''></img>","走向","正在走向","chinese",NA
"null","<div style=""font-size:60px;"">+</div>",NA,"html-keyboard-response",258,1000523,"0.0-17.0-0.12",84940,"ListB","woman","chinese","SW_C_F_B11",NA,NA,NA,"null",NA,NA,NA,NA,NA,NA
"null","<img src='gifs/ChineseGender2a.gif' style='height:400px;''></img>",NA,"html-keyboard-response",259,1002528,"0.0-17.0-1.12",84940,"ListB","woman","chinese","SW_C_F_B11",NA,NA,NA,"null",NA,NA,NA,NA,NA,NA
"null","正在走向",NA,"html-keyboard-response",260,1005537,"0.0-17.0-2.12",84940,"ListB","woman","chinese","SW_C_F_B11",NA,NA,NA,"null",NA,NA,NA,NA,NA,NA
"58721.90000003576",NA,NA,"survey-text",261,1064260,"0.0-17.0-3.12",84940,"ListB","woman","chinese","SW_C_F_B11",NA,NA,NA,NA,"{""Q0"":""露丝正在走向卢克""}","<img src='gifs/ChineseGender2a.gif' style='height:400px;''></img>","走向","正在走向","chinese",NA
"null","<div style=""font-size:60px;"">+</div>",NA,"html-keyboard-response",262,1064766,"0.0-17.0-0.13",84940,"ListB","woman","chinese","SW_C_F_B11",NA,NA,NA,"null",NA,NA,NA,NA,NA,NA
"null","<img src='gifs/FemaleRace3b.gif' style='height:400px;''></img>",NA,"html-keyboard-response",263,1066772,"0.0-17.0-1.13",84940,"ListB","woman","chinese","SW_C_F_B11",NA,NA,NA,"null",NA,NA,NA,NA,NA,NA
"null","正在提到",NA,"html-keyboard-response",264,1069779,"0.0-17.0-2.13",84940,"ListB","woman","chinese","SW_C_F_B11",NA,NA,NA,"null",NA,NA,NA,NA,NA,NA
"4646",NA,NA,"survey-text",265,1074429,"0.0-17.0-3.13",84940,"ListB","woman","chinese","SW_C_F_B11",NA,NA,NA,NA,"{""Q0"":""贝斯正在提到露丝""}","<img src='gifs/FemaleRace3b.gif' style='height:400px;''></img>","提到","正在提到","chinese",NA
"null","<div style=""font-size:60px;"">+</div>",NA,"html-keyboard-response",266,1074932,"0.0-17.0-0.14",84940,"ListB","woman","chinese","SW_C_F_B11",NA,NA,NA,"null",NA,NA,NA,NA,NA,NA
"null","<img src='gifs/FemaleRace4b.gif' style='height:400px;''></img>",NA,"html-keyboard-response",267,1076937,"0.0-17.0-1.14",84940,"ListB","woman","chinese","SW_C_F_B11",NA,NA,NA,"null",NA,NA,NA,NA,NA,NA
"null","正在表扬",NA,"html-keyboard-response",268,1079942,"0.0-17.0-2.14",84940,"ListB","woman","chinese","SW_C_F_B11",NA,NA,NA,"null",NA,NA,NA,NA,NA,NA
"72199.79999995232",NA,NA,"survey-text",269,1152144,"0.0-17.0-3.14",84940,"ListB","woman","chinese","SW_C_F_B11",NA,NA,NA,NA,"{""Q0"":""凯特正在表扬露丝""}","<img src='gifs/FemaleRace4b.gif' style='height:400px;''></img>","表扬","正在表扬","chinese",NA
"null","<div style=""font-size:60px;"">+</div>",NA,"html-keyboard-response",270,1152647,"0.0-17.0-0.15",84940,"ListB","woman","chinese","SW_C_F_B11",NA,NA,NA,"null",NA,NA,NA,NA,NA,NA
"null","<img src='gifs/FemaleRace4a.gif' style='height:400px;''></img>",NA,"html-keyboard-response",271,1154653,"0.0-17.0-1.15",84940,"ListB","woman","chinese","SW_C_F_B11",NA,NA,NA,"null",NA,NA,NA,NA,NA,NA
"null","正在联系",NA,"html-keyboard-response",272,1157662,"0.0-17.0-2.15",84940,"ListB","woman","chinese","SW_C_F_B11",NA,NA,NA,"null",NA,NA,NA,NA,NA,NA
"5190.600000023842",NA,NA,"survey-text",273,1162857,"0.0-17.0-3.15",84940,"ListB","woman","chinese","SW_C_F_B11",NA,NA,NA,NA,"{""Q0"":""露丝正在联系凯特""}","<img src='gifs/FemaleRace4a.gif' style='height:400px;''></img>","联系","正在联系","chinese",NA
"null","<div style=""font-size:60px;"">+</div>",NA,"html-keyboard-response",274,1163368,"0.0-17.0-0.16",84940,"ListB","woman","chinese","SW_C_F_B11",NA,NA,NA,"null",NA,NA,NA,NA,NA,NA
"null","<img src='gifs/MaleRace4b.gif' style='height:400px;''></img>",NA,"html-keyboard-response",275,1165373,"0.0-17.0-1.16",84940,"ListB","woman","chinese","SW_C_F_B11",NA,NA,NA,"null",NA,NA,NA,NA,NA,NA
"null","正在加入",NA,"html-keyboard-response",276,1168381,"0.0-17.0-2.16",84940,"ListB","woman","chinese","SW_C_F_B11",NA,NA,NA,"null",NA,NA,NA,NA,NA,NA
"4306.300000011921",NA,NA,"survey-text",277,1172692,"0.0-17.0-3.16",84940,"ListB","woman","chinese","SW_C_F_B11",NA,NA,NA,NA,"{""Q0"":""戴夫正在加入麦克""}","<img src='gifs/MaleRace4b.gif' style='height:400px;''></img>","加入","正在加入","chinese",NA
"null","<div style=""font-size:60px;"">+</div>",NA,"html-keyboard-response",278,1173203,"0.0-17.0-0.17",84940,"ListB","woman","chinese","SW_C_F_B11",NA,NA,NA,"null",NA,NA,NA,NA,NA,NA
"null","<img src='gifs/ChineseGender1b.gif' style='height:400px;''></img>",NA,"html-keyboard-response",279,1175208,"0.0-17.0-1.17",84940,"ListB","woman","chinese","SW_C_F_B11",NA,NA,NA,"null",NA,NA,NA,NA,NA,NA
"null","正在陪伴",NA,"html-keyboard-response",280,1178215,"0.0-17.0-2.17",84940,"ListB","woman","chinese","SW_C_F_B11",NA,NA,NA,"null",NA,NA,NA,NA,NA,NA
"78890.69999998808",NA,NA,"survey-text",281,1257112,"0.0-17.0-3.17",84940,"ListB","woman","chinese","SW_C_F_B11",NA,NA,NA,NA,"{""Q0"":""卢克正在陪伴霍普""}","<img src='gifs/ChineseGender1b.gif' style='height:400px;''></img>","陪伴","正在陪伴","chinese",NA
"2893.900000035763","<p>Thank you for completing that task.</p><p>The final part of this session is a short questionnaire.</p><p>Press Continue.</p>",0,"html-button-response",282,1260009,"0.0-18.0",84940,"ListB","woman","chinese","SW_C_F_B11",NA,NA,NA,NA,NA,NA,NA,NA,NA,NA
"162702.89999997616",NA,NA,"survey-text",283,1423715,"0.0-19.0",84940,"ListB","woman","chinese","SW_C_F_B11",NA,NA,NA,NA,"{""Q0"":""24"",""Q1"":""Chinese"",""Q2"":""English"",""Q3"":""Edinburgh"",""Q4"":""China"",""Q5"":""Han"",""Q6"":""woman""}",NA,NA,NA,NA,"demographics"
"3940.900000035763","<p>Have you lived in the UK for the last 5 years or more?</p>",1,"html-button-response",284,1427659,"0.0-20.0",84940,"ListB","woman","chinese","SW_C_F_B11",NA,NA,NA,NA,NA,NA,NA,NA,NA,"fiveyears"
"4557.399999976158",NA,NA,"external-html",285,1434491,"0.0-21.0",84940,"ListB","woman","chinese","SW_C_F_B11","debrief.html",NA,NA,NA,NA,NA,NA,NA,NA,NA
"16813",NA,NA,"survey-text",286,1451308,"0.0-22.0",84940,"ListB","woman","chinese","SW_C_F_B11",NA,NA,NA,NA,"{""ptpt_id"":""SW_C_F_B11""}",NA,NA,NA,NA,"worker_id"
