"rt","stimulus","button_pressed","trial_type","trial_index","time_elapsed","internal_node_id","subject","list","ppt_gender","ppt_language","ptptID","url","first_guess","correct","key_press","responses","image","verb","phrase","condition","test_part"
"8797","Welcome to the experiment. Press Continue to begin.",0,"html-button-response",0,8800,"0.0-0.0",89710,"ListA","man","chinese","SW_C_M_A4",NA,NA,NA,NA,NA,NA,NA,NA,NA,NA
"6583",NA,NA,"external-html",1,17132,"0.0-1.0",89710,"ListA","man","chinese","SW_C_M_A4","consent.html",NA,NA,NA,NA,NA,NA,NA,NA,NA
"1158.9999999999964","<p>在下一页中，您将看到8个人物肖像和他们各自的名字。</p><p>请花费几分钟的时间记住这些人物及其所对应的名字。</p><p>之后的实验中需要您对人物的名字做出回忆，</p><p>因此在实验开始前请确保您已 经完全记住这些人物及其所对应的名字。</p><p><strong>然后您将完成一个测试以检验您对人物和名字的记忆。</strong></p><p>完成此记忆测试后，您将正式进入实验。</p><p>准备好了吗？</p>",0,"html-button-response",2,18294,"0.0-2.0",89710,"ListA","man","chinese","SW_C_M_A4",NA,NA,NA,NA,NA,NA,NA,NA,NA,NA
"18726","<img src='img/portrait_matrix_listA_chinese.jpg' style='width:900px;height:500px;''></img><p>如果您已经记住了所有的人物和名字，请点击继续。</p><p><strong>请注意：您对先前记忆的面孔将在本实验中被测试5次。</strong></p>",0,"html-button-response",3,38036,"0.0-3.0-0.0",89710,"ListA","man","chinese","SW_C_M_A4",NA,NA,NA,NA,NA,NA,NA,NA,NA,NA
"2955.9999999999927","<img src=""portrait/BM1.jpg""style=""height:400px;""></img>",4,"html-button-response",4,42007,"0.0-3.0-1.0",89710,"ListA","man","chinese","SW_C_M_A4",NA,"true",4,NA,NA,NA,NA,NA,NA,NA
"null","正确",NA,"html-keyboard-response",5,43512,"0.0-3.0-2.0-0.0",89710,"ListA","man","chinese","SW_C_M_A4",NA,NA,NA,"null",NA,NA,NA,NA,NA,NA
"2713.0000000000073","<img src=""portrait/WW1.jpg""style=""height:400px;""></img>",1,"html-button-response",6,46237,"0.0-3.0-4.0",89710,"ListA","man","chinese","SW_C_M_A4",NA,"true",1,NA,NA,NA,NA,NA,NA,NA
"null","正确",NA,"html-keyboard-response",7,47745,"0.0-3.0-5.0-0.0",89710,"ListA","man","chinese","SW_C_M_A4",NA,NA,NA,"null",NA,NA,NA,NA,NA,NA
"3486","<img src=""portrait/BW2.jpg""style=""height:400px;""></img>",2,"html-button-response",8,51243,"0.0-3.0-7.0",89710,"ListA","man","chinese","SW_C_M_A4",NA,"true",2,NA,NA,NA,NA,NA,NA,NA
"null","正确",NA,"html-keyboard-response",9,52746,"0.0-3.0-8.0-0.0",89710,"ListA","man","chinese","SW_C_M_A4",NA,NA,NA,"null",NA,NA,NA,NA,NA,NA
"4409.000000000015","<img src=""portrait/BW1.jpg""style=""height:400px;""></img>",0,"html-button-response",10,57162,"0.0-3.0-10.0",89710,"ListA","man","chinese","SW_C_M_A4",NA,"true",0,NA,NA,NA,NA,NA,NA,NA
"null","正确",NA,"html-keyboard-response",11,58667,"0.0-3.0-11.0-0.0",89710,"ListA","man","chinese","SW_C_M_A4",NA,NA,NA,"null",NA,NA,NA,NA,NA,NA
"3836","<img src=""portrait/BM2.jpg""style=""height:400px;""></img>",5,"html-button-response",12,62517,"0.0-3.0-13.0",89710,"ListA","man","chinese","SW_C_M_A4",NA,"true",5,NA,NA,NA,NA,NA,NA,NA
"null","正确",NA,"html-keyboard-response",13,64021,"0.0-3.0-14.0-0.0",89710,"ListA","man","chinese","SW_C_M_A4",NA,NA,NA,"null",NA,NA,NA,NA,NA,NA
"12940.999999999985","<img src=""portrait/WM1.jpg""style=""height:400px;""></img>",6,"html-button-response",14,76974,"0.0-3.0-16.0",89710,"ListA","man","chinese","SW_C_M_A4",NA,"true",6,NA,NA,NA,NA,NA,NA,NA
"null","正确",NA,"html-keyboard-response",15,78478,"0.0-3.0-17.0-0.0",89710,"ListA","man","chinese","SW_C_M_A4",NA,NA,NA,"null",NA,NA,NA,NA,NA,NA
"12222","<img src=""portrait/WM2.jpg""style=""height:400px;""></img>",7,"html-button-response",16,90707,"0.0-3.0-19.0",89710,"ListA","man","chinese","SW_C_M_A4",NA,"true",7,NA,NA,NA,NA,NA,NA,NA
"null","正确",NA,"html-keyboard-response",17,92212,"0.0-3.0-20.0-0.0",89710,"ListA","man","chinese","SW_C_M_A4",NA,NA,NA,"null",NA,NA,NA,NA,NA,NA
"2803","<img src=""portrait/WW2.jpg""style=""height:400px;""></img>",3,"html-button-response",18,95030,"0.0-3.0-22.0",89710,"ListA","man","chinese","SW_C_M_A4",NA,"true",3,NA,NA,NA,NA,NA,NA,NA
"null","正确",NA,"html-keyboard-response",19,96534,"0.0-3.0-23.0-0.0",89710,"ListA","man","chinese","SW_C_M_A4",NA,NA,NA,"null",NA,NA,NA,NA,NA,NA
"933","<p>您第一次在8题里答对了 8 题。 请点击继续</p>",0,"html-button-response",20,97472,"0.0-3.0-25.0",89710,"ListA","man","chinese","SW_C_M_A4",NA,NA,NA,NA,NA,NA,NA,NA,NA,NA
"1658.0000000000146","<p>此次实验您将会看到先前记忆任务里的人物照片。</p><p>人物照片消失后您将看到一个动词短语，请正确回忆人物的名字并用特定的 动词短语组成一句完整的句子。</p><p>请在指定的框内输入您的答案。在进入下一题之前请确保您填写了完整的句子。</p><p>人物照片和动词短语只会在屏幕上出现几秒钟，因此请您答题时尽量集中注意力。</p><p>以下是例子。请您在准备好后按下“继续”。</p><img src='img/chinese_speaking_example.jpg' style='width:800px;height:460px;''></img>",0,"html-button-response",21,100145,"0.0-4.0",89710,"ListA","man","chinese","SW_C_M_A4",NA,NA,NA,NA,NA,NA,NA,NA,NA,NA
"700","<p>在实验开始前，将为您展示两个示例实验。</p>",0,"html-button-response",22,101846,"0.0-5.0",89710,"ListA","man","chinese","SW_C_M_A4",NA,NA,NA,NA,NA,NA,NA,NA,NA,NA
"null","<img src='img/meet.gif' style='height:400px;''></img>",NA,"html-keyboard-response",23,104860,"0.0-6.0",89710,"ListA","man","chinese","SW_C_M_A4",NA,NA,NA,"null",NA,NA,NA,NA,NA,NA
"null","<p>正在约见</p>",NA,"html-keyboard-response",24,106863,"0.0-7.0",89710,"ListA","man","chinese","SW_C_M_A4",NA,NA,NA,"null",NA,NA,NA,NA,NA,NA
"3183.0000000000146","<p><b>答案:</b> 凯特正在约见贝斯</p>",0,"html-button-response",25,110047,"0.0-8.0",89710,"ListA","man","chinese","SW_C_M_A4",NA,NA,NA,NA,NA,NA,NA,NA,NA,NA
"null","<img src='img/spy.gif' style='height:400px;''></img>",NA,"html-keyboard-response",26,113057,"0.0-9.0",89710,"ListA","man","chinese","SW_C_M_A4",NA,NA,NA,"null",NA,NA,NA,NA,NA,NA
"null","<p>正在监视</p>",NA,"html-keyboard-response",27,115060,"0.0-10.0",89710,"ListA","man","chinese","SW_C_M_A4",NA,NA,NA,"null",NA,NA,NA,NA,NA,NA
"476","<p><b>答案:</b> 卢克正在监视戴夫</p>",0,"html-button-response",28,115537,"0.0-11.0",89710,"ListA","man","chinese","SW_C_M_A4",NA,NA,NA,NA,NA,NA,NA,NA,NA,NA
"4624","<p>准备好开始了吗？</p><br><p><strong>请记住，您的答案需是一句完整的句子</strong></p><p><strong>，并用给到的图片人物和动词短语作答。</strong></p><p><strong>只有正确并完整完成实验才可获得报酬。</strong></p><p><strong> 您不需要加入任何标点符号。</strong></p><br><p>请按 ‘继续’ 键开始。</p>",0,"html-button-response",29,121163,"0.0-12.0",89710,"ListA","man","chinese","SW_C_M_A4",NA,NA,NA,NA,NA,NA,NA,NA,NA,NA
"null","<div style=""font-size:60px;"">+</div>",NA,"html-keyboard-response",30,122667,"0.0-13.0-0.0",89710,"ListA","man","chinese","SW_C_M_A4",NA,NA,NA,"null",NA,NA,NA,NA,NA,NA
"null","<img src='gifs/BlackGender4a.gif' style='height:400px;''></img>",NA,"html-keyboard-response",31,124674,"0.0-13.0-1.0",89710,"ListA","man","chinese","SW_C_M_A4",NA,NA,NA,"null",NA,NA,NA,NA,NA,NA
"null","正在接近",NA,"html-keyboard-response",32,127676,"0.0-13.0-2.0",89710,"ListA","man","chinese","SW_C_M_A4",NA,NA,NA,"null",NA,NA,NA,NA,NA,NA
"8328",NA,NA,"survey-text",33,136023,"0.0-13.0-3.0",89710,"ListA","man","chinese","SW_C_M_A4",NA,NA,NA,NA,"{""Q0"":""戴夫正在约见露丝""}","<img src='gifs/BlackGender4a.gif' style='height:400px;''></img>","接近","正在接近","chinese",NA
"null","<div style=""font-size:60px;"">+</div>",NA,"html-keyboard-response",34,136526,"0.0-13.0-0.1",89710,"ListA","man","chinese","SW_C_M_A4",NA,NA,NA,"null",NA,NA,NA,NA,NA,NA
"null","<img src='gifs/MaleRace3b.gif' style='height:400px;''></img>",NA,"html-keyboard-response",35,138538,"0.0-13.0-1.1",89710,"ListA","man","chinese","SW_C_M_A4",NA,NA,NA,"null",NA,NA,NA,NA,NA,NA
"null","正在表扬",NA,"html-keyboard-response",36,141540,"0.0-13.0-2.1",89710,"ListA","man","chinese","SW_C_M_A4",NA,NA,NA,"null",NA,NA,NA,NA,NA,NA
"10368",NA,NA,"survey-text",37,151912,"0.0-13.0-3.1",89710,"ListA","man","chinese","SW_C_M_A4",NA,NA,NA,NA,"{""Q0"":""麦克正在表扬卢克""}","<img src='gifs/MaleRace3b.gif' style='height:400px;''></img>","表扬","正在表扬","chinese",NA
"null","<div style=""font-size:60px;"">+</div>",NA,"html-keyboard-response",38,152413,"0.0-13.0-0.2",89710,"ListA","man","chinese","SW_C_M_A4",NA,NA,NA,"null",NA,NA,NA,NA,NA,NA
"null","<img src='gifs/MaleRace2a.gif' style='height:400px;''></img>",NA,"html-keyboard-response",39,154426,"0.0-13.0-1.2",89710,"ListA","man","chinese","SW_C_M_A4",NA,NA,NA,"null",NA,NA,NA,NA,NA,NA
"null","正在看着",NA,"html-keyboard-response",40,157429,"0.0-13.0-2.2",89710,"ListA","man","chinese","SW_C_M_A4",NA,NA,NA,"null",NA,NA,NA,NA,NA,NA
"6496",NA,NA,"survey-text",41,163936,"0.0-13.0-3.2",89710,"ListA","man","chinese","SW_C_M_A4",NA,NA,NA,NA,"{""Q0"":""弗雷正在看着戴夫""}","<img src='gifs/MaleRace2a.gif' style='height:400px;''></img>","看着","正在看着","chinese",NA
"null","<div style=""font-size:60px;"">+</div>",NA,"html-keyboard-response",42,164438,"0.0-13.0-0.3",89710,"ListA","man","chinese","SW_C_M_A4",NA,NA,NA,"null",NA,NA,NA,NA,NA,NA
"null","<img src='gifs/ChineseGender4a.gif' style='height:400px;''></img>",NA,"html-keyboard-response",43,166453,"0.0-13.0-1.3",89710,"ListA","man","chinese","SW_C_M_A4",NA,NA,NA,"null",NA,NA,NA,NA,NA,NA
"null","正在聆听",NA,"html-keyboard-response",44,169455,"0.0-13.0-2.3",89710,"ListA","man","chinese","SW_C_M_A4",NA,NA,NA,"null",NA,NA,NA,NA,NA,NA
"4788",NA,NA,"survey-text",45,174252,"0.0-13.0-3.3",89710,"ListA","man","chinese","SW_C_M_A4",NA,NA,NA,NA,"{""Q0"":""麦克正在聆听凯特""}","<img src='gifs/ChineseGender4a.gif' style='height:400px;''></img>","聆听","正在聆听","chinese",NA
"null","<div style=""font-size:60px;"">+</div>",NA,"html-keyboard-response",46,174754,"0.0-13.0-0.4",89710,"ListA","man","chinese","SW_C_M_A4",NA,NA,NA,"null",NA,NA,NA,NA,NA,NA
"null","<img src='gifs/ChineseGender2a.gif' style='height:400px;''></img>",NA,"html-keyboard-response",47,176767,"0.0-13.0-1.4",89710,"ListA","man","chinese","SW_C_M_A4",NA,NA,NA,"null",NA,NA,NA,NA,NA,NA
"null","正在联系",NA,"html-keyboard-response",48,179770,"0.0-13.0-2.4",89710,"ListA","man","chinese","SW_C_M_A4",NA,NA,NA,"null",NA,NA,NA,NA,NA,NA
"11515.99999999997",NA,NA,"survey-text",49,191295,"0.0-13.0-3.4",89710,"ListA","man","chinese","SW_C_M_A4",NA,NA,NA,NA,"{""Q0"":""弗雷正在联系贝斯""}","<img src='gifs/ChineseGender2a.gif' style='height:400px;''></img>","联系","正在联系","chinese",NA
"null","<div style=""font-size:60px;"">+</div>",NA,"html-keyboard-response",50,191797,"0.0-13.0-0.5",89710,"ListA","man","chinese","SW_C_M_A4",NA,NA,NA,"null",NA,NA,NA,NA,NA,NA
"null","<img src='gifs/BlackGender1b.gif' style='height:400px;''></img>",NA,"html-keyboard-response",51,193810,"0.0-13.0-1.5",89710,"ListA","man","chinese","SW_C_M_A4",NA,NA,NA,"null",NA,NA,NA,NA,NA,NA
"null","正在提到",NA,"html-keyboard-response",52,196813,"0.0-13.0-2.5",89710,"ListA","man","chinese","SW_C_M_A4",NA,NA,NA,"null",NA,NA,NA,NA,NA,NA
"6105.000000000029",NA,NA,"survey-text",53,202928,"0.0-13.0-3.5",89710,"ListA","man","chinese","SW_C_M_A4",NA,NA,NA,NA,"{""Q0"":""卢克正在提到露丝""}","<img src='gifs/BlackGender1b.gif' style='height:400px;''></img>","提到","正在提到","chinese",NA
"null","<div style=""font-size:60px;"">+</div>",NA,"html-keyboard-response",54,203430,"0.0-13.0-0.6",89710,"ListA","man","chinese","SW_C_M_A4",NA,NA,NA,"null",NA,NA,NA,NA,NA,NA
"null","<img src='gifs/BlackGender4b.gif' style='height:400px;''></img>",NA,"html-keyboard-response",55,205444,"0.0-13.0-1.6",89710,"ListA","man","chinese","SW_C_M_A4",NA,NA,NA,"null",NA,NA,NA,NA,NA,NA
"null","正在陪伴",NA,"html-keyboard-response",56,208446,"0.0-13.0-2.6",89710,"ListA","man","chinese","SW_C_M_A4",NA,NA,NA,"null",NA,NA,NA,NA,NA,NA
"12369",NA,NA,"survey-text",57,220825,"0.0-13.0-3.6",89710,"ListA","man","chinese","SW_C_M_A4",NA,NA,NA,NA,"{""Q0"":""戴夫正在陪伴霍普""}","<img src='gifs/BlackGender4b.gif' style='height:400px;''></img>","陪伴","正在陪伴","chinese",NA
"null","<div style=""font-size:60px;"">+</div>",NA,"html-keyboard-response",58,221327,"0.0-13.0-0.7",89710,"ListA","man","chinese","SW_C_M_A4",NA,NA,NA,"null",NA,NA,NA,NA,NA,NA
"null","<img src='gifs/FemaleRace2b.gif' style='height:400px;''></img>",NA,"html-keyboard-response",59,223339,"0.0-13.0-1.7",89710,"ListA","man","chinese","SW_C_M_A4",NA,NA,NA,"null",NA,NA,NA,NA,NA,NA
"null","正在聘用",NA,"html-keyboard-response",60,226344,"0.0-13.0-2.7",89710,"ListA","man","chinese","SW_C_M_A4",NA,NA,NA,"null",NA,NA,NA,NA,NA,NA
"5636",NA,NA,"survey-text",61,231988,"0.0-13.0-3.7",89710,"ListA","man","chinese","SW_C_M_A4",NA,NA,NA,NA,"{""Q0"":""凯特正在聘用霍普""}","<img src='gifs/FemaleRace2b.gif' style='height:400px;''></img>","聘用","正在聘用","chinese",NA
"null","<div style=""font-size:60px;"">+</div>",NA,"html-keyboard-response",62,232490,"0.0-13.0-0.8",89710,"ListA","man","chinese","SW_C_M_A4",NA,NA,NA,"null",NA,NA,NA,NA,NA,NA
"null","<img src='gifs/MaleRace2b.gif' style='height:400px;''></img>",NA,"html-keyboard-response",63,234503,"0.0-13.0-1.8",89710,"ListA","man","chinese","SW_C_M_A4",NA,NA,NA,"null",NA,NA,NA,NA,NA,NA
"null","正在陪伴",NA,"html-keyboard-response",64,237506,"0.0-13.0-2.8",89710,"ListA","man","chinese","SW_C_M_A4",NA,NA,NA,"null",NA,NA,NA,NA,NA,NA
"10681.00000000003",NA,NA,"survey-text",65,248197,"0.0-13.0-3.8",89710,"ListA","man","chinese","SW_C_M_A4",NA,NA,NA,NA,"{""Q0"":""麦克正在陪伴戴夫""}","<img src='gifs/MaleRace2b.gif' style='height:400px;''></img>","陪伴","正在陪伴","chinese",NA
"null","<div style=""font-size:60px;"">+</div>",NA,"html-keyboard-response",66,248699,"0.0-13.0-0.9",89710,"ListA","man","chinese","SW_C_M_A4",NA,NA,NA,"null",NA,NA,NA,NA,NA,NA
"null","<img src='gifs/MaleRace1b.gif' style='height:400px;''></img>",NA,"html-keyboard-response",67,250713,"0.0-13.0-1.9",89710,"ListA","man","chinese","SW_C_M_A4",NA,NA,NA,"null",NA,NA,NA,NA,NA,NA
"null","正在触摸",NA,"html-keyboard-response",68,253715,"0.0-13.0-2.9",89710,"ListA","man","chinese","SW_C_M_A4",NA,NA,NA,"null",NA,NA,NA,NA,NA,NA
"4588.000000000058",NA,NA,"survey-text",69,258311,"0.0-13.0-3.9",89710,"ListA","man","chinese","SW_C_M_A4",NA,NA,NA,NA,"{""Q0"":""弗雷正在触摸卢克""}","<img src='gifs/MaleRace1b.gif' style='height:400px;''></img>","触摸","正在触摸","chinese",NA
"null","<div style=""font-size:60px;"">+</div>",NA,"html-keyboard-response",70,258813,"0.0-13.0-0.10",89710,"ListA","man","chinese","SW_C_M_A4",NA,NA,NA,"null",NA,NA,NA,NA,NA,NA
"null","<img src='gifs/MaleRace4a.gif' style='height:400px;''></img>",NA,"html-keyboard-response",71,260828,"0.0-13.0-1.10",89710,"ListA","man","chinese","SW_C_M_A4",NA,NA,NA,"null",NA,NA,NA,NA,NA,NA
"null","正在面向",NA,"html-keyboard-response",72,263830,"0.0-13.0-2.10",89710,"ListA","man","chinese","SW_C_M_A4",NA,NA,NA,"null",NA,NA,NA,NA,NA,NA
"5156",NA,NA,"survey-text",73,268997,"0.0-13.0-3.10",89710,"ListA","man","chinese","SW_C_M_A4",NA,NA,NA,NA,"{""Q0"":""麦克正在面向戴夫""}","<img src='gifs/MaleRace4a.gif' style='height:400px;''></img>","面向","正在面向","chinese",NA
"null","<div style=""font-size:60px;"">+</div>",NA,"html-keyboard-response",74,269500,"0.0-13.0-0.11",89710,"ListA","man","chinese","SW_C_M_A4",NA,NA,NA,"null",NA,NA,NA,NA,NA,NA
"null","<img src='gifs/ChineseGender1a.gif' style='height:400px;''></img>",NA,"html-keyboard-response",75,271514,"0.0-13.0-1.11",89710,"ListA","man","chinese","SW_C_M_A4",NA,NA,NA,"null",NA,NA,NA,NA,NA,NA
"null","正在走向",NA,"html-keyboard-response",76,274517,"0.0-13.0-2.11",89710,"ListA","man","chinese","SW_C_M_A4",NA,NA,NA,"null",NA,NA,NA,NA,NA,NA
"5752",NA,NA,"survey-text",77,280280,"0.0-13.0-3.11",89710,"ListA","man","chinese","SW_C_M_A4",NA,NA,NA,NA,"{""Q0"":""麦克正在走向凯特""}","<img src='gifs/ChineseGender1a.gif' style='height:400px;''></img>","走向","正在走向","chinese",NA
"null","<div style=""font-size:60px;"">+</div>",NA,"html-keyboard-response",78,280781,"0.0-13.0-0.12",89710,"ListA","man","chinese","SW_C_M_A4",NA,NA,NA,"null",NA,NA,NA,NA,NA,NA
"null","<img src='gifs/FemaleRace2b.gif' style='height:400px;''></img>",NA,"html-keyboard-response",79,282795,"0.0-13.0-1.12",89710,"ListA","man","chinese","SW_C_M_A4",NA,NA,NA,"null",NA,NA,NA,NA,NA,NA
"null","正在介绍",NA,"html-keyboard-response",80,285796,"0.0-13.0-2.12",89710,"ListA","man","chinese","SW_C_M_A4",NA,NA,NA,"null",NA,NA,NA,NA,NA,NA
"5817",NA,NA,"survey-text",81,291624,"0.0-13.0-3.12",89710,"ListA","man","chinese","SW_C_M_A4",NA,NA,NA,NA,"{""Q0"":""凯特正在介绍霍普""}","<img src='gifs/FemaleRace2b.gif' style='height:400px;''></img>","介绍","正在介绍","chinese",NA
"null","<div style=""font-size:60px;"">+</div>",NA,"html-keyboard-response",82,292127,"0.0-13.0-0.13",89710,"ListA","man","chinese","SW_C_M_A4",NA,NA,NA,"null",NA,NA,NA,NA,NA,NA
"null","<img src='gifs/MaleRace4b.gif' style='height:400px;''></img>",NA,"html-keyboard-response",83,294139,"0.0-13.0-1.13",89710,"ListA","man","chinese","SW_C_M_A4",NA,NA,NA,"null",NA,NA,NA,NA,NA,NA
"null","正在触摸",NA,"html-keyboard-response",84,297142,"0.0-13.0-2.13",89710,"ListA","man","chinese","SW_C_M_A4",NA,NA,NA,"null",NA,NA,NA,NA,NA,NA
"4695",NA,NA,"survey-text",85,301848,"0.0-13.0-3.13",89710,"ListA","man","chinese","SW_C_M_A4",NA,NA,NA,NA,"{""Q0"":""麦克正在触摸戴夫""}","<img src='gifs/MaleRace4b.gif' style='height:400px;''></img>","触摸","正在触摸","chinese",NA
"null","<div style=""font-size:60px;"">+</div>",NA,"html-keyboard-response",86,302349,"0.0-13.0-0.14",89710,"ListA","man","chinese","SW_C_M_A4",NA,NA,NA,"null",NA,NA,NA,NA,NA,NA
"null","<img src='gifs/ChineseGender3a.gif' style='height:400px;''></img>",NA,"html-keyboard-response",87,304363,"0.0-13.0-1.14",89710,"ListA","man","chinese","SW_C_M_A4",NA,NA,NA,"null",NA,NA,NA,NA,NA,NA
"null","正在说服",NA,"html-keyboard-response",88,307365,"0.0-13.0-2.14",89710,"ListA","man","chinese","SW_C_M_A4",NA,NA,NA,"null",NA,NA,NA,NA,NA,NA
"4384",NA,NA,"survey-text",89,311758,"0.0-13.0-3.14",89710,"ListA","man","chinese","SW_C_M_A4",NA,NA,NA,NA,"{""Q0"":""麦克正在说服贝斯""}","<img src='gifs/ChineseGender3a.gif' style='height:400px;''></img>","说服","正在说服","chinese",NA
"null","<div style=""font-size:60px;"">+</div>",NA,"html-keyboard-response",90,312260,"0.0-13.0-0.15",89710,"ListA","man","chinese","SW_C_M_A4",NA,NA,NA,"null",NA,NA,NA,NA,NA,NA
"null","<img src='gifs/FemaleRace4a.gif' style='height:400px;''></img>",NA,"html-keyboard-response",91,314273,"0.0-13.0-1.15",89710,"ListA","man","chinese","SW_C_M_A4",NA,NA,NA,"null",NA,NA,NA,NA,NA,NA
"null","正在聘用",NA,"html-keyboard-response",92,317276,"0.0-13.0-2.15",89710,"ListA","man","chinese","SW_C_M_A4",NA,NA,NA,"null",NA,NA,NA,NA,NA,NA
"4363",NA,NA,"survey-text",93,321646,"0.0-13.0-3.15",89710,"ListA","man","chinese","SW_C_M_A4",NA,NA,NA,NA,"{""Q0"":""贝斯正在聘用霍普""}","<img src='gifs/FemaleRace4a.gif' style='height:400px;''></img>","聘用","正在聘用","chinese",NA
"null","<div style=""font-size:60px;"">+</div>",NA,"html-keyboard-response",94,322149,"0.0-13.0-0.16",89710,"ListA","man","chinese","SW_C_M_A4",NA,NA,NA,"null",NA,NA,NA,NA,NA,NA
"null","<img src='gifs/ChineseGender3b.gif' style='height:400px;''></img>",NA,"html-keyboard-response",95,324163,"0.0-13.0-1.16",89710,"ListA","man","chinese","SW_C_M_A4",NA,NA,NA,"null",NA,NA,NA,NA,NA,NA
"null","正在看着",NA,"html-keyboard-response",96,327165,"0.0-13.0-2.16",89710,"ListA","man","chinese","SW_C_M_A4",NA,NA,NA,"null",NA,NA,NA,NA,NA,NA
"4902",NA,NA,"survey-text",97,332076,"0.0-13.0-3.16",89710,"ListA","man","chinese","SW_C_M_A4",NA,NA,NA,NA,"{""Q0"":""麦克正在看着贝斯""}","<img src='gifs/ChineseGender3b.gif' style='height:400px;''></img>","看着","正在看着","chinese",NA
"null","<div style=""font-size:60px;"">+</div>",NA,"html-keyboard-response",98,332577,"0.0-13.0-0.17",89710,"ListA","man","chinese","SW_C_M_A4",NA,NA,NA,"null",NA,NA,NA,NA,NA,NA
"null","<img src='gifs/ChineseGender2b.gif' style='height:400px;''></img>",NA,"html-keyboard-response",99,334588,"0.0-13.0-1.17",89710,"ListA","man","chinese","SW_C_M_A4",NA,NA,NA,"null",NA,NA,NA,NA,NA,NA
"null","正在看着",NA,"html-keyboard-response",100,337590,"0.0-13.0-2.17",89710,"ListA","man","chinese","SW_C_M_A4",NA,NA,NA,"null",NA,NA,NA,NA,NA,NA
"5080",NA,NA,"survey-text",101,342673,"0.0-13.0-3.17",89710,"ListA","man","chinese","SW_C_M_A4",NA,NA,NA,NA,"{""Q0"":""弗雷正在看着贝斯""}","<img src='gifs/ChineseGender2b.gif' style='height:400px;''></img>","看着","正在看着","chinese",NA
"4364.000000000058","<img src='img/portrait_matrix_listA_chinese.jpg' style='width:900px;height:500px;''></img><p>如果您已经记住了所有的人物和名字，请点击继续。</p><p><strong>请注意：您对先前记忆的面孔将在本实验中被测试5次。</strong></p>",0,"html-button-response",102,347049,"0.0-14.0-0.0",89710,"ListA","man","chinese","SW_C_M_A4",NA,NA,NA,NA,NA,NA,NA,NA,NA,NA
"4372","<img src=""portrait/WM1.jpg""style=""height:400px;""></img>",6,"html-button-response",103,352436,"0.0-14.0-1.0",89710,"ListA","man","chinese","SW_C_M_A4",NA,"true",6,NA,NA,NA,NA,NA,NA,NA
"null","正确",NA,"html-keyboard-response",104,353940,"0.0-14.0-2.0-0.0",89710,"ListA","man","chinese","SW_C_M_A4",NA,NA,NA,"null",NA,NA,NA,NA,NA,NA
"2264","<img src=""portrait/BW1.jpg""style=""height:400px;""></img>",4,"html-button-response",105,356217,"0.0-14.0-4.0",89710,"ListA","man","chinese","SW_C_M_A4",NA,"true",0,NA,NA,NA,NA,NA,NA,NA
"7638.000000000058","<img src=""portrait/BW1.jpg""style=""height:400px;""></img>",0,"html-button-response",106,364869,"0.0-14.0-6.0-0.0",89710,"ListA","man","chinese","SW_C_M_A4",NA,"false",0,NA,NA,NA,NA,NA,NA,NA
"null","正确",NA,"html-keyboard-response",107,366373,"0.0-14.0-6.0-1.0-0.0",89710,"ListA","man","chinese","SW_C_M_A4",NA,NA,NA,"null",NA,NA,NA,NA,NA,NA
"3824.999999999942","<img src=""portrait/WM2.jpg""style=""height:400px;""></img>",7,"html-button-response",108,370212,"0.0-14.0-7.0",89710,"ListA","man","chinese","SW_C_M_A4",NA,"true",7,NA,NA,NA,NA,NA,NA,NA
"null","正确",NA,"html-keyboard-response",109,371714,"0.0-14.0-8.0-0.0",89710,"ListA","man","chinese","SW_C_M_A4",NA,NA,NA,"null",NA,NA,NA,NA,NA,NA
"1578","<img src=""portrait/WW2.jpg""style=""height:400px;""></img>",3,"html-button-response",110,373305,"0.0-14.0-10.0",89710,"ListA","man","chinese","SW_C_M_A4",NA,"true",3,NA,NA,NA,NA,NA,NA,NA
"null","正确",NA,"html-keyboard-response",111,374809,"0.0-14.0-11.0-0.0",89710,"ListA","man","chinese","SW_C_M_A4",NA,NA,NA,"null",NA,NA,NA,NA,NA,NA
"2353.999999999942","<img src=""portrait/WW1.jpg""style=""height:400px;""></img>",1,"html-button-response",112,377175,"0.0-14.0-13.0",89710,"ListA","man","chinese","SW_C_M_A4",NA,"true",1,NA,NA,NA,NA,NA,NA,NA
"null","正确",NA,"html-keyboard-response",113,378678,"0.0-14.0-14.0-0.0",89710,"ListA","man","chinese","SW_C_M_A4",NA,NA,NA,"null",NA,NA,NA,NA,NA,NA
"2331.000000000058","<img src=""portrait/BW2.jpg""style=""height:400px;""></img>",2,"html-button-response",114,381024,"0.0-14.0-16.0",89710,"ListA","man","chinese","SW_C_M_A4",NA,"true",2,NA,NA,NA,NA,NA,NA,NA
"null","正确",NA,"html-keyboard-response",115,382527,"0.0-14.0-17.0-0.0",89710,"ListA","man","chinese","SW_C_M_A4",NA,NA,NA,"null",NA,NA,NA,NA,NA,NA
"3950","<img src=""portrait/BM1.jpg""style=""height:400px;""></img>",4,"html-button-response",116,386491,"0.0-14.0-19.0",89710,"ListA","man","chinese","SW_C_M_A4",NA,"true",4,NA,NA,NA,NA,NA,NA,NA
"null","正确",NA,"html-keyboard-response",117,387994,"0.0-14.0-20.0-0.0",89710,"ListA","man","chinese","SW_C_M_A4",NA,NA,NA,"null",NA,NA,NA,NA,NA,NA
"2165","<img src=""portrait/BM2.jpg""style=""height:400px;""></img>",5,"html-button-response",118,390170,"0.0-14.0-22.0",89710,"ListA","man","chinese","SW_C_M_A4",NA,"true",5,NA,NA,NA,NA,NA,NA,NA
"null","正确",NA,"html-keyboard-response",119,391674,"0.0-14.0-23.0-0.0",89710,"ListA","man","chinese","SW_C_M_A4",NA,NA,NA,"null",NA,NA,NA,NA,NA,NA
"1005","<p>您第一次在8题里答对了 7 题。 请点击继续</p>",0,"html-button-response",120,392680,"0.0-14.0-25.0",89710,"ListA","man","chinese","SW_C_M_A4",NA,NA,NA,NA,NA,NA,NA,NA,NA,NA
"1637","因为您没有全部答对，记忆游戏将重新开始。请点击继续。",0,"html-button-response",121,395321,"0.0-14.0-26.0-0.0",89710,"ListA","man","chinese","SW_C_M_A4",NA,NA,NA,NA,NA,NA,NA,NA,NA,NA
"1304","<img src='img/portrait_matrix_listA_chinese.jpg' style='width:900px;height:500px;''></img><p>如果您已经记住了所有的人物和名字，请点击继续。</p><p><strong>请注意：您对先前记忆的面孔将在本实验中被测试5次。</strong></p>",0,"html-button-response",122,397639,"0.0-14.1-0.1",89710,"ListA","man","chinese","SW_C_M_A4",NA,NA,NA,NA,NA,NA,NA,NA,NA,NA
"3924","<img src=""portrait/WM1.jpg""style=""height:400px;""></img>",6,"html-button-response",123,402578,"0.0-14.1-1.1",89710,"ListA","man","chinese","SW_C_M_A4",NA,"true",6,NA,NA,NA,NA,NA,NA,NA
"null","正确",NA,"html-keyboard-response",124,404080,"0.0-14.1-2.1-0.1",89710,"ListA","man","chinese","SW_C_M_A4",NA,NA,NA,"null",NA,NA,NA,NA,NA,NA
"4398","<img src=""portrait/BW1.jpg""style=""height:400px;""></img>",0,"html-button-response",125,408486,"0.0-14.1-4.1",89710,"ListA","man","chinese","SW_C_M_A4",NA,"true",0,NA,NA,NA,NA,NA,NA,NA
"null","正确",NA,"html-keyboard-response",126,409988,"0.0-14.1-5.1-0.1",89710,"ListA","man","chinese","SW_C_M_A4",NA,NA,NA,"null",NA,NA,NA,NA,NA,NA
"2816","<img src=""portrait/WM2.jpg""style=""height:400px;""></img>",7,"html-button-response",127,412816,"0.0-14.1-7.1",89710,"ListA","man","chinese","SW_C_M_A4",NA,"true",7,NA,NA,NA,NA,NA,NA,NA
"null","正确",NA,"html-keyboard-response",128,414318,"0.0-14.1-8.1-0.1",89710,"ListA","man","chinese","SW_C_M_A4",NA,NA,NA,"null",NA,NA,NA,NA,NA,NA
"1207","<img src=""portrait/WW2.jpg""style=""height:400px;""></img>",3,"html-button-response",129,415537,"0.0-14.1-10.1",89710,"ListA","man","chinese","SW_C_M_A4",NA,"true",3,NA,NA,NA,NA,NA,NA,NA
"null","正确",NA,"html-keyboard-response",130,417041,"0.0-14.1-11.1-0.1",89710,"ListA","man","chinese","SW_C_M_A4",NA,NA,NA,"null",NA,NA,NA,NA,NA,NA
"2770","<img src=""portrait/WW1.jpg""style=""height:400px;""></img>",1,"html-button-response",131,419825,"0.0-14.1-13.1",89710,"ListA","man","chinese","SW_C_M_A4",NA,"true",1,NA,NA,NA,NA,NA,NA,NA
"336","正确",NA,"html-keyboard-response",132,421328,"0.0-14.1-14.1-0.1",89710,"ListA","man","chinese","SW_C_M_A4",NA,NA,NA,"91",NA,NA,NA,NA,NA,NA
"2731","<img src=""portrait/BW2.jpg""style=""height:400px;""></img>",2,"html-button-response",133,424065,"0.0-14.1-16.1",89710,"ListA","man","chinese","SW_C_M_A4",NA,"true",2,NA,NA,NA,NA,NA,NA,NA
"null","正确",NA,"html-keyboard-response",134,425569,"0.0-14.1-17.1-0.1",89710,"ListA","man","chinese","SW_C_M_A4",NA,NA,NA,"null",NA,NA,NA,NA,NA,NA
"1948.9999999999418","<img src=""portrait/BM1.jpg""style=""height:400px;""></img>",4,"html-button-response",135,427531,"0.0-14.1-19.1",89710,"ListA","man","chinese","SW_C_M_A4",NA,"true",4,NA,NA,NA,NA,NA,NA,NA
"null","正确",NA,"html-keyboard-response",136,429034,"0.0-14.1-20.1-0.1",89710,"ListA","man","chinese","SW_C_M_A4",NA,NA,NA,"null",NA,NA,NA,NA,NA,NA
"2725.000000000058","<img src=""portrait/BM2.jpg""style=""height:400px;""></img>",5,"html-button-response",137,431772,"0.0-14.1-22.1",89710,"ListA","man","chinese","SW_C_M_A4",NA,"true",5,NA,NA,NA,NA,NA,NA,NA
"null","正确",NA,"html-keyboard-response",138,433275,"0.0-14.1-23.1-0.1",89710,"ListA","man","chinese","SW_C_M_A4",NA,NA,NA,"null",NA,NA,NA,NA,NA,NA
"947.0000000000582","<p>您第一次在8题里答对了 8 题。 请点击继续</p>",0,"html-button-response",139,434224,"0.0-14.1-25.1",89710,"ListA","man","chinese","SW_C_M_A4",NA,NA,NA,NA,NA,NA,NA,NA,NA,NA
"null","<div style=""font-size:60px;"">+</div>",NA,"html-keyboard-response",140,435728,"0.0-15.0-0.0",89710,"ListA","man","chinese","SW_C_M_A4",NA,NA,NA,"null",NA,NA,NA,NA,NA,NA
"null","<img src='gifs/BlackGender3a.gif' style='height:400px;''></img>",NA,"html-keyboard-response",141,437742,"0.0-15.0-1.0",89710,"ListA","man","chinese","SW_C_M_A4",NA,NA,NA,"null",NA,NA,NA,NA,NA,NA
"null","正在触摸",NA,"html-keyboard-response",142,440745,"0.0-15.0-2.0",89710,"ListA","man","chinese","SW_C_M_A4",NA,NA,NA,"null",NA,NA,NA,NA,NA,NA
"5633",NA,NA,"survey-text",143,446386,"0.0-15.0-3.0",89710,"ListA","man","chinese","SW_C_M_A4",NA,NA,NA,NA,"{""Q0"":""霍普正在触摸卢克""}","<img src='gifs/BlackGender3a.gif' style='height:400px;''></img>","触摸","正在触摸","chinese",NA
"null","<div style=""font-size:60px;"">+</div>",NA,"html-keyboard-response",144,446888,"0.0-15.0-0.1",89710,"ListA","man","chinese","SW_C_M_A4",NA,NA,NA,"null",NA,NA,NA,NA,NA,NA
"null","<img src='gifs/FemaleRace3b.gif' style='height:400px;''></img>",NA,"html-keyboard-response",145,448902,"0.0-15.0-1.1",89710,"ListA","man","chinese","SW_C_M_A4",NA,NA,NA,"null",NA,NA,NA,NA,NA,NA
"null","正在介绍",NA,"html-keyboard-response",146,451904,"0.0-15.0-2.1",89710,"ListA","man","chinese","SW_C_M_A4",NA,NA,NA,"null",NA,NA,NA,NA,NA,NA
"5626.999999999942",NA,NA,"survey-text",147,457535,"0.0-15.0-3.1",89710,"ListA","man","chinese","SW_C_M_A4",NA,NA,NA,NA,"{""Q0"":""霍普正在介绍贝斯""}","<img src='gifs/FemaleRace3b.gif' style='height:400px;''></img>","介绍","正在介绍","chinese",NA
"null","<div style=""font-size:60px;"">+</div>",NA,"html-keyboard-response",148,458038,"0.0-15.0-0.2",89710,"ListA","man","chinese","SW_C_M_A4",NA,NA,NA,"null",NA,NA,NA,NA,NA,NA
"null","<img src='gifs/ChineseGender1a.gif' style='height:400px;''></img>",NA,"html-keyboard-response",149,460052,"0.0-15.0-1.2",89710,"ListA","man","chinese","SW_C_M_A4",NA,NA,NA,"null",NA,NA,NA,NA,NA,NA
"null","正在聘用",NA,"html-keyboard-response",150,463054,"0.0-15.0-2.2",89710,"ListA","man","chinese","SW_C_M_A4",NA,NA,NA,"null",NA,NA,NA,NA,NA,NA
"4619.000000000058",NA,NA,"survey-text",151,467681,"0.0-15.0-3.2",89710,"ListA","man","chinese","SW_C_M_A4",NA,NA,NA,NA,"{""Q0"":""凯特正在聘用麦克""}","<img src='gifs/ChineseGender1a.gif' style='height:400px;''></img>","聘用","正在聘用","chinese",NA
"null","<div style=""font-size:60px;"">+</div>",NA,"html-keyboard-response",152,468183,"0.0-15.0-0.3",89710,"ListA","man","chinese","SW_C_M_A4",NA,NA,NA,"null",NA,NA,NA,NA,NA,NA
"null","<img src='gifs/ChineseGender4a.gif' style='height:400px;''></img>",NA,"html-keyboard-response",153,470196,"0.0-15.0-1.3",89710,"ListA","man","chinese","SW_C_M_A4",NA,NA,NA,"null",NA,NA,NA,NA,NA,NA
"null","正在走向",NA,"html-keyboard-response",154,473198,"0.0-15.0-2.3",89710,"ListA","man","chinese","SW_C_M_A4",NA,NA,NA,"null",NA,NA,NA,NA,NA,NA
"4750",NA,NA,"survey-text",155,477955,"0.0-15.0-3.3",89710,"ListA","man","chinese","SW_C_M_A4",NA,NA,NA,NA,"{""Q0"":""凯特正在走向麦克""}","<img src='gifs/ChineseGender4a.gif' style='height:400px;''></img>","走向","正在走向","chinese",NA
"null","<div style=""font-size:60px;"">+</div>",NA,"html-keyboard-response",156,478456,"0.0-15.0-0.4",89710,"ListA","man","chinese","SW_C_M_A4",NA,NA,NA,"null",NA,NA,NA,NA,NA,NA
"null","<img src='gifs/BlackGender3a.gif' style='height:400px;''></img>",NA,"html-keyboard-response",157,480470,"0.0-15.0-1.4",89710,"ListA","man","chinese","SW_C_M_A4",NA,NA,NA,"null",NA,NA,NA,NA,NA,NA
"null","正在面向",NA,"html-keyboard-response",158,483473,"0.0-15.0-2.4",89710,"ListA","man","chinese","SW_C_M_A4",NA,NA,NA,"null",NA,NA,NA,NA,NA,NA
"5149",NA,NA,"survey-text",159,488629,"0.0-15.0-3.4",89710,"ListA","man","chinese","SW_C_M_A4",NA,NA,NA,NA,"{""Q0"":""霍普正在面向卢克""}","<img src='gifs/BlackGender3a.gif' style='height:400px;''></img>","面向","正在面向","chinese",NA
"null","<div style=""font-size:60px;"">+</div>",NA,"html-keyboard-response",160,489131,"0.0-15.0-0.5",89710,"ListA","man","chinese","SW_C_M_A4",NA,NA,NA,"null",NA,NA,NA,NA,NA,NA
"null","<img src='gifs/MaleRace3a.gif' style='height:400px;''></img>",NA,"html-keyboard-response",161,491144,"0.0-15.0-1.5",89710,"ListA","man","chinese","SW_C_M_A4",NA,NA,NA,"null",NA,NA,NA,NA,NA,NA
"null","正在联系",NA,"html-keyboard-response",162,494147,"0.0-15.0-2.5",89710,"ListA","man","chinese","SW_C_M_A4",NA,NA,NA,"null",NA,NA,NA,NA,NA,NA
"8176",NA,NA,"survey-text",163,502331,"0.0-15.0-3.5",89710,"ListA","man","chinese","SW_C_M_A4",NA,NA,NA,NA,"{""Q0"":""霍普正在走向弗雷""}","<img src='gifs/MaleRace3a.gif' style='height:400px;''></img>","联系","正在联系","chinese",NA
"null","<div style=""font-size:60px;"">+</div>",NA,"html-keyboard-response",164,502833,"0.0-15.0-0.6",89710,"ListA","man","chinese","SW_C_M_A4",NA,NA,NA,"null",NA,NA,NA,NA,NA,NA
"null","<img src='gifs/BlackGender4a.gif' style='height:400px;''></img>",NA,"html-keyboard-response",165,504845,"0.0-15.0-1.6",89710,"ListA","man","chinese","SW_C_M_A4",NA,NA,NA,"null",NA,NA,NA,NA,NA,NA
"null","正在介绍",NA,"html-keyboard-response",166,507847,"0.0-15.0-2.6",89710,"ListA","man","chinese","SW_C_M_A4",NA,NA,NA,"null",NA,NA,NA,NA,NA,NA
"4725",NA,NA,"survey-text",167,512580,"0.0-15.0-3.6",89710,"ListA","man","chinese","SW_C_M_A4",NA,NA,NA,NA,"{""Q0"":""戴夫正在介绍霍普""}","<img src='gifs/BlackGender4a.gif' style='height:400px;''></img>","介绍","正在介绍","chinese",NA
"null","<div style=""font-size:60px;"">+</div>",NA,"html-keyboard-response",168,513082,"0.0-15.0-0.7",89710,"ListA","man","chinese","SW_C_M_A4",NA,NA,NA,"null",NA,NA,NA,NA,NA,NA
"null","<img src='gifs/FemaleRace1b.gif' style='height:400px;''></img>",NA,"html-keyboard-response",169,515096,"0.0-15.0-1.7",89710,"ListA","man","chinese","SW_C_M_A4",NA,NA,NA,"null",NA,NA,NA,NA,NA,NA
"null","正在接近",NA,"html-keyboard-response",170,518098,"0.0-15.0-2.7",89710,"ListA","man","chinese","SW_C_M_A4",NA,NA,NA,"null",NA,NA,NA,NA,NA,NA
"5453",NA,NA,"survey-text",171,523559,"0.0-15.0-3.7",89710,"ListA","man","chinese","SW_C_M_A4",NA,NA,NA,NA,"{""Q0"":""凯特正在接近露丝""}","<img src='gifs/FemaleRace1b.gif' style='height:400px;''></img>","接近","正在接近","chinese",NA
"null","<div style=""font-size:60px;"">+</div>",NA,"html-keyboard-response",172,524061,"0.0-15.0-0.8",89710,"ListA","man","chinese","SW_C_M_A4",NA,NA,NA,"null",NA,NA,NA,NA,NA,NA
"null","<img src='gifs/FemaleRace3a.gif' style='height:400px;''></img>",NA,"html-keyboard-response",173,526074,"0.0-15.0-1.8",89710,"ListA","man","chinese","SW_C_M_A4",NA,NA,NA,"null",NA,NA,NA,NA,NA,NA
"null","正在聆听",NA,"html-keyboard-response",174,529075,"0.0-15.0-2.8",89710,"ListA","man","chinese","SW_C_M_A4",NA,NA,NA,"null",NA,NA,NA,NA,NA,NA
"4219",NA,NA,"survey-text",175,533303,"0.0-15.0-3.8",89710,"ListA","man","chinese","SW_C_M_A4",NA,NA,NA,NA,"{""Q0"":""露丝正在聆听贝斯""}","<img src='gifs/FemaleRace3a.gif' style='height:400px;''></img>","聆听","正在聆听","chinese",NA
"null","<div style=""font-size:60px;"">+</div>",NA,"html-keyboard-response",176,533805,"0.0-15.0-0.9",89710,"ListA","man","chinese","SW_C_M_A4",NA,NA,NA,"null",NA,NA,NA,NA,NA,NA
"null","<img src='gifs/FemaleRace1b.gif' style='height:400px;''></img>",NA,"html-keyboard-response",177,535819,"0.0-15.0-1.9",89710,"ListA","man","chinese","SW_C_M_A4",NA,NA,NA,"null",NA,NA,NA,NA,NA,NA
"null","正在加入",NA,"html-keyboard-response",178,538821,"0.0-15.0-2.9",89710,"ListA","man","chinese","SW_C_M_A4",NA,NA,NA,"null",NA,NA,NA,NA,NA,NA
"4632",NA,NA,"survey-text",179,543462,"0.0-15.0-3.9",89710,"ListA","man","chinese","SW_C_M_A4",NA,NA,NA,NA,"{""Q0"":""凯特正在加入露丝""}","<img src='gifs/FemaleRace1b.gif' style='height:400px;''></img>","加入","正在加入","chinese",NA
"null","<div style=""font-size:60px;"">+</div>",NA,"html-keyboard-response",180,543964,"0.0-15.0-0.10",89710,"ListA","man","chinese","SW_C_M_A4",NA,NA,NA,"null",NA,NA,NA,NA,NA,NA
"null","<img src='gifs/MaleRace1a.gif' style='height:400px;''></img>",NA,"html-keyboard-response",181,545978,"0.0-15.0-1.10",89710,"ListA","man","chinese","SW_C_M_A4",NA,NA,NA,"null",NA,NA,NA,NA,NA,NA
"null","正在跟随",NA,"html-keyboard-response",182,548981,"0.0-15.0-2.10",89710,"ListA","man","chinese","SW_C_M_A4",NA,NA,NA,"null",NA,NA,NA,NA,NA,NA
"12530",NA,NA,"survey-text",183,561518,"0.0-15.0-3.10",89710,"ListA","man","chinese","SW_C_M_A4",NA,NA,NA,NA,"{""Q0"":""弗雷正在跟随卢克""}","<img src='gifs/MaleRace1a.gif' style='height:400px;''></img>","跟随","正在跟随","chinese",NA
"null","<div style=""font-size:60px;"">+</div>",NA,"html-keyboard-response",184,562020,"0.0-15.0-0.11",89710,"ListA","man","chinese","SW_C_M_A4",NA,NA,NA,"null",NA,NA,NA,NA,NA,NA
"null","<img src='gifs/ChineseGender1b.gif' style='height:400px;''></img>",NA,"html-keyboard-response",185,564034,"0.0-15.0-1.11",89710,"ListA","man","chinese","SW_C_M_A4",NA,NA,NA,"null",NA,NA,NA,NA,NA,NA
"null","正在提到",NA,"html-keyboard-response",186,567036,"0.0-15.0-2.11",89710,"ListA","man","chinese","SW_C_M_A4",NA,NA,NA,"null",NA,NA,NA,NA,NA,NA
"6556.999999999884",NA,NA,"survey-text",187,573601,"0.0-15.0-3.11",89710,"ListA","man","chinese","SW_C_M_A4",NA,NA,NA,NA,"{""Q0"":""凯特正在提到弗雷""}","<img src='gifs/ChineseGender1b.gif' style='height:400px;''></img>","提到","正在提到","chinese",NA
"null","<div style=""font-size:60px;"">+</div>",NA,"html-keyboard-response",188,574103,"0.0-15.0-0.12",89710,"ListA","man","chinese","SW_C_M_A4",NA,NA,NA,"null",NA,NA,NA,NA,NA,NA
"null","<img src='gifs/ChineseGender3b.gif' style='height:400px;''></img>",NA,"html-keyboard-response",189,576116,"0.0-15.0-1.12",89710,"ListA","man","chinese","SW_C_M_A4",NA,NA,NA,"null",NA,NA,NA,NA,NA,NA
"null","正在聆听",NA,"html-keyboard-response",190,579118,"0.0-15.0-2.12",89710,"ListA","man","chinese","SW_C_M_A4",NA,NA,NA,"null",NA,NA,NA,NA,NA,NA
"7150",NA,NA,"survey-text",191,586277,"0.0-15.0-3.12",89710,"ListA","man","chinese","SW_C_M_A4",NA,NA,NA,NA,"{""Q0"":""贝斯正在聆听麦克""}","<img src='gifs/ChineseGender3b.gif' style='height:400px;''></img>","聆听","正在聆听","chinese",NA
"null","<div style=""font-size:60px;"">+</div>",NA,"html-keyboard-response",192,586786,"0.0-15.0-0.13",89710,"ListA","man","chinese","SW_C_M_A4",NA,NA,NA,"null",NA,NA,NA,NA,NA,NA
"null","<img src='gifs/FemaleRace2a.gif' style='height:400px;''></img>",NA,"html-keyboard-response",193,588800,"0.0-15.0-1.13",89710,"ListA","man","chinese","SW_C_M_A4",NA,NA,NA,"null",NA,NA,NA,NA,NA,NA
"null","正在介绍",NA,"html-keyboard-response",194,591802,"0.0-15.0-2.13",89710,"ListA","man","chinese","SW_C_M_A4",NA,NA,NA,"null",NA,NA,NA,NA,NA,NA
"6967",NA,NA,"survey-text",195,598778,"0.0-15.0-3.13",89710,"ListA","man","chinese","SW_C_M_A4",NA,NA,NA,NA,"{""Q0"":""凯特正在介绍霍普""}","<img src='gifs/FemaleRace2a.gif' style='height:400px;''></img>","介绍","正在介绍","chinese",NA
"null","<div style=""font-size:60px;"">+</div>",NA,"html-keyboard-response",196,599280,"0.0-15.0-0.14",89710,"ListA","man","chinese","SW_C_M_A4",NA,NA,NA,"null",NA,NA,NA,NA,NA,NA
"null","<img src='gifs/ChineseGender1b.gif' style='height:400px;''></img>",NA,"html-keyboard-response",197,601293,"0.0-15.0-1.14",89710,"ListA","man","chinese","SW_C_M_A4",NA,NA,NA,"null",NA,NA,NA,NA,NA,NA
"null","正在接近",NA,"html-keyboard-response",198,604296,"0.0-15.0-2.14",89710,"ListA","man","chinese","SW_C_M_A4",NA,NA,NA,"null",NA,NA,NA,NA,NA,NA
"4452",NA,NA,"survey-text",199,608756,"0.0-15.0-3.14",89710,"ListA","man","chinese","SW_C_M_A4",NA,NA,NA,NA,"{""Q0"":""凯特正在接近弗雷""}","<img src='gifs/ChineseGender1b.gif' style='height:400px;''></img>","接近","正在接近","chinese",NA
"null","<div style=""font-size:60px;"">+</div>",NA,"html-keyboard-response",200,609258,"0.0-15.0-0.15",89710,"ListA","man","chinese","SW_C_M_A4",NA,NA,NA,"null",NA,NA,NA,NA,NA,NA
"null","<img src='gifs/BlackGender1a.gif' style='height:400px;''></img>",NA,"html-keyboard-response",201,611271,"0.0-15.0-1.15",89710,"ListA","man","chinese","SW_C_M_A4",NA,NA,NA,"null",NA,NA,NA,NA,NA,NA
"null","正在答应",NA,"html-keyboard-response",202,614274,"0.0-15.0-2.15",89710,"ListA","man","chinese","SW_C_M_A4",NA,NA,NA,"null",NA,NA,NA,NA,NA,NA
"5228",NA,NA,"survey-text",203,619509,"0.0-15.0-3.15",89710,"ListA","man","chinese","SW_C_M_A4",NA,NA,NA,NA,"{""Q0"":""卢克正在答应露丝""}","<img src='gifs/BlackGender1a.gif' style='height:400px;''></img>","答应","正在答应","chinese",NA
"null","<div style=""font-size:60px;"">+</div>",NA,"html-keyboard-response",204,620011,"0.0-15.0-0.16",89710,"ListA","man","chinese","SW_C_M_A4",NA,NA,NA,"null",NA,NA,NA,NA,NA,NA
"null","<img src='gifs/MaleRace1b.gif' style='height:400px;''></img>",NA,"html-keyboard-response",205,622024,"0.0-15.0-1.16",89710,"ListA","man","chinese","SW_C_M_A4",NA,NA,NA,"null",NA,NA,NA,NA,NA,NA
"null","正在答应",NA,"html-keyboard-response",206,625027,"0.0-15.0-2.16",89710,"ListA","man","chinese","SW_C_M_A4",NA,NA,NA,"null",NA,NA,NA,NA,NA,NA
"5375",NA,NA,"survey-text",207,630410,"0.0-15.0-3.16",89710,"ListA","man","chinese","SW_C_M_A4",NA,NA,NA,NA,"{""Q0"":""麦克正在答应卢克""}","<img src='gifs/MaleRace1b.gif' style='height:400px;''></img>","答应","正在答应","chinese",NA
"null","<div style=""font-size:60px;"">+</div>",NA,"html-keyboard-response",208,630911,"0.0-15.0-0.17",89710,"ListA","man","chinese","SW_C_M_A4",NA,NA,NA,"null",NA,NA,NA,NA,NA,NA
"null","<img src='gifs/MaleRace4a.gif' style='height:400px;''></img>",NA,"html-keyboard-response",209,632926,"0.0-15.0-1.17",89710,"ListA","man","chinese","SW_C_M_A4",NA,NA,NA,"null",NA,NA,NA,NA,NA,NA
"null","正在说服",NA,"html-keyboard-response",210,635929,"0.0-15.0-2.17",89710,"ListA","man","chinese","SW_C_M_A4",NA,NA,NA,"null",NA,NA,NA,NA,NA,NA
"6477",NA,NA,"survey-text",211,642414,"0.0-15.0-3.17",89710,"ListA","man","chinese","SW_C_M_A4",NA,NA,NA,NA,"{""Q0"":""戴夫正在说服麦克""}","<img src='gifs/MaleRace4a.gif' style='height:400px;''></img>","说服","正在说服","chinese",NA
"3704","<img src='img/portrait_matrix_listA_chinese.jpg' style='width:900px;height:500px;''></img><p>如果您已经记住了所有的人物和名字，请点击继续。</p><p><strong>请注意：您对先前记忆的面孔将在本实验中被测试5次。</strong></p>",0,"html-button-response",212,646126,"0.0-16.0-0.0",89710,"ListA","man","chinese","SW_C_M_A4",NA,NA,NA,NA,NA,NA,NA,NA,NA,NA
"2426","<img src=""portrait/WM2.jpg""style=""height:400px;""></img>",7,"html-button-response",213,649568,"0.0-16.0-1.0",89710,"ListA","man","chinese","SW_C_M_A4",NA,"true",7,NA,NA,NA,NA,NA,NA,NA
"null","正确",NA,"html-keyboard-response",214,651071,"0.0-16.0-2.0-0.0",89710,"ListA","man","chinese","SW_C_M_A4",NA,NA,NA,"null",NA,NA,NA,NA,NA,NA
"3739.0000000001164","<img src=""portrait/WM1.jpg""style=""height:400px;""></img>",6,"html-button-response",215,654821,"0.0-16.0-4.0",89710,"ListA","man","chinese","SW_C_M_A4",NA,"true",6,NA,NA,NA,NA,NA,NA,NA
"null","正确",NA,"html-keyboard-response",216,656325,"0.0-16.0-5.0-0.0",89710,"ListA","man","chinese","SW_C_M_A4",NA,NA,NA,"null",NA,NA,NA,NA,NA,NA
"3255","<img src=""portrait/BW1.jpg""style=""height:400px;""></img>",0,"html-button-response",217,659592,"0.0-16.0-7.0",89710,"ListA","man","chinese","SW_C_M_A4",NA,"true",0,NA,NA,NA,NA,NA,NA,NA
"null","正确",NA,"html-keyboard-response",218,661096,"0.0-16.0-8.0-0.0",89710,"ListA","man","chinese","SW_C_M_A4",NA,NA,NA,"null",NA,NA,NA,NA,NA,NA
"1925","<img src=""portrait/BM1.jpg""style=""height:400px;""></img>",4,"html-button-response",219,663035,"0.0-16.0-10.0",89710,"ListA","man","chinese","SW_C_M_A4",NA,"true",4,NA,NA,NA,NA,NA,NA,NA
"null","正确",NA,"html-keyboard-response",220,664538,"0.0-16.0-11.0-0.0",89710,"ListA","man","chinese","SW_C_M_A4",NA,NA,NA,"null",NA,NA,NA,NA,NA,NA
"1994","<img src=""portrait/WW2.jpg""style=""height:400px;""></img>",3,"html-button-response",221,666545,"0.0-16.0-13.0",89710,"ListA","man","chinese","SW_C_M_A4",NA,"true",3,NA,NA,NA,NA,NA,NA,NA
"null","正确",NA,"html-keyboard-response",222,668048,"0.0-16.0-14.0-0.0",89710,"ListA","man","chinese","SW_C_M_A4",NA,NA,NA,"null",NA,NA,NA,NA,NA,NA
"2488.9999999998836","<img src=""portrait/BM2.jpg""style=""height:400px;""></img>",5,"html-button-response",223,670551,"0.0-16.0-16.0",89710,"ListA","man","chinese","SW_C_M_A4",NA,"true",5,NA,NA,NA,NA,NA,NA,NA
"null","正确",NA,"html-keyboard-response",224,672054,"0.0-16.0-17.0-0.0",89710,"ListA","man","chinese","SW_C_M_A4",NA,NA,NA,"null",NA,NA,NA,NA,NA,NA
"2295.9999999998836","<img src=""portrait/BW2.jpg""style=""height:400px;""></img>",2,"html-button-response",225,674363,"0.0-16.0-19.0",89710,"ListA","man","chinese","SW_C_M_A4",NA,"true",2,NA,NA,NA,NA,NA,NA,NA
"null","正确",NA,"html-keyboard-response",226,675866,"0.0-16.0-20.0-0.0",89710,"ListA","man","chinese","SW_C_M_A4",NA,NA,NA,"null",NA,NA,NA,NA,NA,NA
"1725","<img src=""portrait/WW1.jpg""style=""height:400px;""></img>",1,"html-button-response",227,677604,"0.0-16.0-22.0",89710,"ListA","man","chinese","SW_C_M_A4",NA,"true",1,NA,NA,NA,NA,NA,NA,NA
"null","正确",NA,"html-keyboard-response",228,679108,"0.0-16.0-23.0-0.0",89710,"ListA","man","chinese","SW_C_M_A4",NA,NA,NA,"null",NA,NA,NA,NA,NA,NA
"856","<p>您第一次在8题里答对了 8 题。 请点击继续</p>",0,"html-button-response",229,679966,"0.0-16.0-25.0",89710,"ListA","man","chinese","SW_C_M_A4",NA,NA,NA,NA,NA,NA,NA,NA,NA,NA
"null","<div style=""font-size:60px;"">+</div>",NA,"html-keyboard-response",230,681473,"0.0-17.0-0.0",89710,"ListA","man","chinese","SW_C_M_A4",NA,NA,NA,"null",NA,NA,NA,NA,NA,NA
"null","<img src='gifs/MaleRace2b.gif' style='height:400px;''></img>",NA,"html-keyboard-response",231,683487,"0.0-17.0-1.0",89710,"ListA","man","chinese","SW_C_M_A4",NA,NA,NA,"null",NA,NA,NA,NA,NA,NA
"null","正在陪伴",NA,"html-keyboard-response",232,686489,"0.0-17.0-2.0",89710,"ListA","man","chinese","SW_C_M_A4",NA,NA,NA,"null",NA,NA,NA,NA,NA,NA
"4990",NA,NA,"survey-text",233,691486,"0.0-17.0-3.0",89710,"ListA","man","chinese","SW_C_M_A4",NA,NA,NA,NA,"{""Q0"":""弗雷正在陪伴戴夫""}","<img src='gifs/MaleRace2b.gif' style='height:400px;''></img>","陪伴","正在陪伴","chinese",NA
"null","<div style=""font-size:60px;"">+</div>",NA,"html-keyboard-response",234,691987,"0.0-17.0-0.1",89710,"ListA","man","chinese","SW_C_M_A4",NA,NA,NA,"null",NA,NA,NA,NA,NA,NA
"null","<img src='gifs/ChineseGender4b.gif' style='height:400px;''></img>",NA,"html-keyboard-response",235,694000,"0.0-17.0-1.1",89710,"ListA","man","chinese","SW_C_M_A4",NA,NA,NA,"null",NA,NA,NA,NA,NA,NA
"null","正在说服",NA,"html-keyboard-response",236,697003,"0.0-17.0-2.1",89710,"ListA","man","chinese","SW_C_M_A4",NA,NA,NA,"null",NA,NA,NA,NA,NA,NA
"5377.000000000116",NA,NA,"survey-text",237,702387,"0.0-17.0-3.1",89710,"ListA","man","chinese","SW_C_M_A4",NA,NA,NA,NA,"{""Q0"":""凯特正在说服麦克""}","<img src='gifs/ChineseGender4b.gif' style='height:400px;''></img>","说服","正在说服","chinese",NA
"null","<div style=""font-size:60px;"">+</div>",NA,"html-keyboard-response",238,702907,"0.0-17.0-0.2",89710,"ListA","man","chinese","SW_C_M_A4",NA,NA,NA,"null",NA,NA,NA,NA,NA,NA
"null","<img src='gifs/BlackGender2a.gif' style='height:400px;''></img>",NA,"html-keyboard-response",239,704923,"0.0-17.0-1.2",89710,"ListA","man","chinese","SW_C_M_A4",NA,NA,NA,"null",NA,NA,NA,NA,NA,NA
"null","正在面向",NA,"html-keyboard-response",240,707925,"0.0-17.0-2.2",89710,"ListA","man","chinese","SW_C_M_A4",NA,NA,NA,"null",NA,NA,NA,NA,NA,NA
"5626",NA,NA,"survey-text",241,713559,"0.0-17.0-3.2",89710,"ListA","man","chinese","SW_C_M_A4",NA,NA,NA,NA,"{""Q0"":""戴夫正在面向露丝""}","<img src='gifs/BlackGender2a.gif' style='height:400px;''></img>","面向","正在面向","chinese",NA
"null","<div style=""font-size:60px;"">+</div>",NA,"html-keyboard-response",242,714061,"0.0-17.0-0.3",89710,"ListA","man","chinese","SW_C_M_A4",NA,NA,NA,"null",NA,NA,NA,NA,NA,NA
"null","<img src='gifs/MaleRace4b.gif' style='height:400px;''></img>",NA,"html-keyboard-response",243,716075,"0.0-17.0-1.3",89710,"ListA","man","chinese","SW_C_M_A4",NA,NA,NA,"null",NA,NA,NA,NA,NA,NA
"null","正在触摸",NA,"html-keyboard-response",244,719078,"0.0-17.0-2.3",89710,"ListA","man","chinese","SW_C_M_A4",NA,NA,NA,"null",NA,NA,NA,NA,NA,NA
"5194",NA,NA,"survey-text",245,724284,"0.0-17.0-3.3",89710,"ListA","man","chinese","SW_C_M_A4",NA,NA,NA,NA,"{""Q0"":""麦克正在触摸戴夫""}","<img src='gifs/MaleRace4b.gif' style='height:400px;''></img>","触摸","正在触摸","chinese",NA
"null","<div style=""font-size:60px;"">+</div>",NA,"html-keyboard-response",246,724786,"0.0-17.0-0.4",89710,"ListA","man","chinese","SW_C_M_A4",NA,NA,NA,"null",NA,NA,NA,NA,NA,NA
"null","<img src='gifs/ChineseGender4b.gif' style='height:400px;''></img>",NA,"html-keyboard-response",247,726800,"0.0-17.0-1.4",89710,"ListA","man","chinese","SW_C_M_A4",NA,NA,NA,"null",NA,NA,NA,NA,NA,NA
"null","正在面向",NA,"html-keyboard-response",248,729804,"0.0-17.0-2.4",89710,"ListA","man","chinese","SW_C_M_A4",NA,NA,NA,"null",NA,NA,NA,NA,NA,NA
"5150",NA,NA,"survey-text",249,734964,"0.0-17.0-3.4",89710,"ListA","man","chinese","SW_C_M_A4",NA,NA,NA,NA,"{""Q0"":""麦克正在面向凯特""}","<img src='gifs/ChineseGender4b.gif' style='height:400px;''></img>","面向","正在面向","chinese",NA
"null","<div style=""font-size:60px;"">+</div>",NA,"html-keyboard-response",250,735466,"0.0-17.0-0.5",89710,"ListA","man","chinese","SW_C_M_A4",NA,NA,NA,"null",NA,NA,NA,NA,NA,NA
"null","<img src='gifs/ChineseGender3a.gif' style='height:400px;''></img>",NA,"html-keyboard-response",251,737481,"0.0-17.0-1.5",89710,"ListA","man","chinese","SW_C_M_A4",NA,NA,NA,"null",NA,NA,NA,NA,NA,NA
"null","正在聘用",NA,"html-keyboard-response",252,740484,"0.0-17.0-2.5",89710,"ListA","man","chinese","SW_C_M_A4",NA,NA,NA,"null",NA,NA,NA,NA,NA,NA
"4554.000000000116",NA,NA,"survey-text",253,745047,"0.0-17.0-3.5",89710,"ListA","man","chinese","SW_C_M_A4",NA,NA,NA,NA,"{""Q0"":""麦克正在聘用贝斯""}","<img src='gifs/ChineseGender3a.gif' style='height:400px;''></img>","聘用","正在聘用","chinese",NA
"null","<div style=""font-size:60px;"">+</div>",NA,"html-keyboard-response",254,745548,"0.0-17.0-0.6",89710,"ListA","man","chinese","SW_C_M_A4",NA,NA,NA,"null",NA,NA,NA,NA,NA,NA
"null","<img src='gifs/FemaleRace4b.gif' style='height:400px;''></img>",NA,"html-keyboard-response",255,747561,"0.0-17.0-1.6",89710,"ListA","man","chinese","SW_C_M_A4",NA,NA,NA,"null",NA,NA,NA,NA,NA,NA
"null","正在答应",NA,"html-keyboard-response",256,750565,"0.0-17.0-2.6",89710,"ListA","man","chinese","SW_C_M_A4",NA,NA,NA,"null",NA,NA,NA,NA,NA,NA
"5152.999999999884",NA,NA,"survey-text",257,755725,"0.0-17.0-3.6",89710,"ListA","man","chinese","SW_C_M_A4",NA,NA,NA,NA,"{""Q0"":""贝斯正在答应霍普""}","<img src='gifs/FemaleRace4b.gif' style='height:400px;''></img>","答应","正在答应","chinese",NA
"null","<div style=""font-size:60px;"">+</div>",NA,"html-keyboard-response",258,756227,"0.0-17.0-0.7",89710,"ListA","man","chinese","SW_C_M_A4",NA,NA,NA,"null",NA,NA,NA,NA,NA,NA
"null","<img src='gifs/ChineseGender2b.gif' style='height:400px;''></img>",NA,"html-keyboard-response",259,758239,"0.0-17.0-1.7",89710,"ListA","man","chinese","SW_C_M_A4",NA,NA,NA,"null",NA,NA,NA,NA,NA,NA
"null","正在看着",NA,"html-keyboard-response",260,761242,"0.0-17.0-2.7",89710,"ListA","man","chinese","SW_C_M_A4",NA,NA,NA,"null",NA,NA,NA,NA,NA,NA
"5230",NA,NA,"survey-text",261,766479,"0.0-17.0-3.7",89710,"ListA","man","chinese","SW_C_M_A4",NA,NA,NA,NA,"{""Q0"":""贝斯正在看着弗雷""}","<img src='gifs/ChineseGender2b.gif' style='height:400px;''></img>","看着","正在看着","chinese",NA
"null","<div style=""font-size:60px;"">+</div>",NA,"html-keyboard-response",262,766981,"0.0-17.0-0.8",89710,"ListA","man","chinese","SW_C_M_A4",NA,NA,NA,"null",NA,NA,NA,NA,NA,NA
"null","<img src='gifs/BlackGender3b.gif' style='height:400px;''></img>",NA,"html-keyboard-response",263,768995,"0.0-17.0-1.8",89710,"ListA","man","chinese","SW_C_M_A4",NA,NA,NA,"null",NA,NA,NA,NA,NA,NA
"null","正在表扬",NA,"html-keyboard-response",264,771997,"0.0-17.0-2.8",89710,"ListA","man","chinese","SW_C_M_A4",NA,NA,NA,"null",NA,NA,NA,NA,NA,NA
"4868",NA,NA,"survey-text",265,776874,"0.0-17.0-3.8",89710,"ListA","man","chinese","SW_C_M_A4",NA,NA,NA,NA,"{""Q0"":""卢克正在表扬霍普""}","<img src='gifs/BlackGender3b.gif' style='height:400px;''></img>","表扬","正在表扬","chinese",NA
"null","<div style=""font-size:60px;"">+</div>",NA,"html-keyboard-response",266,777375,"0.0-17.0-0.9",89710,"ListA","man","chinese","SW_C_M_A4",NA,NA,NA,"null",NA,NA,NA,NA,NA,NA
"null","<img src='gifs/MaleRace3a.gif' style='height:400px;''></img>",NA,"html-keyboard-response",267,779389,"0.0-17.0-1.9",89710,"ListA","man","chinese","SW_C_M_A4",NA,NA,NA,"null",NA,NA,NA,NA,NA,NA
"null","正在联系",NA,"html-keyboard-response",268,782391,"0.0-17.0-2.9",89710,"ListA","man","chinese","SW_C_M_A4",NA,NA,NA,"null",NA,NA,NA,NA,NA,NA
"6101",NA,NA,"survey-text",269,788499,"0.0-17.0-3.9",89710,"ListA","man","chinese","SW_C_M_A4",NA,NA,NA,NA,"{""Q0"":""卢克正在联系麦克""}","<img src='gifs/MaleRace3a.gif' style='height:400px;''></img>","联系","正在联系","chinese",NA
"null","<div style=""font-size:60px;"">+</div>",NA,"html-keyboard-response",270,789001,"0.0-17.0-0.10",89710,"ListA","man","chinese","SW_C_M_A4",NA,NA,NA,"null",NA,NA,NA,NA,NA,NA
"null","<img src='gifs/FemaleRace3a.gif' style='height:400px;''></img>",NA,"html-keyboard-response",271,791015,"0.0-17.0-1.10",89710,"ListA","man","chinese","SW_C_M_A4",NA,NA,NA,"null",NA,NA,NA,NA,NA,NA
"null","正在说服",NA,"html-keyboard-response",272,794017,"0.0-17.0-2.10",89710,"ListA","man","chinese","SW_C_M_A4",NA,NA,NA,"null",NA,NA,NA,NA,NA,NA
"5563",NA,NA,"survey-text",273,799588,"0.0-17.0-3.10",89710,"ListA","man","chinese","SW_C_M_A4",NA,NA,NA,NA,"{""Q0"":""贝斯正在说服露丝""}","<img src='gifs/FemaleRace3a.gif' style='height:400px;''></img>","说服","正在说服","chinese",NA
"null","<div style=""font-size:60px;"">+</div>",NA,"html-keyboard-response",274,800089,"0.0-17.0-0.11",89710,"ListA","man","chinese","SW_C_M_A4",NA,NA,NA,"null",NA,NA,NA,NA,NA,NA
"null","<img src='gifs/BlackGender4b.gif' style='height:400px;''></img>",NA,"html-keyboard-response",275,802100,"0.0-17.0-1.11",89710,"ListA","man","chinese","SW_C_M_A4",NA,NA,NA,"null",NA,NA,NA,NA,NA,NA
"null","正在表扬",NA,"html-keyboard-response",276,805103,"0.0-17.0-2.11",89710,"ListA","man","chinese","SW_C_M_A4",NA,NA,NA,"null",NA,NA,NA,NA,NA,NA
"5952",NA,NA,"survey-text",277,811063,"0.0-17.0-3.11",89710,"ListA","man","chinese","SW_C_M_A4",NA,NA,NA,NA,"{""Q0"":""戴夫正在表扬霍普""}","<img src='gifs/BlackGender4b.gif' style='height:400px;''></img>","表扬","正在表扬","chinese",NA
"null","<div style=""font-size:60px;"">+</div>",NA,"html-keyboard-response",278,811565,"0.0-17.0-0.12",89710,"ListA","man","chinese","SW_C_M_A4",NA,NA,NA,"null",NA,NA,NA,NA,NA,NA
"null","<img src='gifs/FemaleRace4a.gif' style='height:400px;''></img>",NA,"html-keyboard-response",279,813578,"0.0-17.0-1.12",89710,"ListA","man","chinese","SW_C_M_A4",NA,NA,NA,"null",NA,NA,NA,NA,NA,NA
"null","正在加入",NA,"html-keyboard-response",280,816581,"0.0-17.0-2.12",89710,"ListA","man","chinese","SW_C_M_A4",NA,NA,NA,"null",NA,NA,NA,NA,NA,NA
"6562",NA,NA,"survey-text",281,823150,"0.0-17.0-3.12",89710,"ListA","man","chinese","SW_C_M_A4",NA,NA,NA,NA,"{""Q0"":""霍普正在加入贝斯""}","<img src='gifs/FemaleRace4a.gif' style='height:400px;''></img>","加入","正在加入","chinese",NA
"null","<div style=""font-size:60px;"">+</div>",NA,"html-keyboard-response",282,823654,"0.0-17.0-0.13",89710,"ListA","man","chinese","SW_C_M_A4",NA,NA,NA,"null",NA,NA,NA,NA,NA,NA
"null","<img src='gifs/BlackGender2b.gif' style='height:400px;''></img>",NA,"html-keyboard-response",283,825668,"0.0-17.0-1.13",89710,"ListA","man","chinese","SW_C_M_A4",NA,NA,NA,"null",NA,NA,NA,NA,NA,NA
"null","正在答应",NA,"html-keyboard-response",284,828670,"0.0-17.0-2.13",89710,"ListA","man","chinese","SW_C_M_A4",NA,NA,NA,"null",NA,NA,NA,NA,NA,NA
"5861.999999999884",NA,NA,"survey-text",285,834540,"0.0-17.0-3.13",89710,"ListA","man","chinese","SW_C_M_A4",NA,NA,NA,NA,"{""Q0"":""戴夫正在答应露丝""}","<img src='gifs/BlackGender2b.gif' style='height:400px;''></img>","答应","正在答应","chinese",NA
"null","<div style=""font-size:60px;"">+</div>",NA,"html-keyboard-response",286,835043,"0.0-17.0-0.14",89710,"ListA","man","chinese","SW_C_M_A4",NA,NA,NA,"null",NA,NA,NA,NA,NA,NA
"null","<img src='gifs/BlackGender2b.gif' style='height:400px;''></img>",NA,"html-keyboard-response",287,837055,"0.0-17.0-1.14",89710,"ListA","man","chinese","SW_C_M_A4",NA,NA,NA,"null",NA,NA,NA,NA,NA,NA
"null","正在提到",NA,"html-keyboard-response",288,840058,"0.0-17.0-2.14",89710,"ListA","man","chinese","SW_C_M_A4",NA,NA,NA,"null",NA,NA,NA,NA,NA,NA
"12102",NA,NA,"survey-text",289,852168,"0.0-17.0-3.14",89710,"ListA","man","chinese","SW_C_M_A4",NA,NA,NA,NA,"{""Q0"":""露丝正在提到贝斯""}","<img src='gifs/BlackGender2b.gif' style='height:400px;''></img>","提到","正在提到","chinese",NA
"null","<div style=""font-size:60px;"">+</div>",NA,"html-keyboard-response",290,852672,"0.0-17.0-0.15",89710,"ListA","man","chinese","SW_C_M_A4",NA,NA,NA,"null",NA,NA,NA,NA,NA,NA
"null","<img src='gifs/FemaleRace2a.gif' style='height:400px;''></img>",NA,"html-keyboard-response",291,854686,"0.0-17.0-1.15",89710,"ListA","man","chinese","SW_C_M_A4",NA,NA,NA,"null",NA,NA,NA,NA,NA,NA
"null","正在陪伴",NA,"html-keyboard-response",292,857689,"0.0-17.0-2.15",89710,"ListA","man","chinese","SW_C_M_A4",NA,NA,NA,"null",NA,NA,NA,NA,NA,NA
"3963",NA,NA,"survey-text",293,861660,"0.0-17.0-3.15",89710,"ListA","man","chinese","SW_C_M_A4",NA,NA,NA,NA,"{""Q0"":""凯特正在陪伴霍普""}","<img src='gifs/FemaleRace2a.gif' style='height:400px;''></img>","陪伴","正在陪伴","chinese",NA
"null","<div style=""font-size:60px;"">+</div>",NA,"html-keyboard-response",294,862164,"0.0-17.0-0.16",89710,"ListA","man","chinese","SW_C_M_A4",NA,NA,NA,"null",NA,NA,NA,NA,NA,NA
"null","<img src='gifs/FemaleRace1a.gif' style='height:400px;''></img>",NA,"html-keyboard-response",295,864178,"0.0-17.0-1.16",89710,"ListA","man","chinese","SW_C_M_A4",NA,NA,NA,"null",NA,NA,NA,NA,NA,NA
"null","正在加入",NA,"html-keyboard-response",296,867181,"0.0-17.0-2.16",89710,"ListA","man","chinese","SW_C_M_A4",NA,NA,NA,"null",NA,NA,NA,NA,NA,NA
"3372",NA,NA,"survey-text",297,870561,"0.0-17.0-3.16",89710,"ListA","man","chinese","SW_C_M_A4",NA,NA,NA,NA,"{""Q0"":""凯特正在加入露丝""}","<img src='gifs/FemaleRace1a.gif' style='height:400px;''></img>","加入","正在加入","chinese",NA
"null","<div style=""font-size:60px;"">+</div>",NA,"html-keyboard-response",298,871064,"0.0-17.0-0.17",89710,"ListA","man","chinese","SW_C_M_A4",NA,NA,NA,"null",NA,NA,NA,NA,NA,NA
"null","<img src='gifs/BlackGender3b.gif' style='height:400px;''></img>",NA,"html-keyboard-response",299,873076,"0.0-17.0-1.17",89710,"ListA","man","chinese","SW_C_M_A4",NA,NA,NA,"null",NA,NA,NA,NA,NA,NA
"null","正在走向",NA,"html-keyboard-response",300,876078,"0.0-17.0-2.17",89710,"ListA","man","chinese","SW_C_M_A4",NA,NA,NA,"null",NA,NA,NA,NA,NA,NA
"5969",NA,NA,"survey-text",301,882055,"0.0-17.0-3.17",89710,"ListA","man","chinese","SW_C_M_A4",NA,NA,NA,NA,"{""Q0"":""麦克正在走向凯特""}","<img src='gifs/BlackGender3b.gif' style='height:400px;''></img>","走向","正在走向","chinese",NA
"3839","<p>Thank you for completing that task.</p><p>The final part of this session is a short questionnaire.</p><p>Press Continue.</p>",0,"html-button-response",302,885897,"0.0-18.0",89710,"ListA","man","chinese","SW_C_M_A4",NA,NA,NA,NA,NA,NA,NA,NA,NA,NA
"87474",NA,NA,"survey-text",303,974389,"0.0-19.0",89710,"ListA","man","chinese","SW_C_M_A4",NA,NA,NA,NA,"{""Q0"":""25"",""Q1"":""Chinese"",""Q2"":""Chinese"",""Q3"":""China"",""Q4"":""China"",""Q5"":""Asian"",""Q6"":""male""}",NA,NA,NA,NA,"demographics"
"3034.9999999998836","<p>Have you lived in the UK for the last 5 years or more?</p>",1,"html-button-response",304,977427,"0.0-20.0",89710,"ListA","man","chinese","SW_C_M_A4",NA,NA,NA,NA,NA,NA,NA,NA,NA,"fiveyears"
"15457.999999999884",NA,NA,"external-html",305,996921,"0.0-21.0",89710,"ListA","man","chinese","SW_C_M_A4","debrief.html",NA,NA,NA,NA,NA,NA,NA,NA,NA
"60327",NA,NA,"survey-text",306,1057257,"0.0-22.0",89710,"ListA","man","chinese","SW_C_M_A4",NA,NA,NA,NA,"{""ptpt_id"":""SW_C_M_A4""}",NA,NA,NA,NA,"worker_id"
