"rt","stimulus","button_pressed","trial_type","trial_index","time_elapsed","internal_node_id","subject","list","ppt_gender","ppt_language","url","first_guess","correct","key_press","responses","image","verb","phrase","condition","test_part"
"2360","Welcome to the experiment. Press Continue to begin.",0,"html-button-response",0,2367,"0.0-0.0",89813,"ListA","woman","english",NA,NA,NA,NA,NA,NA,NA,NA,NA,NA
"46730",NA,NA,"external-html",1,50150,"0.0-1.0",89813,"ListA","woman","english","consent.html",NA,NA,NA,NA,NA,NA,NA,NA,NA
"3426","<p>On the next page, you will see portraits of 8 people and their names.</p><p>Your first task is to take a few minutes to memorise the names of these people.</p><p>You will have to recall their names during the rest of the experiment, so it is</p><p>essential that you try to memorise these people and their names as best as you can.</p><p><strong>You will then be tested on your memory of these names and portraits.</strong></p><p>The experiment will start after you have completed this memory test.</p><p>Ready?</p>",0,"html-button-response",2,53587,"0.0-2.0",89813,"ListA","woman","english",NA,NA,NA,NA,NA,NA,NA,NA,NA,NA
"70282","<img src='img/portrait_matrix_listA.jpg' style='width:900px;height:500px;''></img><p>If you have memorised all the portraits and names and are ready to start, press Continue.</p><p><strong>Please note: Your memory of these faces will be tested 5 times during this experiment.</strong></p>",0,"html-button-response",3,124881,"0.0-3.0-0.0",89813,"ListA","woman","english",NA,NA,NA,NA,NA,NA,NA,NA,NA,NA
"5360","<img src=""portrait/BW1.jpg""style=""height:400px;""></img>",0,"html-button-response",4,131256,"0.0-3.0-1.0",89813,"ListA","woman","english",NA,TRUE,0,NA,NA,NA,NA,NA,NA,NA
"null","CORRECT",NA,"html-keyboard-response",5,132764,"0.0-3.0-2.0-0.0",89813,"ListA","woman","english",NA,NA,NA,"null",NA,NA,NA,NA,NA,NA
"11565","<img src=""portrait/BM2.jpg""style=""height:400px;""></img>",5,"html-button-response",6,144333,"0.0-3.0-4.0",89813,"ListA","woman","english",NA,TRUE,5,NA,NA,NA,NA,NA,NA,NA
"null","CORRECT",NA,"html-keyboard-response",7,145836,"0.0-3.0-5.0-0.0",89813,"ListA","woman","english",NA,NA,NA,"null",NA,NA,NA,NA,NA,NA
"12159","<img src=""portrait/BW2.jpg""style=""height:400px;""></img>",2,"html-button-response",8,157998,"0.0-3.0-7.0",89813,"ListA","woman","english",NA,TRUE,2,NA,NA,NA,NA,NA,NA,NA
"null","CORRECT",NA,"html-keyboard-response",9,159502,"0.0-3.0-8.0-0.0",89813,"ListA","woman","english",NA,NA,NA,"null",NA,NA,NA,NA,NA,NA
"3548","<img src=""portrait/WM1.jpg""style=""height:400px;""></img>",6,"html-button-response",10,163054,"0.0-3.0-10.0",89813,"ListA","woman","english",NA,TRUE,6,NA,NA,NA,NA,NA,NA,NA
"null","CORRECT",NA,"html-keyboard-response",11,164557,"0.0-3.0-11.0-0.0",89813,"ListA","woman","english",NA,NA,NA,"null",NA,NA,NA,NA,NA,NA
"8157","<img src=""portrait/BM1.jpg""style=""height:400px;""></img>",0,"html-button-response",12,172717,"0.0-3.0-13.0",89813,"ListA","woman","english",NA,TRUE,4,NA,NA,NA,NA,NA,NA,NA
"5266","<img src=""portrait/BM1.jpg""style=""height:400px;""></img>",4,"html-button-response",13,178989,"0.0-3.0-15.0-0.0",89813,"ListA","woman","english",NA,FALSE,4,NA,NA,NA,NA,NA,NA,NA
"null","CORRECT",NA,"html-keyboard-response",14,180493,"0.0-3.0-15.0-1.0-0.0",89813,"ListA","woman","english",NA,NA,NA,"null",NA,NA,NA,NA,NA,NA
"13492","<img src=""portrait/WW1.jpg""style=""height:400px;""></img>",1,"html-button-response",15,193989,"0.0-3.0-16.0",89813,"ListA","woman","english",NA,TRUE,1,NA,NA,NA,NA,NA,NA,NA
"null","CORRECT",NA,"html-keyboard-response",16,195492,"0.0-3.0-17.0-0.0",89813,"ListA","woman","english",NA,NA,NA,"null",NA,NA,NA,NA,NA,NA
"5933","<img src=""portrait/WM2.jpg""style=""height:400px;""></img>",7,"html-button-response",17,201428,"0.0-3.0-19.0",89813,"ListA","woman","english",NA,TRUE,7,NA,NA,NA,NA,NA,NA,NA
"null","CORRECT",NA,"html-keyboard-response",18,202931,"0.0-3.0-20.0-0.0",89813,"ListA","woman","english",NA,NA,NA,"null",NA,NA,NA,NA,NA,NA
"7171.000000000030","<img src=""portrait/WW2.jpg""style=""height:400px;""></img>",3,"html-button-response",19,210105,"0.0-3.0-22.0",89813,"ListA","woman","english",NA,TRUE,3,NA,NA,NA,NA,NA,NA,NA
"null","CORRECT",NA,"html-keyboard-response",20,211610,"0.0-3.0-23.0-0.0",89813,"ListA","woman","english",NA,NA,NA,"null",NA,NA,NA,NA,NA,NA
"2474","<p>You got 7 out of 8 right first time. Press Continue.</p>",0,"html-button-response",21,214096,"0.0-3.0-25.0",89813,"ListA","woman","english",NA,NA,NA,NA,NA,NA,NA,NA,NA,NA
"3947","As you did not score 100%, the memory game will repeat. Press Continue.",0,"html-button-response",22,219046,"0.0-3.0-26.0-0.0",89813,"ListA","woman","english",NA,NA,NA,NA,NA,NA,NA,NA,NA,NA
"32974","<img src='img/portrait_matrix_listA.jpg' style='width:900px;height:500px;''></img><p>If you have memorised all the portraits and names and are ready to start, press Continue.</p><p><strong>Please note: Your memory of these faces will be tested 5 times during this experiment.</strong></p>",0,"html-button-response",23,253028,"0.0-3.1-0.1",89813,"ListA","woman","english",NA,NA,NA,NA,NA,NA,NA,NA,NA,NA
"12976","<img src=""portrait/BW1.jpg""style=""height:400px;""></img>",2,"html-button-response",24,267008,"0.0-3.1-1.1",89813,"ListA","woman","english",NA,TRUE,0,NA,NA,NA,NA,NA,NA,NA
"5185.999999999940","<img src=""portrait/BW1.jpg""style=""height:400px;""></img>",0,"html-button-response",25,273197,"0.0-3.1-3.1-0.1",89813,"ListA","woman","english",NA,FALSE,0,NA,NA,NA,NA,NA,NA,NA
"null","CORRECT",NA,"html-keyboard-response",26,274701,"0.0-3.1-3.1-1.1-0.1",89813,"ListA","woman","english",NA,NA,NA,"null",NA,NA,NA,NA,NA,NA
"2727","<img src=""portrait/BM2.jpg""style=""height:400px;""></img>",5,"html-button-response",27,277430,"0.0-3.1-4.1",89813,"ListA","woman","english",NA,TRUE,5,NA,NA,NA,NA,NA,NA,NA
"null","CORRECT",NA,"html-keyboard-response",28,278933,"0.0-3.1-5.1-0.1",89813,"ListA","woman","english",NA,NA,NA,"null",NA,NA,NA,NA,NA,NA
"20623.0000000001","<img src=""portrait/BW2.jpg""style=""height:400px;""></img>",2,"html-button-response",29,299558,"0.0-3.1-7.1",89813,"ListA","woman","english",NA,TRUE,2,NA,NA,NA,NA,NA,NA,NA
"null","CORRECT",NA,"html-keyboard-response",30,301061,"0.0-3.1-8.1-0.1",89813,"ListA","woman","english",NA,NA,NA,"null",NA,NA,NA,NA,NA,NA
"2246","<img src=""portrait/WM1.jpg""style=""height:400px;""></img>",6,"html-button-response",31,303311,"0.0-3.1-10.1",89813,"ListA","woman","english",NA,TRUE,6,NA,NA,NA,NA,NA,NA,NA
"null","CORRECT",NA,"html-keyboard-response",32,304815,"0.0-3.1-11.1-0.1",89813,"ListA","woman","english",NA,NA,NA,"null",NA,NA,NA,NA,NA,NA
"8087","<img src=""portrait/BM1.jpg""style=""height:400px;""></img>",4,"html-button-response",33,312904,"0.0-3.1-13.1",89813,"ListA","woman","english",NA,TRUE,4,NA,NA,NA,NA,NA,NA,NA
"null","CORRECT",NA,"html-keyboard-response",34,314408,"0.0-3.1-14.1-0.1",89813,"ListA","woman","english",NA,NA,NA,"null",NA,NA,NA,NA,NA,NA
"9008","<img src=""portrait/WW1.jpg""style=""height:400px;""></img>",1,"html-button-response",35,323419,"0.0-3.1-16.1",89813,"ListA","woman","english",NA,TRUE,1,NA,NA,NA,NA,NA,NA,NA
"null","CORRECT",NA,"html-keyboard-response",36,324922,"0.0-3.1-17.1-0.1",89813,"ListA","woman","english",NA,NA,NA,"null",NA,NA,NA,NA,NA,NA
"1762","<img src=""portrait/WM2.jpg""style=""height:400px;""></img>",7,"html-button-response",37,326686,"0.0-3.1-19.1",89813,"ListA","woman","english",NA,TRUE,7,NA,NA,NA,NA,NA,NA,NA
"null","CORRECT",NA,"html-keyboard-response",38,328189,"0.0-3.1-20.1-0.1",89813,"ListA","woman","english",NA,NA,NA,"null",NA,NA,NA,NA,NA,NA
"13541","<img src=""portrait/WW2.jpg""style=""height:400px;""></img>",3,"html-button-response",39,341732,"0.0-3.1-22.1",89813,"ListA","woman","english",NA,TRUE,3,NA,NA,NA,NA,NA,NA,NA
"null","CORRECT",NA,"html-keyboard-response",40,343236,"0.0-3.1-23.1-0.1",89813,"ListA","woman","english",NA,NA,NA,"null",NA,NA,NA,NA,NA,NA
"1883","<p>You got 7 out of 8 right first time. Press Continue.</p>",0,"html-button-response",41,345121,"0.0-3.1-25.1",89813,"ListA","woman","english",NA,NA,NA,NA,NA,NA,NA,NA,NA,NA
"2548","As you did not score 100%, the memory game will repeat. Press Continue.",0,"html-button-response",42,348672,"0.0-3.1-26.1-0.1",89813,"ListA","woman","english",NA,NA,NA,NA,NA,NA,NA,NA,NA,NA
"1747","<img src='img/portrait_matrix_listA.jpg' style='width:900px;height:500px;''></img><p>If you have memorised all the portraits and names and are ready to start, press Continue.</p><p><strong>Please note: Your memory of these faces will be tested 5 times during this experiment.</strong></p>",0,"html-button-response",43,351425,"0.0-3.2-0.2",89813,"ListA","woman","english",NA,NA,NA,NA,NA,NA,NA,NA,NA,NA
"2566","<img src=""portrait/BW1.jpg""style=""height:400px;""></img>",0,"html-button-response",44,354995,"0.0-3.2-1.2",89813,"ListA","woman","english",NA,TRUE,0,NA,NA,NA,NA,NA,NA,NA
"null","CORRECT",NA,"html-keyboard-response",45,356498,"0.0-3.2-2.2-0.2",89813,"ListA","woman","english",NA,NA,NA,"null",NA,NA,NA,NA,NA,NA
"3567","<img src=""portrait/BM2.jpg""style=""height:400px;""></img>",5,"html-button-response",46,360066,"0.0-3.2-4.2",89813,"ListA","woman","english",NA,TRUE,5,NA,NA,NA,NA,NA,NA,NA
"null","CORRECT",NA,"html-keyboard-response",47,361570,"0.0-3.2-5.2-0.2",89813,"ListA","woman","english",NA,NA,NA,"null",NA,NA,NA,NA,NA,NA
"8219","<img src=""portrait/BW2.jpg""style=""height:400px;""></img>",2,"html-button-response",48,369792,"0.0-3.2-7.2",89813,"ListA","woman","english",NA,TRUE,2,NA,NA,NA,NA,NA,NA,NA
"null","CORRECT",NA,"html-keyboard-response",49,371295,"0.0-3.2-8.2-0.2",89813,"ListA","woman","english",NA,NA,NA,"null",NA,NA,NA,NA,NA,NA
"1599.000000000060","<img src=""portrait/WM1.jpg""style=""height:400px;""></img>",6,"html-button-response",50,372896,"0.0-3.2-10.2",89813,"ListA","woman","english",NA,TRUE,6,NA,NA,NA,NA,NA,NA,NA
"null","CORRECT",NA,"html-keyboard-response",51,374399,"0.0-3.2-11.2-0.2",89813,"ListA","woman","english",NA,NA,NA,"null",NA,NA,NA,NA,NA,NA
"3130","<img src=""portrait/BM1.jpg""style=""height:400px;""></img>",4,"html-button-response",52,377531,"0.0-3.2-13.2",89813,"ListA","woman","english",NA,TRUE,4,NA,NA,NA,NA,NA,NA,NA
"null","CORRECT",NA,"html-keyboard-response",53,379034,"0.0-3.2-14.2-0.2",89813,"ListA","woman","english",NA,NA,NA,"null",NA,NA,NA,NA,NA,NA
"8290","<img src=""portrait/WW1.jpg""style=""height:400px;""></img>",1,"html-button-response",54,387326,"0.0-3.2-16.2",89813,"ListA","woman","english",NA,TRUE,1,NA,NA,NA,NA,NA,NA,NA
"null","CORRECT",NA,"html-keyboard-response",55,388830,"0.0-3.2-17.2-0.2",89813,"ListA","woman","english",NA,NA,NA,"null",NA,NA,NA,NA,NA,NA
"5585","<img src=""portrait/WM2.jpg""style=""height:400px;""></img>",7,"html-button-response",56,394417,"0.0-3.2-19.2",89813,"ListA","woman","english",NA,TRUE,7,NA,NA,NA,NA,NA,NA,NA
"null","CORRECT",NA,"html-keyboard-response",57,395920,"0.0-3.2-20.2-0.2",89813,"ListA","woman","english",NA,NA,NA,"null",NA,NA,NA,NA,NA,NA
"2479","<img src=""portrait/WW2.jpg""style=""height:400px;""></img>",3,"html-button-response",58,398402,"0.0-3.2-22.2",89813,"ListA","woman","english",NA,TRUE,3,NA,NA,NA,NA,NA,NA,NA
"null","CORRECT",NA,"html-keyboard-response",59,399905,"0.0-3.2-23.2-0.2",89813,"ListA","woman","english",NA,NA,NA,"null",NA,NA,NA,NA,NA,NA
"5235","<p>You got 8 out of 8 right first time. Press Continue.</p>",0,"html-button-response",60,405142,"0.0-3.2-25.2",89813,"ListA","woman","english",NA,NA,NA,NA,NA,NA,NA,NA,NA,NA
"18118.9999999999","<p>In this experiment, you will view photographs of the people from the memory game.</p><p>By using the <strong>exact</strong> phrase given <i>after</i> the photograph appears and recalling the correct names of the people in the photographs, form a sentence describing an interaction. You do not need to capitalise names.</p><p>Type your answer in the space provided. Please complete every sentence before moving onto the next trial.</p><p>You will only have a few seconds to memorise each given photograph and phrase before you can respond, so try your best to focus.</p><p>An example is given below. Press 'Continue' when you are ready.</p><img src='img/speaking_example.jpg' style='width:800px;height:460px;''></img>",0,"html-button-response",61,424264,"0.0-4.0",89813,"ListA","woman","english",NA,NA,NA,NA,NA,NA,NA,NA,NA,NA
"1398","<p>Before the experiment starts, you will watch two example trials. Press 'Continue'.</p>",0,"html-button-response",62,426664,"0.0-5.0",89813,"ListA","woman","english",NA,NA,NA,NA,NA,NA,NA,NA,NA,NA
"null","<img src='img/meet.gif' style='height:400px;''></img>",NA,"html-keyboard-response",63,429667,"0.0-6.0",89813,"ListA","woman","english",NA,NA,NA,"null",NA,NA,NA,NA,NA,NA
"null","<p>is meeting</p>",NA,"html-keyboard-response",64,431670,"0.0-7.0",89813,"ListA","woman","english",NA,NA,NA,"null",NA,NA,NA,NA,NA,NA
"10222","<p><b>Answer:</b> kate is meeting beth</p>",0,"html-button-response",65,441894,"0.0-8.0",89813,"ListA","woman","english",NA,NA,NA,NA,NA,NA,NA,NA,NA,NA
"null","<img src='img/spy.gif' style='height:400px;''></img>",NA,"html-keyboard-response",66,444898,"0.0-9.0",89813,"ListA","woman","english",NA,NA,NA,"null",NA,NA,NA,NA,NA,NA
"null","<p>is being spied on by</p>",NA,"html-keyboard-response",67,446900,"0.0-10.0",89813,"ListA","woman","english",NA,NA,NA,"null",NA,NA,NA,NA,NA,NA
"2880","<p><b>Answer:</b> luke is being spied on by dave</p>",0,"html-button-response",68,449781,"0.0-11.0",89813,"ListA","woman","english",NA,NA,NA,NA,NA,NA,NA,NA,NA,NA
"2635","<p>Ready to start the experiment?</p><br><p><strong>Remember to describe the picture using a full sentence,</strong></p><p><strong>that combines the names of the people with the <i>exact</i> phrase given.</strong></p><p><strong>To receive full payment you must do this correctly.</strong></p><p><strong> You do not need to capitalise names or use punctuation.</strong></p><br><p>Press 'Continue' to begin.</p>",0,"html-button-response",69,453421,"0.0-12.0",89813,"ListA","woman","english",NA,NA,NA,NA,NA,NA,NA,NA,NA,NA
"null","<div style=""font-size:60px;"">+</div>",NA,"html-keyboard-response",70,454925,"0.0-13.0-0.0",89813,"ListA","woman","english",NA,NA,NA,"null",NA,NA,NA,NA,NA,NA
"null","<img src='gifs/FemaleRace3a.gif' style='height:400px;''></img>",NA,"html-keyboard-response",71,456928,"0.0-13.0-1.0",89813,"ListA","woman","english",NA,NA,NA,"null",NA,NA,NA,NA,NA,NA
"null","is mentioning",NA,"html-keyboard-response",72,459931,"0.0-13.0-2.0",89813,"ListA","woman","english",NA,NA,NA,"null",NA,NA,NA,NA,NA,NA
"23412",NA,NA,"survey-text",73,483370,"0.0-13.0-3.0",89813,"ListA","woman","english",NA,NA,NA,NA,"{""Q0"":""Ruth is mentioning Beth""}","<img src='gifs/FemaleRace3a.gif' style='height:400px;''></img>","mention","is mentioning","english",NA
"null","<div style=""font-size:60px;"">+</div>",NA,"html-keyboard-response",74,483872,"0.0-13.0-0.1",89813,"ListA","woman","english",NA,NA,NA,"null",NA,NA,NA,NA,NA,NA
"null","<img src='gifs/BlackGender3a.gif' style='height:400px;''></img>",NA,"html-keyboard-response",75,485875,"0.0-13.0-1.1",89813,"ListA","woman","english",NA,NA,NA,"null",NA,NA,NA,NA,NA,NA
"null","is touching",NA,"html-keyboard-response",76,488878,"0.0-13.0-2.1",89813,"ListA","woman","english",NA,NA,NA,"null",NA,NA,NA,NA,NA,NA
"11097.9999999999",NA,NA,"survey-text",77,499980,"0.0-13.0-3.1",89813,"ListA","woman","english",NA,NA,NA,NA,"{""Q0"":""Luke is touching Jane""}","<img src='gifs/BlackGender3a.gif' style='height:400px;''></img>","touching","is touching","english",NA
"null","<div style=""font-size:60px;"">+</div>",NA,"html-keyboard-response",78,500481,"0.0-13.0-0.2",89813,"ListA","woman","english",NA,NA,NA,"null",NA,NA,NA,NA,NA,NA
"null","<img src='gifs/ChineseGender1b.gif' style='height:400px;''></img>",NA,"html-keyboard-response",79,502484,"0.0-13.0-1.2",89813,"ListA","woman","english",NA,NA,NA,"null",NA,NA,NA,NA,NA,NA
"null","is mentioning",NA,"html-keyboard-response",80,505486,"0.0-13.0-2.2",89813,"ListA","woman","english",NA,NA,NA,"null",NA,NA,NA,NA,NA,NA
"8888.000000000060",NA,NA,"survey-text",81,514379,"0.0-13.0-3.2",89813,"ListA","woman","english",NA,NA,NA,NA,"{""Q0"":""Fred is mentioning Kate""}","<img src='gifs/ChineseGender1b.gif' style='height:400px;''></img>","mention","is mentioning","english",NA
"null","<div style=""font-size:60px;"">+</div>",NA,"html-keyboard-response",82,514881,"0.0-13.0-0.3",89813,"ListA","woman","english",NA,NA,NA,"null",NA,NA,NA,NA,NA,NA
"null","<img src='gifs/FemaleRace1a.gif' style='height:400px;''></img>",NA,"html-keyboard-response",83,516884,"0.0-13.0-1.3",89813,"ListA","woman","english",NA,NA,NA,"null",NA,NA,NA,NA,NA,NA
"null","is praising",NA,"html-keyboard-response",84,519886,"0.0-13.0-2.3",89813,"ListA","woman","english",NA,NA,NA,"null",NA,NA,NA,NA,NA,NA
"12760",NA,NA,"survey-text",85,532650,"0.0-13.0-3.3",89813,"ListA","woman","english",NA,NA,NA,NA,"{""Q0"":""Kate is praising ruth""}","<img src='gifs/FemaleRace1a.gif' style='height:400px;''></img>","praising","is praising","english",NA
"null","<div style=""font-size:60px;"">+</div>",NA,"html-keyboard-response",86,533152,"0.0-13.0-0.4",89813,"ListA","woman","english",NA,NA,NA,"null",NA,NA,NA,NA,NA,NA
"null","<img src='gifs/BlackGender1a.gif' style='height:400px;''></img>",NA,"html-keyboard-response",87,535154,"0.0-13.0-1.4",89813,"ListA","woman","english",NA,NA,NA,"null",NA,NA,NA,NA,NA,NA
"null","is accompanying",NA,"html-keyboard-response",88,538157,"0.0-13.0-2.4",89813,"ListA","woman","english",NA,NA,NA,"null",NA,NA,NA,NA,NA,NA
"27270.0000000001",NA,NA,"survey-text",89,565430,"0.0-13.0-3.4",89813,"ListA","woman","english",NA,NA,NA,NA,"{""Q0"":""Luke is praising Ruth""}","<img src='gifs/BlackGender1a.gif' style='height:400px;''></img>","accompanying","is accompanying","english",NA
"null","<div style=""font-size:60px;"">+</div>",NA,"html-keyboard-response",90,565932,"0.0-13.0-0.5",89813,"ListA","woman","english",NA,NA,NA,"null",NA,NA,NA,NA,NA,NA
"null","<img src='gifs/ChineseGender2a.gif' style='height:400px;''></img>",NA,"html-keyboard-response",91,567935,"0.0-13.0-1.5",89813,"ListA","woman","english",NA,NA,NA,"null",NA,NA,NA,NA,NA,NA
"null","is listening to",NA,"html-keyboard-response",92,570937,"0.0-13.0-2.5",89813,"ListA","woman","english",NA,NA,NA,"null",NA,NA,NA,NA,NA,NA
"10137.0000000001",NA,NA,"survey-text",93,581078,"0.0-13.0-3.5",89813,"ListA","woman","english",NA,NA,NA,NA,"{""Q0"":""Beth is listening to Fred""}","<img src='gifs/ChineseGender2a.gif' style='height:400px;''></img>","listening to","is listening to","english",NA
"null","<div style=""font-size:60px;"">+</div>",NA,"html-keyboard-response",94,581581,"0.0-13.0-0.6",89813,"ListA","woman","english",NA,NA,NA,"null",NA,NA,NA,NA,NA,NA
"null","<img src='gifs/MaleRace1a.gif' style='height:400px;''></img>",NA,"html-keyboard-response",95,583583,"0.0-13.0-1.6",89813,"ListA","woman","english",NA,NA,NA,"null",NA,NA,NA,NA,NA,NA
"null","is employing",NA,"html-keyboard-response",96,586586,"0.0-13.0-2.6",89813,"ListA","woman","english",NA,NA,NA,"null",NA,NA,NA,NA,NA,NA
"20797.0000000001",NA,NA,"survey-text",97,607386,"0.0-13.0-3.6",89813,"ListA","woman","english",NA,NA,NA,NA,"{""Q0"":""Fred is employing Luke""}","<img src='gifs/MaleRace1a.gif' style='height:400px;''></img>","employing","is employing","english",NA
"null","<div style=""font-size:60px;"">+</div>",NA,"html-keyboard-response",98,607888,"0.0-13.0-0.7",89813,"ListA","woman","english",NA,NA,NA,"null",NA,NA,NA,NA,NA,NA
"null","<img src='gifs/FemaleRace4a.gif' style='height:400px;''></img>",NA,"html-keyboard-response",99,609890,"0.0-13.0-1.7",89813,"ListA","woman","english",NA,NA,NA,"null",NA,NA,NA,NA,NA,NA
"null","is approaching",NA,"html-keyboard-response",100,612892,"0.0-13.0-2.7",89813,"ListA","woman","english",NA,NA,NA,"null",NA,NA,NA,NA,NA,NA
"6822",NA,NA,"survey-text",101,619717,"0.0-13.0-3.7",89813,"ListA","woman","english",NA,NA,NA,NA,"{""Q0"":""Beth is approaching Jane""}","<img src='gifs/FemaleRace4a.gif' style='height:400px;''></img>","approaching","is approaching","english",NA
"null","<div style=""font-size:60px;"">+</div>",NA,"html-keyboard-response",102,620220,"0.0-13.0-0.8",89813,"ListA","woman","english",NA,NA,NA,"null",NA,NA,NA,NA,NA,NA
"null","<img src='gifs/FemaleRace1b.gif' style='height:400px;''></img>",NA,"html-keyboard-response",103,622223,"0.0-13.0-1.8",89813,"ListA","woman","english",NA,NA,NA,"null",NA,NA,NA,NA,NA,NA
"null","is mentioning",NA,"html-keyboard-response",104,625225,"0.0-13.0-2.8",89813,"ListA","woman","english",NA,NA,NA,"null",NA,NA,NA,NA,NA,NA
"13727",NA,NA,"survey-text",105,638955,"0.0-13.0-3.8",89813,"ListA","woman","english",NA,NA,NA,NA,"{""Q0"":""Kate is approximately Ruth""}","<img src='gifs/FemaleRace1b.gif' style='height:400px;''></img>","mention","is mentioning","english",NA
"null","<div style=""font-size:60px;"">+</div>",NA,"html-keyboard-response",106,639458,"0.0-13.0-0.9",89813,"ListA","woman","english",NA,NA,NA,"null",NA,NA,NA,NA,NA,NA
"null","<img src='gifs/MaleRace3b.gif' style='height:400px;''></img>",NA,"html-keyboard-response",107,641460,"0.0-13.0-1.9",89813,"ListA","woman","english",NA,NA,NA,"null",NA,NA,NA,NA,NA,NA
"null","is following",NA,"html-keyboard-response",108,644463,"0.0-13.0-2.9",89813,"ListA","woman","english",NA,NA,NA,"null",NA,NA,NA,NA,NA,NA
"12990.0000000001",NA,NA,"survey-text",109,657457,"0.0-13.0-3.9",89813,"ListA","woman","english",NA,NA,NA,NA,"{""Q0"":""Mike is following?""}","<img src='gifs/MaleRace3b.gif' style='height:400px;''></img>","following","is following","english",NA
"null","<div style=""font-size:60px;"">+</div>",NA,"html-keyboard-response",110,657960,"0.0-13.0-0.10",89813,"ListA","woman","english",NA,NA,NA,"null",NA,NA,NA,NA,NA,NA
"null","<img src='gifs/BlackGender1b.gif' style='height:400px;''></img>",NA,"html-keyboard-response",111,659962,"0.0-13.0-1.10",89813,"ListA","woman","english",NA,NA,NA,"null",NA,NA,NA,NA,NA,NA
"null","is employing",NA,"html-keyboard-response",112,662965,"0.0-13.0-2.10",89813,"ListA","woman","english",NA,NA,NA,"null",NA,NA,NA,NA,NA,NA
"24673",NA,NA,"survey-text",113,687647,"0.0-13.0-3.10",89813,"ListA","woman","english",NA,NA,NA,NA,"{""Q0"":""Luke is employing Ruth""}","<img src='gifs/BlackGender1b.gif' style='height:400px;''></img>","employing","is employing","english",NA
"null","<div style=""font-size:60px;"">+</div>",NA,"html-keyboard-response",114,688156,"0.0-13.0-0.11",89813,"ListA","woman","english",NA,NA,NA,"null",NA,NA,NA,NA,NA,NA
"null","<img src='gifs/ChineseGender2b.gif' style='height:400px;''></img>",NA,"html-keyboard-response",115,690170,"0.0-13.0-1.11",89813,"ListA","woman","english",NA,NA,NA,"null",NA,NA,NA,NA,NA,NA
"null","is joining",NA,"html-keyboard-response",116,693172,"0.0-13.0-2.11",89813,"ListA","woman","english",NA,NA,NA,"null",NA,NA,NA,NA,NA,NA
"7179",NA,NA,"survey-text",117,700369,"0.0-13.0-3.11",89813,"ListA","woman","english",NA,NA,NA,NA,"{""Q0"":""Kate is joining Fred""}","<img src='gifs/ChineseGender2b.gif' style='height:400px;''></img>","join","is joining","english",NA
"null","<div style=""font-size:60px;"">+</div>",NA,"html-keyboard-response",118,700872,"0.0-13.0-0.12",89813,"ListA","woman","english",NA,NA,NA,"null",NA,NA,NA,NA,NA,NA
"null","<img src='gifs/BlackGender1b.gif' style='height:400px;''></img>",NA,"html-keyboard-response",119,702877,"0.0-13.0-1.12",89813,"ListA","woman","english",NA,NA,NA,"null",NA,NA,NA,NA,NA,NA
"null","is facing",NA,"html-keyboard-response",120,705879,"0.0-13.0-2.12",89813,"ListA","woman","english",NA,NA,NA,"null",NA,NA,NA,NA,NA,NA
"5399",NA,NA,"survey-text",121,711283,"0.0-13.0-3.12",89813,"ListA","woman","english",NA,NA,NA,NA,"{""Q0"":""Ruth is facing Luke""}","<img src='gifs/BlackGender1b.gif' style='height:400px;''></img>","facing","is facing","english",NA
"null","<div style=""font-size:60px;"">+</div>",NA,"html-keyboard-response",122,711785,"0.0-13.0-0.13",89813,"ListA","woman","english",NA,NA,NA,"null",NA,NA,NA,NA,NA,NA
"null","<img src='gifs/MaleRace4b.gif' style='height:400px;''></img>",NA,"html-keyboard-response",123,713788,"0.0-13.0-1.13",89813,"ListA","woman","english",NA,NA,NA,"null",NA,NA,NA,NA,NA,NA
"null","is accompanying",NA,"html-keyboard-response",124,716791,"0.0-13.0-2.13",89813,"ListA","woman","english",NA,NA,NA,"null",NA,NA,NA,NA,NA,NA
"15102",NA,NA,"survey-text",125,731897,"0.0-13.0-3.13",89813,"ListA","woman","english",NA,NA,NA,NA,"{""Q0"":""Mike is accompanying Dave""}","<img src='gifs/MaleRace4b.gif' style='height:400px;''></img>","accompanying","is accompanying","english",NA
"null","<div style=""font-size:60px;"">+</div>",NA,"html-keyboard-response",126,732399,"0.0-13.0-0.14",89813,"ListA","woman","english",NA,NA,NA,"null",NA,NA,NA,NA,NA,NA
"null","<img src='gifs/MaleRace1b.gif' style='height:400px;''></img>",NA,"html-keyboard-response",127,734402,"0.0-13.0-1.14",89813,"ListA","woman","english",NA,NA,NA,"null",NA,NA,NA,NA,NA,NA
"null","is touching",NA,"html-keyboard-response",128,737405,"0.0-13.0-2.14",89813,"ListA","woman","english",NA,NA,NA,"null",NA,NA,NA,NA,NA,NA
"7521",NA,NA,"survey-text",129,744930,"0.0-13.0-3.14",89813,"ListA","woman","english",NA,NA,NA,NA,"{""Q0"":""Fred is touching Luke""}","<img src='gifs/MaleRace1b.gif' style='height:400px;''></img>","touching","is touching","english",NA
"null","<div style=""font-size:60px;"">+</div>",NA,"html-keyboard-response",130,745432,"0.0-13.0-0.15",89813,"ListA","woman","english",NA,NA,NA,"null",NA,NA,NA,NA,NA,NA
"null","<img src='gifs/ChineseGender3b.gif' style='height:400px;''></img>",NA,"html-keyboard-response",131,747435,"0.0-13.0-1.15",89813,"ListA","woman","english",NA,NA,NA,"null",NA,NA,NA,NA,NA,NA
"null","is walking towards",NA,"html-keyboard-response",132,750438,"0.0-13.0-2.15",89813,"ListA","woman","english",NA,NA,NA,"null",NA,NA,NA,NA,NA,NA
"12271",NA,NA,"survey-text",133,762713,"0.0-13.0-3.15",89813,"ListA","woman","english",NA,NA,NA,NA,"{""Q0"":""Mike is walking toward Kate""}","<img src='gifs/ChineseGender3b.gif' style='height:400px;''></img>","walking towards","is walking towards","english",NA
"null","<div style=""font-size:60px;"">+</div>",NA,"html-keyboard-response",134,763216,"0.0-13.0-0.16",89813,"ListA","woman","english",NA,NA,NA,"null",NA,NA,NA,NA,NA,NA
"null","<img src='gifs/MaleRace2a.gif' style='height:400px;''></img>",NA,"html-keyboard-response",135,765218,"0.0-13.0-1.16",89813,"ListA","woman","english",NA,NA,NA,"null",NA,NA,NA,NA,NA,NA
"null","is facing",NA,"html-keyboard-response",136,768220,"0.0-13.0-2.16",89813,"ListA","woman","english",NA,NA,NA,"null",NA,NA,NA,NA,NA,NA
"10250",NA,NA,"survey-text",137,778475,"0.0-13.0-3.16",89813,"ListA","woman","english",NA,NA,NA,NA,"{""Q0"":""🥹""}","<img src='gifs/MaleRace2a.gif' style='height:400px;''></img>","facing","is facing","english",NA
"null","<div style=""font-size:60px;"">+</div>",NA,"html-keyboard-response",138,778977,"0.0-13.0-0.17",89813,"ListA","woman","english",NA,NA,NA,"null",NA,NA,NA,NA,NA,NA
"null","<img src='gifs/FemaleRace1a.gif' style='height:400px;''></img>",NA,"html-keyboard-response",139,780980,"0.0-13.0-1.17",89813,"ListA","woman","english",NA,NA,NA,"null",NA,NA,NA,NA,NA,NA
"null","is promising",NA,"html-keyboard-response",140,783983,"0.0-13.0-2.17",89813,"ListA","woman","english",NA,NA,NA,"null",NA,NA,NA,NA,NA,NA
"7065",NA,NA,"survey-text",141,791052,"0.0-13.0-3.17",89813,"ListA","woman","english",NA,NA,NA,NA,"{""Q0"":""Kate is promising Ruth""}","<img src='gifs/FemaleRace1a.gif' style='height:400px;''></img>","promising","is promising","english",NA
"15057.9999999999","<img src='img/portrait_matrix_listA.jpg' style='width:900px;height:500px;''></img><p>If you have memorised all the portraits and names and are ready to start, press Continue.</p><p><strong>Please note: Your memory of these faces will be tested 5 times during this experiment.</strong></p>",0,"html-button-response",142,806115,"0.0-14.0-0.0",89813,"ListA","woman","english",NA,NA,NA,NA,NA,NA,NA,NA,NA,NA
"2937","<img src=""portrait/BM2.jpg""style=""height:400px;""></img>",5,"html-button-response",143,810058,"0.0-14.0-1.0",89813,"ListA","woman","english",NA,TRUE,5,NA,NA,NA,NA,NA,NA,NA
"null","CORRECT",NA,"html-keyboard-response",144,811567,"0.0-14.0-2.0-0.0",89813,"ListA","woman","english",NA,NA,NA,"null",NA,NA,NA,NA,NA,NA
"1924","<img src=""portrait/WM2.jpg""style=""height:400px;""></img>",7,"html-button-response",145,813494,"0.0-14.0-4.0",89813,"ListA","woman","english",NA,TRUE,7,NA,NA,NA,NA,NA,NA,NA
"null","CORRECT",NA,"html-keyboard-response",146,814998,"0.0-14.0-5.0-0.0",89813,"ListA","woman","english",NA,NA,NA,"null",NA,NA,NA,NA,NA,NA
"3465","<img src=""portrait/WW2.jpg""style=""height:400px;""></img>",3,"html-button-response",147,818467,"0.0-14.0-7.0",89813,"ListA","woman","english",NA,TRUE,3,NA,NA,NA,NA,NA,NA,NA
"null","CORRECT",NA,"html-keyboard-response",148,819971,"0.0-14.0-8.0-0.0",89813,"ListA","woman","english",NA,NA,NA,"null",NA,NA,NA,NA,NA,NA
"3465.999999999880","<img src=""portrait/WW1.jpg""style=""height:400px;""></img>",3,"html-button-response",149,823439,"0.0-14.0-10.0",89813,"ListA","woman","english",NA,TRUE,1,NA,NA,NA,NA,NA,NA,NA
"2130.999999999880","<img src=""portrait/WW1.jpg""style=""height:400px;""></img>",1,"html-button-response",150,826576,"0.0-14.0-12.0-0.0",89813,"ListA","woman","english",NA,FALSE,1,NA,NA,NA,NA,NA,NA,NA
"null","CORRECT",NA,"html-keyboard-response",151,828079,"0.0-14.0-12.0-1.0-0.0",89813,"ListA","woman","english",NA,NA,NA,"null",NA,NA,NA,NA,NA,NA
"6667","<img src=""portrait/BM1.jpg""style=""height:400px;""></img>",4,"html-button-response",152,834749,"0.0-14.0-13.0",89813,"ListA","woman","english",NA,TRUE,4,NA,NA,NA,NA,NA,NA,NA
"null","CORRECT",NA,"html-keyboard-response",153,836253,"0.0-14.0-14.0-0.0",89813,"ListA","woman","english",NA,NA,NA,"null",NA,NA,NA,NA,NA,NA
"1714","<img src=""portrait/BW1.jpg""style=""height:400px;""></img>",0,"html-button-response",154,837970,"0.0-14.0-16.0",89813,"ListA","woman","english",NA,TRUE,0,NA,NA,NA,NA,NA,NA,NA
"null","CORRECT",NA,"html-keyboard-response",155,839473,"0.0-14.0-17.0-0.0",89813,"ListA","woman","english",NA,NA,NA,"null",NA,NA,NA,NA,NA,NA
"1598","<img src=""portrait/WM1.jpg""style=""height:400px;""></img>",6,"html-button-response",156,841073,"0.0-14.0-19.0",89813,"ListA","woman","english",NA,TRUE,6,NA,NA,NA,NA,NA,NA,NA
"null","CORRECT",NA,"html-keyboard-response",157,842576,"0.0-14.0-20.0-0.0",89813,"ListA","woman","english",NA,NA,NA,"null",NA,NA,NA,NA,NA,NA
"2713.999999999880","<img src=""portrait/BW2.jpg""style=""height:400px;""></img>",2,"html-button-response",158,845293,"0.0-14.0-22.0",89813,"ListA","woman","english",NA,TRUE,2,NA,NA,NA,NA,NA,NA,NA
"null","CORRECT",NA,"html-keyboard-response",159,846797,"0.0-14.0-23.0-0.0",89813,"ListA","woman","english",NA,NA,NA,"null",NA,NA,NA,NA,NA,NA
"1245.999999999880","<p>You got 7 out of 8 right first time. Press Continue.</p>",0,"html-button-response",160,848045,"0.0-14.0-25.0",89813,"ListA","woman","english",NA,NA,NA,NA,NA,NA,NA,NA,NA,NA
"2451","As you did not score 100%, the memory game will repeat. Press Continue.",0,"html-button-response",161,851499,"0.0-14.0-26.0-0.0",89813,"ListA","woman","english",NA,NA,NA,NA,NA,NA,NA,NA,NA,NA
"4141","<img src='img/portrait_matrix_listA.jpg' style='width:900px;height:500px;''></img><p>If you have memorised all the portraits and names and are ready to start, press Continue.</p><p><strong>Please note: Your memory of these faces will be tested 5 times during this experiment.</strong></p>",0,"html-button-response",162,856644,"0.0-14.1-0.1",89813,"ListA","woman","english",NA,NA,NA,NA,NA,NA,NA,NA,NA,NA
"2226","<img src=""portrait/BM2.jpg""style=""height:400px;""></img>",5,"html-button-response",163,859874,"0.0-14.1-1.1",89813,"ListA","woman","english",NA,TRUE,5,NA,NA,NA,NA,NA,NA,NA
"null","CORRECT",NA,"html-keyboard-response",164,861380,"0.0-14.1-2.1-0.1",89813,"ListA","woman","english",NA,NA,NA,"null",NA,NA,NA,NA,NA,NA
"2678","<img src=""portrait/WM2.jpg""style=""height:400px;""></img>",7,"html-button-response",165,864062,"0.0-14.1-4.1",89813,"ListA","woman","english",NA,TRUE,7,NA,NA,NA,NA,NA,NA,NA
"null","CORRECT",NA,"html-keyboard-response",166,865566,"0.0-14.1-5.1-0.1",89813,"ListA","woman","english",NA,NA,NA,"null",NA,NA,NA,NA,NA,NA
"2563.999999999880","<img src=""portrait/WW2.jpg""style=""height:400px;""></img>",3,"html-button-response",167,868132,"0.0-14.1-7.1",89813,"ListA","woman","english",NA,TRUE,3,NA,NA,NA,NA,NA,NA,NA
"null","CORRECT",NA,"html-keyboard-response",168,869635,"0.0-14.1-8.1-0.1",89813,"ListA","woman","english",NA,NA,NA,"null",NA,NA,NA,NA,NA,NA
"5218","<img src=""portrait/WW1.jpg""style=""height:400px;""></img>",1,"html-button-response",169,874856,"0.0-14.1-10.1",89813,"ListA","woman","english",NA,TRUE,1,NA,NA,NA,NA,NA,NA,NA
"null","CORRECT",NA,"html-keyboard-response",170,876359,"0.0-14.1-11.1-0.1",89813,"ListA","woman","english",NA,NA,NA,"null",NA,NA,NA,NA,NA,NA
"2494","<img src=""portrait/BM1.jpg""style=""height:400px;""></img>",4,"html-button-response",171,878856,"0.0-14.1-13.1",89813,"ListA","woman","english",NA,TRUE,4,NA,NA,NA,NA,NA,NA,NA
"null","CORRECT",NA,"html-keyboard-response",172,880358,"0.0-14.1-14.1-0.1",89813,"ListA","woman","english",NA,NA,NA,"null",NA,NA,NA,NA,NA,NA
"1504","<img src=""portrait/BW1.jpg""style=""height:400px;""></img>",0,"html-button-response",173,881863,"0.0-14.1-16.1",89813,"ListA","woman","english",NA,TRUE,0,NA,NA,NA,NA,NA,NA,NA
"null","CORRECT",NA,"html-keyboard-response",174,883366,"0.0-14.1-17.1-0.1",89813,"ListA","woman","english",NA,NA,NA,"null",NA,NA,NA,NA,NA,NA
"1814","<img src=""portrait/WM1.jpg""style=""height:400px;""></img>",6,"html-button-response",175,885184,"0.0-14.1-19.1",89813,"ListA","woman","english",NA,TRUE,6,NA,NA,NA,NA,NA,NA,NA
"null","CORRECT",NA,"html-keyboard-response",176,886687,"0.0-14.1-20.1-0.1",89813,"ListA","woman","english",NA,NA,NA,"null",NA,NA,NA,NA,NA,NA
"3482","<img src=""portrait/BW2.jpg""style=""height:400px;""></img>",2,"html-button-response",177,890172,"0.0-14.1-22.1",89813,"ListA","woman","english",NA,TRUE,2,NA,NA,NA,NA,NA,NA,NA
"null","CORRECT",NA,"html-keyboard-response",178,891675,"0.0-14.1-23.1-0.1",89813,"ListA","woman","english",NA,NA,NA,"null",NA,NA,NA,NA,NA,NA
"1094.999999999880","<p>You got 8 out of 8 right first time. Press Continue.</p>",0,"html-button-response",179,892774,"0.0-14.1-25.1",89813,"ListA","woman","english",NA,NA,NA,NA,NA,NA,NA,NA,NA,NA
"null","<div style=""font-size:60px;"">+</div>",NA,"html-keyboard-response",180,894278,"0.0-15.0-0.0",89813,"ListA","woman","english",NA,NA,NA,"null",NA,NA,NA,NA,NA,NA
"null","<img src='gifs/BlackGender2a.gif' style='height:400px;''></img>",NA,"html-keyboard-response",181,896282,"0.0-15.0-1.0",89813,"ListA","woman","english",NA,NA,NA,"null",NA,NA,NA,NA,NA,NA
"null","is contacting",NA,"html-keyboard-response",182,899284,"0.0-15.0-2.0",89813,"ListA","woman","english",NA,NA,NA,"null",NA,NA,NA,NA,NA,NA
"8548",NA,NA,"survey-text",183,907841,"0.0-15.0-3.0",89813,"ListA","woman","english",NA,NA,NA,NA,"{""Q0"":""Dave Ruth""}","<img src='gifs/BlackGender2a.gif' style='height:400px;''></img>","contacting","is contacting","english",NA
"null","<div style=""font-size:60px;"">+</div>",NA,"html-keyboard-response",184,908343,"0.0-15.0-0.1",89813,"ListA","woman","english",NA,NA,NA,"null",NA,NA,NA,NA,NA,NA
"null","<img src='gifs/FemaleRace1b.gif' style='height:400px;''></img>",NA,"html-keyboard-response",185,910346,"0.0-15.0-1.1",89813,"ListA","woman","english",NA,NA,NA,"null",NA,NA,NA,NA,NA,NA
"null","is promising",NA,"html-keyboard-response",186,913349,"0.0-15.0-2.1",89813,"ListA","woman","english",NA,NA,NA,"null",NA,NA,NA,NA,NA,NA
"4013",NA,NA,"survey-text",187,917367,"0.0-15.0-3.1",89813,"ListA","woman","english",NA,NA,NA,NA,"{""Q0"":""Ruth Kate""}","<img src='gifs/FemaleRace1b.gif' style='height:400px;''></img>","promising","is promising","english",NA
"null","<div style=""font-size:60px;"">+</div>",NA,"html-keyboard-response",188,917869,"0.0-15.0-0.2",89813,"ListA","woman","english",NA,NA,NA,"null",NA,NA,NA,NA,NA,NA
"null","<img src='gifs/FemaleRace2b.gif' style='height:400px;''></img>",NA,"html-keyboard-response",189,919872,"0.0-15.0-1.2",89813,"ListA","woman","english",NA,NA,NA,"null",NA,NA,NA,NA,NA,NA
"null","is introducing",NA,"html-keyboard-response",190,922874,"0.0-15.0-2.2",89813,"ListA","woman","english",NA,NA,NA,"null",NA,NA,NA,NA,NA,NA
"7016.000000000120",NA,NA,"survey-text",191,929894,"0.0-15.0-3.2",89813,"ListA","woman","english",NA,NA,NA,NA,"{""Q0"":""Kate Jane""}","<img src='gifs/FemaleRace2b.gif' style='height:400px;''></img>","introducing","is introducing","english",NA
"null","<div style=""font-size:60px;"">+</div>",NA,"html-keyboard-response",192,930396,"0.0-15.0-0.3",89813,"ListA","woman","english",NA,NA,NA,"null",NA,NA,NA,NA,NA,NA
"null","<img src='gifs/MaleRace3a.gif' style='height:400px;''></img>",NA,"html-keyboard-response",193,932400,"0.0-15.0-1.3",89813,"ListA","woman","english",NA,NA,NA,"null",NA,NA,NA,NA,NA,NA
"null","is convincing",NA,"html-keyboard-response",194,935403,"0.0-15.0-2.3",89813,"ListA","woman","english",NA,NA,NA,"null",NA,NA,NA,NA,NA,NA
"29737.0000000001",NA,NA,"survey-text",195,965144,"0.0-15.0-3.3",89813,"ListA","woman","english",NA,NA,NA,NA,"{""Q0"":""Mike is convincing Dave""}","<img src='gifs/MaleRace3a.gif' style='height:400px;''></img>","convincing","is convincing","english",NA
"null","<div style=""font-size:60px;"">+</div>",NA,"html-keyboard-response",196,965646,"0.0-15.0-0.4",89813,"ListA","woman","english",NA,NA,NA,"null",NA,NA,NA,NA,NA,NA
"null","<img src='gifs/FemaleRace4b.gif' style='height:400px;''></img>",NA,"html-keyboard-response",197,967648,"0.0-15.0-1.4",89813,"ListA","woman","english",NA,NA,NA,"null",NA,NA,NA,NA,NA,NA
"null","is accompanying",NA,"html-keyboard-response",198,970651,"0.0-15.0-2.4",89813,"ListA","woman","english",NA,NA,NA,"null",NA,NA,NA,NA,NA,NA
"10240",NA,NA,"survey-text",199,980894,"0.0-15.0-3.4",89813,"ListA","woman","english",NA,NA,NA,NA,"{""Q0"":""Kate is accompanying Jane""}","<img src='gifs/FemaleRace4b.gif' style='height:400px;''></img>","accompanying","is accompanying","english",NA
"null","<div style=""font-size:60px;"">+</div>",NA,"html-keyboard-response",200,981396,"0.0-15.0-0.5",89813,"ListA","woman","english",NA,NA,NA,"null",NA,NA,NA,NA,NA,NA
"null","<img src='gifs/FemaleRace3a.gif' style='height:400px;''></img>",NA,"html-keyboard-response",201,983399,"0.0-15.0-1.5",89813,"ListA","woman","english",NA,NA,NA,"null",NA,NA,NA,NA,NA,NA
"null","is praising",NA,"html-keyboard-response",202,986401,"0.0-15.0-2.5",89813,"ListA","woman","english",NA,NA,NA,"null",NA,NA,NA,NA,NA,NA
"9618.000000000120",NA,NA,"survey-text",203,996024,"0.0-15.0-3.5",89813,"ListA","woman","english",NA,NA,NA,NA,"{""Q0"":""Kate is praising Ruth""}","<img src='gifs/FemaleRace3a.gif' style='height:400px;''></img>","praising","is praising","english",NA
"null","<div style=""font-size:60px;"">+</div>",NA,"html-keyboard-response",204,996526,"0.0-15.0-0.6",89813,"ListA","woman","english",NA,NA,NA,"null",NA,NA,NA,NA,NA,NA
"null","<img src='gifs/FemaleRace2a.gif' style='height:400px;''></img>",NA,"html-keyboard-response",205,998529,"0.0-15.0-1.6",89813,"ListA","woman","english",NA,NA,NA,"null",NA,NA,NA,NA,NA,NA
"null","is facing",NA,"html-keyboard-response",206,1001532,"0.0-15.0-2.6",89813,"ListA","woman","english",NA,NA,NA,"null",NA,NA,NA,NA,NA,NA
"6607.000000000120",NA,NA,"survey-text",207,1008142,"0.0-15.0-3.6",89813,"ListA","woman","english",NA,NA,NA,NA,"{""Q0"":""Kate is facing Jane""}","<img src='gifs/FemaleRace2a.gif' style='height:400px;''></img>","facing","is facing","english",NA
"null","<div style=""font-size:60px;"">+</div>",NA,"html-keyboard-response",208,1008644,"0.0-15.0-0.7",89813,"ListA","woman","english",NA,NA,NA,"null",NA,NA,NA,NA,NA,NA
"null","<img src='gifs/BlackGender4a.gif' style='height:400px;''></img>",NA,"html-keyboard-response",209,1010647,"0.0-15.0-1.7",89813,"ListA","woman","english",NA,NA,NA,"null",NA,NA,NA,NA,NA,NA
"null","is following",NA,"html-keyboard-response",210,1013649,"0.0-15.0-2.7",89813,"ListA","woman","english",NA,NA,NA,"null",NA,NA,NA,NA,NA,NA
"6431.999999999880",NA,NA,"survey-text",211,1020085,"0.0-15.0-3.7",89813,"ListA","woman","english",NA,NA,NA,NA,"{""Q0"":""Dave is following Jane""}","<img src='gifs/BlackGender4a.gif' style='height:400px;''></img>","following","is following","english",NA
"null","<div style=""font-size:60px;"">+</div>",NA,"html-keyboard-response",212,1020587,"0.0-15.0-0.8",89813,"ListA","woman","english",NA,NA,NA,"null",NA,NA,NA,NA,NA,NA
"null","<img src='gifs/ChineseGender1a.gif' style='height:400px;''></img>",NA,"html-keyboard-response",213,1022591,"0.0-15.0-1.8",89813,"ListA","woman","english",NA,NA,NA,"null",NA,NA,NA,NA,NA,NA
"null","is contacting",NA,"html-keyboard-response",214,1025593,"0.0-15.0-2.8",89813,"ListA","woman","english",NA,NA,NA,"null",NA,NA,NA,NA,NA,NA
"7154",NA,NA,"survey-text",215,1032751,"0.0-15.0-3.8",89813,"ListA","woman","english",NA,NA,NA,NA,"{""Q0"":""Fred is contacting Ruth""}","<img src='gifs/ChineseGender1a.gif' style='height:400px;''></img>","contacting","is contacting","english",NA
"null","<div style=""font-size:60px;"">+</div>",NA,"html-keyboard-response",216,1033253,"0.0-15.0-0.9",89813,"ListA","woman","english",NA,NA,NA,"null",NA,NA,NA,NA,NA,NA
"null","<img src='gifs/MaleRace4b.gif' style='height:400px;''></img>",NA,"html-keyboard-response",217,1035256,"0.0-15.0-1.9",89813,"ListA","woman","english",NA,NA,NA,"null",NA,NA,NA,NA,NA,NA
"null","is accompanying",NA,"html-keyboard-response",218,1038259,"0.0-15.0-2.9",89813,"ListA","woman","english",NA,NA,NA,"null",NA,NA,NA,NA,NA,NA
"8503.000000000229",NA,NA,"survey-text",219,1046765,"0.0-15.0-3.9",89813,"ListA","woman","english",NA,NA,NA,NA,"{""Q0"":""Mike is accompanying Dave""}","<img src='gifs/MaleRace4b.gif' style='height:400px;''></img>","accompanying","is accompanying","english",NA
"null","<div style=""font-size:60px;"">+</div>",NA,"html-keyboard-response",220,1047267,"0.0-15.0-0.10",89813,"ListA","woman","english",NA,NA,NA,"null",NA,NA,NA,NA,NA,NA
"null","<img src='gifs/ChineseGender3b.gif' style='height:400px;''></img>",NA,"html-keyboard-response",221,1049270,"0.0-15.0-1.10",89813,"ListA","woman","english",NA,NA,NA,"null",NA,NA,NA,NA,NA,NA
"null","is following",NA,"html-keyboard-response",222,1052273,"0.0-15.0-2.10",89813,"ListA","woman","english",NA,NA,NA,"null",NA,NA,NA,NA,NA,NA
"7484",NA,NA,"survey-text",223,1059760,"0.0-15.0-3.10",89813,"ListA","woman","english",NA,NA,NA,NA,"{""Q0"":""Mike is following Kate""}","<img src='gifs/ChineseGender3b.gif' style='height:400px;''></img>","following","is following","english",NA
"null","<div style=""font-size:60px;"">+</div>",NA,"html-keyboard-response",224,1060263,"0.0-15.0-0.11",89813,"ListA","woman","english",NA,NA,NA,"null",NA,NA,NA,NA,NA,NA
"null","<img src='gifs/BlackGender3b.gif' style='height:400px;''></img>",NA,"html-keyboard-response",225,1062265,"0.0-15.0-1.11",89813,"ListA","woman","english",NA,NA,NA,"null",NA,NA,NA,NA,NA,NA
"null","is approaching",NA,"html-keyboard-response",226,1065268,"0.0-15.0-2.11",89813,"ListA","woman","english",NA,NA,NA,"null",NA,NA,NA,NA,NA,NA
"12975",NA,NA,"survey-text",227,1078247,"0.0-15.0-3.11",89813,"ListA","woman","english",NA,NA,NA,NA,"{""Q0"":""Luke is approaching Jane""}","<img src='gifs/BlackGender3b.gif' style='height:400px;''></img>","approaching","is approaching","english",NA
"null","<div style=""font-size:60px;"">+</div>",NA,"html-keyboard-response",228,1078749,"0.0-15.0-0.12",89813,"ListA","woman","english",NA,NA,NA,"null",NA,NA,NA,NA,NA,NA
"null","<img src='gifs/ChineseGender4b.gif' style='height:400px;''></img>",NA,"html-keyboard-response",229,1080752,"0.0-15.0-1.12",89813,"ListA","woman","english",NA,NA,NA,"null",NA,NA,NA,NA,NA,NA
"null","is praising",NA,"html-keyboard-response",230,1083754,"0.0-15.0-2.12",89813,"ListA","woman","english",NA,NA,NA,"null",NA,NA,NA,NA,NA,NA
"8022",NA,NA,"survey-text",231,1091780,"0.0-15.0-3.12",89813,"ListA","woman","english",NA,NA,NA,NA,"{""Q0"":""Mike is praising Kate""}","<img src='gifs/ChineseGender4b.gif' style='height:400px;''></img>","praising","is praising","english",NA
"null","<div style=""font-size:60px;"">+</div>",NA,"html-keyboard-response",232,1092282,"0.0-15.0-0.13",89813,"ListA","woman","english",NA,NA,NA,"null",NA,NA,NA,NA,NA,NA
"null","<img src='gifs/ChineseGender3a.gif' style='height:400px;''></img>",NA,"html-keyboard-response",233,1094287,"0.0-15.0-1.13",89813,"ListA","woman","english",NA,NA,NA,"null",NA,NA,NA,NA,NA,NA
"null","is listening to",NA,"html-keyboard-response",234,1097289,"0.0-15.0-2.13",89813,"ListA","woman","english",NA,NA,NA,"null",NA,NA,NA,NA,NA,NA
"6979",NA,NA,"survey-text",235,1104272,"0.0-15.0-3.13",89813,"ListA","woman","english",NA,NA,NA,NA,"{""Q0"":""Kate is listening to Mike""}","<img src='gifs/ChineseGender3a.gif' style='height:400px;''></img>","listening to","is listening to","english",NA
"null","<div style=""font-size:60px;"">+</div>",NA,"html-keyboard-response",236,1104774,"0.0-15.0-0.14",89813,"ListA","woman","english",NA,NA,NA,"null",NA,NA,NA,NA,NA,NA
"null","<img src='gifs/ChineseGender2a.gif' style='height:400px;''></img>",NA,"html-keyboard-response",237,1106777,"0.0-15.0-1.14",89813,"ListA","woman","english",NA,NA,NA,"null",NA,NA,NA,NA,NA,NA
"null","is looking at",NA,"html-keyboard-response",238,1109779,"0.0-15.0-2.14",89813,"ListA","woman","english",NA,NA,NA,"null",NA,NA,NA,NA,NA,NA
"6136.999999999770",NA,NA,"survey-text",239,1115920,"0.0-15.0-3.14",89813,"ListA","woman","english",NA,NA,NA,NA,"{""Q0"":""Kate is looking at Fred""}","<img src='gifs/ChineseGender2a.gif' style='height:400px;''></img>","looking at","is looking at","english",NA
"null","<div style=""font-size:60px;"">+</div>",NA,"html-keyboard-response",240,1116422,"0.0-15.0-0.15",89813,"ListA","woman","english",NA,NA,NA,"null",NA,NA,NA,NA,NA,NA
"null","<img src='gifs/MaleRace4a.gif' style='height:400px;''></img>",NA,"html-keyboard-response",241,1118425,"0.0-15.0-1.15",89813,"ListA","woman","english",NA,NA,NA,"null",NA,NA,NA,NA,NA,NA
"null","is joining",NA,"html-keyboard-response",242,1121428,"0.0-15.0-2.15",89813,"ListA","woman","english",NA,NA,NA,"null",NA,NA,NA,NA,NA,NA
"9918.000000000229",NA,NA,"survey-text",243,1131349,"0.0-15.0-3.15",89813,"ListA","woman","english",NA,NA,NA,NA,"{""Q0"":""Dave is joining Mike""}","<img src='gifs/MaleRace4a.gif' style='height:400px;''></img>","join","is joining","english",NA
"null","<div style=""font-size:60px;"">+</div>",NA,"html-keyboard-response",244,1131851,"0.0-15.0-0.16",89813,"ListA","woman","english",NA,NA,NA,"null",NA,NA,NA,NA,NA,NA
"null","<img src='gifs/MaleRace3a.gif' style='height:400px;''></img>",NA,"html-keyboard-response",245,1133854,"0.0-15.0-1.16",89813,"ListA","woman","english",NA,NA,NA,"null",NA,NA,NA,NA,NA,NA
"null","is employing",NA,"html-keyboard-response",246,1136856,"0.0-15.0-2.16",89813,"ListA","woman","english",NA,NA,NA,"null",NA,NA,NA,NA,NA,NA
"6837.999999999770",NA,NA,"survey-text",247,1143697,"0.0-15.0-3.16",89813,"ListA","woman","english",NA,NA,NA,NA,"{""Q0"":""Luke is employing Mike""}","<img src='gifs/MaleRace3a.gif' style='height:400px;''></img>","employing","is employing","english",NA
"null","<div style=""font-size:60px;"">+</div>",NA,"html-keyboard-response",248,1144199,"0.0-15.0-0.17",89813,"ListA","woman","english",NA,NA,NA,"null",NA,NA,NA,NA,NA,NA
"null","<img src='gifs/ChineseGender1a.gif' style='height:400px;''></img>",NA,"html-keyboard-response",249,1146202,"0.0-15.0-1.17",89813,"ListA","woman","english",NA,NA,NA,"null",NA,NA,NA,NA,NA,NA
"null","is joining",NA,"html-keyboard-response",250,1149205,"0.0-15.0-2.17",89813,"ListA","woman","english",NA,NA,NA,"null",NA,NA,NA,NA,NA,NA
"5852",NA,NA,"survey-text",251,1155060,"0.0-15.0-3.17",89813,"ListA","woman","english",NA,NA,NA,NA,"{""Q0"":""Kate is joining Fred""}","<img src='gifs/ChineseGender1a.gif' style='height:400px;''></img>","join","is joining","english",NA
"1730","<img src='img/portrait_matrix_listA.jpg' style='width:900px;height:500px;''></img><p>If you have memorised all the portraits and names and are ready to start, press Continue.</p><p><strong>Please note: Your memory of these faces will be tested 5 times during this experiment.</strong></p>",0,"html-button-response",252,1156792,"0.0-16.0-0.0",89813,"ListA","woman","english",NA,NA,NA,NA,NA,NA,NA,NA,NA,NA
"3034","<img src=""portrait/WM1.jpg""style=""height:400px;""></img>",6,"html-button-response",253,1160829,"0.0-16.0-1.0",89813,"ListA","woman","english",NA,TRUE,6,NA,NA,NA,NA,NA,NA,NA
"null","CORRECT",NA,"html-keyboard-response",254,1162332,"0.0-16.0-2.0-0.0",89813,"ListA","woman","english",NA,NA,NA,"null",NA,NA,NA,NA,NA,NA
"1948.000000000230","<img src=""portrait/BM2.jpg""style=""height:400px;""></img>",5,"html-button-response",255,1164283,"0.0-16.0-4.0",89813,"ListA","woman","english",NA,TRUE,5,NA,NA,NA,NA,NA,NA,NA
"null","CORRECT",NA,"html-keyboard-response",256,1165786,"0.0-16.0-5.0-0.0",89813,"ListA","woman","english",NA,NA,NA,"null",NA,NA,NA,NA,NA,NA
"4582","<img src=""portrait/WW1.jpg""style=""height:400px;""></img>",3,"html-button-response",257,1170371,"0.0-16.0-7.0",89813,"ListA","woman","english",NA,TRUE,1,NA,NA,NA,NA,NA,NA,NA
"7171","<img src=""portrait/WW1.jpg""style=""height:400px;""></img>",1,"html-button-response",258,1178546,"0.0-16.0-9.0-0.0",89813,"ListA","woman","english",NA,FALSE,1,NA,NA,NA,NA,NA,NA,NA
"null","CORRECT",NA,"html-keyboard-response",259,1180050,"0.0-16.0-9.0-1.0-0.0",89813,"ListA","woman","english",NA,NA,NA,"null",NA,NA,NA,NA,NA,NA
"3695","<img src=""portrait/WM2.jpg""style=""height:400px;""></img>",7,"html-button-response",260,1183750,"0.0-16.0-10.0",89813,"ListA","woman","english",NA,TRUE,7,NA,NA,NA,NA,NA,NA,NA
"null","CORRECT",NA,"html-keyboard-response",261,1185254,"0.0-16.0-11.0-0.0",89813,"ListA","woman","english",NA,NA,NA,"null",NA,NA,NA,NA,NA,NA
"2297","<img src=""portrait/BW2.jpg""style=""height:400px;""></img>",2,"html-button-response",262,1187554,"0.0-16.0-13.0",89813,"ListA","woman","english",NA,TRUE,2,NA,NA,NA,NA,NA,NA,NA
"null","CORRECT",NA,"html-keyboard-response",263,1189058,"0.0-16.0-14.0-0.0",89813,"ListA","woman","english",NA,NA,NA,"null",NA,NA,NA,NA,NA,NA
"2913.999999999770","<img src=""portrait/WW2.jpg""style=""height:400px;""></img>",3,"html-button-response",264,1191975,"0.0-16.0-16.0",89813,"ListA","woman","english",NA,TRUE,3,NA,NA,NA,NA,NA,NA,NA
"null","CORRECT",NA,"html-keyboard-response",265,1193478,"0.0-16.0-17.0-0.0",89813,"ListA","woman","english",NA,NA,NA,"null",NA,NA,NA,NA,NA,NA
"6623","<img src=""portrait/BW1.jpg""style=""height:400px;""></img>",0,"html-button-response",266,1200104,"0.0-16.0-19.0",89813,"ListA","woman","english",NA,TRUE,0,NA,NA,NA,NA,NA,NA,NA
"null","CORRECT",NA,"html-keyboard-response",267,1201607,"0.0-16.0-20.0-0.0",89813,"ListA","woman","english",NA,NA,NA,"null",NA,NA,NA,NA,NA,NA
"3976","<img src=""portrait/BM1.jpg""style=""height:400px;""></img>",4,"html-button-response",268,1205586,"0.0-16.0-22.0",89813,"ListA","woman","english",NA,TRUE,4,NA,NA,NA,NA,NA,NA,NA
"null","CORRECT",NA,"html-keyboard-response",269,1207090,"0.0-16.0-23.0-0.0",89813,"ListA","woman","english",NA,NA,NA,"null",NA,NA,NA,NA,NA,NA
"1147","<p>You got 7 out of 8 right first time. Press Continue.</p>",0,"html-button-response",270,1208239,"0.0-16.0-25.0",89813,"ListA","woman","english",NA,NA,NA,NA,NA,NA,NA,NA,NA,NA
"1064.999999999770","As you did not score 100%, the memory game will repeat. Press Continue.",0,"html-button-response",271,1210307,"0.0-16.0-26.0-0.0",89813,"ListA","woman","english",NA,NA,NA,NA,NA,NA,NA,NA,NA,NA
"1364.000000000230","<img src='img/portrait_matrix_listA.jpg' style='width:900px;height:500px;''></img><p>If you have memorised all the portraits and names and are ready to start, press Continue.</p><p><strong>Please note: Your memory of these faces will be tested 5 times during this experiment.</strong></p>",0,"html-button-response",272,1212675,"0.0-16.1-0.1",89813,"ListA","woman","english",NA,NA,NA,NA,NA,NA,NA,NA,NA,NA
"1583","<img src=""portrait/WM1.jpg""style=""height:400px;""></img>",6,"html-button-response",273,1215261,"0.0-16.1-1.1",89813,"ListA","woman","english",NA,TRUE,6,NA,NA,NA,NA,NA,NA,NA
"null","CORRECT",NA,"html-keyboard-response",274,1216764,"0.0-16.1-2.1-0.1",89813,"ListA","woman","english",NA,NA,NA,"null",NA,NA,NA,NA,NA,NA
"2213","<img src=""portrait/BM2.jpg""style=""height:400px;""></img>",5,"html-button-response",275,1218980,"0.0-16.1-4.1",89813,"ListA","woman","english",NA,TRUE,5,NA,NA,NA,NA,NA,NA,NA
"null","CORRECT",NA,"html-keyboard-response",276,1220483,"0.0-16.1-5.1-0.1",89813,"ListA","woman","english",NA,NA,NA,"null",NA,NA,NA,NA,NA,NA
"1480","<img src=""portrait/WW1.jpg""style=""height:400px;""></img>",1,"html-button-response",277,1221966,"0.0-16.1-7.1",89813,"ListA","woman","english",NA,TRUE,1,NA,NA,NA,NA,NA,NA,NA
"null","CORRECT",NA,"html-keyboard-response",278,1223469,"0.0-16.1-8.1-0.1",89813,"ListA","woman","english",NA,NA,NA,"null",NA,NA,NA,NA,NA,NA
"6919","<img src=""portrait/WM2.jpg""style=""height:400px;""></img>",7,"html-button-response",279,1230391,"0.0-16.1-10.1",89813,"ListA","woman","english",NA,TRUE,7,NA,NA,NA,NA,NA,NA,NA
"null","CORRECT",NA,"html-keyboard-response",280,1231894,"0.0-16.1-11.1-0.1",89813,"ListA","woman","english",NA,NA,NA,"null",NA,NA,NA,NA,NA,NA
"4250","<img src=""portrait/BW2.jpg""style=""height:400px;""></img>",2,"html-button-response",281,1236146,"0.0-16.1-13.1",89813,"ListA","woman","english",NA,TRUE,2,NA,NA,NA,NA,NA,NA,NA
"null","CORRECT",NA,"html-keyboard-response",282,1237649,"0.0-16.1-14.1-0.1",89813,"ListA","woman","english",NA,NA,NA,"null",NA,NA,NA,NA,NA,NA
"4064","<img src=""portrait/WW2.jpg""style=""height:400px;""></img>",3,"html-button-response",283,1241716,"0.0-16.1-16.1",89813,"ListA","woman","english",NA,TRUE,3,NA,NA,NA,NA,NA,NA,NA
"null","CORRECT",NA,"html-keyboard-response",284,1243220,"0.0-16.1-17.1-0.1",89813,"ListA","woman","english",NA,NA,NA,"null",NA,NA,NA,NA,NA,NA
"1814","<img src=""portrait/BW1.jpg""style=""height:400px;""></img>",0,"html-button-response",285,1245036,"0.0-16.1-19.1",89813,"ListA","woman","english",NA,TRUE,0,NA,NA,NA,NA,NA,NA,NA
"null","CORRECT",NA,"html-keyboard-response",286,1246539,"0.0-16.1-20.1-0.1",89813,"ListA","woman","english",NA,NA,NA,"null",NA,NA,NA,NA,NA,NA
"1864.000000000230","<img src=""portrait/BM1.jpg""style=""height:400px;""></img>",4,"html-button-response",287,1248406,"0.0-16.1-22.1",89813,"ListA","woman","english",NA,TRUE,4,NA,NA,NA,NA,NA,NA,NA
"null","CORRECT",NA,"html-keyboard-response",288,1249910,"0.0-16.1-23.1-0.1",89813,"ListA","woman","english",NA,NA,NA,"null",NA,NA,NA,NA,NA,NA
"1079.000000000230","<p>You got 8 out of 8 right first time. Press Continue.</p>",0,"html-button-response",289,1250991,"0.0-16.1-25.1",89813,"ListA","woman","english",NA,NA,NA,NA,NA,NA,NA,NA,NA,NA
"null","<div style=""font-size:60px;"">+</div>",NA,"html-keyboard-response",290,1252496,"0.0-17.0-0.0",89813,"ListA","woman","english",NA,NA,NA,"null",NA,NA,NA,NA,NA,NA
"null","<img src='gifs/FemaleRace3b.gif' style='height:400px;''></img>",NA,"html-keyboard-response",291,1254499,"0.0-17.0-1.0",89813,"ListA","woman","english",NA,NA,NA,"null",NA,NA,NA,NA,NA,NA
"null","is praising",NA,"html-keyboard-response",292,1257501,"0.0-17.0-2.0",89813,"ListA","woman","english",NA,NA,NA,"null",NA,NA,NA,NA,NA,NA
"10836",NA,NA,"survey-text",293,1268342,"0.0-17.0-3.0",89813,"ListA","woman","english",NA,NA,NA,NA,"{""Q0"":""Ruth Beth""}","<img src='gifs/FemaleRace3b.gif' style='height:400px;''></img>","praising","is praising","english",NA
"null","<div style=""font-size:60px;"">+</div>",NA,"html-keyboard-response",294,1268844,"0.0-17.0-0.1",89813,"ListA","woman","english",NA,NA,NA,"null",NA,NA,NA,NA,NA,NA
"null","<img src='gifs/FemaleRace3b.gif' style='height:400px;''></img>",NA,"html-keyboard-response",295,1270847,"0.0-17.0-1.1",89813,"ListA","woman","english",NA,NA,NA,"null",NA,NA,NA,NA,NA,NA
"null","is convincing",NA,"html-keyboard-response",296,1273850,"0.0-17.0-2.1",89813,"ListA","woman","english",NA,NA,NA,"null",NA,NA,NA,NA,NA,NA
"4666",NA,NA,"survey-text",297,1278519,"0.0-17.0-3.1",89813,"ListA","woman","english",NA,NA,NA,NA,"{""Q0"":""Ruth Beth""}","<img src='gifs/FemaleRace3b.gif' style='height:400px;''></img>","convincing","is convincing","english",NA
"null","<div style=""font-size:60px;"">+</div>",NA,"html-keyboard-response",298,1279022,"0.0-17.0-0.2",89813,"ListA","woman","english",NA,NA,NA,"null",NA,NA,NA,NA,NA,NA
"null","<img src='gifs/BlackGender3a.gif' style='height:400px;''></img>",NA,"html-keyboard-response",299,1281025,"0.0-17.0-1.2",89813,"ListA","woman","english",NA,NA,NA,"null",NA,NA,NA,NA,NA,NA
"null","is promising",NA,"html-keyboard-response",300,1284027,"0.0-17.0-2.2",89813,"ListA","woman","english",NA,NA,NA,"null",NA,NA,NA,NA,NA,NA
"3513",NA,NA,"survey-text",301,1287544,"0.0-17.0-3.2",89813,"ListA","woman","english",NA,NA,NA,NA,"{""Q0"":""Luke Jane""}","<img src='gifs/BlackGender3a.gif' style='height:400px;''></img>","promising","is promising","english",NA
"null","<div style=""font-size:60px;"">+</div>",NA,"html-keyboard-response",302,1288046,"0.0-17.0-0.3",89813,"ListA","woman","english",NA,NA,NA,"null",NA,NA,NA,NA,NA,NA
"null","<img src='gifs/MaleRace1a.gif' style='height:400px;''></img>",NA,"html-keyboard-response",303,1290049,"0.0-17.0-1.3",89813,"ListA","woman","english",NA,NA,NA,"null",NA,NA,NA,NA,NA,NA
"null","is mentioning",NA,"html-keyboard-response",304,1293052,"0.0-17.0-2.3",89813,"ListA","woman","english",NA,NA,NA,"null",NA,NA,NA,NA,NA,NA
"13043",NA,NA,"survey-text",305,1306100,"0.0-17.0-3.3",89813,"ListA","woman","english",NA,NA,NA,NA,"{""Q0"":""Luke Fred""}","<img src='gifs/MaleRace1a.gif' style='height:400px;''></img>","mention","is mentioning","english",NA
"null","<div style=""font-size:60px;"">+</div>",NA,"html-keyboard-response",306,1306603,"0.0-17.0-0.4",89813,"ListA","woman","english",NA,NA,NA,"null",NA,NA,NA,NA,NA,NA
"null","<img src='gifs/BlackGender2b.gif' style='height:400px;''></img>",NA,"html-keyboard-response",307,1308605,"0.0-17.0-1.4",89813,"ListA","woman","english",NA,NA,NA,"null",NA,NA,NA,NA,NA,NA
"null","is following",NA,"html-keyboard-response",308,1311608,"0.0-17.0-2.4",89813,"ListA","woman","english",NA,NA,NA,"null",NA,NA,NA,NA,NA,NA
"7128",NA,NA,"survey-text",309,1318742,"0.0-17.0-3.4",89813,"ListA","woman","english",NA,NA,NA,NA,"{""Q0"":""Dave ruth""}","<img src='gifs/BlackGender2b.gif' style='height:400px;''></img>","following","is following","english",NA
"null","<div style=""font-size:60px;"">+</div>",NA,"html-keyboard-response",310,1319243,"0.0-17.0-0.5",89813,"ListA","woman","english",NA,NA,NA,"null",NA,NA,NA,NA,NA,NA
"null","<img src='gifs/FemaleRace2b.gif' style='height:400px;''></img>",NA,"html-keyboard-response",311,1321246,"0.0-17.0-1.5",89813,"ListA","woman","english",NA,NA,NA,"null",NA,NA,NA,NA,NA,NA
"null","is approaching",NA,"html-keyboard-response",312,1324249,"0.0-17.0-2.5",89813,"ListA","woman","english",NA,NA,NA,"null",NA,NA,NA,NA,NA,NA
"3148",NA,NA,"survey-text",313,1327400,"0.0-17.0-3.5",89813,"ListA","woman","english",NA,NA,NA,NA,"{""Q0"":""Jane Kate""}","<img src='gifs/FemaleRace2b.gif' style='height:400px;''></img>","approaching","is approaching","english",NA
"null","<div style=""font-size:60px;"">+</div>",NA,"html-keyboard-response",314,1327903,"0.0-17.0-0.6",89813,"ListA","woman","english",NA,NA,NA,"null",NA,NA,NA,NA,NA,NA
"null","<img src='gifs/MaleRace4a.gif' style='height:400px;''></img>",NA,"html-keyboard-response",315,1329906,"0.0-17.0-1.6",89813,"ListA","woman","english",NA,NA,NA,"null",NA,NA,NA,NA,NA,NA
"null","is contacting",NA,"html-keyboard-response",316,1332908,"0.0-17.0-2.6",89813,"ListA","woman","english",NA,NA,NA,"null",NA,NA,NA,NA,NA,NA
"3547",NA,NA,"survey-text",317,1336459,"0.0-17.0-3.6",89813,"ListA","woman","english",NA,NA,NA,NA,"{""Q0"":""Dave Mike""}","<img src='gifs/MaleRace4a.gif' style='height:400px;''></img>","contacting","is contacting","english",NA
"null","<div style=""font-size:60px;"">+</div>",NA,"html-keyboard-response",318,1336961,"0.0-17.0-0.7",89813,"ListA","woman","english",NA,NA,NA,"null",NA,NA,NA,NA,NA,NA
"null","<img src='gifs/MaleRace1b.gif' style='height:400px;''></img>",NA,"html-keyboard-response",319,1338964,"0.0-17.0-1.7",89813,"ListA","woman","english",NA,NA,NA,"null",NA,NA,NA,NA,NA,NA
"null","is contacting",NA,"html-keyboard-response",320,1341966,"0.0-17.0-2.7",89813,"ListA","woman","english",NA,NA,NA,"null",NA,NA,NA,NA,NA,NA
"12376.0000000002",NA,NA,"survey-text",321,1354345,"0.0-17.0-3.7",89813,"ListA","woman","english",NA,NA,NA,NA,"{""Q0"":""Fred Luke""}","<img src='gifs/MaleRace1b.gif' style='height:400px;''></img>","contacting","is contacting","english",NA
"null","<div style=""font-size:60px;"">+</div>",NA,"html-keyboard-response",322,1354848,"0.0-17.0-0.8",89813,"ListA","woman","english",NA,NA,NA,"null",NA,NA,NA,NA,NA,NA
"null","<img src='gifs/BlackGender1a.gif' style='height:400px;''></img>",NA,"html-keyboard-response",323,1356851,"0.0-17.0-1.8",89813,"ListA","woman","english",NA,NA,NA,"null",NA,NA,NA,NA,NA,NA
"null","is convincing",NA,"html-keyboard-response",324,1359853,"0.0-17.0-2.8",89813,"ListA","woman","english",NA,NA,NA,"null",NA,NA,NA,NA,NA,NA
"4565.000000000230",NA,NA,"survey-text",325,1364422,"0.0-17.0-3.8",89813,"ListA","woman","english",NA,NA,NA,NA,"{""Q0"":""Luke Ruth""}","<img src='gifs/BlackGender1a.gif' style='height:400px;''></img>","convincing","is convincing","english",NA
"null","<div style=""font-size:60px;"">+</div>",NA,"html-keyboard-response",326,1364924,"0.0-17.0-0.9",89813,"ListA","woman","english",NA,NA,NA,"null",NA,NA,NA,NA,NA,NA
"null","<img src='gifs/BlackGender3b.gif' style='height:400px;''></img>",NA,"html-keyboard-response",327,1366926,"0.0-17.0-1.9",89813,"ListA","woman","english",NA,NA,NA,"null",NA,NA,NA,NA,NA,NA
"null","is approaching",NA,"html-keyboard-response",328,1369929,"0.0-17.0-2.9",89813,"ListA","woman","english",NA,NA,NA,"null",NA,NA,NA,NA,NA,NA
"5506.999999999770",NA,NA,"survey-text",329,1375440,"0.0-17.0-3.9",89813,"ListA","woman","english",NA,NA,NA,NA,"{""Q0"":""Jane Luke""}","<img src='gifs/BlackGender3b.gif' style='height:400px;''></img>","approaching","is approaching","english",NA
"null","<div style=""font-size:60px;"">+</div>",NA,"html-keyboard-response",330,1375943,"0.0-17.0-0.10",89813,"ListA","woman","english",NA,NA,NA,"null",NA,NA,NA,NA,NA,NA
"null","<img src='gifs/BlackGender2a.gif' style='height:400px;''></img>",NA,"html-keyboard-response",331,1377944,"0.0-17.0-1.10",89813,"ListA","woman","english",NA,NA,NA,"null",NA,NA,NA,NA,NA,NA
"null","is walking towards",NA,"html-keyboard-response",332,1380947,"0.0-17.0-2.10",89813,"ListA","woman","english",NA,NA,NA,"null",NA,NA,NA,NA,NA,NA
"9445",NA,NA,"survey-text",333,1390395,"0.0-17.0-3.10",89813,"ListA","woman","english",NA,NA,NA,NA,"{""Q0"":""Dave Ruth""}","<img src='gifs/BlackGender2a.gif' style='height:400px;''></img>","walking towards","is walking towards","english",NA
"null","<div style=""font-size:60px;"">+</div>",NA,"html-keyboard-response",334,1390897,"0.0-17.0-0.11",89813,"ListA","woman","english",NA,NA,NA,"null",NA,NA,NA,NA,NA,NA
"null","<img src='gifs/MaleRace2a.gif' style='height:400px;''></img>",NA,"html-keyboard-response",335,1392900,"0.0-17.0-1.11",89813,"ListA","woman","english",NA,NA,NA,"null",NA,NA,NA,NA,NA,NA
"null","is introducing",NA,"html-keyboard-response",336,1395903,"0.0-17.0-2.11",89813,"ListA","woman","english",NA,NA,NA,"null",NA,NA,NA,NA,NA,NA
"3687",NA,NA,"survey-text",337,1399593,"0.0-17.0-3.11",89813,"ListA","woman","english",NA,NA,NA,NA,"{""Q0"":""Dave Fred""}","<img src='gifs/MaleRace2a.gif' style='height:400px;''></img>","introducing","is introducing","english",NA
"null","<div style=""font-size:60px;"">+</div>",NA,"html-keyboard-response",338,1400094,"0.0-17.0-0.12",89813,"ListA","woman","english",NA,NA,NA,"null",NA,NA,NA,NA,NA,NA
"null","<img src='gifs/ChineseGender4b.gif' style='height:400px;''></img>",NA,"html-keyboard-response",339,1402097,"0.0-17.0-1.12",89813,"ListA","woman","english",NA,NA,NA,"null",NA,NA,NA,NA,NA,NA
"null","is joining",NA,"html-keyboard-response",340,1405099,"0.0-17.0-2.12",89813,"ListA","woman","english",NA,NA,NA,"null",NA,NA,NA,NA,NA,NA
"4394",NA,NA,"survey-text",341,1409497,"0.0-17.0-3.12",89813,"ListA","woman","english",NA,NA,NA,NA,"{""Q0"":""Mike Kate""}","<img src='gifs/ChineseGender4b.gif' style='height:400px;''></img>","join","is joining","english",NA
"null","<div style=""font-size:60px;"">+</div>",NA,"html-keyboard-response",342,1409998,"0.0-17.0-0.13",89813,"ListA","woman","english",NA,NA,NA,"null",NA,NA,NA,NA,NA,NA
"null","<img src='gifs/ChineseGender2b.gif' style='height:400px;''></img>",NA,"html-keyboard-response",343,1412001,"0.0-17.0-1.13",89813,"ListA","woman","english",NA,NA,NA,"null",NA,NA,NA,NA,NA,NA
"null","is walking towards",NA,"html-keyboard-response",344,1415004,"0.0-17.0-2.13",89813,"ListA","woman","english",NA,NA,NA,"null",NA,NA,NA,NA,NA,NA
"5531.999999999770",NA,NA,"survey-text",345,1420540,"0.0-17.0-3.13",89813,"ListA","woman","english",NA,NA,NA,NA,"{""Q0"":""Fred Beth""}","<img src='gifs/ChineseGender2b.gif' style='height:400px;''></img>","walking towards","is walking towards","english",NA
"null","<div style=""font-size:60px;"">+</div>",NA,"html-keyboard-response",346,1421041,"0.0-17.0-0.14",89813,"ListA","woman","english",NA,NA,NA,"null",NA,NA,NA,NA,NA,NA
"null","<img src='gifs/BlackGender2b.gif' style='height:400px;''></img>",NA,"html-keyboard-response",347,1423044,"0.0-17.0-1.14",89813,"ListA","woman","english",NA,NA,NA,"null",NA,NA,NA,NA,NA,NA
"null","is facing",NA,"html-keyboard-response",348,1426047,"0.0-17.0-2.14",89813,"ListA","woman","english",NA,NA,NA,"null",NA,NA,NA,NA,NA,NA
"4015.000000000230",NA,NA,"survey-text",349,1430065,"0.0-17.0-3.14",89813,"ListA","woman","english",NA,NA,NA,NA,"{""Q0"":""Ruth Dave""}","<img src='gifs/BlackGender2b.gif' style='height:400px;''></img>","facing","is facing","english",NA
"null","<div style=""font-size:60px;"">+</div>",NA,"html-keyboard-response",350,1430568,"0.0-17.0-0.15",89813,"ListA","woman","english",NA,NA,NA,"null",NA,NA,NA,NA,NA,NA
"null","<img src='gifs/FemaleRace4a.gif' style='height:400px;''></img>",NA,"html-keyboard-response",351,1432570,"0.0-17.0-1.15",89813,"ListA","woman","english",NA,NA,NA,"null",NA,NA,NA,NA,NA,NA
"null","is promising",NA,"html-keyboard-response",352,1435573,"0.0-17.0-2.15",89813,"ListA","woman","english",NA,NA,NA,"null",NA,NA,NA,NA,NA,NA
"4582",NA,NA,"survey-text",353,1440159,"0.0-17.0-3.15",89813,"ListA","woman","english",NA,NA,NA,NA,"{""Q0"":""Kate Jane""}","<img src='gifs/FemaleRace4a.gif' style='height:400px;''></img>","promising","is promising","english",NA
"null","<div style=""font-size:60px;"">+</div>",NA,"html-keyboard-response",354,1440660,"0.0-17.0-0.16",89813,"ListA","woman","english",NA,NA,NA,"null",NA,NA,NA,NA,NA,NA
"null","<img src='gifs/FemaleRace2a.gif' style='height:400px;''></img>",NA,"html-keyboard-response",355,1442663,"0.0-17.0-1.16",89813,"ListA","woman","english",NA,NA,NA,"null",NA,NA,NA,NA,NA,NA
"null","is touching",NA,"html-keyboard-response",356,1445665,"0.0-17.0-2.16",89813,"ListA","woman","english",NA,NA,NA,"null",NA,NA,NA,NA,NA,NA
"5216",NA,NA,"survey-text",357,1450959,"0.0-17.0-3.16",89813,"ListA","woman","english",NA,NA,NA,NA,"{""Q0"":""Kate Jane""}","<img src='gifs/FemaleRace2a.gif' style='height:400px;''></img>","touching","is touching","english",NA
"null","<div style=""font-size:60px;"">+</div>",NA,"html-keyboard-response",358,1451461,"0.0-17.0-0.17",89813,"ListA","woman","english",NA,NA,NA,"null",NA,NA,NA,NA,NA,NA
"null","<img src='gifs/ChineseGender1b.gif' style='height:400px;''></img>",NA,"html-keyboard-response",359,1453464,"0.0-17.0-1.17",89813,"ListA","woman","english",NA,NA,NA,"null",NA,NA,NA,NA,NA,NA
"null","is looking at",NA,"html-keyboard-response",360,1456467,"0.0-17.0-2.17",89813,"ListA","woman","english",NA,NA,NA,"null",NA,NA,NA,NA,NA,NA
"4868",NA,NA,"survey-text",361,1461339,"0.0-17.0-3.17",89813,"ListA","woman","english",NA,NA,NA,NA,"{""Q0"":""Fred Kate""}","<img src='gifs/ChineseGender1b.gif' style='height:400px;''></img>","looking at","is looking at","english",NA
"2929","<p>Thank you for completing that task.</p><p>The final part of this session is a short questionnaire.</p><p>Press Continue.</p>",0,"html-button-response",362,1464269,"0.0-18.0",89813,"ListA","woman","english",NA,NA,NA,NA,NA,NA,NA,NA,NA,NA
"49440",NA,NA,"survey-text",363,1514722,"0.0-19.0",89813,"ListA","woman","english",NA,NA,NA,NA,"{""Q0"":""22"",""Q1"":""Chinese"",""Q2"":""Chinese/English"",""Q3"":""UK"",""Q4"":""Chinese"",""Q5"":""Asian"",""Q6"":""Female""}",NA,NA,NA,NA,"demographics"
"6509",NA,NA,"external-html",364,1521405,"0.0-20.0",89813,"ListA","woman","english","debrief.html",NA,NA,NA,NA,NA,NA,NA,NA,NA
"26624",NA,NA,"survey-text",365,1548039,"0.0-21.0",89813,"ListA","woman","english",NA,NA,NA,NA,"{""Q0"":""EFA6""}",NA,NA,NA,NA,"worker_id"
