"rt","stimulus","button_pressed","trial_type","trial_index","time_elapsed","internal_node_id","subject","list","ppt_gender","ppt_language","ptptID","url","first_guess","correct","key_press","responses","image","verb","phrase","condition","test_part"
"3363.0999999940395","Welcome to the experiment. Press Continue to begin.",0,"html-button-response",0,3364,"0.0-0.0",9411,"ListA","man","english","SW_E_M_A2",NA,NA,NA,NA,NA,NA,NA,NA,NA,NA
"48270.69999998808",NA,NA,"external-html",1,52932,"0.0-1.0",9411,"ListA","man","english","SW_E_M_A2","consent.html",NA,NA,NA,NA,NA,NA,NA,NA,NA
"44791.40000000596","<p>On the next page, you will see portraits of 8 people and their names.</p><p>Your first task is to take a few minutes to memorise the names of these people.</p><p>You will have to recall their names during the rest of the experiment, so it is</p><p>essential that you try to memorise these people and their names as best as you can.</p><p><strong>You will then be tested on your memory of these names and portraits.</strong></p><p>The experiment will start after you have completed this memory test.</p><p>Ready?</p>",0,"html-button-response",2,97725,"0.0-2.0",9411,"ListA","man","english","SW_E_M_A2",NA,NA,NA,NA,NA,NA,NA,NA,NA,NA
"49101","<img src='img/portrait_matrix_listA.jpg' style='width:900px;height:500px;''></img><p>If you have memorised all the portraits and names and are ready to start, press Continue.</p><p><strong>Please note: Your memory of these faces will be tested 5 times during this experiment.</strong></p>",0,"html-button-response",3,147836,"0.0-3.0-0.0",9411,"ListA","man","english","SW_E_M_A2",NA,NA,NA,NA,NA,NA,NA,NA,NA,NA
"2934.7000000178814","<img src=""portrait/BW2.jpg""style=""height:400px;""></img>",0,"html-button-response",4,151772,"0.0-3.0-1.0",9411,"ListA","man","english","SW_E_M_A2",NA,"true",2,NA,NA,NA,NA,NA,NA,NA
"7885.799999982119","<img src=""portrait/BW2.jpg""style=""height:400px;""></img>",2,"html-button-response",5,160660,"0.0-3.0-3.0-0.0",9411,"ListA","man","english","SW_E_M_A2",NA,"false",2,NA,NA,NA,NA,NA,NA,NA
"null","CORRECT",NA,"html-keyboard-response",6,162186,"0.0-3.0-3.0-1.0-0.0",9411,"ListA","man","english","SW_E_M_A2",NA,NA,NA,"null",NA,NA,NA,NA,NA,NA
"2873.199999988079","<img src=""portrait/WW2.jpg""style=""height:400px;""></img>",3,"html-button-response",7,165061,"0.0-3.0-4.0",9411,"ListA","man","english","SW_E_M_A2",NA,"true",3,NA,NA,NA,NA,NA,NA,NA
"null","CORRECT",NA,"html-keyboard-response",8,166579,"0.0-3.0-5.0-0.0",9411,"ListA","man","english","SW_E_M_A2",NA,NA,NA,"null",NA,NA,NA,NA,NA,NA
"3200.199999988079","<img src=""portrait/WM1.jpg""style=""height:400px;""></img>",6,"html-button-response",9,169780,"0.0-3.0-7.0",9411,"ListA","man","english","SW_E_M_A2",NA,"true",6,NA,NA,NA,NA,NA,NA,NA
"null","CORRECT",NA,"html-keyboard-response",10,171299,"0.0-3.0-8.0-0.0",9411,"ListA","man","english","SW_E_M_A2",NA,NA,NA,"null",NA,NA,NA,NA,NA,NA
"1640.5999999940395","<img src=""portrait/BW1.jpg""style=""height:400px;""></img>",0,"html-button-response",11,172940,"0.0-3.0-10.0",9411,"ListA","man","english","SW_E_M_A2",NA,"true",0,NA,NA,NA,NA,NA,NA,NA
"null","CORRECT",NA,"html-keyboard-response",12,174457,"0.0-3.0-11.0-0.0",9411,"ListA","man","english","SW_E_M_A2",NA,NA,NA,"null",NA,NA,NA,NA,NA,NA
"9747.300000011921","<img src=""portrait/BM1.jpg""style=""height:400px;""></img>",4,"html-button-response",13,184205,"0.0-3.0-13.0",9411,"ListA","man","english","SW_E_M_A2",NA,"true",4,NA,NA,NA,NA,NA,NA,NA
"null","CORRECT",NA,"html-keyboard-response",14,185731,"0.0-3.0-14.0-0.0",9411,"ListA","man","english","SW_E_M_A2",NA,NA,NA,"null",NA,NA,NA,NA,NA,NA
"1472.800000011921","<img src=""portrait/WW1.jpg""style=""height:400px;""></img>",1,"html-button-response",15,187204,"0.0-3.0-16.0",9411,"ListA","man","english","SW_E_M_A2",NA,"true",1,NA,NA,NA,NA,NA,NA,NA
"null","CORRECT",NA,"html-keyboard-response",16,188717,"0.0-3.0-17.0-0.0",9411,"ListA","man","english","SW_E_M_A2",NA,NA,NA,"null",NA,NA,NA,NA,NA,NA
"3430.2999999821186","<img src=""portrait/WM2.jpg""style=""height:400px;""></img>",7,"html-button-response",17,192148,"0.0-3.0-19.0",9411,"ListA","man","english","SW_E_M_A2",NA,"true",7,NA,NA,NA,NA,NA,NA,NA
"null","CORRECT",NA,"html-keyboard-response",18,193664,"0.0-3.0-20.0-0.0",9411,"ListA","man","english","SW_E_M_A2",NA,NA,NA,"null",NA,NA,NA,NA,NA,NA
"3899.0999999940395","<img src=""portrait/BM2.jpg""style=""height:400px;""></img>",6,"html-button-response",19,197564,"0.0-3.0-22.0",9411,"ListA","man","english","SW_E_M_A2",NA,"true",5,NA,NA,NA,NA,NA,NA,NA
"3292.0999999940395","<img src=""portrait/BM2.jpg""style=""height:400px;""></img>",5,"html-button-response",20,201868,"0.0-3.0-24.0-0.0",9411,"ListA","man","english","SW_E_M_A2",NA,"false",5,NA,NA,NA,NA,NA,NA,NA
"null","CORRECT",NA,"html-keyboard-response",21,203384,"0.0-3.0-24.0-1.0-0.0",9411,"ListA","man","english","SW_E_M_A2",NA,NA,NA,"null",NA,NA,NA,NA,NA,NA
"4003.5","<p>You got 6 out of 8 right first time. Press Continue.</p>",0,"html-button-response",22,207388,"0.0-3.0-25.0",9411,"ListA","man","english","SW_E_M_A2",NA,NA,NA,NA,NA,NA,NA,NA,NA,NA
"4688.4000000059605","As you did not score 100%, the memory game will repeat. Press Continue.",0,"html-button-response",23,213084,"0.0-3.0-26.0-0.0",9411,"ListA","man","english","SW_E_M_A2",NA,NA,NA,NA,NA,NA,NA,NA,NA,NA
"9804.199999988079","<img src='img/portrait_matrix_listA.jpg' style='width:900px;height:500px;''></img><p>If you have memorised all the portraits and names and are ready to start, press Continue.</p><p><strong>Please note: Your memory of these faces will be tested 5 times during this experiment.</strong></p>",0,"html-button-response",24,223892,"0.0-3.1-0.1",9411,"ListA","man","english","SW_E_M_A2",NA,NA,NA,NA,NA,NA,NA,NA,NA,NA
"3558.4000000059605","<img src=""portrait/BW2.jpg""style=""height:400px;""></img>",2,"html-button-response",25,228452,"0.0-3.1-1.1",9411,"ListA","man","english","SW_E_M_A2",NA,"true",2,NA,NA,NA,NA,NA,NA,NA
"null","CORRECT",NA,"html-keyboard-response",26,229960,"0.0-3.1-2.1-0.1",9411,"ListA","man","english","SW_E_M_A2",NA,NA,NA,"null",NA,NA,NA,NA,NA,NA
"1939","<img src=""portrait/WW2.jpg""style=""height:400px;""></img>",3,"html-button-response",27,231900,"0.0-3.1-4.1",9411,"ListA","man","english","SW_E_M_A2",NA,"true",3,NA,NA,NA,NA,NA,NA,NA
"null","CORRECT",NA,"html-keyboard-response",28,233404,"0.0-3.1-5.1-0.1",9411,"ListA","man","english","SW_E_M_A2",NA,NA,NA,"null",NA,NA,NA,NA,NA,NA
"3951.600000023842","<img src=""portrait/WM1.jpg""style=""height:400px;""></img>",6,"html-button-response",29,237356,"0.0-3.1-7.1",9411,"ListA","man","english","SW_E_M_A2",NA,"true",6,NA,NA,NA,NA,NA,NA,NA
"null","CORRECT",NA,"html-keyboard-response",30,238878,"0.0-3.1-8.1-0.1",9411,"ListA","man","english","SW_E_M_A2",NA,NA,NA,"null",NA,NA,NA,NA,NA,NA
"1885.0999999940395","<img src=""portrait/BW1.jpg""style=""height:400px;""></img>",0,"html-button-response",31,240764,"0.0-3.1-10.1",9411,"ListA","man","english","SW_E_M_A2",NA,"true",0,NA,NA,NA,NA,NA,NA,NA
"null","CORRECT",NA,"html-keyboard-response",32,242271,"0.0-3.1-11.1-0.1",9411,"ListA","man","english","SW_E_M_A2",NA,NA,NA,"null",NA,NA,NA,NA,NA,NA
"3132.199999988079","<img src=""portrait/BM1.jpg""style=""height:400px;""></img>",4,"html-button-response",33,245404,"0.0-3.1-13.1",9411,"ListA","man","english","SW_E_M_A2",NA,"true",4,NA,NA,NA,NA,NA,NA,NA
"null","CORRECT",NA,"html-keyboard-response",34,246907,"0.0-3.1-14.1-0.1",9411,"ListA","man","english","SW_E_M_A2",NA,NA,NA,"null",NA,NA,NA,NA,NA,NA
"1392.300000011921","<img src=""portrait/WW1.jpg""style=""height:400px;""></img>",1,"html-button-response",35,248300,"0.0-3.1-16.1",9411,"ListA","man","english","SW_E_M_A2",NA,"true",1,NA,NA,NA,NA,NA,NA,NA
"null","CORRECT",NA,"html-keyboard-response",36,249803,"0.0-3.1-17.1-0.1",9411,"ListA","man","english","SW_E_M_A2",NA,NA,NA,"null",NA,NA,NA,NA,NA,NA
"1520.4000000059605","<img src=""portrait/WM2.jpg""style=""height:400px;""></img>",7,"html-button-response",37,251324,"0.0-3.1-19.1",9411,"ListA","man","english","SW_E_M_A2",NA,"true",7,NA,NA,NA,NA,NA,NA,NA
"null","CORRECT",NA,"html-keyboard-response",38,252837,"0.0-3.1-20.1-0.1",9411,"ListA","man","english","SW_E_M_A2",NA,NA,NA,"null",NA,NA,NA,NA,NA,NA
"1014.6999999880791","<img src=""portrait/BM2.jpg""style=""height:400px;""></img>",5,"html-button-response",39,253852,"0.0-3.1-22.1",9411,"ListA","man","english","SW_E_M_A2",NA,"true",5,NA,NA,NA,NA,NA,NA,NA
"null","CORRECT",NA,"html-keyboard-response",40,255366,"0.0-3.1-23.1-0.1",9411,"ListA","man","english","SW_E_M_A2",NA,NA,NA,"null",NA,NA,NA,NA,NA,NA
"725.0999999940395","<p>You got 8 out of 8 right first time. Press Continue.</p>",0,"html-button-response",41,256092,"0.0-3.1-25.1",9411,"ListA","man","english","SW_E_M_A2",NA,NA,NA,NA,NA,NA,NA,NA,NA,NA
"113962.09999999404","<p>In this experiment, you will view photographs of the people from the memory game.</p><p>By using the <strong>exact</strong> phrase given <i>after</i> the photograph appears and recalling the correct names of the people in the photographs, form a sentence describing an interaction. You do not need to capitalise names.</p><p>Type your answer in the space provided. Please complete every sentence before moving onto the next trial.</p><p>You will only have a few seconds to memorise each given photograph and phrase before you can respond, so try your best to focus.</p><p>An example is given below. Press 'Continue' when you are ready.</p><img src='img/speaking_example.jpg' style='width:800px;height:460px;''></img>",0,"html-button-response",42,371068,"0.0-4.0",9411,"ListA","man","english","SW_E_M_A2",NA,NA,NA,NA,NA,NA,NA,NA,NA,NA
"2205.5999999940395","<p>Before the experiment starts, you will watch two example trials. Press 'Continue'.</p>",0,"html-button-response",43,374283,"0.0-5.0",9411,"ListA","man","english","SW_E_M_A2",NA,NA,NA,NA,NA,NA,NA,NA,NA,NA
"null","<img src='img/meet.gif' style='height:400px;''></img>",NA,"html-keyboard-response",44,377297,"0.0-6.0",9411,"ListA","man","english","SW_E_M_A2",NA,NA,NA,"null",NA,NA,NA,NA,NA,NA
"null","<p>is meeting</p>",NA,"html-keyboard-response",45,379299,"0.0-7.0",9411,"ListA","man","english","SW_E_M_A2",NA,NA,NA,"null",NA,NA,NA,NA,NA,NA
"4064.4000000059605","<p><b>Answer:</b> kate is meeting beth</p>",0,"html-button-response",46,383364,"0.0-8.0",9411,"ListA","man","english","SW_E_M_A2",NA,NA,NA,NA,NA,NA,NA,NA,NA,NA
"null","<img src='img/spy.gif' style='height:400px;''></img>",NA,"html-keyboard-response",47,386379,"0.0-9.0",9411,"ListA","man","english","SW_E_M_A2",NA,NA,NA,"null",NA,NA,NA,NA,NA,NA
"null","<p>is being spied on by</p>",NA,"html-keyboard-response",48,388390,"0.0-10.0",9411,"ListA","man","english","SW_E_M_A2",NA,NA,NA,"null",NA,NA,NA,NA,NA,NA
"6509.199999988079","<p><b>Answer:</b> luke is being spied on by dave</p>",0,"html-button-response",49,394899,"0.0-11.0",9411,"ListA","man","english","SW_E_M_A2",NA,NA,NA,NA,NA,NA,NA,NA,NA,NA
"4213.699999988079","<p>Ready to start the experiment?</p><br><p><strong>Remember to describe the picture using a full sentence,</strong></p><p><strong>that combines the names of the people with the <i>exact</i> phrase given.</strong></p><p><strong>To receive full payment you must do this correctly.</strong></p><p><strong> You do not need to capitalise names or use punctuation.</strong></p><br><p>Press 'Continue' to begin.</p>",0,"html-button-response",50,400115,"0.0-12.0",9411,"ListA","man","english","SW_E_M_A2",NA,NA,NA,NA,NA,NA,NA,NA,NA,NA
"null","<div style=""font-size:60px;"">+</div>",NA,"html-keyboard-response",51,401618,"0.0-13.0-0.0",9411,"ListA","man","english","SW_E_M_A2",NA,NA,NA,"null",NA,NA,NA,NA,NA,NA
"null","<img src='gifs/BlackGender2b.gif' style='height:400px;''></img>",NA,"html-keyboard-response",52,403619,"0.0-13.0-1.0",9411,"ListA","man","english","SW_E_M_A2",NA,NA,NA,"null",NA,NA,NA,NA,NA,NA
"null","is touching",NA,"html-keyboard-response",53,406625,"0.0-13.0-2.0",9411,"ListA","man","english","SW_E_M_A2",NA,NA,NA,"null",NA,NA,NA,NA,NA,NA
"32184.90000000596",NA,NA,"survey-text",54,438812,"0.0-13.0-3.0",9411,"ListA","man","english","SW_E_M_A2",NA,NA,NA,NA,"{""Q0"":""Ruth is touching dave""}","<img src='gifs/BlackGender2b.gif' style='height:400px;''></img>","touching","is touching","english",NA
"null","<div style=""font-size:60px;"">+</div>",NA,"html-keyboard-response",55,439315,"0.0-13.0-0.1",9411,"ListA","man","english","SW_E_M_A2",NA,NA,NA,"null",NA,NA,NA,NA,NA,NA
"null","<img src='gifs/ChineseGender2a.gif' style='height:400px;''></img>",NA,"html-keyboard-response",56,441317,"0.0-13.0-1.1",9411,"ListA","man","english","SW_E_M_A2",NA,NA,NA,"null",NA,NA,NA,NA,NA,NA
"null","is listening to",NA,"html-keyboard-response",57,444330,"0.0-13.0-2.1",9411,"ListA","man","english","SW_E_M_A2",NA,NA,NA,"null",NA,NA,NA,NA,NA,NA
"13435",NA,NA,"survey-text",58,457766,"0.0-13.0-3.1",9411,"ListA","man","english","SW_E_M_A2",NA,NA,NA,NA,"{""Q0"":""beth is listening to fred""}","<img src='gifs/ChineseGender2a.gif' style='height:400px;''></img>","listening to","is listening to","english",NA
"null","<div style=""font-size:60px;"">+</div>",NA,"html-keyboard-response",59,458268,"0.0-13.0-0.2",9411,"ListA","man","english","SW_E_M_A2",NA,NA,NA,"null",NA,NA,NA,NA,NA,NA
"null","<img src='gifs/FemaleRace2b.gif' style='height:400px;''></img>",NA,"html-keyboard-response",60,460278,"0.0-13.0-1.2",9411,"ListA","man","english","SW_E_M_A2",NA,NA,NA,"null",NA,NA,NA,NA,NA,NA
"null","is contacting",NA,"html-keyboard-response",61,463287,"0.0-13.0-2.2",9411,"ListA","man","english","SW_E_M_A2",NA,NA,NA,"null",NA,NA,NA,NA,NA,NA
"8252.90000000596",NA,NA,"survey-text",62,471541,"0.0-13.0-3.2",9411,"ListA","man","english","SW_E_M_A2",NA,NA,NA,NA,"{""Q0"":""jane is contacting kate""}","<img src='gifs/FemaleRace2b.gif' style='height:400px;''></img>","contacting","is contacting","english",NA
"null","<div style=""font-size:60px;"">+</div>",NA,"html-keyboard-response",63,472047,"0.0-13.0-0.3",9411,"ListA","man","english","SW_E_M_A2",NA,NA,NA,"null",NA,NA,NA,NA,NA,NA
"null","<img src='gifs/BlackGender4a.gif' style='height:400px;''></img>",NA,"html-keyboard-response",64,474064,"0.0-13.0-1.3",9411,"ListA","man","english","SW_E_M_A2",NA,NA,NA,"null",NA,NA,NA,NA,NA,NA
"null","is employing",NA,"html-keyboard-response",65,477069,"0.0-13.0-2.3",9411,"ListA","man","english","SW_E_M_A2",NA,NA,NA,"null",NA,NA,NA,NA,NA,NA
"14625.09999999404",NA,NA,"survey-text",66,491696,"0.0-13.0-3.3",9411,"ListA","man","english","SW_E_M_A2",NA,NA,NA,NA,"{""Q0"":""dave is employing jane""}","<img src='gifs/BlackGender4a.gif' style='height:400px;''></img>","employing","is employing","english",NA
"null","<div style=""font-size:60px;"">+</div>",NA,"html-keyboard-response",67,492198,"0.0-13.0-0.4",9411,"ListA","man","english","SW_E_M_A2",NA,NA,NA,"null",NA,NA,NA,NA,NA,NA
"null","<img src='gifs/ChineseGender4b.gif' style='height:400px;''></img>",NA,"html-keyboard-response",68,494210,"0.0-13.0-1.4",9411,"ListA","man","english","SW_E_M_A2",NA,NA,NA,"null",NA,NA,NA,NA,NA,NA
"null","is promising",NA,"html-keyboard-response",69,497217,"0.0-13.0-2.4",9411,"ListA","man","english","SW_E_M_A2",NA,NA,NA,"null",NA,NA,NA,NA,NA,NA
"15920.300000011921",NA,NA,"survey-text",70,513139,"0.0-13.0-3.4",9411,"ListA","man","english","SW_E_M_A2",NA,NA,NA,NA,"{""Q0"":""kate is promising mike""}","<img src='gifs/ChineseGender4b.gif' style='height:400px;''></img>","promising","is promising","english",NA
"null","<div style=""font-size:60px;"">+</div>",NA,"html-keyboard-response",71,513641,"0.0-13.0-0.5",9411,"ListA","man","english","SW_E_M_A2",NA,NA,NA,"null",NA,NA,NA,NA,NA,NA
"null","<img src='gifs/BlackGender4b.gif' style='height:400px;''></img>",NA,"html-keyboard-response",72,515646,"0.0-13.0-1.5",9411,"ListA","man","english","SW_E_M_A2",NA,NA,NA,"null",NA,NA,NA,NA,NA,NA
"null","is walking towards",NA,"html-keyboard-response",73,518646,"0.0-13.0-2.5",9411,"ListA","man","english","SW_E_M_A2",NA,NA,NA,"null",NA,NA,NA,NA,NA,NA
"8213.90000000596",NA,NA,"survey-text",74,526862,"0.0-13.0-3.5",9411,"ListA","man","english","SW_E_M_A2",NA,NA,NA,NA,"{""Q0"":""jane is walking towards dave""}","<img src='gifs/BlackGender4b.gif' style='height:400px;''></img>","walking towards","is walking towards","english",NA
"null","<div style=""font-size:60px;"">+</div>",NA,"html-keyboard-response",75,527378,"0.0-13.0-0.6",9411,"ListA","man","english","SW_E_M_A2",NA,NA,NA,"null",NA,NA,NA,NA,NA,NA
"null","<img src='gifs/MaleRace2a.gif' style='height:400px;''></img>",NA,"html-keyboard-response",76,529379,"0.0-13.0-1.6",9411,"ListA","man","english","SW_E_M_A2",NA,NA,NA,"null",NA,NA,NA,NA,NA,NA
"null","is touching",NA,"html-keyboard-response",77,532381,"0.0-13.0-2.6",9411,"ListA","man","english","SW_E_M_A2",NA,NA,NA,"null",NA,NA,NA,NA,NA,NA
"3877.300000011921",NA,NA,"survey-text",78,536260,"0.0-13.0-3.6",9411,"ListA","man","english","SW_E_M_A2",NA,NA,NA,NA,"{""Q0"":""dave is touching mike""}","<img src='gifs/MaleRace2a.gif' style='height:400px;''></img>","touching","is touching","english",NA
"null","<div style=""font-size:60px;"">+</div>",NA,"html-keyboard-response",79,536775,"0.0-13.0-0.7",9411,"ListA","man","english","SW_E_M_A2",NA,NA,NA,"null",NA,NA,NA,NA,NA,NA
"null","<img src='gifs/MaleRace1a.gif' style='height:400px;''></img>",NA,"html-keyboard-response",80,538777,"0.0-13.0-1.7",9411,"ListA","man","english","SW_E_M_A2",NA,NA,NA,"null",NA,NA,NA,NA,NA,NA
"null","is mentioning",NA,"html-keyboard-response",81,541778,"0.0-13.0-2.7",9411,"ListA","man","english","SW_E_M_A2",NA,NA,NA,"null",NA,NA,NA,NA,NA,NA
"9133.59999999404",NA,NA,"survey-text",82,550913,"0.0-13.0-3.7",9411,"ListA","man","english","SW_E_M_A2",NA,NA,NA,NA,"{""Q0"":""luke is mentioning fred""}","<img src='gifs/MaleRace1a.gif' style='height:400px;''></img>","mention","is mentioning","english",NA
"null","<div style=""font-size:60px;"">+</div>",NA,"html-keyboard-response",83,551428,"0.0-13.0-0.8",9411,"ListA","man","english","SW_E_M_A2",NA,NA,NA,"null",NA,NA,NA,NA,NA,NA
"null","<img src='gifs/FemaleRace3b.gif' style='height:400px;''></img>",NA,"html-keyboard-response",84,553439,"0.0-13.0-1.8",9411,"ListA","man","english","SW_E_M_A2",NA,NA,NA,"null",NA,NA,NA,NA,NA,NA
"null","is mentioning",NA,"html-keyboard-response",85,556440,"0.0-13.0-2.8",9411,"ListA","man","english","SW_E_M_A2",NA,NA,NA,"null",NA,NA,NA,NA,NA,NA
"9503.199999988079",NA,NA,"survey-text",86,565945,"0.0-13.0-3.8",9411,"ListA","man","english","SW_E_M_A2",NA,NA,NA,NA,"{""Q0"":""beth is mentioning ruth""}","<img src='gifs/FemaleRace3b.gif' style='height:400px;''></img>","mention","is mentioning","english",NA
"null","<div style=""font-size:60px;"">+</div>",NA,"html-keyboard-response",87,566457,"0.0-13.0-0.9",9411,"ListA","man","english","SW_E_M_A2",NA,NA,NA,"null",NA,NA,NA,NA,NA,NA
"null","<img src='gifs/ChineseGender4b.gif' style='height:400px;''></img>",NA,"html-keyboard-response",88,568464,"0.0-13.0-1.9",9411,"ListA","man","english","SW_E_M_A2",NA,NA,NA,"null",NA,NA,NA,NA,NA,NA
"null","is praising",NA,"html-keyboard-response",89,571465,"0.0-13.0-2.9",9411,"ListA","man","english","SW_E_M_A2",NA,NA,NA,"null",NA,NA,NA,NA,NA,NA
"7684.5",NA,NA,"survey-text",90,579150,"0.0-13.0-3.9",9411,"ListA","man","english","SW_E_M_A2",NA,NA,NA,NA,"{""Q0"":""mike is praising kate""}","<img src='gifs/ChineseGender4b.gif' style='height:400px;''></img>","praising","is praising","english",NA
"null","<div style=""font-size:60px;"">+</div>",NA,"html-keyboard-response",91,579665,"0.0-13.0-0.10",9411,"ListA","man","english","SW_E_M_A2",NA,NA,NA,"null",NA,NA,NA,NA,NA,NA
"null","<img src='gifs/BlackGender1b.gif' style='height:400px;''></img>",NA,"html-keyboard-response",92,581676,"0.0-13.0-1.10",9411,"ListA","man","english","SW_E_M_A2",NA,NA,NA,"null",NA,NA,NA,NA,NA,NA
"null","is approaching",NA,"html-keyboard-response",93,584677,"0.0-13.0-2.10",9411,"ListA","man","english","SW_E_M_A2",NA,NA,NA,"null",NA,NA,NA,NA,NA,NA
"11851.5",NA,NA,"survey-text",94,596529,"0.0-13.0-3.10",9411,"ListA","man","english","SW_E_M_A2",NA,NA,NA,NA,"{""Q0"":""ruth is approaching luke""}","<img src='gifs/BlackGender1b.gif' style='height:400px;''></img>","approaching","is approaching","english",NA
"null","<div style=""font-size:60px;"">+</div>",NA,"html-keyboard-response",95,597036,"0.0-13.0-0.11",9411,"ListA","man","english","SW_E_M_A2",NA,NA,NA,"null",NA,NA,NA,NA,NA,NA
"null","<img src='gifs/FemaleRace4b.gif' style='height:400px;''></img>",NA,"html-keyboard-response",96,599039,"0.0-13.0-1.11",9411,"ListA","man","english","SW_E_M_A2",NA,NA,NA,"null",NA,NA,NA,NA,NA,NA
"null","is convincing",NA,"html-keyboard-response",97,602040,"0.0-13.0-2.11",9411,"ListA","man","english","SW_E_M_A2",NA,NA,NA,"null",NA,NA,NA,NA,NA,NA
"12565.300000011921",NA,NA,"survey-text",98,614607,"0.0-13.0-3.11",9411,"ListA","man","english","SW_E_M_A2",NA,NA,NA,NA,"{""Q0"":""beth is convincing jane""}","<img src='gifs/FemaleRace4b.gif' style='height:400px;''></img>","convincing","is convincing","english",NA
"null","<div style=""font-size:60px;"">+</div>",NA,"html-keyboard-response",99,615115,"0.0-13.0-0.12",9411,"ListA","man","english","SW_E_M_A2",NA,NA,NA,"null",NA,NA,NA,NA,NA,NA
"null","<img src='gifs/MaleRace1a.gif' style='height:400px;''></img>",NA,"html-keyboard-response",100,617123,"0.0-13.0-1.12",9411,"ListA","man","english","SW_E_M_A2",NA,NA,NA,"null",NA,NA,NA,NA,NA,NA
"null","is joining",NA,"html-keyboard-response",101,620133,"0.0-13.0-2.12",9411,"ListA","man","english","SW_E_M_A2",NA,NA,NA,"null",NA,NA,NA,NA,NA,NA
"9655.5",NA,NA,"survey-text",102,629790,"0.0-13.0-3.12",9411,"ListA","man","english","SW_E_M_A2",NA,NA,NA,NA,"{""Q0"":""fred is joining luke""}","<img src='gifs/MaleRace1a.gif' style='height:400px;''></img>","join","is joining","english",NA
"null","<div style=""font-size:60px;"">+</div>",NA,"html-keyboard-response",103,630302,"0.0-13.0-0.13",9411,"ListA","man","english","SW_E_M_A2",NA,NA,NA,"null",NA,NA,NA,NA,NA,NA
"null","<img src='gifs/ChineseGender4a.gif' style='height:400px;''></img>",NA,"html-keyboard-response",104,632303,"0.0-13.0-1.13",9411,"ListA","man","english","SW_E_M_A2",NA,NA,NA,"null",NA,NA,NA,NA,NA,NA
"null","is looking at",NA,"html-keyboard-response",105,635315,"0.0-13.0-2.13",9411,"ListA","man","english","SW_E_M_A2",NA,NA,NA,"null",NA,NA,NA,NA,NA,NA
"5075.200000017881",NA,NA,"survey-text",106,640391,"0.0-13.0-3.13",9411,"ListA","man","english","SW_E_M_A2",NA,NA,NA,NA,"{""Q0"":""mike is looking at kate""}","<img src='gifs/ChineseGender4a.gif' style='height:400px;''></img>","looking at","is looking at","english",NA
"null","<div style=""font-size:60px;"">+</div>",NA,"html-keyboard-response",107,640895,"0.0-13.0-0.14",9411,"ListA","man","english","SW_E_M_A2",NA,NA,NA,"null",NA,NA,NA,NA,NA,NA
"null","<img src='gifs/BlackGender1b.gif' style='height:400px;''></img>",NA,"html-keyboard-response",108,642896,"0.0-13.0-1.14",9411,"ListA","man","english","SW_E_M_A2",NA,NA,NA,"null",NA,NA,NA,NA,NA,NA
"null","is contacting",NA,"html-keyboard-response",109,645904,"0.0-13.0-2.14",9411,"ListA","man","english","SW_E_M_A2",NA,NA,NA,"null",NA,NA,NA,NA,NA,NA
"7723.199999988079",NA,NA,"survey-text",110,653628,"0.0-13.0-3.14",9411,"ListA","man","english","SW_E_M_A2",NA,NA,NA,NA,"{""Q0"":""ruth is contacting luke""}","<img src='gifs/BlackGender1b.gif' style='height:400px;''></img>","contacting","is contacting","english",NA
"null","<div style=""font-size:60px;"">+</div>",NA,"html-keyboard-response",111,654133,"0.0-13.0-0.15",9411,"ListA","man","english","SW_E_M_A2",NA,NA,NA,"null",NA,NA,NA,NA,NA,NA
"null","<img src='gifs/MaleRace1b.gif' style='height:400px;''></img>",NA,"html-keyboard-response",112,656145,"0.0-13.0-1.15",9411,"ListA","man","english","SW_E_M_A2",NA,NA,NA,"null",NA,NA,NA,NA,NA,NA
"null","is touching",NA,"html-keyboard-response",113,659146,"0.0-13.0-2.15",9411,"ListA","man","english","SW_E_M_A2",NA,NA,NA,"null",NA,NA,NA,NA,NA,NA
"8257",NA,NA,"survey-text",114,667405,"0.0-13.0-3.15",9411,"ListA","man","english","SW_E_M_A2",NA,NA,NA,NA,"{""Q0"":""luke is touching fred""}","<img src='gifs/MaleRace1b.gif' style='height:400px;''></img>","touching","is touching","english",NA
"null","<div style=""font-size:60px;"">+</div>",NA,"html-keyboard-response",115,667917,"0.0-13.0-0.16",9411,"ListA","man","english","SW_E_M_A2",NA,NA,NA,"null",NA,NA,NA,NA,NA,NA
"null","<img src='gifs/FemaleRace3a.gif' style='height:400px;''></img>",NA,"html-keyboard-response",116,669926,"0.0-13.0-1.16",9411,"ListA","man","english","SW_E_M_A2",NA,NA,NA,"null",NA,NA,NA,NA,NA,NA
"null","is convincing",NA,"html-keyboard-response",117,672937,"0.0-13.0-2.16",9411,"ListA","man","english","SW_E_M_A2",NA,NA,NA,"null",NA,NA,NA,NA,NA,NA
"13225.799999982119",NA,NA,"survey-text",118,686164,"0.0-13.0-3.16",9411,"ListA","man","english","SW_E_M_A2",NA,NA,NA,NA,"{""Q0"":""ruth is convincing ruth""}","<img src='gifs/FemaleRace3a.gif' style='height:400px;''></img>","convincing","is convincing","english",NA
"null","<div style=""font-size:60px;"">+</div>",NA,"html-keyboard-response",119,686672,"0.0-13.0-0.17",9411,"ListA","man","english","SW_E_M_A2",NA,NA,NA,"null",NA,NA,NA,NA,NA,NA
"null","<img src='gifs/FemaleRace2a.gif' style='height:400px;''></img>",NA,"html-keyboard-response",120,688682,"0.0-13.0-1.17",9411,"ListA","man","english","SW_E_M_A2",NA,NA,NA,"null",NA,NA,NA,NA,NA,NA
"null","is promising",NA,"html-keyboard-response",121,691689,"0.0-13.0-2.17",9411,"ListA","man","english","SW_E_M_A2",NA,NA,NA,"null",NA,NA,NA,NA,NA,NA
"8172.199999988079",NA,NA,"survey-text",122,699863,"0.0-13.0-3.17",9411,"ListA","man","english","SW_E_M_A2",NA,NA,NA,NA,"{""Q0"":""kate is promising jane""}","<img src='gifs/FemaleRace2a.gif' style='height:400px;''></img>","promising","is promising","english",NA
"6219.5999999940395","<img src='img/portrait_matrix_listA.jpg' style='width:900px;height:500px;''></img><p>If you have memorised all the portraits and names and are ready to start, press Continue.</p><p><strong>Please note: Your memory of these faces will be tested 5 times during this experiment.</strong></p>",0,"html-button-response",123,706083,"0.0-14.0-0.0",9411,"ListA","man","english","SW_E_M_A2",NA,NA,NA,NA,NA,NA,NA,NA,NA,NA
"7037.899999976158","<img src=""portrait/BW1.jpg""style=""height:400px;""></img>",0,"html-button-response",124,714123,"0.0-14.0-1.0",9411,"ListA","man","english","SW_E_M_A2",NA,"true",0,NA,NA,NA,NA,NA,NA,NA
"null","CORRECT",NA,"html-keyboard-response",125,715634,"0.0-14.0-2.0-0.0",9411,"ListA","man","english","SW_E_M_A2",NA,NA,NA,"null",NA,NA,NA,NA,NA,NA
"2120.800000011921","<img src=""portrait/BM2.jpg""style=""height:400px;""></img>",5,"html-button-response",126,717756,"0.0-14.0-4.0",9411,"ListA","man","english","SW_E_M_A2",NA,"true",5,NA,NA,NA,NA,NA,NA,NA
"null","CORRECT",NA,"html-keyboard-response",127,719259,"0.0-14.0-5.0-0.0",9411,"ListA","man","english","SW_E_M_A2",NA,NA,NA,"null",NA,NA,NA,NA,NA,NA
"4071","<img src=""portrait/WM2.jpg""style=""height:400px;""></img>",6,"html-button-response",128,723331,"0.0-14.0-7.0",9411,"ListA","man","english","SW_E_M_A2",NA,"true",7,NA,NA,NA,NA,NA,NA,NA
"1894","<img src=""portrait/WM2.jpg""style=""height:400px;""></img>",7,"html-button-response",129,726227,"0.0-14.0-9.0-0.0",9411,"ListA","man","english","SW_E_M_A2",NA,"false",7,NA,NA,NA,NA,NA,NA,NA
"null","CORRECT",NA,"html-keyboard-response",130,727730,"0.0-14.0-9.0-1.0-0.0",9411,"ListA","man","english","SW_E_M_A2",NA,NA,NA,"null",NA,NA,NA,NA,NA,NA
"2952.899999976158","<img src=""portrait/BM1.jpg""style=""height:400px;""></img>",4,"html-button-response",131,730684,"0.0-14.0-10.0",9411,"ListA","man","english","SW_E_M_A2",NA,"true",4,NA,NA,NA,NA,NA,NA,NA
"null","CORRECT",NA,"html-keyboard-response",132,732211,"0.0-14.0-11.0-0.0",9411,"ListA","man","english","SW_E_M_A2",NA,NA,NA,"null",NA,NA,NA,NA,NA,NA
"2191.5","<img src=""portrait/BW2.jpg""style=""height:400px;""></img>",2,"html-button-response",133,734403,"0.0-14.0-13.0",9411,"ListA","man","english","SW_E_M_A2",NA,"true",2,NA,NA,NA,NA,NA,NA,NA
"null","CORRECT",NA,"html-keyboard-response",134,735916,"0.0-14.0-14.0-0.0",9411,"ListA","man","english","SW_E_M_A2",NA,NA,NA,"null",NA,NA,NA,NA,NA,NA
"2262.300000011921","<img src=""portrait/WW1.jpg""style=""height:400px;""></img>",1,"html-button-response",135,738180,"0.0-14.0-16.0",9411,"ListA","man","english","SW_E_M_A2",NA,"true",1,NA,NA,NA,NA,NA,NA,NA
"null","CORRECT",NA,"html-keyboard-response",136,739698,"0.0-14.0-17.0-0.0",9411,"ListA","man","english","SW_E_M_A2",NA,NA,NA,"null",NA,NA,NA,NA,NA,NA
"1432.3999999761581","<img src=""portrait/WM1.jpg""style=""height:400px;""></img>",6,"html-button-response",137,741131,"0.0-14.0-19.0",9411,"ListA","man","english","SW_E_M_A2",NA,"true",6,NA,NA,NA,NA,NA,NA,NA
"null","CORRECT",NA,"html-keyboard-response",138,742646,"0.0-14.0-20.0-0.0",9411,"ListA","man","english","SW_E_M_A2",NA,NA,NA,"null",NA,NA,NA,NA,NA,NA
"1659.9000000059605","<img src=""portrait/WW2.jpg""style=""height:400px;""></img>",3,"html-button-response",139,744307,"0.0-14.0-22.0",9411,"ListA","man","english","SW_E_M_A2",NA,"true",3,NA,NA,NA,NA,NA,NA,NA
"null","CORRECT",NA,"html-keyboard-response",140,745829,"0.0-14.0-23.0-0.0",9411,"ListA","man","english","SW_E_M_A2",NA,NA,NA,"null",NA,NA,NA,NA,NA,NA
"893.3000000119209","<p>You got 7 out of 8 right first time. Press Continue.</p>",0,"html-button-response",141,746723,"0.0-14.0-25.0",9411,"ListA","man","english","SW_E_M_A2",NA,NA,NA,NA,NA,NA,NA,NA,NA,NA
"1043.2000000178814","As you did not score 100%, the memory game will repeat. Press Continue.",0,"html-button-response",142,748771,"0.0-14.0-26.0-0.0",9411,"ListA","man","english","SW_E_M_A2",NA,NA,NA,NA,NA,NA,NA,NA,NA,NA
"873.1000000238419","<img src='img/portrait_matrix_listA.jpg' style='width:900px;height:500px;''></img><p>If you have memorised all the portraits and names and are ready to start, press Continue.</p><p><strong>Please note: Your memory of these faces will be tested 5 times during this experiment.</strong></p>",0,"html-button-response",143,750651,"0.0-14.1-0.1",9411,"ListA","man","english","SW_E_M_A2",NA,NA,NA,NA,NA,NA,NA,NA,NA,NA
"6397.5","<img src=""portrait/BW1.jpg""style=""height:400px;""></img>",0,"html-button-response",144,758052,"0.0-14.1-1.1",9411,"ListA","man","english","SW_E_M_A2",NA,"true",0,NA,NA,NA,NA,NA,NA,NA
"null","CORRECT",NA,"html-keyboard-response",145,759558,"0.0-14.1-2.1-0.1",9411,"ListA","man","english","SW_E_M_A2",NA,NA,NA,"null",NA,NA,NA,NA,NA,NA
"1659.9000000059605","<img src=""portrait/BM2.jpg""style=""height:400px;""></img>",5,"html-button-response",146,761219,"0.0-14.1-4.1",9411,"ListA","man","english","SW_E_M_A2",NA,"true",5,NA,NA,NA,NA,NA,NA,NA
"null","CORRECT",NA,"html-keyboard-response",147,762744,"0.0-14.1-5.1-0.1",9411,"ListA","man","english","SW_E_M_A2",NA,NA,NA,"null",NA,NA,NA,NA,NA,NA
"1074.2000000178814","<img src=""portrait/WM2.jpg""style=""height:400px;""></img>",7,"html-button-response",148,763819,"0.0-14.1-7.1",9411,"ListA","man","english","SW_E_M_A2",NA,"true",7,NA,NA,NA,NA,NA,NA,NA
"null","CORRECT",NA,"html-keyboard-response",149,765328,"0.0-14.1-8.1-0.1",9411,"ListA","man","english","SW_E_M_A2",NA,NA,NA,"null",NA,NA,NA,NA,NA,NA
"1482.0999999940395","<img src=""portrait/BM1.jpg""style=""height:400px;""></img>",4,"html-button-response",150,766811,"0.0-14.1-10.1",9411,"ListA","man","english","SW_E_M_A2",NA,"true",4,NA,NA,NA,NA,NA,NA,NA
"null","CORRECT",NA,"html-keyboard-response",151,768333,"0.0-14.1-11.1-0.1",9411,"ListA","man","english","SW_E_M_A2",NA,NA,NA,"null",NA,NA,NA,NA,NA,NA
"4605.700000017881","<img src=""portrait/BW2.jpg""style=""height:400px;""></img>",2,"html-button-response",152,772940,"0.0-14.1-13.1",9411,"ListA","man","english","SW_E_M_A2",NA,"true",2,NA,NA,NA,NA,NA,NA,NA
"null","CORRECT",NA,"html-keyboard-response",153,774442,"0.0-14.1-14.1-0.1",9411,"ListA","man","english","SW_E_M_A2",NA,NA,NA,"null",NA,NA,NA,NA,NA,NA
"1392.5999999940395","<img src=""portrait/WW1.jpg""style=""height:400px;""></img>",1,"html-button-response",154,775835,"0.0-14.1-16.1",9411,"ListA","man","english","SW_E_M_A2",NA,"true",1,NA,NA,NA,NA,NA,NA,NA
"null","CORRECT",NA,"html-keyboard-response",155,777337,"0.0-14.1-17.1-0.1",9411,"ListA","man","english","SW_E_M_A2",NA,NA,NA,"null",NA,NA,NA,NA,NA,NA
"1121.300000011921","<img src=""portrait/WM1.jpg""style=""height:400px;""></img>",6,"html-button-response",156,778459,"0.0-14.1-19.1",9411,"ListA","man","english","SW_E_M_A2",NA,"true",6,NA,NA,NA,NA,NA,NA,NA
"null","CORRECT",NA,"html-keyboard-response",157,779968,"0.0-14.1-20.1-0.1",9411,"ListA","man","english","SW_E_M_A2",NA,NA,NA,"null",NA,NA,NA,NA,NA,NA
"1137.8999999761581","<img src=""portrait/WW2.jpg""style=""height:400px;""></img>",3,"html-button-response",158,781107,"0.0-14.1-22.1",9411,"ListA","man","english","SW_E_M_A2",NA,"true",3,NA,NA,NA,NA,NA,NA,NA
"null","CORRECT",NA,"html-keyboard-response",159,782630,"0.0-14.1-23.1-0.1",9411,"ListA","man","english","SW_E_M_A2",NA,NA,NA,"null",NA,NA,NA,NA,NA,NA
"851.6999999880791","<p>You got 8 out of 8 right first time. Press Continue.</p>",0,"html-button-response",160,783483,"0.0-14.1-25.1",9411,"ListA","man","english","SW_E_M_A2",NA,NA,NA,NA,NA,NA,NA,NA,NA,NA
"null","<div style=""font-size:60px;"">+</div>",NA,"html-keyboard-response",161,785003,"0.0-15.0-0.0",9411,"ListA","man","english","SW_E_M_A2",NA,NA,NA,"null",NA,NA,NA,NA,NA,NA
"null","<img src='gifs/MaleRace3b.gif' style='height:400px;''></img>",NA,"html-keyboard-response",162,787005,"0.0-15.0-1.0",9411,"ListA","man","english","SW_E_M_A2",NA,NA,NA,"null",NA,NA,NA,NA,NA,NA
"null","is walking towards",NA,"html-keyboard-response",163,790006,"0.0-15.0-2.0",9411,"ListA","man","english","SW_E_M_A2",NA,NA,NA,"null",NA,NA,NA,NA,NA,NA
"4994.0999999940395",NA,NA,"survey-text",164,795001,"0.0-15.0-3.0",9411,"ListA","man","english","SW_E_M_A2",NA,NA,NA,NA,"{""Q0"":""mike is walking towards luke""}","<img src='gifs/MaleRace3b.gif' style='height:400px;''></img>","walking towards","is walking towards","english",NA
"null","<div style=""font-size:60px;"">+</div>",NA,"html-keyboard-response",165,795504,"0.0-15.0-0.1",9411,"ListA","man","english","SW_E_M_A2",NA,NA,NA,"null",NA,NA,NA,NA,NA,NA
"null","<img src='gifs/ChineseGender2b.gif' style='height:400px;''></img>",NA,"html-keyboard-response",166,797510,"0.0-15.0-1.1",9411,"ListA","man","english","SW_E_M_A2",NA,NA,NA,"null",NA,NA,NA,NA,NA,NA
"null","is accompanying",NA,"html-keyboard-response",167,800515,"0.0-15.0-2.1",9411,"ListA","man","english","SW_E_M_A2",NA,NA,NA,"null",NA,NA,NA,NA,NA,NA
"8180.200000017881",NA,NA,"survey-text",168,808696,"0.0-15.0-3.1",9411,"ListA","man","english","SW_E_M_A2",NA,NA,NA,NA,"{""Q0"":""beth is accompanying luke""}","<img src='gifs/ChineseGender2b.gif' style='height:400px;''></img>","accompanying","is accompanying","english",NA
"null","<div style=""font-size:60px;"">+</div>",NA,"html-keyboard-response",169,809199,"0.0-15.0-0.2",9411,"ListA","man","english","SW_E_M_A2",NA,NA,NA,"null",NA,NA,NA,NA,NA,NA
"null","<img src='gifs/ChineseGender1b.gif' style='height:400px;''></img>",NA,"html-keyboard-response",170,811209,"0.0-15.0-1.2",9411,"ListA","man","english","SW_E_M_A2",NA,NA,NA,"null",NA,NA,NA,NA,NA,NA
"null","is following",NA,"html-keyboard-response",171,814211,"0.0-15.0-2.2",9411,"ListA","man","english","SW_E_M_A2",NA,NA,NA,"null",NA,NA,NA,NA,NA,NA
"6711.5999999940395",NA,NA,"survey-text",172,820924,"0.0-15.0-3.2",9411,"ListA","man","english","SW_E_M_A2",NA,NA,NA,NA,"{""Q0"":""kate is following fred""}","<img src='gifs/ChineseGender1b.gif' style='height:400px;''></img>","following","is following","english",NA
"null","<div style=""font-size:60px;"">+</div>",NA,"html-keyboard-response",173,821427,"0.0-15.0-0.3",9411,"ListA","man","english","SW_E_M_A2",NA,NA,NA,"null",NA,NA,NA,NA,NA,NA
"null","<img src='gifs/FemaleRace4a.gif' style='height:400px;''></img>",NA,"html-keyboard-response",174,823436,"0.0-15.0-1.3",9411,"ListA","man","english","SW_E_M_A2",NA,NA,NA,"null",NA,NA,NA,NA,NA,NA
"null","is introducing",NA,"html-keyboard-response",175,826443,"0.0-15.0-2.3",9411,"ListA","man","english","SW_E_M_A2",NA,NA,NA,"null",NA,NA,NA,NA,NA,NA
"3605.5",NA,NA,"survey-text",176,830050,"0.0-15.0-3.3",9411,"ListA","man","english","SW_E_M_A2",NA,NA,NA,NA,"{""Q0"":""jane is introducing beth""}","<img src='gifs/FemaleRace4a.gif' style='height:400px;''></img>","introducing","is introducing","english",NA
"null","<div style=""font-size:60px;"">+</div>",NA,"html-keyboard-response",177,830558,"0.0-15.0-0.4",9411,"ListA","man","english","SW_E_M_A2",NA,NA,NA,"null",NA,NA,NA,NA,NA,NA
"null","<img src='gifs/ChineseGender3b.gif' style='height:400px;''></img>",NA,"html-keyboard-response",178,832571,"0.0-15.0-1.4",9411,"ListA","man","english","SW_E_M_A2",NA,NA,NA,"null",NA,NA,NA,NA,NA,NA
"null","is facing",NA,"html-keyboard-response",179,835573,"0.0-15.0-2.4",9411,"ListA","man","english","SW_E_M_A2",NA,NA,NA,"null",NA,NA,NA,NA,NA,NA
"3720.899999976158",NA,NA,"survey-text",180,839295,"0.0-15.0-3.4",9411,"ListA","man","english","SW_E_M_A2",NA,NA,NA,NA,"{""Q0"":""beth is facing mike""}","<img src='gifs/ChineseGender3b.gif' style='height:400px;''></img>","facing","is facing","english",NA
"null","<div style=""font-size:60px;"">+</div>",NA,"html-keyboard-response",181,839810,"0.0-15.0-0.5",9411,"ListA","man","english","SW_E_M_A2",NA,NA,NA,"null",NA,NA,NA,NA,NA,NA
"null","<img src='gifs/FemaleRace4b.gif' style='height:400px;''></img>",NA,"html-keyboard-response",182,841819,"0.0-15.0-1.5",9411,"ListA","man","english","SW_E_M_A2",NA,NA,NA,"null",NA,NA,NA,NA,NA,NA
"null","is employing",NA,"html-keyboard-response",183,844833,"0.0-15.0-2.5",9411,"ListA","man","english","SW_E_M_A2",NA,NA,NA,"null",NA,NA,NA,NA,NA,NA
"4358.300000011921",NA,NA,"survey-text",184,849192,"0.0-15.0-3.5",9411,"ListA","man","english","SW_E_M_A2",NA,NA,NA,NA,"{""Q0"":""beth is employing jane""}","<img src='gifs/FemaleRace4b.gif' style='height:400px;''></img>","employing","is employing","english",NA
"null","<div style=""font-size:60px;"">+</div>",NA,"html-keyboard-response",185,849708,"0.0-15.0-0.6",9411,"ListA","man","english","SW_E_M_A2",NA,NA,NA,"null",NA,NA,NA,NA,NA,NA
"null","<img src='gifs/MaleRace2b.gif' style='height:400px;''></img>",NA,"html-keyboard-response",186,851715,"0.0-15.0-1.6",9411,"ListA","man","english","SW_E_M_A2",NA,NA,NA,"null",NA,NA,NA,NA,NA,NA
"null","is praising",NA,"html-keyboard-response",187,854717,"0.0-15.0-2.6",9411,"ListA","man","english","SW_E_M_A2",NA,NA,NA,"null",NA,NA,NA,NA,NA,NA
"5806.0999999940395",NA,NA,"survey-text",188,860524,"0.0-15.0-3.6",9411,"ListA","man","english","SW_E_M_A2",NA,NA,NA,NA,"{""Q0"":""dave is praising fred""}","<img src='gifs/MaleRace2b.gif' style='height:400px;''></img>","praising","is praising","english",NA
"null","<div style=""font-size:60px;"">+</div>",NA,"html-keyboard-response",189,861030,"0.0-15.0-0.7",9411,"ListA","man","english","SW_E_M_A2",NA,NA,NA,"null",NA,NA,NA,NA,NA,NA
"null","<img src='gifs/MaleRace2a.gif' style='height:400px;''></img>",NA,"html-keyboard-response",190,863045,"0.0-15.0-1.7",9411,"ListA","man","english","SW_E_M_A2",NA,NA,NA,"null",NA,NA,NA,NA,NA,NA
"null","is looking at",NA,"html-keyboard-response",191,866047,"0.0-15.0-2.7",9411,"ListA","man","english","SW_E_M_A2",NA,NA,NA,"null",NA,NA,NA,NA,NA,NA
"3234.699999988079",NA,NA,"survey-text",192,869283,"0.0-15.0-3.7",9411,"ListA","man","english","SW_E_M_A2",NA,NA,NA,NA,"{""Q0"":""dave is looking at fred""}","<img src='gifs/MaleRace2a.gif' style='height:400px;''></img>","looking at","is looking at","english",NA
"null","<div style=""font-size:60px;"">+</div>",NA,"html-keyboard-response",193,869791,"0.0-15.0-0.8",9411,"ListA","man","english","SW_E_M_A2",NA,NA,NA,"null",NA,NA,NA,NA,NA,NA
"null","<img src='gifs/BlackGender2a.gif' style='height:400px;''></img>",NA,"html-keyboard-response",194,871799,"0.0-15.0-1.8",9411,"ListA","man","english","SW_E_M_A2",NA,NA,NA,"null",NA,NA,NA,NA,NA,NA
"null","is introducing",NA,"html-keyboard-response",195,874800,"0.0-15.0-2.8",9411,"ListA","man","english","SW_E_M_A2",NA,NA,NA,"null",NA,NA,NA,NA,NA,NA
"4887.4000000059605",NA,NA,"survey-text",196,879688,"0.0-15.0-3.8",9411,"ListA","man","english","SW_E_M_A2",NA,NA,NA,NA,"{""Q0"":""ruth is introducing dave""}","<img src='gifs/BlackGender2a.gif' style='height:400px;''></img>","introducing","is introducing","english",NA
"null","<div style=""font-size:60px;"">+</div>",NA,"html-keyboard-response",197,880196,"0.0-15.0-0.9",9411,"ListA","man","english","SW_E_M_A2",NA,NA,NA,"null",NA,NA,NA,NA,NA,NA
"null","<img src='gifs/BlackGender3a.gif' style='height:400px;''></img>",NA,"html-keyboard-response",198,882207,"0.0-15.0-1.9",9411,"ListA","man","english","SW_E_M_A2",NA,NA,NA,"null",NA,NA,NA,NA,NA,NA
"null","is accompanying",NA,"html-keyboard-response",199,885217,"0.0-15.0-2.9",9411,"ListA","man","english","SW_E_M_A2",NA,NA,NA,"null",NA,NA,NA,NA,NA,NA
"3628.4000000059605",NA,NA,"survey-text",200,888847,"0.0-15.0-3.9",9411,"ListA","man","english","SW_E_M_A2",NA,NA,NA,NA,"{""Q0"":""jane is accompanying luke""}","<img src='gifs/BlackGender3a.gif' style='height:400px;''></img>","accompanying","is accompanying","english",NA
"null","<div style=""font-size:60px;"">+</div>",NA,"html-keyboard-response",201,889362,"0.0-15.0-0.10",9411,"ListA","man","english","SW_E_M_A2",NA,NA,NA,"null",NA,NA,NA,NA,NA,NA
"null","<img src='gifs/MaleRace3b.gif' style='height:400px;''></img>",NA,"html-keyboard-response",202,891370,"0.0-15.0-1.10",9411,"ListA","man","english","SW_E_M_A2",NA,NA,NA,"null",NA,NA,NA,NA,NA,NA
"null","is looking at",NA,"html-keyboard-response",203,894376,"0.0-15.0-2.10",9411,"ListA","man","english","SW_E_M_A2",NA,NA,NA,"null",NA,NA,NA,NA,NA,NA
"4749.4000000059605",NA,NA,"survey-text",204,899128,"0.0-15.0-3.10",9411,"ListA","man","english","SW_E_M_A2",NA,NA,NA,NA,"{""Q0"":""mike is looking at luke""}","<img src='gifs/MaleRace3b.gif' style='height:400px;''></img>","looking at","is looking at","english",NA
"null","<div style=""font-size:60px;"">+</div>",NA,"html-keyboard-response",205,899638,"0.0-15.0-0.11",9411,"ListA","man","english","SW_E_M_A2",NA,NA,NA,"null",NA,NA,NA,NA,NA,NA
"null","<img src='gifs/BlackGender1a.gif' style='height:400px;''></img>",NA,"html-keyboard-response",206,901649,"0.0-15.0-1.11",9411,"ListA","man","english","SW_E_M_A2",NA,NA,NA,"null",NA,NA,NA,NA,NA,NA
"null","is praising",NA,"html-keyboard-response",207,904665,"0.0-15.0-2.11",9411,"ListA","man","english","SW_E_M_A2",NA,NA,NA,"null",NA,NA,NA,NA,NA,NA
"4492.899999976158",NA,NA,"survey-text",208,909159,"0.0-15.0-3.11",9411,"ListA","man","english","SW_E_M_A2",NA,NA,NA,NA,"{""Q0"":""ruth is praising luke""}","<img src='gifs/BlackGender1a.gif' style='height:400px;''></img>","praising","is praising","english",NA
"null","<div style=""font-size:60px;"">+</div>",NA,"html-keyboard-response",209,909666,"0.0-15.0-0.12",9411,"ListA","man","english","SW_E_M_A2",NA,NA,NA,"null",NA,NA,NA,NA,NA,NA
"null","<img src='gifs/FemaleRace1b.gif' style='height:400px;''></img>",NA,"html-keyboard-response",210,911681,"0.0-15.0-1.12",9411,"ListA","man","english","SW_E_M_A2",NA,NA,NA,"null",NA,NA,NA,NA,NA,NA
"null","is following",NA,"html-keyboard-response",211,914688,"0.0-15.0-2.12",9411,"ListA","man","english","SW_E_M_A2",NA,NA,NA,"null",NA,NA,NA,NA,NA,NA
"3216.300000011921",NA,NA,"survey-text",212,917906,"0.0-15.0-3.12",9411,"ListA","man","english","SW_E_M_A2",NA,NA,NA,NA,"{""Q0"":""kate is following ruth""}","<img src='gifs/FemaleRace1b.gif' style='height:400px;''></img>","following","is following","english",NA
"null","<div style=""font-size:60px;"">+</div>",NA,"html-keyboard-response",213,918412,"0.0-15.0-0.13",9411,"ListA","man","english","SW_E_M_A2",NA,NA,NA,"null",NA,NA,NA,NA,NA,NA
"null","<img src='gifs/BlackGender1a.gif' style='height:400px;''></img>",NA,"html-keyboard-response",214,920413,"0.0-15.0-1.13",9411,"ListA","man","english","SW_E_M_A2",NA,NA,NA,"null",NA,NA,NA,NA,NA,NA
"null","is joining",NA,"html-keyboard-response",215,923414,"0.0-15.0-2.13",9411,"ListA","man","english","SW_E_M_A2",NA,NA,NA,"null",NA,NA,NA,NA,NA,NA
"3530.4000000059605",NA,NA,"survey-text",216,926946,"0.0-15.0-3.13",9411,"ListA","man","english","SW_E_M_A2",NA,NA,NA,NA,"{""Q0"":""luke is joining ruth""}","<img src='gifs/BlackGender1a.gif' style='height:400px;''></img>","join","is joining","english",NA
"null","<div style=""font-size:60px;"">+</div>",NA,"html-keyboard-response",217,927453,"0.0-15.0-0.14",9411,"ListA","man","english","SW_E_M_A2",NA,NA,NA,"null",NA,NA,NA,NA,NA,NA
"null","<img src='gifs/ChineseGender3a.gif' style='height:400px;''></img>",NA,"html-keyboard-response",218,929457,"0.0-15.0-1.14",9411,"ListA","man","english","SW_E_M_A2",NA,NA,NA,"null",NA,NA,NA,NA,NA,NA
"null","is joining",NA,"html-keyboard-response",219,932463,"0.0-15.0-2.14",9411,"ListA","man","english","SW_E_M_A2",NA,NA,NA,"null",NA,NA,NA,NA,NA,NA
"3880.100000023842",NA,NA,"survey-text",220,936344,"0.0-15.0-3.14",9411,"ListA","man","english","SW_E_M_A2",NA,NA,NA,NA,"{""Q0"":""mike is joining beth""}","<img src='gifs/ChineseGender3a.gif' style='height:400px;''></img>","join","is joining","english",NA
"null","<div style=""font-size:60px;"">+</div>",NA,"html-keyboard-response",221,936854,"0.0-15.0-0.15",9411,"ListA","man","english","SW_E_M_A2",NA,NA,NA,"null",NA,NA,NA,NA,NA,NA
"null","<img src='gifs/FemaleRace3b.gif' style='height:400px;''></img>",NA,"html-keyboard-response",222,938867,"0.0-15.0-1.15",9411,"ListA","man","english","SW_E_M_A2",NA,NA,NA,"null",NA,NA,NA,NA,NA,NA
"null","is approaching",NA,"html-keyboard-response",223,941870,"0.0-15.0-2.15",9411,"ListA","man","english","SW_E_M_A2",NA,NA,NA,"null",NA,NA,NA,NA,NA,NA
"3293.5",NA,NA,"survey-text",224,945165,"0.0-15.0-3.15",9411,"ListA","man","english","SW_E_M_A2",NA,NA,NA,NA,"{""Q0"":""ruth is approaching beth""}","<img src='gifs/FemaleRace3b.gif' style='height:400px;''></img>","approaching","is approaching","english",NA
"null","<div style=""font-size:60px;"">+</div>",NA,"html-keyboard-response",225,945670,"0.0-15.0-0.16",9411,"ListA","man","english","SW_E_M_A2",NA,NA,NA,"null",NA,NA,NA,NA,NA,NA
"null","<img src='gifs/MaleRace4a.gif' style='height:400px;''></img>",NA,"html-keyboard-response",226,947680,"0.0-15.0-1.16",9411,"ListA","man","english","SW_E_M_A2",NA,NA,NA,"null",NA,NA,NA,NA,NA,NA
"null","is joining",NA,"html-keyboard-response",227,950685,"0.0-15.0-2.16",9411,"ListA","man","english","SW_E_M_A2",NA,NA,NA,"null",NA,NA,NA,NA,NA,NA
"4123.0999999940395",NA,NA,"survey-text",228,954811,"0.0-15.0-3.16",9411,"ListA","man","english","SW_E_M_A2",NA,NA,NA,NA,"{""Q0"":""mike is joining dave""}","<img src='gifs/MaleRace4a.gif' style='height:400px;''></img>","join","is joining","english",NA
"null","<div style=""font-size:60px;"">+</div>",NA,"html-keyboard-response",229,955316,"0.0-15.0-0.17",9411,"ListA","man","english","SW_E_M_A2",NA,NA,NA,"null",NA,NA,NA,NA,NA,NA
"null","<img src='gifs/ChineseGender1b.gif' style='height:400px;''></img>",NA,"html-keyboard-response",230,957323,"0.0-15.0-1.17",9411,"ListA","man","english","SW_E_M_A2",NA,NA,NA,"null",NA,NA,NA,NA,NA,NA
"null","is mentioning",NA,"html-keyboard-response",231,960330,"0.0-15.0-2.17",9411,"ListA","man","english","SW_E_M_A2",NA,NA,NA,"null",NA,NA,NA,NA,NA,NA
"8028.300000011921",NA,NA,"survey-text",232,968359,"0.0-15.0-3.17",9411,"ListA","man","english","SW_E_M_A2",NA,NA,NA,NA,"{""Q0"":""fred is mentioning kate""}","<img src='gifs/ChineseGender1b.gif' style='height:400px;''></img>","mention","is mentioning","english",NA
"1770.5","<img src='img/portrait_matrix_listA.jpg' style='width:900px;height:500px;''></img><p>If you have memorised all the portraits and names and are ready to start, press Continue.</p><p><strong>Please note: Your memory of these faces will be tested 5 times during this experiment.</strong></p>",0,"html-button-response",233,970131,"0.0-16.0-0.0",9411,"ListA","man","english","SW_E_M_A2",NA,NA,NA,NA,NA,NA,NA,NA,NA,NA
"3318.2999999821186","<img src=""portrait/BW1.jpg""style=""height:400px;""></img>",0,"html-button-response",234,974450,"0.0-16.0-1.0",9411,"ListA","man","english","SW_E_M_A2",NA,"true",0,NA,NA,NA,NA,NA,NA,NA
"null","CORRECT",NA,"html-keyboard-response",235,975977,"0.0-16.0-2.0-0.0",9411,"ListA","man","english","SW_E_M_A2",NA,NA,NA,"null",NA,NA,NA,NA,NA,NA
"1072.699999988079","<img src=""portrait/BM2.jpg""style=""height:400px;""></img>",5,"html-button-response",236,977051,"0.0-16.0-4.0",9411,"ListA","man","english","SW_E_M_A2",NA,"true",5,NA,NA,NA,NA,NA,NA,NA
"null","CORRECT",NA,"html-keyboard-response",237,978554,"0.0-16.0-5.0-0.0",9411,"ListA","man","english","SW_E_M_A2",NA,NA,NA,"null",NA,NA,NA,NA,NA,NA
"1527.5","<img src=""portrait/WW1.jpg""style=""height:400px;""></img>",1,"html-button-response",238,980082,"0.0-16.0-7.0",9411,"ListA","man","english","SW_E_M_A2",NA,"true",1,NA,NA,NA,NA,NA,NA,NA
"null","CORRECT",NA,"html-keyboard-response",239,981611,"0.0-16.0-8.0-0.0",9411,"ListA","man","english","SW_E_M_A2",NA,NA,NA,"null",NA,NA,NA,NA,NA,NA
"1198.199999988079","<img src=""portrait/WM2.jpg""style=""height:400px;""></img>",7,"html-button-response",240,982810,"0.0-16.0-10.0",9411,"ListA","man","english","SW_E_M_A2",NA,"true",7,NA,NA,NA,NA,NA,NA,NA
"null","CORRECT",NA,"html-keyboard-response",241,984312,"0.0-16.0-11.0-0.0",9411,"ListA","man","english","SW_E_M_A2",NA,NA,NA,"null",NA,NA,NA,NA,NA,NA
"1505.2000000178814","<img src=""portrait/WM1.jpg""style=""height:400px;""></img>",6,"html-button-response",242,985818,"0.0-16.0-13.0",9411,"ListA","man","english","SW_E_M_A2",NA,"true",6,NA,NA,NA,NA,NA,NA,NA
"null","CORRECT",NA,"html-keyboard-response",243,987331,"0.0-16.0-14.0-0.0",9411,"ListA","man","english","SW_E_M_A2",NA,NA,NA,"null",NA,NA,NA,NA,NA,NA
"1726.300000011921","<img src=""portrait/BW2.jpg""style=""height:400px;""></img>",2,"html-button-response",244,989058,"0.0-16.0-16.0",9411,"ListA","man","english","SW_E_M_A2",NA,"true",2,NA,NA,NA,NA,NA,NA,NA
"null","CORRECT",NA,"html-keyboard-response",245,990567,"0.0-16.0-17.0-0.0",9411,"ListA","man","english","SW_E_M_A2",NA,NA,NA,"null",NA,NA,NA,NA,NA,NA
"2226.4000000059605","<img src=""portrait/BM1.jpg""style=""height:400px;""></img>",4,"html-button-response",246,992795,"0.0-16.0-19.0",9411,"ListA","man","english","SW_E_M_A2",NA,"true",4,NA,NA,NA,NA,NA,NA,NA
"null","CORRECT",NA,"html-keyboard-response",247,994320,"0.0-16.0-20.0-0.0",9411,"ListA","man","english","SW_E_M_A2",NA,NA,NA,"null",NA,NA,NA,NA,NA,NA
"922.6000000238419","<img src=""portrait/WW2.jpg""style=""height:400px;""></img>",3,"html-button-response",248,995243,"0.0-16.0-22.0",9411,"ListA","man","english","SW_E_M_A2",NA,"true",3,NA,NA,NA,NA,NA,NA,NA
"null","CORRECT",NA,"html-keyboard-response",249,996763,"0.0-16.0-23.0-0.0",9411,"ListA","man","english","SW_E_M_A2",NA,NA,NA,"null",NA,NA,NA,NA,NA,NA
"1590.5999999940395","<p>You got 8 out of 8 right first time. Press Continue.</p>",0,"html-button-response",250,998355,"0.0-16.0-25.0",9411,"ListA","man","english","SW_E_M_A2",NA,NA,NA,NA,NA,NA,NA,NA,NA,NA
"null","<div style=""font-size:60px;"">+</div>",NA,"html-keyboard-response",251,999862,"0.0-17.0-0.0",9411,"ListA","man","english","SW_E_M_A2",NA,NA,NA,"null",NA,NA,NA,NA,NA,NA
"null","<img src='gifs/MaleRace2b.gif' style='height:400px;''></img>",NA,"html-keyboard-response",252,1001864,"0.0-17.0-1.0",9411,"ListA","man","english","SW_E_M_A2",NA,NA,NA,"null",NA,NA,NA,NA,NA,NA
"null","is praising",NA,"html-keyboard-response",253,1004868,"0.0-17.0-2.0",9411,"ListA","man","english","SW_E_M_A2",NA,NA,NA,"null",NA,NA,NA,NA,NA,NA
"5109",NA,NA,"survey-text",254,1009979,"0.0-17.0-3.0",9411,"ListA","man","english","SW_E_M_A2",NA,NA,NA,NA,"{""Q0"":""fred is praising dave""}","<img src='gifs/MaleRace2b.gif' style='height:400px;''></img>","praising","is praising","english",NA
"null","<div style=""font-size:60px;"">+</div>",NA,"html-keyboard-response",255,1010484,"0.0-17.0-0.1",9411,"ListA","man","english","SW_E_M_A2",NA,NA,NA,"null",NA,NA,NA,NA,NA,NA
"null","<img src='gifs/FemaleRace1a.gif' style='height:400px;''></img>",NA,"html-keyboard-response",256,1012485,"0.0-17.0-1.1",9411,"ListA","man","english","SW_E_M_A2",NA,NA,NA,"null",NA,NA,NA,NA,NA,NA
"null","is walking towards",NA,"html-keyboard-response",257,1015498,"0.0-17.0-2.1",9411,"ListA","man","english","SW_E_M_A2",NA,NA,NA,"null",NA,NA,NA,NA,NA,NA
"4982.0999999940395",NA,NA,"survey-text",258,1020483,"0.0-17.0-3.1",9411,"ListA","man","english","SW_E_M_A2",NA,NA,NA,NA,"{""Q0"":""kate is walking towards ruth""}","<img src='gifs/FemaleRace1a.gif' style='height:400px;''></img>","walking towards","is walking towards","english",NA
"null","<div style=""font-size:60px;"">+</div>",NA,"html-keyboard-response",259,1020985,"0.0-17.0-0.2",9411,"ListA","man","english","SW_E_M_A2",NA,NA,NA,"null",NA,NA,NA,NA,NA,NA
"null","<img src='gifs/BlackGender3a.gif' style='height:400px;''></img>",NA,"html-keyboard-response",260,1022988,"0.0-17.0-1.2",9411,"ListA","man","english","SW_E_M_A2",NA,NA,NA,"null",NA,NA,NA,NA,NA,NA
"null","is approaching",NA,"html-keyboard-response",261,1025996,"0.0-17.0-2.2",9411,"ListA","man","english","SW_E_M_A2",NA,NA,NA,"null",NA,NA,NA,NA,NA,NA
"6320.800000011921",NA,NA,"survey-text",262,1032318,"0.0-17.0-3.2",9411,"ListA","man","english","SW_E_M_A2",NA,NA,NA,NA,"{""Q0"":""luke is approaching jane""}","<img src='gifs/BlackGender3a.gif' style='height:400px;''></img>","approaching","is approaching","english",NA
"null","<div style=""font-size:60px;"">+</div>",NA,"html-keyboard-response",263,1032824,"0.0-17.0-0.3",9411,"ListA","man","english","SW_E_M_A2",NA,NA,NA,"null",NA,NA,NA,NA,NA,NA
"null","<img src='gifs/FemaleRace1b.gif' style='height:400px;''></img>",NA,"html-keyboard-response",264,1034836,"0.0-17.0-1.3",9411,"ListA","man","english","SW_E_M_A2",NA,NA,NA,"null",NA,NA,NA,NA,NA,NA
"null","is facing",NA,"html-keyboard-response",265,1037843,"0.0-17.0-2.3",9411,"ListA","man","english","SW_E_M_A2",NA,NA,NA,"null",NA,NA,NA,NA,NA,NA
"3295.9000000059605",NA,NA,"survey-text",266,1041140,"0.0-17.0-3.3",9411,"ListA","man","english","SW_E_M_A2",NA,NA,NA,NA,"{""Q0"":""ruth is facing kate""}","<img src='gifs/FemaleRace1b.gif' style='height:400px;''></img>","facing","is facing","english",NA
"null","<div style=""font-size:60px;"">+</div>",NA,"html-keyboard-response",267,1041655,"0.0-17.0-0.4",9411,"ListA","man","english","SW_E_M_A2",NA,NA,NA,"null",NA,NA,NA,NA,NA,NA
"null","<img src='gifs/ChineseGender3b.gif' style='height:400px;''></img>",NA,"html-keyboard-response",268,1043671,"0.0-17.0-1.4",9411,"ListA","man","english","SW_E_M_A2",NA,NA,NA,"null",NA,NA,NA,NA,NA,NA
"null","is facing",NA,"html-keyboard-response",269,1046672,"0.0-17.0-2.4",9411,"ListA","man","english","SW_E_M_A2",NA,NA,NA,"null",NA,NA,NA,NA,NA,NA
"6283.5",NA,NA,"survey-text",270,1052957,"0.0-17.0-3.4",9411,"ListA","man","english","SW_E_M_A2",NA,NA,NA,NA,"{""Q0"":""mike is facing beth""}","<img src='gifs/ChineseGender3b.gif' style='height:400px;''></img>","facing","is facing","english",NA
"null","<div style=""font-size:60px;"">+</div>",NA,"html-keyboard-response",271,1053465,"0.0-17.0-0.5",9411,"ListA","man","english","SW_E_M_A2",NA,NA,NA,"null",NA,NA,NA,NA,NA,NA
"null","<img src='gifs/MaleRace4a.gif' style='height:400px;''></img>",NA,"html-keyboard-response",272,1055476,"0.0-17.0-1.5",9411,"ListA","man","english","SW_E_M_A2",NA,NA,NA,"null",NA,NA,NA,NA,NA,NA
"null","is employing",NA,"html-keyboard-response",273,1058483,"0.0-17.0-2.5",9411,"ListA","man","english","SW_E_M_A2",NA,NA,NA,"null",NA,NA,NA,NA,NA,NA
"3639.199999988079",NA,NA,"survey-text",274,1062123,"0.0-17.0-3.5",9411,"ListA","man","english","SW_E_M_A2",NA,NA,NA,NA,"{""Q0"":""dave is employing mike""}","<img src='gifs/MaleRace4a.gif' style='height:400px;''></img>","employing","is employing","english",NA
"null","<div style=""font-size:60px;"">+</div>",NA,"html-keyboard-response",275,1062630,"0.0-17.0-0.6",9411,"ListA","man","english","SW_E_M_A2",NA,NA,NA,"null",NA,NA,NA,NA,NA,NA
"null","<img src='gifs/ChineseGender3a.gif' style='height:400px;''></img>",NA,"html-keyboard-response",276,1064634,"0.0-17.0-1.6",9411,"ListA","man","english","SW_E_M_A2",NA,NA,NA,"null",NA,NA,NA,NA,NA,NA
"null","is accompanying",NA,"html-keyboard-response",277,1067636,"0.0-17.0-2.6",9411,"ListA","man","english","SW_E_M_A2",NA,NA,NA,"null",NA,NA,NA,NA,NA,NA
"3033.5999999940395",NA,NA,"survey-text",278,1070671,"0.0-17.0-3.6",9411,"ListA","man","english","SW_E_M_A2",NA,NA,NA,NA,"{""Q0"":""beth is accompanying mike""}","<img src='gifs/ChineseGender3a.gif' style='height:400px;''></img>","accompanying","is accompanying","english",NA
"null","<div style=""font-size:60px;"">+</div>",NA,"html-keyboard-response",279,1071173,"0.0-17.0-0.7",9411,"ListA","man","english","SW_E_M_A2",NA,NA,NA,"null",NA,NA,NA,NA,NA,NA
"null","<img src='gifs/FemaleRace2b.gif' style='height:400px;''></img>",NA,"html-keyboard-response",280,1073180,"0.0-17.0-1.7",9411,"ListA","man","english","SW_E_M_A2",NA,NA,NA,"null",NA,NA,NA,NA,NA,NA
"null","is introducing",NA,"html-keyboard-response",281,1076184,"0.0-17.0-2.7",9411,"ListA","man","english","SW_E_M_A2",NA,NA,NA,"null",NA,NA,NA,NA,NA,NA
"6897.9000000059605",NA,NA,"survey-text",282,1083083,"0.0-17.0-3.7",9411,"ListA","man","english","SW_E_M_A2",NA,NA,NA,NA,"{""Q0"":""jane is introducing kate""}","<img src='gifs/FemaleRace2b.gif' style='height:400px;''></img>","introducing","is introducing","english",NA
"null","<div style=""font-size:60px;"">+</div>",NA,"html-keyboard-response",283,1083596,"0.0-17.0-0.8",9411,"ListA","man","english","SW_E_M_A2",NA,NA,NA,"null",NA,NA,NA,NA,NA,NA
"null","<img src='gifs/FemaleRace3a.gif' style='height:400px;''></img>",NA,"html-keyboard-response",284,1085608,"0.0-17.0-1.8",9411,"ListA","man","english","SW_E_M_A2",NA,NA,NA,"null",NA,NA,NA,NA,NA,NA
"null","is promising",NA,"html-keyboard-response",285,1088612,"0.0-17.0-2.8",9411,"ListA","man","english","SW_E_M_A2",NA,NA,NA,"null",NA,NA,NA,NA,NA,NA
"5642.9000000059605",NA,NA,"survey-text",286,1094256,"0.0-17.0-3.8",9411,"ListA","man","english","SW_E_M_A2",NA,NA,NA,NA,"{""Q0"":""beth is promising jane""}","<img src='gifs/FemaleRace3a.gif' style='height:400px;''></img>","promising","is promising","english",NA
"null","<div style=""font-size:60px;"">+</div>",NA,"html-keyboard-response",287,1094760,"0.0-17.0-0.9",9411,"ListA","man","english","SW_E_M_A2",NA,NA,NA,"null",NA,NA,NA,NA,NA,NA
"null","<img src='gifs/FemaleRace4a.gif' style='height:400px;''></img>",NA,"html-keyboard-response",288,1096769,"0.0-17.0-1.9",9411,"ListA","man","english","SW_E_M_A2",NA,NA,NA,"null",NA,NA,NA,NA,NA,NA
"null","is convincing",NA,"html-keyboard-response",289,1099770,"0.0-17.0-2.9",9411,"ListA","man","english","SW_E_M_A2",NA,NA,NA,"null",NA,NA,NA,NA,NA,NA
"2923.2000000178814",NA,NA,"survey-text",290,1102694,"0.0-17.0-3.9",9411,"ListA","man","english","SW_E_M_A2",NA,NA,NA,NA,"{""Q0"":""beth is convincing jane""}","<img src='gifs/FemaleRace4a.gif' style='height:400px;''></img>","convincing","is convincing","english",NA
"null","<div style=""font-size:60px;"">+</div>",NA,"html-keyboard-response",291,1103202,"0.0-17.0-0.10",9411,"ListA","man","english","SW_E_M_A2",NA,NA,NA,"null",NA,NA,NA,NA,NA,NA
"null","<img src='gifs/BlackGender4a.gif' style='height:400px;''></img>",NA,"html-keyboard-response",292,1105204,"0.0-17.0-1.10",9411,"ListA","man","english","SW_E_M_A2",NA,NA,NA,"null",NA,NA,NA,NA,NA,NA
"null","is listening to",NA,"html-keyboard-response",293,1108207,"0.0-17.0-2.10",9411,"ListA","man","english","SW_E_M_A2",NA,NA,NA,"null",NA,NA,NA,NA,NA,NA
"2924.199999988079",NA,NA,"survey-text",294,1111133,"0.0-17.0-3.10",9411,"ListA","man","english","SW_E_M_A2",NA,NA,NA,NA,"{""Q0"":""dave is listening to jane""}","<img src='gifs/BlackGender4a.gif' style='height:400px;''></img>","listening to","is listening to","english",NA
"null","<div style=""font-size:60px;"">+</div>",NA,"html-keyboard-response",295,1111648,"0.0-17.0-0.11",9411,"ListA","man","english","SW_E_M_A2",NA,NA,NA,"null",NA,NA,NA,NA,NA,NA
"null","<img src='gifs/MaleRace3a.gif' style='height:400px;''></img>",NA,"html-keyboard-response",296,1113657,"0.0-17.0-1.11",9411,"ListA","man","english","SW_E_M_A2",NA,NA,NA,"null",NA,NA,NA,NA,NA,NA
"null","is employing",NA,"html-keyboard-response",297,1116658,"0.0-17.0-2.11",9411,"ListA","man","english","SW_E_M_A2",NA,NA,NA,"null",NA,NA,NA,NA,NA,NA
"3968.199999988079",NA,NA,"survey-text",298,1120628,"0.0-17.0-3.11",9411,"ListA","man","english","SW_E_M_A2",NA,NA,NA,NA,"{""Q0"":""mike is employing luke""}","<img src='gifs/MaleRace3a.gif' style='height:400px;''></img>","employing","is employing","english",NA
"null","<div style=""font-size:60px;"">+</div>",NA,"html-keyboard-response",299,1121142,"0.0-17.0-0.12",9411,"ListA","man","english","SW_E_M_A2",NA,NA,NA,"null",NA,NA,NA,NA,NA,NA
"null","<img src='gifs/BlackGender3b.gif' style='height:400px;''></img>",NA,"html-keyboard-response",300,1123151,"0.0-17.0-1.12",9411,"ListA","man","english","SW_E_M_A2",NA,NA,NA,"null",NA,NA,NA,NA,NA,NA
"null","is convincing",NA,"html-keyboard-response",301,1126166,"0.0-17.0-2.12",9411,"ListA","man","english","SW_E_M_A2",NA,NA,NA,"null",NA,NA,NA,NA,NA,NA
"3241.199999988079",NA,NA,"survey-text",302,1129409,"0.0-17.0-3.12",9411,"ListA","man","english","SW_E_M_A2",NA,NA,NA,NA,"{""Q0"":""luke is convincing jane""}","<img src='gifs/BlackGender3b.gif' style='height:400px;''></img>","convincing","is convincing","english",NA
"null","<div style=""font-size:60px;"">+</div>",NA,"html-keyboard-response",303,1129921,"0.0-17.0-0.13",9411,"ListA","man","english","SW_E_M_A2",NA,NA,NA,"null",NA,NA,NA,NA,NA,NA
"null","<img src='gifs/ChineseGender4a.gif' style='height:400px;''></img>",NA,"html-keyboard-response",304,1131930,"0.0-17.0-1.13",9411,"ListA","man","english","SW_E_M_A2",NA,NA,NA,"null",NA,NA,NA,NA,NA,NA
"null","is listening to",NA,"html-keyboard-response",305,1134932,"0.0-17.0-2.13",9411,"ListA","man","english","SW_E_M_A2",NA,NA,NA,"null",NA,NA,NA,NA,NA,NA
"8679.40000000596",NA,NA,"survey-text",306,1143612,"0.0-17.0-3.13",9411,"ListA","man","english","SW_E_M_A2",NA,NA,NA,NA,"{""Q0"":""kate is listening to mike""}","<img src='gifs/ChineseGender4a.gif' style='height:400px;''></img>","listening to","is listening to","english",NA
"null","<div style=""font-size:60px;"">+</div>",NA,"html-keyboard-response",307,1144115,"0.0-17.0-0.14",9411,"ListA","man","english","SW_E_M_A2",NA,NA,NA,"null",NA,NA,NA,NA,NA,NA
"null","<img src='gifs/MaleRace4b.gif' style='height:400px;''></img>",NA,"html-keyboard-response",308,1146122,"0.0-17.0-1.14",9411,"ListA","man","english","SW_E_M_A2",NA,NA,NA,"null",NA,NA,NA,NA,NA,NA
"null","is touching",NA,"html-keyboard-response",309,1149123,"0.0-17.0-2.14",9411,"ListA","man","english","SW_E_M_A2",NA,NA,NA,"null",NA,NA,NA,NA,NA,NA
"7573.5",NA,NA,"survey-text",310,1156698,"0.0-17.0-3.14",9411,"ListA","man","english","SW_E_M_A2",NA,NA,NA,NA,"{""Q0"":""dave is touching mike""}","<img src='gifs/MaleRace4b.gif' style='height:400px;''></img>","touching","is touching","english",NA
"null","<div style=""font-size:60px;"">+</div>",NA,"html-keyboard-response",311,1157214,"0.0-17.0-0.15",9411,"ListA","man","english","SW_E_M_A2",NA,NA,NA,"null",NA,NA,NA,NA,NA,NA
"null","<img src='gifs/BlackGender3b.gif' style='height:400px;''></img>",NA,"html-keyboard-response",312,1159220,"0.0-17.0-1.15",9411,"ListA","man","english","SW_E_M_A2",NA,NA,NA,"null",NA,NA,NA,NA,NA,NA
"null","is listening to",NA,"html-keyboard-response",313,1162227,"0.0-17.0-2.15",9411,"ListA","man","english","SW_E_M_A2",NA,NA,NA,"null",NA,NA,NA,NA,NA,NA
"4440.9000000059605",NA,NA,"survey-text",314,1166669,"0.0-17.0-3.15",9411,"ListA","man","english","SW_E_M_A2",NA,NA,NA,NA,"{""Q0"":""jane is listening to luke""}","<img src='gifs/BlackGender3b.gif' style='height:400px;''></img>","listening to","is listening to","english",NA
"null","<div style=""font-size:60px;"">+</div>",NA,"html-keyboard-response",315,1167177,"0.0-17.0-0.16",9411,"ListA","man","english","SW_E_M_A2",NA,NA,NA,"null",NA,NA,NA,NA,NA,NA
"null","<img src='gifs/ChineseGender2b.gif' style='height:400px;''></img>",NA,"html-keyboard-response",316,1169189,"0.0-17.0-1.16",9411,"ListA","man","english","SW_E_M_A2",NA,NA,NA,"null",NA,NA,NA,NA,NA,NA
"null","is contacting",NA,"html-keyboard-response",317,1172199,"0.0-17.0-2.16",9411,"ListA","man","english","SW_E_M_A2",NA,NA,NA,"null",NA,NA,NA,NA,NA,NA
"4828.600000023842",NA,NA,"survey-text",318,1177029,"0.0-17.0-3.16",9411,"ListA","man","english","SW_E_M_A2",NA,NA,NA,NA,"{""Q0"":""fred is contacting beth""}","<img src='gifs/ChineseGender2b.gif' style='height:400px;''></img>","contacting","is contacting","english",NA
"null","<div style=""font-size:60px;"">+</div>",NA,"html-keyboard-response",319,1177533,"0.0-17.0-0.17",9411,"ListA","man","english","SW_E_M_A2",NA,NA,NA,"null",NA,NA,NA,NA,NA,NA
"null","<img src='gifs/ChineseGender1a.gif' style='height:400px;''></img>",NA,"html-keyboard-response",320,1179546,"0.0-17.0-1.17",9411,"ListA","man","english","SW_E_M_A2",NA,NA,NA,"null",NA,NA,NA,NA,NA,NA
"null","is mentioning",NA,"html-keyboard-response",321,1182547,"0.0-17.0-2.17",9411,"ListA","man","english","SW_E_M_A2",NA,NA,NA,"null",NA,NA,NA,NA,NA,NA
"3083",NA,NA,"survey-text",322,1185632,"0.0-17.0-3.17",9411,"ListA","man","english","SW_E_M_A2",NA,NA,NA,NA,"{""Q0"":""fred is mentioning kate""}","<img src='gifs/ChineseGender1a.gif' style='height:400px;''></img>","mention","is mentioning","english",NA
"4954.899999976158","<p>Thank you for completing that task.</p><p>The final part of this session is a short questionnaire.</p><p>Press Continue.</p>",0,"html-button-response",323,1190587,"0.0-18.0",9411,"ListA","man","english","SW_E_M_A2",NA,NA,NA,NA,NA,NA,NA,NA,NA,NA
"55876.5",NA,NA,"survey-text",324,1247466,"0.0-19.0",9411,"ListA","man","english","SW_E_M_A2",NA,NA,NA,NA,"{""Q0"":""22"",""Q1"":""Chinese"",""Q2"":""Chinese"",""Q3"":""China"",""Q4"":""China"",""Q5"":""SW_E_M_A2"",""Q6"":""Male""}",NA,NA,NA,NA,"demographics"
"13066.600000023842",NA,NA,"external-html",325,1261234,"0.0-20.0",9411,"ListA","man","english","SW_E_M_A2","debrief.html",NA,NA,NA,NA,NA,NA,NA,NA,NA
"11318.700000017881",NA,NA,"survey-text",326,1272554,"0.0-21.0",9411,"ListA","man","english","SW_E_M_A2",NA,NA,NA,NA,"{""ptpt_id"":""SW_E_M_A2""}",NA,NA,NA,NA,"worker_id"
