"rt","stimulus","button_pressed","trial_type","trial_index","time_elapsed","internal_node_id","subject","list","ppt_gender","ppt_language","ptptID","url","first_guess","correct","key_press","responses","image","verb","phrase","condition","test_part"
"3961.000000000010","Welcome to the experiment. Press Continue to begin.",0,"html-button-response",0,3969,"0.0-0.0",95667,"ListA","man","chinese","CMA8",NA,NA,NA,NA,NA,NA,NA,NA,NA,NA
"282083",NA,NA,"external-html",1,287466,"0.0-1.0",95667,"ListA","man","chinese","CMA8","consent.html",NA,NA,NA,NA,NA,NA,NA,NA,NA
"18354","<p>在下一页中，您将看到8个人物肖像和他们各自的名字。</p><p>请花费几分钟的时间记住这些人物及其所对应的名字。</p><p>之后的实验中需要您对人物的名字做出回忆，</p><p>因此在实验开始前请确保您已 经完全记住这些人物及其所对应的名字。</p><p><strong>然后您将完成一个测试以检验您对人物和名字的记忆。</strong></p><p>完成此记忆测试后，您将正式进入实验。</p><p>准备好了吗？</p>",0,"html-button-response",2,305828,"0.0-2.0",95667,"ListA","man","chinese","CMA8",NA,NA,NA,NA,NA,NA,NA,NA,NA,NA
"108107","<img src='img/portrait_matrix_listA_chinese.jpg' style='width:900px;height:500px;''></img><p>如果您已经记住了所有的人物和名字，请点击继续。</p><p><strong>请注意：您对先前记忆的面孔将在本实验中被测试5次。</strong></p>",0,"html-button-response",3,414936,"0.0-3.0-0.0",95667,"ListA","man","chinese","CMA8",NA,NA,NA,NA,NA,NA,NA,NA,NA,NA
"6417","<img src=""portrait/WW2.jpg""style=""height:400px;""></img>",3,"html-button-response",4,422357,"0.0-3.0-1.0",95667,"ListA","man","chinese","CMA8",NA,TRUE,3,NA,NA,NA,NA,NA,NA,NA
"null","正确",NA,"html-keyboard-response",5,423870,"0.0-3.0-2.0-0.0",95667,"ListA","man","chinese","CMA8",NA,NA,NA,"null",NA,NA,NA,NA,NA,NA
"1909.999999999940","<img src=""portrait/WM2.jpg""style=""height:400px;""></img>",7,"html-button-response",6,425784,"0.0-3.0-4.0",95667,"ListA","man","chinese","CMA8",NA,TRUE,7,NA,NA,NA,NA,NA,NA,NA
"null","正确",NA,"html-keyboard-response",7,427288,"0.0-3.0-5.0-0.0",95667,"ListA","man","chinese","CMA8",NA,NA,NA,"null",NA,NA,NA,NA,NA,NA
"3325.999999999940","<img src=""portrait/WW1.jpg""style=""height:400px;""></img>",1,"html-button-response",8,430617,"0.0-3.0-7.0",95667,"ListA","man","chinese","CMA8",NA,TRUE,1,NA,NA,NA,NA,NA,NA,NA
"null","正确",NA,"html-keyboard-response",9,432121,"0.0-3.0-8.0-0.0",95667,"ListA","man","chinese","CMA8",NA,NA,NA,"null",NA,NA,NA,NA,NA,NA
"4671.000000000060","<img src=""portrait/BW2.jpg""style=""height:400px;""></img>",2,"html-button-response",10,436797,"0.0-3.0-10.0",95667,"ListA","man","chinese","CMA8",NA,TRUE,2,NA,NA,NA,NA,NA,NA,NA
"null","正确",NA,"html-keyboard-response",11,438301,"0.0-3.0-11.0-0.0",95667,"ListA","man","chinese","CMA8",NA,NA,NA,"null",NA,NA,NA,NA,NA,NA
"2785","<img src=""portrait/BW1.jpg""style=""height:400px;""></img>",0,"html-button-response",12,441092,"0.0-3.0-13.0",95667,"ListA","man","chinese","CMA8",NA,TRUE,0,NA,NA,NA,NA,NA,NA,NA
"null","正确",NA,"html-keyboard-response",13,442596,"0.0-3.0-14.0-0.0",95667,"ListA","man","chinese","CMA8",NA,NA,NA,"null",NA,NA,NA,NA,NA,NA
"3175","<img src=""portrait/WM1.jpg""style=""height:400px;""></img>",6,"html-button-response",14,445775,"0.0-3.0-16.0",95667,"ListA","man","chinese","CMA8",NA,TRUE,6,NA,NA,NA,NA,NA,NA,NA
"null","正确",NA,"html-keyboard-response",15,447278,"0.0-3.0-17.0-0.0",95667,"ListA","man","chinese","CMA8",NA,NA,NA,"null",NA,NA,NA,NA,NA,NA
"1680.000000000060","<img src=""portrait/BM1.jpg""style=""height:400px;""></img>",4,"html-button-response",16,448962,"0.0-3.0-19.0",95667,"ListA","man","chinese","CMA8",NA,TRUE,4,NA,NA,NA,NA,NA,NA,NA
"null","正确",NA,"html-keyboard-response",17,450466,"0.0-3.0-20.0-0.0",95667,"ListA","man","chinese","CMA8",NA,NA,NA,"null",NA,NA,NA,NA,NA,NA
"5852.999999999940","<img src=""portrait/BM2.jpg""style=""height:400px;""></img>",5,"html-button-response",18,456322,"0.0-3.0-22.0",95667,"ListA","man","chinese","CMA8",NA,TRUE,5,NA,NA,NA,NA,NA,NA,NA
"null","正确",NA,"html-keyboard-response",19,457827,"0.0-3.0-23.0-0.0",95667,"ListA","man","chinese","CMA8",NA,NA,NA,"null",NA,NA,NA,NA,NA,NA
"1421.000000000060","<p>您第一次在8题里答对了 8 题。 请点击继续</p>",0,"html-button-response",20,459255,"0.0-3.0-25.0",95667,"ListA","man","chinese","CMA8",NA,NA,NA,NA,NA,NA,NA,NA,NA,NA
"89904","<p>此次实验您将会看到先前记忆任务里的人物照片。</p><p>人物照片消失后您将看到一个动词短语，请正确回忆人物的名字并用特定的 动词短语组成一句完整的句子。</p><p>请在指定的框内输入您的答案。在进入下一题之前请确保您填写了完整的句子。</p><p>人物照片和动词短语只会在屏幕上出现几秒钟，因此请您答题时尽量集中注意力。</p><p>以下是例子。请您在准备好后按下“继续”。</p><img src='img/chinese_speaking_example.jpg' style='width:800px;height:460px;''></img>",0,"html-button-response",21,550167,"0.0-4.0",95667,"ListA","man","chinese","CMA8",NA,NA,NA,NA,NA,NA,NA,NA,NA,NA
"1604","<p>在实验开始前，将为您展示两个示例实验。</p>",0,"html-button-response",22,552774,"0.0-5.0",95667,"ListA","man","chinese","CMA8",NA,NA,NA,NA,NA,NA,NA,NA,NA,NA
"null","<img src='img/meet.gif' style='height:400px;''></img>",NA,"html-keyboard-response",23,555778,"0.0-6.0",95667,"ListA","man","chinese","CMA8",NA,NA,NA,"null",NA,NA,NA,NA,NA,NA
"null","<p>正在约见</p>",NA,"html-keyboard-response",24,557782,"0.0-7.0",95667,"ListA","man","chinese","CMA8",NA,NA,NA,"null",NA,NA,NA,NA,NA,NA
"6001","<p><b>答案:</b> 凯特正在约见贝斯</p>",0,"html-button-response",25,563786,"0.0-8.0",95667,"ListA","man","chinese","CMA8",NA,NA,NA,NA,NA,NA,NA,NA,NA,NA
"null","<img src='img/spy.gif' style='height:400px;''></img>",NA,"html-keyboard-response",26,566790,"0.0-9.0",95667,"ListA","man","chinese","CMA8",NA,NA,NA,"null",NA,NA,NA,NA,NA,NA
"null","<p>正在监视</p>",NA,"html-keyboard-response",27,568794,"0.0-10.0",95667,"ListA","man","chinese","CMA8",NA,NA,NA,"null",NA,NA,NA,NA,NA,NA
"6680","<p><b>答案:</b> 卢克正在监视戴夫</p>",0,"html-button-response",28,575476,"0.0-11.0",95667,"ListA","man","chinese","CMA8",NA,NA,NA,NA,NA,NA,NA,NA,NA,NA
"8283","<p>准备好开始了吗？</p><br><p><strong>请记住，您的答案需是一句完整的句子</strong></p><p><strong>，并用给到的图片人物和动词短语作答。</strong></p><p><strong>只有正确并完整完成实验才可获得报酬。</strong></p><p><strong> 您不需要加入任何标点符号。</strong></p><br><p>请按 ‘继续’ 键开始。</p>",0,"html-button-response",29,584762,"0.0-12.0",95667,"ListA","man","chinese","CMA8",NA,NA,NA,NA,NA,NA,NA,NA,NA,NA
"null","<div style=""font-size:60px;"">+</div>",NA,"html-keyboard-response",30,586266,"0.0-13.0-0.0",95667,"ListA","man","chinese","CMA8",NA,NA,NA,"null",NA,NA,NA,NA,NA,NA
"null","<img src='gifs/ChineseGender4b.gif' style='height:400px;''></img>",NA,"html-keyboard-response",31,588276,"0.0-13.0-1.0",95667,"ListA","man","chinese","CMA8",NA,NA,NA,"null",NA,NA,NA,NA,NA,NA
"null","正在看着",NA,"html-keyboard-response",32,591280,"0.0-13.0-2.0",95667,"ListA","man","chinese","CMA8",NA,NA,NA,"null",NA,NA,NA,NA,NA,NA
"13293",NA,NA,"survey-text",33,604582,"0.0-13.0-3.0",95667,"ListA","man","chinese","CMA8",NA,NA,NA,NA,"{""Q0"":""麦克正在看着凯特""}","<img src='gifs/ChineseGender4b.gif' style='height:400px;''></img>","看着","正在看着","chinese",NA
"null","<div style=""font-size:60px;"">+</div>",NA,"html-keyboard-response",34,605086,"0.0-13.0-0.1",95667,"ListA","man","chinese","CMA8",NA,NA,NA,"null",NA,NA,NA,NA,NA,NA
"null","<img src='gifs/BlackGender3b.gif' style='height:400px;''></img>",NA,"html-keyboard-response",35,607090,"0.0-13.0-1.1",95667,"ListA","man","chinese","CMA8",NA,NA,NA,"null",NA,NA,NA,NA,NA,NA
"null","正在面向",NA,"html-keyboard-response",36,610094,"0.0-13.0-2.1",95667,"ListA","man","chinese","CMA8",NA,NA,NA,"null",NA,NA,NA,NA,NA,NA
"14525",NA,NA,"survey-text",37,624626,"0.0-13.0-3.1",95667,"ListA","man","chinese","CMA8",NA,NA,NA,NA,"{""Q0"":""霍普正在面向卢克""}","<img src='gifs/BlackGender3b.gif' style='height:400px;''></img>","面向","正在面向","chinese",NA
"null","<div style=""font-size:60px;"">+</div>",NA,"html-keyboard-response",38,625128,"0.0-13.0-0.2",95667,"ListA","man","chinese","CMA8",NA,NA,NA,"null",NA,NA,NA,NA,NA,NA
"null","<img src='gifs/FemaleRace2a.gif' style='height:400px;''></img>",NA,"html-keyboard-response",39,627132,"0.0-13.0-1.2",95667,"ListA","man","chinese","CMA8",NA,NA,NA,"null",NA,NA,NA,NA,NA,NA
"null","正在答应",NA,"html-keyboard-response",40,630135,"0.0-13.0-2.2",95667,"ListA","man","chinese","CMA8",NA,NA,NA,"null",NA,NA,NA,NA,NA,NA
"14482",NA,NA,"survey-text",41,644623,"0.0-13.0-3.2",95667,"ListA","man","chinese","CMA8",NA,NA,NA,NA,"{""Q0"":""凯特正在答应霍普""}","<img src='gifs/FemaleRace2a.gif' style='height:400px;''></img>","答应","正在答应","chinese",NA
"null","<div style=""font-size:60px;"">+</div>",NA,"html-keyboard-response",42,645125,"0.0-13.0-0.3",95667,"ListA","man","chinese","CMA8",NA,NA,NA,"null",NA,NA,NA,NA,NA,NA
"null","<img src='gifs/ChineseGender1a.gif' style='height:400px;''></img>",NA,"html-keyboard-response",43,647129,"0.0-13.0-1.3",95667,"ListA","man","chinese","CMA8",NA,NA,NA,"null",NA,NA,NA,NA,NA,NA
"null","正在表扬",NA,"html-keyboard-response",44,650132,"0.0-13.0-2.3",95667,"ListA","man","chinese","CMA8",NA,NA,NA,"null",NA,NA,NA,NA,NA,NA
"10203.9999999999",NA,NA,"survey-text",45,660341,"0.0-13.0-3.3",95667,"ListA","man","chinese","CMA8",NA,NA,NA,NA,"{""Q0"":""弗雷正在表扬凯特""}","<img src='gifs/ChineseGender1a.gif' style='height:400px;''></img>","表扬","正在表扬","chinese",NA
"null","<div style=""font-size:60px;"">+</div>",NA,"html-keyboard-response",46,660844,"0.0-13.0-0.4",95667,"ListA","man","chinese","CMA8",NA,NA,NA,"null",NA,NA,NA,NA,NA,NA
"null","<img src='gifs/BlackGender3a.gif' style='height:400px;''></img>",NA,"html-keyboard-response",47,662847,"0.0-13.0-1.4",95667,"ListA","man","chinese","CMA8",NA,NA,NA,"null",NA,NA,NA,NA,NA,NA
"null","正在介绍",NA,"html-keyboard-response",48,665850,"0.0-13.0-2.4",95667,"ListA","man","chinese","CMA8",NA,NA,NA,"null",NA,NA,NA,NA,NA,NA
"9047",NA,NA,"survey-text",49,674902,"0.0-13.0-3.4",95667,"ListA","man","chinese","CMA8",NA,NA,NA,NA,"{""Q0"":""卢克正在介绍霍普""}","<img src='gifs/BlackGender3a.gif' style='height:400px;''></img>","介绍","正在介绍","chinese",NA
"null","<div style=""font-size:60px;"">+</div>",NA,"html-keyboard-response",50,675404,"0.0-13.0-0.5",95667,"ListA","man","chinese","CMA8",NA,NA,NA,"null",NA,NA,NA,NA,NA,NA
"null","<img src='gifs/FemaleRace1a.gif' style='height:400px;''></img>",NA,"html-keyboard-response",51,677408,"0.0-13.0-1.5",95667,"ListA","man","chinese","CMA8",NA,NA,NA,"null",NA,NA,NA,NA,NA,NA
"null","正在说服",NA,"html-keyboard-response",52,680411,"0.0-13.0-2.5",95667,"ListA","man","chinese","CMA8",NA,NA,NA,"null",NA,NA,NA,NA,NA,NA
"9359",NA,NA,"survey-text",53,689775,"0.0-13.0-3.5",95667,"ListA","man","chinese","CMA8",NA,NA,NA,NA,"{""Q0"":""凯特正在说服露丝""}","<img src='gifs/FemaleRace1a.gif' style='height:400px;''></img>","说服","正在说服","chinese",NA
"null","<div style=""font-size:60px;"">+</div>",NA,"html-keyboard-response",54,690277,"0.0-13.0-0.6",95667,"ListA","man","chinese","CMA8",NA,NA,NA,"null",NA,NA,NA,NA,NA,NA
"null","<img src='gifs/BlackGender1a.gif' style='height:400px;''></img>",NA,"html-keyboard-response",55,692280,"0.0-13.0-1.6",95667,"ListA","man","chinese","CMA8",NA,NA,NA,"null",NA,NA,NA,NA,NA,NA
"null","正在跟随",NA,"html-keyboard-response",56,695284,"0.0-13.0-2.6",95667,"ListA","man","chinese","CMA8",NA,NA,NA,"null",NA,NA,NA,NA,NA,NA
"8708",NA,NA,"survey-text",57,703997,"0.0-13.0-3.6",95667,"ListA","man","chinese","CMA8",NA,NA,NA,NA,"{""Q0"":""卢克正在跟随露丝""}","<img src='gifs/BlackGender1a.gif' style='height:400px;''></img>","跟随","正在跟随","chinese",NA
"null","<div style=""font-size:60px;"">+</div>",NA,"html-keyboard-response",58,704499,"0.0-13.0-0.7",95667,"ListA","man","chinese","CMA8",NA,NA,NA,"null",NA,NA,NA,NA,NA,NA
"null","<img src='gifs/MaleRace1b.gif' style='height:400px;''></img>",NA,"html-keyboard-response",59,706503,"0.0-13.0-1.7",95667,"ListA","man","chinese","CMA8",NA,NA,NA,"null",NA,NA,NA,NA,NA,NA
"null","正在联系",NA,"html-keyboard-response",60,709506,"0.0-13.0-2.7",95667,"ListA","man","chinese","CMA8",NA,NA,NA,"null",NA,NA,NA,NA,NA,NA
"9126.999999999880",NA,NA,"survey-text",61,718639,"0.0-13.0-3.7",95667,"ListA","man","chinese","CMA8",NA,NA,NA,NA,"{""Q0"":""弗雷正在联系卢克""}","<img src='gifs/MaleRace1b.gif' style='height:400px;''></img>","联系","正在联系","chinese",NA
"null","<div style=""font-size:60px;"">+</div>",NA,"html-keyboard-response",62,719141,"0.0-13.0-0.8",95667,"ListA","man","chinese","CMA8",NA,NA,NA,"null",NA,NA,NA,NA,NA,NA
"null","<img src='gifs/MaleRace3b.gif' style='height:400px;''></img>",NA,"html-keyboard-response",63,721143,"0.0-13.0-1.8",95667,"ListA","man","chinese","CMA8",NA,NA,NA,"null",NA,NA,NA,NA,NA,NA
"null","正在陪伴",NA,"html-keyboard-response",64,724147,"0.0-13.0-2.8",95667,"ListA","man","chinese","CMA8",NA,NA,NA,"null",NA,NA,NA,NA,NA,NA
"8609.000000000120",NA,NA,"survey-text",65,732761,"0.0-13.0-3.8",95667,"ListA","man","chinese","CMA8",NA,NA,NA,NA,"{""Q0"":""麦克正在陪伴卢克""}","<img src='gifs/MaleRace3b.gif' style='height:400px;''></img>","陪伴","正在陪伴","chinese",NA
"null","<div style=""font-size:60px;"">+</div>",NA,"html-keyboard-response",66,733264,"0.0-13.0-0.9",95667,"ListA","man","chinese","CMA8",NA,NA,NA,"null",NA,NA,NA,NA,NA,NA
"null","<img src='gifs/MaleRace2b.gif' style='height:400px;''></img>",NA,"html-keyboard-response",67,735267,"0.0-13.0-1.9",95667,"ListA","man","chinese","CMA8",NA,NA,NA,"null",NA,NA,NA,NA,NA,NA
"null","正在触摸",NA,"html-keyboard-response",68,738270,"0.0-13.0-2.9",95667,"ListA","man","chinese","CMA8",NA,NA,NA,"null",NA,NA,NA,NA,NA,NA
"12209",NA,NA,"survey-text",69,750485,"0.0-13.0-3.9",95667,"ListA","man","chinese","CMA8",NA,NA,NA,NA,"{""Q0"":""戴夫正在触摸弗雷""}","<img src='gifs/MaleRace2b.gif' style='height:400px;''></img>","触摸","正在触摸","chinese",NA
"null","<div style=""font-size:60px;"">+</div>",NA,"html-keyboard-response",70,750988,"0.0-13.0-0.10",95667,"ListA","man","chinese","CMA8",NA,NA,NA,"null",NA,NA,NA,NA,NA,NA
"null","<img src='gifs/MaleRace3a.gif' style='height:400px;''></img>",NA,"html-keyboard-response",71,752991,"0.0-13.0-1.10",95667,"ListA","man","chinese","CMA8",NA,NA,NA,"null",NA,NA,NA,NA,NA,NA
"null","正在答应",NA,"html-keyboard-response",72,755994,"0.0-13.0-2.10",95667,"ListA","man","chinese","CMA8",NA,NA,NA,"null",NA,NA,NA,NA,NA,NA
"21817",NA,NA,"survey-text",73,777816,"0.0-13.0-3.10",95667,"ListA","man","chinese","CMA8",NA,NA,NA,NA,"{""Q0"":""麦克正在答应卢克""}","<img src='gifs/MaleRace3a.gif' style='height:400px;''></img>","答应","正在答应","chinese",NA
"null","<div style=""font-size:60px;"">+</div>",NA,"html-keyboard-response",74,778319,"0.0-13.0-0.11",95667,"ListA","man","chinese","CMA8",NA,NA,NA,"null",NA,NA,NA,NA,NA,NA
"null","<img src='gifs/BlackGender1b.gif' style='height:400px;''></img>",NA,"html-keyboard-response",75,780322,"0.0-13.0-1.11",95667,"ListA","man","chinese","CMA8",NA,NA,NA,"null",NA,NA,NA,NA,NA,NA
"null","正在介绍",NA,"html-keyboard-response",76,783325,"0.0-13.0-2.11",95667,"ListA","man","chinese","CMA8",NA,NA,NA,"null",NA,NA,NA,NA,NA,NA
"12134",NA,NA,"survey-text",77,795465,"0.0-13.0-3.11",95667,"ListA","man","chinese","CMA8",NA,NA,NA,NA,"{""Q0"":""露丝正在介绍卢克""}","<img src='gifs/BlackGender1b.gif' style='height:400px;''></img>","介绍","正在介绍","chinese",NA
"null","<div style=""font-size:60px;"">+</div>",NA,"html-keyboard-response",78,795967,"0.0-13.0-0.12",95667,"ListA","man","chinese","CMA8",NA,NA,NA,"null",NA,NA,NA,NA,NA,NA
"null","<img src='gifs/MaleRace1a.gif' style='height:400px;''></img>",NA,"html-keyboard-response",79,797971,"0.0-13.0-1.12",95667,"ListA","man","chinese","CMA8",NA,NA,NA,"null",NA,NA,NA,NA,NA,NA
"null","正在接近",NA,"html-keyboard-response",80,800974,"0.0-13.0-2.12",95667,"ListA","man","chinese","CMA8",NA,NA,NA,"null",NA,NA,NA,NA,NA,NA
"8003",NA,NA,"survey-text",81,808982,"0.0-13.0-3.12",95667,"ListA","man","chinese","CMA8",NA,NA,NA,NA,"{""Q0"":""弗雷正在接近卢克""}","<img src='gifs/MaleRace1a.gif' style='height:400px;''></img>","接近","正在接近","chinese",NA
"null","<div style=""font-size:60px;"">+</div>",NA,"html-keyboard-response",82,809485,"0.0-13.0-0.13",95667,"ListA","man","chinese","CMA8",NA,NA,NA,"null",NA,NA,NA,NA,NA,NA
"null","<img src='gifs/FemaleRace1b.gif' style='height:400px;''></img>",NA,"html-keyboard-response",83,811488,"0.0-13.0-1.13",95667,"ListA","man","chinese","CMA8",NA,NA,NA,"null",NA,NA,NA,NA,NA,NA
"null","正在触摸",NA,"html-keyboard-response",84,814491,"0.0-13.0-2.13",95667,"ListA","man","chinese","CMA8",NA,NA,NA,"null",NA,NA,NA,NA,NA,NA
"15152",NA,NA,"survey-text",85,829648,"0.0-13.0-3.13",95667,"ListA","man","chinese","CMA8",NA,NA,NA,NA,"{""Q0"":""凯特正在触摸露丝""}","<img src='gifs/FemaleRace1b.gif' style='height:400px;''></img>","触摸","正在触摸","chinese",NA
"null","<div style=""font-size:60px;"">+</div>",NA,"html-keyboard-response",86,830151,"0.0-13.0-0.14",95667,"ListA","man","chinese","CMA8",NA,NA,NA,"null",NA,NA,NA,NA,NA,NA
"null","<img src='gifs/ChineseGender1b.gif' style='height:400px;''></img>",NA,"html-keyboard-response",87,832155,"0.0-13.0-1.14",95667,"ListA","man","chinese","CMA8",NA,NA,NA,"null",NA,NA,NA,NA,NA,NA
"null","正在聘用",NA,"html-keyboard-response",88,835163,"0.0-13.0-2.14",95667,"ListA","man","chinese","CMA8",NA,NA,NA,"null",NA,NA,NA,NA,NA,NA
"9027.000000000120",NA,NA,"survey-text",89,844197,"0.0-13.0-3.14",95667,"ListA","man","chinese","CMA8",NA,NA,NA,NA,"{""Q0"":""凯特正在聘用弗雷""}","<img src='gifs/ChineseGender1b.gif' style='height:400px;''></img>","聘用","正在聘用","chinese",NA
"null","<div style=""font-size:60px;"">+</div>",NA,"html-keyboard-response",90,844700,"0.0-13.0-0.15",95667,"ListA","man","chinese","CMA8",NA,NA,NA,"null",NA,NA,NA,NA,NA,NA
"null","<img src='gifs/FemaleRace4a.gif' style='height:400px;''></img>",NA,"html-keyboard-response",91,846703,"0.0-13.0-1.15",95667,"ListA","man","chinese","CMA8",NA,NA,NA,"null",NA,NA,NA,NA,NA,NA
"null","正在接近",NA,"html-keyboard-response",92,849707,"0.0-13.0-2.15",95667,"ListA","man","chinese","CMA8",NA,NA,NA,"null",NA,NA,NA,NA,NA,NA
"24069",NA,NA,"survey-text",93,873782,"0.0-13.0-3.15",95667,"ListA","man","chinese","CMA8",NA,NA,NA,NA,"{""Q0"":""贝斯正在接近霍普""}","<img src='gifs/FemaleRace4a.gif' style='height:400px;''></img>","接近","正在接近","chinese",NA
"null","<div style=""font-size:60px;"">+</div>",NA,"html-keyboard-response",94,874284,"0.0-13.0-0.16",95667,"ListA","man","chinese","CMA8",NA,NA,NA,"null",NA,NA,NA,NA,NA,NA
"null","<img src='gifs/FemaleRace4b.gif' style='height:400px;''></img>",NA,"html-keyboard-response",95,876289,"0.0-13.0-1.16",95667,"ListA","man","chinese","CMA8",NA,NA,NA,"null",NA,NA,NA,NA,NA,NA
"null","正在跟随",NA,"html-keyboard-response",96,879292,"0.0-13.0-2.16",95667,"ListA","man","chinese","CMA8",NA,NA,NA,"null",NA,NA,NA,NA,NA,NA
"9549.999999999880",NA,NA,"survey-text",97,888847,"0.0-13.0-3.16",95667,"ListA","man","chinese","CMA8",NA,NA,NA,NA,"{""Q0"":""贝斯正在跟随霍普""}","<img src='gifs/FemaleRace4b.gif' style='height:400px;''></img>","跟随","正在跟随","chinese",NA
"null","<div style=""font-size:60px;"">+</div>",NA,"html-keyboard-response",98,889350,"0.0-13.0-0.17",95667,"ListA","man","chinese","CMA8",NA,NA,NA,"null",NA,NA,NA,NA,NA,NA
"null","<img src='gifs/BlackGender4b.gif' style='height:400px;''></img>",NA,"html-keyboard-response",99,891353,"0.0-13.0-1.17",95667,"ListA","man","chinese","CMA8",NA,NA,NA,"null",NA,NA,NA,NA,NA,NA
"null","正在陪伴",NA,"html-keyboard-response",100,894356,"0.0-13.0-2.17",95667,"ListA","man","chinese","CMA8",NA,NA,NA,"null",NA,NA,NA,NA,NA,NA
"8840",NA,NA,"survey-text",101,903202,"0.0-13.0-3.17",95667,"ListA","man","chinese","CMA8",NA,NA,NA,NA,"{""Q0"":""戴夫正在陪伴霍普""}","<img src='gifs/BlackGender4b.gif' style='height:400px;''></img>","陪伴","正在陪伴","chinese",NA
"12332","<img src='img/portrait_matrix_listA_chinese.jpg' style='width:900px;height:500px;''></img><p>如果您已经记住了所有的人物和名字，请点击继续。</p><p><strong>请注意：您对先前记忆的面孔将在本实验中被测试5次。</strong></p>",0,"html-button-response",102,915535,"0.0-14.0-0.0",95667,"ListA","man","chinese","CMA8",NA,NA,NA,NA,NA,NA,NA,NA,NA,NA
"3316.000000000120","<img src=""portrait/WW1.jpg""style=""height:400px;""></img>",1,"html-button-response",103,919860,"0.0-14.0-1.0",95667,"ListA","man","chinese","CMA8",NA,TRUE,1,NA,NA,NA,NA,NA,NA,NA
"null","正确",NA,"html-keyboard-response",104,921366,"0.0-14.0-2.0-0.0",95667,"ListA","man","chinese","CMA8",NA,NA,NA,"null",NA,NA,NA,NA,NA,NA
"4892","<img src=""portrait/BW1.jpg""style=""height:400px;""></img>",0,"html-button-response",105,926263,"0.0-14.0-4.0",95667,"ListA","man","chinese","CMA8",NA,TRUE,0,NA,NA,NA,NA,NA,NA,NA
"null","正确",NA,"html-keyboard-response",106,927767,"0.0-14.0-5.0-0.0",95667,"ListA","man","chinese","CMA8",NA,NA,NA,"null",NA,NA,NA,NA,NA,NA
"1651.000000000120","<img src=""portrait/BM1.jpg""style=""height:400px;""></img>",4,"html-button-response",107,929422,"0.0-14.0-7.0",95667,"ListA","man","chinese","CMA8",NA,TRUE,4,NA,NA,NA,NA,NA,NA,NA
"null","正确",NA,"html-keyboard-response",108,930925,"0.0-14.0-8.0-0.0",95667,"ListA","man","chinese","CMA8",NA,NA,NA,"null",NA,NA,NA,NA,NA,NA
"2454","<img src=""portrait/BM2.jpg""style=""height:400px;""></img>",5,"html-button-response",109,933383,"0.0-14.0-10.0",95667,"ListA","man","chinese","CMA8",NA,TRUE,5,NA,NA,NA,NA,NA,NA,NA
"null","正确",NA,"html-keyboard-response",110,934886,"0.0-14.0-11.0-0.0",95667,"ListA","man","chinese","CMA8",NA,NA,NA,"null",NA,NA,NA,NA,NA,NA
"2353","<img src=""portrait/BW2.jpg""style=""height:400px;""></img>",2,"html-button-response",111,937243,"0.0-14.0-13.0",95667,"ListA","man","chinese","CMA8",NA,TRUE,2,NA,NA,NA,NA,NA,NA,NA
"null","正确",NA,"html-keyboard-response",112,938748,"0.0-14.0-14.0-0.0",95667,"ListA","man","chinese","CMA8",NA,NA,NA,"null",NA,NA,NA,NA,NA,NA
"1475","<img src=""portrait/WM1.jpg""style=""height:400px;""></img>",6,"html-button-response",113,940225,"0.0-14.0-16.0",95667,"ListA","man","chinese","CMA8",NA,TRUE,6,NA,NA,NA,NA,NA,NA,NA
"null","正确",NA,"html-keyboard-response",114,941729,"0.0-14.0-17.0-0.0",95667,"ListA","man","chinese","CMA8",NA,NA,NA,"null",NA,NA,NA,NA,NA,NA
"1327","<img src=""portrait/WM2.jpg""style=""height:400px;""></img>",7,"html-button-response",115,943060,"0.0-14.0-19.0",95667,"ListA","man","chinese","CMA8",NA,TRUE,7,NA,NA,NA,NA,NA,NA,NA
"null","正确",NA,"html-keyboard-response",116,944563,"0.0-14.0-20.0-0.0",95667,"ListA","man","chinese","CMA8",NA,NA,NA,"null",NA,NA,NA,NA,NA,NA
"1712","<img src=""portrait/WW2.jpg""style=""height:400px;""></img>",3,"html-button-response",117,946278,"0.0-14.0-22.0",95667,"ListA","man","chinese","CMA8",NA,TRUE,3,NA,NA,NA,NA,NA,NA,NA
"null","正确",NA,"html-keyboard-response",118,947782,"0.0-14.0-23.0-0.0",95667,"ListA","man","chinese","CMA8",NA,NA,NA,"null",NA,NA,NA,NA,NA,NA
"1177","<p>您第一次在8题里答对了 8 题。 请点击继续</p>",0,"html-button-response",119,948961,"0.0-14.0-25.0",95667,"ListA","man","chinese","CMA8",NA,NA,NA,NA,NA,NA,NA,NA,NA,NA
"null","<div style=""font-size:60px;"">+</div>",NA,"html-keyboard-response",120,950467,"0.0-15.0-0.0",95667,"ListA","man","chinese","CMA8",NA,NA,NA,"null",NA,NA,NA,NA,NA,NA
"null","<img src='gifs/BlackGender3b.gif' style='height:400px;''></img>",NA,"html-keyboard-response",121,952471,"0.0-15.0-1.0",95667,"ListA","man","chinese","CMA8",NA,NA,NA,"null",NA,NA,NA,NA,NA,NA
"null","正在聆听",NA,"html-keyboard-response",122,955474,"0.0-15.0-2.0",95667,"ListA","man","chinese","CMA8",NA,NA,NA,"null",NA,NA,NA,NA,NA,NA
"9821.000000000120",NA,NA,"survey-text",123,965301,"0.0-15.0-3.0",95667,"ListA","man","chinese","CMA8",NA,NA,NA,NA,"{""Q0"":""霍普正在聆听卢克""}","<img src='gifs/BlackGender3b.gif' style='height:400px;''></img>","聆听","正在聆听","chinese",NA
"null","<div style=""font-size:60px;"">+</div>",NA,"html-keyboard-response",124,965804,"0.0-15.0-0.1",95667,"ListA","man","chinese","CMA8",NA,NA,NA,"null",NA,NA,NA,NA,NA,NA
"null","<img src='gifs/MaleRace3b.gif' style='height:400px;''></img>",NA,"html-keyboard-response",125,967808,"0.0-15.0-1.1",95667,"ListA","man","chinese","CMA8",NA,NA,NA,"null",NA,NA,NA,NA,NA,NA
"null","正在联系",NA,"html-keyboard-response",126,970812,"0.0-15.0-2.1",95667,"ListA","man","chinese","CMA8",NA,NA,NA,"null",NA,NA,NA,NA,NA,NA
"6751",NA,NA,"survey-text",127,977569,"0.0-15.0-3.1",95667,"ListA","man","chinese","CMA8",NA,NA,NA,NA,"{""Q0"":""麦克正在联系卢克""}","<img src='gifs/MaleRace3b.gif' style='height:400px;''></img>","联系","正在联系","chinese",NA
"null","<div style=""font-size:60px;"">+</div>",NA,"html-keyboard-response",128,978070,"0.0-15.0-0.2",95667,"ListA","man","chinese","CMA8",NA,NA,NA,"null",NA,NA,NA,NA,NA,NA
"null","<img src='gifs/ChineseGender1a.gif' style='height:400px;''></img>",NA,"html-keyboard-response",129,980073,"0.0-15.0-1.2",95667,"ListA","man","chinese","CMA8",NA,NA,NA,"null",NA,NA,NA,NA,NA,NA
"null","正在跟随",NA,"html-keyboard-response",130,983076,"0.0-15.0-2.2",95667,"ListA","man","chinese","CMA8",NA,NA,NA,"null",NA,NA,NA,NA,NA,NA
"8570.999999999880",NA,NA,"survey-text",131,991659,"0.0-15.0-3.2",95667,"ListA","man","chinese","CMA8",NA,NA,NA,NA,"{""Q0"":""凯特正在跟随弗雷""}","<img src='gifs/ChineseGender1a.gif' style='height:400px;''></img>","跟随","正在跟随","chinese",NA
"null","<div style=""font-size:60px;"">+</div>",NA,"html-keyboard-response",132,992161,"0.0-15.0-0.3",95667,"ListA","man","chinese","CMA8",NA,NA,NA,"null",NA,NA,NA,NA,NA,NA
"null","<img src='gifs/BlackGender2b.gif' style='height:400px;''></img>",NA,"html-keyboard-response",133,994165,"0.0-15.0-1.3",95667,"ListA","man","chinese","CMA8",NA,NA,NA,"null",NA,NA,NA,NA,NA,NA
"null","正在提到",NA,"html-keyboard-response",134,997169,"0.0-15.0-2.3",95667,"ListA","man","chinese","CMA8",NA,NA,NA,"null",NA,NA,NA,NA,NA,NA
"8769.999999999880",NA,NA,"survey-text",135,1005945,"0.0-15.0-3.3",95667,"ListA","man","chinese","CMA8",NA,NA,NA,NA,"{""Q0"":""戴夫正在提到露丝""}","<img src='gifs/BlackGender2b.gif' style='height:400px;''></img>","提到","正在提到","chinese",NA
"null","<div style=""font-size:60px;"">+</div>",NA,"html-keyboard-response",136,1006448,"0.0-15.0-0.4",95667,"ListA","man","chinese","CMA8",NA,NA,NA,"null",NA,NA,NA,NA,NA,NA
"null","<img src='gifs/BlackGender1b.gif' style='height:400px;''></img>",NA,"html-keyboard-response",137,1008451,"0.0-15.0-1.4",95667,"ListA","man","chinese","CMA8",NA,NA,NA,"null",NA,NA,NA,NA,NA,NA
"null","正在说服",NA,"html-keyboard-response",138,1011454,"0.0-15.0-2.4",95667,"ListA","man","chinese","CMA8",NA,NA,NA,"null",NA,NA,NA,NA,NA,NA
"10009",NA,NA,"survey-text",139,1021469,"0.0-15.0-3.4",95667,"ListA","man","chinese","CMA8",NA,NA,NA,NA,"{""Q0"":""露丝正在说服卢克""}","<img src='gifs/BlackGender1b.gif' style='height:400px;''></img>","说服","正在说服","chinese",NA
"null","<div style=""font-size:60px;"">+</div>",NA,"html-keyboard-response",140,1021972,"0.0-15.0-0.5",95667,"ListA","man","chinese","CMA8",NA,NA,NA,"null",NA,NA,NA,NA,NA,NA
"null","<img src='gifs/ChineseGender3a.gif' style='height:400px;''></img>",NA,"html-keyboard-response",141,1023975,"0.0-15.0-1.5",95667,"ListA","man","chinese","CMA8",NA,NA,NA,"null",NA,NA,NA,NA,NA,NA
"null","正在触摸",NA,"html-keyboard-response",142,1026979,"0.0-15.0-2.5",95667,"ListA","man","chinese","CMA8",NA,NA,NA,"null",NA,NA,NA,NA,NA,NA
"11287",NA,NA,"survey-text",143,1038269,"0.0-15.0-3.5",95667,"ListA","man","chinese","CMA8",NA,NA,NA,NA,"{""Q0"":""麦克正在触摸贝斯""}","<img src='gifs/ChineseGender3a.gif' style='height:400px;''></img>","触摸","正在触摸","chinese",NA
"null","<div style=""font-size:60px;"">+</div>",NA,"html-keyboard-response",144,1038772,"0.0-15.0-0.6",95667,"ListA","man","chinese","CMA8",NA,NA,NA,"null",NA,NA,NA,NA,NA,NA
"null","<img src='gifs/ChineseGender3a.gif' style='height:400px;''></img>",NA,"html-keyboard-response",145,1040775,"0.0-15.0-1.6",95667,"ListA","man","chinese","CMA8",NA,NA,NA,"null",NA,NA,NA,NA,NA,NA
"null","正在面向",NA,"html-keyboard-response",146,1043778,"0.0-15.0-2.6",95667,"ListA","man","chinese","CMA8",NA,NA,NA,"null",NA,NA,NA,NA,NA,NA
"9060",NA,NA,"survey-text",147,1052848,"0.0-15.0-3.6",95667,"ListA","man","chinese","CMA8",NA,NA,NA,NA,"{""Q0"":""贝斯正在面向麦克""}","<img src='gifs/ChineseGender3a.gif' style='height:400px;''></img>","面向","正在面向","chinese",NA
"null","<div style=""font-size:60px;"">+</div>",NA,"html-keyboard-response",148,1053351,"0.0-15.0-0.7",95667,"ListA","man","chinese","CMA8",NA,NA,NA,"null",NA,NA,NA,NA,NA,NA
"null","<img src='gifs/BlackGender2a.gif' style='height:400px;''></img>",NA,"html-keyboard-response",149,1055355,"0.0-15.0-1.7",95667,"ListA","man","chinese","CMA8",NA,NA,NA,"null",NA,NA,NA,NA,NA,NA
"null","正在加入",NA,"html-keyboard-response",150,1058358,"0.0-15.0-2.7",95667,"ListA","man","chinese","CMA8",NA,NA,NA,"null",NA,NA,NA,NA,NA,NA
"7464",NA,NA,"survey-text",151,1065828,"0.0-15.0-3.7",95667,"ListA","man","chinese","CMA8",NA,NA,NA,NA,"{""Q0"":""戴夫正在加入露丝""}","<img src='gifs/BlackGender2a.gif' style='height:400px;''></img>","加入","正在加入","chinese",NA
"null","<div style=""font-size:60px;"">+</div>",NA,"html-keyboard-response",152,1066331,"0.0-15.0-0.8",95667,"ListA","man","chinese","CMA8",NA,NA,NA,"null",NA,NA,NA,NA,NA,NA
"null","<img src='gifs/FemaleRace4a.gif' style='height:400px;''></img>",NA,"html-keyboard-response",153,1068334,"0.0-15.0-1.8",95667,"ListA","man","chinese","CMA8",NA,NA,NA,"null",NA,NA,NA,NA,NA,NA
"null","正在看着",NA,"html-keyboard-response",154,1071338,"0.0-15.0-2.8",95667,"ListA","man","chinese","CMA8",NA,NA,NA,"null",NA,NA,NA,NA,NA,NA
"5965",NA,NA,"survey-text",155,1077309,"0.0-15.0-3.8",95667,"ListA","man","chinese","CMA8",NA,NA,NA,NA,"{""Q0"":""贝斯正在看着霍普""}","<img src='gifs/FemaleRace4a.gif' style='height:400px;''></img>","看着","正在看着","chinese",NA
"null","<div style=""font-size:60px;"">+</div>",NA,"html-keyboard-response",156,1077812,"0.0-15.0-0.9",95667,"ListA","man","chinese","CMA8",NA,NA,NA,"null",NA,NA,NA,NA,NA,NA
"null","<img src='gifs/ChineseGender2a.gif' style='height:400px;''></img>",NA,"html-keyboard-response",157,1079816,"0.0-15.0-1.9",95667,"ListA","man","chinese","CMA8",NA,NA,NA,"null",NA,NA,NA,NA,NA,NA
"null","正在看着",NA,"html-keyboard-response",158,1082819,"0.0-15.0-2.9",95667,"ListA","man","chinese","CMA8",NA,NA,NA,"null",NA,NA,NA,NA,NA,NA
"9741",NA,NA,"survey-text",159,1092565,"0.0-15.0-3.9",95667,"ListA","man","chinese","CMA8",NA,NA,NA,NA,"{""Q0"":""弗雷正在看着贝斯""}","<img src='gifs/ChineseGender2a.gif' style='height:400px;''></img>","看着","正在看着","chinese",NA
"null","<div style=""font-size:60px;"">+</div>",NA,"html-keyboard-response",160,1093067,"0.0-15.0-0.10",95667,"ListA","man","chinese","CMA8",NA,NA,NA,"null",NA,NA,NA,NA,NA,NA
"null","<img src='gifs/FemaleRace1b.gif' style='height:400px;''></img>",NA,"html-keyboard-response",161,1095070,"0.0-15.0-1.10",95667,"ListA","man","chinese","CMA8",NA,NA,NA,"null",NA,NA,NA,NA,NA,NA
"null","正在表扬",NA,"html-keyboard-response",162,1098074,"0.0-15.0-2.10",95667,"ListA","man","chinese","CMA8",NA,NA,NA,"null",NA,NA,NA,NA,NA,NA
"7724.999999999770",NA,NA,"survey-text",163,1105804,"0.0-15.0-3.10",95667,"ListA","man","chinese","CMA8",NA,NA,NA,NA,"{""Q0"":""露丝正在表扬凯特""}","<img src='gifs/FemaleRace1b.gif' style='height:400px;''></img>","表扬","正在表扬","chinese",NA
"null","<div style=""font-size:60px;"">+</div>",NA,"html-keyboard-response",164,1106305,"0.0-15.0-0.11",95667,"ListA","man","chinese","CMA8",NA,NA,NA,"null",NA,NA,NA,NA,NA,NA
"null","<img src='gifs/BlackGender4a.gif' style='height:400px;''></img>",NA,"html-keyboard-response",165,1108309,"0.0-15.0-1.11",95667,"ListA","man","chinese","CMA8",NA,NA,NA,"null",NA,NA,NA,NA,NA,NA
"null","正在提到",NA,"html-keyboard-response",166,1111312,"0.0-15.0-2.11",95667,"ListA","man","chinese","CMA8",NA,NA,NA,"null",NA,NA,NA,NA,NA,NA
"7378",NA,NA,"survey-text",167,1118696,"0.0-15.0-3.11",95667,"ListA","man","chinese","CMA8",NA,NA,NA,NA,"{""Q0"":""霍普正在提到戴夫""}","<img src='gifs/BlackGender4a.gif' style='height:400px;''></img>","提到","正在提到","chinese",NA
"null","<div style=""font-size:60px;"">+</div>",NA,"html-keyboard-response",168,1119198,"0.0-15.0-0.12",95667,"ListA","man","chinese","CMA8",NA,NA,NA,"null",NA,NA,NA,NA,NA,NA
"null","<img src='gifs/MaleRace4b.gif' style='height:400px;''></img>",NA,"html-keyboard-response",169,1121202,"0.0-15.0-1.12",95667,"ListA","man","chinese","CMA8",NA,NA,NA,"null",NA,NA,NA,NA,NA,NA
"null","正在说服",NA,"html-keyboard-response",170,1124205,"0.0-15.0-2.12",95667,"ListA","man","chinese","CMA8",NA,NA,NA,"null",NA,NA,NA,NA,NA,NA
"7410",NA,NA,"survey-text",171,1131626,"0.0-15.0-3.12",95667,"ListA","man","chinese","CMA8",NA,NA,NA,NA,"{""Q0"":""麦克正在说服戴夫""}","<img src='gifs/MaleRace4b.gif' style='height:400px;''></img>","说服","正在说服","chinese",NA
"null","<div style=""font-size:60px;"">+</div>",NA,"html-keyboard-response",172,1132129,"0.0-15.0-0.13",95667,"ListA","man","chinese","CMA8",NA,NA,NA,"null",NA,NA,NA,NA,NA,NA
"null","<img src='gifs/MaleRace1a.gif' style='height:400px;''></img>",NA,"html-keyboard-response",173,1134133,"0.0-15.0-1.13",95667,"ListA","man","chinese","CMA8",NA,NA,NA,"null",NA,NA,NA,NA,NA,NA
"null","正在面向",NA,"html-keyboard-response",174,1137137,"0.0-15.0-2.13",95667,"ListA","man","chinese","CMA8",NA,NA,NA,"null",NA,NA,NA,NA,NA,NA
"7866",NA,NA,"survey-text",175,1145010,"0.0-15.0-3.13",95667,"ListA","man","chinese","CMA8",NA,NA,NA,NA,"{""Q0"":""卢克正在面向弗雷""}","<img src='gifs/MaleRace1a.gif' style='height:400px;''></img>","面向","正在面向","chinese",NA
"null","<div style=""font-size:60px;"">+</div>",NA,"html-keyboard-response",176,1145512,"0.0-15.0-0.14",95667,"ListA","man","chinese","CMA8",NA,NA,NA,"null",NA,NA,NA,NA,NA,NA
"null","<img src='gifs/MaleRace2a.gif' style='height:400px;''></img>",NA,"html-keyboard-response",177,1147515,"0.0-15.0-1.14",95667,"ListA","man","chinese","CMA8",NA,NA,NA,"null",NA,NA,NA,NA,NA,NA
"null","正在走向",NA,"html-keyboard-response",178,1150519,"0.0-15.0-2.14",95667,"ListA","man","chinese","CMA8",NA,NA,NA,"null",NA,NA,NA,NA,NA,NA
"8350",NA,NA,"survey-text",179,1158875,"0.0-15.0-3.14",95667,"ListA","man","chinese","CMA8",NA,NA,NA,NA,"{""Q0"":""弗雷正在走向戴夫""}","<img src='gifs/MaleRace2a.gif' style='height:400px;''></img>","走向","正在走向","chinese",NA
"null","<div style=""font-size:60px;"">+</div>",NA,"html-keyboard-response",180,1159377,"0.0-15.0-0.15",95667,"ListA","man","chinese","CMA8",NA,NA,NA,"null",NA,NA,NA,NA,NA,NA
"null","<img src='gifs/ChineseGender4a.gif' style='height:400px;''></img>",NA,"html-keyboard-response",181,1161381,"0.0-15.0-1.15",95667,"ListA","man","chinese","CMA8",NA,NA,NA,"null",NA,NA,NA,NA,NA,NA
"null","正在介绍",NA,"html-keyboard-response",182,1164384,"0.0-15.0-2.15",95667,"ListA","man","chinese","CMA8",NA,NA,NA,"null",NA,NA,NA,NA,NA,NA
"7574",NA,NA,"survey-text",183,1171964,"0.0-15.0-3.15",95667,"ListA","man","chinese","CMA8",NA,NA,NA,NA,"{""Q0"":""麦克正在介绍凯特""}","<img src='gifs/ChineseGender4a.gif' style='height:400px;''></img>","介绍","正在介绍","chinese",NA
"null","<div style=""font-size:60px;"">+</div>",NA,"html-keyboard-response",184,1172466,"0.0-15.0-0.16",95667,"ListA","man","chinese","CMA8",NA,NA,NA,"null",NA,NA,NA,NA,NA,NA
"null","<img src='gifs/BlackGender4b.gif' style='height:400px;''></img>",NA,"html-keyboard-response",185,1174470,"0.0-15.0-1.16",95667,"ListA","man","chinese","CMA8",NA,NA,NA,"null",NA,NA,NA,NA,NA,NA
"null","正在走向",NA,"html-keyboard-response",186,1177482,"0.0-15.0-2.16",95667,"ListA","man","chinese","CMA8",NA,NA,NA,"null",NA,NA,NA,NA,NA,NA
"7259",NA,NA,"survey-text",187,1184748,"0.0-15.0-3.16",95667,"ListA","man","chinese","CMA8",NA,NA,NA,NA,"{""Q0"":""霍普正在走向戴夫""}","<img src='gifs/BlackGender4b.gif' style='height:400px;''></img>","走向","正在走向","chinese",NA
"null","<div style=""font-size:60px;"">+</div>",NA,"html-keyboard-response",188,1185251,"0.0-15.0-0.17",95667,"ListA","man","chinese","CMA8",NA,NA,NA,"null",NA,NA,NA,NA,NA,NA
"null","<img src='gifs/FemaleRace3a.gif' style='height:400px;''></img>",NA,"html-keyboard-response",189,1187255,"0.0-15.0-1.17",95667,"ListA","man","chinese","CMA8",NA,NA,NA,"null",NA,NA,NA,NA,NA,NA
"null","正在接近",NA,"html-keyboard-response",190,1190259,"0.0-15.0-2.17",95667,"ListA","man","chinese","CMA8",NA,NA,NA,"null",NA,NA,NA,NA,NA,NA
"6360",NA,NA,"survey-text",191,1196624,"0.0-15.0-3.17",95667,"ListA","man","chinese","CMA8",NA,NA,NA,NA,"{""Q0"":""露丝正在接近贝斯""}","<img src='gifs/FemaleRace3a.gif' style='height:400px;''></img>","接近","正在接近","chinese",NA
"6087.999999999770","<img src='img/portrait_matrix_listA_chinese.jpg' style='width:900px;height:500px;''></img><p>如果您已经记住了所有的人物和名字，请点击继续。</p><p><strong>请注意：您对先前记忆的面孔将在本实验中被测试5次。</strong></p>",0,"html-button-response",192,1202714,"0.0-16.0-0.0",95667,"ListA","man","chinese","CMA8",NA,NA,NA,NA,NA,NA,NA,NA,NA,NA
"1644","<img src=""portrait/BM1.jpg""style=""height:400px;""></img>",4,"html-button-response",193,1205362,"0.0-16.0-1.0",95667,"ListA","man","chinese","CMA8",NA,TRUE,4,NA,NA,NA,NA,NA,NA,NA
"null","正确",NA,"html-keyboard-response",194,1206867,"0.0-16.0-2.0-0.0",95667,"ListA","man","chinese","CMA8",NA,NA,NA,"null",NA,NA,NA,NA,NA,NA
"2118","<img src=""portrait/BW1.jpg""style=""height:400px;""></img>",0,"html-button-response",195,1208990,"0.0-16.0-4.0",95667,"ListA","man","chinese","CMA8",NA,TRUE,0,NA,NA,NA,NA,NA,NA,NA
"null","正确",NA,"html-keyboard-response",196,1210495,"0.0-16.0-5.0-0.0",95667,"ListA","man","chinese","CMA8",NA,NA,NA,"null",NA,NA,NA,NA,NA,NA
"1743","<img src=""portrait/WW2.jpg""style=""height:400px;""></img>",3,"html-button-response",197,1212242,"0.0-16.0-7.0",95667,"ListA","man","chinese","CMA8",NA,TRUE,3,NA,NA,NA,NA,NA,NA,NA
"null","正确",NA,"html-keyboard-response",198,1213746,"0.0-16.0-8.0-0.0",95667,"ListA","man","chinese","CMA8",NA,NA,NA,"null",NA,NA,NA,NA,NA,NA
"2560","<img src=""portrait/BW2.jpg""style=""height:400px;""></img>",2,"html-button-response",199,1216310,"0.0-16.0-10.0",95667,"ListA","man","chinese","CMA8",NA,TRUE,2,NA,NA,NA,NA,NA,NA,NA
"null","正确",NA,"html-keyboard-response",200,1217814,"0.0-16.0-11.0-0.0",95667,"ListA","man","chinese","CMA8",NA,NA,NA,"null",NA,NA,NA,NA,NA,NA
"2001.999999999770","<img src=""portrait/WM1.jpg""style=""height:400px;""></img>",6,"html-button-response",201,1219820,"0.0-16.0-13.0",95667,"ListA","man","chinese","CMA8",NA,TRUE,6,NA,NA,NA,NA,NA,NA,NA
"null","正确",NA,"html-keyboard-response",202,1221324,"0.0-16.0-14.0-0.0",95667,"ListA","man","chinese","CMA8",NA,NA,NA,"null",NA,NA,NA,NA,NA,NA
"1568.999999999770","<img src=""portrait/WW1.jpg""style=""height:400px;""></img>",1,"html-button-response",203,1222897,"0.0-16.0-16.0",95667,"ListA","man","chinese","CMA8",NA,TRUE,1,NA,NA,NA,NA,NA,NA,NA
"null","正确",NA,"html-keyboard-response",204,1224401,"0.0-16.0-17.0-0.0",95667,"ListA","man","chinese","CMA8",NA,NA,NA,"null",NA,NA,NA,NA,NA,NA
"2345","<img src=""portrait/BM2.jpg""style=""height:400px;""></img>",5,"html-button-response",205,1226749,"0.0-16.0-19.0",95667,"ListA","man","chinese","CMA8",NA,TRUE,5,NA,NA,NA,NA,NA,NA,NA
"null","正确",NA,"html-keyboard-response",206,1228253,"0.0-16.0-20.0-0.0",95667,"ListA","man","chinese","CMA8",NA,NA,NA,"null",NA,NA,NA,NA,NA,NA
"1176","<img src=""portrait/WM2.jpg""style=""height:400px;""></img>",7,"html-button-response",207,1229432,"0.0-16.0-22.0",95667,"ListA","man","chinese","CMA8",NA,TRUE,7,NA,NA,NA,NA,NA,NA,NA
"null","正确",NA,"html-keyboard-response",208,1230936,"0.0-16.0-23.0-0.0",95667,"ListA","man","chinese","CMA8",NA,NA,NA,"null",NA,NA,NA,NA,NA,NA
"1018","<p>您第一次在8题里答对了 8 题。 请点击继续</p>",0,"html-button-response",209,1231958,"0.0-16.0-25.0",95667,"ListA","man","chinese","CMA8",NA,NA,NA,NA,NA,NA,NA,NA,NA,NA
"null","<div style=""font-size:60px;"">+</div>",NA,"html-keyboard-response",210,1233463,"0.0-17.0-0.0",95667,"ListA","man","chinese","CMA8",NA,NA,NA,"null",NA,NA,NA,NA,NA,NA
"null","<img src='gifs/MaleRace3a.gif' style='height:400px;''></img>",NA,"html-keyboard-response",211,1235468,"0.0-17.0-1.0",95667,"ListA","man","chinese","CMA8",NA,NA,NA,"null",NA,NA,NA,NA,NA,NA
"null","正在聘用",NA,"html-keyboard-response",212,1238471,"0.0-17.0-2.0",95667,"ListA","man","chinese","CMA8",NA,NA,NA,"null",NA,NA,NA,NA,NA,NA
"9181",NA,NA,"survey-text",213,1247658,"0.0-17.0-3.0",95667,"ListA","man","chinese","CMA8",NA,NA,NA,NA,"{""Q0"":""卢克正在聘用麦克""}","<img src='gifs/MaleRace3a.gif' style='height:400px;''></img>","聘用","正在聘用","chinese",NA
"null","<div style=""font-size:60px;"">+</div>",NA,"html-keyboard-response",214,1248160,"0.0-17.0-0.1",95667,"ListA","man","chinese","CMA8",NA,NA,NA,"null",NA,NA,NA,NA,NA,NA
"null","<img src='gifs/FemaleRace4b.gif' style='height:400px;''></img>",NA,"html-keyboard-response",215,1250164,"0.0-17.0-1.1",95667,"ListA","man","chinese","CMA8",NA,NA,NA,"null",NA,NA,NA,NA,NA,NA
"null","正在介绍",NA,"html-keyboard-response",216,1253168,"0.0-17.0-2.1",95667,"ListA","man","chinese","CMA8",NA,NA,NA,"null",NA,NA,NA,NA,NA,NA
"12633",NA,NA,"survey-text",217,1265807,"0.0-17.0-3.1",95667,"ListA","man","chinese","CMA8",NA,NA,NA,NA,"{""Q0"":""霍普正在介绍贝斯""}","<img src='gifs/FemaleRace4b.gif' style='height:400px;''></img>","介绍","正在介绍","chinese",NA
"null","<div style=""font-size:60px;"">+</div>",NA,"html-keyboard-response",218,1266309,"0.0-17.0-0.2",95667,"ListA","man","chinese","CMA8",NA,NA,NA,"null",NA,NA,NA,NA,NA,NA
"null","<img src='gifs/FemaleRace3a.gif' style='height:400px;''></img>",NA,"html-keyboard-response",219,1268313,"0.0-17.0-1.2",95667,"ListA","man","chinese","CMA8",NA,NA,NA,"null",NA,NA,NA,NA,NA,NA
"null","正在触摸",NA,"html-keyboard-response",220,1271316,"0.0-17.0-2.2",95667,"ListA","man","chinese","CMA8",NA,NA,NA,"null",NA,NA,NA,NA,NA,NA
"10604",NA,NA,"survey-text",221,1281932,"0.0-17.0-3.2",95667,"ListA","man","chinese","CMA8",NA,NA,NA,NA,"{""Q0"":""贝斯正在触摸露丝""}","<img src='gifs/FemaleRace3a.gif' style='height:400px;''></img>","触摸","正在触摸","chinese",NA
"null","<div style=""font-size:60px;"">+</div>",NA,"html-keyboard-response",222,1282435,"0.0-17.0-0.3",95667,"ListA","man","chinese","CMA8",NA,NA,NA,"null",NA,NA,NA,NA,NA,NA
"null","<img src='gifs/ChineseGender2b.gif' style='height:400px;''></img>",NA,"html-keyboard-response",223,1284439,"0.0-17.0-1.3",95667,"ListA","man","chinese","CMA8",NA,NA,NA,"null",NA,NA,NA,NA,NA,NA
"null","正在聆听",NA,"html-keyboard-response",224,1287442,"0.0-17.0-2.3",95667,"ListA","man","chinese","CMA8",NA,NA,NA,"null",NA,NA,NA,NA,NA,NA
"9953",NA,NA,"survey-text",225,1297402,"0.0-17.0-3.3",95667,"ListA","man","chinese","CMA8",NA,NA,NA,NA,"{""Q0"":""弗雷正在聆听贝斯""}","<img src='gifs/ChineseGender2b.gif' style='height:400px;''></img>","聆听","正在聆听","chinese",NA
"null","<div style=""font-size:60px;"">+</div>",NA,"html-keyboard-response",226,1297904,"0.0-17.0-0.4",95667,"ListA","man","chinese","CMA8",NA,NA,NA,"null",NA,NA,NA,NA,NA,NA
"null","<img src='gifs/ChineseGender3b.gif' style='height:400px;''></img>",NA,"html-keyboard-response",227,1299908,"0.0-17.0-1.4",95667,"ListA","man","chinese","CMA8",NA,NA,NA,"null",NA,NA,NA,NA,NA,NA
"null","正在看着",NA,"html-keyboard-response",228,1302911,"0.0-17.0-2.4",95667,"ListA","man","chinese","CMA8",NA,NA,NA,"null",NA,NA,NA,NA,NA,NA
"7162",NA,NA,"survey-text",229,1310079,"0.0-17.0-3.4",95667,"ListA","man","chinese","CMA8",NA,NA,NA,NA,"{""Q0"":""麦克正在看着贝斯""}","<img src='gifs/ChineseGender3b.gif' style='height:400px;''></img>","看着","正在看着","chinese",NA
"null","<div style=""font-size:60px;"">+</div>",NA,"html-keyboard-response",230,1310581,"0.0-17.0-0.5",95667,"ListA","man","chinese","CMA8",NA,NA,NA,"null",NA,NA,NA,NA,NA,NA
"null","<img src='gifs/MaleRace2a.gif' style='height:400px;''></img>",NA,"html-keyboard-response",231,1312586,"0.0-17.0-1.5",95667,"ListA","man","chinese","CMA8",NA,NA,NA,"null",NA,NA,NA,NA,NA,NA
"null","正在接近",NA,"html-keyboard-response",232,1315590,"0.0-17.0-2.5",95667,"ListA","man","chinese","CMA8",NA,NA,NA,"null",NA,NA,NA,NA,NA,NA
"8277",NA,NA,"survey-text",233,1323878,"0.0-17.0-3.5",95667,"ListA","man","chinese","CMA8",NA,NA,NA,NA,"{""Q0"":""戴夫正在接近弗雷""}","<img src='gifs/MaleRace2a.gif' style='height:400px;''></img>","接近","正在接近","chinese",NA
"null","<div style=""font-size:60px;"">+</div>",NA,"html-keyboard-response",234,1324380,"0.0-17.0-0.6",95667,"ListA","man","chinese","CMA8",NA,NA,NA,"null",NA,NA,NA,NA,NA,NA
"null","<img src='gifs/ChineseGender3b.gif' style='height:400px;''></img>",NA,"html-keyboard-response",235,1326384,"0.0-17.0-1.6",95667,"ListA","man","chinese","CMA8",NA,NA,NA,"null",NA,NA,NA,NA,NA,NA
"null","正在陪伴",NA,"html-keyboard-response",236,1329388,"0.0-17.0-2.6",95667,"ListA","man","chinese","CMA8",NA,NA,NA,"null",NA,NA,NA,NA,NA,NA
"6286",NA,NA,"survey-text",237,1335679,"0.0-17.0-3.6",95667,"ListA","man","chinese","CMA8",NA,NA,NA,NA,"{""Q0"":""麦克正在陪伴贝斯""}","<img src='gifs/ChineseGender3b.gif' style='height:400px;''></img>","陪伴","正在陪伴","chinese",NA
"null","<div style=""font-size:60px;"">+</div>",NA,"html-keyboard-response",238,1336182,"0.0-17.0-0.7",95667,"ListA","man","chinese","CMA8",NA,NA,NA,"null",NA,NA,NA,NA,NA,NA
"null","<img src='gifs/MaleRace4b.gif' style='height:400px;''></img>",NA,"html-keyboard-response",239,1338187,"0.0-17.0-1.7",95667,"ListA","man","chinese","CMA8",NA,NA,NA,"null",NA,NA,NA,NA,NA,NA
"null","正在表扬",NA,"html-keyboard-response",240,1341190,"0.0-17.0-2.7",95667,"ListA","man","chinese","CMA8",NA,NA,NA,"null",NA,NA,NA,NA,NA,NA
"8491",NA,NA,"survey-text",241,1349686,"0.0-17.0-3.7",95667,"ListA","man","chinese","CMA8",NA,NA,NA,NA,"{""Q0"":""麦克正在表扬戴夫""}","<img src='gifs/MaleRace4b.gif' style='height:400px;''></img>","表扬","正在表扬","chinese",NA
"null","<div style=""font-size:60px;"">+</div>",NA,"html-keyboard-response",242,1350189,"0.0-17.0-0.8",95667,"ListA","man","chinese","CMA8",NA,NA,NA,"null",NA,NA,NA,NA,NA,NA
"null","<img src='gifs/FemaleRace2a.gif' style='height:400px;''></img>",NA,"html-keyboard-response",243,1352192,"0.0-17.0-1.8",95667,"ListA","man","chinese","CMA8",NA,NA,NA,"null",NA,NA,NA,NA,NA,NA
"null","正在联系",NA,"html-keyboard-response",244,1355195,"0.0-17.0-2.8",95667,"ListA","man","chinese","CMA8",NA,NA,NA,"null",NA,NA,NA,NA,NA,NA
"6657.999999999770",NA,NA,"survey-text",245,1361858,"0.0-17.0-3.8",95667,"ListA","man","chinese","CMA8",NA,NA,NA,NA,"{""Q0"":""凯特正在联系霍普""}","<img src='gifs/FemaleRace2a.gif' style='height:400px;''></img>","联系","正在联系","chinese",NA
"null","<div style=""font-size:60px;"">+</div>",NA,"html-keyboard-response",246,1362361,"0.0-17.0-0.9",95667,"ListA","man","chinese","CMA8",NA,NA,NA,"null",NA,NA,NA,NA,NA,NA
"null","<img src='gifs/FemaleRace2b.gif' style='height:400px;''></img>",NA,"html-keyboard-response",247,1364364,"0.0-17.0-1.9",95667,"ListA","man","chinese","CMA8",NA,NA,NA,"null",NA,NA,NA,NA,NA,NA
"null","正在陪伴",NA,"html-keyboard-response",248,1367367,"0.0-17.0-2.9",95667,"ListA","man","chinese","CMA8",NA,NA,NA,"null",NA,NA,NA,NA,NA,NA
"8022.999999999770",NA,NA,"survey-text",249,1375396,"0.0-17.0-3.9",95667,"ListA","man","chinese","CMA8",NA,NA,NA,NA,"{""Q0"":""凯特正在陪伴霍普""}","<img src='gifs/FemaleRace2b.gif' style='height:400px;''></img>","陪伴","正在陪伴","chinese",NA
"null","<div style=""font-size:60px;"">+</div>",NA,"html-keyboard-response",250,1375898,"0.0-17.0-0.10",95667,"ListA","man","chinese","CMA8",NA,NA,NA,"null",NA,NA,NA,NA,NA,NA
"null","<img src='gifs/ChineseGender4a.gif' style='height:400px;''></img>",NA,"html-keyboard-response",251,1377902,"0.0-17.0-1.10",95667,"ListA","man","chinese","CMA8",NA,NA,NA,"null",NA,NA,NA,NA,NA,NA
"null","正在说服",NA,"html-keyboard-response",252,1380905,"0.0-17.0-2.10",95667,"ListA","man","chinese","CMA8",NA,NA,NA,"null",NA,NA,NA,NA,NA,NA
"6017.999999999770",NA,NA,"survey-text",253,1386929,"0.0-17.0-3.10",95667,"ListA","man","chinese","CMA8",NA,NA,NA,NA,"{""Q0"":""凯特正在说服麦克""}","<img src='gifs/ChineseGender4a.gif' style='height:400px;''></img>","说服","正在说服","chinese",NA
"null","<div style=""font-size:60px;"">+</div>",NA,"html-keyboard-response",254,1387431,"0.0-17.0-0.11",95667,"ListA","man","chinese","CMA8",NA,NA,NA,"null",NA,NA,NA,NA,NA,NA
"null","<img src='gifs/ChineseGender1b.gif' style='height:400px;''></img>",NA,"html-keyboard-response",255,1389434,"0.0-17.0-1.11",95667,"ListA","man","chinese","CMA8",NA,NA,NA,"null",NA,NA,NA,NA,NA,NA
"null","正在跟随",NA,"html-keyboard-response",256,1392437,"0.0-17.0-2.11",95667,"ListA","man","chinese","CMA8",NA,NA,NA,"null",NA,NA,NA,NA,NA,NA
"6875",NA,NA,"survey-text",257,1399323,"0.0-17.0-3.11",95667,"ListA","man","chinese","CMA8",NA,NA,NA,NA,"{""Q0"":""弗雷正在跟随凯特""}","<img src='gifs/ChineseGender1b.gif' style='height:400px;''></img>","跟随","正在跟随","chinese",NA
"null","<div style=""font-size:60px;"">+</div>",NA,"html-keyboard-response",258,1399827,"0.0-17.0-0.12",95667,"ListA","man","chinese","CMA8",NA,NA,NA,"null",NA,NA,NA,NA,NA,NA
"null","<img src='gifs/BlackGender1a.gif' style='height:400px;''></img>",NA,"html-keyboard-response",259,1401831,"0.0-17.0-1.12",95667,"ListA","man","chinese","CMA8",NA,NA,NA,"null",NA,NA,NA,NA,NA,NA
"null","正在加入",NA,"html-keyboard-response",260,1404835,"0.0-17.0-2.12",95667,"ListA","man","chinese","CMA8",NA,NA,NA,"null",NA,NA,NA,NA,NA,NA
"6262.000000000230",NA,NA,"survey-text",261,1411104,"0.0-17.0-3.12",95667,"ListA","man","chinese","CMA8",NA,NA,NA,NA,"{""Q0"":""卢克正在加入露丝""}","<img src='gifs/BlackGender1a.gif' style='height:400px;''></img>","加入","正在加入","chinese",NA
"null","<div style=""font-size:60px;"">+</div>",NA,"html-keyboard-response",262,1411606,"0.0-17.0-0.13",95667,"ListA","man","chinese","CMA8",NA,NA,NA,"null",NA,NA,NA,NA,NA,NA
"null","<img src='gifs/MaleRace1b.gif' style='height:400px;''></img>",NA,"html-keyboard-response",263,1413610,"0.0-17.0-1.13",95667,"ListA","man","chinese","CMA8",NA,NA,NA,"null",NA,NA,NA,NA,NA,NA
"null","正在面向",NA,"html-keyboard-response",264,1416613,"0.0-17.0-2.13",95667,"ListA","man","chinese","CMA8",NA,NA,NA,"null",NA,NA,NA,NA,NA,NA
"6618.000000000230",NA,NA,"survey-text",265,1423237,"0.0-17.0-3.13",95667,"ListA","man","chinese","CMA8",NA,NA,NA,NA,"{""Q0"":""弗雷正在面向卢克""}","<img src='gifs/MaleRace1b.gif' style='height:400px;''></img>","面向","正在面向","chinese",NA
"null","<div style=""font-size:60px;"">+</div>",NA,"html-keyboard-response",266,1423739,"0.0-17.0-0.14",95667,"ListA","man","chinese","CMA8",NA,NA,NA,"null",NA,NA,NA,NA,NA,NA
"null","<img src='gifs/MaleRace2b.gif' style='height:400px;''></img>",NA,"html-keyboard-response",267,1425744,"0.0-17.0-1.14",95667,"ListA","man","chinese","CMA8",NA,NA,NA,"null",NA,NA,NA,NA,NA,NA
"null","正在聆听",NA,"html-keyboard-response",268,1428747,"0.0-17.0-2.14",95667,"ListA","man","chinese","CMA8",NA,NA,NA,"null",NA,NA,NA,NA,NA,NA
"8871",NA,NA,"survey-text",269,1437629,"0.0-17.0-3.14",95667,"ListA","man","chinese","CMA8",NA,NA,NA,NA,"{""Q0"":""弗雷正在聆听戴夫""}","<img src='gifs/MaleRace2b.gif' style='height:400px;''></img>","聆听","正在聆听","chinese",NA
"null","<div style=""font-size:60px;"">+</div>",NA,"html-keyboard-response",270,1438132,"0.0-17.0-0.15",95667,"ListA","man","chinese","CMA8",NA,NA,NA,"null",NA,NA,NA,NA,NA,NA
"null","<img src='gifs/FemaleRace3b.gif' style='height:400px;''></img>",NA,"html-keyboard-response",271,1440135,"0.0-17.0-1.15",95667,"ListA","man","chinese","CMA8",NA,NA,NA,"null",NA,NA,NA,NA,NA,NA
"null","正在答应",NA,"html-keyboard-response",272,1443138,"0.0-17.0-2.15",95667,"ListA","man","chinese","CMA8",NA,NA,NA,"null",NA,NA,NA,NA,NA,NA
"8033",NA,NA,"survey-text",273,1451177,"0.0-17.0-3.15",95667,"ListA","man","chinese","CMA8",NA,NA,NA,NA,"{""Q0"":""贝斯正在答应露丝""}","<img src='gifs/FemaleRace3b.gif' style='height:400px;''></img>","答应","正在答应","chinese",NA
"null","<div style=""font-size:60px;"">+</div>",NA,"html-keyboard-response",274,1451679,"0.0-17.0-0.16",95667,"ListA","man","chinese","CMA8",NA,NA,NA,"null",NA,NA,NA,NA,NA,NA
"null","<img src='gifs/FemaleRace2b.gif' style='height:400px;''></img>",NA,"html-keyboard-response",275,1453683,"0.0-17.0-1.16",95667,"ListA","man","chinese","CMA8",NA,NA,NA,"null",NA,NA,NA,NA,NA,NA
"null","正在表扬",NA,"html-keyboard-response",276,1456686,"0.0-17.0-2.16",95667,"ListA","man","chinese","CMA8",NA,NA,NA,"null",NA,NA,NA,NA,NA,NA
"7580.999999999770",NA,NA,"survey-text",277,1464279,"0.0-17.0-3.16",95667,"ListA","man","chinese","CMA8",NA,NA,NA,NA,"{""Q0"":""霍普正在表扬凯特""}","<img src='gifs/FemaleRace2b.gif' style='height:400px;''></img>","表扬","正在表扬","chinese",NA
"null","<div style=""font-size:60px;"">+</div>",NA,"html-keyboard-response",278,1464783,"0.0-17.0-0.17",95667,"ListA","man","chinese","CMA8",NA,NA,NA,"null",NA,NA,NA,NA,NA,NA
"null","<img src='gifs/ChineseGender2b.gif' style='height:400px;''></img>",NA,"html-keyboard-response",279,1466787,"0.0-17.0-1.17",95667,"ListA","man","chinese","CMA8",NA,NA,NA,"null",NA,NA,NA,NA,NA,NA
"null","正在加入",NA,"html-keyboard-response",280,1469791,"0.0-17.0-2.17",95667,"ListA","man","chinese","CMA8",NA,NA,NA,"null",NA,NA,NA,NA,NA,NA
"6611",NA,NA,"survey-text",281,1476408,"0.0-17.0-3.17",95667,"ListA","man","chinese","CMA8",NA,NA,NA,NA,"{""Q0"":""弗雷正在加入贝斯""}","<img src='gifs/ChineseGender2b.gif' style='height:400px;''></img>","加入","正在加入","chinese",NA
"6880.999999999770","<p>Thank you for completing that task.</p><p>The final part of this session is a short questionnaire.</p><p>Press Continue.</p>",0,"html-button-response",282,1483290,"0.0-18.0",95667,"ListA","man","chinese","CMA8",NA,NA,NA,NA,NA,NA,NA,NA,NA,NA
"60098.0000000002",NA,NA,"survey-text",283,1544400,"0.0-19.0",95667,"ListA","man","chinese","CMA8",NA,NA,NA,NA,"{""Q0"":""23"",""Q1"":""Chinese"",""Q2"":""Chinese"",""Q3"":""shanghai"",""Q4"":""China"",""Q5"":""yellow"",""Q6"":""man""}",NA,NA,NA,NA,"demographics"
"5700","<p>Have you lived in the UK for the last 5 years or more?</p>",1,"html-button-response",284,1550105,"0.0-20.0",95667,"ListA","man","chinese","CMA8",NA,NA,NA,NA,NA,NA,NA,NA,NA,"fiveyears"
"10754",NA,NA,"external-html",285,1563444,"0.0-21.0",95667,"ListA","man","chinese","CMA8","debrief.html",NA,NA,NA,NA,NA,NA,NA,NA,NA
"22329",NA,NA,"survey-text",286,1585786,"0.0-22.0",95667,"ListA","man","chinese","CMA8",NA,NA,NA,NA,"{""ptpt_id"":""CMA8""}",NA,NA,NA,NA,"worker_id"
