"rt","stimulus","button_pressed","trial_type","trial_index","time_elapsed","internal_node_id","subject","list","ppt_gender","ppt_language","url","first_guess","correct","key_press","responses","image","verb","phrase","condition","test_part"
"2598.0999999940395","Welcome to the experiment. Press Continue to begin.",0,"html-button-response",0,2600,"0.0-0.0",97827,"ListA","woman","english",NA,NA,NA,NA,NA,NA,NA,NA,NA,NA
"131858.59999999404",NA,NA,"external-html",1,135499,"0.0-1.0",97827,"ListA","woman","english","consent.html",NA,NA,NA,NA,NA,NA,NA,NA,NA
"81968.5","<p>On the next page, you will see portraits of 8 people and their names.</p><p>Your first task is to take a few minutes to memorise the names of these people.</p><p>You will have to recall their names during the rest of the experiment, so it is</p><p>essential that you try to memorise these people and their names as best as you can.</p><p><strong>You will then be tested on your memory of these names and portraits.</strong></p><p>The experiment will start after you have completed this memory test.</p><p>Ready?</p>",0,"html-button-response",2,217468,"0.0-2.0",97827,"ListA","woman","english",NA,NA,NA,NA,NA,NA,NA,NA,NA,NA
"483704.3000000119","<img src='img/portrait_matrix_listA.jpg' style='width:900px;height:500px;''></img><p>If you have memorised all the portraits and names and are ready to start, press Continue.</p><p><strong>Please note: Your memory of these faces will be tested 5 times during this experiment.</strong></p>",0,"html-button-response",3,702175,"0.0-3.0-0.0",97827,"ListA","woman","english",NA,NA,NA,NA,NA,NA,NA,NA,NA,NA
"13804.59999999404","<img src=""portrait/BM1.jpg""style=""height:400px;""></img>",4,"html-button-response",4,716986,"0.0-3.0-1.0",97827,"ListA","woman","english",NA,"true",4,NA,NA,NA,NA,NA,NA,NA
"null","CORRECT",NA,"html-keyboard-response",5,718506,"0.0-3.0-2.0-0.0",97827,"ListA","woman","english",NA,NA,NA,"null",NA,NA,NA,NA,NA,NA
"9430.600000023842","<img src=""portrait/BW2.jpg""style=""height:400px;""></img>",2,"html-button-response",6,727938,"0.0-3.0-4.0",97827,"ListA","woman","english",NA,"true",2,NA,NA,NA,NA,NA,NA,NA
"null","CORRECT",NA,"html-keyboard-response",7,729456,"0.0-3.0-5.0-0.0",97827,"ListA","woman","english",NA,NA,NA,"null",NA,NA,NA,NA,NA,NA
"6775","<img src=""portrait/WW1.jpg""style=""height:400px;""></img>",1,"html-button-response",8,736232,"0.0-3.0-7.0",97827,"ListA","woman","english",NA,"true",1,NA,NA,NA,NA,NA,NA,NA
"null","CORRECT",NA,"html-keyboard-response",9,737751,"0.0-3.0-8.0-0.0",97827,"ListA","woman","english",NA,NA,NA,"null",NA,NA,NA,NA,NA,NA
"4927.700000017881","<img src=""portrait/BW1.jpg""style=""height:400px;""></img>",0,"html-button-response",10,742679,"0.0-3.0-10.0",97827,"ListA","woman","english",NA,"true",0,NA,NA,NA,NA,NA,NA,NA
"null","CORRECT",NA,"html-keyboard-response",11,744186,"0.0-3.0-11.0-0.0",97827,"ListA","woman","english",NA,NA,NA,"null",NA,NA,NA,NA,NA,NA
"7355.299999982119","<img src=""portrait/WM2.jpg""style=""height:400px;""></img>",7,"html-button-response",12,751542,"0.0-3.0-13.0",97827,"ListA","woman","english",NA,"true",7,NA,NA,NA,NA,NA,NA,NA
"null","CORRECT",NA,"html-keyboard-response",13,753053,"0.0-3.0-14.0-0.0",97827,"ListA","woman","english",NA,NA,NA,"null",NA,NA,NA,NA,NA,NA
"6137.5","<img src=""portrait/WW2.jpg""style=""height:400px;""></img>",3,"html-button-response",14,759192,"0.0-3.0-16.0",97827,"ListA","woman","english",NA,"true",3,NA,NA,NA,NA,NA,NA,NA
"null","CORRECT",NA,"html-keyboard-response",15,760708,"0.0-3.0-17.0-0.0",97827,"ListA","woman","english",NA,NA,NA,"null",NA,NA,NA,NA,NA,NA
"1982.5999999940395","<img src=""portrait/BM2.jpg""style=""height:400px;""></img>",5,"html-button-response",16,762692,"0.0-3.0-19.0",97827,"ListA","woman","english",NA,"true",5,NA,NA,NA,NA,NA,NA,NA
"null","CORRECT",NA,"html-keyboard-response",17,764207,"0.0-3.0-20.0-0.0",97827,"ListA","woman","english",NA,NA,NA,"null",NA,NA,NA,NA,NA,NA
"50725.09999999404","<img src=""portrait/WM1.jpg""style=""height:400px;""></img>",6,"html-button-response",18,814934,"0.0-3.0-22.0",97827,"ListA","woman","english",NA,"true",6,NA,NA,NA,NA,NA,NA,NA
"null","CORRECT",NA,"html-keyboard-response",19,816459,"0.0-3.0-23.0-0.0",97827,"ListA","woman","english",NA,NA,NA,"null",NA,NA,NA,NA,NA,NA
"126941","<p>You got 8 out of 8 right first time. Press Continue.</p>",0,"html-button-response",20,943401,"0.0-3.0-25.0",97827,"ListA","woman","english",NA,NA,NA,NA,NA,NA,NA,NA,NA,NA
"261896.60000002384","<p>In this experiment, you will view photographs of the people from the memory game.</p><p>By using the <strong>exact</strong> phrase given <i>after</i> the photograph appears and recalling the correct names of the people in the photographs, form a sentence describing an interaction. You do not need to capitalise names.</p><p>Type your answer in the space provided. Please complete every sentence before moving onto the next trial.</p><p>You will only have a few seconds to memorise each given photograph and phrase before you can respond, so try your best to focus.</p><p>An example is given below. Press 'Continue' when you are ready.</p><img src='img/speaking_example.jpg' style='width:800px;height:460px;''></img>",0,"html-button-response",21,1206313,"0.0-4.0",97827,"ListA","woman","english",NA,NA,NA,NA,NA,NA,NA,NA,NA,NA
"5202","<p>Before the experiment starts, you will watch two example trials. Press 'Continue'.</p>",0,"html-button-response",22,1212528,"0.0-5.0",97827,"ListA","woman","english",NA,NA,NA,NA,NA,NA,NA,NA,NA,NA
"null","<img src='img/meet.gif' style='height:400px;''></img>",NA,"html-keyboard-response",23,1215542,"0.0-6.0",97827,"ListA","woman","english",NA,NA,NA,"null",NA,NA,NA,NA,NA,NA
"null","<p>is meeting</p>",NA,"html-keyboard-response",24,1217558,"0.0-7.0",97827,"ListA","woman","english",NA,NA,NA,"null",NA,NA,NA,NA,NA,NA
"9537.59999999404","<p><b>Answer:</b> kate is meeting beth</p>",0,"html-button-response",25,1227096,"0.0-8.0",97827,"ListA","woman","english",NA,NA,NA,NA,NA,NA,NA,NA,NA,NA
"null","<img src='img/spy.gif' style='height:400px;''></img>",NA,"html-keyboard-response",26,1230107,"0.0-9.0",97827,"ListA","woman","english",NA,NA,NA,"null",NA,NA,NA,NA,NA,NA
"null","<p>is being spied on by</p>",NA,"html-keyboard-response",27,1232117,"0.0-10.0",97827,"ListA","woman","english",NA,NA,NA,"null",NA,NA,NA,NA,NA,NA
"3732.4000000059605","<p><b>Answer:</b> luke is being spied on by dave</p>",0,"html-button-response",28,1235850,"0.0-11.0",97827,"ListA","woman","english",NA,NA,NA,NA,NA,NA,NA,NA,NA,NA
"117495.20000001788","<p>Ready to start the experiment?</p><br><p><strong>Remember to describe the picture using a full sentence,</strong></p><p><strong>that combines the names of the people with the <i>exact</i> phrase given.</strong></p><p><strong>To receive full payment you must do this correctly.</strong></p><p><strong> You do not need to capitalise names or use punctuation.</strong></p><br><p>Press 'Continue' to begin.</p>",0,"html-button-response",29,1354350,"0.0-12.0",97827,"ListA","woman","english",NA,NA,NA,NA,NA,NA,NA,NA,NA,NA
"null","<div style=""font-size:60px;"">+</div>",NA,"html-keyboard-response",30,1355852,"0.0-13.0-0.0",97827,"ListA","woman","english",NA,NA,NA,"null",NA,NA,NA,NA,NA,NA
"null","<img src='gifs/FemaleRace2b.gif' style='height:400px;''></img>",NA,"html-keyboard-response",31,1357859,"0.0-13.0-1.0",97827,"ListA","woman","english",NA,NA,NA,"null",NA,NA,NA,NA,NA,NA
"null","is convincing",NA,"html-keyboard-response",32,1360861,"0.0-13.0-2.0",97827,"ListA","woman","english",NA,NA,NA,"null",NA,NA,NA,NA,NA,NA
"45827",NA,NA,"survey-text",33,1406690,"0.0-13.0-3.0",97827,"ListA","woman","english",NA,NA,NA,NA,"{""Q0"":""kate and jane are covening""}","<img src='gifs/FemaleRace2b.gif' style='height:400px;''></img>","convincing","is convincing","english",NA
"null","<div style=""font-size:60px;"">+</div>",NA,"html-keyboard-response",34,1407204,"0.0-13.0-0.1",97827,"ListA","woman","english",NA,NA,NA,"null",NA,NA,NA,NA,NA,NA
"null","<img src='gifs/BlackGender3a.gif' style='height:400px;''></img>",NA,"html-keyboard-response",35,1409210,"0.0-13.0-1.1",97827,"ListA","woman","english",NA,NA,NA,"null",NA,NA,NA,NA,NA,NA
"null","is promising",NA,"html-keyboard-response",36,1412217,"0.0-13.0-2.1",97827,"ListA","woman","english",NA,NA,NA,"null",NA,NA,NA,NA,NA,NA
"177691.10000002384",NA,NA,"survey-text",37,1589909,"0.0-13.0-3.1",97827,"ListA","woman","english",NA,NA,NA,NA,"{""Q0"":""Kate and ruth is promising""}","<img src='gifs/BlackGender3a.gif' style='height:400px;''></img>","promising","is promising","english",NA
"null","<div style=""font-size:60px;"">+</div>",NA,"html-keyboard-response",38,1590423,"0.0-13.0-0.2",97827,"ListA","woman","english",NA,NA,NA,"null",NA,NA,NA,NA,NA,NA
"null","<img src='gifs/MaleRace1a.gif' style='height:400px;''></img>",NA,"html-keyboard-response",39,1592429,"0.0-13.0-1.2",97827,"ListA","woman","english",NA,NA,NA,"null",NA,NA,NA,NA,NA,NA
"null","is mentioning",NA,"html-keyboard-response",40,1595432,"0.0-13.0-2.2",97827,"ListA","woman","english",NA,NA,NA,"null",NA,NA,NA,NA,NA,NA
"17763.79999998212",NA,NA,"survey-text",41,1613197,"0.0-13.0-3.2",97827,"ListA","woman","english",NA,NA,NA,NA,"{""Q0"":""fred and luke is mentioning""}","<img src='gifs/MaleRace1a.gif' style='height:400px;''></img>","mention","is mentioning","english",NA
"null","<div style=""font-size:60px;"">+</div>",NA,"html-keyboard-response",42,1613707,"0.0-13.0-0.3",97827,"ListA","woman","english",NA,NA,NA,"null",NA,NA,NA,NA,NA,NA
"null","<img src='gifs/FemaleRace1a.gif' style='height:400px;''></img>",NA,"html-keyboard-response",43,1615718,"0.0-13.0-1.3",97827,"ListA","woman","english",NA,NA,NA,"null",NA,NA,NA,NA,NA,NA
"null","is accompanying",NA,"html-keyboard-response",44,1618734,"0.0-13.0-2.3",97827,"ListA","woman","english",NA,NA,NA,"null",NA,NA,NA,NA,NA,NA
"17790.30000001192",NA,NA,"survey-text",45,1636525,"0.0-13.0-3.3",97827,"ListA","woman","english",NA,NA,NA,NA,"{""Q0"":""kate and ruth is companying""}","<img src='gifs/FemaleRace1a.gif' style='height:400px;''></img>","accompanying","is accompanying","english",NA
"null","<div style=""font-size:60px;"">+</div>",NA,"html-keyboard-response",46,1637033,"0.0-13.0-0.4",97827,"ListA","woman","english",NA,NA,NA,"null",NA,NA,NA,NA,NA,NA
"null","<img src='gifs/ChineseGender3b.gif' style='height:400px;''></img>",NA,"html-keyboard-response",47,1639043,"0.0-13.0-1.4",97827,"ListA","woman","english",NA,NA,NA,"null",NA,NA,NA,NA,NA,NA
"null","is approaching",NA,"html-keyboard-response",48,1642046,"0.0-13.0-2.4",97827,"ListA","woman","english",NA,NA,NA,"null",NA,NA,NA,NA,NA,NA
"25815.80000001192",NA,NA,"survey-text",49,1667854,"0.0-13.0-3.4",97827,"ListA","woman","english",NA,NA,NA,NA,"{""Q0"":""mike and fred is approaching""}","<img src='gifs/ChineseGender3b.gif' style='height:400px;''></img>","approaching","is approaching","english",NA
"null","<div style=""font-size:60px;"">+</div>",NA,"html-keyboard-response",50,1668355,"0.0-13.0-0.5",97827,"ListA","woman","english",NA,NA,NA,"null",NA,NA,NA,NA,NA,NA
"null","<img src='gifs/ChineseGender2b.gif' style='height:400px;''></img>",NA,"html-keyboard-response",51,1670357,"0.0-13.0-1.5",97827,"ListA","woman","english",NA,NA,NA,"null",NA,NA,NA,NA,NA,NA
"null","is mentioning",NA,"html-keyboard-response",52,1673358,"0.0-13.0-2.5",97827,"ListA","woman","english",NA,NA,NA,"null",NA,NA,NA,NA,NA,NA
"19809.79999998212",NA,NA,"survey-text",53,1693169,"0.0-13.0-3.5",97827,"ListA","woman","english",NA,NA,NA,NA,"{""Q0"":""fred and beth is mentioning""}","<img src='gifs/ChineseGender2b.gif' style='height:400px;''></img>","mention","is mentioning","english",NA
"null","<div style=""font-size:60px;"">+</div>",NA,"html-keyboard-response",54,1693670,"0.0-13.0-0.6",97827,"ListA","woman","english",NA,NA,NA,"null",NA,NA,NA,NA,NA,NA
"null","<img src='gifs/BlackGender2b.gif' style='height:400px;''></img>",NA,"html-keyboard-response",55,1695671,"0.0-13.0-1.6",97827,"ListA","woman","english",NA,NA,NA,"null",NA,NA,NA,NA,NA,NA
"null","is looking at",NA,"html-keyboard-response",56,1698672,"0.0-13.0-2.6",97827,"ListA","woman","english",NA,NA,NA,"null",NA,NA,NA,NA,NA,NA
"144278.5",NA,NA,"survey-text",57,1842962,"0.0-13.0-3.6",97827,"ListA","woman","english",NA,NA,NA,NA,"{""Q0"":""mike and ruth is looking at""}","<img src='gifs/BlackGender2b.gif' style='height:400px;''></img>","looking at","is looking at","english",NA
"null","<div style=""font-size:60px;"">+</div>",NA,"html-keyboard-response",58,1843466,"0.0-13.0-0.7",97827,"ListA","woman","english",NA,NA,NA,"null",NA,NA,NA,NA,NA,NA
"null","<img src='gifs/FemaleRace1b.gif' style='height:400px;''></img>",NA,"html-keyboard-response",59,1845472,"0.0-13.0-1.7",97827,"ListA","woman","english",NA,NA,NA,"null",NA,NA,NA,NA,NA,NA
"null","is listening to",NA,"html-keyboard-response",60,1848474,"0.0-13.0-2.7",97827,"ListA","woman","english",NA,NA,NA,"null",NA,NA,NA,NA,NA,NA
"14162.799999982119",NA,NA,"survey-text",61,1862638,"0.0-13.0-3.7",97827,"ListA","woman","english",NA,NA,NA,NA,"{""Q0"":""kate and ruth is listening to""}","<img src='gifs/FemaleRace1b.gif' style='height:400px;''></img>","listening to","is listening to","english",NA
"null","<div style=""font-size:60px;"">+</div>",NA,"html-keyboard-response",62,1863148,"0.0-13.0-0.8",97827,"ListA","woman","english",NA,NA,NA,"null",NA,NA,NA,NA,NA,NA
"null","<img src='gifs/ChineseGender4a.gif' style='height:400px;''></img>",NA,"html-keyboard-response",63,1865154,"0.0-13.0-1.8",97827,"ListA","woman","english",NA,NA,NA,"null",NA,NA,NA,NA,NA,NA
"null","is convincing",NA,"html-keyboard-response",64,1868168,"0.0-13.0-2.8",97827,"ListA","woman","english",NA,NA,NA,"null",NA,NA,NA,NA,NA,NA
"17371.40000000596",NA,NA,"survey-text",65,1885540,"0.0-13.0-3.8",97827,"ListA","woman","english",NA,NA,NA,NA,"{""Q0"":""kate and fred is covening""}","<img src='gifs/ChineseGender4a.gif' style='height:400px;''></img>","convincing","is convincing","english",NA
"null","<div style=""font-size:60px;"">+</div>",NA,"html-keyboard-response",66,1886053,"0.0-13.0-0.9",97827,"ListA","woman","english",NA,NA,NA,"null",NA,NA,NA,NA,NA,NA
"null","<img src='gifs/ChineseGender3a.gif' style='height:400px;''></img>",NA,"html-keyboard-response",67,1888070,"0.0-13.0-1.9",97827,"ListA","woman","english",NA,NA,NA,"null",NA,NA,NA,NA,NA,NA
"null","is listening to",NA,"html-keyboard-response",68,1891074,"0.0-13.0-2.9",97827,"ListA","woman","english",NA,NA,NA,"null",NA,NA,NA,NA,NA,NA
"19660.19999998808",NA,NA,"survey-text",69,1910732,"0.0-13.0-3.9",97827,"ListA","woman","english",NA,NA,NA,NA,"{""Q0"":""fred and beth is listening to""}","<img src='gifs/ChineseGender3a.gif' style='height:400px;''></img>","listening to","is listening to","english",NA
"null","<div style=""font-size:60px;"">+</div>",NA,"html-keyboard-response",70,1911240,"0.0-13.0-0.10",97827,"ListA","woman","english",NA,NA,NA,"null",NA,NA,NA,NA,NA,NA
"null","<img src='gifs/BlackGender1b.gif' style='height:400px;''></img>",NA,"html-keyboard-response",71,1913247,"0.0-13.0-1.10",97827,"ListA","woman","english",NA,NA,NA,"null",NA,NA,NA,NA,NA,NA
"null","is approaching",NA,"html-keyboard-response",72,1916255,"0.0-13.0-2.10",97827,"ListA","woman","english",NA,NA,NA,"null",NA,NA,NA,NA,NA,NA
"50278.40000000596",NA,NA,"survey-text",73,1966537,"0.0-13.0-3.10",97827,"ListA","woman","english",NA,NA,NA,NA,"{""Q0"":""luck and ruth is approaching""}","<img src='gifs/BlackGender1b.gif' style='height:400px;''></img>","approaching","is approaching","english",NA
"null","<div style=""font-size:60px;"">+</div>",NA,"html-keyboard-response",74,1967044,"0.0-13.0-0.11",97827,"ListA","woman","english",NA,NA,NA,"null",NA,NA,NA,NA,NA,NA
"null","<img src='gifs/MaleRace4a.gif' style='height:400px;''></img>",NA,"html-keyboard-response",75,1969057,"0.0-13.0-1.11",97827,"ListA","woman","english",NA,NA,NA,"null",NA,NA,NA,NA,NA,NA
"null","is promising",NA,"html-keyboard-response",76,1972060,"0.0-13.0-2.11",97827,"ListA","woman","english",NA,NA,NA,"null",NA,NA,NA,NA,NA,NA
"20836.59999999404",NA,NA,"survey-text",77,1992898,"0.0-13.0-3.11",97827,"ListA","woman","english",NA,NA,NA,NA,"{""Q0"":""mike and dave is promsing""}","<img src='gifs/MaleRace4a.gif' style='height:400px;''></img>","promising","is promising","english",NA
"null","<div style=""font-size:60px;"">+</div>",NA,"html-keyboard-response",78,1993416,"0.0-13.0-0.12",97827,"ListA","woman","english",NA,NA,NA,"null",NA,NA,NA,NA,NA,NA
"null","<img src='gifs/MaleRace2a.gif' style='height:400px;''></img>",NA,"html-keyboard-response",79,1995429,"0.0-13.0-1.12",97827,"ListA","woman","english",NA,NA,NA,"null",NA,NA,NA,NA,NA,NA
"null","is introducing",NA,"html-keyboard-response",80,1998433,"0.0-13.0-2.12",97827,"ListA","woman","english",NA,NA,NA,"null",NA,NA,NA,NA,NA,NA
"12883.799999982119",NA,NA,"survey-text",81,2011318,"0.0-13.0-3.12",97827,"ListA","woman","english",NA,NA,NA,NA,"{""Q0"":""fred and dave is introducing""}","<img src='gifs/MaleRace2a.gif' style='height:400px;''></img>","introducing","is introducing","english",NA
"null","<div style=""font-size:60px;"">+</div>",NA,"html-keyboard-response",82,2011826,"0.0-13.0-0.13",97827,"ListA","woman","english",NA,NA,NA,"null",NA,NA,NA,NA,NA,NA
"null","<img src='gifs/BlackGender4b.gif' style='height:400px;''></img>",NA,"html-keyboard-response",83,2013827,"0.0-13.0-1.13",97827,"ListA","woman","english",NA,NA,NA,"null",NA,NA,NA,NA,NA,NA
"null","is touching",NA,"html-keyboard-response",84,2016832,"0.0-13.0-2.13",97827,"ListA","woman","english",NA,NA,NA,"null",NA,NA,NA,NA,NA,NA
"18274",NA,NA,"survey-text",85,2035093,"0.0-13.0-3.13",97827,"ListA","woman","english",NA,NA,NA,NA,"{""Q0"":""dave and jane is toching""}","<img src='gifs/BlackGender4b.gif' style='height:400px;''></img>","touching","is touching","english",NA
"null","<div style=""font-size:60px;"">+</div>",NA,"html-keyboard-response",86,2035599,"0.0-13.0-0.14",97827,"ListA","woman","english",NA,NA,NA,"null",NA,NA,NA,NA,NA,NA
"null","<img src='gifs/MaleRace3a.gif' style='height:400px;''></img>",NA,"html-keyboard-response",87,2037603,"0.0-13.0-1.14",97827,"ListA","woman","english",NA,NA,NA,"null",NA,NA,NA,NA,NA,NA
"null","is accompanying",NA,"html-keyboard-response",88,2040604,"0.0-13.0-2.14",97827,"ListA","woman","english",NA,NA,NA,"null",NA,NA,NA,NA,NA,NA
"23884.399999976158",NA,NA,"survey-text",89,2064490,"0.0-13.0-3.14",97827,"ListA","woman","english",NA,NA,NA,NA,"{""Q0"":""mike and luke is accompanying""}","<img src='gifs/MaleRace3a.gif' style='height:400px;''></img>","accompanying","is accompanying","english",NA
"null","<div style=""font-size:60px;"">+</div>",NA,"html-keyboard-response",90,2064996,"0.0-13.0-0.15",97827,"ListA","woman","english",NA,NA,NA,"null",NA,NA,NA,NA,NA,NA
"null","<img src='gifs/BlackGender3b.gif' style='height:400px;''></img>",NA,"html-keyboard-response",91,2067007,"0.0-13.0-1.15",97827,"ListA","woman","english",NA,NA,NA,"null",NA,NA,NA,NA,NA,NA
"null","is contacting",NA,"html-keyboard-response",92,2070011,"0.0-13.0-2.15",97827,"ListA","woman","english",NA,NA,NA,"null",NA,NA,NA,NA,NA,NA
"39915.90000000596",NA,NA,"survey-text",93,2109943,"0.0-13.0-3.15",97827,"ListA","woman","english",NA,NA,NA,NA,"{""Q0"":""ruth and luke is toching""}","<img src='gifs/BlackGender3b.gif' style='height:400px;''></img>","contacting","is contacting","english",NA
"null","<div style=""font-size:60px;"">+</div>",NA,"html-keyboard-response",94,2110453,"0.0-13.0-0.16",97827,"ListA","woman","english",NA,NA,NA,"null",NA,NA,NA,NA,NA,NA
"null","<img src='gifs/MaleRace2b.gif' style='height:400px;''></img>",NA,"html-keyboard-response",95,2112467,"0.0-13.0-1.16",97827,"ListA","woman","english",NA,NA,NA,"null",NA,NA,NA,NA,NA,NA
"null","is contacting",NA,"html-keyboard-response",96,2115468,"0.0-13.0-2.16",97827,"ListA","woman","english",NA,NA,NA,"null",NA,NA,NA,NA,NA,NA
"75042.40000000596",NA,NA,"survey-text",97,2190512,"0.0-13.0-3.16",97827,"ListA","woman","english",NA,NA,NA,NA,"{""Q0"":""fred and dave is contacting""}","<img src='gifs/MaleRace2b.gif' style='height:400px;''></img>","contacting","is contacting","english",NA
"null","<div style=""font-size:60px;"">+</div>",NA,"html-keyboard-response",98,2191028,"0.0-13.0-0.17",97827,"ListA","woman","english",NA,NA,NA,"null",NA,NA,NA,NA,NA,NA
"null","<img src='gifs/BlackGender4a.gif' style='height:400px;''></img>",NA,"html-keyboard-response",99,2193039,"0.0-13.0-1.17",97827,"ListA","woman","english",NA,NA,NA,"null",NA,NA,NA,NA,NA,NA
"null","is promising",NA,"html-keyboard-response",100,2196042,"0.0-13.0-2.17",97827,"ListA","woman","english",NA,NA,NA,"null",NA,NA,NA,NA,NA,NA
"9834.90000000596",NA,NA,"survey-text",101,2205878,"0.0-13.0-3.17",97827,"ListA","woman","english",NA,NA,NA,NA,"{""Q0"":""dave and jane is promising""}","<img src='gifs/BlackGender4a.gif' style='height:400px;''></img>","promising","is promising","english",NA
"16393.80000001192","<img src='img/portrait_matrix_listA.jpg' style='width:900px;height:500px;''></img><p>If you have memorised all the portraits and names and are ready to start, press Continue.</p><p><strong>Please note: Your memory of these faces will be tested 5 times during this experiment.</strong></p>",0,"html-button-response",102,2222273,"0.0-14.0-0.0",97827,"ListA","woman","english",NA,NA,NA,NA,NA,NA,NA,NA,NA,NA
"4344.200000017881","<img src=""portrait/WW2.jpg""style=""height:400px;""></img>",3,"html-button-response",103,2227633,"0.0-14.0-1.0",97827,"ListA","woman","english",NA,"true",3,NA,NA,NA,NA,NA,NA,NA
"null","CORRECT",NA,"html-keyboard-response",104,2229153,"0.0-14.0-2.0-0.0",97827,"ListA","woman","english",NA,NA,NA,"null",NA,NA,NA,NA,NA,NA
"9718.90000000596","<img src=""portrait/BW1.jpg""style=""height:400px;""></img>",0,"html-button-response",105,2238872,"0.0-14.0-4.0",97827,"ListA","woman","english",NA,"true",0,NA,NA,NA,NA,NA,NA,NA
"null","CORRECT",NA,"html-keyboard-response",106,2240405,"0.0-14.0-5.0-0.0",97827,"ListA","woman","english",NA,NA,NA,"null",NA,NA,NA,NA,NA,NA
"7296.4000000059605","<img src=""portrait/BM1.jpg""style=""height:400px;""></img>",4,"html-button-response",107,2247702,"0.0-14.0-7.0",97827,"ListA","woman","english",NA,"true",4,NA,NA,NA,NA,NA,NA,NA
"null","CORRECT",NA,"html-keyboard-response",108,2249214,"0.0-14.0-8.0-0.0",97827,"ListA","woman","english",NA,NA,NA,"null",NA,NA,NA,NA,NA,NA
"1412","<img src=""portrait/BM2.jpg""style=""height:400px;""></img>",5,"html-button-response",109,2250627,"0.0-14.0-10.0",97827,"ListA","woman","english",NA,"true",5,NA,NA,NA,NA,NA,NA,NA
"null","CORRECT",NA,"html-keyboard-response",110,2252148,"0.0-14.0-11.0-0.0",97827,"ListA","woman","english",NA,NA,NA,"null",NA,NA,NA,NA,NA,NA
"1417.800000011921","<img src=""portrait/BW2.jpg""style=""height:400px;""></img>",2,"html-button-response",111,2253567,"0.0-14.0-13.0",97827,"ListA","woman","english",NA,"true",2,NA,NA,NA,NA,NA,NA,NA
"null","CORRECT",NA,"html-keyboard-response",112,2255087,"0.0-14.0-14.0-0.0",97827,"ListA","woman","english",NA,NA,NA,"null",NA,NA,NA,NA,NA,NA
"2854.5","<img src=""portrait/WM1.jpg""style=""height:400px;""></img>",6,"html-button-response",113,2257943,"0.0-14.0-16.0",97827,"ListA","woman","english",NA,"true",6,NA,NA,NA,NA,NA,NA,NA
"null","CORRECT",NA,"html-keyboard-response",114,2259460,"0.0-14.0-17.0-0.0",97827,"ListA","woman","english",NA,NA,NA,"null",NA,NA,NA,NA,NA,NA
"7763.299999982119","<img src=""portrait/WW1.jpg""style=""height:400px;""></img>",1,"html-button-response",115,2267224,"0.0-14.0-19.0",97827,"ListA","woman","english",NA,"true",1,NA,NA,NA,NA,NA,NA,NA
"null","CORRECT",NA,"html-keyboard-response",116,2268734,"0.0-14.0-20.0-0.0",97827,"ListA","woman","english",NA,NA,NA,"null",NA,NA,NA,NA,NA,NA
"2021.300000011921","<img src=""portrait/WM2.jpg""style=""height:400px;""></img>",7,"html-button-response",117,2270756,"0.0-14.0-22.0",97827,"ListA","woman","english",NA,"true",7,NA,NA,NA,NA,NA,NA,NA
"null","CORRECT",NA,"html-keyboard-response",118,2272268,"0.0-14.0-23.0-0.0",97827,"ListA","woman","english",NA,NA,NA,"null",NA,NA,NA,NA,NA,NA
"449742.09999999404","<p>You got 8 out of 8 right first time. Press Continue.</p>",0,"html-button-response",119,2722011,"0.0-14.0-25.0",97827,"ListA","woman","english",NA,NA,NA,NA,NA,NA,NA,NA,NA,NA
"null","<div style=""font-size:60px;"">+</div>",NA,"html-keyboard-response",120,2723532,"0.0-15.0-0.0",97827,"ListA","woman","english",NA,NA,NA,"null",NA,NA,NA,NA,NA,NA
"null","<img src='gifs/MaleRace4b.gif' style='height:400px;''></img>",NA,"html-keyboard-response",121,2725536,"0.0-15.0-1.0",97827,"ListA","woman","english",NA,NA,NA,"null",NA,NA,NA,NA,NA,NA
"null","is contacting",NA,"html-keyboard-response",122,2728549,"0.0-15.0-2.0",97827,"ListA","woman","english",NA,NA,NA,"null",NA,NA,NA,NA,NA,NA
"10486.90000000596",NA,NA,"survey-text",123,2739037,"0.0-15.0-3.0",97827,"ListA","woman","english",NA,NA,NA,NA,"{""Q0"":""dave and mike is contacting""}","<img src='gifs/MaleRace4b.gif' style='height:400px;''></img>","contacting","is contacting","english",NA
"null","<div style=""font-size:60px;"">+</div>",NA,"html-keyboard-response",124,2739547,"0.0-15.0-0.1",97827,"ListA","woman","english",NA,NA,NA,"null",NA,NA,NA,NA,NA,NA
"null","<img src='gifs/MaleRace4a.gif' style='height:400px;''></img>",NA,"html-keyboard-response",125,2741553,"0.0-15.0-1.1",97827,"ListA","woman","english",NA,NA,NA,"null",NA,NA,NA,NA,NA,NA
"null","is facing",NA,"html-keyboard-response",126,2744563,"0.0-15.0-2.1",97827,"ListA","woman","english",NA,NA,NA,"null",NA,NA,NA,NA,NA,NA
"5651",NA,NA,"survey-text",127,2750215,"0.0-15.0-3.1",97827,"ListA","woman","english",NA,NA,NA,NA,"{""Q0"":""dave and mike is facing""}","<img src='gifs/MaleRace4a.gif' style='height:400px;''></img>","facing","is facing","english",NA
"null","<div style=""font-size:60px;"">+</div>",NA,"html-keyboard-response",128,2750720,"0.0-15.0-0.2",97827,"ListA","woman","english",NA,NA,NA,"null",NA,NA,NA,NA,NA,NA
"null","<img src='gifs/ChineseGender1b.gif' style='height:400px;''></img>",NA,"html-keyboard-response",129,2752722,"0.0-15.0-1.2",97827,"ListA","woman","english",NA,NA,NA,"null",NA,NA,NA,NA,NA,NA
"null","is contacting",NA,"html-keyboard-response",130,2755723,"0.0-15.0-2.2",97827,"ListA","woman","english",NA,NA,NA,"null",NA,NA,NA,NA,NA,NA
"6866",NA,NA,"survey-text",131,2762591,"0.0-15.0-3.2",97827,"ListA","woman","english",NA,NA,NA,NA,"{""Q0"":""kate and fred is facing""}","<img src='gifs/ChineseGender1b.gif' style='height:400px;''></img>","contacting","is contacting","english",NA
"null","<div style=""font-size:60px;"">+</div>",NA,"html-keyboard-response",132,2763099,"0.0-15.0-0.3",97827,"ListA","woman","english",NA,NA,NA,"null",NA,NA,NA,NA,NA,NA
"null","<img src='gifs/MaleRace1b.gif' style='height:400px;''></img>",NA,"html-keyboard-response",133,2765108,"0.0-15.0-1.3",97827,"ListA","woman","english",NA,NA,NA,"null",NA,NA,NA,NA,NA,NA
"null","is accompanying",NA,"html-keyboard-response",134,2768120,"0.0-15.0-2.3",97827,"ListA","woman","english",NA,NA,NA,"null",NA,NA,NA,NA,NA,NA
"23407.09999999404",NA,NA,"survey-text",135,2791529,"0.0-15.0-3.3",97827,"ListA","woman","english",NA,NA,NA,NA,"{""Q0"":""fred and luke is accompanying""}","<img src='gifs/MaleRace1b.gif' style='height:400px;''></img>","accompanying","is accompanying","english",NA
"null","<div style=""font-size:60px;"">+</div>",NA,"html-keyboard-response",136,2792030,"0.0-15.0-0.4",97827,"ListA","woman","english",NA,NA,NA,"null",NA,NA,NA,NA,NA,NA
"null","<img src='gifs/ChineseGender1a.gif' style='height:400px;''></img>",NA,"html-keyboard-response",137,2794040,"0.0-15.0-1.4",97827,"ListA","woman","english",NA,NA,NA,"null",NA,NA,NA,NA,NA,NA
"null","is praising",NA,"html-keyboard-response",138,2797051,"0.0-15.0-2.4",97827,"ListA","woman","english",NA,NA,NA,"null",NA,NA,NA,NA,NA,NA
"21642.30000001192",NA,NA,"survey-text",139,2818695,"0.0-15.0-3.4",97827,"ListA","woman","english",NA,NA,NA,NA,"{""Q0"":""kate and fred is praising""}","<img src='gifs/ChineseGender1a.gif' style='height:400px;''></img>","praising","is praising","english",NA
"null","<div style=""font-size:60px;"">+</div>",NA,"html-keyboard-response",140,2819197,"0.0-15.0-0.5",97827,"ListA","woman","english",NA,NA,NA,"null",NA,NA,NA,NA,NA,NA
"null","<img src='gifs/FemaleRace1b.gif' style='height:400px;''></img>",NA,"html-keyboard-response",141,2821206,"0.0-15.0-1.5",97827,"ListA","woman","english",NA,NA,NA,"null",NA,NA,NA,NA,NA,NA
"null","is joining",NA,"html-keyboard-response",142,2824207,"0.0-15.0-2.5",97827,"ListA","woman","english",NA,NA,NA,"null",NA,NA,NA,NA,NA,NA
"14766.59999999404",NA,NA,"survey-text",143,2838975,"0.0-15.0-3.5",97827,"ListA","woman","english",NA,NA,NA,NA,"{""Q0"":""kate and ruth is joining""}","<img src='gifs/FemaleRace1b.gif' style='height:400px;''></img>","join","is joining","english",NA
"null","<div style=""font-size:60px;"">+</div>",NA,"html-keyboard-response",144,2839482,"0.0-15.0-0.6",97827,"ListA","woman","english",NA,NA,NA,"null",NA,NA,NA,NA,NA,NA
"null","<img src='gifs/FemaleRace3b.gif' style='height:400px;''></img>",NA,"html-keyboard-response",145,2841498,"0.0-15.0-1.6",97827,"ListA","woman","english",NA,NA,NA,"null",NA,NA,NA,NA,NA,NA
"null","is walking towards",NA,"html-keyboard-response",146,2844499,"0.0-15.0-2.6",97827,"ListA","woman","english",NA,NA,NA,"null",NA,NA,NA,NA,NA,NA
"14590.59999999404",NA,NA,"survey-text",147,2859091,"0.0-15.0-3.6",97827,"ListA","woman","english",NA,NA,NA,NA,"{""Q0"":""kate and ruth s waling toward""}","<img src='gifs/FemaleRace3b.gif' style='height:400px;''></img>","walking towards","is walking towards","english",NA
"null","<div style=""font-size:60px;"">+</div>",NA,"html-keyboard-response",148,2859593,"0.0-15.0-0.7",97827,"ListA","woman","english",NA,NA,NA,"null",NA,NA,NA,NA,NA,NA
"null","<img src='gifs/BlackGender4b.gif' style='height:400px;''></img>",NA,"html-keyboard-response",149,2861609,"0.0-15.0-1.7",97827,"ListA","woman","english",NA,NA,NA,"null",NA,NA,NA,NA,NA,NA
"null","is touching",NA,"html-keyboard-response",150,2864622,"0.0-15.0-2.7",97827,"ListA","woman","english",NA,NA,NA,"null",NA,NA,NA,NA,NA,NA
"226792.5",NA,NA,"survey-text",151,3091415,"0.0-15.0-3.7",97827,"ListA","woman","english",NA,NA,NA,NA,"{""Q0"":""dave and jane is touching""}","<img src='gifs/BlackGender4b.gif' style='height:400px;''></img>","touching","is touching","english",NA
"null","<div style=""font-size:60px;"">+</div>",NA,"html-keyboard-response",152,3091919,"0.0-15.0-0.8",97827,"ListA","woman","english",NA,NA,NA,"null",NA,NA,NA,NA,NA,NA
"null","<img src='gifs/FemaleRace1a.gif' style='height:400px;''></img>",NA,"html-keyboard-response",153,3093921,"0.0-15.0-1.8",97827,"ListA","woman","english",NA,NA,NA,"null",NA,NA,NA,NA,NA,NA
"null","is looking at",NA,"html-keyboard-response",154,3096922,"0.0-15.0-2.8",97827,"ListA","woman","english",NA,NA,NA,"null",NA,NA,NA,NA,NA,NA
"9296.800000011921",NA,NA,"survey-text",155,3106220,"0.0-15.0-3.8",97827,"ListA","woman","english",NA,NA,NA,NA,"{""Q0"":""kate and ruth is looking at""}","<img src='gifs/FemaleRace1a.gif' style='height:400px;''></img>","looking at","is looking at","english",NA
"null","<div style=""font-size:60px;"">+</div>",NA,"html-keyboard-response",156,3106729,"0.0-15.0-0.9",97827,"ListA","woman","english",NA,NA,NA,"null",NA,NA,NA,NA,NA,NA
"null","<img src='gifs/BlackGender4a.gif' style='height:400px;''></img>",NA,"html-keyboard-response",157,3108742,"0.0-15.0-1.9",97827,"ListA","woman","english",NA,NA,NA,"null",NA,NA,NA,NA,NA,NA
"null","is praising",NA,"html-keyboard-response",158,3111744,"0.0-15.0-2.9",97827,"ListA","woman","english",NA,NA,NA,"null",NA,NA,NA,NA,NA,NA
"10413.600000023842",NA,NA,"survey-text",159,3122158,"0.0-15.0-3.9",97827,"ListA","woman","english",NA,NA,NA,NA,"{""Q0"":""dave and jane is praising""}","<img src='gifs/BlackGender4a.gif' style='height:400px;''></img>","praising","is praising","english",NA
"null","<div style=""font-size:60px;"">+</div>",NA,"html-keyboard-response",160,3122664,"0.0-15.0-0.10",97827,"ListA","woman","english",NA,NA,NA,"null",NA,NA,NA,NA,NA,NA
"null","<img src='gifs/MaleRace4b.gif' style='height:400px;''></img>",NA,"html-keyboard-response",161,3124666,"0.0-15.0-1.10",97827,"ListA","woman","english",NA,NA,NA,"null",NA,NA,NA,NA,NA,NA
"null","is mentioning",NA,"html-keyboard-response",162,3127669,"0.0-15.0-2.10",97827,"ListA","woman","english",NA,NA,NA,"null",NA,NA,NA,NA,NA,NA
"43051.90000000596",NA,NA,"survey-text",163,3170723,"0.0-15.0-3.10",97827,"ListA","woman","english",NA,NA,NA,NA,"{""Q0"":""mike and dave is mentioning ""}","<img src='gifs/MaleRace4b.gif' style='height:400px;''></img>","mention","is mentioning","english",NA
"null","<div style=""font-size:60px;"">+</div>",NA,"html-keyboard-response",164,3171225,"0.0-15.0-0.11",97827,"ListA","woman","english",NA,NA,NA,"null",NA,NA,NA,NA,NA,NA
"null","<img src='gifs/BlackGender2a.gif' style='height:400px;''></img>",NA,"html-keyboard-response",165,3173233,"0.0-15.0-1.11",97827,"ListA","woman","english",NA,NA,NA,"null",NA,NA,NA,NA,NA,NA
"null","is mentioning",NA,"html-keyboard-response",166,3176236,"0.0-15.0-2.11",97827,"ListA","woman","english",NA,NA,NA,"null",NA,NA,NA,NA,NA,NA
"8944.600000023842",NA,NA,"survey-text",167,3185182,"0.0-15.0-3.11",97827,"ListA","woman","english",NA,NA,NA,NA,"{""Q0"":""ruth and dave is mentioning""}","<img src='gifs/BlackGender2a.gif' style='height:400px;''></img>","mention","is mentioning","english",NA
"null","<div style=""font-size:60px;"">+</div>",NA,"html-keyboard-response",168,3185685,"0.0-15.0-0.12",97827,"ListA","woman","english",NA,NA,NA,"null",NA,NA,NA,NA,NA,NA
"null","<img src='gifs/FemaleRace2b.gif' style='height:400px;''></img>",NA,"html-keyboard-response",169,3187700,"0.0-15.0-1.12",97827,"ListA","woman","english",NA,NA,NA,"null",NA,NA,NA,NA,NA,NA
"null","is walking towards",NA,"html-keyboard-response",170,3190703,"0.0-15.0-2.12",97827,"ListA","woman","english",NA,NA,NA,"null",NA,NA,NA,NA,NA,NA
"16254.699999988079",NA,NA,"survey-text",171,3206959,"0.0-15.0-3.12",97827,"ListA","woman","english",NA,NA,NA,NA,"{""Q0"":""kate and jane is walking toward""}","<img src='gifs/FemaleRace2b.gif' style='height:400px;''></img>","walking towards","is walking towards","english",NA
"null","<div style=""font-size:60px;"">+</div>",NA,"html-keyboard-response",172,3207468,"0.0-15.0-0.13",97827,"ListA","woman","english",NA,NA,NA,"null",NA,NA,NA,NA,NA,NA
"null","<img src='gifs/BlackGender2a.gif' style='height:400px;''></img>",NA,"html-keyboard-response",173,3209482,"0.0-15.0-1.13",97827,"ListA","woman","english",NA,NA,NA,"null",NA,NA,NA,NA,NA,NA
"null","is listening to",NA,"html-keyboard-response",174,3212496,"0.0-15.0-2.13",97827,"ListA","woman","english",NA,NA,NA,"null",NA,NA,NA,NA,NA,NA
"51552.90000000596",NA,NA,"survey-text",175,3264044,"0.0-15.0-3.13",97827,"ListA","woman","english",NA,NA,NA,NA,"{""Q0"":""dave and ruth is listening to""}","<img src='gifs/BlackGender2a.gif' style='height:400px;''></img>","listening to","is listening to","english",NA
"null","<div style=""font-size:60px;"">+</div>",NA,"html-keyboard-response",176,3264545,"0.0-15.0-0.14",97827,"ListA","woman","english",NA,NA,NA,"null",NA,NA,NA,NA,NA,NA
"null","<img src='gifs/MaleRace3b.gif' style='height:400px;''></img>",NA,"html-keyboard-response",177,3266547,"0.0-15.0-1.14",97827,"ListA","woman","english",NA,NA,NA,"null",NA,NA,NA,NA,NA,NA
"null","is employing",NA,"html-keyboard-response",178,3269549,"0.0-15.0-2.14",97827,"ListA","woman","english",NA,NA,NA,"null",NA,NA,NA,NA,NA,NA
"21368.29999998212",NA,NA,"survey-text",179,3290925,"0.0-15.0-3.14",97827,"ListA","woman","english",NA,NA,NA,NA,"{""Q0"":""ruth and luke is employing""}","<img src='gifs/MaleRace3b.gif' style='height:400px;''></img>","employing","is employing","english",NA
"null","<div style=""font-size:60px;"">+</div>",NA,"html-keyboard-response",180,3291430,"0.0-15.0-0.15",97827,"ListA","woman","english",NA,NA,NA,"null",NA,NA,NA,NA,NA,NA
"null","<img src='gifs/ChineseGender4b.gif' style='height:400px;''></img>",NA,"html-keyboard-response",181,3293436,"0.0-15.0-1.15",97827,"ListA","woman","english",NA,NA,NA,"null",NA,NA,NA,NA,NA,NA
"null","is looking at",NA,"html-keyboard-response",182,3296446,"0.0-15.0-2.15",97827,"ListA","woman","english",NA,NA,NA,"null",NA,NA,NA,NA,NA,NA
"165163.69999998808",NA,NA,"survey-text",183,3461611,"0.0-15.0-3.15",97827,"ListA","woman","english",NA,NA,NA,NA,"{""Q0"":""kate and mike is looking at""}","<img src='gifs/ChineseGender4b.gif' style='height:400px;''></img>","looking at","is looking at","english",NA
"null","<div style=""font-size:60px;"">+</div>",NA,"html-keyboard-response",184,3462113,"0.0-15.0-0.16",97827,"ListA","woman","english",NA,NA,NA,"null",NA,NA,NA,NA,NA,NA
"null","<img src='gifs/BlackGender1a.gif' style='height:400px;''></img>",NA,"html-keyboard-response",185,3464128,"0.0-15.0-1.16",97827,"ListA","woman","english",NA,NA,NA,"null",NA,NA,NA,NA,NA,NA
"null","is employing",NA,"html-keyboard-response",186,3467134,"0.0-15.0-2.16",97827,"ListA","woman","english",NA,NA,NA,"null",NA,NA,NA,NA,NA,NA
"13135.799999982119",NA,NA,"survey-text",187,3480271,"0.0-15.0-3.16",97827,"ListA","woman","english",NA,NA,NA,NA,"{""Q0"":""ruth and luke is employing""}","<img src='gifs/BlackGender1a.gif' style='height:400px;''></img>","employing","is employing","english",NA
"null","<div style=""font-size:60px;"">+</div>",NA,"html-keyboard-response",188,3480772,"0.0-15.0-0.17",97827,"ListA","woman","english",NA,NA,NA,"null",NA,NA,NA,NA,NA,NA
"null","<img src='gifs/FemaleRace2a.gif' style='height:400px;''></img>",NA,"html-keyboard-response",189,3482783,"0.0-15.0-1.17",97827,"ListA","woman","english",NA,NA,NA,"null",NA,NA,NA,NA,NA,NA
"null","is convincing",NA,"html-keyboard-response",190,3485784,"0.0-15.0-2.17",97827,"ListA","woman","english",NA,NA,NA,"null",NA,NA,NA,NA,NA,NA
"10452.800000011921",NA,NA,"survey-text",191,3496238,"0.0-15.0-3.17",97827,"ListA","woman","english",NA,NA,NA,NA,"{""Q0"":""kate and jane is convcing""}","<img src='gifs/FemaleRace2a.gif' style='height:400px;''></img>","convincing","is convincing","english",NA
"5790.800000011921","<img src='img/portrait_matrix_listA.jpg' style='width:900px;height:500px;''></img><p>If you have memorised all the portraits and names and are ready to start, press Continue.</p><p><strong>Please note: Your memory of these faces will be tested 5 times during this experiment.</strong></p>",0,"html-button-response",192,3502030,"0.0-16.0-0.0",97827,"ListA","woman","english",NA,NA,NA,NA,NA,NA,NA,NA,NA,NA
"2555.699999988079","<img src=""portrait/WW2.jpg""style=""height:400px;""></img>",3,"html-button-response",193,3505587,"0.0-16.0-1.0",97827,"ListA","woman","english",NA,"true",3,NA,NA,NA,NA,NA,NA,NA
"null","CORRECT",NA,"html-keyboard-response",194,3507100,"0.0-16.0-2.0-0.0",97827,"ListA","woman","english",NA,NA,NA,"null",NA,NA,NA,NA,NA,NA
"2981.5","<img src=""portrait/WM2.jpg""style=""height:400px;""></img>",7,"html-button-response",195,3510082,"0.0-16.0-4.0",97827,"ListA","woman","english",NA,"true",7,NA,NA,NA,NA,NA,NA,NA
"null","CORRECT",NA,"html-keyboard-response",196,3511605,"0.0-16.0-5.0-0.0",97827,"ListA","woman","english",NA,NA,NA,"null",NA,NA,NA,NA,NA,NA
"2651.9000000059605","<img src=""portrait/BM2.jpg""style=""height:400px;""></img>",5,"html-button-response",197,3514258,"0.0-16.0-7.0",97827,"ListA","woman","english",NA,"true",5,NA,NA,NA,NA,NA,NA,NA
"null","CORRECT",NA,"html-keyboard-response",198,3515780,"0.0-16.0-8.0-0.0",97827,"ListA","woman","english",NA,NA,NA,"null",NA,NA,NA,NA,NA,NA
"2282.4000000059605","<img src=""portrait/WM1.jpg""style=""height:400px;""></img>",6,"html-button-response",199,3518064,"0.0-16.0-10.0",97827,"ListA","woman","english",NA,"true",6,NA,NA,NA,NA,NA,NA,NA
"null","CORRECT",NA,"html-keyboard-response",200,3519579,"0.0-16.0-11.0-0.0",97827,"ListA","woman","english",NA,NA,NA,"null",NA,NA,NA,NA,NA,NA
"2338.2000000178814","<img src=""portrait/BW1.jpg""style=""height:400px;""></img>",0,"html-button-response",201,3521918,"0.0-16.0-13.0",97827,"ListA","woman","english",NA,"true",0,NA,NA,NA,NA,NA,NA,NA
"null","CORRECT",NA,"html-keyboard-response",202,3523435,"0.0-16.0-14.0-0.0",97827,"ListA","woman","english",NA,NA,NA,"null",NA,NA,NA,NA,NA,NA
"1863.199999988079","<img src=""portrait/BM1.jpg""style=""height:400px;""></img>",4,"html-button-response",203,3525300,"0.0-16.0-16.0",97827,"ListA","woman","english",NA,"true",4,NA,NA,NA,NA,NA,NA,NA
"null","CORRECT",NA,"html-keyboard-response",204,3526816,"0.0-16.0-17.0-0.0",97827,"ListA","woman","english",NA,NA,NA,"null",NA,NA,NA,NA,NA,NA
"1868.2999999821186","<img src=""portrait/WW1.jpg""style=""height:400px;""></img>",1,"html-button-response",205,3528685,"0.0-16.0-19.0",97827,"ListA","woman","english",NA,"true",1,NA,NA,NA,NA,NA,NA,NA
"null","CORRECT",NA,"html-keyboard-response",206,3530200,"0.0-16.0-20.0-0.0",97827,"ListA","woman","english",NA,NA,NA,"null",NA,NA,NA,NA,NA,NA
"1526.5","<img src=""portrait/BW2.jpg""style=""height:400px;""></img>",2,"html-button-response",207,3531727,"0.0-16.0-22.0",97827,"ListA","woman","english",NA,"true",2,NA,NA,NA,NA,NA,NA,NA
"null","CORRECT",NA,"html-keyboard-response",208,3533234,"0.0-16.0-23.0-0.0",97827,"ListA","woman","english",NA,NA,NA,"null",NA,NA,NA,NA,NA,NA
"115907.09999999404","<p>You got 8 out of 8 right first time. Press Continue.</p>",0,"html-button-response",209,3649142,"0.0-16.0-25.0",97827,"ListA","woman","english",NA,NA,NA,NA,NA,NA,NA,NA,NA,NA
"null","<div style=""font-size:60px;"">+</div>",NA,"html-keyboard-response",210,3650665,"0.0-17.0-0.0",97827,"ListA","woman","english",NA,NA,NA,"null",NA,NA,NA,NA,NA,NA
"null","<img src='gifs/FemaleRace3a.gif' style='height:400px;''></img>",NA,"html-keyboard-response",211,3652678,"0.0-17.0-1.0",97827,"ListA","woman","english",NA,NA,NA,"null",NA,NA,NA,NA,NA,NA
"null","is introducing",NA,"html-keyboard-response",212,3655679,"0.0-17.0-2.0",97827,"ListA","woman","english",NA,NA,NA,"null",NA,NA,NA,NA,NA,NA
"8870.5",NA,NA,"survey-text",213,3664551,"0.0-17.0-3.0",97827,"ListA","woman","english",NA,NA,NA,NA,"{""Q0"":""beth and ruth is introducing""}","<img src='gifs/FemaleRace3a.gif' style='height:400px;''></img>","introducing","is introducing","english",NA
"null","<div style=""font-size:60px;"">+</div>",NA,"html-keyboard-response",214,3665058,"0.0-17.0-0.1",97827,"ListA","woman","english",NA,NA,NA,"null",NA,NA,NA,NA,NA,NA
"null","<img src='gifs/ChineseGender3a.gif' style='height:400px;''></img>",NA,"html-keyboard-response",215,3667065,"0.0-17.0-1.1",97827,"ListA","woman","english",NA,NA,NA,"null",NA,NA,NA,NA,NA,NA
"null","is joining",NA,"html-keyboard-response",216,3670066,"0.0-17.0-2.1",97827,"ListA","woman","english",NA,NA,NA,"null",NA,NA,NA,NA,NA,NA
"56124.09999999404",NA,NA,"survey-text",217,3726190,"0.0-17.0-3.1",97827,"ListA","woman","english",NA,NA,NA,NA,"{""Q0"":""beth and mike is joining""}","<img src='gifs/ChineseGender3a.gif' style='height:400px;''></img>","join","is joining","english",NA
"null","<div style=""font-size:60px;"">+</div>",NA,"html-keyboard-response",218,3726698,"0.0-17.0-0.2",97827,"ListA","woman","english",NA,NA,NA,"null",NA,NA,NA,NA,NA,NA
"null","<img src='gifs/ChineseGender4a.gif' style='height:400px;''></img>",NA,"html-keyboard-response",219,3728700,"0.0-17.0-1.2",97827,"ListA","woman","english",NA,NA,NA,"null",NA,NA,NA,NA,NA,NA
"null","is praising",NA,"html-keyboard-response",220,3731701,"0.0-17.0-2.2",97827,"ListA","woman","english",NA,NA,NA,"null",NA,NA,NA,NA,NA,NA
"10945.300000011921",NA,NA,"survey-text",221,3742647,"0.0-17.0-3.2",97827,"ListA","woman","english",NA,NA,NA,NA,"{""Q0"":""kate and mike ispraising""}","<img src='gifs/ChineseGender4a.gif' style='height:400px;''></img>","praising","is praising","english",NA
"null","<div style=""font-size:60px;"">+</div>",NA,"html-keyboard-response",222,3743148,"0.0-17.0-0.3",97827,"ListA","woman","english",NA,NA,NA,"null",NA,NA,NA,NA,NA,NA
"null","<img src='gifs/ChineseGender3b.gif' style='height:400px;''></img>",NA,"html-keyboard-response",223,3745159,"0.0-17.0-1.3",97827,"ListA","woman","english",NA,NA,NA,"null",NA,NA,NA,NA,NA,NA
"null","is listening to",NA,"html-keyboard-response",224,3748171,"0.0-17.0-2.3",97827,"ListA","woman","english",NA,NA,NA,"null",NA,NA,NA,NA,NA,NA
"8360.5",NA,NA,"survey-text",225,3756533,"0.0-17.0-3.3",97827,"ListA","woman","english",NA,NA,NA,NA,"{""Q0"":""mike and beth is listening to""}","<img src='gifs/ChineseGender3b.gif' style='height:400px;''></img>","listening to","is listening to","english",NA
"null","<div style=""font-size:60px;"">+</div>",NA,"html-keyboard-response",226,3757047,"0.0-17.0-0.4",97827,"ListA","woman","english",NA,NA,NA,"null",NA,NA,NA,NA,NA,NA
"null","<img src='gifs/BlackGender3b.gif' style='height:400px;''></img>",NA,"html-keyboard-response",227,3759059,"0.0-17.0-1.4",97827,"ListA","woman","english",NA,NA,NA,"null",NA,NA,NA,NA,NA,NA
"null","is touching",NA,"html-keyboard-response",228,3762068,"0.0-17.0-2.4",97827,"ListA","woman","english",NA,NA,NA,"null",NA,NA,NA,NA,NA,NA
"65514.59999999404",NA,NA,"survey-text",229,3827584,"0.0-17.0-3.4",97827,"ListA","woman","english",NA,NA,NA,NA,"{""Q0"":""jane and luke is touching""}","<img src='gifs/BlackGender3b.gif' style='height:400px;''></img>","touching","is touching","english",NA
"null","<div style=""font-size:60px;"">+</div>",NA,"html-keyboard-response",230,3828086,"0.0-17.0-0.5",97827,"ListA","woman","english",NA,NA,NA,"null",NA,NA,NA,NA,NA,NA
"null","<img src='gifs/MaleRace2b.gif' style='height:400px;''></img>",NA,"html-keyboard-response",231,3830094,"0.0-17.0-1.5",97827,"ListA","woman","english",NA,NA,NA,"null",NA,NA,NA,NA,NA,NA
"null","is employing",NA,"html-keyboard-response",232,3833097,"0.0-17.0-2.5",97827,"ListA","woman","english",NA,NA,NA,"null",NA,NA,NA,NA,NA,NA
"14275.699999988079",NA,NA,"survey-text",233,3847373,"0.0-17.0-3.5",97827,"ListA","woman","english",NA,NA,NA,NA,"{""Q0"":""dave and fred is employing""}","<img src='gifs/MaleRace2b.gif' style='height:400px;''></img>","employing","is employing","english",NA
"null","<div style=""font-size:60px;"">+</div>",NA,"html-keyboard-response",234,3847880,"0.0-17.0-0.6",97827,"ListA","woman","english",NA,NA,NA,"null",NA,NA,NA,NA,NA,NA
"null","<img src='gifs/FemaleRace4a.gif' style='height:400px;''></img>",NA,"html-keyboard-response",235,3849891,"0.0-17.0-1.6",97827,"ListA","woman","english",NA,NA,NA,"null",NA,NA,NA,NA,NA,NA
"null","is promising",NA,"html-keyboard-response",236,3852892,"0.0-17.0-2.6",97827,"ListA","woman","english",NA,NA,NA,"null",NA,NA,NA,NA,NA,NA
"39514.30000001192",NA,NA,"survey-text",237,3892408,"0.0-17.0-3.6",97827,"ListA","woman","english",NA,NA,NA,NA,"{""Q0"":""beth and jane is promising""}","<img src='gifs/FemaleRace4a.gif' style='height:400px;''></img>","promising","is promising","english",NA
"null","<div style=""font-size:60px;"">+</div>",NA,"html-keyboard-response",238,3892914,"0.0-17.0-0.7",97827,"ListA","woman","english",NA,NA,NA,"null",NA,NA,NA,NA,NA,NA
"null","<img src='gifs/MaleRace1b.gif' style='height:400px;''></img>",NA,"html-keyboard-response",239,3894925,"0.0-17.0-1.7",97827,"ListA","woman","english",NA,NA,NA,"null",NA,NA,NA,NA,NA,NA
"null","is walking towards",NA,"html-keyboard-response",240,3897927,"0.0-17.0-2.7",97827,"ListA","woman","english",NA,NA,NA,"null",NA,NA,NA,NA,NA,NA
"1656762.900000006",NA,NA,"survey-text",241,5554693,"0.0-17.0-3.7",97827,"ListA","woman","english",NA,NA,NA,NA,"{""Q0"":""fred and luke is walking toward""}","<img src='gifs/MaleRace1b.gif' style='height:400px;''></img>","walking towards","is walking towards","english",NA
"null","<div style=""font-size:60px;"">+</div>",NA,"html-keyboard-response",242,5555207,"0.0-17.0-0.8",97827,"ListA","woman","english",NA,NA,NA,"null",NA,NA,NA,NA,NA,NA
"null","<img src='gifs/FemaleRace4a.gif' style='height:400px;''></img>",NA,"html-keyboard-response",243,5557211,"0.0-17.0-1.8",97827,"ListA","woman","english",NA,NA,NA,"null",NA,NA,NA,NA,NA,NA
"null","is touching",NA,"html-keyboard-response",244,5560214,"0.0-17.0-2.8",97827,"ListA","woman","english",NA,NA,NA,"null",NA,NA,NA,NA,NA,NA
"7304.4000000059605",NA,NA,"survey-text",245,5567519,"0.0-17.0-3.8",97827,"ListA","woman","english",NA,NA,NA,NA,"{""Q0"":""beth and jane is touching""}","<img src='gifs/FemaleRace4a.gif' style='height:400px;''></img>","touching","is touching","english",NA
"null","<div style=""font-size:60px;"">+</div>",NA,"html-keyboard-response",246,5568028,"0.0-17.0-0.9",97827,"ListA","woman","english",NA,NA,NA,"null",NA,NA,NA,NA,NA,NA
"null","<img src='gifs/FemaleRace3b.gif' style='height:400px;''></img>",NA,"html-keyboard-response",247,5570044,"0.0-17.0-1.9",97827,"ListA","woman","english",NA,NA,NA,"null",NA,NA,NA,NA,NA,NA
"null","is approaching",NA,"html-keyboard-response",248,5573051,"0.0-17.0-2.9",97827,"ListA","woman","english",NA,NA,NA,"null",NA,NA,NA,NA,NA,NA
"177260.80000001192",NA,NA,"survey-text",249,5750313,"0.0-17.0-3.9",97827,"ListA","woman","english",NA,NA,NA,NA,"{""Q0"":""beth and ruth is approaching""}","<img src='gifs/FemaleRace3b.gif' style='height:400px;''></img>","approaching","is approaching","english",NA
"null","<div style=""font-size:60px;"">+</div>",NA,"html-keyboard-response",250,5750814,"0.0-17.0-0.10",97827,"ListA","woman","english",NA,NA,NA,"null",NA,NA,NA,NA,NA,NA
"null","<img src='gifs/BlackGender2b.gif' style='height:400px;''></img>",NA,"html-keyboard-response",251,5752828,"0.0-17.0-1.10",97827,"ListA","woman","english",NA,NA,NA,"null",NA,NA,NA,NA,NA,NA
"null","is facing",NA,"html-keyboard-response",252,5755828,"0.0-17.0-2.10",97827,"ListA","woman","english",NA,NA,NA,"null",NA,NA,NA,NA,NA,NA
"7027.4000000059605",NA,NA,"survey-text",253,5762857,"0.0-17.0-3.10",97827,"ListA","woman","english",NA,NA,NA,NA,"{""Q0"":""dave and ruth is facing""}","<img src='gifs/BlackGender2b.gif' style='height:400px;''></img>","facing","is facing","english",NA
"null","<div style=""font-size:60px;"">+</div>",NA,"html-keyboard-response",254,5763365,"0.0-17.0-0.11",97827,"ListA","woman","english",NA,NA,NA,"null",NA,NA,NA,NA,NA,NA
"null","<img src='gifs/BlackGender1a.gif' style='height:400px;''></img>",NA,"html-keyboard-response",255,5765372,"0.0-17.0-1.11",97827,"ListA","woman","english",NA,NA,NA,"null",NA,NA,NA,NA,NA,NA
"null","is following",NA,"html-keyboard-response",256,5768376,"0.0-17.0-2.11",97827,"ListA","woman","english",NA,NA,NA,"null",NA,NA,NA,NA,NA,NA
"8282.90000000596",NA,NA,"survey-text",257,5776661,"0.0-17.0-3.11",97827,"ListA","woman","english",NA,NA,NA,NA,"{""Q0"":""ruth and luke is following""}","<img src='gifs/BlackGender1a.gif' style='height:400px;''></img>","following","is following","english",NA
"null","<div style=""font-size:60px;"">+</div>",NA,"html-keyboard-response",258,5777175,"0.0-17.0-0.12",97827,"ListA","woman","english",NA,NA,NA,"null",NA,NA,NA,NA,NA,NA
"null","<img src='gifs/FemaleRace4b.gif' style='height:400px;''></img>",NA,"html-keyboard-response",259,5779188,"0.0-17.0-1.12",97827,"ListA","woman","english",NA,NA,NA,"null",NA,NA,NA,NA,NA,NA
"null","is following",NA,"html-keyboard-response",260,5782189,"0.0-17.0-2.12",97827,"ListA","woman","english",NA,NA,NA,"null",NA,NA,NA,NA,NA,NA
"7485.9000000059605",NA,NA,"survey-text",261,5789677,"0.0-17.0-3.12",97827,"ListA","woman","english",NA,NA,NA,NA,"{""Q0"":""beth and jane is following""}","<img src='gifs/FemaleRace4b.gif' style='height:400px;''></img>","following","is following","english",NA
"null","<div style=""font-size:60px;"">+</div>",NA,"html-keyboard-response",262,5790178,"0.0-17.0-0.13",97827,"ListA","woman","english",NA,NA,NA,"null",NA,NA,NA,NA,NA,NA
"null","<img src='gifs/ChineseGender2a.gif' style='height:400px;''></img>",NA,"html-keyboard-response",263,5792190,"0.0-17.0-1.13",97827,"ListA","woman","english",NA,NA,NA,"null",NA,NA,NA,NA,NA,NA
"null","is introducing",NA,"html-keyboard-response",264,5795204,"0.0-17.0-2.13",97827,"ListA","woman","english",NA,NA,NA,"null",NA,NA,NA,NA,NA,NA
"483135.3000000119",NA,NA,"survey-text",265,6278341,"0.0-17.0-3.13",97827,"ListA","woman","english",NA,NA,NA,NA,"{""Q0"":""beth and fred is introducing""}","<img src='gifs/ChineseGender2a.gif' style='height:400px;''></img>","introducing","is introducing","english",NA
"null","<div style=""font-size:60px;"">+</div>",NA,"html-keyboard-response",266,6278851,"0.0-17.0-0.14",97827,"ListA","woman","english",NA,NA,NA,"null",NA,NA,NA,NA,NA,NA
"null","<img src='gifs/MaleRace3b.gif' style='height:400px;''></img>",NA,"html-keyboard-response",267,6280854,"0.0-17.0-1.14",97827,"ListA","woman","english",NA,NA,NA,"null",NA,NA,NA,NA,NA,NA
"null","is walking towards",NA,"html-keyboard-response",268,6283856,"0.0-17.0-2.14",97827,"ListA","woman","english",NA,NA,NA,"null",NA,NA,NA,NA,NA,NA
"10365.799999982119",NA,NA,"survey-text",269,6294223,"0.0-17.0-3.14",97827,"ListA","woman","english",NA,NA,NA,NA,"{""Q0"":""mike and luke is walking toward""}","<img src='gifs/MaleRace3b.gif' style='height:400px;''></img>","walking towards","is walking towards","english",NA
"null","<div style=""font-size:60px;"">+</div>",NA,"html-keyboard-response",270,6294735,"0.0-17.0-0.15",97827,"ListA","woman","english",NA,NA,NA,"null",NA,NA,NA,NA,NA,NA
"null","<img src='gifs/FemaleRace3a.gif' style='height:400px;''></img>",NA,"html-keyboard-response",271,6296751,"0.0-17.0-1.15",97827,"ListA","woman","english",NA,NA,NA,"null",NA,NA,NA,NA,NA,NA
"null","is praising",NA,"html-keyboard-response",272,6299765,"0.0-17.0-2.15",97827,"ListA","woman","english",NA,NA,NA,"null",NA,NA,NA,NA,NA,NA
"1667953.5",NA,NA,"survey-text",273,7967720,"0.0-17.0-3.15",97827,"ListA","woman","english",NA,NA,NA,NA,"{""Q0"":""beth and ruth is praising""}","<img src='gifs/FemaleRace3a.gif' style='height:400px;''></img>","praising","is praising","english",NA
"null","<div style=""font-size:60px;"">+</div>",NA,"html-keyboard-response",274,7968229,"0.0-17.0-0.16",97827,"ListA","woman","english",NA,NA,NA,"null",NA,NA,NA,NA,NA,NA
"null","<img src='gifs/ChineseGender1a.gif' style='height:400px;''></img>",NA,"html-keyboard-response",275,7970231,"0.0-17.0-1.16",97827,"ListA","woman","english",NA,NA,NA,"null",NA,NA,NA,NA,NA,NA
"null","is looking at",NA,"html-keyboard-response",276,7973233,"0.0-17.0-2.16",97827,"ListA","woman","english",NA,NA,NA,"null",NA,NA,NA,NA,NA,NA
"11130.699999988079",NA,NA,"survey-text",277,7984366,"0.0-17.0-3.16",97827,"ListA","woman","english",NA,NA,NA,NA,"{""Q0"":""kate and fred is looking at""}","<img src='gifs/ChineseGender1a.gif' style='height:400px;''></img>","looking at","is looking at","english",NA
"null","<div style=""font-size:60px;"">+</div>",NA,"html-keyboard-response",278,7984879,"0.0-17.0-0.17",97827,"ListA","woman","english",NA,NA,NA,"null",NA,NA,NA,NA,NA,NA
"null","<img src='gifs/BlackGender1b.gif' style='height:400px;''></img>",NA,"html-keyboard-response",279,7986880,"0.0-17.0-1.17",97827,"ListA","woman","english",NA,NA,NA,"null",NA,NA,NA,NA,NA,NA
"null","is following",NA,"html-keyboard-response",280,7989882,"0.0-17.0-2.17",97827,"ListA","woman","english",NA,NA,NA,"null",NA,NA,NA,NA,NA,NA
"308869",NA,NA,"survey-text",281,8298752,"0.0-17.0-3.17",97827,"ListA","woman","english",NA,NA,NA,NA,"{""Q0"":""luck and ruth is following""}","<img src='gifs/BlackGender1b.gif' style='height:400px;''></img>","following","is following","english",NA
"2812.2999999821186","<p>Thank you for completing that task.</p><p>The final part of this session is a short questionnaire.</p><p>Press Continue.</p>",0,"html-button-response",282,8301566,"0.0-18.0",97827,"ListA","woman","english",NA,NA,NA,NA,NA,NA,NA,NA,NA,NA
"26726.5",NA,NA,"survey-text",283,8329308,"0.0-19.0",97827,"ListA","woman","english",NA,NA,NA,NA,"{""Q0"":""21"",""Q1"":""chinese"",""Q2"":""chinese"",""Q3"":""British"",""Q4"":""china"",""Q5"":"""",""Q6"":""""}",NA,NA,NA,NA,"demographics"
"14891.799999982119",NA,NA,"external-html",284,8344321,"0.0-20.0",97827,"ListA","woman","english","debrief.html",NA,NA,NA,NA,NA,NA,NA,NA,NA
"11356.40000000596",NA,NA,"survey-text",285,8355679,"0.0-21.0",97827,"ListA","woman","english",NA,NA,NA,NA,"{""Q0"":""SW_E_F_A1""}",NA,NA,NA,NA,"worker_id"
