"rt","stimulus","button_pressed","trial_type","trial_index","time_elapsed","internal_node_id","subject","list","ppt_gender","ppt_language","url","first_guess","correct","key_press","responses","image","verb","phrase","condition","test_part"
"1902.1000000000931","Welcome to the experiment. Press Continue to begin.",0,"html-button-response",0,1904,"0.0-0.0",99175,"ListA","woman","english",NA,NA,NA,NA,NA,NA,NA,NA,NA,NA
"10291.799999999814",NA,NA,"external-html",1,13223,"0.0-1.0",99175,"ListA","woman","english","consent.html",NA,NA,NA,NA,NA,NA,NA,NA,NA
"2070.899999999907","<p>On the next page, you will see portraits of 8 people and their names.</p><p>Your first task is to take a few minutes to memorise the names of these people.</p><p>You will have to recall their names during the rest of the experiment, so it is</p><p>essential that you try to memorise these people and their names as best as you can.</p><p><strong>You will then be tested on your memory of these names and portraits.</strong></p><p>The experiment will start after you have completed this memory test.</p><p>Ready?</p>",0,"html-button-response",2,15295,"0.0-2.0",99175,"ListA","woman","english",NA,NA,NA,NA,NA,NA,NA,NA,NA,NA
"159817.3999999999","<img src='img/portrait_matrix_listA.jpg' style='width:900px;height:500px;''></img><p>If you have memorised all the portraits and names and are ready to start, press Continue.</p><p><strong>Please note: Your memory of these faces will be tested 5 times during this experiment.</strong></p>",0,"html-button-response",3,172951,"0.0-3.0-0.0",99175,"ListA","woman","english",NA,NA,NA,NA,NA,NA,NA,NA,NA,NA
"3684.8000000000466","<img src=""portrait/BM2.jpg""style=""height:400px;""></img>",5,"html-button-response",4,177647,"0.0-3.0-1.0",99175,"ListA","woman","english",NA,"true",5,NA,NA,NA,NA,NA,NA,NA
"null","CORRECT",NA,"html-keyboard-response",5,179152,"0.0-3.0-2.0-0.0",99175,"ListA","woman","english",NA,NA,NA,"null",NA,NA,NA,NA,NA,NA
"3452.5","<img src=""portrait/BW1.jpg""style=""height:400px;""></img>",2,"html-button-response",6,182607,"0.0-3.0-4.0",99175,"ListA","woman","english",NA,"true",0,NA,NA,NA,NA,NA,NA,NA
"10318.09999999986","<img src=""portrait/BW1.jpg""style=""height:400px;""></img>",0,"html-button-response",7,193935,"0.0-3.0-6.0-0.0",99175,"ListA","woman","english",NA,"false",0,NA,NA,NA,NA,NA,NA,NA
"null","CORRECT",NA,"html-keyboard-response",8,195459,"0.0-3.0-6.0-1.0-0.0",99175,"ListA","woman","english",NA,NA,NA,"null",NA,NA,NA,NA,NA,NA
"13673.5","<img src=""portrait/WW1.jpg""style=""height:400px;""></img>",3,"html-button-response",9,209135,"0.0-3.0-7.0",99175,"ListA","woman","english",NA,"true",1,NA,NA,NA,NA,NA,NA,NA
"2150.899999999907","<img src=""portrait/WW1.jpg""style=""height:400px;""></img>",1,"html-button-response",10,212303,"0.0-3.0-9.0-0.0",99175,"ListA","woman","english",NA,"false",1,NA,NA,NA,NA,NA,NA,NA
"null","CORRECT",NA,"html-keyboard-response",11,213810,"0.0-3.0-9.0-1.0-0.0",99175,"ListA","woman","english",NA,NA,NA,"null",NA,NA,NA,NA,NA,NA
"3594.899999999907","<img src=""portrait/WM2.jpg""style=""height:400px;""></img>",7,"html-button-response",12,217407,"0.0-3.0-10.0",99175,"ListA","woman","english",NA,"true",7,NA,NA,NA,NA,NA,NA,NA
"null","CORRECT",NA,"html-keyboard-response",13,218925,"0.0-3.0-11.0-0.0",99175,"ListA","woman","english",NA,NA,NA,"null",NA,NA,NA,NA,NA,NA
"11265.299999999814","<img src=""portrait/BM1.jpg""style=""height:400px;""></img>",4,"html-button-response",14,230191,"0.0-3.0-13.0",99175,"ListA","woman","english",NA,"true",4,NA,NA,NA,NA,NA,NA,NA
"null","CORRECT",NA,"html-keyboard-response",15,230401,"0.0-3.0-14.0-0.0",99175,"ListA","woman","english",NA,NA,NA,"null",NA,NA,NA,NA,NA,NA
"2552.0999999998603","<img src=""portrait/BW2.jpg""style=""height:400px;""></img>",2,"html-button-response",16,232955,"0.0-3.0-16.0",99175,"ListA","woman","english",NA,"true",2,NA,NA,NA,NA,NA,NA,NA
"null","CORRECT",NA,"html-keyboard-response",17,234476,"0.0-3.0-17.0-0.0",99175,"ListA","woman","english",NA,NA,NA,"null",NA,NA,NA,NA,NA,NA
"1996.6000000000931","<img src=""portrait/WM1.jpg""style=""height:400px;""></img>",6,"html-button-response",18,236475,"0.0-3.0-19.0",99175,"ListA","woman","english",NA,"true",6,NA,NA,NA,NA,NA,NA,NA
"null","CORRECT",NA,"html-keyboard-response",19,237986,"0.0-3.0-20.0-0.0",99175,"ListA","woman","english",NA,NA,NA,"null",NA,NA,NA,NA,NA,NA
"37382.19999999995","<img src=""portrait/WW2.jpg""style=""height:400px;""></img>",3,"html-button-response",20,275371,"0.0-3.0-22.0",99175,"ListA","woman","english",NA,"true",3,NA,NA,NA,NA,NA,NA,NA
"null","CORRECT",NA,"html-keyboard-response",21,276876,"0.0-3.0-23.0-0.0",99175,"ListA","woman","english",NA,NA,NA,"null",NA,NA,NA,NA,NA,NA
"2995.100000000093","<p>You got 6 out of 8 right first time. Press Continue.</p>",0,"html-button-response",22,279875,"0.0-3.0-25.0",99175,"ListA","woman","english",NA,NA,NA,NA,NA,NA,NA,NA,NA,NA
"2752.600000000093","As you did not score 100%, the memory game will repeat. Press Continue.",0,"html-button-response",23,283635,"0.0-3.0-26.0-0.0",99175,"ListA","woman","english",NA,NA,NA,NA,NA,NA,NA,NA,NA,NA
"12701.699999999953","<img src='img/portrait_matrix_listA.jpg' style='width:900px;height:500px;''></img><p>If you have memorised all the portraits and names and are ready to start, press Continue.</p><p><strong>Please note: Your memory of these faces will be tested 5 times during this experiment.</strong></p>",0,"html-button-response",24,296024,"0.0-3.1-0.1",99175,"ListA","woman","english",NA,NA,NA,NA,NA,NA,NA,NA,NA,NA
"4590.199999999953","<img src=""portrait/BM2.jpg""style=""height:400px;""></img>",5,"html-button-response",25,301616,"0.0-3.1-1.1",99175,"ListA","woman","english",NA,"true",5,NA,NA,NA,NA,NA,NA,NA
"null","CORRECT",NA,"html-keyboard-response",26,303133,"0.0-3.1-2.1-0.1",99175,"ListA","woman","english",NA,NA,NA,"null",NA,NA,NA,NA,NA,NA
"3810.4000000001397","<img src=""portrait/BW1.jpg""style=""height:400px;""></img>",0,"html-button-response",27,306944,"0.0-3.1-4.1",99175,"ListA","woman","english",NA,"true",0,NA,NA,NA,NA,NA,NA,NA
"null","CORRECT",NA,"html-keyboard-response",28,308450,"0.0-3.1-5.1-0.1",99175,"ListA","woman","english",NA,NA,NA,"null",NA,NA,NA,NA,NA,NA
"2138.5","<img src=""portrait/WW1.jpg""style=""height:400px;""></img>",1,"html-button-response",29,310592,"0.0-3.1-7.1",99175,"ListA","woman","english",NA,"true",1,NA,NA,NA,NA,NA,NA,NA
"null","CORRECT",NA,"html-keyboard-response",30,312124,"0.0-3.1-8.1-0.1",99175,"ListA","woman","english",NA,NA,NA,"null",NA,NA,NA,NA,NA,NA
"7850.699999999953","<img src=""portrait/WM2.jpg""style=""height:400px;""></img>",4,"html-button-response",31,319976,"0.0-3.1-10.1",99175,"ListA","woman","english",NA,"true",7,NA,NA,NA,NA,NA,NA,NA
"1757.5","<img src=""portrait/WM2.jpg""style=""height:400px;""></img>",7,"html-button-response",32,322752,"0.0-3.1-12.1-0.1",99175,"ListA","woman","english",NA,"false",7,NA,NA,NA,NA,NA,NA,NA
"null","CORRECT",NA,"html-keyboard-response",33,324270,"0.0-3.1-12.1-1.1-0.1",99175,"ListA","woman","english",NA,NA,NA,"null",NA,NA,NA,NA,NA,NA
"8840.59999999986","<img src=""portrait/BM1.jpg""style=""height:400px;""></img>",4,"html-button-response",34,333112,"0.0-3.1-13.1",99175,"ListA","woman","english",NA,"true",4,NA,NA,NA,NA,NA,NA,NA
"null","CORRECT",NA,"html-keyboard-response",35,334639,"0.0-3.1-14.1-0.1",99175,"ListA","woman","english",NA,NA,NA,"null",NA,NA,NA,NA,NA,NA
"1671.2999999998137","<img src=""portrait/BW2.jpg""style=""height:400px;""></img>",2,"html-button-response",36,336312,"0.0-3.1-16.1",99175,"ListA","woman","english",NA,"true",2,NA,NA,NA,NA,NA,NA,NA
"null","CORRECT",NA,"html-keyboard-response",37,337845,"0.0-3.1-17.1-0.1",99175,"ListA","woman","english",NA,NA,NA,"null",NA,NA,NA,NA,NA,NA
"1418.0999999998603","<img src=""portrait/WM1.jpg""style=""height:400px;""></img>",6,"html-button-response",38,339264,"0.0-3.1-19.1",99175,"ListA","woman","english",NA,"true",6,NA,NA,NA,NA,NA,NA,NA
"null","CORRECT",NA,"html-keyboard-response",39,340781,"0.0-3.1-20.1-0.1",99175,"ListA","woman","english",NA,NA,NA,"null",NA,NA,NA,NA,NA,NA
"1977.9000000001397","<img src=""portrait/WW2.jpg""style=""height:400px;""></img>",3,"html-button-response",40,342760,"0.0-3.1-22.1",99175,"ListA","woman","english",NA,"true",3,NA,NA,NA,NA,NA,NA,NA
"null","CORRECT",NA,"html-keyboard-response",41,344273,"0.0-3.1-23.1-0.1",99175,"ListA","woman","english",NA,NA,NA,"null",NA,NA,NA,NA,NA,NA
"1548.5","<p>You got 7 out of 8 right first time. Press Continue.</p>",0,"html-button-response",42,345824,"0.0-3.1-25.1",99175,"ListA","woman","english",NA,NA,NA,NA,NA,NA,NA,NA,NA,NA
"864.4000000001397","As you did not score 100%, the memory game will repeat. Press Continue.",0,"html-button-response",43,347696,"0.0-3.1-26.1-0.1",99175,"ListA","woman","english",NA,NA,NA,NA,NA,NA,NA,NA,NA,NA
"7926.699999999953","<img src='img/portrait_matrix_listA.jpg' style='width:900px;height:500px;''></img><p>If you have memorised all the portraits and names and are ready to start, press Continue.</p><p><strong>Please note: Your memory of these faces will be tested 5 times during this experiment.</strong></p>",0,"html-button-response",44,355896,"0.0-3.2-0.2",99175,"ListA","woman","english",NA,NA,NA,NA,NA,NA,NA,NA,NA,NA
"1475.6999999999534","<img src=""portrait/BM2.jpg""style=""height:400px;""></img>",5,"html-button-response",45,358376,"0.0-3.2-1.2",99175,"ListA","woman","english",NA,"true",5,NA,NA,NA,NA,NA,NA,NA
"null","CORRECT",NA,"html-keyboard-response",46,359904,"0.0-3.2-2.2-0.2",99175,"ListA","woman","english",NA,NA,NA,"null",NA,NA,NA,NA,NA,NA
"2687.1999999999534","<img src=""portrait/BW1.jpg""style=""height:400px;""></img>",0,"html-button-response",47,362592,"0.0-3.2-4.2",99175,"ListA","woman","english",NA,"true",0,NA,NA,NA,NA,NA,NA,NA
"null","CORRECT",NA,"html-keyboard-response",48,364114,"0.0-3.2-5.2-0.2",99175,"ListA","woman","english",NA,NA,NA,"null",NA,NA,NA,NA,NA,NA
"2141","<img src=""portrait/WW1.jpg""style=""height:400px;""></img>",1,"html-button-response",49,366256,"0.0-3.2-7.2",99175,"ListA","woman","english",NA,"true",1,NA,NA,NA,NA,NA,NA,NA
"null","CORRECT",NA,"html-keyboard-response",50,367774,"0.0-3.2-8.2-0.2",99175,"ListA","woman","english",NA,NA,NA,"null",NA,NA,NA,NA,NA,NA
"2712.9000000001397","<img src=""portrait/WM2.jpg""style=""height:400px;""></img>",7,"html-button-response",51,370488,"0.0-3.2-10.2",99175,"ListA","woman","english",NA,"true",7,NA,NA,NA,NA,NA,NA,NA
"null","CORRECT",NA,"html-keyboard-response",52,372015,"0.0-3.2-11.2-0.2",99175,"ListA","woman","english",NA,NA,NA,"null",NA,NA,NA,NA,NA,NA
"12510.600000000093","<img src=""portrait/BM1.jpg""style=""height:400px;""></img>",4,"html-button-response",53,384528,"0.0-3.2-13.2",99175,"ListA","woman","english",NA,"true",4,NA,NA,NA,NA,NA,NA,NA
"null","CORRECT",NA,"html-keyboard-response",54,386037,"0.0-3.2-14.2-0.2",99175,"ListA","woman","english",NA,NA,NA,"null",NA,NA,NA,NA,NA,NA
"1506.6999999999534","<img src=""portrait/BW2.jpg""style=""height:400px;""></img>",2,"html-button-response",55,387544,"0.0-3.2-16.2",99175,"ListA","woman","english",NA,"true",2,NA,NA,NA,NA,NA,NA,NA
"null","CORRECT",NA,"html-keyboard-response",56,389058,"0.0-3.2-17.2-0.2",99175,"ListA","woman","english",NA,NA,NA,"null",NA,NA,NA,NA,NA,NA
"1910","<img src=""portrait/WM1.jpg""style=""height:400px;""></img>",6,"html-button-response",57,390968,"0.0-3.2-19.2",99175,"ListA","woman","english",NA,"true",6,NA,NA,NA,NA,NA,NA,NA
"null","CORRECT",NA,"html-keyboard-response",58,392498,"0.0-3.2-20.2-0.2",99175,"ListA","woman","english",NA,NA,NA,"null",NA,NA,NA,NA,NA,NA
"1612.3999999999069","<img src=""portrait/WW2.jpg""style=""height:400px;""></img>",3,"html-button-response",59,394112,"0.0-3.2-22.2",99175,"ListA","woman","english",NA,"true",3,NA,NA,NA,NA,NA,NA,NA
"null","CORRECT",NA,"html-keyboard-response",60,395618,"0.0-3.2-23.2-0.2",99175,"ListA","woman","english",NA,NA,NA,"null",NA,NA,NA,NA,NA,NA
"1509.1000000000931","<p>You got 8 out of 8 right first time. Press Continue.</p>",0,"html-button-response",61,397128,"0.0-3.2-25.2",99175,"ListA","woman","english",NA,NA,NA,NA,NA,NA,NA,NA,NA,NA
"40291.40000000014","<p>In this experiment, you will view photographs of the people from the memory game.</p><p>By using the <strong>exact</strong> phrase given <i>after</i> the photograph appears and recalling the correct names of the people in the photographs, form a sentence describing an interaction. You do not need to capitalise names.</p><p>Type your answer in the space provided. Please complete every sentence before moving onto the next trial.</p><p>You will only have a few seconds to memorise each given photograph and phrase before you can respond, so try your best to focus.</p><p>An example is given below. Press 'Continue' when you are ready.</p><img src='img/speaking_example.jpg' style='width:800px;height:460px;''></img>",0,"html-button-response",62,438427,"0.0-4.0",99175,"ListA","woman","english",NA,NA,NA,NA,NA,NA,NA,NA,NA,NA
"2845.5999999998603","<p>Before the experiment starts, you will watch two example trials. Press 'Continue'.</p>",0,"html-button-response",63,442275,"0.0-5.0",99175,"ListA","woman","english",NA,NA,NA,NA,NA,NA,NA,NA,NA,NA
"null","<img src='img/meet.gif' style='height:400px;''></img>",NA,"html-keyboard-response",64,445302,"0.0-6.0",99175,"ListA","woman","english",NA,NA,NA,"null",NA,NA,NA,NA,NA,NA
"null","<p>is meeting</p>",NA,"html-keyboard-response",65,447310,"0.0-7.0",99175,"ListA","woman","english",NA,NA,NA,"null",NA,NA,NA,NA,NA,NA
"2380","<p><b>Answer:</b> kate is meeting beth</p>",0,"html-button-response",66,449691,"0.0-8.0",99175,"ListA","woman","english",NA,NA,NA,NA,NA,NA,NA,NA,NA,NA
"null","<img src='img/spy.gif' style='height:400px;''></img>",NA,"html-keyboard-response",67,452698,"0.0-9.0",99175,"ListA","woman","english",NA,NA,NA,"null",NA,NA,NA,NA,NA,NA
"null","<p>is being spied on by</p>",NA,"html-keyboard-response",68,454703,"0.0-10.0",99175,"ListA","woman","english",NA,NA,NA,"null",NA,NA,NA,NA,NA,NA
"4402.59999999986","<p><b>Answer:</b> luke is being spied on by dave</p>",0,"html-button-response",69,459107,"0.0-11.0",99175,"ListA","woman","english",NA,NA,NA,NA,NA,NA,NA,NA,NA,NA
"2403.5","<p>Ready to start the experiment?</p><br><p><strong>Remember to describe the picture using a full sentence,</strong></p><p><strong>that combines the names of the people with the <i>exact</i> phrase given.</strong></p><p><strong>To receive full payment you must do this correctly.</strong></p><p><strong> You do not need to capitalise names or use punctuation.</strong></p><br><p>Press 'Continue' to begin.</p>",0,"html-button-response",70,462523,"0.0-12.0",99175,"ListA","woman","english",NA,NA,NA,NA,NA,NA,NA,NA,NA,NA
"null","<div style=""font-size:60px;"">+</div>",NA,"html-keyboard-response",71,464034,"0.0-13.0-0.0",99175,"ListA","woman","english",NA,NA,NA,"null",NA,NA,NA,NA,NA,NA
"null","<img src='gifs/BlackGender3a.gif' style='height:400px;''></img>",NA,"html-keyboard-response",72,466039,"0.0-13.0-1.0",99175,"ListA","woman","english",NA,NA,NA,"null",NA,NA,NA,NA,NA,NA
"null","is approaching",NA,"html-keyboard-response",73,469045,"0.0-13.0-2.0",99175,"ListA","woman","english",NA,NA,NA,"null",NA,NA,NA,NA,NA,NA
"15457.600000000093",NA,NA,"survey-text",74,484510,"0.0-13.0-3.0",99175,"ListA","woman","english",NA,NA,NA,NA,"{""Q0"":""is approching""}","<img src='gifs/BlackGender3a.gif' style='height:400px;''></img>","approaching","is approaching","english",NA
"null","<div style=""font-size:60px;"">+</div>",NA,"html-keyboard-response",75,485033,"0.0-13.0-0.1",99175,"ListA","woman","english",NA,NA,NA,"null",NA,NA,NA,NA,NA,NA
"null","<img src='gifs/BlackGender4a.gif' style='height:400px;''></img>",NA,"html-keyboard-response",76,487034,"0.0-13.0-1.1",99175,"ListA","woman","english",NA,NA,NA,"null",NA,NA,NA,NA,NA,NA
"null","is mentioning",NA,"html-keyboard-response",77,490037,"0.0-13.0-2.1",99175,"ListA","woman","english",NA,NA,NA,"null",NA,NA,NA,NA,NA,NA
"9982.899999999907",NA,NA,"survey-text",78,500022,"0.0-13.0-3.1",99175,"ListA","woman","english",NA,NA,NA,NA,"{""Q0"":""is mentioning""}","<img src='gifs/BlackGender4a.gif' style='height:400px;''></img>","mention","is mentioning","english",NA
"null","<div style=""font-size:60px;"">+</div>",NA,"html-keyboard-response",79,500534,"0.0-13.0-0.2",99175,"ListA","woman","english",NA,NA,NA,"null",NA,NA,NA,NA,NA,NA
"null","<img src='gifs/ChineseGender3a.gif' style='height:400px;''></img>",NA,"html-keyboard-response",80,502539,"0.0-13.0-1.2",99175,"ListA","woman","english",NA,NA,NA,"null",NA,NA,NA,NA,NA,NA
"null","is walking towards",NA,"html-keyboard-response",81,505546,"0.0-13.0-2.2",99175,"ListA","woman","english",NA,NA,NA,"null",NA,NA,NA,NA,NA,NA
"18481.59999999986",NA,NA,"survey-text",82,524030,"0.0-13.0-3.2",99175,"ListA","woman","english",NA,NA,NA,NA,"{""Q0"":""is walking around""}","<img src='gifs/ChineseGender3a.gif' style='height:400px;''></img>","walking towards","is walking towards","english",NA
"null","<div style=""font-size:60px;"">+</div>",NA,"html-keyboard-response",83,524536,"0.0-13.0-0.3",99175,"ListA","woman","english",NA,NA,NA,"null",NA,NA,NA,NA,NA,NA
"null","<img src='gifs/FemaleRace2a.gif' style='height:400px;''></img>",NA,"html-keyboard-response",84,526549,"0.0-13.0-1.3",99175,"ListA","woman","english",NA,NA,NA,"null",NA,NA,NA,NA,NA,NA
"null","is facing",NA,"html-keyboard-response",85,529545,"0.0-13.0-2.3",99175,"ListA","woman","english",NA,NA,NA,"null",NA,NA,NA,NA,NA,NA
"5126.800000000047",NA,NA,"survey-text",86,534674,"0.0-13.0-3.3",99175,"ListA","woman","english",NA,NA,NA,NA,"{""Q0"":""is facing""}","<img src='gifs/FemaleRace2a.gif' style='height:400px;''></img>","facing","is facing","english",NA
"null","<div style=""font-size:60px;"">+</div>",NA,"html-keyboard-response",87,535181,"0.0-13.0-0.4",99175,"ListA","woman","english",NA,NA,NA,"null",NA,NA,NA,NA,NA,NA
"null","<img src='gifs/BlackGender1a.gif' style='height:400px;''></img>",NA,"html-keyboard-response",88,537186,"0.0-13.0-1.4",99175,"ListA","woman","english",NA,NA,NA,"null",NA,NA,NA,NA,NA,NA
"null","is employing",NA,"html-keyboard-response",89,540200,"0.0-13.0-2.4",99175,"ListA","woman","english",NA,NA,NA,"null",NA,NA,NA,NA,NA,NA
"7655.5",NA,NA,"survey-text",90,547858,"0.0-13.0-3.4",99175,"ListA","woman","english",NA,NA,NA,NA,"{""Q0"":""is employing""}","<img src='gifs/BlackGender1a.gif' style='height:400px;''></img>","employing","is employing","english",NA
"null","<div style=""font-size:60px;"">+</div>",NA,"html-keyboard-response",91,548364,"0.0-13.0-0.5",99175,"ListA","woman","english",NA,NA,NA,"null",NA,NA,NA,NA,NA,NA
"null","<img src='gifs/BlackGender1a.gif' style='height:400px;''></img>",NA,"html-keyboard-response",92,550381,"0.0-13.0-1.5",99175,"ListA","woman","english",NA,NA,NA,"null",NA,NA,NA,NA,NA,NA
"null","is touching",NA,"html-keyboard-response",93,553383,"0.0-13.0-2.5",99175,"ListA","woman","english",NA,NA,NA,"null",NA,NA,NA,NA,NA,NA
"6263.90000000014",NA,NA,"survey-text",94,559650,"0.0-13.0-3.5",99175,"ListA","woman","english",NA,NA,NA,NA,"{""Q0"":""is touching""}","<img src='gifs/BlackGender1a.gif' style='height:400px;''></img>","touching","is touching","english",NA
"null","<div style=""font-size:60px;"">+</div>",NA,"html-keyboard-response",95,560151,"0.0-13.0-0.6",99175,"ListA","woman","english",NA,NA,NA,"null",NA,NA,NA,NA,NA,NA
"null","<img src='gifs/BlackGender2b.gif' style='height:400px;''></img>",NA,"html-keyboard-response",96,562163,"0.0-13.0-1.6",99175,"ListA","woman","english",NA,NA,NA,"null",NA,NA,NA,NA,NA,NA
"null","is looking at",NA,"html-keyboard-response",97,565171,"0.0-13.0-2.6",99175,"ListA","woman","english",NA,NA,NA,"null",NA,NA,NA,NA,NA,NA
"5388.799999999814",NA,NA,"survey-text",98,570562,"0.0-13.0-3.6",99175,"ListA","woman","english",NA,NA,NA,NA,"{""Q0"":""is looking at""}","<img src='gifs/BlackGender2b.gif' style='height:400px;''></img>","looking at","is looking at","english",NA
"null","<div style=""font-size:60px;"">+</div>",NA,"html-keyboard-response",99,571069,"0.0-13.0-0.7",99175,"ListA","woman","english",NA,NA,NA,"null",NA,NA,NA,NA,NA,NA
"null","<img src='gifs/ChineseGender2a.gif' style='height:400px;''></img>",NA,"html-keyboard-response",100,573074,"0.0-13.0-1.7",99175,"ListA","woman","english",NA,NA,NA,"null",NA,NA,NA,NA,NA,NA
"null","is contacting",NA,"html-keyboard-response",101,576082,"0.0-13.0-2.7",99175,"ListA","woman","english",NA,NA,NA,"null",NA,NA,NA,NA,NA,NA
"6237.700000000186",NA,NA,"survey-text",102,582322,"0.0-13.0-3.7",99175,"ListA","woman","english",NA,NA,NA,NA,"{""Q0"":""is contacting""}","<img src='gifs/ChineseGender2a.gif' style='height:400px;''></img>","contacting","is contacting","english",NA
"null","<div style=""font-size:60px;"">+</div>",NA,"html-keyboard-response",103,582828,"0.0-13.0-0.8",99175,"ListA","woman","english",NA,NA,NA,"null",NA,NA,NA,NA,NA,NA
"null","<img src='gifs/ChineseGender3b.gif' style='height:400px;''></img>",NA,"html-keyboard-response",104,584833,"0.0-13.0-1.8",99175,"ListA","woman","english",NA,NA,NA,"null",NA,NA,NA,NA,NA,NA
"null","is walking towards",NA,"html-keyboard-response",105,587849,"0.0-13.0-2.8",99175,"ListA","woman","english",NA,NA,NA,"null",NA,NA,NA,NA,NA,NA
"8774.59999999986",NA,NA,"survey-text",106,596620,"0.0-13.0-3.8",99175,"ListA","woman","english",NA,NA,NA,NA,"{""Q0"":""is walking towards""}","<img src='gifs/ChineseGender3b.gif' style='height:400px;''></img>","walking towards","is walking towards","english",NA
"null","<div style=""font-size:60px;"">+</div>",NA,"html-keyboard-response",107,597132,"0.0-13.0-0.9",99175,"ListA","woman","english",NA,NA,NA,"null",NA,NA,NA,NA,NA,NA
"null","<img src='gifs/BlackGender4a.gif' style='height:400px;''></img>",NA,"html-keyboard-response",108,599147,"0.0-13.0-1.9",99175,"ListA","woman","english",NA,NA,NA,"null",NA,NA,NA,NA,NA,NA
"null","is walking towards",NA,"html-keyboard-response",109,602149,"0.0-13.0-2.9",99175,"ListA","woman","english",NA,NA,NA,"null",NA,NA,NA,NA,NA,NA
"11355.799999999814",NA,NA,"survey-text",110,613508,"0.0-13.0-3.9",99175,"ListA","woman","english",NA,NA,NA,NA,"{""Q0"":""is working towards""}","<img src='gifs/BlackGender4a.gif' style='height:400px;''></img>","walking towards","is walking towards","english",NA
"null","<div style=""font-size:60px;"">+</div>",NA,"html-keyboard-response",111,614020,"0.0-13.0-0.10",99175,"ListA","woman","english",NA,NA,NA,"null",NA,NA,NA,NA,NA,NA
"null","<img src='gifs/MaleRace3a.gif' style='height:400px;''></img>",NA,"html-keyboard-response",112,616027,"0.0-13.0-1.10",99175,"ListA","woman","english",NA,NA,NA,"null",NA,NA,NA,NA,NA,NA
"null","is employing",NA,"html-keyboard-response",113,619038,"0.0-13.0-2.10",99175,"ListA","woman","english",NA,NA,NA,"null",NA,NA,NA,NA,NA,NA
"6469.199999999953",NA,NA,"survey-text",114,625508,"0.0-13.0-3.10",99175,"ListA","woman","english",NA,NA,NA,NA,"{""Q0"":""is employing""}","<img src='gifs/MaleRace3a.gif' style='height:400px;''></img>","employing","is employing","english",NA
"null","<div style=""font-size:60px;"">+</div>",NA,"html-keyboard-response",115,626012,"0.0-13.0-0.11",99175,"ListA","woman","english",NA,NA,NA,"null",NA,NA,NA,NA,NA,NA
"null","<img src='gifs/ChineseGender3a.gif' style='height:400px;''></img>",NA,"html-keyboard-response",116,628021,"0.0-13.0-1.11",99175,"ListA","woman","english",NA,NA,NA,"null",NA,NA,NA,NA,NA,NA
"null","is accompanying",NA,"html-keyboard-response",117,631023,"0.0-13.0-2.11",99175,"ListA","woman","english",NA,NA,NA,"null",NA,NA,NA,NA,NA,NA
"17009",NA,NA,"survey-text",118,648036,"0.0-13.0-3.11",99175,"ListA","woman","english",NA,NA,NA,NA,"{""Q0"":""is accmopanying""}","<img src='gifs/ChineseGender3a.gif' style='height:400px;''></img>","accompanying","is accompanying","english",NA
"null","<div style=""font-size:60px;"">+</div>",NA,"html-keyboard-response",119,648540,"0.0-13.0-0.12",99175,"ListA","woman","english",NA,NA,NA,"null",NA,NA,NA,NA,NA,NA
"null","<img src='gifs/FemaleRace4b.gif' style='height:400px;''></img>",NA,"html-keyboard-response",120,650541,"0.0-13.0-1.12",99175,"ListA","woman","english",NA,NA,NA,"null",NA,NA,NA,NA,NA,NA
"null","is looking at",NA,"html-keyboard-response",121,653553,"0.0-13.0-2.12",99175,"ListA","woman","english",NA,NA,NA,"null",NA,NA,NA,NA,NA,NA
"6234.5",NA,NA,"survey-text",122,659792,"0.0-13.0-3.12",99175,"ListA","woman","english",NA,NA,NA,NA,"{""Q0"":""is looking at""}","<img src='gifs/FemaleRace4b.gif' style='height:400px;''></img>","looking at","is looking at","english",NA
"null","<div style=""font-size:60px;"">+</div>",NA,"html-keyboard-response",123,660298,"0.0-13.0-0.13",99175,"ListA","woman","english",NA,NA,NA,"null",NA,NA,NA,NA,NA,NA
"null","<img src='gifs/FemaleRace3b.gif' style='height:400px;''></img>",NA,"html-keyboard-response",124,662321,"0.0-13.0-1.13",99175,"ListA","woman","english",NA,NA,NA,"null",NA,NA,NA,NA,NA,NA
"null","is introducing",NA,"html-keyboard-response",125,665331,"0.0-13.0-2.13",99175,"ListA","woman","english",NA,NA,NA,"null",NA,NA,NA,NA,NA,NA
"6743.799999999814",NA,NA,"survey-text",126,672080,"0.0-13.0-3.13",99175,"ListA","woman","english",NA,NA,NA,NA,"{""Q0"":""is introducing""}","<img src='gifs/FemaleRace3b.gif' style='height:400px;''></img>","introducing","is introducing","english",NA
"null","<div style=""font-size:60px;"">+</div>",NA,"html-keyboard-response",127,672584,"0.0-13.0-0.14",99175,"ListA","woman","english",NA,NA,NA,"null",NA,NA,NA,NA,NA,NA
"null","<img src='gifs/MaleRace2b.gif' style='height:400px;''></img>",NA,"html-keyboard-response",128,674591,"0.0-13.0-1.14",99175,"ListA","woman","english",NA,NA,NA,"null",NA,NA,NA,NA,NA,NA
"null","is introducing",NA,"html-keyboard-response",129,677603,"0.0-13.0-2.14",99175,"ListA","woman","english",NA,NA,NA,"null",NA,NA,NA,NA,NA,NA
"5408.199999999953",NA,NA,"survey-text",130,683016,"0.0-13.0-3.14",99175,"ListA","woman","english",NA,NA,NA,NA,"{""Q0"":""is introducing""}","<img src='gifs/MaleRace2b.gif' style='height:400px;''></img>","introducing","is introducing","english",NA
"null","<div style=""font-size:60px;"">+</div>",NA,"html-keyboard-response",131,683522,"0.0-13.0-0.15",99175,"ListA","woman","english",NA,NA,NA,"null",NA,NA,NA,NA,NA,NA
"null","<img src='gifs/ChineseGender2a.gif' style='height:400px;''></img>",NA,"html-keyboard-response",132,685527,"0.0-13.0-1.15",99175,"ListA","woman","english",NA,NA,NA,"null",NA,NA,NA,NA,NA,NA
"null","is contacting",NA,"html-keyboard-response",133,688539,"0.0-13.0-2.15",99175,"ListA","woman","english",NA,NA,NA,"null",NA,NA,NA,NA,NA,NA
"8401.100000000093",NA,NA,"survey-text",134,696943,"0.0-13.0-3.15",99175,"ListA","woman","english",NA,NA,NA,NA,"{""Q0"":""is contacting""}","<img src='gifs/ChineseGender2a.gif' style='height:400px;''></img>","contacting","is contacting","english",NA
"null","<div style=""font-size:60px;"">+</div>",NA,"html-keyboard-response",135,697462,"0.0-13.0-0.16",99175,"ListA","woman","english",NA,NA,NA,"null",NA,NA,NA,NA,NA,NA
"null","<img src='gifs/ChineseGender1b.gif' style='height:400px;''></img>",NA,"html-keyboard-response",136,699468,"0.0-13.0-1.16",99175,"ListA","woman","english",NA,NA,NA,"null",NA,NA,NA,NA,NA,NA
"null","is mentioning",NA,"html-keyboard-response",137,702475,"0.0-13.0-2.16",99175,"ListA","woman","english",NA,NA,NA,"null",NA,NA,NA,NA,NA,NA
"5626.300000000047",NA,NA,"survey-text",138,708104,"0.0-13.0-3.16",99175,"ListA","woman","english",NA,NA,NA,NA,"{""Q0"":""is mentioning""}","<img src='gifs/ChineseGender1b.gif' style='height:400px;''></img>","mention","is mentioning","english",NA
"null","<div style=""font-size:60px;"">+</div>",NA,"html-keyboard-response",139,708612,"0.0-13.0-0.17",99175,"ListA","woman","english",NA,NA,NA,"null",NA,NA,NA,NA,NA,NA
"null","<img src='gifs/BlackGender2b.gif' style='height:400px;''></img>",NA,"html-keyboard-response",140,710616,"0.0-13.0-1.17",99175,"ListA","woman","english",NA,NA,NA,"null",NA,NA,NA,NA,NA,NA
"null","is praising",NA,"html-keyboard-response",141,713625,"0.0-13.0-2.17",99175,"ListA","woman","english",NA,NA,NA,"null",NA,NA,NA,NA,NA,NA
"18533.100000000093",NA,NA,"survey-text",142,732163,"0.0-13.0-3.17",99175,"ListA","woman","english",NA,NA,NA,NA,"{""Q0"":""is praising""}","<img src='gifs/BlackGender2b.gif' style='height:400px;''></img>","praising","is praising","english",NA
"15174.199999999953","<img src='img/portrait_matrix_listA.jpg' style='width:900px;height:500px;''></img><p>If you have memorised all the portraits and names and are ready to start, press Continue.</p><p><strong>Please note: Your memory of these faces will be tested 5 times during this experiment.</strong></p>",0,"html-button-response",143,747338,"0.0-14.0-0.0",99175,"ListA","woman","english",NA,NA,NA,NA,NA,NA,NA,NA,NA,NA
"2771.3000000000466","<img src=""portrait/WW2.jpg""style=""height:400px;""></img>",3,"html-button-response",144,751122,"0.0-14.0-1.0",99175,"ListA","woman","english",NA,"true",3,NA,NA,NA,NA,NA,NA,NA
"null","CORRECT",NA,"html-keyboard-response",145,752641,"0.0-14.0-2.0-0.0",99175,"ListA","woman","english",NA,NA,NA,"null",NA,NA,NA,NA,NA,NA
"2008.5","<img src=""portrait/BM1.jpg""style=""height:400px;""></img>",4,"html-button-response",146,754650,"0.0-14.0-4.0",99175,"ListA","woman","english",NA,"true",4,NA,NA,NA,NA,NA,NA,NA
"null","CORRECT",NA,"html-keyboard-response",147,756188,"0.0-14.0-5.0-0.0",99175,"ListA","woman","english",NA,NA,NA,"null",NA,NA,NA,NA,NA,NA
"5300","<img src=""portrait/BW1.jpg""style=""height:400px;""></img>",0,"html-button-response",148,761490,"0.0-14.0-7.0",99175,"ListA","woman","english",NA,"true",0,NA,NA,NA,NA,NA,NA,NA
"null","CORRECT",NA,"html-keyboard-response",149,762992,"0.0-14.0-8.0-0.0",99175,"ListA","woman","english",NA,NA,NA,"null",NA,NA,NA,NA,NA,NA
"1416","<img src=""portrait/WM2.jpg""style=""height:400px;""></img>",7,"html-button-response",150,764410,"0.0-14.0-10.0",99175,"ListA","woman","english",NA,"true",7,NA,NA,NA,NA,NA,NA,NA
"null","CORRECT",NA,"html-keyboard-response",151,765933,"0.0-14.0-11.0-0.0",99175,"ListA","woman","english",NA,NA,NA,"null",NA,NA,NA,NA,NA,NA
"1363.5","<img src=""portrait/BM2.jpg""style=""height:400px;""></img>",5,"html-button-response",152,767298,"0.0-14.0-13.0",99175,"ListA","woman","english",NA,"true",5,NA,NA,NA,NA,NA,NA,NA
"null","CORRECT",NA,"html-keyboard-response",153,768825,"0.0-14.0-14.0-0.0",99175,"ListA","woman","english",NA,NA,NA,"null",NA,NA,NA,NA,NA,NA
"1679.8999999999069","<img src=""portrait/BW2.jpg""style=""height:400px;""></img>",2,"html-button-response",154,770506,"0.0-14.0-16.0",99175,"ListA","woman","english",NA,"true",2,NA,NA,NA,NA,NA,NA,NA
"null","CORRECT",NA,"html-keyboard-response",155,772014,"0.0-14.0-17.0-0.0",99175,"ListA","woman","english",NA,NA,NA,"null",NA,NA,NA,NA,NA,NA
"2180.9000000001397","<img src=""portrait/WW1.jpg""style=""height:400px;""></img>",1,"html-button-response",156,774197,"0.0-14.0-19.0",99175,"ListA","woman","english",NA,"true",1,NA,NA,NA,NA,NA,NA,NA
"null","CORRECT",NA,"html-keyboard-response",157,775711,"0.0-14.0-20.0-0.0",99175,"ListA","woman","english",NA,NA,NA,"null",NA,NA,NA,NA,NA,NA
"1605.6999999999534","<img src=""portrait/WM1.jpg""style=""height:400px;""></img>",6,"html-button-response",158,777317,"0.0-14.0-22.0",99175,"ListA","woman","english",NA,"true",6,NA,NA,NA,NA,NA,NA,NA
"null","CORRECT",NA,"html-keyboard-response",159,778821,"0.0-14.0-23.0-0.0",99175,"ListA","woman","english",NA,NA,NA,"null",NA,NA,NA,NA,NA,NA
"1438.3000000000466","<p>You got 8 out of 8 right first time. Press Continue.</p>",0,"html-button-response",160,780261,"0.0-14.0-25.0",99175,"ListA","woman","english",NA,NA,NA,NA,NA,NA,NA,NA,NA,NA
"null","<div style=""font-size:60px;"">+</div>",NA,"html-keyboard-response",161,781784,"0.0-15.0-0.0",99175,"ListA","woman","english",NA,NA,NA,"null",NA,NA,NA,NA,NA,NA
"null","<img src='gifs/MaleRace4b.gif' style='height:400px;''></img>",NA,"html-keyboard-response",162,783789,"0.0-15.0-1.0",99175,"ListA","woman","english",NA,NA,NA,"null",NA,NA,NA,NA,NA,NA
"null","is convincing",NA,"html-keyboard-response",163,786794,"0.0-15.0-2.0",99175,"ListA","woman","english",NA,NA,NA,"null",NA,NA,NA,NA,NA,NA
"11649.90000000014",NA,NA,"survey-text",164,798446,"0.0-15.0-3.0",99175,"ListA","woman","english",NA,NA,NA,NA,"{""Q0"":""is convcing""}","<img src='gifs/MaleRace4b.gif' style='height:400px;''></img>","convincing","is convincing","english",NA
"null","<div style=""font-size:60px;"">+</div>",NA,"html-keyboard-response",165,798949,"0.0-15.0-0.1",99175,"ListA","woman","english",NA,NA,NA,"null",NA,NA,NA,NA,NA,NA
"null","<img src='gifs/BlackGender3a.gif' style='height:400px;''></img>",NA,"html-keyboard-response",166,800954,"0.0-15.0-1.1",99175,"ListA","woman","english",NA,NA,NA,"null",NA,NA,NA,NA,NA,NA
"null","is joining",NA,"html-keyboard-response",167,803956,"0.0-15.0-2.1",99175,"ListA","woman","english",NA,NA,NA,"null",NA,NA,NA,NA,NA,NA
"4592.699999999953",NA,NA,"survey-text",168,808550,"0.0-15.0-3.1",99175,"ListA","woman","english",NA,NA,NA,NA,"{""Q0"":""is joining""}","<img src='gifs/BlackGender3a.gif' style='height:400px;''></img>","join","is joining","english",NA
"null","<div style=""font-size:60px;"">+</div>",NA,"html-keyboard-response",169,809062,"0.0-15.0-0.2",99175,"ListA","woman","english",NA,NA,NA,"null",NA,NA,NA,NA,NA,NA
"null","<img src='gifs/MaleRace2b.gif' style='height:400px;''></img>",NA,"html-keyboard-response",170,811070,"0.0-15.0-1.2",99175,"ListA","woman","english",NA,NA,NA,"null",NA,NA,NA,NA,NA,NA
"null","is accompanying",NA,"html-keyboard-response",171,814083,"0.0-15.0-2.2",99175,"ListA","woman","english",NA,NA,NA,"null",NA,NA,NA,NA,NA,NA
"19663.299999999814",NA,NA,"survey-text",172,833745,"0.0-15.0-3.2",99175,"ListA","woman","english",NA,NA,NA,NA,"{""Q0"":""is accompying""}","<img src='gifs/MaleRace2b.gif' style='height:400px;''></img>","accompanying","is accompanying","english",NA
"null","<div style=""font-size:60px;"">+</div>",NA,"html-keyboard-response",173,834246,"0.0-15.0-0.3",99175,"ListA","woman","english",NA,NA,NA,"null",NA,NA,NA,NA,NA,NA
"null","<img src='gifs/FemaleRace4a.gif' style='height:400px;''></img>",NA,"html-keyboard-response",174,836258,"0.0-15.0-1.3",99175,"ListA","woman","english",NA,NA,NA,"null",NA,NA,NA,NA,NA,NA
"null","is following",NA,"html-keyboard-response",175,839264,"0.0-15.0-2.3",99175,"ListA","woman","english",NA,NA,NA,"null",NA,NA,NA,NA,NA,NA
"6114.90000000014",NA,NA,"survey-text",176,845385,"0.0-15.0-3.3",99175,"ListA","woman","english",NA,NA,NA,NA,"{""Q0"":""is following""}","<img src='gifs/FemaleRace4a.gif' style='height:400px;''></img>","following","is following","english",NA
"null","<div style=""font-size:60px;"">+</div>",NA,"html-keyboard-response",177,845907,"0.0-15.0-0.4",99175,"ListA","woman","english",NA,NA,NA,"null",NA,NA,NA,NA,NA,NA
"null","<img src='gifs/ChineseGender1b.gif' style='height:400px;''></img>",NA,"html-keyboard-response",178,847915,"0.0-15.0-1.4",99175,"ListA","woman","english",NA,NA,NA,"null",NA,NA,NA,NA,NA,NA
"null","is promising",NA,"html-keyboard-response",179,850916,"0.0-15.0-2.4",99175,"ListA","woman","english",NA,NA,NA,"null",NA,NA,NA,NA,NA,NA
"4643",NA,NA,"survey-text",180,855561,"0.0-15.0-3.4",99175,"ListA","woman","english",NA,NA,NA,NA,"{""Q0"":""is promising""}","<img src='gifs/ChineseGender1b.gif' style='height:400px;''></img>","promising","is promising","english",NA
"null","<div style=""font-size:60px;"">+</div>",NA,"html-keyboard-response",181,856073,"0.0-15.0-0.5",99175,"ListA","woman","english",NA,NA,NA,"null",NA,NA,NA,NA,NA,NA
"null","<img src='gifs/FemaleRace3a.gif' style='height:400px;''></img>",NA,"html-keyboard-response",182,858081,"0.0-15.0-1.5",99175,"ListA","woman","english",NA,NA,NA,"null",NA,NA,NA,NA,NA,NA
"null","is accompanying",NA,"html-keyboard-response",183,861082,"0.0-15.0-2.5",99175,"ListA","woman","english",NA,NA,NA,"null",NA,NA,NA,NA,NA,NA
"14530.399999999907",NA,NA,"survey-text",184,875617,"0.0-15.0-3.5",99175,"ListA","woman","english",NA,NA,NA,NA,"{""Q0"":""is accomapying""}","<img src='gifs/FemaleRace3a.gif' style='height:400px;''></img>","accompanying","is accompanying","english",NA
"null","<div style=""font-size:60px;"">+</div>",NA,"html-keyboard-response",185,876121,"0.0-15.0-0.6",99175,"ListA","woman","english",NA,NA,NA,"null",NA,NA,NA,NA,NA,NA
"null","<img src='gifs/MaleRace2a.gif' style='height:400px;''></img>",NA,"html-keyboard-response",186,878128,"0.0-15.0-1.6",99175,"ListA","woman","english",NA,NA,NA,"null",NA,NA,NA,NA,NA,NA
"null","is praising",NA,"html-keyboard-response",187,881129,"0.0-15.0-2.6",99175,"ListA","woman","english",NA,NA,NA,"null",NA,NA,NA,NA,NA,NA
"5741.699999999953",NA,NA,"survey-text",188,886873,"0.0-15.0-3.6",99175,"ListA","woman","english",NA,NA,NA,NA,"{""Q0"":""is praising""}","<img src='gifs/MaleRace2a.gif' style='height:400px;''></img>","praising","is praising","english",NA
"null","<div style=""font-size:60px;"">+</div>",NA,"html-keyboard-response",189,887379,"0.0-15.0-0.7",99175,"ListA","woman","english",NA,NA,NA,"null",NA,NA,NA,NA,NA,NA
"null","<img src='gifs/MaleRace1b.gif' style='height:400px;''></img>",NA,"html-keyboard-response",190,889387,"0.0-15.0-1.7",99175,"ListA","woman","english",NA,NA,NA,"null",NA,NA,NA,NA,NA,NA
"null","is joining",NA,"html-keyboard-response",191,892389,"0.0-15.0-2.7",99175,"ListA","woman","english",NA,NA,NA,"null",NA,NA,NA,NA,NA,NA
"4743.300000000047",NA,NA,"survey-text",192,897132,"0.0-15.0-3.7",99175,"ListA","woman","english",NA,NA,NA,NA,"{""Q0"":""is joining""}","<img src='gifs/MaleRace1b.gif' style='height:400px;''></img>","join","is joining","english",NA
"null","<div style=""font-size:60px;"">+</div>",NA,"html-keyboard-response",193,897642,"0.0-15.0-0.8",99175,"ListA","woman","english",NA,NA,NA,"null",NA,NA,NA,NA,NA,NA
"null","<img src='gifs/BlackGender2a.gif' style='height:400px;''></img>",NA,"html-keyboard-response",194,899651,"0.0-15.0-1.8",99175,"ListA","woman","english",NA,NA,NA,"null",NA,NA,NA,NA,NA,NA
"null","is convincing",NA,"html-keyboard-response",195,902663,"0.0-15.0-2.8",99175,"ListA","woman","english",NA,NA,NA,"null",NA,NA,NA,NA,NA,NA
"7256.699999999953",NA,NA,"survey-text",196,909924,"0.0-15.0-3.8",99175,"ListA","woman","english",NA,NA,NA,NA,"{""Q0"":""is conving""}","<img src='gifs/BlackGender2a.gif' style='height:400px;''></img>","convincing","is convincing","english",NA
"null","<div style=""font-size:60px;"">+</div>",NA,"html-keyboard-response",197,910436,"0.0-15.0-0.9",99175,"ListA","woman","english",NA,NA,NA,"null",NA,NA,NA,NA,NA,NA
"null","<img src='gifs/MaleRace1b.gif' style='height:400px;''></img>",NA,"html-keyboard-response",198,912439,"0.0-15.0-1.9",99175,"ListA","woman","english",NA,NA,NA,"null",NA,NA,NA,NA,NA,NA
"null","is following",NA,"html-keyboard-response",199,915441,"0.0-15.0-2.9",99175,"ListA","woman","english",NA,NA,NA,"null",NA,NA,NA,NA,NA,NA
"5159.199999999953",NA,NA,"survey-text",200,920604,"0.0-15.0-3.9",99175,"ListA","woman","english",NA,NA,NA,NA,"{""Q0"":""is following""}","<img src='gifs/MaleRace1b.gif' style='height:400px;''></img>","following","is following","english",NA
"null","<div style=""font-size:60px;"">+</div>",NA,"html-keyboard-response",201,921116,"0.0-15.0-0.10",99175,"ListA","woman","english",NA,NA,NA,"null",NA,NA,NA,NA,NA,NA
"null","<img src='gifs/MaleRace4a.gif' style='height:400px;''></img>",NA,"html-keyboard-response",202,923120,"0.0-15.0-1.10",99175,"ListA","woman","english",NA,NA,NA,"null",NA,NA,NA,NA,NA,NA
"null","is employing",NA,"html-keyboard-response",203,926127,"0.0-15.0-2.10",99175,"ListA","woman","english",NA,NA,NA,"null",NA,NA,NA,NA,NA,NA
"9130.699999999953",NA,NA,"survey-text",204,935259,"0.0-15.0-3.10",99175,"ListA","woman","english",NA,NA,NA,NA,"{""Q0"":""is following""}","<img src='gifs/MaleRace4a.gif' style='height:400px;''></img>","employing","is employing","english",NA
"null","<div style=""font-size:60px;"">+</div>",NA,"html-keyboard-response",205,935764,"0.0-15.0-0.11",99175,"ListA","woman","english",NA,NA,NA,"null",NA,NA,NA,NA,NA,NA
"null","<img src='gifs/ChineseGender2b.gif' style='height:400px;''></img>",NA,"html-keyboard-response",206,937768,"0.0-15.0-1.11",99175,"ListA","woman","english",NA,NA,NA,"null",NA,NA,NA,NA,NA,NA
"null","is listening to",NA,"html-keyboard-response",207,940771,"0.0-15.0-2.11",99175,"ListA","woman","english",NA,NA,NA,"null",NA,NA,NA,NA,NA,NA
"16613.100000000093",NA,NA,"survey-text",208,957383,"0.0-15.0-3.11",99175,"ListA","woman","english",NA,NA,NA,NA,"{""Q0"":""is listening to""}","<img src='gifs/ChineseGender2b.gif' style='height:400px;''></img>","listening to","is listening to","english",NA
"null","<div style=""font-size:60px;"">+</div>",NA,"html-keyboard-response",209,957899,"0.0-15.0-0.12",99175,"ListA","woman","english",NA,NA,NA,"null",NA,NA,NA,NA,NA,NA
"null","<img src='gifs/MaleRace4a.gif' style='height:400px;''></img>",NA,"html-keyboard-response",210,959907,"0.0-15.0-1.12",99175,"ListA","woman","english",NA,NA,NA,"null",NA,NA,NA,NA,NA,NA
"null","is touching",NA,"html-keyboard-response",211,962921,"0.0-15.0-2.12",99175,"ListA","woman","english",NA,NA,NA,"null",NA,NA,NA,NA,NA,NA
"12435.600000000093",NA,NA,"survey-text",212,975359,"0.0-15.0-3.12",99175,"ListA","woman","english",NA,NA,NA,NA,"{""Q0"":""is touching""}","<img src='gifs/MaleRace4a.gif' style='height:400px;''></img>","touching","is touching","english",NA
"null","<div style=""font-size:60px;"">+</div>",NA,"html-keyboard-response",213,975868,"0.0-15.0-0.13",99175,"ListA","woman","english",NA,NA,NA,"null",NA,NA,NA,NA,NA,NA
"null","<img src='gifs/ChineseGender3b.gif' style='height:400px;''></img>",NA,"html-keyboard-response",214,977870,"0.0-15.0-1.13",99175,"ListA","woman","english",NA,NA,NA,"null",NA,NA,NA,NA,NA,NA
"null","is promising",NA,"html-keyboard-response",215,980880,"0.0-15.0-2.13",99175,"ListA","woman","english",NA,NA,NA,"null",NA,NA,NA,NA,NA,NA
"4621.600000000093",NA,NA,"survey-text",216,985503,"0.0-15.0-3.13",99175,"ListA","woman","english",NA,NA,NA,NA,"{""Q0"":""is promising""}","<img src='gifs/ChineseGender3b.gif' style='height:400px;''></img>","promising","is promising","english",NA
"null","<div style=""font-size:60px;"">+</div>",NA,"html-keyboard-response",217,986010,"0.0-15.0-0.14",99175,"ListA","woman","english",NA,NA,NA,"null",NA,NA,NA,NA,NA,NA
"null","<img src='gifs/FemaleRace2a.gif' style='height:400px;''></img>",NA,"html-keyboard-response",218,988018,"0.0-15.0-1.14",99175,"ListA","woman","english",NA,NA,NA,"null",NA,NA,NA,NA,NA,NA
"null","is facing",NA,"html-keyboard-response",219,991020,"0.0-15.0-2.14",99175,"ListA","woman","english",NA,NA,NA,"null",NA,NA,NA,NA,NA,NA
"4112.699999999953",NA,NA,"survey-text",220,995135,"0.0-15.0-3.14",99175,"ListA","woman","english",NA,NA,NA,NA,"{""Q0"":""is facing""}","<img src='gifs/FemaleRace2a.gif' style='height:400px;''></img>","facing","is facing","english",NA
"null","<div style=""font-size:60px;"">+</div>",NA,"html-keyboard-response",221,995650,"0.0-15.0-0.15",99175,"ListA","woman","english",NA,NA,NA,"null",NA,NA,NA,NA,NA,NA
"null","<img src='gifs/BlackGender3b.gif' style='height:400px;''></img>",NA,"html-keyboard-response",222,997654,"0.0-15.0-1.15",99175,"ListA","woman","english",NA,NA,NA,"null",NA,NA,NA,NA,NA,NA
"null","is approaching",NA,"html-keyboard-response",223,1000658,"0.0-15.0-2.15",99175,"ListA","woman","english",NA,NA,NA,"null",NA,NA,NA,NA,NA,NA
"6367.699999999953",NA,NA,"survey-text",224,1007031,"0.0-15.0-3.15",99175,"ListA","woman","english",NA,NA,NA,NA,"{""Q0"":""is approching""}","<img src='gifs/BlackGender3b.gif' style='height:400px;''></img>","approaching","is approaching","english",NA
"null","<div style=""font-size:60px;"">+</div>",NA,"html-keyboard-response",225,1007540,"0.0-15.0-0.16",99175,"ListA","woman","english",NA,NA,NA,"null",NA,NA,NA,NA,NA,NA
"null","<img src='gifs/FemaleRace3b.gif' style='height:400px;''></img>",NA,"html-keyboard-response",226,1009548,"0.0-15.0-1.16",99175,"ListA","woman","english",NA,NA,NA,"null",NA,NA,NA,NA,NA,NA
"null","is listening to",NA,"html-keyboard-response",227,1012561,"0.0-15.0-2.16",99175,"ListA","woman","english",NA,NA,NA,"null",NA,NA,NA,NA,NA,NA
"8916.5",NA,NA,"survey-text",228,1021474,"0.0-15.0-3.16",99175,"ListA","woman","english",NA,NA,NA,NA,"{""Q0"":""is listening to""}","<img src='gifs/FemaleRace3b.gif' style='height:400px;''></img>","listening to","is listening to","english",NA
"null","<div style=""font-size:60px;"">+</div>",NA,"html-keyboard-response",229,1021990,"0.0-15.0-0.17",99175,"ListA","woman","english",NA,NA,NA,"null",NA,NA,NA,NA,NA,NA
"null","<img src='gifs/BlackGender3b.gif' style='height:400px;''></img>",NA,"html-keyboard-response",230,1023997,"0.0-15.0-1.17",99175,"ListA","woman","english",NA,NA,NA,"null",NA,NA,NA,NA,NA,NA
"null","is approaching",NA,"html-keyboard-response",231,1027007,"0.0-15.0-2.17",99175,"ListA","woman","english",NA,NA,NA,"null",NA,NA,NA,NA,NA,NA
"7999.500000000233",NA,NA,"survey-text",232,1035010,"0.0-15.0-3.17",99175,"ListA","woman","english",NA,NA,NA,NA,"{""Q0"":""is approching""}","<img src='gifs/BlackGender3b.gif' style='height:400px;''></img>","approaching","is approaching","english",NA
"3039.100000000093","<img src='img/portrait_matrix_listA.jpg' style='width:900px;height:500px;''></img><p>If you have memorised all the portraits and names and are ready to start, press Continue.</p><p><strong>Please note: Your memory of these faces will be tested 5 times during this experiment.</strong></p>",0,"html-button-response",233,1038050,"0.0-16.0-0.0",99175,"ListA","woman","english",NA,NA,NA,NA,NA,NA,NA,NA,NA,NA
"2792.2000000001863","<img src=""portrait/BW2.jpg""style=""height:400px;""></img>",2,"html-button-response",234,1041850,"0.0-16.0-1.0",99175,"ListA","woman","english",NA,"true",2,NA,NA,NA,NA,NA,NA,NA
"null","CORRECT",NA,"html-keyboard-response",235,1043368,"0.0-16.0-2.0-0.0",99175,"ListA","woman","english",NA,NA,NA,"null",NA,NA,NA,NA,NA,NA
"6111.9000000003725","<img src=""portrait/WM2.jpg""style=""height:400px;""></img>",7,"html-button-response",236,1049482,"0.0-16.0-4.0",99175,"ListA","woman","english",NA,"true",7,NA,NA,NA,NA,NA,NA,NA
"null","CORRECT",NA,"html-keyboard-response",237,1050994,"0.0-16.0-5.0-0.0",99175,"ListA","woman","english",NA,NA,NA,"null",NA,NA,NA,NA,NA,NA
"3101.4000000003725","<img src=""portrait/BM1.jpg""style=""height:400px;""></img>",4,"html-button-response",238,1054098,"0.0-16.0-7.0",99175,"ListA","woman","english",NA,"true",4,NA,NA,NA,NA,NA,NA,NA
"null","CORRECT",NA,"html-keyboard-response",239,1055608,"0.0-16.0-8.0-0.0",99175,"ListA","woman","english",NA,NA,NA,"null",NA,NA,NA,NA,NA,NA
"1159.8999999999069","<img src=""portrait/WW2.jpg""style=""height:400px;""></img>",3,"html-button-response",240,1056770,"0.0-16.0-10.0",99175,"ListA","woman","english",NA,"true",3,NA,NA,NA,NA,NA,NA,NA
"null","CORRECT",NA,"html-keyboard-response",241,1058283,"0.0-16.0-11.0-0.0",99175,"ListA","woman","english",NA,NA,NA,"null",NA,NA,NA,NA,NA,NA
"1492.7000000001863","<img src=""portrait/WW1.jpg""style=""height:400px;""></img>",1,"html-button-response",242,1059778,"0.0-16.0-13.0",99175,"ListA","woman","english",NA,"true",1,NA,NA,NA,NA,NA,NA,NA
"null","CORRECT",NA,"html-keyboard-response",243,1061285,"0.0-16.0-14.0-0.0",99175,"ListA","woman","english",NA,NA,NA,"null",NA,NA,NA,NA,NA,NA
"2258.5999999996275","<img src=""portrait/BW1.jpg""style=""height:400px;""></img>",0,"html-button-response",244,1063546,"0.0-16.0-16.0",99175,"ListA","woman","english",NA,"true",0,NA,NA,NA,NA,NA,NA,NA
"null","CORRECT",NA,"html-keyboard-response",245,1065063,"0.0-16.0-17.0-0.0",99175,"ListA","woman","english",NA,NA,NA,"null",NA,NA,NA,NA,NA,NA
"1392.4000000003725","<img src=""portrait/WM1.jpg""style=""height:400px;""></img>",6,"html-button-response",246,1066458,"0.0-16.0-19.0",99175,"ListA","woman","english",NA,"true",6,NA,NA,NA,NA,NA,NA,NA
"null","CORRECT",NA,"html-keyboard-response",247,1067970,"0.0-16.0-20.0-0.0",99175,"ListA","woman","english",NA,NA,NA,"null",NA,NA,NA,NA,NA,NA
"2621.8000000002794","<img src=""portrait/BM2.jpg""style=""height:400px;""></img>",5,"html-button-response",248,1070594,"0.0-16.0-22.0",99175,"ListA","woman","english",NA,"true",5,NA,NA,NA,NA,NA,NA,NA
"null","CORRECT",NA,"html-keyboard-response",249,1072117,"0.0-16.0-23.0-0.0",99175,"ListA","woman","english",NA,NA,NA,"null",NA,NA,NA,NA,NA,NA
"1434.2000000001863","<p>You got 8 out of 8 right first time. Press Continue.</p>",0,"html-button-response",250,1073554,"0.0-16.0-25.0",99175,"ListA","woman","english",NA,NA,NA,NA,NA,NA,NA,NA,NA,NA
"null","<div style=""font-size:60px;"">+</div>",NA,"html-keyboard-response",251,1075067,"0.0-17.0-0.0",99175,"ListA","woman","english",NA,NA,NA,"null",NA,NA,NA,NA,NA,NA
"null","<img src='gifs/BlackGender1b.gif' style='height:400px;''></img>",NA,"html-keyboard-response",252,1077075,"0.0-17.0-1.0",99175,"ListA","woman","english",NA,NA,NA,"null",NA,NA,NA,NA,NA,NA
"null","is facing",NA,"html-keyboard-response",253,1080076,"0.0-17.0-2.0",99175,"ListA","woman","english",NA,NA,NA,"null",NA,NA,NA,NA,NA,NA
"20044.899999999907",NA,NA,"survey-text",254,1100124,"0.0-17.0-3.0",99175,"ListA","woman","english",NA,NA,NA,NA,"{""Q0"":""is facing""}","<img src='gifs/BlackGender1b.gif' style='height:400px;''></img>","facing","is facing","english",NA
"null","<div style=""font-size:60px;"">+</div>",NA,"html-keyboard-response",255,1100635,"0.0-17.0-0.1",99175,"ListA","woman","english",NA,NA,NA,"null",NA,NA,NA,NA,NA,NA
"null","<img src='gifs/ChineseGender4a.gif' style='height:400px;''></img>",NA,"html-keyboard-response",256,1102641,"0.0-17.0-1.1",99175,"ListA","woman","english",NA,NA,NA,"null",NA,NA,NA,NA,NA,NA
"null","is following",NA,"html-keyboard-response",257,1105653,"0.0-17.0-2.1",99175,"ListA","woman","english",NA,NA,NA,"null",NA,NA,NA,NA,NA,NA
"6618",NA,NA,"survey-text",258,1112275,"0.0-17.0-3.1",99175,"ListA","woman","english",NA,NA,NA,NA,"{""Q0"":""is following ""}","<img src='gifs/ChineseGender4a.gif' style='height:400px;''></img>","following","is following","english",NA
"null","<div style=""font-size:60px;"">+</div>",NA,"html-keyboard-response",259,1112787,"0.0-17.0-0.2",99175,"ListA","woman","english",NA,NA,NA,"null",NA,NA,NA,NA,NA,NA
"null","<img src='gifs/BlackGender4b.gif' style='height:400px;''></img>",NA,"html-keyboard-response",260,1114802,"0.0-17.0-1.2",99175,"ListA","woman","english",NA,NA,NA,"null",NA,NA,NA,NA,NA,NA
"null","is touching",NA,"html-keyboard-response",261,1117819,"0.0-17.0-2.2",99175,"ListA","woman","english",NA,NA,NA,"null",NA,NA,NA,NA,NA,NA
"5196.199999999721",NA,NA,"survey-text",262,1123019,"0.0-17.0-3.2",99175,"ListA","woman","english",NA,NA,NA,NA,"{""Q0"":""is touching""}","<img src='gifs/BlackGender4b.gif' style='height:400px;''></img>","touching","is touching","english",NA
"null","<div style=""font-size:60px;"">+</div>",NA,"html-keyboard-response",263,1123529,"0.0-17.0-0.3",99175,"ListA","woman","english",NA,NA,NA,"null",NA,NA,NA,NA,NA,NA
"null","<img src='gifs/ChineseGender4b.gif' style='height:400px;''></img>",NA,"html-keyboard-response",264,1125535,"0.0-17.0-1.3",99175,"ListA","woman","english",NA,NA,NA,"null",NA,NA,NA,NA,NA,NA
"null","is following",NA,"html-keyboard-response",265,1128537,"0.0-17.0-2.3",99175,"ListA","woman","english",NA,NA,NA,"null",NA,NA,NA,NA,NA,NA
"6784.600000000093",NA,NA,"survey-text",266,1135312,"0.0-17.0-3.3",99175,"ListA","woman","english",NA,NA,NA,NA,"{""Q0"":""is following""}","<img src='gifs/ChineseGender4b.gif' style='height:400px;''></img>","following","is following","english",NA
"null","<div style=""font-size:60px;"">+</div>",NA,"html-keyboard-response",267,1135814,"0.0-17.0-0.4",99175,"ListA","woman","english",NA,NA,NA,"null",NA,NA,NA,NA,NA,NA
"null","<img src='gifs/FemaleRace2b.gif' style='height:400px;''></img>",NA,"html-keyboard-response",268,1137841,"0.0-17.0-1.4",99175,"ListA","woman","english",NA,NA,NA,"null",NA,NA,NA,NA,NA,NA
"null","is convincing",NA,"html-keyboard-response",269,1140849,"0.0-17.0-2.4",99175,"ListA","woman","english",NA,NA,NA,"null",NA,NA,NA,NA,NA,NA
"13397.100000000093",NA,NA,"survey-text",270,1154248,"0.0-17.0-3.4",99175,"ListA","woman","english",NA,NA,NA,NA,"{""Q0"":""is cinvincing""}","<img src='gifs/FemaleRace2b.gif' style='height:400px;''></img>","convincing","is convincing","english",NA
"null","<div style=""font-size:60px;"">+</div>",NA,"html-keyboard-response",271,1154754,"0.0-17.0-0.5",99175,"ListA","woman","english",NA,NA,NA,"null",NA,NA,NA,NA,NA,NA
"null","<img src='gifs/ChineseGender1a.gif' style='height:400px;''></img>",NA,"html-keyboard-response",272,1156758,"0.0-17.0-1.5",99175,"ListA","woman","english",NA,NA,NA,"null",NA,NA,NA,NA,NA,NA
"null","is praising",NA,"html-keyboard-response",273,1159774,"0.0-17.0-2.5",99175,"ListA","woman","english",NA,NA,NA,"null",NA,NA,NA,NA,NA,NA
"52797.89999999991",NA,NA,"survey-text",274,1212564,"0.0-17.0-3.5",99175,"ListA","woman","english",NA,NA,NA,NA,"{""Q0"":""is following""}","<img src='gifs/ChineseGender1a.gif' style='height:400px;''></img>","praising","is praising","english",NA
"null","<div style=""font-size:60px;"">+</div>",NA,"html-keyboard-response",275,1213068,"0.0-17.0-0.6",99175,"ListA","woman","english",NA,NA,NA,"null",NA,NA,NA,NA,NA,NA
"null","<img src='gifs/ChineseGender4b.gif' style='height:400px;''></img>",NA,"html-keyboard-response",276,1215073,"0.0-17.0-1.6",99175,"ListA","woman","english",NA,NA,NA,"null",NA,NA,NA,NA,NA,NA
"null","is promising",NA,"html-keyboard-response",277,1218083,"0.0-17.0-2.6",99175,"ListA","woman","english",NA,NA,NA,"null",NA,NA,NA,NA,NA,NA
"4990.0999999996275",NA,NA,"survey-text",278,1223076,"0.0-17.0-3.6",99175,"ListA","woman","english",NA,NA,NA,NA,"{""Q0"":""is promising""}","<img src='gifs/ChineseGender4b.gif' style='height:400px;''></img>","promising","is promising","english",NA
"null","<div style=""font-size:60px;"">+</div>",NA,"html-keyboard-response",279,1223577,"0.0-17.0-0.7",99175,"ListA","woman","english",NA,NA,NA,"null",NA,NA,NA,NA,NA,NA
"null","<img src='gifs/FemaleRace1a.gif' style='height:400px;''></img>",NA,"html-keyboard-response",280,1225580,"0.0-17.0-1.7",99175,"ListA","woman","english",NA,NA,NA,"null",NA,NA,NA,NA,NA,NA
"null","is looking at",NA,"html-keyboard-response",281,1228588,"0.0-17.0-2.7",99175,"ListA","woman","english",NA,NA,NA,"null",NA,NA,NA,NA,NA,NA
"4902.399999999907",NA,NA,"survey-text",282,1233492,"0.0-17.0-3.7",99175,"ListA","woman","english",NA,NA,NA,NA,"{""Q0"":""is looking at""}","<img src='gifs/FemaleRace1a.gif' style='height:400px;''></img>","looking at","is looking at","english",NA
"null","<div style=""font-size:60px;"">+</div>",NA,"html-keyboard-response",283,1233999,"0.0-17.0-0.8",99175,"ListA","woman","english",NA,NA,NA,"null",NA,NA,NA,NA,NA,NA
"null","<img src='gifs/FemaleRace3a.gif' style='height:400px;''></img>",NA,"html-keyboard-response",284,1236004,"0.0-17.0-1.8",99175,"ListA","woman","english",NA,NA,NA,"null",NA,NA,NA,NA,NA,NA
"null","is introducing",NA,"html-keyboard-response",285,1239012,"0.0-17.0-2.8",99175,"ListA","woman","english",NA,NA,NA,"null",NA,NA,NA,NA,NA,NA
"12790.30000000028",NA,NA,"survey-text",286,1251804,"0.0-17.0-3.8",99175,"ListA","woman","english",NA,NA,NA,NA,"{""Q0"":""is introducing ""}","<img src='gifs/FemaleRace3a.gif' style='height:400px;''></img>","introducing","is introducing","english",NA
"null","<div style=""font-size:60px;"">+</div>",NA,"html-keyboard-response",287,1252320,"0.0-17.0-0.9",99175,"ListA","woman","english",NA,NA,NA,"null",NA,NA,NA,NA,NA,NA
"null","<img src='gifs/BlackGender1b.gif' style='height:400px;''></img>",NA,"html-keyboard-response",288,1254324,"0.0-17.0-1.9",99175,"ListA","woman","english",NA,NA,NA,"null",NA,NA,NA,NA,NA,NA
"null","is listening to",NA,"html-keyboard-response",289,1257319,"0.0-17.0-2.9",99175,"ListA","woman","english",NA,NA,NA,"null",NA,NA,NA,NA,NA,NA
"5047.299999999814",NA,NA,"survey-text",290,1262368,"0.0-17.0-3.9",99175,"ListA","woman","english",NA,NA,NA,NA,"{""Q0"":""is""}","<img src='gifs/BlackGender1b.gif' style='height:400px;''></img>","listening to","is listening to","english",NA
"null","<div style=""font-size:60px;"">+</div>",NA,"html-keyboard-response",291,1262878,"0.0-17.0-0.10",99175,"ListA","woman","english",NA,NA,NA,"null",NA,NA,NA,NA,NA,NA
"null","<img src='gifs/ChineseGender4a.gif' style='height:400px;''></img>",NA,"html-keyboard-response",292,1264882,"0.0-17.0-1.10",99175,"ListA","woman","english",NA,NA,NA,"null",NA,NA,NA,NA,NA,NA
"null","is convincing",NA,"html-keyboard-response",293,1267887,"0.0-17.0-2.10",99175,"ListA","woman","english",NA,NA,NA,"null",NA,NA,NA,NA,NA,NA
"5782.700000000186",NA,NA,"survey-text",294,1273672,"0.0-17.0-3.10",99175,"ListA","woman","english",NA,NA,NA,NA,"{""Q0"":""is conving""}","<img src='gifs/ChineseGender4a.gif' style='height:400px;''></img>","convincing","is convincing","english",NA
"null","<div style=""font-size:60px;"">+</div>",NA,"html-keyboard-response",295,1274178,"0.0-17.0-0.11",99175,"ListA","woman","english",NA,NA,NA,"null",NA,NA,NA,NA,NA,NA
"null","<img src='gifs/BlackGender2a.gif' style='height:400px;''></img>",NA,"html-keyboard-response",296,1276180,"0.0-17.0-1.11",99175,"ListA","woman","english",NA,NA,NA,"null",NA,NA,NA,NA,NA,NA
"null","is accompanying",NA,"html-keyboard-response",297,1279187,"0.0-17.0-2.11",99175,"ListA","woman","english",NA,NA,NA,"null",NA,NA,NA,NA,NA,NA
"10929.5",NA,NA,"survey-text",298,1290120,"0.0-17.0-3.11",99175,"ListA","woman","english",NA,NA,NA,NA,"{""Q0"":""is accompanying""}","<img src='gifs/BlackGender2a.gif' style='height:400px;''></img>","accompanying","is accompanying","english",NA
"null","<div style=""font-size:60px;"">+</div>",NA,"html-keyboard-response",299,1290621,"0.0-17.0-0.12",99175,"ListA","woman","english",NA,NA,NA,"null",NA,NA,NA,NA,NA,NA
"null","<img src='gifs/MaleRace3b.gif' style='height:400px;''></img>",NA,"html-keyboard-response",300,1292625,"0.0-17.0-1.12",99175,"ListA","woman","english",NA,NA,NA,"null",NA,NA,NA,NA,NA,NA
"null","is facing",NA,"html-keyboard-response",301,1295633,"0.0-17.0-2.12",99175,"ListA","woman","english",NA,NA,NA,"null",NA,NA,NA,NA,NA,NA
"2835.7999999998137",NA,NA,"survey-text",302,1298472,"0.0-17.0-3.12",99175,"ListA","woman","english",NA,NA,NA,NA,"{""Q0"":""is facing""}","<img src='gifs/MaleRace3b.gif' style='height:400px;''></img>","facing","is facing","english",NA
"null","<div style=""font-size:60px;"">+</div>",NA,"html-keyboard-response",303,1298987,"0.0-17.0-0.13",99175,"ListA","woman","english",NA,NA,NA,"null",NA,NA,NA,NA,NA,NA
"null","<img src='gifs/MaleRace2a.gif' style='height:400px;''></img>",NA,"html-keyboard-response",304,1300993,"0.0-17.0-1.13",99175,"ListA","woman","english",NA,NA,NA,"null",NA,NA,NA,NA,NA,NA
"null","is mentioning",NA,"html-keyboard-response",305,1304000,"0.0-17.0-2.13",99175,"ListA","woman","english",NA,NA,NA,"null",NA,NA,NA,NA,NA,NA
"5405.5",NA,NA,"survey-text",306,1309408,"0.0-17.0-3.13",99175,"ListA","woman","english",NA,NA,NA,NA,"{""Q0"":""is mentioning""}","<img src='gifs/MaleRace2a.gif' style='height:400px;''></img>","mention","is mentioning","english",NA
"null","<div style=""font-size:60px;"">+</div>",NA,"html-keyboard-response",307,1309913,"0.0-17.0-0.14",99175,"ListA","woman","english",NA,NA,NA,"null",NA,NA,NA,NA,NA,NA
"null","<img src='gifs/FemaleRace4b.gif' style='height:400px;''></img>",NA,"html-keyboard-response",308,1311918,"0.0-17.0-1.14",99175,"ListA","woman","english",NA,NA,NA,"null",NA,NA,NA,NA,NA,NA
"null","is touching",NA,"html-keyboard-response",309,1314927,"0.0-17.0-2.14",99175,"ListA","woman","english",NA,NA,NA,"null",NA,NA,NA,NA,NA,NA
"4495.0999999996275",NA,NA,"survey-text",310,1319411,"0.0-17.0-3.14",99175,"ListA","woman","english",NA,NA,NA,NA,"{""Q0"":""is touching""}","<img src='gifs/FemaleRace4b.gif' style='height:400px;''></img>","touching","is touching","english",NA
"null","<div style=""font-size:60px;"">+</div>",NA,"html-keyboard-response",311,1319922,"0.0-17.0-0.15",99175,"ListA","woman","english",NA,NA,NA,"null",NA,NA,NA,NA,NA,NA
"null","<img src='gifs/MaleRace3a.gif' style='height:400px;''></img>",NA,"html-keyboard-response",312,1321927,"0.0-17.0-1.15",99175,"ListA","woman","english",NA,NA,NA,"null",NA,NA,NA,NA,NA,NA
"null","is joining",NA,"html-keyboard-response",313,1324935,"0.0-17.0-2.15",99175,"ListA","woman","english",NA,NA,NA,"null",NA,NA,NA,NA,NA,NA
"4121.899999999907",NA,NA,"survey-text",314,1329059,"0.0-17.0-3.15",99175,"ListA","woman","english",NA,NA,NA,NA,"{""Q0"":""is joining""}","<img src='gifs/MaleRace3a.gif' style='height:400px;''></img>","join","is joining","english",NA
"null","<div style=""font-size:60px;"">+</div>",NA,"html-keyboard-response",315,1329581,"0.0-17.0-0.16",99175,"ListA","woman","english",NA,NA,NA,"null",NA,NA,NA,NA,NA,NA
"null","<img src='gifs/MaleRace4b.gif' style='height:400px;''></img>",NA,"html-keyboard-response",316,1331585,"0.0-17.0-1.16",99175,"ListA","woman","english",NA,NA,NA,"null",NA,NA,NA,NA,NA,NA
"null","is listening to",NA,"html-keyboard-response",317,1334600,"0.0-17.0-2.16",99175,"ListA","woman","english",NA,NA,NA,"null",NA,NA,NA,NA,NA,NA
"7841",NA,NA,"survey-text",318,1342443,"0.0-17.0-3.16",99175,"ListA","woman","english",NA,NA,NA,NA,"{""Q0"":""is listening to""}","<img src='gifs/MaleRace4b.gif' style='height:400px;''></img>","listening to","is listening to","english",NA
"null","<div style=""font-size:60px;"">+</div>",NA,"html-keyboard-response",319,1342947,"0.0-17.0-0.17",99175,"ListA","woman","english",NA,NA,NA,"null",NA,NA,NA,NA,NA,NA
"null","<img src='gifs/ChineseGender1a.gif' style='height:400px;''></img>",NA,"html-keyboard-response",320,1344953,"0.0-17.0-1.17",99175,"ListA","woman","english",NA,NA,NA,"null",NA,NA,NA,NA,NA,NA
"null","is contacting",NA,"html-keyboard-response",321,1347968,"0.0-17.0-2.17",99175,"ListA","woman","english",NA,NA,NA,"null",NA,NA,NA,NA,NA,NA
"6365.899999999907",NA,NA,"survey-text",322,1354340,"0.0-17.0-3.17",99175,"ListA","woman","english",NA,NA,NA,NA,"{""Q0"":""is contacting""}","<img src='gifs/ChineseGender1a.gif' style='height:400px;''></img>","contacting","is contacting","english",NA
"3526.100000000093","<p>Thank you for completing that task.</p><p>The final part of this session is a short questionnaire.</p><p>Press Continue.</p>",0,"html-button-response",323,1357867,"0.0-18.0",99175,"ListA","woman","english",NA,NA,NA,NA,NA,NA,NA,NA,NA,NA
"59207.5",NA,NA,"survey-text",324,1418091,"0.0-19.0",99175,"ListA","woman","english",NA,NA,NA,NA,"{""Q0"":""26"",""Q1"":""chinese"",""Q2"":""English"",""Q3"":""UK "",""Q4"":""Chinese"",""Q5"":""han"",""Q6"":""female""}",NA,NA,NA,NA,"demographics"
"21825.400000000373",NA,NA,"external-html",325,1439993,"0.0-20.0",99175,"ListA","woman","english","debrief.html",NA,NA,NA,NA,NA,NA,NA,NA,NA
"13286.399999999907",NA,NA,"survey-text",326,1453282,"0.0-21.0",99175,"ListA","woman","english",NA,NA,NA,NA,"{""Q0"":""SW_E_F_A3""}",NA,NA,NA,NA,"worker_id"
