"rt","stimulus","button_pressed","trial_type","trial_index","time_elapsed","internal_node_id","subject","list","ppt_gender","ppt_language","ptptID","url","first_guess","correct","key_press","responses","image","verb","phrase","condition","test_part"
"1509.4000000953674","Welcome to the experiment. Press Continue to begin.",0,"html-button-response",0,1511,"0.0-0.0",78106,"ListB","man","chinese","CMB4",NA,NA,NA,NA,NA,NA,NA,NA,NA,NA
"3309.300000190735",NA,NA,"external-html",1,5829,"0.0-1.0",78106,"ListB","man","chinese","CMB4","consent.html",NA,NA,NA,NA,NA,NA,NA,NA,NA
"918.0999999046326","<p>在下一页中，您将看到8个人物肖像和他们各自的名字。</p><p>请花费几分钟的时间记住这些人物及其所对应的名字。</p><p>之后的实验中需要您对人物的名字做出回忆，</p><p>因此在实验开始前请确保您已 经完全记住这些人物及其所对应的名字。</p><p><strong>然后您将完成一个测试以检验您对人物和名字的记忆。</strong></p><p>完成此记忆测试后，您将正式进入实验。</p><p>准备好了吗？</p>",0,"html-button-response",2,6747,"0.0-2.0",78106,"ListB","man","chinese","CMB4",NA,NA,NA,NA,NA,NA,NA,NA,NA,NA
"1030.2000000476837","<img src='img/portrait_matrix_listB_chinese.jpg' style='width:900px;height:500px;''></img><p>如果您已经记住了所有的人物和名字，请点击继续。</p><p><strong>请注意：您对先前记忆的面孔将在本实验中被测试5次。</strong></p>",0,"html-button-response",3,8784,"0.0-3.0-0.0",78106,"ListB","man","chinese","CMB4",NA,NA,NA,NA,NA,NA,NA,NA,NA,NA
"2109.2000000476837","<img src=""portrait/BW2.jpg""style=""height:400px;""></img>",2,"html-button-response",4,11908,"0.0-3.0-1.0",78106,"ListB","man","chinese","CMB4",NA,"true",2,NA,NA,NA,NA,NA,NA,NA
"null","正确",NA,"html-keyboard-response",5,13410,"0.0-3.0-2.0-0.0",78106,"ListB","man","chinese","CMB4",NA,NA,NA,"null",NA,NA,NA,NA,NA,NA
"7336.100000143051","<img src=""portrait/WM1.jpg""style=""height:400px;""></img>",6,"html-button-response",6,20747,"0.0-3.0-4.0",78106,"ListB","man","chinese","CMB4",NA,"true",6,NA,NA,NA,NA,NA,NA,NA
"null","正确",NA,"html-keyboard-response",7,22248,"0.0-3.0-5.0-0.0",78106,"ListB","man","chinese","CMB4",NA,NA,NA,"null",NA,NA,NA,NA,NA,NA
"9208","<img src=""portrait/WM2.jpg""style=""height:400px;""></img>",7,"html-button-response",8,31457,"0.0-3.0-7.0",78106,"ListB","man","chinese","CMB4",NA,"true",7,NA,NA,NA,NA,NA,NA,NA
"null","正确",NA,"html-keyboard-response",9,32959,"0.0-3.0-8.0-0.0",78106,"ListB","man","chinese","CMB4",NA,NA,NA,"null",NA,NA,NA,NA,NA,NA
"6219.200000047684","<img src=""portrait/WW1.jpg""style=""height:400px;""></img>",1,"html-button-response",10,39179,"0.0-3.0-10.0",78106,"ListB","man","chinese","CMB4",NA,"true",1,NA,NA,NA,NA,NA,NA,NA
"null","正确",NA,"html-keyboard-response",11,40680,"0.0-3.0-11.0-0.0",78106,"ListB","man","chinese","CMB4",NA,NA,NA,"null",NA,NA,NA,NA,NA,NA
"2868.5","<img src=""portrait/BM1.jpg""style=""height:400px;""></img>",4,"html-button-response",12,43550,"0.0-3.0-13.0",78106,"ListB","man","chinese","CMB4",NA,"true",4,NA,NA,NA,NA,NA,NA,NA
"null","正确",NA,"html-keyboard-response",13,45073,"0.0-3.0-14.0-0.0",78106,"ListB","man","chinese","CMB4",NA,NA,NA,"null",NA,NA,NA,NA,NA,NA
"8968","<img src=""portrait/WW2.jpg""style=""height:400px;""></img>",3,"html-button-response",14,54042,"0.0-3.0-16.0",78106,"ListB","man","chinese","CMB4",NA,"true",3,NA,NA,NA,NA,NA,NA,NA
"null","正确",NA,"html-keyboard-response",15,55544,"0.0-3.0-17.0-0.0",78106,"ListB","man","chinese","CMB4",NA,NA,NA,"null",NA,NA,NA,NA,NA,NA
"5249.299999952316","<img src=""portrait/BW1.jpg""style=""height:400px;""></img>",0,"html-button-response",16,60794,"0.0-3.0-19.0",78106,"ListB","man","chinese","CMB4",NA,"true",0,NA,NA,NA,NA,NA,NA,NA
"null","正确",NA,"html-keyboard-response",17,62295,"0.0-3.0-20.0-0.0",78106,"ListB","man","chinese","CMB4",NA,NA,NA,"null",NA,NA,NA,NA,NA,NA
"1872.8999998569489","<img src=""portrait/BM2.jpg""style=""height:400px;""></img>",5,"html-button-response",18,64169,"0.0-3.0-22.0",78106,"ListB","man","chinese","CMB4",NA,"true",5,NA,NA,NA,NA,NA,NA,NA
"null","正确",NA,"html-keyboard-response",19,65671,"0.0-3.0-23.0-0.0",78106,"ListB","man","chinese","CMB4",NA,NA,NA,"null",NA,NA,NA,NA,NA,NA
"770.8999998569489","<p>您第一次在8题里答对了 8 题。 请点击继续</p>",0,"html-button-response",20,66442,"0.0-3.0-25.0",78106,"ListB","man","chinese","CMB4",NA,NA,NA,NA,NA,NA,NA,NA,NA,NA
"985.4000000953674","<p>此次实验您将会看到先前记忆任务里的人物照片。</p><p>人物照片消失后您将看到一个动词短语，请正确回忆人物的名字并用特定的 动词短语组成一句完整的句子。</p><p>请在指定的框内输入您的答案。在进入下一题之前请确保您填写了完整的句子。</p><p>人物照片和动词短语只会在屏幕上出现几秒钟，因此请您答题时尽量集中注意力。</p><p>以下是例子。请您在准备好后按下“继续”。</p><img src='img/chinese_speaking_example.jpg' style='width:800px;height:460px;''></img>",0,"html-button-response",21,68430,"0.0-4.0",78106,"ListB","man","chinese","CMB4",NA,NA,NA,NA,NA,NA,NA,NA,NA,NA
"718.7999999523163","<p>在实验开始前，将为您展示两个示例实验。</p>",0,"html-button-response",22,70151,"0.0-5.0",78106,"ListB","man","chinese","CMB4",NA,NA,NA,NA,NA,NA,NA,NA,NA,NA
"null","<img src='img/meet.gif' style='height:400px;''></img>",NA,"html-keyboard-response",23,73154,"0.0-6.0",78106,"ListB","man","chinese","CMB4",NA,NA,NA,"null",NA,NA,NA,NA,NA,NA
"null","<p>正在约见</p>",NA,"html-keyboard-response",24,75163,"0.0-7.0",78106,"ListB","man","chinese","CMB4",NA,NA,NA,"null",NA,NA,NA,NA,NA,NA
"2531.7999999523163","<p><b>答案：</b> 霍普正在约见露丝</p>",0,"html-button-response",25,77695,"0.0-8.0",78106,"ListB","man","chinese","CMB4",NA,NA,NA,NA,NA,NA,NA,NA,NA,NA
"null","<img src='img/spy.gif' style='height:400px;''></img>",NA,"html-keyboard-response",26,80700,"0.0-9.0",78106,"ListB","man","chinese","CMB4",NA,NA,NA,"null",NA,NA,NA,NA,NA,NA
"null","<p>正在监视</p>",NA,"html-keyboard-response",27,82700,"0.0-10.0",78106,"ListB","man","chinese","CMB4",NA,NA,NA,"null",NA,NA,NA,NA,NA,NA
"2018.5999999046326","<p><b>答案：</b> 弗雷正在监视麦克</p>",0,"html-button-response",28,84719,"0.0-11.0",78106,"ListB","man","chinese","CMB4",NA,NA,NA,NA,NA,NA,NA,NA,NA,NA
"6211.599999904633","<p>准备好开始了吗？</p><br><p><strong>请记住，您的答案需是一句完整的句子</strong></p><p><strong>，并用给到的图片人物和动词短语作答。</strong></p><p><strong>只有正确并完整完成实验才可获得报酬。</strong></p><p><strong> 您不需要加入任何标点符号。</strong></p><br><p>请按 ‘继续’ 键开始。</p>",0,"html-button-response",29,91939,"0.0-12.0",78106,"ListB","man","chinese","CMB4",NA,NA,NA,NA,NA,NA,NA,NA,NA,NA
"null","<div style=""font-size:60px;"">+</div>",NA,"html-keyboard-response",30,93451,"0.0-13.0-0.0",78106,"ListB","man","chinese","CMB4",NA,NA,NA,"null",NA,NA,NA,NA,NA,NA
"null","<img src='gifs/FemaleRace3b.gif' style='height:400px;''></img>",NA,"html-keyboard-response",31,95464,"0.0-13.0-1.0",78106,"ListB","man","chinese","CMB4",NA,NA,NA,"null",NA,NA,NA,NA,NA,NA
"null","正在看着",NA,"html-keyboard-response",32,98464,"0.0-13.0-2.0",78106,"ListB","man","chinese","CMB4",NA,NA,NA,"null",NA,NA,NA,NA,NA,NA
"6187.699999809265",NA,NA,"survey-text",33,104653,"0.0-13.0-3.0",78106,"ListB","man","chinese","CMB4",NA,NA,NA,NA,"{""Q0"":""露丝正在看着贝斯""}","<img src='gifs/FemaleRace3b.gif' style='height:400px;''></img>","看着","正在看着","chinese",NA
"null","<div style=""font-size:60px;"">+</div>",NA,"html-keyboard-response",34,105160,"0.0-13.0-0.1",78106,"ListB","man","chinese","CMB4",NA,NA,NA,"null",NA,NA,NA,NA,NA,NA
"null","<img src='gifs/MaleRace1b.gif' style='height:400px;''></img>",NA,"html-keyboard-response",35,107163,"0.0-13.0-1.1",78106,"ListB","man","chinese","CMB4",NA,NA,NA,"null",NA,NA,NA,NA,NA,NA
"null","正在提到",NA,"html-keyboard-response",36,110173,"0.0-13.0-2.1",78106,"ListB","man","chinese","CMB4",NA,NA,NA,"null",NA,NA,NA,NA,NA,NA
"7521.200000047684",NA,NA,"survey-text",37,117697,"0.0-13.0-3.1",78106,"ListB","man","chinese","CMB4",NA,NA,NA,NA,"{""Q0"":""弗雷正在提到卢克""}","<img src='gifs/MaleRace1b.gif' style='height:400px;''></img>","提到","正在提到","chinese",NA
"null","<div style=""font-size:60px;"">+</div>",NA,"html-keyboard-response",38,118197,"0.0-13.0-0.2",78106,"ListB","man","chinese","CMB4",NA,NA,NA,"null",NA,NA,NA,NA,NA,NA
"null","<img src='gifs/FemaleRace2b.gif' style='height:400px;''></img>",NA,"html-keyboard-response",39,120199,"0.0-13.0-1.2",78106,"ListB","man","chinese","CMB4",NA,NA,NA,"null",NA,NA,NA,NA,NA,NA
"null","正在联系",NA,"html-keyboard-response",40,123201,"0.0-13.0-2.2",78106,"ListB","man","chinese","CMB4",NA,NA,NA,"null",NA,NA,NA,NA,NA,NA
"7957.300000190735",NA,NA,"survey-text",41,131159,"0.0-13.0-3.2",78106,"ListB","man","chinese","CMB4",NA,NA,NA,NA,"{""Q0"":""霍普正在联系凯特""}","<img src='gifs/FemaleRace2b.gif' style='height:400px;''></img>","联系","正在联系","chinese",NA
"null","<div style=""font-size:60px;"">+</div>",NA,"html-keyboard-response",42,131662,"0.0-13.0-0.3",78106,"ListB","man","chinese","CMB4",NA,NA,NA,"null",NA,NA,NA,NA,NA,NA
"null","<img src='gifs/BlackGender4b.gif' style='height:400px;''></img>",NA,"html-keyboard-response",43,133663,"0.0-13.0-1.3",78106,"ListB","man","chinese","CMB4",NA,NA,NA,"null",NA,NA,NA,NA,NA,NA
"null","正在接近",NA,"html-keyboard-response",44,136665,"0.0-13.0-2.3",78106,"ListB","man","chinese","CMB4",NA,NA,NA,"null",NA,NA,NA,NA,NA,NA
"10014.700000047684",NA,NA,"survey-text",45,146681,"0.0-13.0-3.3",78106,"ListB","man","chinese","CMB4",NA,NA,NA,NA,"{""Q0"":""麦克正在接近凯特""}","<img src='gifs/BlackGender4b.gif' style='height:400px;''></img>","接近","正在接近","chinese",NA
"null","<div style=""font-size:60px;"">+</div>",NA,"html-keyboard-response",46,147181,"0.0-13.0-0.4",78106,"ListB","man","chinese","CMB4",NA,NA,NA,"null",NA,NA,NA,NA,NA,NA
"null","<img src='gifs/FemaleRace1a.gif' style='height:400px;''></img>",NA,"html-keyboard-response",47,149182,"0.0-13.0-1.4",78106,"ListB","man","chinese","CMB4",NA,NA,NA,"null",NA,NA,NA,NA,NA,NA
"null","正在提到",NA,"html-keyboard-response",48,152184,"0.0-13.0-2.4",78106,"ListB","man","chinese","CMB4",NA,NA,NA,"null",NA,NA,NA,NA,NA,NA
"7544.200000047684",NA,NA,"survey-text",49,159729,"0.0-13.0-3.4",78106,"ListB","man","chinese","CMB4",NA,NA,NA,NA,"{""Q0"":""贝斯正在提到霍普""}","<img src='gifs/FemaleRace1a.gif' style='height:400px;''></img>","提到","正在提到","chinese",NA
"null","<div style=""font-size:60px;"">+</div>",NA,"html-keyboard-response",50,160230,"0.0-13.0-0.5",78106,"ListB","man","chinese","CMB4",NA,NA,NA,"null",NA,NA,NA,NA,NA,NA
"null","<img src='gifs/MaleRace4b.gif' style='height:400px;''></img>",NA,"html-keyboard-response",51,162231,"0.0-13.0-1.5",78106,"ListB","man","chinese","CMB4",NA,NA,NA,"null",NA,NA,NA,NA,NA,NA
"null","正在聘用",NA,"html-keyboard-response",52,165232,"0.0-13.0-2.5",78106,"ListB","man","chinese","CMB4",NA,NA,NA,"null",NA,NA,NA,NA,NA,NA
"15405.299999952316",NA,NA,"survey-text",53,180638,"0.0-13.0-3.5",78106,"ListB","man","chinese","CMB4",NA,NA,NA,NA,"{""Q0"":""麦克正在聘用戴夫""}","<img src='gifs/MaleRace4b.gif' style='height:400px;''></img>","聘用","正在聘用","chinese",NA
"null","<div style=""font-size:60px;"">+</div>",NA,"html-keyboard-response",54,181141,"0.0-13.0-0.6",78106,"ListB","man","chinese","CMB4",NA,NA,NA,"null",NA,NA,NA,NA,NA,NA
"null","<img src='gifs/ChineseGender1a.gif' style='height:400px;''></img>",NA,"html-keyboard-response",55,183143,"0.0-13.0-1.6",78106,"ListB","man","chinese","CMB4",NA,NA,NA,"null",NA,NA,NA,NA,NA,NA
"null","正在聘用",NA,"html-keyboard-response",56,186144,"0.0-13.0-2.6",78106,"ListB","man","chinese","CMB4",NA,NA,NA,"null",NA,NA,NA,NA,NA,NA
"12233.399999856949",NA,NA,"survey-text",57,198379,"0.0-13.0-3.6",78106,"ListB","man","chinese","CMB4",NA,NA,NA,NA,"{""Q0"":""卢克正在聘用霍普""}","<img src='gifs/ChineseGender1a.gif' style='height:400px;''></img>","聘用","正在聘用","chinese",NA
"null","<div style=""font-size:60px;"">+</div>",NA,"html-keyboard-response",58,198883,"0.0-13.0-0.7",78106,"ListB","man","chinese","CMB4",NA,NA,NA,"null",NA,NA,NA,NA,NA,NA
"null","<img src='gifs/BlackGender1b.gif' style='height:400px;''></img>",NA,"html-keyboard-response",59,200891,"0.0-13.0-1.7",78106,"ListB","man","chinese","CMB4",NA,NA,NA,"null",NA,NA,NA,NA,NA,NA
"null","正在接近",NA,"html-keyboard-response",60,203892,"0.0-13.0-2.7",78106,"ListB","man","chinese","CMB4",NA,NA,NA,"null",NA,NA,NA,NA,NA,NA
"18837",NA,NA,"survey-text",61,222730,"0.0-13.0-3.7",78106,"ListB","man","chinese","CMB4",NA,NA,NA,NA,"{""Q0"":""弗雷正在接近贝斯""}","<img src='gifs/BlackGender1b.gif' style='height:400px;''></img>","接近","正在接近","chinese",NA
"null","<div style=""font-size:60px;"">+</div>",NA,"html-keyboard-response",62,223231,"0.0-13.0-0.8",78106,"ListB","man","chinese","CMB4",NA,NA,NA,"null",NA,NA,NA,NA,NA,NA
"null","<img src='gifs/BlackGender2a.gif' style='height:400px;''></img>",NA,"html-keyboard-response",63,225232,"0.0-13.0-1.8",78106,"ListB","man","chinese","CMB4",NA,NA,NA,"null",NA,NA,NA,NA,NA,NA
"null","正在陪伴",NA,"html-keyboard-response",64,228233,"0.0-13.0-2.8",78106,"ListB","man","chinese","CMB4",NA,NA,NA,"null",NA,NA,NA,NA,NA,NA
"5398",NA,NA,"survey-text",65,233632,"0.0-13.0-3.8",78106,"ListB","man","chinese","CMB4",NA,NA,NA,NA,"{""Q0"":""贝斯正在陪伴麦克""}","<img src='gifs/BlackGender2a.gif' style='height:400px;''></img>","陪伴","正在陪伴","chinese",NA
"null","<div style=""font-size:60px;"">+</div>",NA,"html-keyboard-response",66,234141,"0.0-13.0-0.9",78106,"ListB","man","chinese","CMB4",NA,NA,NA,"null",NA,NA,NA,NA,NA,NA
"null","<img src='gifs/FemaleRace1b.gif' style='height:400px;''></img>",NA,"html-keyboard-response",67,236143,"0.0-13.0-1.9",78106,"ListB","man","chinese","CMB4",NA,NA,NA,"null",NA,NA,NA,NA,NA,NA
"null","正在触摸",NA,"html-keyboard-response",68,239144,"0.0-13.0-2.9",78106,"ListB","man","chinese","CMB4",NA,NA,NA,"null",NA,NA,NA,NA,NA,NA
"7441.900000095367",NA,NA,"survey-text",69,246588,"0.0-13.0-3.9",78106,"ListB","man","chinese","CMB4",NA,NA,NA,NA,"{""Q0"":""霍普正在接近贝斯""}","<img src='gifs/FemaleRace1b.gif' style='height:400px;''></img>","触摸","正在触摸","chinese",NA
"null","<div style=""font-size:60px;"">+</div>",NA,"html-keyboard-response",70,247102,"0.0-13.0-0.10",78106,"ListB","man","chinese","CMB4",NA,NA,NA,"null",NA,NA,NA,NA,NA,NA
"null","<img src='gifs/MaleRace2b.gif' style='height:400px;''></img>",NA,"html-keyboard-response",71,249104,"0.0-13.0-1.10",78106,"ListB","man","chinese","CMB4",NA,NA,NA,"null",NA,NA,NA,NA,NA,NA
"null","正在面向",NA,"html-keyboard-response",72,252106,"0.0-13.0-2.10",78106,"ListB","man","chinese","CMB4",NA,NA,NA,"null",NA,NA,NA,NA,NA,NA
"17324.39999985695",NA,NA,"survey-text",73,269432,"0.0-13.0-3.10",78106,"ListB","man","chinese","CMB4",NA,NA,NA,NA,"{""Q0"":""麦克正在面向卢克""}","<img src='gifs/MaleRace2b.gif' style='height:400px;''></img>","面向","正在面向","chinese",NA
"null","<div style=""font-size:60px;"">+</div>",NA,"html-keyboard-response",74,269948,"0.0-13.0-0.11",78106,"ListB","man","chinese","CMB4",NA,NA,NA,"null",NA,NA,NA,NA,NA,NA
"null","<img src='gifs/ChineseGender1b.gif' style='height:400px;''></img>",NA,"html-keyboard-response",75,271961,"0.0-13.0-1.11",78106,"ListB","man","chinese","CMB4",NA,NA,NA,"null",NA,NA,NA,NA,NA,NA
"null","正在走向",NA,"html-keyboard-response",76,274963,"0.0-13.0-2.11",78106,"ListB","man","chinese","CMB4",NA,NA,NA,"null",NA,NA,NA,NA,NA,NA
"7051",NA,NA,"survey-text",77,282015,"0.0-13.0-3.11",78106,"ListB","man","chinese","CMB4",NA,NA,NA,NA,"{""Q0"":""卢克正在走向霍普""}","<img src='gifs/ChineseGender1b.gif' style='height:400px;''></img>","走向","正在走向","chinese",NA
"null","<div style=""font-size:60px;"">+</div>",NA,"html-keyboard-response",78,282518,"0.0-13.0-0.12",78106,"ListB","man","chinese","CMB4",NA,NA,NA,"null",NA,NA,NA,NA,NA,NA
"null","<img src='gifs/MaleRace4a.gif' style='height:400px;''></img>",NA,"html-keyboard-response",79,284529,"0.0-13.0-1.12",78106,"ListB","man","chinese","CMB4",NA,NA,NA,"null",NA,NA,NA,NA,NA,NA
"null","正在接近",NA,"html-keyboard-response",80,287529,"0.0-13.0-2.12",78106,"ListB","man","chinese","CMB4",NA,NA,NA,"null",NA,NA,NA,NA,NA,NA
"6367.900000095367",NA,NA,"survey-text",81,293898,"0.0-13.0-3.12",78106,"ListB","man","chinese","CMB4",NA,NA,NA,NA,"{""Q0"":""戴夫正在接近麦克""}","<img src='gifs/MaleRace4a.gif' style='height:400px;''></img>","接近","正在接近","chinese",NA
"null","<div style=""font-size:60px;"">+</div>",NA,"html-keyboard-response",82,294407,"0.0-13.0-0.13",78106,"ListB","man","chinese","CMB4",NA,NA,NA,"null",NA,NA,NA,NA,NA,NA
"null","<img src='gifs/MaleRace3b.gif' style='height:400px;''></img>",NA,"html-keyboard-response",83,296414,"0.0-13.0-1.13",78106,"ListB","man","chinese","CMB4",NA,NA,NA,"null",NA,NA,NA,NA,NA,NA
"null","正在陪伴",NA,"html-keyboard-response",84,299431,"0.0-13.0-2.13",78106,"ListB","man","chinese","CMB4",NA,NA,NA,"null",NA,NA,NA,NA,NA,NA
"9229.600000143051",NA,NA,"survey-text",85,308661,"0.0-13.0-3.13",78106,"ListB","man","chinese","CMB4",NA,NA,NA,NA,"{""Q0"":""弗雷正在陪伴戴夫""}","<img src='gifs/MaleRace3b.gif' style='height:400px;''></img>","陪伴","正在陪伴","chinese",NA
"null","<div style=""font-size:60px;"">+</div>",NA,"html-keyboard-response",86,309168,"0.0-13.0-0.14",78106,"ListB","man","chinese","CMB4",NA,NA,NA,"null",NA,NA,NA,NA,NA,NA
"null","<img src='gifs/MaleRace3a.gif' style='height:400px;''></img>",NA,"html-keyboard-response",87,311169,"0.0-13.0-1.14",78106,"ListB","man","chinese","CMB4",NA,NA,NA,"null",NA,NA,NA,NA,NA,NA
"null","正在答应",NA,"html-keyboard-response",88,314170,"0.0-13.0-2.14",78106,"ListB","man","chinese","CMB4",NA,NA,NA,"null",NA,NA,NA,NA,NA,NA
"6576.200000047684",NA,NA,"survey-text",89,320747,"0.0-13.0-3.14",78106,"ListB","man","chinese","CMB4",NA,NA,NA,NA,"{""Q0"":""戴夫正在答应弗雷""}","<img src='gifs/MaleRace3a.gif' style='height:400px;''></img>","答应","正在答应","chinese",NA
"null","<div style=""font-size:60px;"">+</div>",NA,"html-keyboard-response",90,321253,"0.0-13.0-0.15",78106,"ListB","man","chinese","CMB4",NA,NA,NA,"null",NA,NA,NA,NA,NA,NA
"null","<img src='gifs/ChineseGender2b.gif' style='height:400px;''></img>",NA,"html-keyboard-response",91,323265,"0.0-13.0-1.15",78106,"ListB","man","chinese","CMB4",NA,NA,NA,"null",NA,NA,NA,NA,NA,NA
"null","正在接近",NA,"html-keyboard-response",92,326266,"0.0-13.0-2.15",78106,"ListB","man","chinese","CMB4",NA,NA,NA,"null",NA,NA,NA,NA,NA,NA
"4759.599999904633",NA,NA,"survey-text",93,331027,"0.0-13.0-3.15",78106,"ListB","man","chinese","CMB4",NA,NA,NA,NA,"{""Q0"":""露丝正在接近卢克""}","<img src='gifs/ChineseGender2b.gif' style='height:400px;''></img>","接近","正在接近","chinese",NA
"null","<div style=""font-size:60px;"">+</div>",NA,"html-keyboard-response",94,331529,"0.0-13.0-0.16",78106,"ListB","man","chinese","CMB4",NA,NA,NA,"null",NA,NA,NA,NA,NA,NA
"null","<img src='gifs/BlackGender3b.gif' style='height:400px;''></img>",NA,"html-keyboard-response",95,333543,"0.0-13.0-1.16",78106,"ListB","man","chinese","CMB4",NA,NA,NA,"null",NA,NA,NA,NA,NA,NA
"null","正在提到",NA,"html-keyboard-response",96,336551,"0.0-13.0-2.16",78106,"ListB","man","chinese","CMB4",NA,NA,NA,"null",NA,NA,NA,NA,NA,NA
"5182.5",NA,NA,"survey-text",97,341734,"0.0-13.0-3.16",78106,"ListB","man","chinese","CMB4",NA,NA,NA,NA,"{""Q0"":""弗雷正在提到凯特""}","<img src='gifs/BlackGender3b.gif' style='height:400px;''></img>","提到","正在提到","chinese",NA
"null","<div style=""font-size:60px;"">+</div>",NA,"html-keyboard-response",98,342236,"0.0-13.0-0.17",78106,"ListB","man","chinese","CMB4",NA,NA,NA,"null",NA,NA,NA,NA,NA,NA
"null","<img src='gifs/MaleRace2a.gif' style='height:400px;''></img>",NA,"html-keyboard-response",99,344237,"0.0-13.0-1.17",78106,"ListB","man","chinese","CMB4",NA,NA,NA,"null",NA,NA,NA,NA,NA,NA
"null","正在聆听",NA,"html-keyboard-response",100,347243,"0.0-13.0-2.17",78106,"ListB","man","chinese","CMB4",NA,NA,NA,"null",NA,NA,NA,NA,NA,NA
"7344",NA,NA,"survey-text",101,354589,"0.0-13.0-3.17",78106,"ListB","man","chinese","CMB4",NA,NA,NA,NA,"{""Q0"":""卢克正在聆听麦克""}","<img src='gifs/MaleRace2a.gif' style='height:400px;''></img>","聆听","正在聆听","chinese",NA
"1027.9000000953674","<img src='img/portrait_matrix_listB_chinese.jpg' style='width:900px;height:500px;''></img><p>如果您已经记住了所有的人物和名字，请点击继续。</p><p><strong>请注意：您对先前记忆的面孔将在本实验中被测试5次。</strong></p>",0,"html-button-response",102,355618,"0.0-14.0-0.0",78106,"ListB","man","chinese","CMB4",NA,NA,NA,NA,NA,NA,NA,NA,NA,NA
"2411.5999999046326","<img src=""portrait/BW1.jpg""style=""height:400px;""></img>",0,"html-button-response",103,359031,"0.0-14.0-1.0",78106,"ListB","man","chinese","CMB4",NA,"true",0,NA,NA,NA,NA,NA,NA,NA
"null","正确",NA,"html-keyboard-response",104,360533,"0.0-14.0-2.0-0.0",78106,"ListB","man","chinese","CMB4",NA,NA,NA,"null",NA,NA,NA,NA,NA,NA
"1385.1000001430511","<img src=""portrait/WW2.jpg""style=""height:400px;""></img>",3,"html-button-response",105,361919,"0.0-14.0-4.0",78106,"ListB","man","chinese","CMB4",NA,"true",3,NA,NA,NA,NA,NA,NA,NA
"null","正确",NA,"html-keyboard-response",106,363420,"0.0-14.0-5.0-0.0",78106,"ListB","man","chinese","CMB4",NA,NA,NA,"null",NA,NA,NA,NA,NA,NA
"2706.7000000476837","<img src=""portrait/WM2.jpg""style=""height:400px;""></img>",7,"html-button-response",107,366127,"0.0-14.0-7.0",78106,"ListB","man","chinese","CMB4",NA,"true",7,NA,NA,NA,NA,NA,NA,NA
"null","正确",NA,"html-keyboard-response",108,367639,"0.0-14.0-8.0-0.0",78106,"ListB","man","chinese","CMB4",NA,NA,NA,"null",NA,NA,NA,NA,NA,NA
"2195.2000000476837","<img src=""portrait/BW2.jpg""style=""height:400px;""></img>",2,"html-button-response",109,369835,"0.0-14.0-10.0",78106,"ListB","man","chinese","CMB4",NA,"true",2,NA,NA,NA,NA,NA,NA,NA
"null","正确",NA,"html-keyboard-response",110,371339,"0.0-14.0-11.0-0.0",78106,"ListB","man","chinese","CMB4",NA,NA,NA,"null",NA,NA,NA,NA,NA,NA
"3303.800000190735","<img src=""portrait/BM1.jpg""style=""height:400px;""></img>",4,"html-button-response",111,374644,"0.0-14.0-13.0",78106,"ListB","man","chinese","CMB4",NA,"true",4,NA,NA,NA,NA,NA,NA,NA
"null","正确",NA,"html-keyboard-response",112,376152,"0.0-14.0-14.0-0.0",78106,"ListB","man","chinese","CMB4",NA,NA,NA,"null",NA,NA,NA,NA,NA,NA
"3597.2999999523163","<img src=""portrait/BM2.jpg""style=""height:400px;""></img>",5,"html-button-response",113,379750,"0.0-14.0-16.0",78106,"ListB","man","chinese","CMB4",NA,"true",5,NA,NA,NA,NA,NA,NA,NA
"null","正确",NA,"html-keyboard-response",114,381274,"0.0-14.0-17.0-0.0",78106,"ListB","man","chinese","CMB4",NA,NA,NA,"null",NA,NA,NA,NA,NA,NA
"1539.7999999523163","<img src=""portrait/WW1.jpg""style=""height:400px;""></img>",1,"html-button-response",115,382815,"0.0-14.0-19.0",78106,"ListB","man","chinese","CMB4",NA,"true",1,NA,NA,NA,NA,NA,NA,NA
"null","正确",NA,"html-keyboard-response",116,384317,"0.0-14.0-20.0-0.0",78106,"ListB","man","chinese","CMB4",NA,NA,NA,"null",NA,NA,NA,NA,NA,NA
"3665.7000000476837","<img src=""portrait/WM1.jpg""style=""height:400px;""></img>",6,"html-button-response",117,387984,"0.0-14.0-22.0",78106,"ListB","man","chinese","CMB4",NA,"true",6,NA,NA,NA,NA,NA,NA,NA
"null","正确",NA,"html-keyboard-response",118,389506,"0.0-14.0-23.0-0.0",78106,"ListB","man","chinese","CMB4",NA,NA,NA,"null",NA,NA,NA,NA,NA,NA
"769.5","<p>您第一次在8题里答对了 8 题。 请点击继续</p>",0,"html-button-response",119,390277,"0.0-14.0-25.0",78106,"ListB","man","chinese","CMB4",NA,NA,NA,NA,NA,NA,NA,NA,NA,NA
"null","<div style=""font-size:60px;"">+</div>",NA,"html-keyboard-response",120,391797,"0.0-15.0-0.0",78106,"ListB","man","chinese","CMB4",NA,NA,NA,"null",NA,NA,NA,NA,NA,NA
"null","<img src='gifs/BlackGender3a.gif' style='height:400px;''></img>",NA,"html-keyboard-response",121,393799,"0.0-15.0-1.0",78106,"ListB","man","chinese","CMB4",NA,NA,NA,"null",NA,NA,NA,NA,NA,NA
"null","正在介绍",NA,"html-keyboard-response",122,396803,"0.0-15.0-2.0",78106,"ListB","man","chinese","CMB4",NA,NA,NA,"null",NA,NA,NA,NA,NA,NA
"5101.5",NA,NA,"survey-text",123,401906,"0.0-15.0-3.0",78106,"ListB","man","chinese","CMB4",NA,NA,NA,NA,"{""Q0"":""凯特正在介绍弗雷""}","<img src='gifs/BlackGender3a.gif' style='height:400px;''></img>","介绍","正在介绍","chinese",NA
"null","<div style=""font-size:60px;"">+</div>",NA,"html-keyboard-response",124,402407,"0.0-15.0-0.1",78106,"ListB","man","chinese","CMB4",NA,NA,NA,"null",NA,NA,NA,NA,NA,NA
"null","<img src='gifs/MaleRace1a.gif' style='height:400px;''></img>",NA,"html-keyboard-response",125,404409,"0.0-15.0-1.1",78106,"ListB","man","chinese","CMB4",NA,NA,NA,"null",NA,NA,NA,NA,NA,NA
"null","正在说服",NA,"html-keyboard-response",126,407413,"0.0-15.0-2.1",78106,"ListB","man","chinese","CMB4",NA,NA,NA,"null",NA,NA,NA,NA,NA,NA
"8986.700000047684",NA,NA,"survey-text",127,416402,"0.0-15.0-3.1",78106,"ListB","man","chinese","CMB4",NA,NA,NA,NA,"{""Q0"":""卢克正在说服弗雷""}","<img src='gifs/MaleRace1a.gif' style='height:400px;''></img>","说服","正在说服","chinese",NA
"null","<div style=""font-size:60px;"">+</div>",NA,"html-keyboard-response",128,416902,"0.0-15.0-0.2",78106,"ListB","man","chinese","CMB4",NA,NA,NA,"null",NA,NA,NA,NA,NA,NA
"null","<img src='gifs/MaleRace2a.gif' style='height:400px;''></img>",NA,"html-keyboard-response",129,418903,"0.0-15.0-1.2",78106,"ListB","man","chinese","CMB4",NA,NA,NA,"null",NA,NA,NA,NA,NA,NA
"null","正在加入",NA,"html-keyboard-response",130,421913,"0.0-15.0-2.2",78106,"ListB","man","chinese","CMB4",NA,NA,NA,"null",NA,NA,NA,NA,NA,NA
"9651.800000190735",NA,NA,"survey-text",131,431566,"0.0-15.0-3.2",78106,"ListB","man","chinese","CMB4",NA,NA,NA,NA,"{""Q0"":""麦克正在加入卢克""}","<img src='gifs/MaleRace2a.gif' style='height:400px;''></img>","加入","正在加入","chinese",NA
"null","<div style=""font-size:60px;"">+</div>",NA,"html-keyboard-response",132,432071,"0.0-15.0-0.3",78106,"ListB","man","chinese","CMB4",NA,NA,NA,"null",NA,NA,NA,NA,NA,NA
"null","<img src='gifs/MaleRace1a.gif' style='height:400px;''></img>",NA,"html-keyboard-response",133,434083,"0.0-15.0-1.3",78106,"ListB","man","chinese","CMB4",NA,NA,NA,"null",NA,NA,NA,NA,NA,NA
"null","正在触摸",NA,"html-keyboard-response",134,437087,"0.0-15.0-2.3",78106,"ListB","man","chinese","CMB4",NA,NA,NA,"null",NA,NA,NA,NA,NA,NA
"9845.400000095367",NA,NA,"survey-text",135,446934,"0.0-15.0-3.3",78106,"ListB","man","chinese","CMB4",NA,NA,NA,NA,"{""Q0"":""弗雷正在触摸卢克""}","<img src='gifs/MaleRace1a.gif' style='height:400px;''></img>","触摸","正在触摸","chinese",NA
"null","<div style=""font-size:60px;"">+</div>",NA,"html-keyboard-response",136,447435,"0.0-15.0-0.4",78106,"ListB","man","chinese","CMB4",NA,NA,NA,"null",NA,NA,NA,NA,NA,NA
"null","<img src='gifs/FemaleRace2a.gif' style='height:400px;''></img>",NA,"html-keyboard-response",137,449440,"0.0-15.0-1.4",78106,"ListB","man","chinese","CMB4",NA,NA,NA,"null",NA,NA,NA,NA,NA,NA
"null","正在说服",NA,"html-keyboard-response",138,452454,"0.0-15.0-2.4",78106,"ListB","man","chinese","CMB4",NA,NA,NA,"null",NA,NA,NA,NA,NA,NA
"4826.899999856949",NA,NA,"survey-text",139,457283,"0.0-15.0-3.4",78106,"ListB","man","chinese","CMB4",NA,NA,NA,NA,"{""Q0"":""凯特正在说服霍普""}","<img src='gifs/FemaleRace2a.gif' style='height:400px;''></img>","说服","正在说服","chinese",NA
"null","<div style=""font-size:60px;"">+</div>",NA,"html-keyboard-response",140,457796,"0.0-15.0-0.5",78106,"ListB","man","chinese","CMB4",NA,NA,NA,"null",NA,NA,NA,NA,NA,NA
"null","<img src='gifs/BlackGender1a.gif' style='height:400px;''></img>",NA,"html-keyboard-response",141,459798,"0.0-15.0-1.5",78106,"ListB","man","chinese","CMB4",NA,NA,NA,"null",NA,NA,NA,NA,NA,NA
"null","正在跟随",NA,"html-keyboard-response",142,462811,"0.0-15.0-2.5",78106,"ListB","man","chinese","CMB4",NA,NA,NA,"null",NA,NA,NA,NA,NA,NA
"6563.399999856949",NA,NA,"survey-text",143,469376,"0.0-15.0-3.5",78106,"ListB","man","chinese","CMB4",NA,NA,NA,NA,"{""Q0"":""贝斯正在跟随弗雷""}","<img src='gifs/BlackGender1a.gif' style='height:400px;''></img>","跟随","正在跟随","chinese",NA
"null","<div style=""font-size:60px;"">+</div>",NA,"html-keyboard-response",144,469879,"0.0-15.0-0.6",78106,"ListB","man","chinese","CMB4",NA,NA,NA,"null",NA,NA,NA,NA,NA,NA
"null","<img src='gifs/BlackGender4a.gif' style='height:400px;''></img>",NA,"html-keyboard-response",145,471882,"0.0-15.0-1.6",78106,"ListB","man","chinese","CMB4",NA,NA,NA,"null",NA,NA,NA,NA,NA,NA
"null","正在表扬",NA,"html-keyboard-response",146,474886,"0.0-15.0-2.6",78106,"ListB","man","chinese","CMB4",NA,NA,NA,"null",NA,NA,NA,NA,NA,NA
"9849.099999904633",NA,NA,"survey-text",147,484736,"0.0-15.0-3.6",78106,"ListB","man","chinese","CMB4",NA,NA,NA,NA,"{""Q0"":""凯特正在表扬麦克""}","<img src='gifs/BlackGender4a.gif' style='height:400px;''></img>","表扬","正在表扬","chinese",NA
"null","<div style=""font-size:60px;"">+</div>",NA,"html-keyboard-response",148,485237,"0.0-15.0-0.7",78106,"ListB","man","chinese","CMB4",NA,NA,NA,"null",NA,NA,NA,NA,NA,NA
"null","<img src='gifs/ChineseGender2b.gif' style='height:400px;''></img>",NA,"html-keyboard-response",149,487240,"0.0-15.0-1.7",78106,"ListB","man","chinese","CMB4",NA,NA,NA,"null",NA,NA,NA,NA,NA,NA
"null","正在看着",NA,"html-keyboard-response",150,490242,"0.0-15.0-2.7",78106,"ListB","man","chinese","CMB4",NA,NA,NA,"null",NA,NA,NA,NA,NA,NA
"5772.900000095367",NA,NA,"survey-text",151,496016,"0.0-15.0-3.7",78106,"ListB","man","chinese","CMB4",NA,NA,NA,NA,"{""Q0"":""卢克正在看着露丝""}","<img src='gifs/ChineseGender2b.gif' style='height:400px;''></img>","看着","正在看着","chinese",NA
"null","<div style=""font-size:60px;"">+</div>",NA,"html-keyboard-response",152,496523,"0.0-15.0-0.8",78106,"ListB","man","chinese","CMB4",NA,NA,NA,"null",NA,NA,NA,NA,NA,NA
"null","<img src='gifs/FemaleRace2b.gif' style='height:400px;''></img>",NA,"html-keyboard-response",153,498525,"0.0-15.0-1.8",78106,"ListB","man","chinese","CMB4",NA,NA,NA,"null",NA,NA,NA,NA,NA,NA
"null","正在表扬",NA,"html-keyboard-response",154,501540,"0.0-15.0-2.8",78106,"ListB","man","chinese","CMB4",NA,NA,NA,"null",NA,NA,NA,NA,NA,NA
"6338",NA,NA,"survey-text",155,507879,"0.0-15.0-3.8",78106,"ListB","man","chinese","CMB4",NA,NA,NA,NA,"{""Q0"":""凯特正在表扬露丝""}","<img src='gifs/FemaleRace2b.gif' style='height:400px;''></img>","表扬","正在表扬","chinese",NA
"null","<div style=""font-size:60px;"">+</div>",NA,"html-keyboard-response",156,508381,"0.0-15.0-0.9",78106,"ListB","man","chinese","CMB4",NA,NA,NA,"null",NA,NA,NA,NA,NA,NA
"null","<img src='gifs/ChineseGender4b.gif' style='height:400px;''></img>",NA,"html-keyboard-response",157,510382,"0.0-15.0-1.9",78106,"ListB","man","chinese","CMB4",NA,NA,NA,"null",NA,NA,NA,NA,NA,NA
"null","正在说服",NA,"html-keyboard-response",158,513383,"0.0-15.0-2.9",78106,"ListB","man","chinese","CMB4",NA,NA,NA,"null",NA,NA,NA,NA,NA,NA
"5259.5",NA,NA,"survey-text",159,518644,"0.0-15.0-3.9",78106,"ListB","man","chinese","CMB4",NA,NA,NA,NA,"{""Q0"":""霍普正在说服戴夫""}","<img src='gifs/ChineseGender4b.gif' style='height:400px;''></img>","说服","正在说服","chinese",NA
"null","<div style=""font-size:60px;"">+</div>",NA,"html-keyboard-response",160,519157,"0.0-15.0-0.10",78106,"ListB","man","chinese","CMB4",NA,NA,NA,"null",NA,NA,NA,NA,NA,NA
"null","<img src='gifs/ChineseGender3b.gif' style='height:400px;''></img>",NA,"html-keyboard-response",161,521158,"0.0-15.0-1.10",78106,"ListB","man","chinese","CMB4",NA,NA,NA,"null",NA,NA,NA,NA,NA,NA
"null","正在表扬",NA,"html-keyboard-response",162,524158,"0.0-15.0-2.10",78106,"ListB","man","chinese","CMB4",NA,NA,NA,"null",NA,NA,NA,NA,NA,NA
"4773.600000143051",NA,NA,"survey-text",163,528933,"0.0-15.0-3.10",78106,"ListB","man","chinese","CMB4",NA,NA,NA,NA,"{""Q0"":""露丝正在表扬戴夫""}","<img src='gifs/ChineseGender3b.gif' style='height:400px;''></img>","表扬","正在表扬","chinese",NA
"null","<div style=""font-size:60px;"">+</div>",NA,"html-keyboard-response",164,529435,"0.0-15.0-0.11",78106,"ListB","man","chinese","CMB4",NA,NA,NA,"null",NA,NA,NA,NA,NA,NA
"null","<img src='gifs/MaleRace3b.gif' style='height:400px;''></img>",NA,"html-keyboard-response",165,531448,"0.0-15.0-1.11",78106,"ListB","man","chinese","CMB4",NA,NA,NA,"null",NA,NA,NA,NA,NA,NA
"null","正在触摸",NA,"html-keyboard-response",166,534449,"0.0-15.0-2.11",78106,"ListB","man","chinese","CMB4",NA,NA,NA,"null",NA,NA,NA,NA,NA,NA
"11534.900000095367",NA,NA,"survey-text",167,545984,"0.0-15.0-3.11",78106,"ListB","man","chinese","CMB4",NA,NA,NA,NA,"{""Q0"":""戴夫正在触摸弗雷""}","<img src='gifs/MaleRace3b.gif' style='height:400px;''></img>","触摸","正在触摸","chinese",NA
"null","<div style=""font-size:60px;"">+</div>",NA,"html-keyboard-response",168,546486,"0.0-15.0-0.12",78106,"ListB","man","chinese","CMB4",NA,NA,NA,"null",NA,NA,NA,NA,NA,NA
"null","<img src='gifs/MaleRace1b.gif' style='height:400px;''></img>",NA,"html-keyboard-response",169,548497,"0.0-15.0-1.12",78106,"ListB","man","chinese","CMB4",NA,NA,NA,"null",NA,NA,NA,NA,NA,NA
"null","正在答应",NA,"html-keyboard-response",170,551498,"0.0-15.0-2.12",78106,"ListB","man","chinese","CMB4",NA,NA,NA,"null",NA,NA,NA,NA,NA,NA
"7759.799999952316",NA,NA,"survey-text",171,559259,"0.0-15.0-3.12",78106,"ListB","man","chinese","CMB4",NA,NA,NA,NA,"{""Q0"":""卢克正在答应弗雷""}","<img src='gifs/MaleRace1b.gif' style='height:400px;''></img>","答应","正在答应","chinese",NA
"null","<div style=""font-size:60px;"">+</div>",NA,"html-keyboard-response",172,559767,"0.0-15.0-0.13",78106,"ListB","man","chinese","CMB4",NA,NA,NA,"null",NA,NA,NA,NA,NA,NA
"null","<img src='gifs/FemaleRace4a.gif' style='height:400px;''></img>",NA,"html-keyboard-response",173,561769,"0.0-15.0-1.13",78106,"ListB","man","chinese","CMB4",NA,NA,NA,"null",NA,NA,NA,NA,NA,NA
"null","正在走向",NA,"html-keyboard-response",174,564785,"0.0-15.0-2.13",78106,"ListB","man","chinese","CMB4",NA,NA,NA,"null",NA,NA,NA,NA,NA,NA
"4390",NA,NA,"survey-text",175,569176,"0.0-15.0-3.13",78106,"ListB","man","chinese","CMB4",NA,NA,NA,NA,"{""Q0"":""凯特正在走向露丝""}","<img src='gifs/FemaleRace4a.gif' style='height:400px;''></img>","走向","正在走向","chinese",NA
"null","<div style=""font-size:60px;"">+</div>",NA,"html-keyboard-response",176,569676,"0.0-15.0-0.14",78106,"ListB","man","chinese","CMB4",NA,NA,NA,"null",NA,NA,NA,NA,NA,NA
"null","<img src='gifs/FemaleRace4a.gif' style='height:400px;''></img>",NA,"html-keyboard-response",177,571678,"0.0-15.0-1.14",78106,"ListB","man","chinese","CMB4",NA,NA,NA,"null",NA,NA,NA,NA,NA,NA
"null","正在答应",NA,"html-keyboard-response",178,574682,"0.0-15.0-2.14",78106,"ListB","man","chinese","CMB4",NA,NA,NA,"null",NA,NA,NA,NA,NA,NA
"4691.600000143051",NA,NA,"survey-text",179,579374,"0.0-15.0-3.14",78106,"ListB","man","chinese","CMB4",NA,NA,NA,NA,"{""Q0"":""露丝正在答应凯特""}","<img src='gifs/FemaleRace4a.gif' style='height:400px;''></img>","答应","正在答应","chinese",NA
"null","<div style=""font-size:60px;"">+</div>",NA,"html-keyboard-response",180,579880,"0.0-15.0-0.15",78106,"ListB","man","chinese","CMB4",NA,NA,NA,"null",NA,NA,NA,NA,NA,NA
"null","<img src='gifs/FemaleRace4b.gif' style='height:400px;''></img>",NA,"html-keyboard-response",181,581882,"0.0-15.0-1.15",78106,"ListB","man","chinese","CMB4",NA,NA,NA,"null",NA,NA,NA,NA,NA,NA
"null","正在答应",NA,"html-keyboard-response",182,584884,"0.0-15.0-2.15",78106,"ListB","man","chinese","CMB4",NA,NA,NA,"null",NA,NA,NA,NA,NA,NA
"3896.399999856949",NA,NA,"survey-text",183,588782,"0.0-15.0-3.15",78106,"ListB","man","chinese","CMB4",NA,NA,NA,NA,"{""Q0"":""露丝正在答应凯特""}","<img src='gifs/FemaleRace4b.gif' style='height:400px;''></img>","答应","正在答应","chinese",NA
"null","<div style=""font-size:60px;"">+</div>",NA,"html-keyboard-response",184,589283,"0.0-15.0-0.16",78106,"ListB","man","chinese","CMB4",NA,NA,NA,"null",NA,NA,NA,NA,NA,NA
"null","<img src='gifs/ChineseGender4a.gif' style='height:400px;''></img>",NA,"html-keyboard-response",185,591288,"0.0-15.0-1.16",78106,"ListB","man","chinese","CMB4",NA,NA,NA,"null",NA,NA,NA,NA,NA,NA
"null","正在跟随",NA,"html-keyboard-response",186,594288,"0.0-15.0-2.16",78106,"ListB","man","chinese","CMB4",NA,NA,NA,"null",NA,NA,NA,NA,NA,NA
"10088.400000095367",NA,NA,"survey-text",187,604378,"0.0-15.0-3.16",78106,"ListB","man","chinese","CMB4",NA,NA,NA,NA,"{""Q0"":""霍普正在跟随戴夫""}","<img src='gifs/ChineseGender4a.gif' style='height:400px;''></img>","跟随","正在跟随","chinese",NA
"null","<div style=""font-size:60px;"">+</div>",NA,"html-keyboard-response",188,604892,"0.0-15.0-0.17",78106,"ListB","man","chinese","CMB4",NA,NA,NA,"null",NA,NA,NA,NA,NA,NA
"null","<img src='gifs/FemaleRace3a.gif' style='height:400px;''></img>",NA,"html-keyboard-response",189,606893,"0.0-15.0-1.17",78106,"ListB","man","chinese","CMB4",NA,NA,NA,"null",NA,NA,NA,NA,NA,NA
"null","正在聘用",NA,"html-keyboard-response",190,609908,"0.0-15.0-2.17",78106,"ListB","man","chinese","CMB4",NA,NA,NA,"null",NA,NA,NA,NA,NA,NA
"4781.299999952316",NA,NA,"survey-text",191,614691,"0.0-15.0-3.17",78106,"ListB","man","chinese","CMB4",NA,NA,NA,NA,"{""Q0"":""贝斯正在聘用露丝""}","<img src='gifs/FemaleRace3a.gif' style='height:400px;''></img>","聘用","正在聘用","chinese",NA
"1287.2000000476837","<img src='img/portrait_matrix_listB_chinese.jpg' style='width:900px;height:500px;''></img><p>如果您已经记住了所有的人物和名字，请点击继续。</p><p><strong>请注意：您对先前记忆的面孔将在本实验中被测试5次。</strong></p>",0,"html-button-response",192,615979,"0.0-16.0-0.0",78106,"ListB","man","chinese","CMB4",NA,NA,NA,NA,NA,NA,NA,NA,NA,NA
"44961","<img src=""portrait/WW1.jpg""style=""height:400px;""></img>",1,"html-button-response",193,661950,"0.0-16.0-1.0",78106,"ListB","man","chinese","CMB4",NA,"true",1,NA,NA,NA,NA,NA,NA,NA
"null","正确",NA,"html-keyboard-response",194,663462,"0.0-16.0-2.0-0.0",78106,"ListB","man","chinese","CMB4",NA,NA,NA,"null",NA,NA,NA,NA,NA,NA
"3927","<img src=""portrait/BM2.jpg""style=""height:400px;""></img>",5,"html-button-response",195,667390,"0.0-16.0-4.0",78106,"ListB","man","chinese","CMB4",NA,"true",5,NA,NA,NA,NA,NA,NA,NA
"null","正确",NA,"html-keyboard-response",196,668906,"0.0-16.0-5.0-0.0",78106,"ListB","man","chinese","CMB4",NA,NA,NA,"null",NA,NA,NA,NA,NA,NA
"1400.6999998092651","<img src=""portrait/BW2.jpg""style=""height:400px;""></img>",2,"html-button-response",197,670308,"0.0-16.0-7.0",78106,"ListB","man","chinese","CMB4",NA,"true",2,NA,NA,NA,NA,NA,NA,NA
"null","正确",NA,"html-keyboard-response",198,671810,"0.0-16.0-8.0-0.0",78106,"ListB","man","chinese","CMB4",NA,NA,NA,"null",NA,NA,NA,NA,NA,NA
"956.3999998569489","<img src=""portrait/WW2.jpg""style=""height:400px;""></img>",3,"html-button-response",199,672767,"0.0-16.0-10.0",78106,"ListB","man","chinese","CMB4",NA,"true",3,NA,NA,NA,NA,NA,NA,NA
"null","正确",NA,"html-keyboard-response",200,674271,"0.0-16.0-11.0-0.0",78106,"ListB","man","chinese","CMB4",NA,NA,NA,"null",NA,NA,NA,NA,NA,NA
"5147.5","<img src=""portrait/WM1.jpg""style=""height:400px;""></img>",6,"html-button-response",201,679420,"0.0-16.0-13.0",78106,"ListB","man","chinese","CMB4",NA,"true",6,NA,NA,NA,NA,NA,NA,NA
"null","正确",NA,"html-keyboard-response",202,680931,"0.0-16.0-14.0-0.0",78106,"ListB","man","chinese","CMB4",NA,NA,NA,"null",NA,NA,NA,NA,NA,NA
"12407.700000047684","<img src=""portrait/BW1.jpg""style=""height:400px;""></img>",0,"html-button-response",203,693339,"0.0-16.0-16.0",78106,"ListB","man","chinese","CMB4",NA,"true",0,NA,NA,NA,NA,NA,NA,NA
"null","正确",NA,"html-keyboard-response",204,694841,"0.0-16.0-17.0-0.0",78106,"ListB","man","chinese","CMB4",NA,NA,NA,"null",NA,NA,NA,NA,NA,NA
"21861.799999952316","<img src=""portrait/BM1.jpg""style=""height:400px;""></img>",4,"html-button-response",205,716704,"0.0-16.0-19.0",78106,"ListB","man","chinese","CMB4",NA,"true",4,NA,NA,NA,NA,NA,NA,NA
"null","正确",NA,"html-keyboard-response",206,718212,"0.0-16.0-20.0-0.0",78106,"ListB","man","chinese","CMB4",NA,NA,NA,"null",NA,NA,NA,NA,NA,NA
"8686","<img src=""portrait/WM2.jpg""style=""height:400px;""></img>",7,"html-button-response",207,726899,"0.0-16.0-22.0",78106,"ListB","man","chinese","CMB4",NA,"true",7,NA,NA,NA,NA,NA,NA,NA
"null","正确",NA,"html-keyboard-response",208,728405,"0.0-16.0-23.0-0.0",78106,"ListB","man","chinese","CMB4",NA,NA,NA,"null",NA,NA,NA,NA,NA,NA
"1100.2000000476837","<p>您第一次在8题里答对了 8 题。 请点击继续</p>",0,"html-button-response",209,729506,"0.0-16.0-25.0",78106,"ListB","man","chinese","CMB4",NA,NA,NA,NA,NA,NA,NA,NA,NA,NA
"null","<div style=""font-size:60px;"">+</div>",NA,"html-keyboard-response",210,731019,"0.0-17.0-0.0",78106,"ListB","man","chinese","CMB4",NA,NA,NA,"null",NA,NA,NA,NA,NA,NA
"null","<img src='gifs/BlackGender1a.gif' style='height:400px;''></img>",NA,"html-keyboard-response",211,733020,"0.0-17.0-1.0",78106,"ListB","man","chinese","CMB4",NA,NA,NA,"null",NA,NA,NA,NA,NA,NA
"null","正在介绍",NA,"html-keyboard-response",212,736022,"0.0-17.0-2.0",78106,"ListB","man","chinese","CMB4",NA,NA,NA,"null",NA,NA,NA,NA,NA,NA
"7272",NA,NA,"survey-text",213,743296,"0.0-17.0-3.0",78106,"ListB","man","chinese","CMB4",NA,NA,NA,NA,"{""Q0"":""弗雷正在介绍贝斯""}","<img src='gifs/BlackGender1a.gif' style='height:400px;''></img>","介绍","正在介绍","chinese",NA
"null","<div style=""font-size:60px;"">+</div>",NA,"html-keyboard-response",214,743805,"0.0-17.0-0.1",78106,"ListB","man","chinese","CMB4",NA,NA,NA,"null",NA,NA,NA,NA,NA,NA
"null","<img src='gifs/ChineseGender4a.gif' style='height:400px;''></img>",NA,"html-keyboard-response",215,745810,"0.0-17.0-1.1",78106,"ListB","man","chinese","CMB4",NA,NA,NA,"null",NA,NA,NA,NA,NA,NA
"null","正在介绍",NA,"html-keyboard-response",216,748813,"0.0-17.0-2.1",78106,"ListB","man","chinese","CMB4",NA,NA,NA,"null",NA,NA,NA,NA,NA,NA
"6649.100000143051",NA,NA,"survey-text",217,755464,"0.0-17.0-3.1",78106,"ListB","man","chinese","CMB4",NA,NA,NA,NA,"{""Q0"":""霍普正在介绍戴夫""}","<img src='gifs/ChineseGender4a.gif' style='height:400px;''></img>","介绍","正在介绍","chinese",NA
"null","<div style=""font-size:60px;"">+</div>",NA,"html-keyboard-response",218,755965,"0.0-17.0-0.2",78106,"ListB","man","chinese","CMB4",NA,NA,NA,"null",NA,NA,NA,NA,NA,NA
"null","<img src='gifs/FemaleRace1a.gif' style='height:400px;''></img>",NA,"html-keyboard-response",219,757967,"0.0-17.0-1.2",78106,"ListB","man","chinese","CMB4",NA,NA,NA,"null",NA,NA,NA,NA,NA,NA
"null","正在面向",NA,"html-keyboard-response",220,760969,"0.0-17.0-2.2",78106,"ListB","man","chinese","CMB4",NA,NA,NA,"null",NA,NA,NA,NA,NA,NA
"4271.900000095367",NA,NA,"survey-text",221,765243,"0.0-17.0-3.2",78106,"ListB","man","chinese","CMB4",NA,NA,NA,NA,"{""Q0"":""霍普正在面向贝斯""}","<img src='gifs/FemaleRace1a.gif' style='height:400px;''></img>","面向","正在面向","chinese",NA
"null","<div style=""font-size:60px;"">+</div>",NA,"html-keyboard-response",222,765744,"0.0-17.0-0.3",78106,"ListB","man","chinese","CMB4",NA,NA,NA,"null",NA,NA,NA,NA,NA,NA
"null","<img src='gifs/BlackGender2a.gif' style='height:400px;''></img>",NA,"html-keyboard-response",223,767745,"0.0-17.0-1.3",78106,"ListB","man","chinese","CMB4",NA,NA,NA,"null",NA,NA,NA,NA,NA,NA
"null","正在跟随",NA,"html-keyboard-response",224,770760,"0.0-17.0-2.3",78106,"ListB","man","chinese","CMB4",NA,NA,NA,"null",NA,NA,NA,NA,NA,NA
"8921.200000047684",NA,NA,"survey-text",225,779683,"0.0-17.0-3.3",78106,"ListB","man","chinese","CMB4",NA,NA,NA,NA,"{""Q0"":""麦克正在跟随贝斯""}","<img src='gifs/BlackGender2a.gif' style='height:400px;''></img>","跟随","正在跟随","chinese",NA
"null","<div style=""font-size:60px;"">+</div>",NA,"html-keyboard-response",226,780186,"0.0-17.0-0.4",78106,"ListB","man","chinese","CMB4",NA,NA,NA,"null",NA,NA,NA,NA,NA,NA
"null","<img src='gifs/MaleRace4a.gif' style='height:400px;''></img>",NA,"html-keyboard-response",227,782186,"0.0-17.0-1.4",78106,"ListB","man","chinese","CMB4",NA,NA,NA,"null",NA,NA,NA,NA,NA,NA
"null","正在加入",NA,"html-keyboard-response",228,785195,"0.0-17.0-2.4",78106,"ListB","man","chinese","CMB4",NA,NA,NA,"null",NA,NA,NA,NA,NA,NA
"15261.199999809265",NA,NA,"survey-text",229,800458,"0.0-17.0-3.4",78106,"ListB","man","chinese","CMB4",NA,NA,NA,NA,"{""Q0"":""麦克正在加入戴夫""}","<img src='gifs/MaleRace4a.gif' style='height:400px;''></img>","加入","正在加入","chinese",NA
"null","<div style=""font-size:60px;"">+</div>",NA,"html-keyboard-response",230,800959,"0.0-17.0-0.5",78106,"ListB","man","chinese","CMB4",NA,NA,NA,"null",NA,NA,NA,NA,NA,NA
"null","<img src='gifs/ChineseGender3a.gif' style='height:400px;''></img>",NA,"html-keyboard-response",231,802968,"0.0-17.0-1.5",78106,"ListB","man","chinese","CMB4",NA,NA,NA,"null",NA,NA,NA,NA,NA,NA
"null","正在联系",NA,"html-keyboard-response",232,805979,"0.0-17.0-2.5",78106,"ListB","man","chinese","CMB4",NA,NA,NA,"null",NA,NA,NA,NA,NA,NA
"3949.100000143051",NA,NA,"survey-text",233,809929,"0.0-17.0-3.5",78106,"ListB","man","chinese","CMB4",NA,NA,NA,NA,"{""Q0"":""戴夫正在联系露丝""}","<img src='gifs/ChineseGender3a.gif' style='height:400px;''></img>","联系","正在联系","chinese",NA
"null","<div style=""font-size:60px;"">+</div>",NA,"html-keyboard-response",234,810430,"0.0-17.0-0.6",78106,"ListB","man","chinese","CMB4",NA,NA,NA,"null",NA,NA,NA,NA,NA,NA
"null","<img src='gifs/FemaleRace1b.gif' style='height:400px;''></img>",NA,"html-keyboard-response",235,812431,"0.0-17.0-1.6",78106,"ListB","man","chinese","CMB4",NA,NA,NA,"null",NA,NA,NA,NA,NA,NA
"null","正在走向",NA,"html-keyboard-response",236,815431,"0.0-17.0-2.6",78106,"ListB","man","chinese","CMB4",NA,NA,NA,"null",NA,NA,NA,NA,NA,NA
"7557.899999856949",NA,NA,"survey-text",237,822990,"0.0-17.0-3.6",78106,"ListB","man","chinese","CMB4",NA,NA,NA,NA,"{""Q0"":""贝斯正在走向霍普""}","<img src='gifs/FemaleRace1b.gif' style='height:400px;''></img>","走向","正在走向","chinese",NA
"null","<div style=""font-size:60px;"">+</div>",NA,"html-keyboard-response",238,823491,"0.0-17.0-0.7",78106,"ListB","man","chinese","CMB4",NA,NA,NA,"null",NA,NA,NA,NA,NA,NA
"null","<img src='gifs/BlackGender2b.gif' style='height:400px;''></img>",NA,"html-keyboard-response",239,825500,"0.0-17.0-1.7",78106,"ListB","man","chinese","CMB4",NA,NA,NA,"null",NA,NA,NA,NA,NA,NA
"null","正在陪伴",NA,"html-keyboard-response",240,828509,"0.0-17.0-2.7",78106,"ListB","man","chinese","CMB4",NA,NA,NA,"null",NA,NA,NA,NA,NA,NA
"22046.699999809265",NA,NA,"survey-text",241,850557,"0.0-17.0-3.7",78106,"ListB","man","chinese","CMB4",NA,NA,NA,NA,"{""Q0"":""贝斯正在陪伴麦克""}","<img src='gifs/BlackGender2b.gif' style='height:400px;''></img>","陪伴","正在陪伴","chinese",NA
"null","<div style=""font-size:60px;"">+</div>",NA,"html-keyboard-response",242,851061,"0.0-17.0-0.8",78106,"ListB","man","chinese","CMB4",NA,NA,NA,"null",NA,NA,NA,NA,NA,NA
"null","<img src='gifs/MaleRace2b.gif' style='height:400px;''></img>",NA,"html-keyboard-response",243,853068,"0.0-17.0-1.8",78106,"ListB","man","chinese","CMB4",NA,NA,NA,"null",NA,NA,NA,NA,NA,NA
"null","正在聘用",NA,"html-keyboard-response",244,856083,"0.0-17.0-2.8",78106,"ListB","man","chinese","CMB4",NA,NA,NA,"null",NA,NA,NA,NA,NA,NA
"4887.600000143051",NA,NA,"survey-text",245,860971,"0.0-17.0-3.8",78106,"ListB","man","chinese","CMB4",NA,NA,NA,NA,"{""Q0"":""卢克正在聘用麦克""}","<img src='gifs/MaleRace2b.gif' style='height:400px;''></img>","聘用","正在聘用","chinese",NA
"null","<div style=""font-size:60px;"">+</div>",NA,"html-keyboard-response",246,861479,"0.0-17.0-0.9",78106,"ListB","man","chinese","CMB4",NA,NA,NA,"null",NA,NA,NA,NA,NA,NA
"null","<img src='gifs/ChineseGender1a.gif' style='height:400px;''></img>",NA,"html-keyboard-response",247,863494,"0.0-17.0-1.9",78106,"ListB","man","chinese","CMB4",NA,NA,NA,"null",NA,NA,NA,NA,NA,NA
"null","正在联系",NA,"html-keyboard-response",248,866503,"0.0-17.0-2.9",78106,"ListB","man","chinese","CMB4",NA,NA,NA,"null",NA,NA,NA,NA,NA,NA
"5413.399999856949",NA,NA,"survey-text",249,871918,"0.0-17.0-3.9",78106,"ListB","man","chinese","CMB4",NA,NA,NA,NA,"{""Q0"":""霍普正在联系卢克""}","<img src='gifs/ChineseGender1a.gif' style='height:400px;''></img>","联系","正在联系","chinese",NA
"null","<div style=""font-size:60px;"">+</div>",NA,"html-keyboard-response",250,872420,"0.0-17.0-0.10",78106,"ListB","man","chinese","CMB4",NA,NA,NA,"null",NA,NA,NA,NA,NA,NA
"null","<img src='gifs/MaleRace3a.gif' style='height:400px;''></img>",NA,"html-keyboard-response",251,874424,"0.0-17.0-1.10",78106,"ListB","man","chinese","CMB4",NA,NA,NA,"null",NA,NA,NA,NA,NA,NA
"null","正在陪伴",NA,"html-keyboard-response",252,877427,"0.0-17.0-2.10",78106,"ListB","man","chinese","CMB4",NA,NA,NA,"null",NA,NA,NA,NA,NA,NA
"10729.299999952316",NA,NA,"survey-text",253,888158,"0.0-17.0-3.10",78106,"ListB","man","chinese","CMB4",NA,NA,NA,NA,"{""Q0"":""弗雷正在陪伴戴夫""}","<img src='gifs/MaleRace3a.gif' style='height:400px;''></img>","陪伴","正在陪伴","chinese",NA
"null","<div style=""font-size:60px;"">+</div>",NA,"html-keyboard-response",254,888664,"0.0-17.0-0.11",78106,"ListB","man","chinese","CMB4",NA,NA,NA,"null",NA,NA,NA,NA,NA,NA
"null","<img src='gifs/FemaleRace3b.gif' style='height:400px;''></img>",NA,"html-keyboard-response",255,890665,"0.0-17.0-1.11",78106,"ListB","man","chinese","CMB4",NA,NA,NA,"null",NA,NA,NA,NA,NA,NA
"null","正在面向",NA,"html-keyboard-response",256,893681,"0.0-17.0-2.11",78106,"ListB","man","chinese","CMB4",NA,NA,NA,"null",NA,NA,NA,NA,NA,NA
"4418.5",NA,NA,"survey-text",257,898101,"0.0-17.0-3.11",78106,"ListB","man","chinese","CMB4",NA,NA,NA,NA,"{""Q0"":""贝斯正在面向露丝""}","<img src='gifs/FemaleRace3b.gif' style='height:400px;''></img>","面向","正在面向","chinese",NA
"null","<div style=""font-size:60px;"">+</div>",NA,"html-keyboard-response",258,898602,"0.0-17.0-0.12",78106,"ListB","man","chinese","CMB4",NA,NA,NA,"null",NA,NA,NA,NA,NA,NA
"null","<img src='gifs/FemaleRace4b.gif' style='height:400px;''></img>",NA,"html-keyboard-response",259,900603,"0.0-17.0-1.12",78106,"ListB","man","chinese","CMB4",NA,NA,NA,"null",NA,NA,NA,NA,NA,NA
"null","正在介绍",NA,"html-keyboard-response",260,903610,"0.0-17.0-2.12",78106,"ListB","man","chinese","CMB4",NA,NA,NA,"null",NA,NA,NA,NA,NA,NA
"3861.399999856949",NA,NA,"survey-text",261,907472,"0.0-17.0-3.12",78106,"ListB","man","chinese","CMB4",NA,NA,NA,NA,"{""Q0"":""凯特正在介绍露丝""}","<img src='gifs/FemaleRace4b.gif' style='height:400px;''></img>","介绍","正在介绍","chinese",NA
"null","<div style=""font-size:60px;"">+</div>",NA,"html-keyboard-response",262,907980,"0.0-17.0-0.13",78106,"ListB","man","chinese","CMB4",NA,NA,NA,"null",NA,NA,NA,NA,NA,NA
"null","<img src='gifs/BlackGender1b.gif' style='height:400px;''></img>",NA,"html-keyboard-response",263,909982,"0.0-17.0-1.13",78106,"ListB","man","chinese","CMB4",NA,NA,NA,"null",NA,NA,NA,NA,NA,NA
"null","正在聆听",NA,"html-keyboard-response",264,912984,"0.0-17.0-2.13",78106,"ListB","man","chinese","CMB4",NA,NA,NA,"null",NA,NA,NA,NA,NA,NA
"5678.100000143051",NA,NA,"survey-text",265,918663,"0.0-17.0-3.13",78106,"ListB","man","chinese","CMB4",NA,NA,NA,NA,"{""Q0"":""贝斯正在聆听弗雷""}","<img src='gifs/BlackGender1b.gif' style='height:400px;''></img>","聆听","正在聆听","chinese",NA
"null","<div style=""font-size:60px;"">+</div>",NA,"html-keyboard-response",266,919175,"0.0-17.0-0.14",78106,"ListB","man","chinese","CMB4",NA,NA,NA,"null",NA,NA,NA,NA,NA,NA
"null","<img src='gifs/ChineseGender3b.gif' style='height:400px;''></img>",NA,"html-keyboard-response",267,921177,"0.0-17.0-1.14",78106,"ListB","man","chinese","CMB4",NA,NA,NA,"null",NA,NA,NA,NA,NA,NA
"null","正在聆听",NA,"html-keyboard-response",268,924184,"0.0-17.0-2.14",78106,"ListB","man","chinese","CMB4",NA,NA,NA,"null",NA,NA,NA,NA,NA,NA
"7808.600000143051",NA,NA,"survey-text",269,931994,"0.0-17.0-3.14",78106,"ListB","man","chinese","CMB4",NA,NA,NA,NA,"{""Q0"":""戴夫正在聆听露丝""}","<img src='gifs/ChineseGender3b.gif' style='height:400px;''></img>","聆听","正在聆听","chinese",NA
"null","<div style=""font-size:60px;"">+</div>",NA,"html-keyboard-response",270,932497,"0.0-17.0-0.15",78106,"ListB","man","chinese","CMB4",NA,NA,NA,"null",NA,NA,NA,NA,NA,NA
"null","<img src='gifs/MaleRace4b.gif' style='height:400px;''></img>",NA,"html-keyboard-response",271,934498,"0.0-17.0-1.15",78106,"ListB","man","chinese","CMB4",NA,NA,NA,"null",NA,NA,NA,NA,NA,NA
"null","正在说服",NA,"html-keyboard-response",272,937510,"0.0-17.0-2.15",78106,"ListB","man","chinese","CMB4",NA,NA,NA,"null",NA,NA,NA,NA,NA,NA
"4805",NA,NA,"survey-text",273,942316,"0.0-17.0-3.15",78106,"ListB","man","chinese","CMB4",NA,NA,NA,NA,"{""Q0"":""戴夫正在说服麦克""}","<img src='gifs/MaleRace4b.gif' style='height:400px;''></img>","说服","正在说服","chinese",NA
"null","<div style=""font-size:60px;"">+</div>",NA,"html-keyboard-response",274,942830,"0.0-17.0-0.16",78106,"ListB","man","chinese","CMB4",NA,NA,NA,"null",NA,NA,NA,NA,NA,NA
"null","<img src='gifs/ChineseGender1b.gif' style='height:400px;''></img>",NA,"html-keyboard-response",275,944835,"0.0-17.0-1.16",78106,"ListB","man","chinese","CMB4",NA,NA,NA,"null",NA,NA,NA,NA,NA,NA
"null","正在面向",NA,"html-keyboard-response",276,947849,"0.0-17.0-2.16",78106,"ListB","man","chinese","CMB4",NA,NA,NA,"null",NA,NA,NA,NA,NA,NA
"10110.199999809265",NA,NA,"survey-text",277,957961,"0.0-17.0-3.16",78106,"ListB","man","chinese","CMB4",NA,NA,NA,NA,"{""Q0"":""卢克正在面向霍普""}","<img src='gifs/ChineseGender1b.gif' style='height:400px;''></img>","面向","正在面向","chinese",NA
"null","<div style=""font-size:60px;"">+</div>",NA,"html-keyboard-response",278,958464,"0.0-17.0-0.17",78106,"ListB","man","chinese","CMB4",NA,NA,NA,"null",NA,NA,NA,NA,NA,NA
"null","<img src='gifs/ChineseGender2a.gif' style='height:400px;''></img>",NA,"html-keyboard-response",279,960471,"0.0-17.0-1.17",78106,"ListB","man","chinese","CMB4",NA,NA,NA,"null",NA,NA,NA,NA,NA,NA
"null","正在提到",NA,"html-keyboard-response",280,963485,"0.0-17.0-2.17",78106,"ListB","man","chinese","CMB4",NA,NA,NA,"null",NA,NA,NA,NA,NA,NA
"5139.199999809265",NA,NA,"survey-text",281,968626,"0.0-17.0-3.17",78106,"ListB","man","chinese","CMB4",NA,NA,NA,NA,"{""Q0"":""露丝正在提到卢克""}","<img src='gifs/ChineseGender2a.gif' style='height:400px;''></img>","提到","正在提到","chinese",NA
"4982.799999952316","<p>Thank you for completing that task.</p><p>The final part of this session is a short questionnaire.</p><p>Press Continue.</p>",0,"html-button-response",282,973609,"0.0-18.0",78106,"ListB","man","chinese","CMB4",NA,NA,NA,NA,NA,NA,NA,NA,NA,NA
"105428.90000009537",NA,NA,"survey-text",283,1080054,"0.0-19.0",78106,"ListB","man","chinese","CMB4",NA,NA,NA,NA,"{""Q0"":""22"",""Q1"":""Chinese"",""Q2"":""Chinese"",""Q3"":""China"",""Q4"":""Chinese"",""Q5"":""Yellow"",""Q6"":""Man""}",NA,NA,NA,NA,"demographics"
"5569","<p>Have you lived in the UK for the last 5 years or more?</p>",1,"html-button-response",284,1085624,"0.0-20.0",78106,"ListB","man","chinese","CMB4",NA,NA,NA,NA,NA,NA,NA,NA,NA,"fiveyears"
"74398.89999985695",NA,NA,"external-html",285,1165213,"0.0-21.0",78106,"ListB","man","chinese","CMB4","debrief.html",NA,NA,NA,NA,NA,NA,NA,NA,NA
"22381.299999952316",NA,NA,"survey-text",286,1187596,"0.0-22.0",78106,"ListB","man","chinese","CMB4",NA,NA,NA,NA,"{""ptpt_id"":""CMB4""}",NA,NA,NA,NA,"worker_id"
