"rt","stimulus","button_pressed","trial_type","trial_index","time_elapsed","internal_node_id","subject","list","ppt_gender","ppt_language","url","first_guess","correct","key_press","responses","image","verb","phrase","condition","test_part"
"5137.300000011921","Welcome to the experiment. Press Continue to begin.",0,"html-button-response",0,5140,"0.0-0.0",83432,"ListA","woman","english",NA,NA,NA,NA,NA,NA,NA,NA,NA,NA
"169814.79999998212",NA,NA,"external-html",1,176083,"0.0-1.0",83432,"ListA","woman","english","consent.html",NA,NA,NA,NA,NA,NA,NA,NA,NA
"17671.399999976158","<p>On the next page, you will see portraits of 8 people and their names.</p><p>Your first task is to take a few minutes to memorise the names of these people.</p><p>You will have to recall their names during the rest of the experiment, so it is</p><p>essential that you try to memorise these people and their names as best as you can.</p><p><strong>You will then be tested on your memory of these names and portraits.</strong></p><p>The experiment will start after you have completed this memory test.</p><p>Ready?</p>",0,"html-button-response",2,193756,"0.0-2.0",83432,"ListA","woman","english",NA,NA,NA,NA,NA,NA,NA,NA,NA,NA
"44432.29999998212","<img src='img/portrait_matrix_listA.jpg' style='width:900px;height:500px;''></img><p>If you have memorised all the portraits and names and are ready to start, press Continue.</p><p><strong>Please note: Your memory of these faces will be tested 5 times during this experiment.</strong></p>",0,"html-button-response",3,239196,"0.0-3.0-0.0",83432,"ListA","woman","english",NA,NA,NA,NA,NA,NA,NA,NA,NA,NA
"8498","<img src=""portrait/BW2.jpg""style=""height:400px;""></img>",0,"html-button-response",4,248710,"0.0-3.0-1.0",83432,"ListA","woman","english",NA,"true",2,NA,NA,NA,NA,NA,NA,NA
"4040.9000000059605","<img src=""portrait/BW2.jpg""style=""height:400px;""></img>",2,"html-button-response",5,253765,"0.0-3.0-3.0-0.0",83432,"ListA","woman","english",NA,"false",2,NA,NA,NA,NA,NA,NA,NA
"null","CORRECT",NA,"html-keyboard-response",6,255287,"0.0-3.0-3.0-1.0-0.0",83432,"ListA","woman","english",NA,NA,NA,"null",NA,NA,NA,NA,NA,NA
"3882.300000011921","<img src=""portrait/BW1.jpg""style=""height:400px;""></img>",0,"html-button-response",7,259173,"0.0-3.0-4.0",83432,"ListA","woman","english",NA,"true",0,NA,NA,NA,NA,NA,NA,NA
"null","CORRECT",NA,"html-keyboard-response",8,260685,"0.0-3.0-5.0-0.0",83432,"ListA","woman","english",NA,NA,NA,"null",NA,NA,NA,NA,NA,NA
"3612.5","<img src=""portrait/BM1.jpg""style=""height:400px;""></img>",5,"html-button-response",9,264301,"0.0-3.0-7.0",83432,"ListA","woman","english",NA,"true",4,NA,NA,NA,NA,NA,NA,NA
"2116.800000011921","<img src=""portrait/BM1.jpg""style=""height:400px;""></img>",4,"html-button-response",10,267430,"0.0-3.0-9.0-0.0",83432,"ListA","woman","english",NA,"false",4,NA,NA,NA,NA,NA,NA,NA
"null","CORRECT",NA,"html-keyboard-response",11,268935,"0.0-3.0-9.0-1.0-0.0",83432,"ListA","woman","english",NA,NA,NA,"null",NA,NA,NA,NA,NA,NA
"2620.899999976158","<img src=""portrait/WM2.jpg""style=""height:400px;""></img>",7,"html-button-response",12,271560,"0.0-3.0-10.0",83432,"ListA","woman","english",NA,"true",7,NA,NA,NA,NA,NA,NA,NA
"null","CORRECT",NA,"html-keyboard-response",13,273070,"0.0-3.0-11.0-0.0",83432,"ListA","woman","english",NA,NA,NA,"null",NA,NA,NA,NA,NA,NA
"3197.100000023842","<img src=""portrait/BM2.jpg""style=""height:400px;""></img>",5,"html-button-response",14,276270,"0.0-3.0-13.0",83432,"ListA","woman","english",NA,"true",5,NA,NA,NA,NA,NA,NA,NA
"null","CORRECT",NA,"html-keyboard-response",15,277783,"0.0-3.0-14.0-0.0",83432,"ListA","woman","english",NA,NA,NA,"null",NA,NA,NA,NA,NA,NA
"2694.600000023842","<img src=""portrait/WM1.jpg""style=""height:400px;""></img>",6,"html-button-response",16,280481,"0.0-3.0-16.0",83432,"ListA","woman","english",NA,"true",6,NA,NA,NA,NA,NA,NA,NA
"null","CORRECT",NA,"html-keyboard-response",17,281992,"0.0-3.0-17.0-0.0",83432,"ListA","woman","english",NA,NA,NA,"null",NA,NA,NA,NA,NA,NA
"2263.300000011921","<img src=""portrait/WW1.jpg""style=""height:400px;""></img>",1,"html-button-response",18,284258,"0.0-3.0-19.0",83432,"ListA","woman","english",NA,"true",1,NA,NA,NA,NA,NA,NA,NA
"null","CORRECT",NA,"html-keyboard-response",19,285768,"0.0-3.0-20.0-0.0",83432,"ListA","woman","english",NA,NA,NA,"null",NA,NA,NA,NA,NA,NA
"1714.800000011921","<img src=""portrait/WW2.jpg""style=""height:400px;""></img>",3,"html-button-response",20,287485,"0.0-3.0-22.0",83432,"ListA","woman","english",NA,"true",3,NA,NA,NA,NA,NA,NA,NA
"null","CORRECT",NA,"html-keyboard-response",21,289000,"0.0-3.0-23.0-0.0",83432,"ListA","woman","english",NA,NA,NA,"null",NA,NA,NA,NA,NA,NA
"1528.8999999761581","<p>You got 6 out of 8 right first time. Press Continue.</p>",0,"html-button-response",22,290533,"0.0-3.0-25.0",83432,"ListA","woman","english",NA,NA,NA,NA,NA,NA,NA,NA,NA,NA
"2789.7000000178814","As you did not score 100%, the memory game will repeat. Press Continue.",0,"html-button-response",23,294334,"0.0-3.0-26.0-0.0",83432,"ListA","woman","english",NA,NA,NA,NA,NA,NA,NA,NA,NA,NA
"10769.199999988079","<img src='img/portrait_matrix_listA.jpg' style='width:900px;height:500px;''></img><p>If you have memorised all the portraits and names and are ready to start, press Continue.</p><p><strong>Please note: Your memory of these faces will be tested 5 times during this experiment.</strong></p>",0,"html-button-response",24,306117,"0.0-3.1-0.1",83432,"ListA","woman","english",NA,NA,NA,NA,NA,NA,NA,NA,NA,NA
"3822.0999999940395","<img src=""portrait/BW2.jpg""style=""height:400px;""></img>",2,"html-button-response",25,310951,"0.0-3.1-1.1",83432,"ListA","woman","english",NA,"true",2,NA,NA,NA,NA,NA,NA,NA
"null","CORRECT",NA,"html-keyboard-response",26,312468,"0.0-3.1-2.1-0.1",83432,"ListA","woman","english",NA,NA,NA,"null",NA,NA,NA,NA,NA,NA
"2313.5999999940395","<img src=""portrait/BW1.jpg""style=""height:400px;""></img>",0,"html-button-response",27,314784,"0.0-3.1-4.1",83432,"ListA","woman","english",NA,"true",0,NA,NA,NA,NA,NA,NA,NA
"null","CORRECT",NA,"html-keyboard-response",28,316293,"0.0-3.1-5.1-0.1",83432,"ListA","woman","english",NA,NA,NA,"null",NA,NA,NA,NA,NA,NA
"1634.199999988079","<img src=""portrait/BM1.jpg""style=""height:400px;""></img>",4,"html-button-response",29,317930,"0.0-3.1-7.1",83432,"ListA","woman","english",NA,"true",4,NA,NA,NA,NA,NA,NA,NA
"null","CORRECT",NA,"html-keyboard-response",30,319455,"0.0-3.1-8.1-0.1",83432,"ListA","woman","english",NA,NA,NA,"null",NA,NA,NA,NA,NA,NA
"1658.4000000059605","<img src=""portrait/WM2.jpg""style=""height:400px;""></img>",7,"html-button-response",31,321117,"0.0-3.1-10.1",83432,"ListA","woman","english",NA,"true",7,NA,NA,NA,NA,NA,NA,NA
"null","CORRECT",NA,"html-keyboard-response",32,322639,"0.0-3.1-11.1-0.1",83432,"ListA","woman","english",NA,NA,NA,"null",NA,NA,NA,NA,NA,NA
"1628.9000000059605","<img src=""portrait/BM2.jpg""style=""height:400px;""></img>",5,"html-button-response",33,324271,"0.0-3.1-13.1",83432,"ListA","woman","english",NA,"true",5,NA,NA,NA,NA,NA,NA,NA
"null","CORRECT",NA,"html-keyboard-response",34,325783,"0.0-3.1-14.1-0.1",83432,"ListA","woman","english",NA,NA,NA,"null",NA,NA,NA,NA,NA,NA
"3581.4000000059605","<img src=""portrait/WM1.jpg""style=""height:400px;""></img>",6,"html-button-response",35,329368,"0.0-3.1-16.1",83432,"ListA","woman","english",NA,"true",6,NA,NA,NA,NA,NA,NA,NA
"null","CORRECT",NA,"html-keyboard-response",36,330887,"0.0-3.1-17.1-0.1",83432,"ListA","woman","english",NA,NA,NA,"null",NA,NA,NA,NA,NA,NA
"5294","<img src=""portrait/WW1.jpg""style=""height:400px;""></img>",1,"html-button-response",37,336184,"0.0-3.1-19.1",83432,"ListA","woman","english",NA,"true",1,NA,NA,NA,NA,NA,NA,NA
"null","CORRECT",NA,"html-keyboard-response",38,337695,"0.0-3.1-20.1-0.1",83432,"ListA","woman","english",NA,NA,NA,"null",NA,NA,NA,NA,NA,NA
"1229.3999999761581","<img src=""portrait/WW2.jpg""style=""height:400px;""></img>",3,"html-button-response",39,338927,"0.0-3.1-22.1",83432,"ListA","woman","english",NA,"true",3,NA,NA,NA,NA,NA,NA,NA
"null","CORRECT",NA,"html-keyboard-response",40,340447,"0.0-3.1-23.1-0.1",83432,"ListA","woman","english",NA,NA,NA,"null",NA,NA,NA,NA,NA,NA
"1361.5","<p>You got 8 out of 8 right first time. Press Continue.</p>",0,"html-button-response",41,341811,"0.0-3.1-25.1",83432,"ListA","woman","english",NA,NA,NA,NA,NA,NA,NA,NA,NA,NA
"34683.80000001192","<p>In this experiment, you will view photographs of the people from the memory game.</p><p>By using the <strong>exact</strong> phrase given <i>after</i> the photograph appears and recalling the correct names of the people in the photographs, form a sentence describing an interaction. You do not need to capitalise names.</p><p>Type your answer in the space provided. Please complete every sentence before moving onto the next trial.</p><p>You will only have a few seconds to memorise each given photograph and phrase before you can respond, so try your best to focus.</p><p>An example is given below. Press 'Continue' when you are ready.</p><img src='img/speaking_example.jpg' style='width:800px;height:460px;''></img>",0,"html-button-response",42,377504,"0.0-4.0",83432,"ListA","woman","english",NA,NA,NA,NA,NA,NA,NA,NA,NA,NA
"2603.9000000059605","<p>Before the experiment starts, you will watch two example trials. Press 'Continue'.</p>",0,"html-button-response",43,381122,"0.0-5.0",83432,"ListA","woman","english",NA,NA,NA,NA,NA,NA,NA,NA,NA,NA
"null","<img src='img/meet.gif' style='height:400px;''></img>",NA,"html-keyboard-response",44,384133,"0.0-6.0",83432,"ListA","woman","english",NA,NA,NA,"null",NA,NA,NA,NA,NA,NA
"null","<p>is meeting</p>",NA,"html-keyboard-response",45,386141,"0.0-7.0",83432,"ListA","woman","english",NA,NA,NA,"null",NA,NA,NA,NA,NA,NA
"3476.7000000178814","<p><b>Answer:</b> kate is meeting beth</p>",0,"html-button-response",46,389619,"0.0-8.0",83432,"ListA","woman","english",NA,NA,NA,NA,NA,NA,NA,NA,NA,NA
"null","<img src='img/spy.gif' style='height:400px;''></img>",NA,"html-keyboard-response",47,392637,"0.0-9.0",83432,"ListA","woman","english",NA,NA,NA,"null",NA,NA,NA,NA,NA,NA
"null","<p>is being spied on by</p>",NA,"html-keyboard-response",48,394645,"0.0-10.0",83432,"ListA","woman","english",NA,NA,NA,"null",NA,NA,NA,NA,NA,NA
"2662.2999999821186","<p><b>Answer:</b> luke is being spied on by dave</p>",0,"html-button-response",49,397309,"0.0-11.0",83432,"ListA","woman","english",NA,NA,NA,NA,NA,NA,NA,NA,NA,NA
"8274","<p>Ready to start the experiment?</p><br><p><strong>Remember to describe the picture using a full sentence,</strong></p><p><strong>that combines the names of the people with the <i>exact</i> phrase given.</strong></p><p><strong>To receive full payment you must do this correctly.</strong></p><p><strong> You do not need to capitalise names or use punctuation.</strong></p><br><p>Press 'Continue' to begin.</p>",0,"html-button-response",50,406592,"0.0-12.0",83432,"ListA","woman","english",NA,NA,NA,NA,NA,NA,NA,NA,NA,NA
"null","<div style=""font-size:60px;"">+</div>",NA,"html-keyboard-response",51,408108,"0.0-13.0-0.0",83432,"ListA","woman","english",NA,NA,NA,"null",NA,NA,NA,NA,NA,NA
"null","<img src='gifs/FemaleRace4a.gif' style='height:400px;''></img>",NA,"html-keyboard-response",52,410113,"0.0-13.0-1.0",83432,"ListA","woman","english",NA,NA,NA,"null",NA,NA,NA,NA,NA,NA
"null","is joining",NA,"html-keyboard-response",53,413118,"0.0-13.0-2.0",83432,"ListA","woman","english",NA,NA,NA,"null",NA,NA,NA,NA,NA,NA
"11761.199999988079",NA,NA,"survey-text",54,424885,"0.0-13.0-3.0",83432,"ListA","woman","english",NA,NA,NA,NA,"{""Q0"":""jane is joining beth""}","<img src='gifs/FemaleRace4a.gif' style='height:400px;''></img>","join","is joining","english",NA
"null","<div style=""font-size:60px;"">+</div>",NA,"html-keyboard-response",55,425388,"0.0-13.0-0.1",83432,"ListA","woman","english",NA,NA,NA,"null",NA,NA,NA,NA,NA,NA
"null","<img src='gifs/MaleRace3b.gif' style='height:400px;''></img>",NA,"html-keyboard-response",56,427396,"0.0-13.0-1.1",83432,"ListA","woman","english",NA,NA,NA,"null",NA,NA,NA,NA,NA,NA
"null","is accompanying",NA,"html-keyboard-response",57,430404,"0.0-13.0-2.1",83432,"ListA","woman","english",NA,NA,NA,"null",NA,NA,NA,NA,NA,NA
"10100.799999982119",NA,NA,"survey-text",58,440508,"0.0-13.0-3.1",83432,"ListA","woman","english",NA,NA,NA,NA,"{""Q0"":""fred is accompanying luke""}","<img src='gifs/MaleRace3b.gif' style='height:400px;''></img>","accompanying","is accompanying","english",NA
"null","<div style=""font-size:60px;"">+</div>",NA,"html-keyboard-response",59,441019,"0.0-13.0-0.2",83432,"ListA","woman","english",NA,NA,NA,"null",NA,NA,NA,NA,NA,NA
"null","<img src='gifs/BlackGender3a.gif' style='height:400px;''></img>",NA,"html-keyboard-response",60,443027,"0.0-13.0-1.2",83432,"ListA","woman","english",NA,NA,NA,"null",NA,NA,NA,NA,NA,NA
"null","is following",NA,"html-keyboard-response",61,446034,"0.0-13.0-2.2",83432,"ListA","woman","english",NA,NA,NA,"null",NA,NA,NA,NA,NA,NA
"5115.100000023842",NA,NA,"survey-text",62,451152,"0.0-13.0-3.2",83432,"ListA","woman","english",NA,NA,NA,NA,"{""Q0"":""jane is following luke""}","<img src='gifs/BlackGender3a.gif' style='height:400px;''></img>","following","is following","english",NA
"null","<div style=""font-size:60px;"">+</div>",NA,"html-keyboard-response",63,451659,"0.0-13.0-0.3",83432,"ListA","woman","english",NA,NA,NA,"null",NA,NA,NA,NA,NA,NA
"null","<img src='gifs/MaleRace4a.gif' style='height:400px;''></img>",NA,"html-keyboard-response",64,453667,"0.0-13.0-1.3",83432,"ListA","woman","english",NA,NA,NA,"null",NA,NA,NA,NA,NA,NA
"null","is employing",NA,"html-keyboard-response",65,456675,"0.0-13.0-2.3",83432,"ListA","woman","english",NA,NA,NA,"null",NA,NA,NA,NA,NA,NA
"6336.199999988079",NA,NA,"survey-text",66,463015,"0.0-13.0-3.3",83432,"ListA","woman","english",NA,NA,NA,NA,"{""Q0"":""Mike is employing dave""}","<img src='gifs/MaleRace4a.gif' style='height:400px;''></img>","employing","is employing","english",NA
"null","<div style=""font-size:60px;"">+</div>",NA,"html-keyboard-response",67,463523,"0.0-13.0-0.4",83432,"ListA","woman","english",NA,NA,NA,"null",NA,NA,NA,NA,NA,NA
"null","<img src='gifs/FemaleRace3a.gif' style='height:400px;''></img>",NA,"html-keyboard-response",68,465531,"0.0-13.0-1.4",83432,"ListA","woman","english",NA,NA,NA,"null",NA,NA,NA,NA,NA,NA
"null","is contacting",NA,"html-keyboard-response",69,468535,"0.0-13.0-2.4",83432,"ListA","woman","english",NA,NA,NA,"null",NA,NA,NA,NA,NA,NA
"8100.9000000059605",NA,NA,"survey-text",70,476639,"0.0-13.0-3.4",83432,"ListA","woman","english",NA,NA,NA,NA,"{""Q0"":""ruth is contacting beth""}","<img src='gifs/FemaleRace3a.gif' style='height:400px;''></img>","contacting","is contacting","english",NA
"null","<div style=""font-size:60px;"">+</div>",NA,"html-keyboard-response",71,477142,"0.0-13.0-0.5",83432,"ListA","woman","english",NA,NA,NA,"null",NA,NA,NA,NA,NA,NA
"null","<img src='gifs/FemaleRace1a.gif' style='height:400px;''></img>",NA,"html-keyboard-response",72,479154,"0.0-13.0-1.5",83432,"ListA","woman","english",NA,NA,NA,"null",NA,NA,NA,NA,NA,NA
"null","is joining",NA,"html-keyboard-response",73,482158,"0.0-13.0-2.5",83432,"ListA","woman","english",NA,NA,NA,"null",NA,NA,NA,NA,NA,NA
"5027.5",NA,NA,"survey-text",74,487188,"0.0-13.0-3.5",83432,"ListA","woman","english",NA,NA,NA,NA,"{""Q0"":""kate is joining ruth""}","<img src='gifs/FemaleRace1a.gif' style='height:400px;''></img>","join","is joining","english",NA
"null","<div style=""font-size:60px;"">+</div>",NA,"html-keyboard-response",75,487694,"0.0-13.0-0.6",83432,"ListA","woman","english",NA,NA,NA,"null",NA,NA,NA,NA,NA,NA
"null","<img src='gifs/BlackGender1a.gif' style='height:400px;''></img>",NA,"html-keyboard-response",76,489706,"0.0-13.0-1.6",83432,"ListA","woman","english",NA,NA,NA,"null",NA,NA,NA,NA,NA,NA
"null","is following",NA,"html-keyboard-response",77,492713,"0.0-13.0-2.6",83432,"ListA","woman","english",NA,NA,NA,"null",NA,NA,NA,NA,NA,NA
"3826.800000011921",NA,NA,"survey-text",78,496545,"0.0-13.0-3.6",83432,"ListA","woman","english",NA,NA,NA,NA,"{""Q0"":""ruth is following luke""}","<img src='gifs/BlackGender1a.gif' style='height:400px;''></img>","following","is following","english",NA
"null","<div style=""font-size:60px;"">+</div>",NA,"html-keyboard-response",79,497052,"0.0-13.0-0.7",83432,"ListA","woman","english",NA,NA,NA,"null",NA,NA,NA,NA,NA,NA
"null","<img src='gifs/MaleRace1b.gif' style='height:400px;''></img>",NA,"html-keyboard-response",80,499062,"0.0-13.0-1.7",83432,"ListA","woman","english",NA,NA,NA,"null",NA,NA,NA,NA,NA,NA
"null","is approaching",NA,"html-keyboard-response",81,502073,"0.0-13.0-2.7",83432,"ListA","woman","english",NA,NA,NA,"null",NA,NA,NA,NA,NA,NA
"4304.700000017881",NA,NA,"survey-text",82,506382,"0.0-13.0-3.7",83432,"ListA","woman","english",NA,NA,NA,NA,"{""Q0"":""fred is approaching luke""}","<img src='gifs/MaleRace1b.gif' style='height:400px;''></img>","approaching","is approaching","english",NA
"null","<div style=""font-size:60px;"">+</div>",NA,"html-keyboard-response",83,506885,"0.0-13.0-0.8",83432,"ListA","woman","english",NA,NA,NA,"null",NA,NA,NA,NA,NA,NA
"null","<img src='gifs/MaleRace1a.gif' style='height:400px;''></img>",NA,"html-keyboard-response",84,508897,"0.0-13.0-1.8",83432,"ListA","woman","english",NA,NA,NA,"null",NA,NA,NA,NA,NA,NA
"null","is convincing",NA,"html-keyboard-response",85,511905,"0.0-13.0-2.8",83432,"ListA","woman","english",NA,NA,NA,"null",NA,NA,NA,NA,NA,NA
"5687.100000023842",NA,NA,"survey-text",86,517596,"0.0-13.0-3.8",83432,"ListA","woman","english",NA,NA,NA,NA,"{""Q0"":""fred is convincing luke""}","<img src='gifs/MaleRace1a.gif' style='height:400px;''></img>","convincing","is convincing","english",NA
"null","<div style=""font-size:60px;"">+</div>",NA,"html-keyboard-response",87,518105,"0.0-13.0-0.9",83432,"ListA","woman","english",NA,NA,NA,"null",NA,NA,NA,NA,NA,NA
"null","<img src='gifs/BlackGender1a.gif' style='height:400px;''></img>",NA,"html-keyboard-response",88,520110,"0.0-13.0-1.9",83432,"ListA","woman","english",NA,NA,NA,"null",NA,NA,NA,NA,NA,NA
"null","is employing",NA,"html-keyboard-response",89,523116,"0.0-13.0-2.9",83432,"ListA","woman","english",NA,NA,NA,"null",NA,NA,NA,NA,NA,NA
"7929.200000017881",NA,NA,"survey-text",90,531048,"0.0-13.0-3.9",83432,"ListA","woman","english",NA,NA,NA,NA,"{""Q0"":""luke is employing ruth""}","<img src='gifs/BlackGender1a.gif' style='height:400px;''></img>","employing","is employing","english",NA
"null","<div style=""font-size:60px;"">+</div>",NA,"html-keyboard-response",91,531560,"0.0-13.0-0.10",83432,"ListA","woman","english",NA,NA,NA,"null",NA,NA,NA,NA,NA,NA
"null","<img src='gifs/ChineseGender4a.gif' style='height:400px;''></img>",NA,"html-keyboard-response",92,533568,"0.0-13.0-1.10",83432,"ListA","woman","english",NA,NA,NA,"null",NA,NA,NA,NA,NA,NA
"null","is praising",NA,"html-keyboard-response",93,536571,"0.0-13.0-2.10",83432,"ListA","woman","english",NA,NA,NA,"null",NA,NA,NA,NA,NA,NA
"5436.800000011921",NA,NA,"survey-text",94,542011,"0.0-13.0-3.10",83432,"ListA","woman","english",NA,NA,NA,NA,"{""Q0"":""mike is praising kate""}","<img src='gifs/ChineseGender4a.gif' style='height:400px;''></img>","praising","is praising","english",NA
"null","<div style=""font-size:60px;"">+</div>",NA,"html-keyboard-response",95,542520,"0.0-13.0-0.11",83432,"ListA","woman","english",NA,NA,NA,"null",NA,NA,NA,NA,NA,NA
"null","<img src='gifs/MaleRace2a.gif' style='height:400px;''></img>",NA,"html-keyboard-response",96,544528,"0.0-13.0-1.11",83432,"ListA","woman","english",NA,NA,NA,"null",NA,NA,NA,NA,NA,NA
"null","is mentioning",NA,"html-keyboard-response",97,547536,"0.0-13.0-2.11",83432,"ListA","woman","english",NA,NA,NA,"null",NA,NA,NA,NA,NA,NA
"4412",NA,NA,"survey-text",98,551952,"0.0-13.0-3.11",83432,"ListA","woman","english",NA,NA,NA,NA,"{""Q0"":""fred is mentioning dave""}","<img src='gifs/MaleRace2a.gif' style='height:400px;''></img>","mention","is mentioning","english",NA
"null","<div style=""font-size:60px;"">+</div>",NA,"html-keyboard-response",99,552461,"0.0-13.0-0.12",83432,"ListA","woman","english",NA,NA,NA,"null",NA,NA,NA,NA,NA,NA
"null","<img src='gifs/ChineseGender1a.gif' style='height:400px;''></img>",NA,"html-keyboard-response",100,554472,"0.0-13.0-1.12",83432,"ListA","woman","english",NA,NA,NA,"null",NA,NA,NA,NA,NA,NA
"null","is accompanying",NA,"html-keyboard-response",101,557480,"0.0-13.0-2.12",83432,"ListA","woman","english",NA,NA,NA,"null",NA,NA,NA,NA,NA,NA
"5925",NA,NA,"survey-text",102,563408,"0.0-13.0-3.12",83432,"ListA","woman","english",NA,NA,NA,NA,"{""Q0"":""fred is accompanying kate""}","<img src='gifs/ChineseGender1a.gif' style='height:400px;''></img>","accompanying","is accompanying","english",NA
"null","<div style=""font-size:60px;"">+</div>",NA,"html-keyboard-response",103,563920,"0.0-13.0-0.13",83432,"ListA","woman","english",NA,NA,NA,"null",NA,NA,NA,NA,NA,NA
"null","<img src='gifs/FemaleRace1b.gif' style='height:400px;''></img>",NA,"html-keyboard-response",104,565928,"0.0-13.0-1.13",83432,"ListA","woman","english",NA,NA,NA,"null",NA,NA,NA,NA,NA,NA
"null","is contacting",NA,"html-keyboard-response",105,568936,"0.0-13.0-2.13",83432,"ListA","woman","english",NA,NA,NA,"null",NA,NA,NA,NA,NA,NA
"4141.399999976158",NA,NA,"survey-text",106,573081,"0.0-13.0-3.13",83432,"ListA","woman","english",NA,NA,NA,NA,"{""Q0"":""kate is contacting ruth""}","<img src='gifs/FemaleRace1b.gif' style='height:400px;''></img>","contacting","is contacting","english",NA
"null","<div style=""font-size:60px;"">+</div>",NA,"html-keyboard-response",107,573591,"0.0-13.0-0.14",83432,"ListA","woman","english",NA,NA,NA,"null",NA,NA,NA,NA,NA,NA
"null","<img src='gifs/MaleRace3b.gif' style='height:400px;''></img>",NA,"html-keyboard-response",108,575599,"0.0-13.0-1.14",83432,"ListA","woman","english",NA,NA,NA,"null",NA,NA,NA,NA,NA,NA
"null","is looking at",NA,"html-keyboard-response",109,578607,"0.0-13.0-2.14",83432,"ListA","woman","english",NA,NA,NA,"null",NA,NA,NA,NA,NA,NA
"3933.0999999940395",NA,NA,"survey-text",110,582545,"0.0-13.0-3.14",83432,"ListA","woman","english",NA,NA,NA,NA,"{""Q0"":""mike is looking at luke""}","<img src='gifs/MaleRace3b.gif' style='height:400px;''></img>","looking at","is looking at","english",NA
"null","<div style=""font-size:60px;"">+</div>",NA,"html-keyboard-response",111,583055,"0.0-13.0-0.15",83432,"ListA","woman","english",NA,NA,NA,"null",NA,NA,NA,NA,NA,NA
"null","<img src='gifs/FemaleRace3a.gif' style='height:400px;''></img>",NA,"html-keyboard-response",112,585058,"0.0-13.0-1.15",83432,"ListA","woman","english",NA,NA,NA,"null",NA,NA,NA,NA,NA,NA
"null","is employing",NA,"html-keyboard-response",113,588071,"0.0-13.0-2.15",83432,"ListA","woman","english",NA,NA,NA,"null",NA,NA,NA,NA,NA,NA
"5010.300000011921",NA,NA,"survey-text",114,593086,"0.0-13.0-3.15",83432,"ListA","woman","english",NA,NA,NA,NA,"{""Q0"":""beth is employing ruth""}","<img src='gifs/FemaleRace3a.gif' style='height:400px;''></img>","employing","is employing","english",NA
"null","<div style=""font-size:60px;"">+</div>",NA,"html-keyboard-response",115,593591,"0.0-13.0-0.16",83432,"ListA","woman","english",NA,NA,NA,"null",NA,NA,NA,NA,NA,NA
"null","<img src='gifs/MaleRace1a.gif' style='height:400px;''></img>",NA,"html-keyboard-response",116,595598,"0.0-13.0-1.16",83432,"ListA","woman","english",NA,NA,NA,"null",NA,NA,NA,NA,NA,NA
"null","is convincing",NA,"html-keyboard-response",117,598603,"0.0-13.0-2.16",83432,"ListA","woman","english",NA,NA,NA,"null",NA,NA,NA,NA,NA,NA
"3560.2000000178814",NA,NA,"survey-text",118,602167,"0.0-13.0-3.16",83432,"ListA","woman","english",NA,NA,NA,NA,"{""Q0"":""luke is convincing fred""}","<img src='gifs/MaleRace1a.gif' style='height:400px;''></img>","convincing","is convincing","english",NA
"null","<div style=""font-size:60px;"">+</div>",NA,"html-keyboard-response",119,602675,"0.0-13.0-0.17",83432,"ListA","woman","english",NA,NA,NA,"null",NA,NA,NA,NA,NA,NA
"null","<img src='gifs/BlackGender1b.gif' style='height:400px;''></img>",NA,"html-keyboard-response",120,604686,"0.0-13.0-1.17",83432,"ListA","woman","english",NA,NA,NA,"null",NA,NA,NA,NA,NA,NA
"null","is joining",NA,"html-keyboard-response",121,607691,"0.0-13.0-2.17",83432,"ListA","woman","english",NA,NA,NA,"null",NA,NA,NA,NA,NA,NA
"2534.9000000059605",NA,NA,"survey-text",122,610230,"0.0-13.0-3.17",83432,"ListA","woman","english",NA,NA,NA,NA,"{""Q0"":""luke is joining ruth""}","<img src='gifs/BlackGender1b.gif' style='height:400px;''></img>","join","is joining","english",NA
"11832.59999999404","<img src='img/portrait_matrix_listA.jpg' style='width:900px;height:500px;''></img><p>If you have memorised all the portraits and names and are ready to start, press Continue.</p><p><strong>Please note: Your memory of these faces will be tested 5 times during this experiment.</strong></p>",0,"html-button-response",123,622065,"0.0-14.0-0.0",83432,"ListA","woman","english",NA,NA,NA,NA,NA,NA,NA,NA,NA,NA
"2312.899999976158","<img src=""portrait/WM2.jpg""style=""height:400px;""></img>",7,"html-button-response",124,625390,"0.0-14.0-1.0",83432,"ListA","woman","english",NA,"true",7,NA,NA,NA,NA,NA,NA,NA
"null","CORRECT",NA,"html-keyboard-response",125,626901,"0.0-14.0-2.0-0.0",83432,"ListA","woman","english",NA,NA,NA,"null",NA,NA,NA,NA,NA,NA
"4038.300000011921","<img src=""portrait/BW1.jpg""style=""height:400px;""></img>",0,"html-button-response",126,630942,"0.0-14.0-4.0",83432,"ListA","woman","english",NA,"true",0,NA,NA,NA,NA,NA,NA,NA
"null","CORRECT",NA,"html-keyboard-response",127,632461,"0.0-14.0-5.0-0.0",83432,"ListA","woman","english",NA,NA,NA,"null",NA,NA,NA,NA,NA,NA
"1828.2000000178814","<img src=""portrait/WW2.jpg""style=""height:400px;""></img>",3,"html-button-response",128,634292,"0.0-14.0-7.0",83432,"ListA","woman","english",NA,"true",3,NA,NA,NA,NA,NA,NA,NA
"null","CORRECT",NA,"html-keyboard-response",129,635805,"0.0-14.0-8.0-0.0",83432,"ListA","woman","english",NA,NA,NA,"null",NA,NA,NA,NA,NA,NA
"1515.5","<img src=""portrait/WW1.jpg""style=""height:400px;""></img>",1,"html-button-response",130,637323,"0.0-14.0-10.0",83432,"ListA","woman","english",NA,"true",1,NA,NA,NA,NA,NA,NA,NA
"null","CORRECT",NA,"html-keyboard-response",131,638845,"0.0-14.0-11.0-0.0",83432,"ListA","woman","english",NA,NA,NA,"null",NA,NA,NA,NA,NA,NA
"1768.5999999940395","<img src=""portrait/BM2.jpg""style=""height:400px;""></img>",5,"html-button-response",132,640616,"0.0-14.0-13.0",83432,"ListA","woman","english",NA,"true",5,NA,NA,NA,NA,NA,NA,NA
"null","CORRECT",NA,"html-keyboard-response",133,642141,"0.0-14.0-14.0-0.0",83432,"ListA","woman","english",NA,NA,NA,"null",NA,NA,NA,NA,NA,NA
"3208.300000011921","<img src=""portrait/BM1.jpg""style=""height:400px;""></img>",4,"html-button-response",134,645352,"0.0-14.0-16.0",83432,"ListA","woman","english",NA,"true",4,NA,NA,NA,NA,NA,NA,NA
"null","CORRECT",NA,"html-keyboard-response",135,646877,"0.0-14.0-17.0-0.0",83432,"ListA","woman","english",NA,NA,NA,"null",NA,NA,NA,NA,NA,NA
"3607.5","<img src=""portrait/WM1.jpg""style=""height:400px;""></img>",6,"html-button-response",136,650488,"0.0-14.0-19.0",83432,"ListA","woman","english",NA,"true",6,NA,NA,NA,NA,NA,NA,NA
"null","CORRECT",NA,"html-keyboard-response",137,652009,"0.0-14.0-20.0-0.0",83432,"ListA","woman","english",NA,NA,NA,"null",NA,NA,NA,NA,NA,NA
"6249.199999988079","<img src=""portrait/BW2.jpg""style=""height:400px;""></img>",2,"html-button-response",138,658261,"0.0-14.0-22.0",83432,"ListA","woman","english",NA,"true",2,NA,NA,NA,NA,NA,NA,NA
"null","CORRECT",NA,"html-keyboard-response",139,659773,"0.0-14.0-23.0-0.0",83432,"ListA","woman","english",NA,NA,NA,"null",NA,NA,NA,NA,NA,NA
"1008.3000000119209","<p>You got 8 out of 8 right first time. Press Continue.</p>",0,"html-button-response",140,660784,"0.0-14.0-25.0",83432,"ListA","woman","english",NA,NA,NA,NA,NA,NA,NA,NA,NA,NA
"null","<div style=""font-size:60px;"">+</div>",NA,"html-keyboard-response",141,662301,"0.0-15.0-0.0",83432,"ListA","woman","english",NA,NA,NA,"null",NA,NA,NA,NA,NA,NA
"null","<img src='gifs/FemaleRace3b.gif' style='height:400px;''></img>",NA,"html-keyboard-response",142,664304,"0.0-15.0-1.0",83432,"ListA","woman","english",NA,NA,NA,"null",NA,NA,NA,NA,NA,NA
"null","is listening to",NA,"html-keyboard-response",143,667315,"0.0-15.0-2.0",83432,"ListA","woman","english",NA,NA,NA,"null",NA,NA,NA,NA,NA,NA
"4187",NA,NA,"survey-text",144,671506,"0.0-15.0-3.0",83432,"ListA","woman","english",NA,NA,NA,NA,"{""Q0"":""beth is listening to ruth""}","<img src='gifs/FemaleRace3b.gif' style='height:400px;''></img>","listening to","is listening to","english",NA
"null","<div style=""font-size:60px;"">+</div>",NA,"html-keyboard-response",145,672010,"0.0-15.0-0.1",83432,"ListA","woman","english",NA,NA,NA,"null",NA,NA,NA,NA,NA,NA
"null","<img src='gifs/FemaleRace4b.gif' style='height:400px;''></img>",NA,"html-keyboard-response",146,674020,"0.0-15.0-1.1",83432,"ListA","woman","english",NA,NA,NA,"null",NA,NA,NA,NA,NA,NA
"null","is touching",NA,"html-keyboard-response",147,677024,"0.0-15.0-2.1",83432,"ListA","woman","english",NA,NA,NA,"null",NA,NA,NA,NA,NA,NA
"3484.300000011921",NA,NA,"survey-text",148,680511,"0.0-15.0-3.1",83432,"ListA","woman","english",NA,NA,NA,NA,"{""Q0"":""beth is touching jane""}","<img src='gifs/FemaleRace4b.gif' style='height:400px;''></img>","touching","is touching","english",NA
"null","<div style=""font-size:60px;"">+</div>",NA,"html-keyboard-response",149,681020,"0.0-15.0-0.2",83432,"ListA","woman","english",NA,NA,NA,"null",NA,NA,NA,NA,NA,NA
"null","<img src='gifs/ChineseGender1b.gif' style='height:400px;''></img>",NA,"html-keyboard-response",150,683028,"0.0-15.0-1.2",83432,"ListA","woman","english",NA,NA,NA,"null",NA,NA,NA,NA,NA,NA
"null","is approaching",NA,"html-keyboard-response",151,686036,"0.0-15.0-2.2",83432,"ListA","woman","english",NA,NA,NA,"null",NA,NA,NA,NA,NA,NA
"3088.5999999940395",NA,NA,"survey-text",152,689129,"0.0-15.0-3.2",83432,"ListA","woman","english",NA,NA,NA,NA,"{""Q0"":""kate is approaching fred""}","<img src='gifs/ChineseGender1b.gif' style='height:400px;''></img>","approaching","is approaching","english",NA
"null","<div style=""font-size:60px;"">+</div>",NA,"html-keyboard-response",153,689636,"0.0-15.0-0.3",83432,"ListA","woman","english",NA,NA,NA,"null",NA,NA,NA,NA,NA,NA
"null","<img src='gifs/FemaleRace4a.gif' style='height:400px;''></img>",NA,"html-keyboard-response",154,691640,"0.0-15.0-1.3",83432,"ListA","woman","english",NA,NA,NA,"null",NA,NA,NA,NA,NA,NA
"null","is praising",NA,"html-keyboard-response",155,694648,"0.0-15.0-2.3",83432,"ListA","woman","english",NA,NA,NA,"null",NA,NA,NA,NA,NA,NA
"3872.5",NA,NA,"survey-text",156,698525,"0.0-15.0-3.3",83432,"ListA","woman","english",NA,NA,NA,NA,"{""Q0"":""beth is praising jane""}","<img src='gifs/FemaleRace4a.gif' style='height:400px;''></img>","praising","is praising","english",NA
"null","<div style=""font-size:60px;"">+</div>",NA,"html-keyboard-response",157,699036,"0.0-15.0-0.4",83432,"ListA","woman","english",NA,NA,NA,"null",NA,NA,NA,NA,NA,NA
"null","<img src='gifs/BlackGender4a.gif' style='height:400px;''></img>",NA,"html-keyboard-response",158,701048,"0.0-15.0-1.4",83432,"ListA","woman","english",NA,NA,NA,"null",NA,NA,NA,NA,NA,NA
"null","is facing",NA,"html-keyboard-response",159,704060,"0.0-15.0-2.4",83432,"ListA","woman","english",NA,NA,NA,"null",NA,NA,NA,NA,NA,NA
"3682.4000000059605",NA,NA,"survey-text",160,707746,"0.0-15.0-3.4",83432,"ListA","woman","english",NA,NA,NA,NA,"{""Q0"":""dave is facing jane""}","<img src='gifs/BlackGender4a.gif' style='height:400px;''></img>","facing","is facing","english",NA
"null","<div style=""font-size:60px;"">+</div>",NA,"html-keyboard-response",161,708251,"0.0-15.0-0.5",83432,"ListA","woman","english",NA,NA,NA,"null",NA,NA,NA,NA,NA,NA
"null","<img src='gifs/ChineseGender1a.gif' style='height:400px;''></img>",NA,"html-keyboard-response",162,710256,"0.0-15.0-1.5",83432,"ListA","woman","english",NA,NA,NA,"null",NA,NA,NA,NA,NA,NA
"null","is promising",NA,"html-keyboard-response",163,713265,"0.0-15.0-2.5",83432,"ListA","woman","english",NA,NA,NA,"null",NA,NA,NA,NA,NA,NA
"4212.299999982119",NA,NA,"survey-text",164,717481,"0.0-15.0-3.5",83432,"ListA","woman","english",NA,NA,NA,NA,"{""Q0"":""kate is promising fred""}","<img src='gifs/ChineseGender1a.gif' style='height:400px;''></img>","promising","is promising","english",NA
"null","<div style=""font-size:60px;"">+</div>",NA,"html-keyboard-response",165,717983,"0.0-15.0-0.6",83432,"ListA","woman","english",NA,NA,NA,"null",NA,NA,NA,NA,NA,NA
"null","<img src='gifs/BlackGender4b.gif' style='height:400px;''></img>",NA,"html-keyboard-response",166,719991,"0.0-15.0-1.6",83432,"ListA","woman","english",NA,NA,NA,"null",NA,NA,NA,NA,NA,NA
"null","is praising",NA,"html-keyboard-response",167,722998,"0.0-15.0-2.6",83432,"ListA","woman","english",NA,NA,NA,"null",NA,NA,NA,NA,NA,NA
"5133",NA,NA,"survey-text",168,728135,"0.0-15.0-3.6",83432,"ListA","woman","english",NA,NA,NA,NA,"{""Q0"":""dave is praising jane""}","<img src='gifs/BlackGender4b.gif' style='height:400px;''></img>","praising","is praising","english",NA
"null","<div style=""font-size:60px;"">+</div>",NA,"html-keyboard-response",169,728643,"0.0-15.0-0.7",83432,"ListA","woman","english",NA,NA,NA,"null",NA,NA,NA,NA,NA,NA
"null","<img src='gifs/MaleRace4b.gif' style='height:400px;''></img>",NA,"html-keyboard-response",170,730659,"0.0-15.0-1.7",83432,"ListA","woman","english",NA,NA,NA,"null",NA,NA,NA,NA,NA,NA
"null","is listening to",NA,"html-keyboard-response",171,733665,"0.0-15.0-2.7",83432,"ListA","woman","english",NA,NA,NA,"null",NA,NA,NA,NA,NA,NA
"3731.7999999821186",NA,NA,"survey-text",172,737400,"0.0-15.0-3.7",83432,"ListA","woman","english",NA,NA,NA,NA,"{""Q0"":""dave is listening to mike""}","<img src='gifs/MaleRace4b.gif' style='height:400px;''></img>","listening to","is listening to","english",NA
"null","<div style=""font-size:60px;"">+</div>",NA,"html-keyboard-response",173,737903,"0.0-15.0-0.8",83432,"ListA","woman","english",NA,NA,NA,"null",NA,NA,NA,NA,NA,NA
"null","<img src='gifs/FemaleRace3b.gif' style='height:400px;''></img>",NA,"html-keyboard-response",174,739911,"0.0-15.0-1.8",83432,"ListA","woman","english",NA,NA,NA,"null",NA,NA,NA,NA,NA,NA
"null","is walking towards",NA,"html-keyboard-response",175,742922,"0.0-15.0-2.8",83432,"ListA","woman","english",NA,NA,NA,"null",NA,NA,NA,NA,NA,NA
"6166.300000011921",NA,NA,"survey-text",176,749092,"0.0-15.0-3.8",83432,"ListA","woman","english",NA,NA,NA,NA,"{""Q0"":""ruth is walking towards beth""}","<img src='gifs/FemaleRace3b.gif' style='height:400px;''></img>","walking towards","is walking towards","english",NA
"null","<div style=""font-size:60px;"">+</div>",NA,"html-keyboard-response",177,749602,"0.0-15.0-0.9",83432,"ListA","woman","english",NA,NA,NA,"null",NA,NA,NA,NA,NA,NA
"null","<img src='gifs/BlackGender4b.gif' style='height:400px;''></img>",NA,"html-keyboard-response",178,751609,"0.0-15.0-1.9",83432,"ListA","woman","english",NA,NA,NA,"null",NA,NA,NA,NA,NA,NA
"null","is accompanying",NA,"html-keyboard-response",179,754614,"0.0-15.0-2.9",83432,"ListA","woman","english",NA,NA,NA,"null",NA,NA,NA,NA,NA,NA
"4082.199999988079",NA,NA,"survey-text",180,758700,"0.0-15.0-3.9",83432,"ListA","woman","english",NA,NA,NA,NA,"{""Q0"":""jane is accompanying dave""}","<img src='gifs/BlackGender4b.gif' style='height:400px;''></img>","accompanying","is accompanying","english",NA
"null","<div style=""font-size:60px;"">+</div>",NA,"html-keyboard-response",181,759209,"0.0-15.0-0.10",83432,"ListA","woman","english",NA,NA,NA,"null",NA,NA,NA,NA,NA,NA
"null","<img src='gifs/ChineseGender3b.gif' style='height:400px;''></img>",NA,"html-keyboard-response",182,761217,"0.0-15.0-1.10",83432,"ListA","woman","english",NA,NA,NA,"null",NA,NA,NA,NA,NA,NA
"null","is approaching",NA,"html-keyboard-response",183,764225,"0.0-15.0-2.10",83432,"ListA","woman","english",NA,NA,NA,"null",NA,NA,NA,NA,NA,NA
"3721.2000000178814",NA,NA,"survey-text",184,767951,"0.0-15.0-3.10",83432,"ListA","woman","english",NA,NA,NA,NA,"{""Q0"":""beth is approaching mike""}","<img src='gifs/ChineseGender3b.gif' style='height:400px;''></img>","approaching","is approaching","english",NA
"null","<div style=""font-size:60px;"">+</div>",NA,"html-keyboard-response",185,768457,"0.0-15.0-0.11",83432,"ListA","woman","english",NA,NA,NA,"null",NA,NA,NA,NA,NA,NA
"null","<img src='gifs/MaleRace3a.gif' style='height:400px;''></img>",NA,"html-keyboard-response",186,770465,"0.0-15.0-1.11",83432,"ListA","woman","english",NA,NA,NA,"null",NA,NA,NA,NA,NA,NA
"null","is following",NA,"html-keyboard-response",187,773473,"0.0-15.0-2.11",83432,"ListA","woman","english",NA,NA,NA,"null",NA,NA,NA,NA,NA,NA
"3008.300000011921",NA,NA,"survey-text",188,776485,"0.0-15.0-3.11",83432,"ListA","woman","english",NA,NA,NA,NA,"{""Q0"":""mike is following luke""}","<img src='gifs/MaleRace3a.gif' style='height:400px;''></img>","following","is following","english",NA
"null","<div style=""font-size:60px;"">+</div>",NA,"html-keyboard-response",189,776993,"0.0-15.0-0.12",83432,"ListA","woman","english",NA,NA,NA,"null",NA,NA,NA,NA,NA,NA
"null","<img src='gifs/MaleRace4a.gif' style='height:400px;''></img>",NA,"html-keyboard-response",190,779001,"0.0-15.0-1.12",83432,"ListA","woman","english",NA,NA,NA,"null",NA,NA,NA,NA,NA,NA
"null","is convincing",NA,"html-keyboard-response",191,782009,"0.0-15.0-2.12",83432,"ListA","woman","english",NA,NA,NA,"null",NA,NA,NA,NA,NA,NA
"4626.9000000059605",NA,NA,"survey-text",192,786639,"0.0-15.0-3.12",83432,"ListA","woman","english",NA,NA,NA,NA,"{""Q0"":""dave is convincing mike""}","<img src='gifs/MaleRace4a.gif' style='height:400px;''></img>","convincing","is convincing","english",NA
"null","<div style=""font-size:60px;"">+</div>",NA,"html-keyboard-response",193,787145,"0.0-15.0-0.13",83432,"ListA","woman","english",NA,NA,NA,"null",NA,NA,NA,NA,NA,NA
"null","<img src='gifs/MaleRace1b.gif' style='height:400px;''></img>",NA,"html-keyboard-response",194,789153,"0.0-15.0-1.13",83432,"ListA","woman","english",NA,NA,NA,"null",NA,NA,NA,NA,NA,NA
"null","is touching",NA,"html-keyboard-response",195,792157,"0.0-15.0-2.13",83432,"ListA","woman","english",NA,NA,NA,"null",NA,NA,NA,NA,NA,NA
"5780.5",NA,NA,"survey-text",196,797941,"0.0-15.0-3.13",83432,"ListA","woman","english",NA,NA,NA,NA,"{""Q0"":""fred is touching luke""}","<img src='gifs/MaleRace1b.gif' style='height:400px;''></img>","touching","is touching","english",NA
"null","<div style=""font-size:60px;"">+</div>",NA,"html-keyboard-response",197,798448,"0.0-15.0-0.14",83432,"ListA","woman","english",NA,NA,NA,"null",NA,NA,NA,NA,NA,NA
"null","<img src='gifs/FemaleRace2a.gif' style='height:400px;''></img>",NA,"html-keyboard-response",198,800454,"0.0-15.0-1.14",83432,"ListA","woman","english",NA,NA,NA,"null",NA,NA,NA,NA,NA,NA
"null","is mentioning",NA,"html-keyboard-response",199,803464,"0.0-15.0-2.14",83432,"ListA","woman","english",NA,NA,NA,"null",NA,NA,NA,NA,NA,NA
"2869.5",NA,NA,"survey-text",200,806338,"0.0-15.0-3.14",83432,"ListA","woman","english",NA,NA,NA,NA,"{""Q0"":""jane is mentioning kate""}","<img src='gifs/FemaleRace2a.gif' style='height:400px;''></img>","mention","is mentioning","english",NA
"null","<div style=""font-size:60px;"">+</div>",NA,"html-keyboard-response",201,806846,"0.0-15.0-0.15",83432,"ListA","woman","english",NA,NA,NA,"null",NA,NA,NA,NA,NA,NA
"null","<img src='gifs/FemaleRace2b.gif' style='height:400px;''></img>",NA,"html-keyboard-response",202,808856,"0.0-15.0-1.15",83432,"ListA","woman","english",NA,NA,NA,"null",NA,NA,NA,NA,NA,NA
"null","is promising",NA,"html-keyboard-response",203,811864,"0.0-15.0-2.15",83432,"ListA","woman","english",NA,NA,NA,"null",NA,NA,NA,NA,NA,NA
"2860.5999999940395",NA,NA,"survey-text",204,814729,"0.0-15.0-3.15",83432,"ListA","woman","english",NA,NA,NA,NA,"{""Q0"":""kate is promising jane""}","<img src='gifs/FemaleRace2b.gif' style='height:400px;''></img>","promising","is promising","english",NA
"null","<div style=""font-size:60px;"">+</div>",NA,"html-keyboard-response",205,815240,"0.0-15.0-0.16",83432,"ListA","woman","english",NA,NA,NA,"null",NA,NA,NA,NA,NA,NA
"null","<img src='gifs/ChineseGender2a.gif' style='height:400px;''></img>",NA,"html-keyboard-response",206,817248,"0.0-15.0-1.16",83432,"ListA","woman","english",NA,NA,NA,"null",NA,NA,NA,NA,NA,NA
"null","is listening to",NA,"html-keyboard-response",207,820256,"0.0-15.0-2.16",83432,"ListA","woman","english",NA,NA,NA,"null",NA,NA,NA,NA,NA,NA
"4294.800000011921",NA,NA,"survey-text",208,824554,"0.0-15.0-3.16",83432,"ListA","woman","english",NA,NA,NA,NA,"{""Q0"":""fred is listening to beth""}","<img src='gifs/ChineseGender2a.gif' style='height:400px;''></img>","listening to","is listening to","english",NA
"null","<div style=""font-size:60px;"">+</div>",NA,"html-keyboard-response",209,825060,"0.0-15.0-0.17",83432,"ListA","woman","english",NA,NA,NA,"null",NA,NA,NA,NA,NA,NA
"null","<img src='gifs/ChineseGender1b.gif' style='height:400px;''></img>",NA,"html-keyboard-response",210,827072,"0.0-15.0-1.17",83432,"ListA","woman","english",NA,NA,NA,"null",NA,NA,NA,NA,NA,NA
"null","is promising",NA,"html-keyboard-response",211,830079,"0.0-15.0-2.17",83432,"ListA","woman","english",NA,NA,NA,"null",NA,NA,NA,NA,NA,NA
"2968.7000000178814",NA,NA,"survey-text",212,833052,"0.0-15.0-3.17",83432,"ListA","woman","english",NA,NA,NA,NA,"{""Q0"":""fred is promising kate""}","<img src='gifs/ChineseGender1b.gif' style='height:400px;''></img>","promising","is promising","english",NA
"11365","<img src='img/portrait_matrix_listA.jpg' style='width:900px;height:500px;''></img><p>If you have memorised all the portraits and names and are ready to start, press Continue.</p><p><strong>Please note: Your memory of these faces will be tested 5 times during this experiment.</strong></p>",0,"html-button-response",213,844420,"0.0-16.0-0.0",83432,"ListA","woman","english",NA,NA,NA,NA,NA,NA,NA,NA,NA,NA
"2328.5","<img src=""portrait/WM2.jpg""style=""height:400px;""></img>",7,"html-button-response",214,847762,"0.0-16.0-1.0",83432,"ListA","woman","english",NA,"true",7,NA,NA,NA,NA,NA,NA,NA
"null","CORRECT",NA,"html-keyboard-response",215,849279,"0.0-16.0-2.0-0.0",83432,"ListA","woman","english",NA,NA,NA,"null",NA,NA,NA,NA,NA,NA
"1633.199999988079","<img src=""portrait/BM2.jpg""style=""height:400px;""></img>",5,"html-button-response",216,850916,"0.0-16.0-4.0",83432,"ListA","woman","english",NA,"true",5,NA,NA,NA,NA,NA,NA,NA
"null","CORRECT",NA,"html-keyboard-response",217,852430,"0.0-16.0-5.0-0.0",83432,"ListA","woman","english",NA,NA,NA,"null",NA,NA,NA,NA,NA,NA
"5705.200000017881","<img src=""portrait/WM1.jpg""style=""height:400px;""></img>",6,"html-button-response",218,858139,"0.0-16.0-7.0",83432,"ListA","woman","english",NA,"true",6,NA,NA,NA,NA,NA,NA,NA
"null","CORRECT",NA,"html-keyboard-response",219,859655,"0.0-16.0-8.0-0.0",83432,"ListA","woman","english",NA,NA,NA,"null",NA,NA,NA,NA,NA,NA
"1505.2999999821186","<img src=""portrait/WW2.jpg""style=""height:400px;""></img>",3,"html-button-response",220,861163,"0.0-16.0-10.0",83432,"ListA","woman","english",NA,"true",3,NA,NA,NA,NA,NA,NA,NA
"null","CORRECT",NA,"html-keyboard-response",221,862678,"0.0-16.0-11.0-0.0",83432,"ListA","woman","english",NA,NA,NA,"null",NA,NA,NA,NA,NA,NA
"1633.9000000059605","<img src=""portrait/BM1.jpg""style=""height:400px;""></img>",4,"html-button-response",222,864315,"0.0-16.0-13.0",83432,"ListA","woman","english",NA,"true",4,NA,NA,NA,NA,NA,NA,NA
"null","CORRECT",NA,"html-keyboard-response",223,865830,"0.0-16.0-14.0-0.0",83432,"ListA","woman","english",NA,NA,NA,"null",NA,NA,NA,NA,NA,NA
"1300.4000000059605","<img src=""portrait/WW1.jpg""style=""height:400px;""></img>",1,"html-button-response",224,867133,"0.0-16.0-16.0",83432,"ListA","woman","english",NA,"true",1,NA,NA,NA,NA,NA,NA,NA
"null","CORRECT",NA,"html-keyboard-response",225,868646,"0.0-16.0-17.0-0.0",83432,"ListA","woman","english",NA,NA,NA,"null",NA,NA,NA,NA,NA,NA
"1219.9000000059605","<img src=""portrait/BW1.jpg""style=""height:400px;""></img>",0,"html-button-response",226,869868,"0.0-16.0-19.0",83432,"ListA","woman","english",NA,"true",0,NA,NA,NA,NA,NA,NA,NA
"null","CORRECT",NA,"html-keyboard-response",227,871389,"0.0-16.0-20.0-0.0",83432,"ListA","woman","english",NA,NA,NA,"null",NA,NA,NA,NA,NA,NA
"4792.699999988079","<img src=""portrait/BW2.jpg""style=""height:400px;""></img>",2,"html-button-response",228,876184,"0.0-16.0-22.0",83432,"ListA","woman","english",NA,"true",2,NA,NA,NA,NA,NA,NA,NA
"null","CORRECT",NA,"html-keyboard-response",229,877702,"0.0-16.0-23.0-0.0",83432,"ListA","woman","english",NA,NA,NA,"null",NA,NA,NA,NA,NA,NA
"658.6000000238419","<p>You got 8 out of 8 right first time. Press Continue.</p>",0,"html-button-response",230,878363,"0.0-16.0-25.0",83432,"ListA","woman","english",NA,NA,NA,NA,NA,NA,NA,NA,NA,NA
"null","<div style=""font-size:60px;"">+</div>",NA,"html-keyboard-response",231,879886,"0.0-17.0-0.0",83432,"ListA","woman","english",NA,NA,NA,"null",NA,NA,NA,NA,NA,NA
"null","<img src='gifs/ChineseGender2b.gif' style='height:400px;''></img>",NA,"html-keyboard-response",232,881894,"0.0-17.0-1.0",83432,"ListA","woman","english",NA,NA,NA,"null",NA,NA,NA,NA,NA,NA
"null","is mentioning",NA,"html-keyboard-response",233,884898,"0.0-17.0-2.0",83432,"ListA","woman","english",NA,NA,NA,"null",NA,NA,NA,NA,NA,NA
"4242.5",NA,NA,"survey-text",234,889144,"0.0-17.0-3.0",83432,"ListA","woman","english",NA,NA,NA,NA,"{""Q0"":""beth is mentioning fred""}","<img src='gifs/ChineseGender2b.gif' style='height:400px;''></img>","mention","is mentioning","english",NA
"null","<div style=""font-size:60px;"">+</div>",NA,"html-keyboard-response",235,889654,"0.0-17.0-0.1",83432,"ListA","woman","english",NA,NA,NA,"null",NA,NA,NA,NA,NA,NA
"null","<img src='gifs/ChineseGender3b.gif' style='height:400px;''></img>",NA,"html-keyboard-response",236,891659,"0.0-17.0-1.1",83432,"ListA","woman","english",NA,NA,NA,"null",NA,NA,NA,NA,NA,NA
"null","is accompanying",NA,"html-keyboard-response",237,894665,"0.0-17.0-2.1",83432,"ListA","woman","english",NA,NA,NA,"null",NA,NA,NA,NA,NA,NA
"4604.199999988079",NA,NA,"survey-text",238,899274,"0.0-17.0-3.1",83432,"ListA","woman","english",NA,NA,NA,NA,"{""Q0"":""mike is accompanying beth""}","<img src='gifs/ChineseGender3b.gif' style='height:400px;''></img>","accompanying","is accompanying","english",NA
"null","<div style=""font-size:60px;"">+</div>",NA,"html-keyboard-response",239,899781,"0.0-17.0-0.2",83432,"ListA","woman","english",NA,NA,NA,"null",NA,NA,NA,NA,NA,NA
"null","<img src='gifs/BlackGender3b.gif' style='height:400px;''></img>",NA,"html-keyboard-response",240,901789,"0.0-17.0-1.2",83432,"ListA","woman","english",NA,NA,NA,"null",NA,NA,NA,NA,NA,NA
"null","is contacting",NA,"html-keyboard-response",241,904797,"0.0-17.0-2.2",83432,"ListA","woman","english",NA,NA,NA,"null",NA,NA,NA,NA,NA,NA
"3640.4000000059605",NA,NA,"survey-text",242,908442,"0.0-17.0-3.2",83432,"ListA","woman","english",NA,NA,NA,NA,"{""Q0"":""jane is contacting luke""}","<img src='gifs/BlackGender3b.gif' style='height:400px;''></img>","contacting","is contacting","english",NA
"null","<div style=""font-size:60px;"">+</div>",NA,"html-keyboard-response",243,908949,"0.0-17.0-0.3",83432,"ListA","woman","english",NA,NA,NA,"null",NA,NA,NA,NA,NA,NA
"null","<img src='gifs/BlackGender3b.gif' style='height:400px;''></img>",NA,"html-keyboard-response",244,910955,"0.0-17.0-1.3",83432,"ListA","woman","english",NA,NA,NA,"null",NA,NA,NA,NA,NA,NA
"null","is looking at",NA,"html-keyboard-response",245,913961,"0.0-17.0-2.3",83432,"ListA","woman","english",NA,NA,NA,"null",NA,NA,NA,NA,NA,NA
"6814.5999999940395",NA,NA,"survey-text",246,920780,"0.0-17.0-3.3",83432,"ListA","woman","english",NA,NA,NA,NA,"{""Q0"":""jane is ?? luke""}","<img src='gifs/BlackGender3b.gif' style='height:400px;''></img>","looking at","is looking at","english",NA
"null","<div style=""font-size:60px;"">+</div>",NA,"html-keyboard-response",247,921285,"0.0-17.0-0.4",83432,"ListA","woman","english",NA,NA,NA,"null",NA,NA,NA,NA,NA,NA
"null","<img src='gifs/BlackGender2a.gif' style='height:400px;''></img>",NA,"html-keyboard-response",248,923292,"0.0-17.0-1.4",83432,"ListA","woman","english",NA,NA,NA,"null",NA,NA,NA,NA,NA,NA
"null","is touching",NA,"html-keyboard-response",249,926296,"0.0-17.0-2.4",83432,"ListA","woman","english",NA,NA,NA,"null",NA,NA,NA,NA,NA,NA
"3399.399999976158",NA,NA,"survey-text",250,929700,"0.0-17.0-3.4",83432,"ListA","woman","english",NA,NA,NA,NA,"{""Q0"":""ruth is touching dave""}","<img src='gifs/BlackGender2a.gif' style='height:400px;''></img>","touching","is touching","english",NA
"null","<div style=""font-size:60px;"">+</div>",NA,"html-keyboard-response",251,930212,"0.0-17.0-0.5",83432,"ListA","woman","english",NA,NA,NA,"null",NA,NA,NA,NA,NA,NA
"null","<img src='gifs/FemaleRace2b.gif' style='height:400px;''></img>",NA,"html-keyboard-response",252,932216,"0.0-17.0-1.5",83432,"ListA","woman","english",NA,NA,NA,"null",NA,NA,NA,NA,NA,NA
"null","is walking towards",NA,"html-keyboard-response",253,935225,"0.0-17.0-2.5",83432,"ListA","woman","english",NA,NA,NA,"null",NA,NA,NA,NA,NA,NA
"4011.9000000059605",NA,NA,"survey-text",254,939241,"0.0-17.0-3.5",83432,"ListA","woman","english",NA,NA,NA,NA,"{""Q0"":""jane is walking towards kate""}","<img src='gifs/FemaleRace2b.gif' style='height:400px;''></img>","walking towards","is walking towards","english",NA
"null","<div style=""font-size:60px;"">+</div>",NA,"html-keyboard-response",255,939748,"0.0-17.0-0.6",83432,"ListA","woman","english",NA,NA,NA,"null",NA,NA,NA,NA,NA,NA
"null","<img src='gifs/FemaleRace1a.gif' style='height:400px;''></img>",NA,"html-keyboard-response",256,941756,"0.0-17.0-1.6",83432,"ListA","woman","english",NA,NA,NA,"null",NA,NA,NA,NA,NA,NA
"null","is mentioning",NA,"html-keyboard-response",257,944760,"0.0-17.0-2.6",83432,"ListA","woman","english",NA,NA,NA,"null",NA,NA,NA,NA,NA,NA
"2870.199999988079",NA,NA,"survey-text",258,947635,"0.0-17.0-3.6",83432,"ListA","woman","english",NA,NA,NA,NA,"{""Q0"":""kate is mentioning ruth""}","<img src='gifs/FemaleRace1a.gif' style='height:400px;''></img>","mention","is mentioning","english",NA
"null","<div style=""font-size:60px;"">+</div>",NA,"html-keyboard-response",259,948139,"0.0-17.0-0.7",83432,"ListA","woman","english",NA,NA,NA,"null",NA,NA,NA,NA,NA,NA
"null","<img src='gifs/MaleRace2b.gif' style='height:400px;''></img>",NA,"html-keyboard-response",260,950148,"0.0-17.0-1.7",83432,"ListA","woman","english",NA,NA,NA,"null",NA,NA,NA,NA,NA,NA
"null","is walking towards",NA,"html-keyboard-response",261,953156,"0.0-17.0-2.7",83432,"ListA","woman","english",NA,NA,NA,"null",NA,NA,NA,NA,NA,NA
"3518.699999988079",NA,NA,"survey-text",262,956679,"0.0-17.0-3.7",83432,"ListA","woman","english",NA,NA,NA,NA,"{""Q0"":""dave is walking towards fred""}","<img src='gifs/MaleRace2b.gif' style='height:400px;''></img>","walking towards","is walking towards","english",NA
"null","<div style=""font-size:60px;"">+</div>",NA,"html-keyboard-response",263,957188,"0.0-17.0-0.8",83432,"ListA","woman","english",NA,NA,NA,"null",NA,NA,NA,NA,NA,NA
"null","<img src='gifs/MaleRace2b.gif' style='height:400px;''></img>",NA,"html-keyboard-response",264,959204,"0.0-17.0-1.8",83432,"ListA","woman","english",NA,NA,NA,"null",NA,NA,NA,NA,NA,NA
"null","is facing",NA,"html-keyboard-response",265,962208,"0.0-17.0-2.8",83432,"ListA","woman","english",NA,NA,NA,"null",NA,NA,NA,NA,NA,NA
"4798.4000000059605",NA,NA,"survey-text",266,967012,"0.0-17.0-3.8",83432,"ListA","woman","english",NA,NA,NA,NA,"{""Q0"":""fred is facing dave""}","<img src='gifs/MaleRace2b.gif' style='height:400px;''></img>","facing","is facing","english",NA
"null","<div style=""font-size:60px;"">+</div>",NA,"html-keyboard-response",267,967519,"0.0-17.0-0.9",83432,"ListA","woman","english",NA,NA,NA,"null",NA,NA,NA,NA,NA,NA
"null","<img src='gifs/FemaleRace2a.gif' style='height:400px;''></img>",NA,"html-keyboard-response",268,969528,"0.0-17.0-1.9",83432,"ListA","woman","english",NA,NA,NA,"null",NA,NA,NA,NA,NA,NA
"null","is facing",NA,"html-keyboard-response",269,972539,"0.0-17.0-2.9",83432,"ListA","woman","english",NA,NA,NA,"null",NA,NA,NA,NA,NA,NA
"4164.5",NA,NA,"survey-text",270,976708,"0.0-17.0-3.9",83432,"ListA","woman","english",NA,NA,NA,NA,"{""Q0"":""kate is facing jane""}","<img src='gifs/FemaleRace2a.gif' style='height:400px;''></img>","facing","is facing","english",NA
"null","<div style=""font-size:60px;"">+</div>",NA,"html-keyboard-response",271,977219,"0.0-17.0-0.10",83432,"ListA","woman","english",NA,NA,NA,"null",NA,NA,NA,NA,NA,NA
"null","<img src='gifs/BlackGender2b.gif' style='height:400px;''></img>",NA,"html-keyboard-response",272,979235,"0.0-17.0-1.10",83432,"ListA","woman","english",NA,NA,NA,"null",NA,NA,NA,NA,NA,NA
"null","is promising",NA,"html-keyboard-response",273,982243,"0.0-17.0-2.10",83432,"ListA","woman","english",NA,NA,NA,"null",NA,NA,NA,NA,NA,NA
"3094.9000000059605",NA,NA,"survey-text",274,985342,"0.0-17.0-3.10",83432,"ListA","woman","english",NA,NA,NA,NA,"{""Q0"":""dave is promising ruth""}","<img src='gifs/BlackGender2b.gif' style='height:400px;''></img>","promising","is promising","english",NA
"null","<div style=""font-size:60px;"">+</div>",NA,"html-keyboard-response",275,985848,"0.0-17.0-0.11",83432,"ListA","woman","english",NA,NA,NA,"null",NA,NA,NA,NA,NA,NA
"null","<img src='gifs/ChineseGender2b.gif' style='height:400px;''></img>",NA,"html-keyboard-response",276,987859,"0.0-17.0-1.11",83432,"ListA","woman","english",NA,NA,NA,"null",NA,NA,NA,NA,NA,NA
"null","is looking at",NA,"html-keyboard-response",277,990867,"0.0-17.0-2.11",83432,"ListA","woman","english",NA,NA,NA,"null",NA,NA,NA,NA,NA,NA
"3531.5999999940395",NA,NA,"survey-text",278,994403,"0.0-17.0-3.11",83432,"ListA","woman","english",NA,NA,NA,NA,"{""Q0"":""fred is looking at beth""}","<img src='gifs/ChineseGender2b.gif' style='height:400px;''></img>","looking at","is looking at","english",NA
"null","<div style=""font-size:60px;"">+</div>",NA,"html-keyboard-response",279,994913,"0.0-17.0-0.12",83432,"ListA","woman","english",NA,NA,NA,"null",NA,NA,NA,NA,NA,NA
"null","<img src='gifs/BlackGender3a.gif' style='height:400px;''></img>",NA,"html-keyboard-response",280,996918,"0.0-17.0-1.12",83432,"ListA","woman","english",NA,NA,NA,"null",NA,NA,NA,NA,NA,NA
"null","is praising",NA,"html-keyboard-response",281,999930,"0.0-17.0-2.12",83432,"ListA","woman","english",NA,NA,NA,"null",NA,NA,NA,NA,NA,NA
"4113.800000011921",NA,NA,"survey-text",282,1004046,"0.0-17.0-3.12",83432,"ListA","woman","english",NA,NA,NA,NA,"{""Q0"":""luke is praising jane""}","<img src='gifs/BlackGender3a.gif' style='height:400px;''></img>","praising","is praising","english",NA
"null","<div style=""font-size:60px;"">+</div>",NA,"html-keyboard-response",283,1004554,"0.0-17.0-0.13",83432,"ListA","woman","english",NA,NA,NA,"null",NA,NA,NA,NA,NA,NA
"null","<img src='gifs/ChineseGender4b.gif' style='height:400px;''></img>",NA,"html-keyboard-response",284,1006562,"0.0-17.0-1.13",83432,"ListA","woman","english",NA,NA,NA,"null",NA,NA,NA,NA,NA,NA
"null","is employing",NA,"html-keyboard-response",285,1009568,"0.0-17.0-2.13",83432,"ListA","woman","english",NA,NA,NA,"null",NA,NA,NA,NA,NA,NA
"3407.5999999940395",NA,NA,"survey-text",286,1012979,"0.0-17.0-3.13",83432,"ListA","woman","english",NA,NA,NA,NA,"{""Q0"":""kate is employing mike""}","<img src='gifs/ChineseGender4b.gif' style='height:400px;''></img>","employing","is employing","english",NA
"null","<div style=""font-size:60px;"">+</div>",NA,"html-keyboard-response",287,1013490,"0.0-17.0-0.14",83432,"ListA","woman","english",NA,NA,NA,"null",NA,NA,NA,NA,NA,NA
"null","<img src='gifs/BlackGender2a.gif' style='height:400px;''></img>",NA,"html-keyboard-response",288,1015494,"0.0-17.0-1.14",83432,"ListA","woman","english",NA,NA,NA,"null",NA,NA,NA,NA,NA,NA
"null","is introducing",NA,"html-keyboard-response",289,1018505,"0.0-17.0-2.14",83432,"ListA","woman","english",NA,NA,NA,"null",NA,NA,NA,NA,NA,NA
"4340.699999988079",NA,NA,"survey-text",290,1022849,"0.0-17.0-3.14",83432,"ListA","woman","english",NA,NA,NA,NA,"{""Q0"":""dave is introducing ruth""}","<img src='gifs/BlackGender2a.gif' style='height:400px;''></img>","introducing","is introducing","english",NA
"null","<div style=""font-size:60px;"">+</div>",NA,"html-keyboard-response",291,1023358,"0.0-17.0-0.15",83432,"ListA","woman","english",NA,NA,NA,"null",NA,NA,NA,NA,NA,NA
"null","<img src='gifs/MaleRace2a.gif' style='height:400px;''></img>",NA,"html-keyboard-response",292,1025369,"0.0-17.0-1.15",83432,"ListA","woman","english",NA,NA,NA,"null",NA,NA,NA,NA,NA,NA
"null","is listening to",NA,"html-keyboard-response",293,1028374,"0.0-17.0-2.15",83432,"ListA","woman","english",NA,NA,NA,"null",NA,NA,NA,NA,NA,NA
"3510.4000000059605",NA,NA,"survey-text",294,1031889,"0.0-17.0-3.15",83432,"ListA","woman","english",NA,NA,NA,NA,"{""Q0"":""dave is listening to fred""}","<img src='gifs/MaleRace2a.gif' style='height:400px;''></img>","listening to","is listening to","english",NA
"null","<div style=""font-size:60px;"">+</div>",NA,"html-keyboard-response",295,1032401,"0.0-17.0-0.16",83432,"ListA","woman","english",NA,NA,NA,"null",NA,NA,NA,NA,NA,NA
"null","<img src='gifs/FemaleRace1b.gif' style='height:400px;''></img>",NA,"html-keyboard-response",296,1034409,"0.0-17.0-1.16",83432,"ListA","woman","english",NA,NA,NA,"null",NA,NA,NA,NA,NA,NA
"null","is facing",NA,"html-keyboard-response",297,1037414,"0.0-17.0-2.16",83432,"ListA","woman","english",NA,NA,NA,"null",NA,NA,NA,NA,NA,NA
"4075.5",NA,NA,"survey-text",298,1041492,"0.0-17.0-3.16",83432,"ListA","woman","english",NA,NA,NA,NA,"{""Q0"":""ruth is facing kate""}","<img src='gifs/FemaleRace1b.gif' style='height:400px;''></img>","facing","is facing","english",NA
"null","<div style=""font-size:60px;"">+</div>",NA,"html-keyboard-response",299,1042001,"0.0-17.0-0.17",83432,"ListA","woman","english",NA,NA,NA,"null",NA,NA,NA,NA,NA,NA
"null","<img src='gifs/MaleRace4b.gif' style='height:400px;''></img>",NA,"html-keyboard-response",300,1044006,"0.0-17.0-1.17",83432,"ListA","woman","english",NA,NA,NA,"null",NA,NA,NA,NA,NA,NA
"null","is introducing",NA,"html-keyboard-response",301,1047017,"0.0-17.0-2.17",83432,"ListA","woman","english",NA,NA,NA,"null",NA,NA,NA,NA,NA,NA
"3149.7999999821186",NA,NA,"survey-text",302,1050171,"0.0-17.0-3.17",83432,"ListA","woman","english",NA,NA,NA,NA,"{""Q0"":""mike is introducing dave""}","<img src='gifs/MaleRace4b.gif' style='height:400px;''></img>","introducing","is introducing","english",NA
"2924.5","<p>Thank you for completing that task.</p><p>The final part of this session is a short questionnaire.</p><p>Press Continue.</p>",0,"html-button-response",303,1053097,"0.0-18.0",83432,"ListA","woman","english",NA,NA,NA,NA,NA,NA,NA,NA,NA,NA
"30864.399999976158",NA,NA,"survey-text",304,1084968,"0.0-19.0",83432,"ListA","woman","english",NA,NA,NA,NA,"{""Q0"":""23"",""Q1"":""Chinese"",""Q2"":""Chinese/English"",""Q3"":""USA"",""Q4"":""China"",""Q5"":""Asian"",""Q6"":""Female""}",NA,NA,NA,NA,"demographics"
"61694.30000001192",NA,NA,"external-html",305,1147015,"0.0-20.0",83432,"ListA","woman","english","debrief.html",NA,NA,NA,NA,NA,NA,NA,NA,NA
"12796.699999988079",NA,NA,"survey-text",306,1159816,"0.0-21.0",83432,"ListA","woman","english",NA,NA,NA,NA,"{""Q0"":""EFA5""}",NA,NA,NA,NA,"worker_id"
