"rt","stimulus","button_pressed","trial_type","trial_index","time_elapsed","internal_node_id","subject","list","ppt_gender","ppt_language","ptptID","url","first_guess","correct","key_press","responses","image","verb","phrase","condition","test_part"
"7158","Welcome to the experiment. Press Continue to begin.",0,"html-button-response",0,7161,"0.0-0.0",85075,"ListA","man","english","EMA5",NA,NA,NA,NA,NA,NA,NA,NA,NA,NA
"10052",NA,NA,"external-html",1,18229,"0.0-1.0",85075,"ListA","man","english","EMA5","consent.html",NA,NA,NA,NA,NA,NA,NA,NA,NA
"3833","<p>On the next page, you will see portraits of 8 people and their names.</p><p>Your first task is to take a few minutes to memorise the names of these people.</p><p>You will have to recall their names during the rest of the experiment, so it is</p><p>essential that you try to memorise these people and their names as best as you can.</p><p><strong>You will then be tested on your memory of these names and portraits.</strong></p><p>The experiment will start after you have completed this memory test.</p><p>Ready?</p>",0,"html-button-response",2,22063,"0.0-2.0",85075,"ListA","man","english","EMA5",NA,NA,NA,NA,NA,NA,NA,NA,NA,NA
"95529","<img src='img/portrait_matrix_listA.jpg' style='width:900px;height:500px;''></img><p>If you have memorised all the portraits and names and are ready to start, press Continue.</p><p><strong>Please note: Your memory of these faces will be tested 5 times during this experiment.</strong></p>",0,"html-button-response",3,118595,"0.0-3.0-0.0",85075,"ListA","man","english","EMA5",NA,NA,NA,NA,NA,NA,NA,NA,NA,NA
"24145","<img src=""portrait/WW2.jpg""style=""height:400px;""></img>",3,"html-button-response",4,143743,"0.0-3.0-1.0",85075,"ListA","man","english","EMA5",NA,TRUE,3,NA,NA,NA,NA,NA,NA,NA
"null","CORRECT",NA,"html-keyboard-response",5,145252,"0.0-3.0-2.0-0.0",85075,"ListA","man","english","EMA5",NA,NA,NA,"null",NA,NA,NA,NA,NA,NA
"3331","<img src=""portrait/BW1.jpg""style=""height:400px;""></img>",0,"html-button-response",6,148586,"0.0-3.0-4.0",85075,"ListA","man","english","EMA5",NA,TRUE,0,NA,NA,NA,NA,NA,NA,NA
"null","CORRECT",NA,"html-keyboard-response",7,150090,"0.0-3.0-5.0-0.0",85075,"ListA","man","english","EMA5",NA,NA,NA,"null",NA,NA,NA,NA,NA,NA
"6321.999999999970","<img src=""portrait/WW1.jpg""style=""height:400px;""></img>",1,"html-button-response",8,156415,"0.0-3.0-7.0",85075,"ListA","man","english","EMA5",NA,TRUE,1,NA,NA,NA,NA,NA,NA,NA
"null","CORRECT",NA,"html-keyboard-response",9,157918,"0.0-3.0-8.0-0.0",85075,"ListA","man","english","EMA5",NA,NA,NA,"null",NA,NA,NA,NA,NA,NA
"3796","<img src=""portrait/BW2.jpg""style=""height:400px;""></img>",2,"html-button-response",10,161716,"0.0-3.0-10.0",85075,"ListA","man","english","EMA5",NA,TRUE,2,NA,NA,NA,NA,NA,NA,NA
"null","CORRECT",NA,"html-keyboard-response",11,163219,"0.0-3.0-11.0-0.0",85075,"ListA","man","english","EMA5",NA,NA,NA,"null",NA,NA,NA,NA,NA,NA
"1403","<img src=""portrait/WM2.jpg""style=""height:400px;""></img>",7,"html-button-response",12,164625,"0.0-3.0-13.0",85075,"ListA","man","english","EMA5",NA,TRUE,7,NA,NA,NA,NA,NA,NA,NA
"null","CORRECT",NA,"html-keyboard-response",13,166129,"0.0-3.0-14.0-0.0",85075,"ListA","man","english","EMA5",NA,NA,NA,"null",NA,NA,NA,NA,NA,NA
"2069","<img src=""portrait/WM1.jpg""style=""height:400px;""></img>",6,"html-button-response",14,168202,"0.0-3.0-16.0",85075,"ListA","man","english","EMA5",NA,TRUE,6,NA,NA,NA,NA,NA,NA,NA
"null","CORRECT",NA,"html-keyboard-response",15,169705,"0.0-3.0-17.0-0.0",85075,"ListA","man","english","EMA5",NA,NA,NA,"null",NA,NA,NA,NA,NA,NA
"5456","<img src=""portrait/BM1.jpg""style=""height:400px;""></img>",5,"html-button-response",16,175163,"0.0-3.0-19.0",85075,"ListA","man","english","EMA5",NA,TRUE,4,NA,NA,NA,NA,NA,NA,NA
"4249.000000000030","<img src=""portrait/BM1.jpg""style=""height:400px;""></img>",4,"html-button-response",17,180415,"0.0-3.0-21.0-0.0",85075,"ListA","man","english","EMA5",NA,FALSE,4,NA,NA,NA,NA,NA,NA,NA
"null","CORRECT",NA,"html-keyboard-response",18,181919,"0.0-3.0-21.0-1.0-0.0",85075,"ListA","man","english","EMA5",NA,NA,NA,"null",NA,NA,NA,NA,NA,NA
"3695.000000000030","<img src=""portrait/BM2.jpg""style=""height:400px;""></img>",5,"html-button-response",19,185617,"0.0-3.0-22.0",85075,"ListA","man","english","EMA5",NA,TRUE,5,NA,NA,NA,NA,NA,NA,NA
"null","CORRECT",NA,"html-keyboard-response",20,187120,"0.0-3.0-23.0-0.0",85075,"ListA","man","english","EMA5",NA,NA,NA,"null",NA,NA,NA,NA,NA,NA
"1721.999999999970","<p>You got 7 out of 8 right first time. Press Continue.</p>",0,"html-button-response",21,188844,"0.0-3.0-25.0",85075,"ListA","man","english","EMA5",NA,NA,NA,NA,NA,NA,NA,NA,NA,NA
"3432","As you did not score 100%, the memory game will repeat. Press Continue.",0,"html-button-response",22,193279,"0.0-3.0-26.0-0.0",85075,"ListA","man","english","EMA5",NA,NA,NA,NA,NA,NA,NA,NA,NA,NA
"10627","<img src='img/portrait_matrix_listA.jpg' style='width:900px;height:500px;''></img><p>If you have memorised all the portraits and names and are ready to start, press Continue.</p><p><strong>Please note: Your memory of these faces will be tested 5 times during this experiment.</strong></p>",0,"html-button-response",23,204916,"0.0-3.1-0.1",85075,"ListA","man","english","EMA5",NA,NA,NA,NA,NA,NA,NA,NA,NA,NA
"2499","<img src=""portrait/WW2.jpg""style=""height:400px;""></img>",3,"html-button-response",24,208417,"0.0-3.1-1.1",85075,"ListA","man","english","EMA5",NA,TRUE,3,NA,NA,NA,NA,NA,NA,NA
"null","CORRECT",NA,"html-keyboard-response",25,209924,"0.0-3.1-2.1-0.1",85075,"ListA","man","english","EMA5",NA,NA,NA,"null",NA,NA,NA,NA,NA,NA
"2559","<img src=""portrait/BW1.jpg""style=""height:400px;""></img>",0,"html-button-response",26,212485,"0.0-3.1-4.1",85075,"ListA","man","english","EMA5",NA,TRUE,0,NA,NA,NA,NA,NA,NA,NA
"null","CORRECT",NA,"html-keyboard-response",27,213989,"0.0-3.1-5.1-0.1",85075,"ListA","man","english","EMA5",NA,NA,NA,"null",NA,NA,NA,NA,NA,NA
"1035.000000000030","<img src=""portrait/WW1.jpg""style=""height:400px;""></img>",1,"html-button-response",28,215027,"0.0-3.1-7.1",85075,"ListA","man","english","EMA5",NA,TRUE,1,NA,NA,NA,NA,NA,NA,NA
"null","CORRECT",NA,"html-keyboard-response",29,216531,"0.0-3.1-8.1-0.1",85075,"ListA","man","english","EMA5",NA,NA,NA,"null",NA,NA,NA,NA,NA,NA
"1128","<img src=""portrait/BW2.jpg""style=""height:400px;""></img>",2,"html-button-response",30,217662,"0.0-3.1-10.1",85075,"ListA","man","english","EMA5",NA,TRUE,2,NA,NA,NA,NA,NA,NA,NA
"null","CORRECT",NA,"html-keyboard-response",31,219165,"0.0-3.1-11.1-0.1",85075,"ListA","man","english","EMA5",NA,NA,NA,"null",NA,NA,NA,NA,NA,NA
"1221","<img src=""portrait/WM2.jpg""style=""height:400px;""></img>",7,"html-button-response",32,220389,"0.0-3.1-13.1",85075,"ListA","man","english","EMA5",NA,TRUE,7,NA,NA,NA,NA,NA,NA,NA
"null","CORRECT",NA,"html-keyboard-response",33,221893,"0.0-3.1-14.1-0.1",85075,"ListA","man","english","EMA5",NA,NA,NA,"null",NA,NA,NA,NA,NA,NA
"2685.999999999970","<img src=""portrait/WM1.jpg""style=""height:400px;""></img>",6,"html-button-response",34,224582,"0.0-3.1-16.1",85075,"ListA","man","english","EMA5",NA,TRUE,6,NA,NA,NA,NA,NA,NA,NA
"null","CORRECT",NA,"html-keyboard-response",35,226086,"0.0-3.1-17.1-0.1",85075,"ListA","man","english","EMA5",NA,NA,NA,"null",NA,NA,NA,NA,NA,NA
"6638","<img src=""portrait/BM1.jpg""style=""height:400px;""></img>",4,"html-button-response",36,232726,"0.0-3.1-19.1",85075,"ListA","man","english","EMA5",NA,TRUE,4,NA,NA,NA,NA,NA,NA,NA
"null","CORRECT",NA,"html-keyboard-response",37,234230,"0.0-3.1-20.1-0.1",85075,"ListA","man","english","EMA5",NA,NA,NA,"null",NA,NA,NA,NA,NA,NA
"1421","<img src=""portrait/BM2.jpg""style=""height:400px;""></img>",5,"html-button-response",38,235653,"0.0-3.1-22.1",85075,"ListA","man","english","EMA5",NA,TRUE,5,NA,NA,NA,NA,NA,NA,NA
"null","CORRECT",NA,"html-keyboard-response",39,237156,"0.0-3.1-23.1-0.1",85075,"ListA","man","english","EMA5",NA,NA,NA,"null",NA,NA,NA,NA,NA,NA
"786","<p>You got 8 out of 8 right first time. Press Continue.</p>",0,"html-button-response",40,237945,"0.0-3.1-25.1",85075,"ListA","man","english","EMA5",NA,NA,NA,NA,NA,NA,NA,NA,NA,NA
"61410.0000000001","<p>In this experiment, you will view photographs of the people from the memory game.</p><p>By using the <strong>exact</strong> phrase given <i>after</i> the photograph appears and recalling the correct names of the people in the photographs, form a sentence describing an interaction. You do not need to capitalise names.</p><p>Type your answer in the space provided. Please complete every sentence before moving onto the next trial.</p><p>You will only have a few seconds to memorise each given photograph and phrase before you can respond, so try your best to focus.</p><p>An example is given below. Press 'Continue' when you are ready.</p><img src='img/speaking_example.jpg' style='width:800px;height:460px;''></img>",0,"html-button-response",41,300358,"0.0-4.0",85075,"ListA","man","english","EMA5",NA,NA,NA,NA,NA,NA,NA,NA,NA,NA
"1871","<p>Before the experiment starts, you will watch two example trials. Press 'Continue'.</p>",0,"html-button-response",42,303232,"0.0-5.0",85075,"ListA","man","english","EMA5",NA,NA,NA,NA,NA,NA,NA,NA,NA,NA
"null","<img src='img/meet.gif' style='height:400px;''></img>",NA,"html-keyboard-response",43,306236,"0.0-6.0",85075,"ListA","man","english","EMA5",NA,NA,NA,"null",NA,NA,NA,NA,NA,NA
"null","<p>is meeting</p>",NA,"html-keyboard-response",44,308239,"0.0-7.0",85075,"ListA","man","english","EMA5",NA,NA,NA,"null",NA,NA,NA,NA,NA,NA
"4120","<p><b>Answer:</b> kate is meeting beth</p>",0,"html-button-response",45,312363,"0.0-8.0",85075,"ListA","man","english","EMA5",NA,NA,NA,NA,NA,NA,NA,NA,NA,NA
"null","<img src='img/spy.gif' style='height:400px;''></img>",NA,"html-keyboard-response",46,315367,"0.0-9.0",85075,"ListA","man","english","EMA5",NA,NA,NA,"null",NA,NA,NA,NA,NA,NA
"null","<p>is being spied on by</p>",NA,"html-keyboard-response",47,317369,"0.0-10.0",85075,"ListA","man","english","EMA5",NA,NA,NA,"null",NA,NA,NA,NA,NA,NA
"3812","<p><b>Answer:</b> luke is being spied on by dave</p>",0,"html-button-response",48,321183,"0.0-11.0",85075,"ListA","man","english","EMA5",NA,NA,NA,NA,NA,NA,NA,NA,NA,NA
"8077","<p>Ready to start the experiment?</p><br><p><strong>Remember to describe the picture using a full sentence,</strong></p><p><strong>that combines the names of the people with the <i>exact</i> phrase given.</strong></p><p><strong>To receive full payment you must do this correctly.</strong></p><p><strong> You do not need to capitalise names or use punctuation.</strong></p><br><p>Press 'Continue' to begin.</p>",0,"html-button-response",49,330262,"0.0-12.0",85075,"ListA","man","english","EMA5",NA,NA,NA,NA,NA,NA,NA,NA,NA,NA
"null","<div style=""font-size:60px;"">+</div>",NA,"html-keyboard-response",50,331764,"0.0-13.0-0.0",85075,"ListA","man","english","EMA5",NA,NA,NA,"null",NA,NA,NA,NA,NA,NA
"null","<img src='gifs/FemaleRace1a.gif' style='height:400px;''></img>",NA,"html-keyboard-response",51,333769,"0.0-13.0-1.0",85075,"ListA","man","english","EMA5",NA,NA,NA,"null",NA,NA,NA,NA,NA,NA
"null","is employing",NA,"html-keyboard-response",52,336771,"0.0-13.0-2.0",85075,"ListA","man","english","EMA5",NA,NA,NA,"null",NA,NA,NA,NA,NA,NA
"14356",NA,NA,"survey-text",53,351169,"0.0-13.0-3.0",85075,"ListA","man","english","EMA5",NA,NA,NA,NA,"{""Q0"":""Kate is employing Jane ""}","<img src='gifs/FemaleRace1a.gif' style='height:400px;''></img>","employing","is employing","english",NA
"null","<div style=""font-size:60px;"">+</div>",NA,"html-keyboard-response",54,351672,"0.0-13.0-0.1",85075,"ListA","man","english","EMA5",NA,NA,NA,"null",NA,NA,NA,NA,NA,NA
"null","<img src='gifs/BlackGender1b.gif' style='height:400px;''></img>",NA,"html-keyboard-response",55,353675,"0.0-13.0-1.1",85075,"ListA","man","english","EMA5",NA,NA,NA,"null",NA,NA,NA,NA,NA,NA
"null","is approaching",NA,"html-keyboard-response",56,356678,"0.0-13.0-2.1",85075,"ListA","man","english","EMA5",NA,NA,NA,"null",NA,NA,NA,NA,NA,NA
"54299",NA,NA,"survey-text",57,410990,"0.0-13.0-3.1",85075,"ListA","man","english","EMA5",NA,NA,NA,NA,"{""Q0"":""Luke is approaching ruth ""}","<img src='gifs/BlackGender1b.gif' style='height:400px;''></img>","approaching","is approaching","english",NA
"null","<div style=""font-size:60px;"">+</div>",NA,"html-keyboard-response",58,411492,"0.0-13.0-0.2",85075,"ListA","man","english","EMA5",NA,NA,NA,"null",NA,NA,NA,NA,NA,NA
"null","<img src='gifs/ChineseGender4a.gif' style='height:400px;''></img>",NA,"html-keyboard-response",59,413495,"0.0-13.0-1.2",85075,"ListA","man","english","EMA5",NA,NA,NA,"null",NA,NA,NA,NA,NA,NA
"null","is approaching",NA,"html-keyboard-response",60,416498,"0.0-13.0-2.2",85075,"ListA","man","english","EMA5",NA,NA,NA,"null",NA,NA,NA,NA,NA,NA
"8253",NA,NA,"survey-text",61,424761,"0.0-13.0-3.2",85075,"ListA","man","english","EMA5",NA,NA,NA,NA,"{""Q0"":""Mike is approaching ruth ""}","<img src='gifs/ChineseGender4a.gif' style='height:400px;''></img>","approaching","is approaching","english",NA
"null","<div style=""font-size:60px;"">+</div>",NA,"html-keyboard-response",62,425263,"0.0-13.0-0.3",85075,"ListA","man","english","EMA5",NA,NA,NA,"null",NA,NA,NA,NA,NA,NA
"null","<img src='gifs/FemaleRace2b.gif' style='height:400px;''></img>",NA,"html-keyboard-response",63,427265,"0.0-13.0-1.3",85075,"ListA","man","english","EMA5",NA,NA,NA,"null",NA,NA,NA,NA,NA,NA
"null","is employing",NA,"html-keyboard-response",64,430268,"0.0-13.0-2.3",85075,"ListA","man","english","EMA5",NA,NA,NA,"null",NA,NA,NA,NA,NA,NA
"16875.9999999999",NA,NA,"survey-text",65,447154,"0.0-13.0-3.3",85075,"ListA","man","english","EMA5",NA,NA,NA,NA,"{""Q0"":""Kate is employing Jane ""}","<img src='gifs/FemaleRace2b.gif' style='height:400px;''></img>","employing","is employing","english",NA
"null","<div style=""font-size:60px;"">+</div>",NA,"html-keyboard-response",66,447656,"0.0-13.0-0.4",85075,"ListA","man","english","EMA5",NA,NA,NA,"null",NA,NA,NA,NA,NA,NA
"null","<img src='gifs/ChineseGender1a.gif' style='height:400px;''></img>",NA,"html-keyboard-response",67,449659,"0.0-13.0-1.4",85075,"ListA","man","english","EMA5",NA,NA,NA,"null",NA,NA,NA,NA,NA,NA
"null","is employing",NA,"html-keyboard-response",68,452666,"0.0-13.0-2.4",85075,"ListA","man","english","EMA5",NA,NA,NA,"null",NA,NA,NA,NA,NA,NA
"21335",NA,NA,"survey-text",69,474007,"0.0-13.0-3.4",85075,"ListA","man","english","EMA5",NA,NA,NA,NA,"{""Q0"":""Mike is employing Kate ""}","<img src='gifs/ChineseGender1a.gif' style='height:400px;''></img>","employing","is employing","english",NA
"null","<div style=""font-size:60px;"">+</div>",NA,"html-keyboard-response",70,474509,"0.0-13.0-0.5",85075,"ListA","man","english","EMA5",NA,NA,NA,"null",NA,NA,NA,NA,NA,NA
"null","<img src='gifs/MaleRace2b.gif' style='height:400px;''></img>",NA,"html-keyboard-response",71,476512,"0.0-13.0-1.5",85075,"ListA","man","english","EMA5",NA,NA,NA,"null",NA,NA,NA,NA,NA,NA
"null","is praising",NA,"html-keyboard-response",72,479514,"0.0-13.0-2.5",85075,"ListA","man","english","EMA5",NA,NA,NA,"null",NA,NA,NA,NA,NA,NA
"6605",NA,NA,"survey-text",73,486129,"0.0-13.0-3.5",85075,"ListA","man","english","EMA5",NA,NA,NA,NA,"{""Q0"":""Dave is praising Mike ""}","<img src='gifs/MaleRace2b.gif' style='height:400px;''></img>","praising","is praising","english",NA
"null","<div style=""font-size:60px;"">+</div>",NA,"html-keyboard-response",74,486630,"0.0-13.0-0.6",85075,"ListA","man","english","EMA5",NA,NA,NA,"null",NA,NA,NA,NA,NA,NA
"null","<img src='gifs/ChineseGender4b.gif' style='height:400px;''></img>",NA,"html-keyboard-response",75,488633,"0.0-13.0-1.6",85075,"ListA","man","english","EMA5",NA,NA,NA,"null",NA,NA,NA,NA,NA,NA
"null","is walking towards",NA,"html-keyboard-response",76,491636,"0.0-13.0-2.6",85075,"ListA","man","english","EMA5",NA,NA,NA,"null",NA,NA,NA,NA,NA,NA
"5845",NA,NA,"survey-text",77,497490,"0.0-13.0-3.6",85075,"ListA","man","english","EMA5",NA,NA,NA,NA,"{""Q0"":""Mike is walking towards Kate ""}","<img src='gifs/ChineseGender4b.gif' style='height:400px;''></img>","walking towards","is walking towards","english",NA
"null","<div style=""font-size:60px;"">+</div>",NA,"html-keyboard-response",78,497992,"0.0-13.0-0.7",85075,"ListA","man","english","EMA5",NA,NA,NA,"null",NA,NA,NA,NA,NA,NA
"null","<img src='gifs/MaleRace1b.gif' style='height:400px;''></img>",NA,"html-keyboard-response",79,499995,"0.0-13.0-1.7",85075,"ListA","man","english","EMA5",NA,NA,NA,"null",NA,NA,NA,NA,NA,NA
"null","is contacting",NA,"html-keyboard-response",80,502998,"0.0-13.0-2.7",85075,"ListA","man","english","EMA5",NA,NA,NA,"null",NA,NA,NA,NA,NA,NA
"9229",NA,NA,"survey-text",81,512236,"0.0-13.0-3.7",85075,"ListA","man","english","EMA5",NA,NA,NA,NA,"{""Q0"":""Luke is contacting Mike ""}","<img src='gifs/MaleRace1b.gif' style='height:400px;''></img>","contacting","is contacting","english",NA
"null","<div style=""font-size:60px;"">+</div>",NA,"html-keyboard-response",82,512738,"0.0-13.0-0.8",85075,"ListA","man","english","EMA5",NA,NA,NA,"null",NA,NA,NA,NA,NA,NA
"null","<img src='gifs/BlackGender1a.gif' style='height:400px;''></img>",NA,"html-keyboard-response",83,514741,"0.0-13.0-1.8",85075,"ListA","man","english","EMA5",NA,NA,NA,"null",NA,NA,NA,NA,NA,NA
"null","is accompanying",NA,"html-keyboard-response",84,517746,"0.0-13.0-2.8",85075,"ListA","man","english","EMA5",NA,NA,NA,"null",NA,NA,NA,NA,NA,NA
"40034",NA,NA,"survey-text",85,557789,"0.0-13.0-3.8",85075,"ListA","man","english","EMA5",NA,NA,NA,NA,"{""Q0"":""Luke is accompanying ruth  ""}","<img src='gifs/BlackGender1a.gif' style='height:400px;''></img>","accompanying","is accompanying","english",NA
"null","<div style=""font-size:60px;"">+</div>",NA,"html-keyboard-response",86,558291,"0.0-13.0-0.9",85075,"ListA","man","english","EMA5",NA,NA,NA,"null",NA,NA,NA,NA,NA,NA
"null","<img src='gifs/ChineseGender2b.gif' style='height:400px;''></img>",NA,"html-keyboard-response",87,560293,"0.0-13.0-1.9",85075,"ListA","man","english","EMA5",NA,NA,NA,"null",NA,NA,NA,NA,NA,NA
"null","is following",NA,"html-keyboard-response",88,563296,"0.0-13.0-2.9",85075,"ListA","man","english","EMA5",NA,NA,NA,"null",NA,NA,NA,NA,NA,NA
"4954",NA,NA,"survey-text",89,568258,"0.0-13.0-3.9",85075,"ListA","man","english","EMA5",NA,NA,NA,NA,"{""Q0"":""Miking is following Beth ""}","<img src='gifs/ChineseGender2b.gif' style='height:400px;''></img>","following","is following","english",NA
"null","<div style=""font-size:60px;"">+</div>",NA,"html-keyboard-response",90,568760,"0.0-13.0-0.10",85075,"ListA","man","english","EMA5",NA,NA,NA,"null",NA,NA,NA,NA,NA,NA
"null","<img src='gifs/FemaleRace2b.gif' style='height:400px;''></img>",NA,"html-keyboard-response",91,570762,"0.0-13.0-1.10",85075,"ListA","man","english","EMA5",NA,NA,NA,"null",NA,NA,NA,NA,NA,NA
"null","is convincing",NA,"html-keyboard-response",92,573765,"0.0-13.0-2.10",85075,"ListA","man","english","EMA5",NA,NA,NA,"null",NA,NA,NA,NA,NA,NA
"7547",NA,NA,"survey-text",93,581322,"0.0-13.0-3.10",85075,"ListA","man","english","EMA5",NA,NA,NA,NA,"{""Q0"":""Jane is convincing Kate ""}","<img src='gifs/FemaleRace2b.gif' style='height:400px;''></img>","convincing","is convincing","english",NA
"null","<div style=""font-size:60px;"">+</div>",NA,"html-keyboard-response",94,581824,"0.0-13.0-0.11",85075,"ListA","man","english","EMA5",NA,NA,NA,"null",NA,NA,NA,NA,NA,NA
"null","<img src='gifs/BlackGender4b.gif' style='height:400px;''></img>",NA,"html-keyboard-response",95,583827,"0.0-13.0-1.11",85075,"ListA","man","english","EMA5",NA,NA,NA,"null",NA,NA,NA,NA,NA,NA
"null","is joining",NA,"html-keyboard-response",96,586829,"0.0-13.0-2.11",85075,"ListA","man","english","EMA5",NA,NA,NA,"null",NA,NA,NA,NA,NA,NA
"3535",NA,NA,"survey-text",97,590373,"0.0-13.0-3.11",85075,"ListA","man","english","EMA5",NA,NA,NA,NA,"{""Q0"":""Dave is joining Jane ""}","<img src='gifs/BlackGender4b.gif' style='height:400px;''></img>","join","is joining","english",NA
"null","<div style=""font-size:60px;"">+</div>",NA,"html-keyboard-response",98,590874,"0.0-13.0-0.12",85075,"ListA","man","english","EMA5",NA,NA,NA,"null",NA,NA,NA,NA,NA,NA
"null","<img src='gifs/ChineseGender2b.gif' style='height:400px;''></img>",NA,"html-keyboard-response",99,592877,"0.0-13.0-1.12",85075,"ListA","man","english","EMA5",NA,NA,NA,"null",NA,NA,NA,NA,NA,NA
"null","is facing",NA,"html-keyboard-response",100,595880,"0.0-13.0-2.12",85075,"ListA","man","english","EMA5",NA,NA,NA,"null",NA,NA,NA,NA,NA,NA
"3544",NA,NA,"survey-text",101,599432,"0.0-13.0-3.12",85075,"ListA","man","english","EMA5",NA,NA,NA,NA,"{""Q0"":""Miking is facing Beth ""}","<img src='gifs/ChineseGender2b.gif' style='height:400px;''></img>","facing","is facing","english",NA
"null","<div style=""font-size:60px;"">+</div>",NA,"html-keyboard-response",102,599934,"0.0-13.0-0.13",85075,"ListA","man","english","EMA5",NA,NA,NA,"null",NA,NA,NA,NA,NA,NA
"null","<img src='gifs/FemaleRace3a.gif' style='height:400px;''></img>",NA,"html-keyboard-response",103,601937,"0.0-13.0-1.13",85075,"ListA","man","english","EMA5",NA,NA,NA,"null",NA,NA,NA,NA,NA,NA
"null","is looking at",NA,"html-keyboard-response",104,604940,"0.0-13.0-2.13",85075,"ListA","man","english","EMA5",NA,NA,NA,"null",NA,NA,NA,NA,NA,NA
"4658",NA,NA,"survey-text",105,609606,"0.0-13.0-3.13",85075,"ListA","man","english","EMA5",NA,NA,NA,NA,"{""Q0"":""ruth is looking at Beth ""}","<img src='gifs/FemaleRace3a.gif' style='height:400px;''></img>","looking at","is looking at","english",NA
"null","<div style=""font-size:60px;"">+</div>",NA,"html-keyboard-response",106,610108,"0.0-13.0-0.14",85075,"ListA","man","english","EMA5",NA,NA,NA,"null",NA,NA,NA,NA,NA,NA
"null","<img src='gifs/ChineseGender3a.gif' style='height:400px;''></img>",NA,"html-keyboard-response",107,612110,"0.0-13.0-1.14",85075,"ListA","man","english","EMA5",NA,NA,NA,"null",NA,NA,NA,NA,NA,NA
"null","is facing",NA,"html-keyboard-response",108,615113,"0.0-13.0-2.14",85075,"ListA","man","english","EMA5",NA,NA,NA,"null",NA,NA,NA,NA,NA,NA
"17508.9999999999",NA,NA,"survey-text",109,632631,"0.0-13.0-3.14",85075,"ListA","man","english","EMA5",NA,NA,NA,NA,"{""Q0"":""Beth is facing (forgot) ""}","<img src='gifs/ChineseGender3a.gif' style='height:400px;''></img>","facing","is facing","english",NA
"null","<div style=""font-size:60px;"">+</div>",NA,"html-keyboard-response",110,633132,"0.0-13.0-0.15",85075,"ListA","man","english","EMA5",NA,NA,NA,"null",NA,NA,NA,NA,NA,NA
"null","<img src='gifs/BlackGender4a.gif' style='height:400px;''></img>",NA,"html-keyboard-response",111,635135,"0.0-13.0-1.15",85075,"ListA","man","english","EMA5",NA,NA,NA,"null",NA,NA,NA,NA,NA,NA
"null","is mentioning",NA,"html-keyboard-response",112,638138,"0.0-13.0-2.15",85075,"ListA","man","english","EMA5",NA,NA,NA,"null",NA,NA,NA,NA,NA,NA
"4831",NA,NA,"survey-text",113,642978,"0.0-13.0-3.15",85075,"ListA","man","english","EMA5",NA,NA,NA,NA,"{""Q0"":""Dave is mentioning Jane ""}","<img src='gifs/BlackGender4a.gif' style='height:400px;''></img>","mention","is mentioning","english",NA
"null","<div style=""font-size:60px;"">+</div>",NA,"html-keyboard-response",114,643479,"0.0-13.0-0.16",85075,"ListA","man","english","EMA5",NA,NA,NA,"null",NA,NA,NA,NA,NA,NA
"null","<img src='gifs/BlackGender2b.gif' style='height:400px;''></img>",NA,"html-keyboard-response",115,645482,"0.0-13.0-1.16",85075,"ListA","man","english","EMA5",NA,NA,NA,"null",NA,NA,NA,NA,NA,NA
"null","is walking towards",NA,"html-keyboard-response",116,648485,"0.0-13.0-2.16",85075,"ListA","man","english","EMA5",NA,NA,NA,"null",NA,NA,NA,NA,NA,NA
"9083",NA,NA,"survey-text",117,657578,"0.0-13.0-3.16",85075,"ListA","man","english","EMA5",NA,NA,NA,NA,"{""Q0"":""Dave is walking towards ruth ""}","<img src='gifs/BlackGender2b.gif' style='height:400px;''></img>","walking towards","is walking towards","english",NA
"null","<div style=""font-size:60px;"">+</div>",NA,"html-keyboard-response",118,658080,"0.0-13.0-0.17",85075,"ListA","man","english","EMA5",NA,NA,NA,"null",NA,NA,NA,NA,NA,NA
"null","<img src='gifs/FemaleRace3b.gif' style='height:400px;''></img>",NA,"html-keyboard-response",119,660083,"0.0-13.0-1.17",85075,"ListA","man","english","EMA5",NA,NA,NA,"null",NA,NA,NA,NA,NA,NA
"null","is walking towards",NA,"html-keyboard-response",120,663085,"0.0-13.0-2.17",85075,"ListA","man","english","EMA5",NA,NA,NA,"null",NA,NA,NA,NA,NA,NA
"5231",NA,NA,"survey-text",121,668325,"0.0-13.0-3.17",85075,"ListA","man","english","EMA5",NA,NA,NA,NA,"{""Q0"":""ruth is walking towards Beth ""}","<img src='gifs/FemaleRace3b.gif' style='height:400px;''></img>","walking towards","is walking towards","english",NA
"35848.0000000001","<img src='img/portrait_matrix_listA.jpg' style='width:900px;height:500px;''></img><p>If you have memorised all the portraits and names and are ready to start, press Continue.</p><p><strong>Please note: Your memory of these faces will be tested 5 times during this experiment.</strong></p>",0,"html-button-response",122,704174,"0.0-14.0-0.0",85075,"ListA","man","english","EMA5",NA,NA,NA,NA,NA,NA,NA,NA,NA,NA
"4715","<img src=""portrait/WW2.jpg""style=""height:400px;""></img>",3,"html-button-response",123,709893,"0.0-14.0-1.0",85075,"ListA","man","english","EMA5",NA,TRUE,3,NA,NA,NA,NA,NA,NA,NA
"null","CORRECT",NA,"html-keyboard-response",124,711396,"0.0-14.0-2.0-0.0",85075,"ListA","man","english","EMA5",NA,NA,NA,"null",NA,NA,NA,NA,NA,NA
"1189","<img src=""portrait/WM1.jpg""style=""height:400px;""></img>",7,"html-button-response",125,712586,"0.0-14.0-4.0",85075,"ListA","man","english","EMA5",NA,TRUE,6,NA,NA,NA,NA,NA,NA,NA
"897","<img src=""portrait/WM1.jpg""style=""height:400px;""></img>",7,"html-button-response",126,714487,"0.0-14.0-6.0-0.0",85075,"ListA","man","english","EMA5",NA,FALSE,6,NA,NA,NA,NA,NA,NA,NA
"null","INCORRECT",NA,"html-keyboard-response",127,715990,"0.0-14.0-6.0-2.0-0.0",85075,"ListA","man","english","EMA5",NA,NA,NA,"null",NA,NA,NA,NA,NA,NA
"2161","<img src=""portrait/BM2.jpg""style=""height:400px;""></img>",5,"html-button-response",128,718153,"0.0-14.0-7.0",85075,"ListA","man","english","EMA5",NA,TRUE,5,NA,NA,NA,NA,NA,NA,NA
"null","CORRECT",NA,"html-keyboard-response",129,719656,"0.0-14.0-8.0-0.0",85075,"ListA","man","english","EMA5",NA,NA,NA,"null",NA,NA,NA,NA,NA,NA
"2847","<img src=""portrait/WW1.jpg""style=""height:400px;""></img>",1,"html-button-response",130,722506,"0.0-14.0-10.0",85075,"ListA","man","english","EMA5",NA,TRUE,1,NA,NA,NA,NA,NA,NA,NA
"null","CORRECT",NA,"html-keyboard-response",131,724010,"0.0-14.0-11.0-0.0",85075,"ListA","man","english","EMA5",NA,NA,NA,"null",NA,NA,NA,NA,NA,NA
"2778","<img src=""portrait/BW1.jpg""style=""height:400px;""></img>",0,"html-button-response",132,726790,"0.0-14.0-13.0",85075,"ListA","man","english","EMA5",NA,TRUE,0,NA,NA,NA,NA,NA,NA,NA
"null","CORRECT",NA,"html-keyboard-response",133,728293,"0.0-14.0-14.0-0.0",85075,"ListA","man","english","EMA5",NA,NA,NA,"null",NA,NA,NA,NA,NA,NA
"3430","<img src=""portrait/WM2.jpg""style=""height:400px;""></img>",7,"html-button-response",134,731727,"0.0-14.0-16.0",85075,"ListA","man","english","EMA5",NA,TRUE,7,NA,NA,NA,NA,NA,NA,NA
"null","CORRECT",NA,"html-keyboard-response",135,733229,"0.0-14.0-17.0-0.0",85075,"ListA","man","english","EMA5",NA,NA,NA,"null",NA,NA,NA,NA,NA,NA
"3255","<img src=""portrait/BW2.jpg""style=""height:400px;""></img>",2,"html-button-response",136,736486,"0.0-14.0-19.0",85075,"ListA","man","english","EMA5",NA,TRUE,2,NA,NA,NA,NA,NA,NA,NA
"null","CORRECT",NA,"html-keyboard-response",137,737989,"0.0-14.0-20.0-0.0",85075,"ListA","man","english","EMA5",NA,NA,NA,"null",NA,NA,NA,NA,NA,NA
"1738.999999999880","<img src=""portrait/BM1.jpg""style=""height:400px;""></img>",4,"html-button-response",138,739730,"0.0-14.0-22.0",85075,"ListA","man","english","EMA5",NA,TRUE,4,NA,NA,NA,NA,NA,NA,NA
"null","CORRECT",NA,"html-keyboard-response",139,741233,"0.0-14.0-23.0-0.0",85075,"ListA","man","english","EMA5",NA,NA,NA,"null",NA,NA,NA,NA,NA,NA
"687","<p>You got 7 out of 8 right first time. Press Continue.</p>",0,"html-button-response",140,741922,"0.0-14.0-25.0",85075,"ListA","man","english","EMA5",NA,NA,NA,NA,NA,NA,NA,NA,NA,NA
"1121.999999999880","As you did not score 100%, the memory game will repeat. Press Continue.",0,"html-button-response",141,744046,"0.0-14.0-26.0-0.0",85075,"ListA","man","english","EMA5",NA,NA,NA,NA,NA,NA,NA,NA,NA,NA
"597","<img src='img/portrait_matrix_listA.jpg' style='width:900px;height:500px;''></img><p>If you have memorised all the portraits and names and are ready to start, press Continue.</p><p><strong>Please note: Your memory of these faces will be tested 5 times during this experiment.</strong></p>",0,"html-button-response",142,745646,"0.0-14.1-0.1",85075,"ListA","man","english","EMA5",NA,NA,NA,NA,NA,NA,NA,NA,NA,NA
"1303","<img src=""portrait/WW2.jpg""style=""height:400px;""></img>",3,"html-button-response",143,747957,"0.0-14.1-1.1",85075,"ListA","man","english","EMA5",NA,TRUE,3,NA,NA,NA,NA,NA,NA,NA
"null","CORRECT",NA,"html-keyboard-response",144,749460,"0.0-14.1-2.1-0.1",85075,"ListA","man","english","EMA5",NA,NA,NA,"null",NA,NA,NA,NA,NA,NA
"2146.999999999880","<img src=""portrait/WM1.jpg""style=""height:400px;""></img>",6,"html-button-response",145,751609,"0.0-14.1-4.1",85075,"ListA","man","english","EMA5",NA,TRUE,6,NA,NA,NA,NA,NA,NA,NA
"null","CORRECT",NA,"html-keyboard-response",146,753113,"0.0-14.1-5.1-0.1",85075,"ListA","man","english","EMA5",NA,NA,NA,"null",NA,NA,NA,NA,NA,NA
"1761.000000000120","<img src=""portrait/BM2.jpg""style=""height:400px;""></img>",5,"html-button-response",147,754876,"0.0-14.1-7.1",85075,"ListA","man","english","EMA5",NA,TRUE,5,NA,NA,NA,NA,NA,NA,NA
"null","CORRECT",NA,"html-keyboard-response",148,756379,"0.0-14.1-8.1-0.1",85075,"ListA","man","english","EMA5",NA,NA,NA,"null",NA,NA,NA,NA,NA,NA
"2320","<img src=""portrait/WW1.jpg""style=""height:400px;""></img>",1,"html-button-response",149,758702,"0.0-14.1-10.1",85075,"ListA","man","english","EMA5",NA,TRUE,1,NA,NA,NA,NA,NA,NA,NA
"null","CORRECT",NA,"html-keyboard-response",150,760205,"0.0-14.1-11.1-0.1",85075,"ListA","man","english","EMA5",NA,NA,NA,"null",NA,NA,NA,NA,NA,NA
"2266","<img src=""portrait/BW1.jpg""style=""height:400px;""></img>",0,"html-button-response",151,762473,"0.0-14.1-13.1",85075,"ListA","man","english","EMA5",NA,TRUE,0,NA,NA,NA,NA,NA,NA,NA
"null","CORRECT",NA,"html-keyboard-response",152,763975,"0.0-14.1-14.1-0.1",85075,"ListA","man","english","EMA5",NA,NA,NA,"null",NA,NA,NA,NA,NA,NA
"2371","<img src=""portrait/WM2.jpg""style=""height:400px;""></img>",7,"html-button-response",153,766348,"0.0-14.1-16.1",85075,"ListA","man","english","EMA5",NA,TRUE,7,NA,NA,NA,NA,NA,NA,NA
"null","CORRECT",NA,"html-keyboard-response",154,767851,"0.0-14.1-17.1-0.1",85075,"ListA","man","english","EMA5",NA,NA,NA,"null",NA,NA,NA,NA,NA,NA
"2145","<img src=""portrait/BW2.jpg""style=""height:400px;""></img>",2,"html-button-response",155,769998,"0.0-14.1-19.1",85075,"ListA","man","english","EMA5",NA,TRUE,2,NA,NA,NA,NA,NA,NA,NA
"null","CORRECT",NA,"html-keyboard-response",156,771501,"0.0-14.1-20.1-0.1",85075,"ListA","man","english","EMA5",NA,NA,NA,"null",NA,NA,NA,NA,NA,NA
"1796","<img src=""portrait/BM1.jpg""style=""height:400px;""></img>",4,"html-button-response",157,773300,"0.0-14.1-22.1",85075,"ListA","man","english","EMA5",NA,TRUE,4,NA,NA,NA,NA,NA,NA,NA
"null","CORRECT",NA,"html-keyboard-response",158,774803,"0.0-14.1-23.1-0.1",85075,"ListA","man","english","EMA5",NA,NA,NA,"null",NA,NA,NA,NA,NA,NA
"720.000000000116","<p>You got 8 out of 8 right first time. Press Continue.</p>",0,"html-button-response",159,775525,"0.0-14.1-25.1",85075,"ListA","man","english","EMA5",NA,NA,NA,NA,NA,NA,NA,NA,NA,NA
"null","<div style=""font-size:60px;"">+</div>",NA,"html-keyboard-response",160,777028,"0.0-15.0-0.0",85075,"ListA","man","english","EMA5",NA,NA,NA,"null",NA,NA,NA,NA,NA,NA
"null","<img src='gifs/FemaleRace2a.gif' style='height:400px;''></img>",NA,"html-keyboard-response",161,779032,"0.0-15.0-1.0",85075,"ListA","man","english","EMA5",NA,NA,NA,"null",NA,NA,NA,NA,NA,NA
"null","is following",NA,"html-keyboard-response",162,782034,"0.0-15.0-2.0",85075,"ListA","man","english","EMA5",NA,NA,NA,"null",NA,NA,NA,NA,NA,NA
"8226",NA,NA,"survey-text",163,790268,"0.0-15.0-3.0",85075,"ListA","man","english","EMA5",NA,NA,NA,NA,"{""Q0"":""Jane is following Kate ""}","<img src='gifs/FemaleRace2a.gif' style='height:400px;''></img>","following","is following","english",NA
"null","<div style=""font-size:60px;"">+</div>",NA,"html-keyboard-response",164,790770,"0.0-15.0-0.1",85075,"ListA","man","english","EMA5",NA,NA,NA,"null",NA,NA,NA,NA,NA,NA
"null","<img src='gifs/FemaleRace2a.gif' style='height:400px;''></img>",NA,"html-keyboard-response",165,792773,"0.0-15.0-1.1",85075,"ListA","man","english","EMA5",NA,NA,NA,"null",NA,NA,NA,NA,NA,NA
"null","is contacting",NA,"html-keyboard-response",166,795776,"0.0-15.0-2.1",85075,"ListA","man","english","EMA5",NA,NA,NA,"null",NA,NA,NA,NA,NA,NA
"6571",NA,NA,"survey-text",167,802355,"0.0-15.0-3.1",85075,"ListA","man","english","EMA5",NA,NA,NA,NA,"{""Q0"":""Kate is contacting Jane ""}","<img src='gifs/FemaleRace2a.gif' style='height:400px;''></img>","contacting","is contacting","english",NA
"null","<div style=""font-size:60px;"">+</div>",NA,"html-keyboard-response",168,802857,"0.0-15.0-0.2",85075,"ListA","man","english","EMA5",NA,NA,NA,"null",NA,NA,NA,NA,NA,NA
"null","<img src='gifs/MaleRace2a.gif' style='height:400px;''></img>",NA,"html-keyboard-response",169,804860,"0.0-15.0-1.2",85075,"ListA","man","english","EMA5",NA,NA,NA,"null",NA,NA,NA,NA,NA,NA
"null","is introducing",NA,"html-keyboard-response",170,807862,"0.0-15.0-2.2",85075,"ListA","man","english","EMA5",NA,NA,NA,"null",NA,NA,NA,NA,NA,NA
"7923",NA,NA,"survey-text",171,815794,"0.0-15.0-3.2",85075,"ListA","man","english","EMA5",NA,NA,NA,NA,"{""Q0"":""Dave is introducing Fred ""}","<img src='gifs/MaleRace2a.gif' style='height:400px;''></img>","introducing","is introducing","english",NA
"null","<div style=""font-size:60px;"">+</div>",NA,"html-keyboard-response",172,816296,"0.0-15.0-0.3",85075,"ListA","man","english","EMA5",NA,NA,NA,"null",NA,NA,NA,NA,NA,NA
"null","<img src='gifs/ChineseGender3a.gif' style='height:400px;''></img>",NA,"html-keyboard-response",173,818300,"0.0-15.0-1.3",85075,"ListA","man","english","EMA5",NA,NA,NA,"null",NA,NA,NA,NA,NA,NA
"null","is looking at",NA,"html-keyboard-response",174,821302,"0.0-15.0-2.3",85075,"ListA","man","english","EMA5",NA,NA,NA,"null",NA,NA,NA,NA,NA,NA
"4348",NA,NA,"survey-text",175,825658,"0.0-15.0-3.3",85075,"ListA","man","english","EMA5",NA,NA,NA,NA,"{""Q0"":""Beth is looking at mike ""}","<img src='gifs/ChineseGender3a.gif' style='height:400px;''></img>","looking at","is looking at","english",NA
"null","<div style=""font-size:60px;"">+</div>",NA,"html-keyboard-response",176,826160,"0.0-15.0-0.4",85075,"ListA","man","english","EMA5",NA,NA,NA,"null",NA,NA,NA,NA,NA,NA
"null","<img src='gifs/MaleRace1a.gif' style='height:400px;''></img>",NA,"html-keyboard-response",177,828162,"0.0-15.0-1.4",85075,"ListA","man","english","EMA5",NA,NA,NA,"null",NA,NA,NA,NA,NA,NA
"null","is looking at",NA,"html-keyboard-response",178,831165,"0.0-15.0-2.4",85075,"ListA","man","english","EMA5",NA,NA,NA,"null",NA,NA,NA,NA,NA,NA
"4053",NA,NA,"survey-text",179,835227,"0.0-15.0-3.4",85075,"ListA","man","english","EMA5",NA,NA,NA,NA,"{""Q0"":""Fred is looking at Luke ""}","<img src='gifs/MaleRace1a.gif' style='height:400px;''></img>","looking at","is looking at","english",NA
"null","<div style=""font-size:60px;"">+</div>",NA,"html-keyboard-response",180,835729,"0.0-15.0-0.5",85075,"ListA","man","english","EMA5",NA,NA,NA,"null",NA,NA,NA,NA,NA,NA
"null","<img src='gifs/FemaleRace1a.gif' style='height:400px;''></img>",NA,"html-keyboard-response",181,837731,"0.0-15.0-1.5",85075,"ListA","man","english","EMA5",NA,NA,NA,"null",NA,NA,NA,NA,NA,NA
"null","is listening to",NA,"html-keyboard-response",182,840734,"0.0-15.0-2.5",85075,"ListA","man","english","EMA5",NA,NA,NA,"null",NA,NA,NA,NA,NA,NA
"7023",NA,NA,"survey-text",183,847766,"0.0-15.0-3.5",85075,"ListA","man","english","EMA5",NA,NA,NA,NA,"{""Q0"":""Kate is listening to Luke ""}","<img src='gifs/FemaleRace1a.gif' style='height:400px;''></img>","listening to","is listening to","english",NA
"null","<div style=""font-size:60px;"">+</div>",NA,"html-keyboard-response",184,848268,"0.0-15.0-0.6",85075,"ListA","man","english","EMA5",NA,NA,NA,"null",NA,NA,NA,NA,NA,NA
"null","<img src='gifs/BlackGender4a.gif' style='height:400px;''></img>",NA,"html-keyboard-response",185,850270,"0.0-15.0-1.6",85075,"ListA","man","english","EMA5",NA,NA,NA,"null",NA,NA,NA,NA,NA,NA
"null","is following",NA,"html-keyboard-response",186,853273,"0.0-15.0-2.6",85075,"ListA","man","english","EMA5",NA,NA,NA,"null",NA,NA,NA,NA,NA,NA
"9507.000000000120",NA,NA,"survey-text",187,862787,"0.0-15.0-3.6",85075,"ListA","man","english","EMA5",NA,NA,NA,NA,"{""Q0"":""Dave is looking at Jane ""}","<img src='gifs/BlackGender4a.gif' style='height:400px;''></img>","following","is following","english",NA
"null","<div style=""font-size:60px;"">+</div>",NA,"html-keyboard-response",188,863289,"0.0-15.0-0.7",85075,"ListA","man","english","EMA5",NA,NA,NA,"null",NA,NA,NA,NA,NA,NA
"null","<img src='gifs/FemaleRace4b.gif' style='height:400px;''></img>",NA,"html-keyboard-response",189,865292,"0.0-15.0-1.7",85075,"ListA","man","english","EMA5",NA,NA,NA,"null",NA,NA,NA,NA,NA,NA
"null","is touching",NA,"html-keyboard-response",190,868294,"0.0-15.0-2.7",85075,"ListA","man","english","EMA5",NA,NA,NA,"null",NA,NA,NA,NA,NA,NA
"7053",NA,NA,"survey-text",191,875359,"0.0-15.0-3.7",85075,"ListA","man","english","EMA5",NA,NA,NA,NA,"{""Q0"":""Beth is touching Ruth ""}","<img src='gifs/FemaleRace4b.gif' style='height:400px;''></img>","touching","is touching","english",NA
"null","<div style=""font-size:60px;"">+</div>",NA,"html-keyboard-response",192,875861,"0.0-15.0-0.8",85075,"ListA","man","english","EMA5",NA,NA,NA,"null",NA,NA,NA,NA,NA,NA
"null","<img src='gifs/FemaleRace1b.gif' style='height:400px;''></img>",NA,"html-keyboard-response",193,877864,"0.0-15.0-1.8",85075,"ListA","man","english","EMA5",NA,NA,NA,"null",NA,NA,NA,NA,NA,NA
"null","is introducing",NA,"html-keyboard-response",194,880867,"0.0-15.0-2.8",85075,"ListA","man","english","EMA5",NA,NA,NA,"null",NA,NA,NA,NA,NA,NA
"4781",NA,NA,"survey-text",195,885656,"0.0-15.0-3.8",85075,"ListA","man","english","EMA5",NA,NA,NA,NA,"{""Q0"":""Kate is introducing Ruth ""}","<img src='gifs/FemaleRace1b.gif' style='height:400px;''></img>","introducing","is introducing","english",NA
"null","<div style=""font-size:60px;"">+</div>",NA,"html-keyboard-response",196,886158,"0.0-15.0-0.9",85075,"ListA","man","english","EMA5",NA,NA,NA,"null",NA,NA,NA,NA,NA,NA
"null","<img src='gifs/FemaleRace4a.gif' style='height:400px;''></img>",NA,"html-keyboard-response",197,888160,"0.0-15.0-1.9",85075,"ListA","man","english","EMA5",NA,NA,NA,"null",NA,NA,NA,NA,NA,NA
"null","is joining",NA,"html-keyboard-response",198,891163,"0.0-15.0-2.9",85075,"ListA","man","english","EMA5",NA,NA,NA,"null",NA,NA,NA,NA,NA,NA
"14509",NA,NA,"survey-text",199,905680,"0.0-15.0-3.9",85075,"ListA","man","english","EMA5",NA,NA,NA,NA,"{""Q0"":""Jane is joining kate ""}","<img src='gifs/FemaleRace4a.gif' style='height:400px;''></img>","join","is joining","english",NA
"null","<div style=""font-size:60px;"">+</div>",NA,"html-keyboard-response",200,906182,"0.0-15.0-0.10",85075,"ListA","man","english","EMA5",NA,NA,NA,"null",NA,NA,NA,NA,NA,NA
"null","<img src='gifs/MaleRace4b.gif' style='height:400px;''></img>",NA,"html-keyboard-response",201,908185,"0.0-15.0-1.10",85075,"ListA","man","english","EMA5",NA,NA,NA,"null",NA,NA,NA,NA,NA,NA
"null","is introducing",NA,"html-keyboard-response",202,911187,"0.0-15.0-2.10",85075,"ListA","man","english","EMA5",NA,NA,NA,"null",NA,NA,NA,NA,NA,NA
"3918",NA,NA,"survey-text",203,915116,"0.0-15.0-3.10",85075,"ListA","man","english","EMA5",NA,NA,NA,NA,"{""Q0"":""Mike is introducing Dave ""}","<img src='gifs/MaleRace4b.gif' style='height:400px;''></img>","introducing","is introducing","english",NA
"null","<div style=""font-size:60px;"">+</div>",NA,"html-keyboard-response",204,915617,"0.0-15.0-0.11",85075,"ListA","man","english","EMA5",NA,NA,NA,"null",NA,NA,NA,NA,NA,NA
"null","<img src='gifs/BlackGender1a.gif' style='height:400px;''></img>",NA,"html-keyboard-response",205,917620,"0.0-15.0-1.11",85075,"ListA","man","english","EMA5",NA,NA,NA,"null",NA,NA,NA,NA,NA,NA
"null","is facing",NA,"html-keyboard-response",206,920623,"0.0-15.0-2.11",85075,"ListA","man","english","EMA5",NA,NA,NA,"null",NA,NA,NA,NA,NA,NA
"2909",NA,NA,"survey-text",207,923542,"0.0-15.0-3.11",85075,"ListA","man","english","EMA5",NA,NA,NA,NA,"{""Q0"":""Luke is facing Ruth ""}","<img src='gifs/BlackGender1a.gif' style='height:400px;''></img>","facing","is facing","english",NA
"null","<div style=""font-size:60px;"">+</div>",NA,"html-keyboard-response",208,924043,"0.0-15.0-0.12",85075,"ListA","man","english","EMA5",NA,NA,NA,"null",NA,NA,NA,NA,NA,NA
"null","<img src='gifs/MaleRace4b.gif' style='height:400px;''></img>",NA,"html-keyboard-response",209,926045,"0.0-15.0-1.12",85075,"ListA","man","english","EMA5",NA,NA,NA,"null",NA,NA,NA,NA,NA,NA
"null","is introducing",NA,"html-keyboard-response",210,929048,"0.0-15.0-2.12",85075,"ListA","man","english","EMA5",NA,NA,NA,"null",NA,NA,NA,NA,NA,NA
"3127.999999999880",NA,NA,"survey-text",211,932184,"0.0-15.0-3.12",85075,"ListA","man","english","EMA5",NA,NA,NA,NA,"{""Q0"":""Mike is introducing Dave ""}","<img src='gifs/MaleRace4b.gif' style='height:400px;''></img>","introducing","is introducing","english",NA
"null","<div style=""font-size:60px;"">+</div>",NA,"html-keyboard-response",212,932685,"0.0-15.0-0.13",85075,"ListA","man","english","EMA5",NA,NA,NA,"null",NA,NA,NA,NA,NA,NA
"null","<img src='gifs/ChineseGender4b.gif' style='height:400px;''></img>",NA,"html-keyboard-response",213,934688,"0.0-15.0-1.13",85075,"ListA","man","english","EMA5",NA,NA,NA,"null",NA,NA,NA,NA,NA,NA
"null","is mentioning",NA,"html-keyboard-response",214,937691,"0.0-15.0-2.13",85075,"ListA","man","english","EMA5",NA,NA,NA,"null",NA,NA,NA,NA,NA,NA
"4241",NA,NA,"survey-text",215,941939,"0.0-15.0-3.13",85075,"ListA","man","english","EMA5",NA,NA,NA,NA,"{""Q0"":""Mike is mentioning Kate ""}","<img src='gifs/ChineseGender4b.gif' style='height:400px;''></img>","mention","is mentioning","english",NA
"null","<div style=""font-size:60px;"">+</div>",NA,"html-keyboard-response",216,942440,"0.0-15.0-0.14",85075,"ListA","man","english","EMA5",NA,NA,NA,"null",NA,NA,NA,NA,NA,NA
"null","<img src='gifs/ChineseGender2a.gif' style='height:400px;''></img>",NA,"html-keyboard-response",217,944442,"0.0-15.0-1.14",85075,"ListA","man","english","EMA5",NA,NA,NA,"null",NA,NA,NA,NA,NA,NA
"null","is touching",NA,"html-keyboard-response",218,947445,"0.0-15.0-2.14",85075,"ListA","man","english","EMA5",NA,NA,NA,"null",NA,NA,NA,NA,NA,NA
"4268",NA,NA,"survey-text",219,951724,"0.0-15.0-3.14",85075,"ListA","man","english","EMA5",NA,NA,NA,NA,"{""Q0"":""Fred is touching Beth ""}","<img src='gifs/ChineseGender2a.gif' style='height:400px;''></img>","touching","is touching","english",NA
"null","<div style=""font-size:60px;"">+</div>",NA,"html-keyboard-response",220,952226,"0.0-15.0-0.15",85075,"ListA","man","english","EMA5",NA,NA,NA,"null",NA,NA,NA,NA,NA,NA
"null","<img src='gifs/MaleRace3b.gif' style='height:400px;''></img>",NA,"html-keyboard-response",221,954229,"0.0-15.0-1.15",85075,"ListA","man","english","EMA5",NA,NA,NA,"null",NA,NA,NA,NA,NA,NA
"null","is praising",NA,"html-keyboard-response",222,957231,"0.0-15.0-2.15",85075,"ListA","man","english","EMA5",NA,NA,NA,"null",NA,NA,NA,NA,NA,NA
"7007",NA,NA,"survey-text",223,964247,"0.0-15.0-3.15",85075,"ListA","man","english","EMA5",NA,NA,NA,NA,"{""Q0"":""Luke is praising mike ""}","<img src='gifs/MaleRace3b.gif' style='height:400px;''></img>","praising","is praising","english",NA
"null","<div style=""font-size:60px;"">+</div>",NA,"html-keyboard-response",224,964749,"0.0-15.0-0.16",85075,"ListA","man","english","EMA5",NA,NA,NA,"null",NA,NA,NA,NA,NA,NA
"null","<img src='gifs/MaleRace2a.gif' style='height:400px;''></img>",NA,"html-keyboard-response",225,966751,"0.0-15.0-1.16",85075,"ListA","man","english","EMA5",NA,NA,NA,"null",NA,NA,NA,NA,NA,NA
"null","is praising",NA,"html-keyboard-response",226,969753,"0.0-15.0-2.16",85075,"ListA","man","english","EMA5",NA,NA,NA,"null",NA,NA,NA,NA,NA,NA
"5093",NA,NA,"survey-text",227,974857,"0.0-15.0-3.16",85075,"ListA","man","english","EMA5",NA,NA,NA,NA,"{""Q0"":""Dave is praising Fred ""}","<img src='gifs/MaleRace2a.gif' style='height:400px;''></img>","praising","is praising","english",NA
"null","<div style=""font-size:60px;"">+</div>",NA,"html-keyboard-response",228,975358,"0.0-15.0-0.17",85075,"ListA","man","english","EMA5",NA,NA,NA,"null",NA,NA,NA,NA,NA,NA
"null","<img src='gifs/ChineseGender1b.gif' style='height:400px;''></img>",NA,"html-keyboard-response",229,977361,"0.0-15.0-1.17",85075,"ListA","man","english","EMA5",NA,NA,NA,"null",NA,NA,NA,NA,NA,NA
"null","is approaching",NA,"html-keyboard-response",230,980364,"0.0-15.0-2.17",85075,"ListA","man","english","EMA5",NA,NA,NA,"null",NA,NA,NA,NA,NA,NA
"5174",NA,NA,"survey-text",231,985546,"0.0-15.0-3.17",85075,"ListA","man","english","EMA5",NA,NA,NA,NA,"{""Q0"":""Kate is approaching Fred ""}","<img src='gifs/ChineseGender1b.gif' style='height:400px;''></img>","approaching","is approaching","english",NA
"2469.999999999880","<img src='img/portrait_matrix_listA.jpg' style='width:900px;height:500px;''></img><p>If you have memorised all the portraits and names and are ready to start, press Continue.</p><p><strong>Please note: Your memory of these faces will be tested 5 times during this experiment.</strong></p>",0,"html-button-response",232,988017,"0.0-16.0-0.0",85075,"ListA","man","english","EMA5",NA,NA,NA,NA,NA,NA,NA,NA,NA,NA
"1462","<img src=""portrait/BM2.jpg""style=""height:400px;""></img>",5,"html-button-response",233,990482,"0.0-16.0-1.0",85075,"ListA","man","english","EMA5",NA,TRUE,5,NA,NA,NA,NA,NA,NA,NA
"null","CORRECT",NA,"html-keyboard-response",234,991985,"0.0-16.0-2.0-0.0",85075,"ListA","man","english","EMA5",NA,NA,NA,"null",NA,NA,NA,NA,NA,NA
"3838","<img src=""portrait/WM1.jpg""style=""height:400px;""></img>",6,"html-button-response",235,995826,"0.0-16.0-4.0",85075,"ListA","man","english","EMA5",NA,TRUE,6,NA,NA,NA,NA,NA,NA,NA
"null","CORRECT",NA,"html-keyboard-response",236,997329,"0.0-16.0-5.0-0.0",85075,"ListA","man","english","EMA5",NA,NA,NA,"null",NA,NA,NA,NA,NA,NA
"1637","<img src=""portrait/BW2.jpg""style=""height:400px;""></img>",2,"html-button-response",237,998969,"0.0-16.0-7.0",85075,"ListA","man","english","EMA5",NA,TRUE,2,NA,NA,NA,NA,NA,NA,NA
"null","CORRECT",NA,"html-keyboard-response",238,1000472,"0.0-16.0-8.0-0.0",85075,"ListA","man","english","EMA5",NA,NA,NA,"null",NA,NA,NA,NA,NA,NA
"2872","<img src=""portrait/BW1.jpg""style=""height:400px;""></img>",0,"html-button-response",239,1003346,"0.0-16.0-10.0",85075,"ListA","man","english","EMA5",NA,TRUE,0,NA,NA,NA,NA,NA,NA,NA
"null","CORRECT",NA,"html-keyboard-response",240,1004849,"0.0-16.0-11.0-0.0",85075,"ListA","man","english","EMA5",NA,NA,NA,"null",NA,NA,NA,NA,NA,NA
"3915","<img src=""portrait/WW1.jpg""style=""height:400px;""></img>",1,"html-button-response",241,1008767,"0.0-16.0-13.0",85075,"ListA","man","english","EMA5",NA,TRUE,1,NA,NA,NA,NA,NA,NA,NA
"null","CORRECT",NA,"html-keyboard-response",242,1010270,"0.0-16.0-14.0-0.0",85075,"ListA","man","english","EMA5",NA,NA,NA,"null",NA,NA,NA,NA,NA,NA
"1025.999999999880","<img src=""portrait/WM2.jpg""style=""height:400px;""></img>",7,"html-button-response",243,1011298,"0.0-16.0-16.0",85075,"ListA","man","english","EMA5",NA,TRUE,7,NA,NA,NA,NA,NA,NA,NA
"null","CORRECT",NA,"html-keyboard-response",244,1012801,"0.0-16.0-17.0-0.0",85075,"ListA","man","english","EMA5",NA,NA,NA,"null",NA,NA,NA,NA,NA,NA
"1080","<img src=""portrait/WW2.jpg""style=""height:400px;""></img>",3,"html-button-response",245,1013884,"0.0-16.0-19.0",85075,"ListA","man","english","EMA5",NA,TRUE,3,NA,NA,NA,NA,NA,NA,NA
"null","CORRECT",NA,"html-keyboard-response",246,1015386,"0.0-16.0-20.0-0.0",85075,"ListA","man","english","EMA5",NA,NA,NA,"null",NA,NA,NA,NA,NA,NA
"1195","<img src=""portrait/BM1.jpg""style=""height:400px;""></img>",4,"html-button-response",247,1016583,"0.0-16.0-22.0",85075,"ListA","man","english","EMA5",NA,TRUE,4,NA,NA,NA,NA,NA,NA,NA
"null","CORRECT",NA,"html-keyboard-response",248,1018087,"0.0-16.0-23.0-0.0",85075,"ListA","man","english","EMA5",NA,NA,NA,"null",NA,NA,NA,NA,NA,NA
"1076","<p>You got 8 out of 8 right first time. Press Continue.</p>",0,"html-button-response",249,1019164,"0.0-16.0-25.0",85075,"ListA","man","english","EMA5",NA,NA,NA,NA,NA,NA,NA,NA,NA,NA
"null","<div style=""font-size:60px;"">+</div>",NA,"html-keyboard-response",250,1020671,"0.0-17.0-0.0",85075,"ListA","man","english","EMA5",NA,NA,NA,"null",NA,NA,NA,NA,NA,NA
"null","<img src='gifs/MaleRace3b.gif' style='height:400px;''></img>",NA,"html-keyboard-response",251,1022674,"0.0-17.0-1.0",85075,"ListA","man","english","EMA5",NA,NA,NA,"null",NA,NA,NA,NA,NA,NA
"null","is listening to",NA,"html-keyboard-response",252,1025677,"0.0-17.0-2.0",85075,"ListA","man","english","EMA5",NA,NA,NA,"null",NA,NA,NA,NA,NA,NA
"5830.999999999880",NA,NA,"survey-text",253,1031516,"0.0-17.0-3.0",85075,"ListA","man","english","EMA5",NA,NA,NA,NA,"{""Q0"":""Mike is listening to Luke ""}","<img src='gifs/MaleRace3b.gif' style='height:400px;''></img>","listening to","is listening to","english",NA
"null","<div style=""font-size:60px;"">+</div>",NA,"html-keyboard-response",254,1032017,"0.0-17.0-0.1",85075,"ListA","man","english","EMA5",NA,NA,NA,"null",NA,NA,NA,NA,NA,NA
"null","<img src='gifs/MaleRace1a.gif' style='height:400px;''></img>",NA,"html-keyboard-response",255,1034020,"0.0-17.0-1.1",85075,"ListA","man","english","EMA5",NA,NA,NA,"null",NA,NA,NA,NA,NA,NA
"null","is following",NA,"html-keyboard-response",256,1037023,"0.0-17.0-2.1",85075,"ListA","man","english","EMA5",NA,NA,NA,"null",NA,NA,NA,NA,NA,NA
"4287",NA,NA,"survey-text",257,1041318,"0.0-17.0-3.1",85075,"ListA","man","english","EMA5",NA,NA,NA,NA,"{""Q0"":""Luke is following Fred ""}","<img src='gifs/MaleRace1a.gif' style='height:400px;''></img>","following","is following","english",NA
"null","<div style=""font-size:60px;"">+</div>",NA,"html-keyboard-response",258,1041820,"0.0-17.0-0.2",85075,"ListA","man","english","EMA5",NA,NA,NA,"null",NA,NA,NA,NA,NA,NA
"null","<img src='gifs/ChineseGender1b.gif' style='height:400px;''></img>",NA,"html-keyboard-response",259,1043822,"0.0-17.0-1.2",85075,"ListA","man","english","EMA5",NA,NA,NA,"null",NA,NA,NA,NA,NA,NA
"null","is joining",NA,"html-keyboard-response",260,1046825,"0.0-17.0-2.2",85075,"ListA","man","english","EMA5",NA,NA,NA,"null",NA,NA,NA,NA,NA,NA
"4708",NA,NA,"survey-text",261,1051541,"0.0-17.0-3.2",85075,"ListA","man","english","EMA5",NA,NA,NA,NA,"{""Q0"":""Fred is joining Kate ""}","<img src='gifs/ChineseGender1b.gif' style='height:400px;''></img>","join","is joining","english",NA
"null","<div style=""font-size:60px;"">+</div>",NA,"html-keyboard-response",262,1052043,"0.0-17.0-0.3",85075,"ListA","man","english","EMA5",NA,NA,NA,"null",NA,NA,NA,NA,NA,NA
"null","<img src='gifs/ChineseGender4a.gif' style='height:400px;''></img>",NA,"html-keyboard-response",263,1054046,"0.0-17.0-1.3",85075,"ListA","man","english","EMA5",NA,NA,NA,"null",NA,NA,NA,NA,NA,NA
"null","is approaching",NA,"html-keyboard-response",264,1057049,"0.0-17.0-2.3",85075,"ListA","man","english","EMA5",NA,NA,NA,"null",NA,NA,NA,NA,NA,NA
"4414.000000000230",NA,NA,"survey-text",265,1061471,"0.0-17.0-3.3",85075,"ListA","man","english","EMA5",NA,NA,NA,NA,"{""Q0"":""Kate is approaching mike ""}","<img src='gifs/ChineseGender4a.gif' style='height:400px;''></img>","approaching","is approaching","english",NA
"null","<div style=""font-size:60px;"">+</div>",NA,"html-keyboard-response",266,1061973,"0.0-17.0-0.4",85075,"ListA","man","english","EMA5",NA,NA,NA,"null",NA,NA,NA,NA,NA,NA
"null","<img src='gifs/BlackGender1b.gif' style='height:400px;''></img>",NA,"html-keyboard-response",267,1063976,"0.0-17.0-1.4",85075,"ListA","man","english","EMA5",NA,NA,NA,"null",NA,NA,NA,NA,NA,NA
"null","is mentioning",NA,"html-keyboard-response",268,1066978,"0.0-17.0-2.4",85075,"ListA","man","english","EMA5",NA,NA,NA,"null",NA,NA,NA,NA,NA,NA
"24488",NA,NA,"survey-text",269,1091475,"0.0-17.0-3.4",85075,"ListA","man","english","EMA5",NA,NA,NA,NA,"{""Q0"":""Ruth is mentioning Luke ""}","<img src='gifs/BlackGender1b.gif' style='height:400px;''></img>","mention","is mentioning","english",NA
"null","<div style=""font-size:60px;"">+</div>",NA,"html-keyboard-response",270,1091977,"0.0-17.0-0.5",85075,"ListA","man","english","EMA5",NA,NA,NA,"null",NA,NA,NA,NA,NA,NA
"null","<img src='gifs/BlackGender3a.gif' style='height:400px;''></img>",NA,"html-keyboard-response",271,1093980,"0.0-17.0-1.5",85075,"ListA","man","english","EMA5",NA,NA,NA,"null",NA,NA,NA,NA,NA,NA
"null","is convincing",NA,"html-keyboard-response",272,1096983,"0.0-17.0-2.5",85075,"ListA","man","english","EMA5",NA,NA,NA,"null",NA,NA,NA,NA,NA,NA
"9683",NA,NA,"survey-text",273,1106674,"0.0-17.0-3.5",85075,"ListA","man","english","EMA5",NA,NA,NA,NA,"{""Q0"":""Jane is convincing Luke ""}","<img src='gifs/BlackGender3a.gif' style='height:400px;''></img>","convincing","is convincing","english",NA
"null","<div style=""font-size:60px;"">+</div>",NA,"html-keyboard-response",274,1107176,"0.0-17.0-0.6",85075,"ListA","man","english","EMA5",NA,NA,NA,"null",NA,NA,NA,NA,NA,NA
"null","<img src='gifs/MaleRace2b.gif' style='height:400px;''></img>",NA,"html-keyboard-response",275,1109179,"0.0-17.0-1.6",85075,"ListA","man","english","EMA5",NA,NA,NA,"null",NA,NA,NA,NA,NA,NA
"null","is facing",NA,"html-keyboard-response",276,1112181,"0.0-17.0-2.6",85075,"ListA","man","english","EMA5",NA,NA,NA,"null",NA,NA,NA,NA,NA,NA
"2786",NA,NA,"survey-text",277,1114976,"0.0-17.0-3.6",85075,"ListA","man","english","EMA5",NA,NA,NA,NA,"{""Q0"":""Fred is facing Dave ""}","<img src='gifs/MaleRace2b.gif' style='height:400px;''></img>","facing","is facing","english",NA
"null","<div style=""font-size:60px;"">+</div>",NA,"html-keyboard-response",278,1115478,"0.0-17.0-0.7",85075,"ListA","man","english","EMA5",NA,NA,NA,"null",NA,NA,NA,NA,NA,NA
"null","<img src='gifs/BlackGender3b.gif' style='height:400px;''></img>",NA,"html-keyboard-response",279,1117481,"0.0-17.0-1.7",85075,"ListA","man","english","EMA5",NA,NA,NA,"null",NA,NA,NA,NA,NA,NA
"null","is convincing",NA,"html-keyboard-response",280,1120483,"0.0-17.0-2.7",85075,"ListA","man","english","EMA5",NA,NA,NA,"null",NA,NA,NA,NA,NA,NA
"3651.000000000230",NA,NA,"survey-text",281,1124143,"0.0-17.0-3.7",85075,"ListA","man","english","EMA5",NA,NA,NA,NA,"{""Q0"":""Luke is convincing Jane ""}","<img src='gifs/BlackGender3b.gif' style='height:400px;''></img>","convincing","is convincing","english",NA
"null","<div style=""font-size:60px;"">+</div>",NA,"html-keyboard-response",282,1124644,"0.0-17.0-0.8",85075,"ListA","man","english","EMA5",NA,NA,NA,"null",NA,NA,NA,NA,NA,NA
"null","<img src='gifs/ChineseGender2a.gif' style='height:400px;''></img>",NA,"html-keyboard-response",283,1126647,"0.0-17.0-1.8",85075,"ListA","man","english","EMA5",NA,NA,NA,"null",NA,NA,NA,NA,NA,NA
"null","is promising",NA,"html-keyboard-response",284,1129649,"0.0-17.0-2.8",85075,"ListA","man","english","EMA5",NA,NA,NA,"null",NA,NA,NA,NA,NA,NA
"5197",NA,NA,"survey-text",285,1134855,"0.0-17.0-3.8",85075,"ListA","man","english","EMA5",NA,NA,NA,NA,"{""Q0"":""Beth is promising Fred ""}","<img src='gifs/ChineseGender2a.gif' style='height:400px;''></img>","promising","is promising","english",NA
"null","<div style=""font-size:60px;"">+</div>",NA,"html-keyboard-response",286,1135356,"0.0-17.0-0.9",85075,"ListA","man","english","EMA5",NA,NA,NA,"null",NA,NA,NA,NA,NA,NA
"null","<img src='gifs/FemaleRace4a.gif' style='height:400px;''></img>",NA,"html-keyboard-response",287,1137359,"0.0-17.0-1.9",85075,"ListA","man","english","EMA5",NA,NA,NA,"null",NA,NA,NA,NA,NA,NA
"null","is promising",NA,"html-keyboard-response",288,1140361,"0.0-17.0-2.9",85075,"ListA","man","english","EMA5",NA,NA,NA,"null",NA,NA,NA,NA,NA,NA
"4263",NA,NA,"survey-text",289,1144633,"0.0-17.0-3.9",85075,"ListA","man","english","EMA5",NA,NA,NA,NA,"{""Q0"":""Beth is promising Jane ""}","<img src='gifs/FemaleRace4a.gif' style='height:400px;''></img>","promising","is promising","english",NA
"null","<div style=""font-size:60px;"">+</div>",NA,"html-keyboard-response",290,1145135,"0.0-17.0-0.10",85075,"ListA","man","english","EMA5",NA,NA,NA,"null",NA,NA,NA,NA,NA,NA
"null","<img src='gifs/FemaleRace3a.gif' style='height:400px;''></img>",NA,"html-keyboard-response",291,1147137,"0.0-17.0-1.10",85075,"ListA","man","english","EMA5",NA,NA,NA,"null",NA,NA,NA,NA,NA,NA
"null","is accompanying",NA,"html-keyboard-response",292,1150140,"0.0-17.0-2.10",85075,"ListA","man","english","EMA5",NA,NA,NA,"null",NA,NA,NA,NA,NA,NA
"5363",NA,NA,"survey-text",293,1155511,"0.0-17.0-3.10",85075,"ListA","man","english","EMA5",NA,NA,NA,NA,"{""Q0"":""Beth is accompanying Ruth ""}","<img src='gifs/FemaleRace3a.gif' style='height:400px;''></img>","accompanying","is accompanying","english",NA
"null","<div style=""font-size:60px;"">+</div>",NA,"html-keyboard-response",294,1156013,"0.0-17.0-0.11",85075,"ListA","man","english","EMA5",NA,NA,NA,"null",NA,NA,NA,NA,NA,NA
"null","<img src='gifs/FemaleRace1b.gif' style='height:400px;''></img>",NA,"html-keyboard-response",295,1158015,"0.0-17.0-1.11",85075,"ListA","man","english","EMA5",NA,NA,NA,"null",NA,NA,NA,NA,NA,NA
"null","is walking towards",NA,"html-keyboard-response",296,1161018,"0.0-17.0-2.11",85075,"ListA","man","english","EMA5",NA,NA,NA,"null",NA,NA,NA,NA,NA,NA
"5947",NA,NA,"survey-text",297,1166977,"0.0-17.0-3.11",85075,"ListA","man","english","EMA5",NA,NA,NA,NA,"{""Q0"":""Ruth is walking towards Kate ""}","<img src='gifs/FemaleRace1b.gif' style='height:400px;''></img>","walking towards","is walking towards","english",NA
"null","<div style=""font-size:60px;"">+</div>",NA,"html-keyboard-response",298,1167478,"0.0-17.0-0.12",85075,"ListA","man","english","EMA5",NA,NA,NA,"null",NA,NA,NA,NA,NA,NA
"null","<img src='gifs/BlackGender3a.gif' style='height:400px;''></img>",NA,"html-keyboard-response",299,1169482,"0.0-17.0-1.12",85075,"ListA","man","english","EMA5",NA,NA,NA,"null",NA,NA,NA,NA,NA,NA
"null","is accompanying",NA,"html-keyboard-response",300,1172484,"0.0-17.0-2.12",85075,"ListA","man","english","EMA5",NA,NA,NA,"null",NA,NA,NA,NA,NA,NA
"5810",NA,NA,"survey-text",301,1178302,"0.0-17.0-3.12",85075,"ListA","man","english","EMA5",NA,NA,NA,NA,"{""Q0"":""Luke is accompanying Jane ""}","<img src='gifs/BlackGender3a.gif' style='height:400px;''></img>","accompanying","is accompanying","english",NA
"null","<div style=""font-size:60px;"">+</div>",NA,"html-keyboard-response",302,1178804,"0.0-17.0-0.13",85075,"ListA","man","english","EMA5",NA,NA,NA,"null",NA,NA,NA,NA,NA,NA
"null","<img src='gifs/ChineseGender3b.gif' style='height:400px;''></img>",NA,"html-keyboard-response",303,1180807,"0.0-17.0-1.13",85075,"ListA","man","english","EMA5",NA,NA,NA,"null",NA,NA,NA,NA,NA,NA
"null","is contacting",NA,"html-keyboard-response",304,1183810,"0.0-17.0-2.13",85075,"ListA","man","english","EMA5",NA,NA,NA,"null",NA,NA,NA,NA,NA,NA
"4203",NA,NA,"survey-text",305,1188021,"0.0-17.0-3.13",85075,"ListA","man","english","EMA5",NA,NA,NA,NA,"{""Q0"":""Beth is contacting mike ""}","<img src='gifs/ChineseGender3b.gif' style='height:400px;''></img>","contacting","is contacting","english",NA
"null","<div style=""font-size:60px;"">+</div>",NA,"html-keyboard-response",306,1188522,"0.0-17.0-0.14",85075,"ListA","man","english","EMA5",NA,NA,NA,"null",NA,NA,NA,NA,NA,NA
"null","<img src='gifs/BlackGender2a.gif' style='height:400px;''></img>",NA,"html-keyboard-response",307,1190525,"0.0-17.0-1.14",85075,"ListA","man","english","EMA5",NA,NA,NA,"null",NA,NA,NA,NA,NA,NA
"null","is promising",NA,"html-keyboard-response",308,1193527,"0.0-17.0-2.14",85075,"ListA","man","english","EMA5",NA,NA,NA,"null",NA,NA,NA,NA,NA,NA
"8356",NA,NA,"survey-text",309,1201892,"0.0-17.0-3.14",85075,"ListA","man","english","EMA5",NA,NA,NA,NA,"{""Q0"":""Ruth is Dave ""}","<img src='gifs/BlackGender2a.gif' style='height:400px;''></img>","promising","is promising","english",NA
"null","<div style=""font-size:60px;"">+</div>",NA,"html-keyboard-response",310,1202393,"0.0-17.0-0.15",85075,"ListA","man","english","EMA5",NA,NA,NA,"null",NA,NA,NA,NA,NA,NA
"null","<img src='gifs/MaleRace4a.gif' style='height:400px;''></img>",NA,"html-keyboard-response",311,1204396,"0.0-17.0-1.15",85075,"ListA","man","english","EMA5",NA,NA,NA,"null",NA,NA,NA,NA,NA,NA
"null","is contacting",NA,"html-keyboard-response",312,1207399,"0.0-17.0-2.15",85075,"ListA","man","english","EMA5",NA,NA,NA,"null",NA,NA,NA,NA,NA,NA
"6318",NA,NA,"survey-text",313,1213725,"0.0-17.0-3.15",85075,"ListA","man","english","EMA5",NA,NA,NA,NA,"{""Q0"":""Mike is contacting Dave ""}","<img src='gifs/MaleRace4a.gif' style='height:400px;''></img>","contacting","is contacting","english",NA
"null","<div style=""font-size:60px;"">+</div>",NA,"html-keyboard-response",314,1214227,"0.0-17.0-0.16",85075,"ListA","man","english","EMA5",NA,NA,NA,"null",NA,NA,NA,NA,NA,NA
"null","<img src='gifs/BlackGender2b.gif' style='height:400px;''></img>",NA,"html-keyboard-response",315,1216229,"0.0-17.0-1.16",85075,"ListA","man","english","EMA5",NA,NA,NA,"null",NA,NA,NA,NA,NA,NA
"null","is looking at",NA,"html-keyboard-response",316,1219232,"0.0-17.0-2.16",85075,"ListA","man","english","EMA5",NA,NA,NA,"null",NA,NA,NA,NA,NA,NA
"3519",NA,NA,"survey-text",317,1222760,"0.0-17.0-3.16",85075,"ListA","man","english","EMA5",NA,NA,NA,NA,"{""Q0"":""Ruth is looking at Dave ""}","<img src='gifs/BlackGender2b.gif' style='height:400px;''></img>","looking at","is looking at","english",NA
"null","<div style=""font-size:60px;"">+</div>",NA,"html-keyboard-response",318,1223262,"0.0-17.0-0.17",85075,"ListA","man","english","EMA5",NA,NA,NA,"null",NA,NA,NA,NA,NA,NA
"null","<img src='gifs/BlackGender2a.gif' style='height:400px;''></img>",NA,"html-keyboard-response",319,1225264,"0.0-17.0-1.17",85075,"ListA","man","english","EMA5",NA,NA,NA,"null",NA,NA,NA,NA,NA,NA
"null","is joining",NA,"html-keyboard-response",320,1228267,"0.0-17.0-2.17",85075,"ListA","man","english","EMA5",NA,NA,NA,"null",NA,NA,NA,NA,NA,NA
"4192",NA,NA,"survey-text",321,1232468,"0.0-17.0-3.17",85075,"ListA","man","english","EMA5",NA,NA,NA,NA,"{""Q0"":""Dave is joining Ruth ""}","<img src='gifs/BlackGender2a.gif' style='height:400px;''></img>","join","is joining","english",NA
"2589.999999999770","<p>Thank you for completing that task.</p><p>The final part of this session is a short questionnaire.</p><p>Press Continue.</p>",0,"html-button-response",322,1235059,"0.0-18.0",85075,"ListA","man","english","EMA5",NA,NA,NA,NA,NA,NA,NA,NA,NA,NA
"30637",NA,NA,"survey-text",323,1266716,"0.0-19.0",85075,"ListA","man","english","EMA5",NA,NA,NA,NA,"{""Q0"":""22 "",""Q1"":""Mandarin "",""Q2"":""Mandarin "",""Q3"":""Canada "",""Q4"":""Chinese "",""Q5"":""Asian"",""Q6"":""Male ""}",NA,NA,NA,NA,"demographics"
"5429",NA,NA,"external-html",324,1273032,"0.0-20.0",85075,"ListA","man","english","EMA5","debrief.html",NA,NA,NA,NA,NA,NA,NA,NA,NA
"15434",NA,NA,"survey-text",325,1288474,"0.0-21.0",85075,"ListA","man","english","EMA5",NA,NA,NA,NA,"{""ptpt_id"":""EMA5 ""}",NA,NA,NA,NA,"worker_id"
