"rt","stimulus","button_pressed","trial_type","trial_index","time_elapsed","internal_node_id","subject","list","ppt_gender","ppt_language","ptptID","url","first_guess","correct","key_press","responses","image","verb","phrase","condition","test_part"
"26378","Welcome to the experiment. Press Continue to begin.",0,"html-button-response",0,26383,"0.0-0.0",90114,"ListB","woman","chinese","CFB10",NA,NA,NA,NA,NA,NA,NA,NA,NA,NA
"646737.0000000001",NA,NA,"external-html",1,674254,"0.0-1.0",90114,"ListB","woman","chinese","CFB10","consent.html",NA,NA,NA,NA,NA,NA,NA,NA,NA
"15414","<p>在下一页中，您将看到8个人物肖像和他们各自的名字。</p><p>请花费几分钟的时间记住这些人物及其所对应的名字。</p><p>之后的实验中需要您对人物的名字做出回忆，</p><p>因此在实验开始前请确保您已 经完全记住这些人物及其所对应的名字。</p><p><strong>然后您将完成一个测试以检验您对人物和名字的记忆。</strong></p><p>完成此记忆测试后，您将正式进入实验。</p><p>准备好了吗？</p>",0,"html-button-response",2,689669,"0.0-2.0",90114,"ListB","woman","chinese","CFB10",NA,NA,NA,NA,NA,NA,NA,NA,NA,NA
"259044.99999999988","<img src='img/portrait_matrix_listB_chinese.jpg' style='width:900px;height:500px;''></img><p>如果您已经记住了所有的人物和名字，请点击继续。</p><p><strong>请注意：您对先前记忆的面孔将在本实验中被测试5次。</strong></p>",0,"html-button-response",3,949696,"0.0-3.0-0.0",90114,"ListB","woman","chinese","CFB10",NA,NA,NA,NA,NA,NA,NA,NA,NA,NA
"5497.999999999884","<img src=""portrait/WM1.jpg""style=""height:400px;""></img>",6,"html-button-response",4,956197,"0.0-3.0-1.0",90114,"ListB","woman","chinese","CFB10",NA,"true",6,NA,NA,NA,NA,NA,NA,NA
"null","正确",NA,"html-keyboard-response",5,957703,"0.0-3.0-2.0-0.0",90114,"ListB","woman","chinese","CFB10",NA,NA,NA,"null",NA,NA,NA,NA,NA,NA
"5588","<img src=""portrait/BM1.jpg""style=""height:400px;""></img>",4,"html-button-response",6,963293,"0.0-3.0-4.0",90114,"ListB","woman","chinese","CFB10",NA,"true",4,NA,NA,NA,NA,NA,NA,NA
"null","正确",NA,"html-keyboard-response",7,964797,"0.0-3.0-5.0-0.0",90114,"ListB","woman","chinese","CFB10",NA,NA,NA,"null",NA,NA,NA,NA,NA,NA
"4746.000000000116","<img src=""portrait/BM2.jpg""style=""height:400px;""></img>",5,"html-button-response",8,969545,"0.0-3.0-7.0",90114,"ListB","woman","chinese","CFB10",NA,"true",5,NA,NA,NA,NA,NA,NA,NA
"null","正确",NA,"html-keyboard-response",9,971048,"0.0-3.0-8.0-0.0",90114,"ListB","woman","chinese","CFB10",NA,NA,NA,"null",NA,NA,NA,NA,NA,NA
"3163","<img src=""portrait/WW2.jpg""style=""height:400px;""></img>",3,"html-button-response",10,974215,"0.0-3.0-10.0",90114,"ListB","woman","chinese","CFB10",NA,"true",3,NA,NA,NA,NA,NA,NA,NA
"null","正确",NA,"html-keyboard-response",11,975719,"0.0-3.0-11.0-0.0",90114,"ListB","woman","chinese","CFB10",NA,NA,NA,"null",NA,NA,NA,NA,NA,NA
"6156.000000000116","<img src=""portrait/BW2.jpg""style=""height:400px;""></img>",2,"html-button-response",12,981877,"0.0-3.0-13.0",90114,"ListB","woman","chinese","CFB10",NA,"true",2,NA,NA,NA,NA,NA,NA,NA
"null","正确",NA,"html-keyboard-response",13,983381,"0.0-3.0-14.0-0.0",90114,"ListB","woman","chinese","CFB10",NA,NA,NA,"null",NA,NA,NA,NA,NA,NA
"3180","<img src=""portrait/WM2.jpg""style=""height:400px;""></img>",7,"html-button-response",14,986563,"0.0-3.0-16.0",90114,"ListB","woman","chinese","CFB10",NA,"true",7,NA,NA,NA,NA,NA,NA,NA
"null","正确",NA,"html-keyboard-response",15,988067,"0.0-3.0-17.0-0.0",90114,"ListB","woman","chinese","CFB10",NA,NA,NA,"null",NA,NA,NA,NA,NA,NA
"35009","<img src=""portrait/BW1.jpg""style=""height:400px;""></img>",0,"html-button-response",16,1023079,"0.0-3.0-19.0",90114,"ListB","woman","chinese","CFB10",NA,"true",0,NA,NA,NA,NA,NA,NA,NA
"null","正确",NA,"html-keyboard-response",17,1024582,"0.0-3.0-20.0-0.0",90114,"ListB","woman","chinese","CFB10",NA,NA,NA,"null",NA,NA,NA,NA,NA,NA
"2076","<img src=""portrait/WW1.jpg""style=""height:400px;""></img>",1,"html-button-response",18,1026660,"0.0-3.0-22.0",90114,"ListB","woman","chinese","CFB10",NA,"true",1,NA,NA,NA,NA,NA,NA,NA
"null","正确",NA,"html-keyboard-response",19,1028164,"0.0-3.0-23.0-0.0",90114,"ListB","woman","chinese","CFB10",NA,NA,NA,"null",NA,NA,NA,NA,NA,NA
"7929","<p>您第一次在8题里答对了 8 题。 请点击继续</p>",0,"html-button-response",20,1036098,"0.0-3.0-25.0",90114,"ListB","woman","chinese","CFB10",NA,NA,NA,NA,NA,NA,NA,NA,NA,NA
"43605","<p>此次实验您将会看到先前记忆任务里的人物照片。</p><p>人物照片消失后您将看到一个动词短语，请正确回忆人物的名字并用特定的 动词短语组成一句完整的句子。</p><p>请在指定的框内输入您的答案。在进入下一题之前请确保您填写了完整的句子。</p><p>人物照片和动词短语只会在屏幕上出现几秒钟，因此请您答题时尽量集中注意力。</p><p>以下是例子。请您在准备好后按下“继续”。</p><img src='img/chinese_speaking_example.jpg' style='width:800px;height:460px;''></img>",0,"html-button-response",21,1080706,"0.0-4.0",90114,"ListB","woman","chinese","CFB10",NA,NA,NA,NA,NA,NA,NA,NA,NA,NA
"2103","<p>在实验开始前，将为您展示两个示例实验。</p>",0,"html-button-response",22,1083811,"0.0-5.0",90114,"ListB","woman","chinese","CFB10",NA,NA,NA,NA,NA,NA,NA,NA,NA,NA
"null","<img src='img/meet.gif' style='height:400px;''></img>",NA,"html-keyboard-response",23,1086816,"0.0-6.0",90114,"ListB","woman","chinese","CFB10",NA,NA,NA,"null",NA,NA,NA,NA,NA,NA
"null","<p>正在约见</p>",NA,"html-keyboard-response",24,1088818,"0.0-7.0",90114,"ListB","woman","chinese","CFB10",NA,NA,NA,"null",NA,NA,NA,NA,NA,NA
"5694","<p><b>答案：</b> 霍普正在会见露丝</p>",0,"html-button-response",25,1094514,"0.0-8.0",90114,"ListB","woman","chinese","CFB10",NA,NA,NA,NA,NA,NA,NA,NA,NA,NA
"null","<img src='img/spy.gif' style='height:400px;''></img>",NA,"html-keyboard-response",26,1097518,"0.0-9.0",90114,"ListB","woman","chinese","CFB10",NA,NA,NA,"null",NA,NA,NA,NA,NA,NA
"null","<p>正在监视</p>",NA,"html-keyboard-response",27,1099520,"0.0-10.0",90114,"ListB","woman","chinese","CFB10",NA,NA,NA,"null",NA,NA,NA,NA,NA,NA
"4657","<p><b>答案：</b> 弗雷正在监视麦克</p>",0,"html-button-response",28,1104179,"0.0-11.0",90114,"ListB","woman","chinese","CFB10",NA,NA,NA,NA,NA,NA,NA,NA,NA,NA
"15966","<p>准备好开始了吗？</p><br><p><strong>请记住，您的答案需是一句完整的句子</strong></p><p><strong>，并用给到的图片人物和动词短语作答。</strong></p><p><strong>只有正确并完整完成实验才可获得报酬。</strong></p><p><strong> 您不需要加入任何标点符号。</strong></p><br><p>请按 ‘继续’ 键开始。</p>",0,"html-button-response",29,1121147,"0.0-12.0",90114,"ListB","woman","chinese","CFB10",NA,NA,NA,NA,NA,NA,NA,NA,NA,NA
"null","<div style=""font-size:60px;"">+</div>",NA,"html-keyboard-response",30,1122651,"0.0-13.0-0.0",90114,"ListB","woman","chinese","CFB10",NA,NA,NA,"null",NA,NA,NA,NA,NA,NA
"null","<img src='gifs/FemaleRace1a.gif' style='height:400px;''></img>",NA,"html-keyboard-response",31,1124655,"0.0-13.0-1.0",90114,"ListB","woman","chinese","CFB10",NA,NA,NA,"null",NA,NA,NA,NA,NA,NA
"null","正在走向",NA,"html-keyboard-response",32,1127657,"0.0-13.0-2.0",90114,"ListB","woman","chinese","CFB10",NA,NA,NA,"null",NA,NA,NA,NA,NA,NA
"18754.999999999767",NA,NA,"survey-text",33,1146440,"0.0-13.0-3.0",90114,"ListB","woman","chinese","CFB10",NA,NA,NA,NA,"{""Q0"":""贝斯正在走向霍普""}","<img src='gifs/FemaleRace1a.gif' style='height:400px;''></img>","走向","正在走向","chinese",NA
"null","<div style=""font-size:60px;"">+</div>",NA,"html-keyboard-response",34,1146942,"0.0-13.0-0.1",90114,"ListB","woman","chinese","CFB10",NA,NA,NA,"null",NA,NA,NA,NA,NA,NA
"null","<img src='gifs/BlackGender4b.gif' style='height:400px;''></img>",NA,"html-keyboard-response",35,1148945,"0.0-13.0-1.1",90114,"ListB","woman","chinese","CFB10",NA,NA,NA,"null",NA,NA,NA,NA,NA,NA
"null","正在走向",NA,"html-keyboard-response",36,1151947,"0.0-13.0-2.1",90114,"ListB","woman","chinese","CFB10",NA,NA,NA,"null",NA,NA,NA,NA,NA,NA
"13494",NA,NA,"survey-text",37,1165450,"0.0-13.0-3.1",90114,"ListB","woman","chinese","CFB10",NA,NA,NA,NA,"{""Q0"":""凯特正在走向麦克""}","<img src='gifs/BlackGender4b.gif' style='height:400px;''></img>","走向","正在走向","chinese",NA
"null","<div style=""font-size:60px;"">+</div>",NA,"html-keyboard-response",38,1165953,"0.0-13.0-0.2",90114,"ListB","woman","chinese","CFB10",NA,NA,NA,"null",NA,NA,NA,NA,NA,NA
"null","<img src='gifs/FemaleRace3a.gif' style='height:400px;''></img>",NA,"html-keyboard-response",39,1167955,"0.0-13.0-1.2",90114,"ListB","woman","chinese","CFB10",NA,NA,NA,"null",NA,NA,NA,NA,NA,NA
"null","正在接近",NA,"html-keyboard-response",40,1170958,"0.0-13.0-2.2",90114,"ListB","woman","chinese","CFB10",NA,NA,NA,"null",NA,NA,NA,NA,NA,NA
"13369.000000000233",NA,NA,"survey-text",41,1184339,"0.0-13.0-3.2",90114,"ListB","woman","chinese","CFB10",NA,NA,NA,NA,"{""Q0"":""露丝正在接近贝斯""}","<img src='gifs/FemaleRace3a.gif' style='height:400px;''></img>","接近","正在接近","chinese",NA
"null","<div style=""font-size:60px;"">+</div>",NA,"html-keyboard-response",42,1184841,"0.0-13.0-0.3",90114,"ListB","woman","chinese","CFB10",NA,NA,NA,"null",NA,NA,NA,NA,NA,NA
"null","<img src='gifs/FemaleRace3a.gif' style='height:400px;''></img>",NA,"html-keyboard-response",43,1186844,"0.0-13.0-1.3",90114,"ListB","woman","chinese","CFB10",NA,NA,NA,"null",NA,NA,NA,NA,NA,NA
"null","正在答应",NA,"html-keyboard-response",44,1189846,"0.0-13.0-2.3",90114,"ListB","woman","chinese","CFB10",NA,NA,NA,"null",NA,NA,NA,NA,NA,NA
"14860",NA,NA,"survey-text",45,1204714,"0.0-13.0-3.3",90114,"ListB","woman","chinese","CFB10",NA,NA,NA,NA,"{""Q0"":""露丝正在答应贝斯""}","<img src='gifs/FemaleRace3a.gif' style='height:400px;''></img>","答应","正在答应","chinese",NA
"null","<div style=""font-size:60px;"">+</div>",NA,"html-keyboard-response",46,1205216,"0.0-13.0-0.4",90114,"ListB","woman","chinese","CFB10",NA,NA,NA,"null",NA,NA,NA,NA,NA,NA
"null","<img src='gifs/MaleRace4a.gif' style='height:400px;''></img>",NA,"html-keyboard-response",47,1207218,"0.0-13.0-1.4",90114,"ListB","woman","chinese","CFB10",NA,NA,NA,"null",NA,NA,NA,NA,NA,NA
"null","正在聆听",NA,"html-keyboard-response",48,1210220,"0.0-13.0-2.4",90114,"ListB","woman","chinese","CFB10",NA,NA,NA,"null",NA,NA,NA,NA,NA,NA
"15272.000000000233",NA,NA,"survey-text",49,1225501,"0.0-13.0-3.4",90114,"ListB","woman","chinese","CFB10",NA,NA,NA,NA,"{""Q0"":""麦克正在聆听戴夫""}","<img src='gifs/MaleRace4a.gif' style='height:400px;''></img>","聆听","正在聆听","chinese",NA
"null","<div style=""font-size:60px;"">+</div>",NA,"html-keyboard-response",50,1226003,"0.0-13.0-0.5",90114,"ListB","woman","chinese","CFB10",NA,NA,NA,"null",NA,NA,NA,NA,NA,NA
"null","<img src='gifs/ChineseGender1b.gif' style='height:400px;''></img>",NA,"html-keyboard-response",51,1228006,"0.0-13.0-1.5",90114,"ListB","woman","chinese","CFB10",NA,NA,NA,"null",NA,NA,NA,NA,NA,NA
"null","正在答应",NA,"html-keyboard-response",52,1231009,"0.0-13.0-2.5",90114,"ListB","woman","chinese","CFB10",NA,NA,NA,"null",NA,NA,NA,NA,NA,NA
"12431",NA,NA,"survey-text",53,1243450,"0.0-13.0-3.5",90114,"ListB","woman","chinese","CFB10",NA,NA,NA,NA,"{""Q0"":""霍普正在答应卢克""}","<img src='gifs/ChineseGender1b.gif' style='height:400px;''></img>","答应","正在答应","chinese",NA
"null","<div style=""font-size:60px;"">+</div>",NA,"html-keyboard-response",54,1243952,"0.0-13.0-0.6",90114,"ListB","woman","chinese","CFB10",NA,NA,NA,"null",NA,NA,NA,NA,NA,NA
"null","<img src='gifs/ChineseGender3a.gif' style='height:400px;''></img>",NA,"html-keyboard-response",55,1245954,"0.0-13.0-1.6",90114,"ListB","woman","chinese","CFB10",NA,NA,NA,"null",NA,NA,NA,NA,NA,NA
"null","正在接近",NA,"html-keyboard-response",56,1248956,"0.0-13.0-2.6",90114,"ListB","woman","chinese","CFB10",NA,NA,NA,"null",NA,NA,NA,NA,NA,NA
"8225",NA,NA,"survey-text",57,1257189,"0.0-13.0-3.6",90114,"ListB","woman","chinese","CFB10",NA,NA,NA,NA,"{""Q0"":""露丝正在接近戴夫""}","<img src='gifs/ChineseGender3a.gif' style='height:400px;''></img>","接近","正在接近","chinese",NA
"null","<div style=""font-size:60px;"">+</div>",NA,"html-keyboard-response",58,1257691,"0.0-13.0-0.7",90114,"ListB","woman","chinese","CFB10",NA,NA,NA,"null",NA,NA,NA,NA,NA,NA
"null","<img src='gifs/ChineseGender4b.gif' style='height:400px;''></img>",NA,"html-keyboard-response",59,1259693,"0.0-13.0-1.7",90114,"ListB","woman","chinese","CFB10",NA,NA,NA,"null",NA,NA,NA,NA,NA,NA
"null","正在看着",NA,"html-keyboard-response",60,1262696,"0.0-13.0-2.7",90114,"ListB","woman","chinese","CFB10",NA,NA,NA,"null",NA,NA,NA,NA,NA,NA
"9578",NA,NA,"survey-text",61,1272283,"0.0-13.0-3.7",90114,"ListB","woman","chinese","CFB10",NA,NA,NA,NA,"{""Q0"":""戴夫正在看着霍普""}","<img src='gifs/ChineseGender4b.gif' style='height:400px;''></img>","看着","正在看着","chinese",NA
"null","<div style=""font-size:60px;"">+</div>",NA,"html-keyboard-response",62,1272785,"0.0-13.0-0.8",90114,"ListB","woman","chinese","CFB10",NA,NA,NA,"null",NA,NA,NA,NA,NA,NA
"null","<img src='gifs/BlackGender2b.gif' style='height:400px;''></img>",NA,"html-keyboard-response",63,1274787,"0.0-13.0-1.8",90114,"ListB","woman","chinese","CFB10",NA,NA,NA,"null",NA,NA,NA,NA,NA,NA
"null","正在提到",NA,"html-keyboard-response",64,1277790,"0.0-13.0-2.8",90114,"ListB","woman","chinese","CFB10",NA,NA,NA,"null",NA,NA,NA,NA,NA,NA
"12598.999999999767",NA,NA,"survey-text",65,1290397,"0.0-13.0-3.8",90114,"ListB","woman","chinese","CFB10",NA,NA,NA,NA,"{""Q0"":""麦克正在提到贝斯""}","<img src='gifs/BlackGender2b.gif' style='height:400px;''></img>","提到","正在提到","chinese",NA
"null","<div style=""font-size:60px;"">+</div>",NA,"html-keyboard-response",66,1290899,"0.0-13.0-0.9",90114,"ListB","woman","chinese","CFB10",NA,NA,NA,"null",NA,NA,NA,NA,NA,NA
"null","<img src='gifs/FemaleRace4b.gif' style='height:400px;''></img>",NA,"html-keyboard-response",67,1292901,"0.0-13.0-1.9",90114,"ListB","woman","chinese","CFB10",NA,NA,NA,"null",NA,NA,NA,NA,NA,NA
"null","正在陪伴",NA,"html-keyboard-response",68,1295903,"0.0-13.0-2.9",90114,"ListB","woman","chinese","CFB10",NA,NA,NA,"null",NA,NA,NA,NA,NA,NA
"8772",NA,NA,"survey-text",69,1304684,"0.0-13.0-3.9",90114,"ListB","woman","chinese","CFB10",NA,NA,NA,NA,"{""Q0"":""露丝正在陪伴凯特""}","<img src='gifs/FemaleRace4b.gif' style='height:400px;''></img>","陪伴","正在陪伴","chinese",NA
"null","<div style=""font-size:60px;"">+</div>",NA,"html-keyboard-response",70,1305186,"0.0-13.0-0.10",90114,"ListB","woman","chinese","CFB10",NA,NA,NA,"null",NA,NA,NA,NA,NA,NA
"null","<img src='gifs/FemaleRace2b.gif' style='height:400px;''></img>",NA,"html-keyboard-response",71,1307189,"0.0-13.0-1.10",90114,"ListB","woman","chinese","CFB10",NA,NA,NA,"null",NA,NA,NA,NA,NA,NA
"null","正在提到",NA,"html-keyboard-response",72,1310191,"0.0-13.0-2.10",90114,"ListB","woman","chinese","CFB10",NA,NA,NA,"null",NA,NA,NA,NA,NA,NA
"7446",NA,NA,"survey-text",73,1317645,"0.0-13.0-3.10",90114,"ListB","woman","chinese","CFB10",NA,NA,NA,NA,"{""Q0"":""凯特正在提到霍普""}","<img src='gifs/FemaleRace2b.gif' style='height:400px;''></img>","提到","正在提到","chinese",NA
"null","<div style=""font-size:60px;"">+</div>",NA,"html-keyboard-response",74,1318146,"0.0-13.0-0.11",90114,"ListB","woman","chinese","CFB10",NA,NA,NA,"null",NA,NA,NA,NA,NA,NA
"null","<img src='gifs/BlackGender2b.gif' style='height:400px;''></img>",NA,"html-keyboard-response",75,1320148,"0.0-13.0-1.11",90114,"ListB","woman","chinese","CFB10",NA,NA,NA,"null",NA,NA,NA,NA,NA,NA
"null","正在介绍",NA,"html-keyboard-response",76,1323151,"0.0-13.0-2.11",90114,"ListB","woman","chinese","CFB10",NA,NA,NA,"null",NA,NA,NA,NA,NA,NA
"10380",NA,NA,"survey-text",77,1333538,"0.0-13.0-3.11",90114,"ListB","woman","chinese","CFB10",NA,NA,NA,NA,"{""Q0"":""贝斯正在介绍麦克""}","<img src='gifs/BlackGender2b.gif' style='height:400px;''></img>","介绍","正在介绍","chinese",NA
"null","<div style=""font-size:60px;"">+</div>",NA,"html-keyboard-response",78,1334040,"0.0-13.0-0.12",90114,"ListB","woman","chinese","CFB10",NA,NA,NA,"null",NA,NA,NA,NA,NA,NA
"null","<img src='gifs/FemaleRace3b.gif' style='height:400px;''></img>",NA,"html-keyboard-response",79,1336042,"0.0-13.0-1.12",90114,"ListB","woman","chinese","CFB10",NA,NA,NA,"null",NA,NA,NA,NA,NA,NA
"null","正在面向",NA,"html-keyboard-response",80,1339044,"0.0-13.0-2.12",90114,"ListB","woman","chinese","CFB10",NA,NA,NA,"null",NA,NA,NA,NA,NA,NA
"14953",NA,NA,"survey-text",81,1354008,"0.0-13.0-3.12",90114,"ListB","woman","chinese","CFB10",NA,NA,NA,NA,"{""Q0"":""露丝正在面向贝斯""}","<img src='gifs/FemaleRace3b.gif' style='height:400px;''></img>","面向","正在面向","chinese",NA
"null","<div style=""font-size:60px;"">+</div>",NA,"html-keyboard-response",82,1354509,"0.0-13.0-0.13",90114,"ListB","woman","chinese","CFB10",NA,NA,NA,"null",NA,NA,NA,NA,NA,NA
"null","<img src='gifs/MaleRace2b.gif' style='height:400px;''></img>",NA,"html-keyboard-response",83,1356514,"0.0-13.0-1.13",90114,"ListB","woman","chinese","CFB10",NA,NA,NA,"null",NA,NA,NA,NA,NA,NA
"null","正在触摸",NA,"html-keyboard-response",84,1359517,"0.0-13.0-2.13",90114,"ListB","woman","chinese","CFB10",NA,NA,NA,"null",NA,NA,NA,NA,NA,NA
"10062.999999999767",NA,NA,"survey-text",85,1369590,"0.0-13.0-3.13",90114,"ListB","woman","chinese","CFB10",NA,NA,NA,NA,"{""Q0"":""麦克正在触摸戴夫""}","<img src='gifs/MaleRace2b.gif' style='height:400px;''></img>","触摸","正在触摸","chinese",NA
"null","<div style=""font-size:60px;"">+</div>",NA,"html-keyboard-response",86,1370092,"0.0-13.0-0.14",90114,"ListB","woman","chinese","CFB10",NA,NA,NA,"null",NA,NA,NA,NA,NA,NA
"null","<img src='gifs/MaleRace4b.gif' style='height:400px;''></img>",NA,"html-keyboard-response",87,1372094,"0.0-13.0-1.14",90114,"ListB","woman","chinese","CFB10",NA,NA,NA,"null",NA,NA,NA,NA,NA,NA
"null","正在看着",NA,"html-keyboard-response",88,1375097,"0.0-13.0-2.14",90114,"ListB","woman","chinese","CFB10",NA,NA,NA,"null",NA,NA,NA,NA,NA,NA
"24219.000000000233",NA,NA,"survey-text",89,1399325,"0.0-13.0-3.14",90114,"ListB","woman","chinese","CFB10",NA,NA,NA,NA,"{""Q0"":""戴夫正在看着麦克""}","<img src='gifs/MaleRace4b.gif' style='height:400px;''></img>","看着","正在看着","chinese",NA
"null","<div style=""font-size:60px;"">+</div>",NA,"html-keyboard-response",90,1399827,"0.0-13.0-0.15",90114,"ListB","woman","chinese","CFB10",NA,NA,NA,"null",NA,NA,NA,NA,NA,NA
"null","<img src='gifs/ChineseGender2b.gif' style='height:400px;''></img>",NA,"html-keyboard-response",91,1401829,"0.0-13.0-1.15",90114,"ListB","woman","chinese","CFB10",NA,NA,NA,"null",NA,NA,NA,NA,NA,NA
"null","正在加入",NA,"html-keyboard-response",92,1404832,"0.0-13.0-2.15",90114,"ListB","woman","chinese","CFB10",NA,NA,NA,"null",NA,NA,NA,NA,NA,NA
"19646",NA,NA,"survey-text",93,1424484,"0.0-13.0-3.15",90114,"ListB","woman","chinese","CFB10",NA,NA,NA,NA,"{""Q0"":""露丝正在看着卢克""}","<img src='gifs/ChineseGender2b.gif' style='height:400px;''></img>","加入","正在加入","chinese",NA
"null","<div style=""font-size:60px;"">+</div>",NA,"html-keyboard-response",94,1424986,"0.0-13.0-0.16",90114,"ListB","woman","chinese","CFB10",NA,NA,NA,"null",NA,NA,NA,NA,NA,NA
"null","<img src='gifs/ChineseGender1a.gif' style='height:400px;''></img>",NA,"html-keyboard-response",95,1426989,"0.0-13.0-1.16",90114,"ListB","woman","chinese","CFB10",NA,NA,NA,"null",NA,NA,NA,NA,NA,NA
"null","正在面向",NA,"html-keyboard-response",96,1429991,"0.0-13.0-2.16",90114,"ListB","woman","chinese","CFB10",NA,NA,NA,"null",NA,NA,NA,NA,NA,NA
"8323",NA,NA,"survey-text",97,1438322,"0.0-13.0-3.16",90114,"ListB","woman","chinese","CFB10",NA,NA,NA,NA,"{""Q0"":""卢克正在面向霍普""}","<img src='gifs/ChineseGender1a.gif' style='height:400px;''></img>","面向","正在面向","chinese",NA
"null","<div style=""font-size:60px;"">+</div>",NA,"html-keyboard-response",98,1438823,"0.0-13.0-0.17",90114,"ListB","woman","chinese","CFB10",NA,NA,NA,"null",NA,NA,NA,NA,NA,NA
"null","<img src='gifs/FemaleRace4a.gif' style='height:400px;''></img>",NA,"html-keyboard-response",99,1440825,"0.0-13.0-1.17",90114,"ListB","woman","chinese","CFB10",NA,NA,NA,"null",NA,NA,NA,NA,NA,NA
"null","正在表扬",NA,"html-keyboard-response",100,1443827,"0.0-13.0-2.17",90114,"ListB","woman","chinese","CFB10",NA,NA,NA,"null",NA,NA,NA,NA,NA,NA
"8708",NA,NA,"survey-text",101,1452545,"0.0-13.0-3.17",90114,"ListB","woman","chinese","CFB10",NA,NA,NA,NA,"{""Q0"":""凯特正在表扬露丝""}","<img src='gifs/FemaleRace4a.gif' style='height:400px;''></img>","表扬","正在表扬","chinese",NA
"45116","<img src='img/portrait_matrix_listB_chinese.jpg' style='width:900px;height:500px;''></img><p>如果您已经记住了所有的人物和名字，请点击继续。</p><p><strong>请注意：您对先前记忆的面孔将在本实验中被测试5次。</strong></p>",0,"html-button-response",102,1497662,"0.0-14.0-0.0",90114,"ListB","woman","chinese","CFB10",NA,NA,NA,NA,NA,NA,NA,NA,NA,NA
"5898","<img src=""portrait/BM2.jpg""style=""height:400px;""></img>",5,"html-button-response",103,1504562,"0.0-14.0-1.0",90114,"ListB","woman","chinese","CFB10",NA,"true",5,NA,NA,NA,NA,NA,NA,NA
"null","正确",NA,"html-keyboard-response",104,1506065,"0.0-14.0-2.0-0.0",90114,"ListB","woman","chinese","CFB10",NA,NA,NA,"null",NA,NA,NA,NA,NA,NA
"2891.000000000233","<img src=""portrait/BW2.jpg""style=""height:400px;""></img>",2,"html-button-response",105,1508959,"0.0-14.0-4.0",90114,"ListB","woman","chinese","CFB10",NA,"true",2,NA,NA,NA,NA,NA,NA,NA
"null","正确",NA,"html-keyboard-response",106,1510463,"0.0-14.0-5.0-0.0",90114,"ListB","woman","chinese","CFB10",NA,NA,NA,"null",NA,NA,NA,NA,NA,NA
"2977","<img src=""portrait/WM1.jpg""style=""height:400px;""></img>",6,"html-button-response",107,1513443,"0.0-14.0-7.0",90114,"ListB","woman","chinese","CFB10",NA,"true",6,NA,NA,NA,NA,NA,NA,NA
"null","正确",NA,"html-keyboard-response",108,1514947,"0.0-14.0-8.0-0.0",90114,"ListB","woman","chinese","CFB10",NA,NA,NA,"null",NA,NA,NA,NA,NA,NA
"3459.999999999767","<img src=""portrait/BM1.jpg""style=""height:400px;""></img>",4,"html-button-response",109,1518409,"0.0-14.0-10.0",90114,"ListB","woman","chinese","CFB10",NA,"true",4,NA,NA,NA,NA,NA,NA,NA
"null","正确",NA,"html-keyboard-response",110,1519912,"0.0-14.0-11.0-0.0",90114,"ListB","woman","chinese","CFB10",NA,NA,NA,"null",NA,NA,NA,NA,NA,NA
"2629","<img src=""portrait/WW1.jpg""style=""height:400px;""></img>",1,"html-button-response",111,1522544,"0.0-14.0-13.0",90114,"ListB","woman","chinese","CFB10",NA,"true",1,NA,NA,NA,NA,NA,NA,NA
"null","正确",NA,"html-keyboard-response",112,1524047,"0.0-14.0-14.0-0.0",90114,"ListB","woman","chinese","CFB10",NA,NA,NA,"null",NA,NA,NA,NA,NA,NA
"6727","<img src=""portrait/BW1.jpg""style=""height:400px;""></img>",0,"html-button-response",113,1530777,"0.0-14.0-16.0",90114,"ListB","woman","chinese","CFB10",NA,"true",0,NA,NA,NA,NA,NA,NA,NA
"null","正确",NA,"html-keyboard-response",114,1532281,"0.0-14.0-17.0-0.0",90114,"ListB","woman","chinese","CFB10",NA,NA,NA,"null",NA,NA,NA,NA,NA,NA
"4660","<img src=""portrait/WW2.jpg""style=""height:400px;""></img>",3,"html-button-response",115,1536942,"0.0-14.0-19.0",90114,"ListB","woman","chinese","CFB10",NA,"true",3,NA,NA,NA,NA,NA,NA,NA
"null","正确",NA,"html-keyboard-response",116,1538446,"0.0-14.0-20.0-0.0",90114,"ListB","woman","chinese","CFB10",NA,NA,NA,"null",NA,NA,NA,NA,NA,NA
"5976.999999999767","<img src=""portrait/WM2.jpg""style=""height:400px;""></img>",7,"html-button-response",117,1544426,"0.0-14.0-22.0",90114,"ListB","woman","chinese","CFB10",NA,"true",7,NA,NA,NA,NA,NA,NA,NA
"null","正确",NA,"html-keyboard-response",118,1545929,"0.0-14.0-23.0-0.0",90114,"ListB","woman","chinese","CFB10",NA,NA,NA,"null",NA,NA,NA,NA,NA,NA
"1813","<p>您第一次在8题里答对了 8 题。 请点击继续</p>",0,"html-button-response",119,1547743,"0.0-14.0-25.0",90114,"ListB","woman","chinese","CFB10",NA,NA,NA,NA,NA,NA,NA,NA,NA,NA
"null","<div style=""font-size:60px;"">+</div>",NA,"html-keyboard-response",120,1549247,"0.0-15.0-0.0",90114,"ListB","woman","chinese","CFB10",NA,NA,NA,"null",NA,NA,NA,NA,NA,NA
"null","<img src='gifs/FemaleRace4b.gif' style='height:400px;''></img>",NA,"html-keyboard-response",121,1551250,"0.0-15.0-1.0",90114,"ListB","woman","chinese","CFB10",NA,NA,NA,"null",NA,NA,NA,NA,NA,NA
"null","正在陪伴",NA,"html-keyboard-response",122,1554253,"0.0-15.0-2.0",90114,"ListB","woman","chinese","CFB10",NA,NA,NA,"null",NA,NA,NA,NA,NA,NA
"7282",NA,NA,"survey-text",123,1561543,"0.0-15.0-3.0",90114,"ListB","woman","chinese","CFB10",NA,NA,NA,NA,"{""Q0"":""凯特正在陪伴露丝""}","<img src='gifs/FemaleRace4b.gif' style='height:400px;''></img>","陪伴","正在陪伴","chinese",NA
"null","<div style=""font-size:60px;"">+</div>",NA,"html-keyboard-response",124,1562045,"0.0-15.0-0.1",90114,"ListB","woman","chinese","CFB10",NA,NA,NA,"null",NA,NA,NA,NA,NA,NA
"null","<img src='gifs/MaleRace4a.gif' style='height:400px;''></img>",NA,"html-keyboard-response",125,1564047,"0.0-15.0-1.1",90114,"ListB","woman","chinese","CFB10",NA,NA,NA,"null",NA,NA,NA,NA,NA,NA
"null","正在联系",NA,"html-keyboard-response",126,1567049,"0.0-15.0-2.1",90114,"ListB","woman","chinese","CFB10",NA,NA,NA,"null",NA,NA,NA,NA,NA,NA
"14832",NA,NA,"survey-text",127,1581889,"0.0-15.0-3.1",90114,"ListB","woman","chinese","CFB10",NA,NA,NA,NA,"{""Q0"":""麦克正在联系戴夫""}","<img src='gifs/MaleRace4a.gif' style='height:400px;''></img>","联系","正在联系","chinese",NA
"null","<div style=""font-size:60px;"">+</div>",NA,"html-keyboard-response",128,1582391,"0.0-15.0-0.2",90114,"ListB","woman","chinese","CFB10",NA,NA,NA,"null",NA,NA,NA,NA,NA,NA
"null","<img src='gifs/FemaleRace2a.gif' style='height:400px;''></img>",NA,"html-keyboard-response",129,1584394,"0.0-15.0-1.2",90114,"ListB","woman","chinese","CFB10",NA,NA,NA,"null",NA,NA,NA,NA,NA,NA
"null","正在表扬",NA,"html-keyboard-response",130,1587397,"0.0-15.0-2.2",90114,"ListB","woman","chinese","CFB10",NA,NA,NA,"null",NA,NA,NA,NA,NA,NA
"7691",NA,NA,"survey-text",131,1595093,"0.0-15.0-3.2",90114,"ListB","woman","chinese","CFB10",NA,NA,NA,NA,"{""Q0"":""凯特正在表扬霍普""}","<img src='gifs/FemaleRace2a.gif' style='height:400px;''></img>","表扬","正在表扬","chinese",NA
"null","<div style=""font-size:60px;"">+</div>",NA,"html-keyboard-response",132,1595595,"0.0-15.0-0.3",90114,"ListB","woman","chinese","CFB10",NA,NA,NA,"null",NA,NA,NA,NA,NA,NA
"null","<img src='gifs/FemaleRace1b.gif' style='height:400px;''></img>",NA,"html-keyboard-response",133,1597597,"0.0-15.0-1.3",90114,"ListB","woman","chinese","CFB10",NA,NA,NA,"null",NA,NA,NA,NA,NA,NA
"null","正在接近",NA,"html-keyboard-response",134,1600600,"0.0-15.0-2.3",90114,"ListB","woman","chinese","CFB10",NA,NA,NA,"null",NA,NA,NA,NA,NA,NA
"8957.000000000233",NA,NA,"survey-text",135,1609563,"0.0-15.0-3.3",90114,"ListB","woman","chinese","CFB10",NA,NA,NA,NA,"{""Q0"":""霍普正在接近贝斯""}","<img src='gifs/FemaleRace1b.gif' style='height:400px;''></img>","接近","正在接近","chinese",NA
"null","<div style=""font-size:60px;"">+</div>",NA,"html-keyboard-response",136,1610065,"0.0-15.0-0.4",90114,"ListB","woman","chinese","CFB10",NA,NA,NA,"null",NA,NA,NA,NA,NA,NA
"null","<img src='gifs/BlackGender4b.gif' style='height:400px;''></img>",NA,"html-keyboard-response",137,1612068,"0.0-15.0-1.4",90114,"ListB","woman","chinese","CFB10",NA,NA,NA,"null",NA,NA,NA,NA,NA,NA
"null","正在联系",NA,"html-keyboard-response",138,1615070,"0.0-15.0-2.4",90114,"ListB","woman","chinese","CFB10",NA,NA,NA,"null",NA,NA,NA,NA,NA,NA
"8440",NA,NA,"survey-text",139,1623520,"0.0-15.0-3.4",90114,"ListB","woman","chinese","CFB10",NA,NA,NA,NA,"{""Q0"":""凯特正在联系麦克""}","<img src='gifs/BlackGender4b.gif' style='height:400px;''></img>","联系","正在联系","chinese",NA
"null","<div style=""font-size:60px;"">+</div>",NA,"html-keyboard-response",140,1624022,"0.0-15.0-0.5",90114,"ListB","woman","chinese","CFB10",NA,NA,NA,"null",NA,NA,NA,NA,NA,NA
"null","<img src='gifs/ChineseGender4b.gif' style='height:400px;''></img>",NA,"html-keyboard-response",141,1626025,"0.0-15.0-1.5",90114,"ListB","woman","chinese","CFB10",NA,NA,NA,"null",NA,NA,NA,NA,NA,NA
"null","正在走向",NA,"html-keyboard-response",142,1629027,"0.0-15.0-2.5",90114,"ListB","woman","chinese","CFB10",NA,NA,NA,"null",NA,NA,NA,NA,NA,NA
"9570.999999999767",NA,NA,"survey-text",143,1638604,"0.0-15.0-3.5",90114,"ListB","woman","chinese","CFB10",NA,NA,NA,NA,"{""Q0"":""戴夫正在走向霍普""}","<img src='gifs/ChineseGender4b.gif' style='height:400px;''></img>","走向","正在走向","chinese",NA
"null","<div style=""font-size:60px;"">+</div>",NA,"html-keyboard-response",144,1639106,"0.0-15.0-0.6",90114,"ListB","woman","chinese","CFB10",NA,NA,NA,"null",NA,NA,NA,NA,NA,NA
"null","<img src='gifs/BlackGender1a.gif' style='height:400px;''></img>",NA,"html-keyboard-response",145,1641108,"0.0-15.0-1.6",90114,"ListB","woman","chinese","CFB10",NA,NA,NA,"null",NA,NA,NA,NA,NA,NA
"null","正在聆听",NA,"html-keyboard-response",146,1644109,"0.0-15.0-2.6",90114,"ListB","woman","chinese","CFB10",NA,NA,NA,"null",NA,NA,NA,NA,NA,NA
"11750",NA,NA,"survey-text",147,1655867,"0.0-15.0-3.6",90114,"ListB","woman","chinese","CFB10",NA,NA,NA,NA,"{""Q0"":""贝斯正在聆听弗雷""}","<img src='gifs/BlackGender1a.gif' style='height:400px;''></img>","聆听","正在聆听","chinese",NA
"null","<div style=""font-size:60px;"">+</div>",NA,"html-keyboard-response",148,1656368,"0.0-15.0-0.7",90114,"ListB","woman","chinese","CFB10",NA,NA,NA,"null",NA,NA,NA,NA,NA,NA
"null","<img src='gifs/BlackGender3a.gif' style='height:400px;''></img>",NA,"html-keyboard-response",149,1658371,"0.0-15.0-1.7",90114,"ListB","woman","chinese","CFB10",NA,NA,NA,"null",NA,NA,NA,NA,NA,NA
"null","正在表扬",NA,"html-keyboard-response",150,1661373,"0.0-15.0-2.7",90114,"ListB","woman","chinese","CFB10",NA,NA,NA,"null",NA,NA,NA,NA,NA,NA
"8254",NA,NA,"survey-text",151,1669637,"0.0-15.0-3.7",90114,"ListB","woman","chinese","CFB10",NA,NA,NA,NA,"{""Q0"":""凯特正在表扬弗雷""}","<img src='gifs/BlackGender3a.gif' style='height:400px;''></img>","表扬","正在表扬","chinese",NA
"null","<div style=""font-size:60px;"">+</div>",NA,"html-keyboard-response",152,1670139,"0.0-15.0-0.8",90114,"ListB","woman","chinese","CFB10",NA,NA,NA,"null",NA,NA,NA,NA,NA,NA
"null","<img src='gifs/BlackGender2a.gif' style='height:400px;''></img>",NA,"html-keyboard-response",153,1672141,"0.0-15.0-1.8",90114,"ListB","woman","chinese","CFB10",NA,NA,NA,"null",NA,NA,NA,NA,NA,NA
"null","正在面向",NA,"html-keyboard-response",154,1675143,"0.0-15.0-2.8",90114,"ListB","woman","chinese","CFB10",NA,NA,NA,"null",NA,NA,NA,NA,NA,NA
"7372.999999999767",NA,NA,"survey-text",155,1682522,"0.0-15.0-3.8",90114,"ListB","woman","chinese","CFB10",NA,NA,NA,NA,"{""Q0"":""贝斯正在面向麦克""}","<img src='gifs/BlackGender2a.gif' style='height:400px;''></img>","面向","正在面向","chinese",NA
"null","<div style=""font-size:60px;"">+</div>",NA,"html-keyboard-response",156,1683024,"0.0-15.0-0.9",90114,"ListB","woman","chinese","CFB10",NA,NA,NA,"null",NA,NA,NA,NA,NA,NA
"null","<img src='gifs/ChineseGender4a.gif' style='height:400px;''></img>",NA,"html-keyboard-response",157,1685026,"0.0-15.0-1.9",90114,"ListB","woman","chinese","CFB10",NA,NA,NA,"null",NA,NA,NA,NA,NA,NA
"null","正在联系",NA,"html-keyboard-response",158,1688029,"0.0-15.0-2.9",90114,"ListB","woman","chinese","CFB10",NA,NA,NA,"null",NA,NA,NA,NA,NA,NA
"10658",NA,NA,"survey-text",159,1698695,"0.0-15.0-3.9",90114,"ListB","woman","chinese","CFB10",NA,NA,NA,NA,"{""Q0"":""戴夫正在联系霍普""}","<img src='gifs/ChineseGender4a.gif' style='height:400px;''></img>","联系","正在联系","chinese",NA
"null","<div style=""font-size:60px;"">+</div>",NA,"html-keyboard-response",160,1699197,"0.0-15.0-0.10",90114,"ListB","woman","chinese","CFB10",NA,NA,NA,"null",NA,NA,NA,NA,NA,NA
"null","<img src='gifs/ChineseGender1a.gif' style='height:400px;''></img>",NA,"html-keyboard-response",161,1701199,"0.0-15.0-1.10",90114,"ListB","woman","chinese","CFB10",NA,NA,NA,"null",NA,NA,NA,NA,NA,NA
"null","正在触摸",NA,"html-keyboard-response",162,1704202,"0.0-15.0-2.10",90114,"ListB","woman","chinese","CFB10",NA,NA,NA,"null",NA,NA,NA,NA,NA,NA
"7777",NA,NA,"survey-text",163,1711987,"0.0-15.0-3.10",90114,"ListB","woman","chinese","CFB10",NA,NA,NA,NA,"{""Q0"":""霍普正在触摸卢克""}","<img src='gifs/ChineseGender1a.gif' style='height:400px;''></img>","触摸","正在触摸","chinese",NA
"null","<div style=""font-size:60px;"">+</div>",NA,"html-keyboard-response",164,1712489,"0.0-15.0-0.11",90114,"ListB","woman","chinese","CFB10",NA,NA,NA,"null",NA,NA,NA,NA,NA,NA
"null","<img src='gifs/MaleRace2a.gif' style='height:400px;''></img>",NA,"html-keyboard-response",165,1714492,"0.0-15.0-1.11",90114,"ListB","woman","chinese","CFB10",NA,NA,NA,"null",NA,NA,NA,NA,NA,NA
"null","正在加入",NA,"html-keyboard-response",166,1717495,"0.0-15.0-2.11",90114,"ListB","woman","chinese","CFB10",NA,NA,NA,"null",NA,NA,NA,NA,NA,NA
"20568.999999999767",NA,NA,"survey-text",167,1738072,"0.0-15.0-3.11",90114,"ListB","woman","chinese","CFB10",NA,NA,NA,NA,"{""Q0"":""卢克正在加入麦克""}","<img src='gifs/MaleRace2a.gif' style='height:400px;''></img>","加入","正在加入","chinese",NA
"null","<div style=""font-size:60px;"">+</div>",NA,"html-keyboard-response",168,1738574,"0.0-15.0-0.12",90114,"ListB","woman","chinese","CFB10",NA,NA,NA,"null",NA,NA,NA,NA,NA,NA
"null","<img src='gifs/MaleRace3b.gif' style='height:400px;''></img>",NA,"html-keyboard-response",169,1740576,"0.0-15.0-1.12",90114,"ListB","woman","chinese","CFB10",NA,NA,NA,"null",NA,NA,NA,NA,NA,NA
"null","正在看着",NA,"html-keyboard-response",170,1743578,"0.0-15.0-2.12",90114,"ListB","woman","chinese","CFB10",NA,NA,NA,"null",NA,NA,NA,NA,NA,NA
"9661",NA,NA,"survey-text",171,1753245,"0.0-15.0-3.12",90114,"ListB","woman","chinese","CFB10",NA,NA,NA,NA,"{""Q0"":""弗雷正在看着戴夫""}","<img src='gifs/MaleRace3b.gif' style='height:400px;''></img>","看着","正在看着","chinese",NA
"null","<div style=""font-size:60px;"">+</div>",NA,"html-keyboard-response",172,1753746,"0.0-15.0-0.13",90114,"ListB","woman","chinese","CFB10",NA,NA,NA,"null",NA,NA,NA,NA,NA,NA
"null","<img src='gifs/BlackGender1b.gif' style='height:400px;''></img>",NA,"html-keyboard-response",173,1755749,"0.0-15.0-1.13",90114,"ListB","woman","chinese","CFB10",NA,NA,NA,"null",NA,NA,NA,NA,NA,NA
"null","正在聘用",NA,"html-keyboard-response",174,1758751,"0.0-15.0-2.13",90114,"ListB","woman","chinese","CFB10",NA,NA,NA,"null",NA,NA,NA,NA,NA,NA
"7896",NA,NA,"survey-text",175,1766655,"0.0-15.0-3.13",90114,"ListB","woman","chinese","CFB10",NA,NA,NA,NA,"{""Q0"":""弗雷正在聘用贝斯""}","<img src='gifs/BlackGender1b.gif' style='height:400px;''></img>","聘用","正在聘用","chinese",NA
"null","<div style=""font-size:60px;"">+</div>",NA,"html-keyboard-response",176,1767156,"0.0-15.0-0.14",90114,"ListB","woman","chinese","CFB10",NA,NA,NA,"null",NA,NA,NA,NA,NA,NA
"null","<img src='gifs/ChineseGender3a.gif' style='height:400px;''></img>",NA,"html-keyboard-response",177,1769159,"0.0-15.0-1.14",90114,"ListB","woman","chinese","CFB10",NA,NA,NA,"null",NA,NA,NA,NA,NA,NA
"null","正在提到",NA,"html-keyboard-response",178,1772161,"0.0-15.0-2.14",90114,"ListB","woman","chinese","CFB10",NA,NA,NA,"null",NA,NA,NA,NA,NA,NA
"10821",NA,NA,"survey-text",179,1782987,"0.0-15.0-3.14",90114,"ListB","woman","chinese","CFB10",NA,NA,NA,NA,"{""Q0"":""露丝正在提到戴夫""}","<img src='gifs/ChineseGender3a.gif' style='height:400px;''></img>","提到","正在提到","chinese",NA
"null","<div style=""font-size:60px;"">+</div>",NA,"html-keyboard-response",180,1783490,"0.0-15.0-0.15",90114,"ListB","woman","chinese","CFB10",NA,NA,NA,"null",NA,NA,NA,NA,NA,NA
"null","<img src='gifs/FemaleRace2a.gif' style='height:400px;''></img>",NA,"html-keyboard-response",181,1785494,"0.0-15.0-1.15",90114,"ListB","woman","chinese","CFB10",NA,NA,NA,"null",NA,NA,NA,NA,NA,NA
"null","正在走向",NA,"html-keyboard-response",182,1788497,"0.0-15.0-2.15",90114,"ListB","woman","chinese","CFB10",NA,NA,NA,"null",NA,NA,NA,NA,NA,NA
"9455",NA,NA,"survey-text",183,1797962,"0.0-15.0-3.15",90114,"ListB","woman","chinese","CFB10",NA,NA,NA,NA,"{""Q0"":""霍普正在走向凯特""}","<img src='gifs/FemaleRace2a.gif' style='height:400px;''></img>","走向","正在走向","chinese",NA
"null","<div style=""font-size:60px;"">+</div>",NA,"html-keyboard-response",184,1798464,"0.0-15.0-0.16",90114,"ListB","woman","chinese","CFB10",NA,NA,NA,"null",NA,NA,NA,NA,NA,NA
"null","<img src='gifs/BlackGender3b.gif' style='height:400px;''></img>",NA,"html-keyboard-response",185,1800467,"0.0-15.0-1.16",90114,"ListB","woman","chinese","CFB10",NA,NA,NA,"null",NA,NA,NA,NA,NA,NA
"null","正在联系",NA,"html-keyboard-response",186,1803469,"0.0-15.0-2.16",90114,"ListB","woman","chinese","CFB10",NA,NA,NA,"null",NA,NA,NA,NA,NA,NA
"9175",NA,NA,"survey-text",187,1812653,"0.0-15.0-3.16",90114,"ListB","woman","chinese","CFB10",NA,NA,NA,NA,"{""Q0"":""弗雷正在联系凯特""}","<img src='gifs/BlackGender3b.gif' style='height:400px;''></img>","联系","正在联系","chinese",NA
"null","<div style=""font-size:60px;"">+</div>",NA,"html-keyboard-response",188,1813155,"0.0-15.0-0.17",90114,"ListB","woman","chinese","CFB10",NA,NA,NA,"null",NA,NA,NA,NA,NA,NA
"null","<img src='gifs/BlackGender3b.gif' style='height:400px;''></img>",NA,"html-keyboard-response",189,1815156,"0.0-15.0-1.17",90114,"ListB","woman","chinese","CFB10",NA,NA,NA,"null",NA,NA,NA,NA,NA,NA
"null","正在提到",NA,"html-keyboard-response",190,1818159,"0.0-15.0-2.17",90114,"ListB","woman","chinese","CFB10",NA,NA,NA,"null",NA,NA,NA,NA,NA,NA
"33815.99999999977",NA,NA,"survey-text",191,1851981,"0.0-15.0-3.17",90114,"ListB","woman","chinese","CFB10",NA,NA,NA,NA,"{""Q0"":""凯特正在提到弗雷""}","<img src='gifs/BlackGender3b.gif' style='height:400px;''></img>","提到","正在提到","chinese",NA
"26693.999999999767","<img src='img/portrait_matrix_listB_chinese.jpg' style='width:900px;height:500px;''></img><p>如果您已经记住了所有的人物和名字，请点击继续。</p><p><strong>请注意：您对先前记忆的面孔将在本实验中被测试5次。</strong></p>",0,"html-button-response",192,1878677,"0.0-16.0-0.0",90114,"ListB","woman","chinese","CFB10",NA,NA,NA,NA,NA,NA,NA,NA,NA,NA
"3229","<img src=""portrait/WW1.jpg""style=""height:400px;""></img>",1,"html-button-response",193,1882909,"0.0-16.0-1.0",90114,"ListB","woman","chinese","CFB10",NA,"true",1,NA,NA,NA,NA,NA,NA,NA
"null","正确",NA,"html-keyboard-response",194,1884412,"0.0-16.0-2.0-0.0",90114,"ListB","woman","chinese","CFB10",NA,NA,NA,"null",NA,NA,NA,NA,NA,NA
"2627.999999999767","<img src=""portrait/BW1.jpg""style=""height:400px;""></img>",0,"html-button-response",195,1887043,"0.0-16.0-4.0",90114,"ListB","woman","chinese","CFB10",NA,"true",0,NA,NA,NA,NA,NA,NA,NA
"null","正确",NA,"html-keyboard-response",196,1888547,"0.0-16.0-5.0-0.0",90114,"ListB","woman","chinese","CFB10",NA,NA,NA,"null",NA,NA,NA,NA,NA,NA
"2876.999999999767","<img src=""portrait/WM2.jpg""style=""height:400px;""></img>",7,"html-button-response",197,1891427,"0.0-16.0-7.0",90114,"ListB","woman","chinese","CFB10",NA,"true",7,NA,NA,NA,NA,NA,NA,NA
"null","正确",NA,"html-keyboard-response",198,1892929,"0.0-16.0-8.0-0.0",90114,"ListB","woman","chinese","CFB10",NA,NA,NA,"null",NA,NA,NA,NA,NA,NA
"18895","<img src=""portrait/WW2.jpg""style=""height:400px;""></img>",3,"html-button-response",199,1911825,"0.0-16.0-10.0",90114,"ListB","woman","chinese","CFB10",NA,"true",3,NA,NA,NA,NA,NA,NA,NA
"null","正确",NA,"html-keyboard-response",200,1913328,"0.0-16.0-11.0-0.0",90114,"ListB","woman","chinese","CFB10",NA,NA,NA,"null",NA,NA,NA,NA,NA,NA
"3963","<img src=""portrait/BM2.jpg""style=""height:400px;""></img>",5,"html-button-response",201,1917294,"0.0-16.0-13.0",90114,"ListB","woman","chinese","CFB10",NA,"true",5,NA,NA,NA,NA,NA,NA,NA
"null","正确",NA,"html-keyboard-response",202,1918796,"0.0-16.0-14.0-0.0",90114,"ListB","woman","chinese","CFB10",NA,NA,NA,"null",NA,NA,NA,NA,NA,NA
"3459.999999999767","<img src=""portrait/BW2.jpg""style=""height:400px;""></img>",2,"html-button-response",203,1922258,"0.0-16.0-16.0",90114,"ListB","woman","chinese","CFB10",NA,"true",2,NA,NA,NA,NA,NA,NA,NA
"null","正确",NA,"html-keyboard-response",204,1923762,"0.0-16.0-17.0-0.0",90114,"ListB","woman","chinese","CFB10",NA,NA,NA,"null",NA,NA,NA,NA,NA,NA
"8964","<img src=""portrait/BM1.jpg""style=""height:400px;""></img>",4,"html-button-response",205,1932728,"0.0-16.0-19.0",90114,"ListB","woman","chinese","CFB10",NA,"true",4,NA,NA,NA,NA,NA,NA,NA
"null","正确",NA,"html-keyboard-response",206,1934231,"0.0-16.0-20.0-0.0",90114,"ListB","woman","chinese","CFB10",NA,NA,NA,"null",NA,NA,NA,NA,NA,NA
"4791","<img src=""portrait/WM1.jpg""style=""height:400px;""></img>",6,"html-button-response",207,1939024,"0.0-16.0-22.0",90114,"ListB","woman","chinese","CFB10",NA,"true",6,NA,NA,NA,NA,NA,NA,NA
"null","正确",NA,"html-keyboard-response",208,1940527,"0.0-16.0-23.0-0.0",90114,"ListB","woman","chinese","CFB10",NA,NA,NA,"null",NA,NA,NA,NA,NA,NA
"1694.9999999997672","<p>您第一次在8题里答对了 8 题。 请点击继续</p>",0,"html-button-response",209,1942225,"0.0-16.0-25.0",90114,"ListB","woman","chinese","CFB10",NA,NA,NA,NA,NA,NA,NA,NA,NA,NA
"null","<div style=""font-size:60px;"">+</div>",NA,"html-keyboard-response",210,1943729,"0.0-17.0-0.0",90114,"ListB","woman","chinese","CFB10",NA,NA,NA,"null",NA,NA,NA,NA,NA,NA
"null","<img src='gifs/BlackGender1b.gif' style='height:400px;''></img>",NA,"html-keyboard-response",211,1945731,"0.0-17.0-1.0",90114,"ListB","woman","chinese","CFB10",NA,NA,NA,"null",NA,NA,NA,NA,NA,NA
"null","正在答应",NA,"html-keyboard-response",212,1948734,"0.0-17.0-2.0",90114,"ListB","woman","chinese","CFB10",NA,NA,NA,"null",NA,NA,NA,NA,NA,NA
"12011",NA,NA,"survey-text",213,1960753,"0.0-17.0-3.0",90114,"ListB","woman","chinese","CFB10",NA,NA,NA,NA,"{""Q0"":""贝斯正在答应弗雷""}","<img src='gifs/BlackGender1b.gif' style='height:400px;''></img>","答应","正在答应","chinese",NA
"null","<div style=""font-size:60px;"">+</div>",NA,"html-keyboard-response",214,1961255,"0.0-17.0-0.1",90114,"ListB","woman","chinese","CFB10",NA,NA,NA,"null",NA,NA,NA,NA,NA,NA
"null","<img src='gifs/FemaleRace2b.gif' style='height:400px;''></img>",NA,"html-keyboard-response",215,1963258,"0.0-17.0-1.1",90114,"ListB","woman","chinese","CFB10",NA,NA,NA,"null",NA,NA,NA,NA,NA,NA
"null","正在说服",NA,"html-keyboard-response",216,1966260,"0.0-17.0-2.1",90114,"ListB","woman","chinese","CFB10",NA,NA,NA,"null",NA,NA,NA,NA,NA,NA
"17516",NA,NA,"survey-text",217,1983787,"0.0-17.0-3.1",90114,"ListB","woman","chinese","CFB10",NA,NA,NA,NA,"{""Q0"":""凯特正在说服霍普""}","<img src='gifs/FemaleRace2b.gif' style='height:400px;''></img>","说服","正在说服","chinese",NA
"null","<div style=""font-size:60px;"">+</div>",NA,"html-keyboard-response",218,1984289,"0.0-17.0-0.2",90114,"ListB","woman","chinese","CFB10",NA,NA,NA,"null",NA,NA,NA,NA,NA,NA
"null","<img src='gifs/MaleRace2a.gif' style='height:400px;''></img>",NA,"html-keyboard-response",219,1986292,"0.0-17.0-1.2",90114,"ListB","woman","chinese","CFB10",NA,NA,NA,"null",NA,NA,NA,NA,NA,NA
"null","正在加入",NA,"html-keyboard-response",220,1989294,"0.0-17.0-2.2",90114,"ListB","woman","chinese","CFB10",NA,NA,NA,"null",NA,NA,NA,NA,NA,NA
"6967",NA,NA,"survey-text",221,1996271,"0.0-17.0-3.2",90114,"ListB","woman","chinese","CFB10",NA,NA,NA,NA,"{""Q0"":""麦克正在加入卢克""}","<img src='gifs/MaleRace2a.gif' style='height:400px;''></img>","加入","正在加入","chinese",NA
"null","<div style=""font-size:60px;"">+</div>",NA,"html-keyboard-response",222,1996772,"0.0-17.0-0.3",90114,"ListB","woman","chinese","CFB10",NA,NA,NA,"null",NA,NA,NA,NA,NA,NA
"null","<img src='gifs/BlackGender3a.gif' style='height:400px;''></img>",NA,"html-keyboard-response",223,1998775,"0.0-17.0-1.3",90114,"ListB","woman","chinese","CFB10",NA,NA,NA,"null",NA,NA,NA,NA,NA,NA
"null","正在聘用",NA,"html-keyboard-response",224,2001777,"0.0-17.0-2.3",90114,"ListB","woman","chinese","CFB10",NA,NA,NA,"null",NA,NA,NA,NA,NA,NA
"8065",NA,NA,"survey-text",225,2009851,"0.0-17.0-3.3",90114,"ListB","woman","chinese","CFB10",NA,NA,NA,NA,"{""Q0"":""弗雷正在聘用凯特""}","<img src='gifs/BlackGender3a.gif' style='height:400px;''></img>","聘用","正在聘用","chinese",NA
"null","<div style=""font-size:60px;"">+</div>",NA,"html-keyboard-response",226,2010352,"0.0-17.0-0.4",90114,"ListB","woman","chinese","CFB10",NA,NA,NA,"null",NA,NA,NA,NA,NA,NA
"null","<img src='gifs/ChineseGender2b.gif' style='height:400px;''></img>",NA,"html-keyboard-response",227,2012354,"0.0-17.0-1.4",90114,"ListB","woman","chinese","CFB10",NA,NA,NA,"null",NA,NA,NA,NA,NA,NA
"null","正在介绍",NA,"html-keyboard-response",228,2015356,"0.0-17.0-2.4",90114,"ListB","woman","chinese","CFB10",NA,NA,NA,"null",NA,NA,NA,NA,NA,NA
"8956.999999999767",NA,NA,"survey-text",229,2024318,"0.0-17.0-3.4",90114,"ListB","woman","chinese","CFB10",NA,NA,NA,NA,"{""Q0"":""卢克正在介绍露丝""}","<img src='gifs/ChineseGender2b.gif' style='height:400px;''></img>","介绍","正在介绍","chinese",NA
"null","<div style=""font-size:60px;"">+</div>",NA,"html-keyboard-response",230,2024820,"0.0-17.0-0.5",90114,"ListB","woman","chinese","CFB10",NA,NA,NA,"null",NA,NA,NA,NA,NA,NA
"null","<img src='gifs/MaleRace4b.gif' style='height:400px;''></img>",NA,"html-keyboard-response",231,2026822,"0.0-17.0-1.5",90114,"ListB","woman","chinese","CFB10",NA,NA,NA,"null",NA,NA,NA,NA,NA,NA
"null","正在聘用",NA,"html-keyboard-response",232,2029825,"0.0-17.0-2.5",90114,"ListB","woman","chinese","CFB10",NA,NA,NA,"null",NA,NA,NA,NA,NA,NA
"23294.999999999534",NA,NA,"survey-text",233,2053128,"0.0-17.0-3.5",90114,"ListB","woman","chinese","CFB10",NA,NA,NA,NA,"{""Q0"":""戴夫正在聘用麦克""}","<img src='gifs/MaleRace4b.gif' style='height:400px;''></img>","聘用","正在聘用","chinese",NA
"null","<div style=""font-size:60px;"">+</div>",NA,"html-keyboard-response",234,2053630,"0.0-17.0-0.6",90114,"ListB","woman","chinese","CFB10",NA,NA,NA,"null",NA,NA,NA,NA,NA,NA
"null","<img src='gifs/FemaleRace4a.gif' style='height:400px;''></img>",NA,"html-keyboard-response",235,2055633,"0.0-17.0-1.6",90114,"ListB","woman","chinese","CFB10",NA,NA,NA,"null",NA,NA,NA,NA,NA,NA
"null","正在聆听",NA,"html-keyboard-response",236,2058635,"0.0-17.0-2.6",90114,"ListB","woman","chinese","CFB10",NA,NA,NA,"null",NA,NA,NA,NA,NA,NA
"26272",NA,NA,"survey-text",237,2084917,"0.0-17.0-3.6",90114,"ListB","woman","chinese","CFB10",NA,NA,NA,NA,"{""Q0"":""露丝正在聆听凯特""}","<img src='gifs/FemaleRace4a.gif' style='height:400px;''></img>","聆听","正在聆听","chinese",NA
"null","<div style=""font-size:60px;"">+</div>",NA,"html-keyboard-response",238,2085418,"0.0-17.0-0.7",90114,"ListB","woman","chinese","CFB10",NA,NA,NA,"null",NA,NA,NA,NA,NA,NA
"null","<img src='gifs/MaleRace1a.gif' style='height:400px;''></img>",NA,"html-keyboard-response",239,2087420,"0.0-17.0-1.7",90114,"ListB","woman","chinese","CFB10",NA,NA,NA,"null",NA,NA,NA,NA,NA,NA
"null","正在聆听",NA,"html-keyboard-response",240,2090422,"0.0-17.0-2.7",90114,"ListB","woman","chinese","CFB10",NA,NA,NA,"null",NA,NA,NA,NA,NA,NA
"77457",NA,NA,"survey-text",241,2167886,"0.0-17.0-3.7",90114,"ListB","woman","chinese","CFB10",NA,NA,NA,NA,"{""Q0"":""凯特正在接近麦克""}","<img src='gifs/MaleRace1a.gif' style='height:400px;''></img>","聆听","正在聆听","chinese",NA
"null","<div style=""font-size:60px;"">+</div>",NA,"html-keyboard-response",242,2168387,"0.0-17.0-0.8",90114,"ListB","woman","chinese","CFB10",NA,NA,NA,"null",NA,NA,NA,NA,NA,NA
"null","<img src='gifs/MaleRace1a.gif' style='height:400px;''></img>",NA,"html-keyboard-response",243,2170390,"0.0-17.0-1.8",90114,"ListB","woman","chinese","CFB10",NA,NA,NA,"null",NA,NA,NA,NA,NA,NA
"null","正在触摸",NA,"html-keyboard-response",244,2173392,"0.0-17.0-2.8",90114,"ListB","woman","chinese","CFB10",NA,NA,NA,"null",NA,NA,NA,NA,NA,NA
"13299",NA,NA,"survey-text",245,2186701,"0.0-17.0-3.8",90114,"ListB","woman","chinese","CFB10",NA,NA,NA,NA,"{""Q0"":""弗雷正在接近卢克""}","<img src='gifs/MaleRace1a.gif' style='height:400px;''></img>","触摸","正在触摸","chinese",NA
"null","<div style=""font-size:60px;"">+</div>",NA,"html-keyboard-response",246,2187204,"0.0-17.0-0.9",90114,"ListB","woman","chinese","CFB10",NA,NA,NA,"null",NA,NA,NA,NA,NA,NA
"null","<img src='gifs/BlackGender4a.gif' style='height:400px;''></img>",NA,"html-keyboard-response",247,2189206,"0.0-17.0-1.9",90114,"ListB","woman","chinese","CFB10",NA,NA,NA,"null",NA,NA,NA,NA,NA,NA
"null","正在说服",NA,"html-keyboard-response",248,2192209,"0.0-17.0-2.9",90114,"ListB","woman","chinese","CFB10",NA,NA,NA,"null",NA,NA,NA,NA,NA,NA
"6311",NA,NA,"survey-text",249,2198525,"0.0-17.0-3.9",90114,"ListB","woman","chinese","CFB10",NA,NA,NA,NA,"{""Q0"":""凯特正在说服麦克""}","<img src='gifs/BlackGender4a.gif' style='height:400px;''></img>","说服","正在说服","chinese",NA
"null","<div style=""font-size:60px;"">+</div>",NA,"html-keyboard-response",250,2199026,"0.0-17.0-0.10",90114,"ListB","woman","chinese","CFB10",NA,NA,NA,"null",NA,NA,NA,NA,NA,NA
"null","<img src='gifs/FemaleRace3b.gif' style='height:400px;''></img>",NA,"html-keyboard-response",251,2201029,"0.0-17.0-1.10",90114,"ListB","woman","chinese","CFB10",NA,NA,NA,"null",NA,NA,NA,NA,NA,NA
"null","正在接近",NA,"html-keyboard-response",252,2204031,"0.0-17.0-2.10",90114,"ListB","woman","chinese","CFB10",NA,NA,NA,"null",NA,NA,NA,NA,NA,NA
"6085",NA,NA,"survey-text",253,2210121,"0.0-17.0-3.10",90114,"ListB","woman","chinese","CFB10",NA,NA,NA,NA,"{""Q0"":""贝斯正在接近露丝""}","<img src='gifs/FemaleRace3b.gif' style='height:400px;''></img>","接近","正在接近","chinese",NA
"null","<div style=""font-size:60px;"">+</div>",NA,"html-keyboard-response",254,2210623,"0.0-17.0-0.11",90114,"ListB","woman","chinese","CFB10",NA,NA,NA,"null",NA,NA,NA,NA,NA,NA
"null","<img src='gifs/MaleRace1b.gif' style='height:400px;''></img>",NA,"html-keyboard-response",255,2212625,"0.0-17.0-1.11",90114,"ListB","woman","chinese","CFB10",NA,NA,NA,"null",NA,NA,NA,NA,NA,NA
"null","正在答应",NA,"html-keyboard-response",256,2215627,"0.0-17.0-2.11",90114,"ListB","woman","chinese","CFB10",NA,NA,NA,"null",NA,NA,NA,NA,NA,NA
"7804.999999999534",NA,NA,"survey-text",257,2223441,"0.0-17.0-3.11",90114,"ListB","woman","chinese","CFB10",NA,NA,NA,NA,"{""Q0"":""弗雷正在答应卢克""}","<img src='gifs/MaleRace1b.gif' style='height:400px;''></img>","答应","正在答应","chinese",NA
"null","<div style=""font-size:60px;"">+</div>",NA,"html-keyboard-response",258,2223942,"0.0-17.0-0.12",90114,"ListB","woman","chinese","CFB10",NA,NA,NA,"null",NA,NA,NA,NA,NA,NA
"null","<img src='gifs/MaleRace3b.gif' style='height:400px;''></img>",NA,"html-keyboard-response",259,2225944,"0.0-17.0-1.12",90114,"ListB","woman","chinese","CFB10",NA,NA,NA,"null",NA,NA,NA,NA,NA,NA
"null","正在说服",NA,"html-keyboard-response",260,2228947,"0.0-17.0-2.12",90114,"ListB","woman","chinese","CFB10",NA,NA,NA,"null",NA,NA,NA,NA,NA,NA
"14714",NA,NA,"survey-text",261,2243668,"0.0-17.0-3.12",90114,"ListB","woman","chinese","CFB10",NA,NA,NA,NA,"{""Q0"":""戴夫正在说服弗雷""}","<img src='gifs/MaleRace3b.gif' style='height:400px;''></img>","说服","正在说服","chinese",NA
"null","<div style=""font-size:60px;"">+</div>",NA,"html-keyboard-response",262,2244170,"0.0-17.0-0.13",90114,"ListB","woman","chinese","CFB10",NA,NA,NA,"null",NA,NA,NA,NA,NA,NA
"null","<img src='gifs/BlackGender1a.gif' style='height:400px;''></img>",NA,"html-keyboard-response",263,2246173,"0.0-17.0-1.13",90114,"ListB","woman","chinese","CFB10",NA,NA,NA,"null",NA,NA,NA,NA,NA,NA
"null","正在面向",NA,"html-keyboard-response",264,2249176,"0.0-17.0-2.13",90114,"ListB","woman","chinese","CFB10",NA,NA,NA,"null",NA,NA,NA,NA,NA,NA
"9567",NA,NA,"survey-text",265,2258752,"0.0-17.0-3.13",90114,"ListB","woman","chinese","CFB10",NA,NA,NA,NA,"{""Q0"":""弗雷正在面向贝斯""}","<img src='gifs/BlackGender1a.gif' style='height:400px;''></img>","面向","正在面向","chinese",NA
"null","<div style=""font-size:60px;"">+</div>",NA,"html-keyboard-response",266,2259254,"0.0-17.0-0.14",90114,"ListB","woman","chinese","CFB10",NA,NA,NA,"null",NA,NA,NA,NA,NA,NA
"null","<img src='gifs/FemaleRace1b.gif' style='height:400px;''></img>",NA,"html-keyboard-response",267,2261257,"0.0-17.0-1.14",90114,"ListB","woman","chinese","CFB10",NA,NA,NA,"null",NA,NA,NA,NA,NA,NA
"null","正在跟随",NA,"html-keyboard-response",268,2264259,"0.0-17.0-2.14",90114,"ListB","woman","chinese","CFB10",NA,NA,NA,"null",NA,NA,NA,NA,NA,NA
"18332",NA,NA,"survey-text",269,2282600,"0.0-17.0-3.14",90114,"ListB","woman","chinese","CFB10",NA,NA,NA,NA,"{""Q0"":""贝斯正在跟随霍普""}","<img src='gifs/FemaleRace1b.gif' style='height:400px;''></img>","跟随","正在跟随","chinese",NA
"null","<div style=""font-size:60px;"">+</div>",NA,"html-keyboard-response",270,2283101,"0.0-17.0-0.15",90114,"ListB","woman","chinese","CFB10",NA,NA,NA,"null",NA,NA,NA,NA,NA,NA
"null","<img src='gifs/BlackGender4a.gif' style='height:400px;''></img>",NA,"html-keyboard-response",271,2285103,"0.0-17.0-1.15",90114,"ListB","woman","chinese","CFB10",NA,NA,NA,"null",NA,NA,NA,NA,NA,NA
"null","正在表扬",NA,"html-keyboard-response",272,2288105,"0.0-17.0-2.15",90114,"ListB","woman","chinese","CFB10",NA,NA,NA,"null",NA,NA,NA,NA,NA,NA
"195340",NA,NA,"survey-text",273,2483443,"0.0-17.0-3.15",90114,"ListB","woman","chinese","CFB10",NA,NA,NA,NA,"{""Q0"":""麦克正在表扬凯特""}","<img src='gifs/BlackGender4a.gif' style='height:400px;''></img>","表扬","正在表扬","chinese",NA
"null","<div style=""font-size:60px;"">+</div>",NA,"html-keyboard-response",274,2483945,"0.0-17.0-0.16",90114,"ListB","woman","chinese","CFB10",NA,NA,NA,"null",NA,NA,NA,NA,NA,NA
"null","<img src='gifs/MaleRace2b.gif' style='height:400px;''></img>",NA,"html-keyboard-response",275,2485948,"0.0-17.0-1.16",90114,"ListB","woman","chinese","CFB10",NA,NA,NA,"null",NA,NA,NA,NA,NA,NA
"null","正在触摸",NA,"html-keyboard-response",276,2488951,"0.0-17.0-2.16",90114,"ListB","woman","chinese","CFB10",NA,NA,NA,"null",NA,NA,NA,NA,NA,NA
"9009",NA,NA,"survey-text",277,2497971,"0.0-17.0-3.16",90114,"ListB","woman","chinese","CFB10",NA,NA,NA,NA,"{""Q0"":""卢克正在触摸麦克""}","<img src='gifs/MaleRace2b.gif' style='height:400px;''></img>","触摸","正在触摸","chinese",NA
"null","<div style=""font-size:60px;"">+</div>",NA,"html-keyboard-response",278,2498474,"0.0-17.0-0.17",90114,"ListB","woman","chinese","CFB10",NA,NA,NA,"null",NA,NA,NA,NA,NA,NA
"null","<img src='gifs/ChineseGender4a.gif' style='height:400px;''></img>",NA,"html-keyboard-response",279,2500475,"0.0-17.0-1.17",90114,"ListB","woman","chinese","CFB10",NA,NA,NA,"null",NA,NA,NA,NA,NA,NA
"null","正在介绍",NA,"html-keyboard-response",280,2503478,"0.0-17.0-2.17",90114,"ListB","woman","chinese","CFB10",NA,NA,NA,"null",NA,NA,NA,NA,NA,NA
"10848",NA,NA,"survey-text",281,2514335,"0.0-17.0-3.17",90114,"ListB","woman","chinese","CFB10",NA,NA,NA,NA,"{""Q0"":""霍普正在介绍戴夫""}","<img src='gifs/ChineseGender4a.gif' style='height:400px;''></img>","介绍","正在介绍","chinese",NA
"5429.000000000466","<p>Thank you for completing that task.</p><p>The final part of this session is a short questionnaire.</p><p>Press Continue.</p>",0,"html-button-response",282,2519766,"0.0-18.0",90114,"ListB","woman","chinese","CFB10",NA,NA,NA,NA,NA,NA,NA,NA,NA,NA
"64745.000000000466",NA,NA,"survey-text",283,2585526,"0.0-19.0",90114,"ListB","woman","chinese","CFB10",NA,NA,NA,NA,"{""Q0"":""26"",""Q1"":""Chinese"",""Q2"":""Chinese"",""Q3"":""UK"",""Q4"":""Chinese"",""Q5"":""Chinese"",""Q6"":""female""}",NA,NA,NA,NA,"demographics"
"6746","<p>Have you lived in the UK for the last 5 years or more?</p>",1,"html-button-response",284,2592274,"0.0-20.0",90114,"ListB","woman","chinese","CFB10",NA,NA,NA,NA,NA,NA,NA,NA,NA,"fiveyears"
"108012.00000000047",NA,NA,"external-html",285,2701446,"0.0-21.0",90114,"ListB","woman","chinese","CFB10","debrief.html",NA,NA,NA,NA,NA,NA,NA,NA,NA
"28253.000000000466",NA,NA,"survey-text",286,2729707,"0.0-22.0",90114,"ListB","woman","chinese","CFB10",NA,NA,NA,NA,"{""ptpt_id"":""CFB10""}",NA,NA,NA,NA,"worker_id"
