"rt","stimulus","button_pressed","trial_type","trial_index","time_elapsed","internal_node_id","subject","list","ppt_gender","ppt_language","ptptID","url","first_guess","correct","key_press","responses","image","verb","phrase","condition","test_part"
"1070.200000047680","Welcome to the experiment. Press Continue to begin.",0,"html-button-response",0,1071,"0.0-0.0",60316,"ListB","man","english","EMB7",NA,NA,NA,NA,NA,NA,NA,NA,NA,NA
"18858.7000000477",NA,NA,"external-html",1,20946,"0.0-1.0",60316,"ListB","man","english","EMB7","consent.html",NA,NA,NA,NA,NA,NA,NA,NA,NA
"2117.400000095370","<p>On the next page, you will see portraits of 8 people and their names.</p><p>Your first task is to take a few minutes to memorise the names of these people.</p><p>You will have to recall their names during the rest of the experiment, so it is</p><p>essential that you try to memorise these people and their names as best as you can.</p><p><strong>You will then be tested on your memory of these names and portraits.</strong></p><p>The experiment will start after you have completed this memory test.</p><p>Ready?</p>",0,"html-button-response",2,23064,"0.0-2.0",60316,"ListB","man","english","EMB7",NA,NA,NA,NA,NA,NA,NA,NA,NA,NA
"110069.799999952","<img src='img/portrait_matrix_listB.jpg' style='width:900px;height:500px;''></img><p>If you have memorised all the portraits and names and are ready to start, press Continue.</p><p><strong>Please note: Your memory of these faces will be tested 5 times during this experiment.</strong></p>",0,"html-button-response",3,134137,"0.0-3.0-0.0",60316,"ListB","man","english","EMB7",NA,NA,NA,NA,NA,NA,NA,NA,NA,NA
"5107.399999856950","<img src=""portrait/BM1.jpg""style=""height:400px;""></img>",4,"html-button-response",4,140246,"0.0-3.0-1.0",60316,"ListB","man","english","EMB7",NA,TRUE,4,NA,NA,NA,NA,NA,NA,NA
"null","CORRECT",NA,"html-keyboard-response",5,141753,"0.0-3.0-2.0-0.0",60316,"ListB","man","english","EMB7",NA,NA,NA,"null",NA,NA,NA,NA,NA,NA
"2105.099999904630","<img src=""portrait/BW1.jpg""style=""height:400px;""></img>",0,"html-button-response",6,143859,"0.0-3.0-4.0",60316,"ListB","man","english","EMB7",NA,TRUE,0,NA,NA,NA,NA,NA,NA,NA
"null","CORRECT",NA,"html-keyboard-response",7,145369,"0.0-3.0-5.0-0.0",60316,"ListB","man","english","EMB7",NA,NA,NA,"null",NA,NA,NA,NA,NA,NA
"4617","<img src=""portrait/WM2.jpg""style=""height:400px;""></img>",7,"html-button-response",8,149988,"0.0-3.0-7.0",60316,"ListB","man","english","EMB7",NA,TRUE,7,NA,NA,NA,NA,NA,NA,NA
"null","CORRECT",NA,"html-keyboard-response",9,151498,"0.0-3.0-8.0-0.0",60316,"ListB","man","english","EMB7",NA,NA,NA,"null",NA,NA,NA,NA,NA,NA
"6655.799999952320","<img src=""portrait/WW1.jpg""style=""height:400px;""></img>",1,"html-button-response",10,158156,"0.0-3.0-10.0",60316,"ListB","man","english","EMB7",NA,TRUE,1,NA,NA,NA,NA,NA,NA,NA
"null","CORRECT",NA,"html-keyboard-response",11,159666,"0.0-3.0-11.0-0.0",60316,"ListB","man","english","EMB7",NA,NA,NA,"null",NA,NA,NA,NA,NA,NA
"4771.200000047680","<img src=""portrait/WM1.jpg""style=""height:400px;""></img>",6,"html-button-response",12,164439,"0.0-3.0-13.0",60316,"ListB","man","english","EMB7",NA,TRUE,6,NA,NA,NA,NA,NA,NA,NA
"null","CORRECT",NA,"html-keyboard-response",13,165949,"0.0-3.0-14.0-0.0",60316,"ListB","man","english","EMB7",NA,NA,NA,"null",NA,NA,NA,NA,NA,NA
"1766.5","<img src=""portrait/BW2.jpg""style=""height:400px;""></img>",2,"html-button-response",14,167717,"0.0-3.0-16.0",60316,"ListB","man","english","EMB7",NA,TRUE,2,NA,NA,NA,NA,NA,NA,NA
"null","CORRECT",NA,"html-keyboard-response",15,169221,"0.0-3.0-17.0-0.0",60316,"ListB","man","english","EMB7",NA,NA,NA,"null",NA,NA,NA,NA,NA,NA
"2093.100000143050","<img src=""portrait/BM2.jpg""style=""height:400px;""></img>",5,"html-button-response",16,171316,"0.0-3.0-19.0",60316,"ListB","man","english","EMB7",NA,TRUE,5,NA,NA,NA,NA,NA,NA,NA
"null","CORRECT",NA,"html-keyboard-response",17,172827,"0.0-3.0-20.0-0.0",60316,"ListB","man","english","EMB7",NA,NA,NA,"null",NA,NA,NA,NA,NA,NA
"1557.699999809270","<img src=""portrait/WW2.jpg""style=""height:400px;""></img>",3,"html-button-response",18,174386,"0.0-3.0-22.0",60316,"ListB","man","english","EMB7",NA,TRUE,3,NA,NA,NA,NA,NA,NA,NA
"null","CORRECT",NA,"html-keyboard-response",19,175891,"0.0-3.0-23.0-0.0",60316,"ListB","man","english","EMB7",NA,NA,NA,"null",NA,NA,NA,NA,NA,NA
"1283.599999904630","<p>You got 8 out of 8 right first time. Press Continue.</p>",0,"html-button-response",20,177176,"0.0-3.0-25.0",60316,"ListB","man","english","EMB7",NA,NA,NA,NA,NA,NA,NA,NA,NA,NA
"36242.5","<p>In this experiment, you will view photographs of the people from the memory game.</p><p>By using the <strong>exact</strong> phrase given <i>after</i> the photograph appears and recalling the correct names of the people in the photographs, form a sentence describing an interaction. You do not need to capitalise names.</p><p>Type your answer in the space provided. Please complete every sentence before moving onto the next trial.</p><p>You will only have a few seconds to memorise each given photograph and phrase before you can respond, so try your best to focus.</p><p>An example is given below. Press 'Continue' when you are ready.</p><img src='img/speaking_example.jpg' style='width:800px;height:460px;''></img>",0,"html-button-response",21,214421,"0.0-4.0",60316,"ListB","man","english","EMB7",NA,NA,NA,NA,NA,NA,NA,NA,NA,NA
"2824.5","<p>Before the experiment starts, you will watch two example trials. Press 'Continue'.</p>",0,"html-button-response",22,218248,"0.0-5.0",60316,"ListB","man","english","EMB7",NA,NA,NA,NA,NA,NA,NA,NA,NA,NA
"null","<img src='img/meet.gif' style='height:400px;''></img>",NA,"html-keyboard-response",23,221250,"0.0-6.0",60316,"ListB","man","english","EMB7",NA,NA,NA,"null",NA,NA,NA,NA,NA,NA
"null","<p>is meeting</p>",NA,"html-keyboard-response",24,223252,"0.0-7.0",60316,"ListB","man","english","EMB7",NA,NA,NA,"null",NA,NA,NA,NA,NA,NA
"4062.199999809270","<p><b>Answer:</b> jane is meeting ruth</p>",0,"html-button-response",25,227315,"0.0-8.0",60316,"ListB","man","english","EMB7",NA,NA,NA,NA,NA,NA,NA,NA,NA,NA
"null","<img src='img/spy.gif' style='height:400px;''></img>",NA,"html-keyboard-response",26,230318,"0.0-9.0",60316,"ListB","man","english","EMB7",NA,NA,NA,"null",NA,NA,NA,NA,NA,NA
"null","<p>is being spied on by</p>",NA,"html-keyboard-response",27,232321,"0.0-10.0",60316,"ListB","man","english","EMB7",NA,NA,NA,"null",NA,NA,NA,NA,NA,NA
"28844.6000001431","<p><b>Answer:</b> fred is being spied on by mike</p>",0,"html-button-response",28,261166,"0.0-11.0",60316,"ListB","man","english","EMB7",NA,NA,NA,NA,NA,NA,NA,NA,NA,NA
"23289.399999857","<p>Ready to start the experiment?</p><br><p><strong>Remember to describe the picture using a full sentence,</strong></p><p><strong>that combines the names of the people with the <i>exact</i> phrase given.</strong></p><p><strong>To receive full payment you must do this correctly.</strong></p><p><strong> You do not need to capitalise names or use punctuation.</strong></p><br><p>Press 'Continue' to begin.</p>",0,"html-button-response",29,285457,"0.0-12.0",60316,"ListB","man","english","EMB7",NA,NA,NA,NA,NA,NA,NA,NA,NA,NA
"null","<div style=""font-size:60px;"">+</div>",NA,"html-keyboard-response",30,286959,"0.0-13.0-0.0",60316,"ListB","man","english","EMB7",NA,NA,NA,"null",NA,NA,NA,NA,NA,NA
"null","<img src='gifs/BlackGender3b.gif' style='height:400px;''></img>",NA,"html-keyboard-response",31,288970,"0.0-13.0-1.0",60316,"ListB","man","english","EMB7",NA,NA,NA,"null",NA,NA,NA,NA,NA,NA
"null","is looking at",NA,"html-keyboard-response",32,291972,"0.0-13.0-2.0",60316,"ListB","man","english","EMB7",NA,NA,NA,"null",NA,NA,NA,NA,NA,NA
"16673.0999999046",NA,NA,"survey-text",33,308650,"0.0-13.0-3.0",60316,"ListB","man","english","EMB7",NA,NA,NA,NA,"{""Q0"":""fred is looking at kate""}","<img src='gifs/BlackGender3b.gif' style='height:400px;''></img>","looking at","is looking at","english",NA
"null","<div style=""font-size:60px;"">+</div>",NA,"html-keyboard-response",34,309159,"0.0-13.0-0.1",60316,"ListB","man","english","EMB7",NA,NA,NA,"null",NA,NA,NA,NA,NA,NA
"null","<img src='gifs/BlackGender2b.gif' style='height:400px;''></img>",NA,"html-keyboard-response",35,311161,"0.0-13.0-1.1",60316,"ListB","man","english","EMB7",NA,NA,NA,"null",NA,NA,NA,NA,NA,NA
"null","is contacting",NA,"html-keyboard-response",36,314164,"0.0-13.0-2.1",60316,"ListB","man","english","EMB7",NA,NA,NA,"null",NA,NA,NA,NA,NA,NA
"34701.4000000954",NA,NA,"survey-text",37,348869,"0.0-13.0-3.1",60316,"ListB","man","english","EMB7",NA,NA,NA,NA,"{""Q0"":""mike is contacting beth""}","<img src='gifs/BlackGender2b.gif' style='height:400px;''></img>","contacting","is contacting","english",NA
"null","<div style=""font-size:60px;"">+</div>",NA,"html-keyboard-response",38,349369,"0.0-13.0-0.2",60316,"ListB","man","english","EMB7",NA,NA,NA,"null",NA,NA,NA,NA,NA,NA
"null","<img src='gifs/FemaleRace3b.gif' style='height:400px;''></img>",NA,"html-keyboard-response",39,351370,"0.0-13.0-1.2",60316,"ListB","man","english","EMB7",NA,NA,NA,"null",NA,NA,NA,NA,NA,NA
"null","is contacting",NA,"html-keyboard-response",40,354371,"0.0-13.0-2.2",60316,"ListB","man","english","EMB7",NA,NA,NA,"null",NA,NA,NA,NA,NA,NA
"20761.0999999046",NA,NA,"survey-text",41,375135,"0.0-13.0-3.2",60316,"ListB","man","english","EMB7",NA,NA,NA,NA,"{""Q0"":""beth is contacting ruth""}","<img src='gifs/FemaleRace3b.gif' style='height:400px;''></img>","contacting","is contacting","english",NA
"null","<div style=""font-size:60px;"">+</div>",NA,"html-keyboard-response",42,375636,"0.0-13.0-0.3",60316,"ListB","man","english","EMB7",NA,NA,NA,"null",NA,NA,NA,NA,NA,NA
"null","<img src='gifs/BlackGender4b.gif' style='height:400px;''></img>",NA,"html-keyboard-response",43,377646,"0.0-13.0-1.3",60316,"ListB","man","english","EMB7",NA,NA,NA,"null",NA,NA,NA,NA,NA,NA
"null","is introducing",NA,"html-keyboard-response",44,380649,"0.0-13.0-2.3",60316,"ListB","man","english","EMB7",NA,NA,NA,"null",NA,NA,NA,NA,NA,NA
"13448.9000000954",NA,NA,"survey-text",45,394100,"0.0-13.0-3.3",60316,"ListB","man","english","EMB7",NA,NA,NA,NA,"{""Q0"":""mike is introducing kate""}","<img src='gifs/BlackGender4b.gif' style='height:400px;''></img>","introducing","is introducing","english",NA
"null","<div style=""font-size:60px;"">+</div>",NA,"html-keyboard-response",46,394616,"0.0-13.0-0.4",60316,"ListB","man","english","EMB7",NA,NA,NA,"null",NA,NA,NA,NA,NA,NA
"null","<img src='gifs/ChineseGender4b.gif' style='height:400px;''></img>",NA,"html-keyboard-response",47,396619,"0.0-13.0-1.4",60316,"ListB","man","english","EMB7",NA,NA,NA,"null",NA,NA,NA,NA,NA,NA
"null","is praising",NA,"html-keyboard-response",48,399635,"0.0-13.0-2.4",60316,"ListB","man","english","EMB7",NA,NA,NA,"null",NA,NA,NA,NA,NA,NA
"24845.9000000954",NA,NA,"survey-text",49,424483,"0.0-13.0-3.4",60316,"ListB","man","english","EMB7",NA,NA,NA,NA,"{""Q0"":""dave is praising jane""}","<img src='gifs/ChineseGender4b.gif' style='height:400px;''></img>","praising","is praising","english",NA
"null","<div style=""font-size:60px;"">+</div>",NA,"html-keyboard-response",50,424983,"0.0-13.0-0.5",60316,"ListB","man","english","EMB7",NA,NA,NA,"null",NA,NA,NA,NA,NA,NA
"null","<img src='gifs/ChineseGender4a.gif' style='height:400px;''></img>",NA,"html-keyboard-response",51,426997,"0.0-13.0-1.5",60316,"ListB","man","english","EMB7",NA,NA,NA,"null",NA,NA,NA,NA,NA,NA
"null","is mentioning",NA,"html-keyboard-response",52,429998,"0.0-13.0-2.5",60316,"ListB","man","english","EMB7",NA,NA,NA,"null",NA,NA,NA,NA,NA,NA
"10737.8999998569",NA,NA,"survey-text",53,440740,"0.0-13.0-3.5",60316,"ListB","man","english","EMB7",NA,NA,NA,NA,"{""Q0"":""jane is mentioning dave""}","<img src='gifs/ChineseGender4a.gif' style='height:400px;''></img>","mention","is mentioning","english",NA
"null","<div style=""font-size:60px;"">+</div>",NA,"html-keyboard-response",54,441241,"0.0-13.0-0.6",60316,"ListB","man","english","EMB7",NA,NA,NA,"null",NA,NA,NA,NA,NA,NA
"null","<img src='gifs/BlackGender4a.gif' style='height:400px;''></img>",NA,"html-keyboard-response",55,443258,"0.0-13.0-1.6",60316,"ListB","man","english","EMB7",NA,NA,NA,"null",NA,NA,NA,NA,NA,NA
"null","is accompanying",NA,"html-keyboard-response",56,446262,"0.0-13.0-2.6",60316,"ListB","man","english","EMB7",NA,NA,NA,"null",NA,NA,NA,NA,NA,NA
"12710.2000000477",NA,NA,"survey-text",57,458976,"0.0-13.0-3.6",60316,"ListB","man","english","EMB7",NA,NA,NA,NA,"{""Q0"":""mike is accompanying kate""}","<img src='gifs/BlackGender4a.gif' style='height:400px;''></img>","accompanying","is accompanying","english",NA
"null","<div style=""font-size:60px;"">+</div>",NA,"html-keyboard-response",58,459490,"0.0-13.0-0.7",60316,"ListB","man","english","EMB7",NA,NA,NA,"null",NA,NA,NA,NA,NA,NA
"null","<img src='gifs/FemaleRace2b.gif' style='height:400px;''></img>",NA,"html-keyboard-response",59,461507,"0.0-13.0-1.7",60316,"ListB","man","english","EMB7",NA,NA,NA,"null",NA,NA,NA,NA,NA,NA
"null","is approaching",NA,"html-keyboard-response",60,464510,"0.0-13.0-2.7",60316,"ListB","man","english","EMB7",NA,NA,NA,"null",NA,NA,NA,NA,NA,NA
"10015.3000001907",NA,NA,"survey-text",61,474528,"0.0-13.0-3.7",60316,"ListB","man","english","EMB7",NA,NA,NA,NA,"{""Q0"":""kate is approaching jane""}","<img src='gifs/FemaleRace2b.gif' style='height:400px;''></img>","approaching","is approaching","english",NA
"null","<div style=""font-size:60px;"">+</div>",NA,"html-keyboard-response",62,475044,"0.0-13.0-0.8",60316,"ListB","man","english","EMB7",NA,NA,NA,"null",NA,NA,NA,NA,NA,NA
"null","<img src='gifs/FemaleRace2a.gif' style='height:400px;''></img>",NA,"html-keyboard-response",63,477060,"0.0-13.0-1.8",60316,"ListB","man","english","EMB7",NA,NA,NA,"null",NA,NA,NA,NA,NA,NA
"null","is walking towards",NA,"html-keyboard-response",64,480063,"0.0-13.0-2.8",60316,"ListB","man","english","EMB7",NA,NA,NA,"null",NA,NA,NA,NA,NA,NA
"20629.5999999046",NA,NA,"survey-text",65,500697,"0.0-13.0-3.8",60316,"ListB","man","english","EMB7",NA,NA,NA,NA,"{""Q0"":""kate is walking towards jane""}","<img src='gifs/FemaleRace2a.gif' style='height:400px;''></img>","walking towards","is walking towards","english",NA
"null","<div style=""font-size:60px;"">+</div>",NA,"html-keyboard-response",66,501202,"0.0-13.0-0.9",60316,"ListB","man","english","EMB7",NA,NA,NA,"null",NA,NA,NA,NA,NA,NA
"null","<img src='gifs/BlackGender3a.gif' style='height:400px;''></img>",NA,"html-keyboard-response",67,503206,"0.0-13.0-1.9",60316,"ListB","man","english","EMB7",NA,NA,NA,"null",NA,NA,NA,NA,NA,NA
"null","is introducing",NA,"html-keyboard-response",68,506207,"0.0-13.0-2.9",60316,"ListB","man","english","EMB7",NA,NA,NA,"null",NA,NA,NA,NA,NA,NA
"34962.2000000477",NA,NA,"survey-text",69,541171,"0.0-13.0-3.9",60316,"ListB","man","english","EMB7",NA,NA,NA,NA,"{""Q0"":""kate is introducing fred""}","<img src='gifs/BlackGender3a.gif' style='height:400px;''></img>","introducing","is introducing","english",NA
"null","<div style=""font-size:60px;"">+</div>",NA,"html-keyboard-response",70,541672,"0.0-13.0-0.10",60316,"ListB","man","english","EMB7",NA,NA,NA,"null",NA,NA,NA,NA,NA,NA
"null","<img src='gifs/MaleRace4b.gif' style='height:400px;''></img>",NA,"html-keyboard-response",71,543688,"0.0-13.0-1.10",60316,"ListB","man","english","EMB7",NA,NA,NA,"null",NA,NA,NA,NA,NA,NA
"null","is praising",NA,"html-keyboard-response",72,546690,"0.0-13.0-2.10",60316,"ListB","man","english","EMB7",NA,NA,NA,"null",NA,NA,NA,NA,NA,NA
"16951.2999999523",NA,NA,"survey-text",73,563644,"0.0-13.0-3.10",60316,"ListB","man","english","EMB7",NA,NA,NA,NA,"{""Q0"":""dave is praising mike""}","<img src='gifs/MaleRace4b.gif' style='height:400px;''></img>","praising","is praising","english",NA
"null","<div style=""font-size:60px;"">+</div>",NA,"html-keyboard-response",74,564144,"0.0-13.0-0.11",60316,"ListB","man","english","EMB7",NA,NA,NA,"null",NA,NA,NA,NA,NA,NA
"null","<img src='gifs/MaleRace2a.gif' style='height:400px;''></img>",NA,"html-keyboard-response",75,566150,"0.0-13.0-1.11",60316,"ListB","man","english","EMB7",NA,NA,NA,"null",NA,NA,NA,NA,NA,NA
"null","is looking at",NA,"html-keyboard-response",76,569151,"0.0-13.0-2.11",60316,"ListB","man","english","EMB7",NA,NA,NA,"null",NA,NA,NA,NA,NA,NA
"13394.4000000954",NA,NA,"survey-text",77,582548,"0.0-13.0-3.11",60316,"ListB","man","english","EMB7",NA,NA,NA,NA,"{""Q0"":""mike  is looking at luke""}","<img src='gifs/MaleRace2a.gif' style='height:400px;''></img>","looking at","is looking at","english",NA
"null","<div style=""font-size:60px;"">+</div>",NA,"html-keyboard-response",78,583049,"0.0-13.0-0.12",60316,"ListB","man","english","EMB7",NA,NA,NA,"null",NA,NA,NA,NA,NA,NA
"null","<img src='gifs/BlackGender1b.gif' style='height:400px;''></img>",NA,"html-keyboard-response",79,585056,"0.0-13.0-1.12",60316,"ListB","man","english","EMB7",NA,NA,NA,"null",NA,NA,NA,NA,NA,NA
"null","is accompanying",NA,"html-keyboard-response",80,588059,"0.0-13.0-2.12",60316,"ListB","man","english","EMB7",NA,NA,NA,"null",NA,NA,NA,NA,NA,NA
"11220.6000001431",NA,NA,"survey-text",81,599282,"0.0-13.0-3.12",60316,"ListB","man","english","EMB7",NA,NA,NA,NA,"{""Q0"":""fred is accompanying beth""}","<img src='gifs/BlackGender1b.gif' style='height:400px;''></img>","accompanying","is accompanying","english",NA
"null","<div style=""font-size:60px;"">+</div>",NA,"html-keyboard-response",82,599784,"0.0-13.0-0.13",60316,"ListB","man","english","EMB7",NA,NA,NA,"null",NA,NA,NA,NA,NA,NA
"null","<img src='gifs/FemaleRace3a.gif' style='height:400px;''></img>",NA,"html-keyboard-response",83,601785,"0.0-13.0-1.13",60316,"ListB","man","english","EMB7",NA,NA,NA,"null",NA,NA,NA,NA,NA,NA
"null","is promising",NA,"html-keyboard-response",84,604786,"0.0-13.0-2.13",60316,"ListB","man","english","EMB7",NA,NA,NA,"null",NA,NA,NA,NA,NA,NA
"9656.800000190740",NA,NA,"survey-text",85,614447,"0.0-13.0-3.13",60316,"ListB","man","english","EMB7",NA,NA,NA,NA,"{""Q0"":""beth is promising ruth""}","<img src='gifs/FemaleRace3a.gif' style='height:400px;''></img>","promising","is promising","english",NA
"null","<div style=""font-size:60px;"">+</div>",NA,"html-keyboard-response",86,614961,"0.0-13.0-0.14",60316,"ListB","man","english","EMB7",NA,NA,NA,"null",NA,NA,NA,NA,NA,NA
"null","<img src='gifs/FemaleRace4a.gif' style='height:400px;''></img>",NA,"html-keyboard-response",87,616977,"0.0-13.0-1.14",60316,"ListB","man","english","EMB7",NA,NA,NA,"null",NA,NA,NA,NA,NA,NA
"null","is employing",NA,"html-keyboard-response",88,619979,"0.0-13.0-2.14",60316,"ListB","man","english","EMB7",NA,NA,NA,"null",NA,NA,NA,NA,NA,NA
"9941.800000190740",NA,NA,"survey-text",89,629924,"0.0-13.0-3.14",60316,"ListB","man","english","EMB7",NA,NA,NA,NA,"{""Q0"":""kate is employing ruth""}","<img src='gifs/FemaleRace4a.gif' style='height:400px;''></img>","employing","is employing","english",NA
"null","<div style=""font-size:60px;"">+</div>",NA,"html-keyboard-response",90,630436,"0.0-13.0-0.15",60316,"ListB","man","english","EMB7",NA,NA,NA,"null",NA,NA,NA,NA,NA,NA
"null","<img src='gifs/MaleRace3a.gif' style='height:400px;''></img>",NA,"html-keyboard-response",91,632454,"0.0-13.0-1.15",60316,"ListB","man","english","EMB7",NA,NA,NA,"null",NA,NA,NA,NA,NA,NA
"null","is touching",NA,"html-keyboard-response",92,635456,"0.0-13.0-2.15",60316,"ListB","man","english","EMB7",NA,NA,NA,"null",NA,NA,NA,NA,NA,NA
"8035.900000095370",NA,NA,"survey-text",93,643494,"0.0-13.0-3.15",60316,"ListB","man","english","EMB7",NA,NA,NA,NA,"{""Q0"":""fred is touching dave""}","<img src='gifs/MaleRace3a.gif' style='height:400px;''></img>","touching","is touching","english",NA
"null","<div style=""font-size:60px;"">+</div>",NA,"html-keyboard-response",94,644003,"0.0-13.0-0.16",60316,"ListB","man","english","EMB7",NA,NA,NA,"null",NA,NA,NA,NA,NA,NA
"null","<img src='gifs/ChineseGender2b.gif' style='height:400px;''></img>",NA,"html-keyboard-response",95,646021,"0.0-13.0-1.16",60316,"ListB","man","english","EMB7",NA,NA,NA,"null",NA,NA,NA,NA,NA,NA
"null","is mentioning",NA,"html-keyboard-response",96,649038,"0.0-13.0-2.16",60316,"ListB","man","english","EMB7",NA,NA,NA,"null",NA,NA,NA,NA,NA,NA
"23807.899999857",NA,NA,"survey-text",97,672848,"0.0-13.0-3.16",60316,"ListB","man","english","EMB7",NA,NA,NA,NA,"{""Q0"":""luke is mentioning ruth""}","<img src='gifs/ChineseGender2b.gif' style='height:400px;''></img>","mention","is mentioning","english",NA
"null","<div style=""font-size:60px;"">+</div>",NA,"html-keyboard-response",98,673363,"0.0-13.0-0.17",60316,"ListB","man","english","EMB7",NA,NA,NA,"null",NA,NA,NA,NA,NA,NA
"null","<img src='gifs/MaleRace2b.gif' style='height:400px;''></img>",NA,"html-keyboard-response",99,675380,"0.0-13.0-1.17",60316,"ListB","man","english","EMB7",NA,NA,NA,"null",NA,NA,NA,NA,NA,NA
"null","is convincing",NA,"html-keyboard-response",100,678382,"0.0-13.0-2.17",60316,"ListB","man","english","EMB7",NA,NA,NA,"null",NA,NA,NA,NA,NA,NA
"11687.2999999523",NA,NA,"survey-text",101,690070,"0.0-13.0-3.17",60316,"ListB","man","english","EMB7",NA,NA,NA,NA,"{""Q0"":""mike is convincing  luke""}","<img src='gifs/MaleRace2b.gif' style='height:400px;''></img>","convincing","is convincing","english",NA
"21586.6000001431","<img src='img/portrait_matrix_listB.jpg' style='width:900px;height:500px;''></img><p>If you have memorised all the portraits and names and are ready to start, press Continue.</p><p><strong>Please note: Your memory of these faces will be tested 5 times during this experiment.</strong></p>",0,"html-button-response",102,711658,"0.0-14.0-0.0",60316,"ListB","man","english","EMB7",NA,NA,NA,NA,NA,NA,NA,NA,NA,NA
"3640","<img src=""portrait/BM1.jpg""style=""height:400px;""></img>",4,"html-button-response",103,716310,"0.0-14.0-1.0",60316,"ListB","man","english","EMB7",NA,TRUE,4,NA,NA,NA,NA,NA,NA,NA
"null","CORRECT",NA,"html-keyboard-response",104,717815,"0.0-14.0-2.0-0.0",60316,"ListB","man","english","EMB7",NA,NA,NA,"null",NA,NA,NA,NA,NA,NA
"13764.5999999046","<img src=""portrait/WW1.jpg""style=""height:400px;""></img>",1,"html-button-response",105,731581,"0.0-14.0-4.0",60316,"ListB","man","english","EMB7",NA,TRUE,1,NA,NA,NA,NA,NA,NA,NA
"null","CORRECT",NA,"html-keyboard-response",106,733083,"0.0-14.0-5.0-0.0",60316,"ListB","man","english","EMB7",NA,NA,NA,"null",NA,NA,NA,NA,NA,NA
"1693.700000047680","<img src=""portrait/WM2.jpg""style=""height:400px;""></img>",7,"html-button-response",107,734779,"0.0-14.0-7.0",60316,"ListB","man","english","EMB7",NA,TRUE,7,NA,NA,NA,NA,NA,NA,NA
"null","CORRECT",NA,"html-keyboard-response",108,736291,"0.0-14.0-8.0-0.0",60316,"ListB","man","english","EMB7",NA,NA,NA,"null",NA,NA,NA,NA,NA,NA
"20559.899999857","<img src=""portrait/BW1.jpg""style=""height:400px;""></img>",0,"html-button-response",109,756852,"0.0-14.0-10.0",60316,"ListB","man","english","EMB7",NA,TRUE,0,NA,NA,NA,NA,NA,NA,NA
"null","CORRECT",NA,"html-keyboard-response",110,758357,"0.0-14.0-11.0-0.0",60316,"ListB","man","english","EMB7",NA,NA,NA,"null",NA,NA,NA,NA,NA,NA
"2258.899999856950","<img src=""portrait/WW2.jpg""style=""height:400px;""></img>",3,"html-button-response",111,760618,"0.0-14.0-13.0",60316,"ListB","man","english","EMB7",NA,TRUE,3,NA,NA,NA,NA,NA,NA,NA
"null","CORRECT",NA,"html-keyboard-response",112,762129,"0.0-14.0-14.0-0.0",60316,"ListB","man","english","EMB7",NA,NA,NA,"null",NA,NA,NA,NA,NA,NA
"4935.700000047680","<img src=""portrait/BW2.jpg""style=""height:400px;""></img>",2,"html-button-response",113,767067,"0.0-14.0-16.0",60316,"ListB","man","english","EMB7",NA,TRUE,2,NA,NA,NA,NA,NA,NA,NA
"null","CORRECT",NA,"html-keyboard-response",114,768569,"0.0-14.0-17.0-0.0",60316,"ListB","man","english","EMB7",NA,NA,NA,"null",NA,NA,NA,NA,NA,NA
"1100.200000047680","<img src=""portrait/BM2.jpg""style=""height:400px;""></img>",5,"html-button-response",115,769672,"0.0-14.0-19.0",60316,"ListB","man","english","EMB7",NA,TRUE,5,NA,NA,NA,NA,NA,NA,NA
"null","CORRECT",NA,"html-keyboard-response",116,771173,"0.0-14.0-20.0-0.0",60316,"ListB","man","english","EMB7",NA,NA,NA,"null",NA,NA,NA,NA,NA,NA
"1249.200000047680","<img src=""portrait/WM1.jpg""style=""height:400px;""></img>",6,"html-button-response",117,772423,"0.0-14.0-22.0",60316,"ListB","man","english","EMB7",NA,TRUE,6,NA,NA,NA,NA,NA,NA,NA
"null","CORRECT",NA,"html-keyboard-response",118,773940,"0.0-14.0-23.0-0.0",60316,"ListB","man","english","EMB7",NA,NA,NA,"null",NA,NA,NA,NA,NA,NA
"1460.799999952320","<p>You got 8 out of 8 right first time. Press Continue.</p>",0,"html-button-response",119,775403,"0.0-14.0-25.0",60316,"ListB","man","english","EMB7",NA,NA,NA,NA,NA,NA,NA,NA,NA,NA
"null","<div style=""font-size:60px;"">+</div>",NA,"html-keyboard-response",120,776911,"0.0-15.0-0.0",60316,"ListB","man","english","EMB7",NA,NA,NA,"null",NA,NA,NA,NA,NA,NA
"null","<img src='gifs/FemaleRace1b.gif' style='height:400px;''></img>",NA,"html-keyboard-response",121,778912,"0.0-15.0-1.0",60316,"ListB","man","english","EMB7",NA,NA,NA,"null",NA,NA,NA,NA,NA,NA
"null","is touching",NA,"html-keyboard-response",122,781914,"0.0-15.0-2.0",60316,"ListB","man","english","EMB7",NA,NA,NA,"null",NA,NA,NA,NA,NA,NA
"12558.3000001907",NA,NA,"survey-text",123,794473,"0.0-15.0-3.0",60316,"ListB","man","english","EMB7",NA,NA,NA,NA,"{""Q0"":""jane is touching beth""}","<img src='gifs/FemaleRace1b.gif' style='height:400px;''></img>","touching","is touching","english",NA
"null","<div style=""font-size:60px;"">+</div>",NA,"html-keyboard-response",124,794986,"0.0-15.0-0.1",60316,"ListB","man","english","EMB7",NA,NA,NA,"null",NA,NA,NA,NA,NA,NA
"null","<img src='gifs/ChineseGender3b.gif' style='height:400px;''></img>",NA,"html-keyboard-response",125,796988,"0.0-15.0-1.1",60316,"ListB","man","english","EMB7",NA,NA,NA,"null",NA,NA,NA,NA,NA,NA
"null","is joining",NA,"html-keyboard-response",126,799990,"0.0-15.0-2.1",60316,"ListB","man","english","EMB7",NA,NA,NA,"null",NA,NA,NA,NA,NA,NA
"21503.1999998093",NA,NA,"survey-text",127,821497,"0.0-15.0-3.1",60316,"ListB","man","english","EMB7",NA,NA,NA,NA,"{""Q0"":""ruth is joining dave""}","<img src='gifs/ChineseGender3b.gif' style='height:400px;''></img>","join","is joining","english",NA
"null","<div style=""font-size:60px;"">+</div>",NA,"html-keyboard-response",128,821997,"0.0-15.0-0.2",60316,"ListB","man","english","EMB7",NA,NA,NA,"null",NA,NA,NA,NA,NA,NA
"null","<img src='gifs/ChineseGender2b.gif' style='height:400px;''></img>",NA,"html-keyboard-response",129,823999,"0.0-15.0-1.2",60316,"ListB","man","english","EMB7",NA,NA,NA,"null",NA,NA,NA,NA,NA,NA
"null","is introducing",NA,"html-keyboard-response",130,827000,"0.0-15.0-2.2",60316,"ListB","man","english","EMB7",NA,NA,NA,"null",NA,NA,NA,NA,NA,NA
"16763.2999999523",NA,NA,"survey-text",131,843764,"0.0-15.0-3.2",60316,"ListB","man","english","EMB7",NA,NA,NA,NA,"{""Q0"":""ruth is introducing luke""}","<img src='gifs/ChineseGender2b.gif' style='height:400px;''></img>","introducing","is introducing","english",NA
"null","<div style=""font-size:60px;"">+</div>",NA,"html-keyboard-response",132,844276,"0.0-15.0-0.3",60316,"ListB","man","english","EMB7",NA,NA,NA,"null",NA,NA,NA,NA,NA,NA
"null","<img src='gifs/ChineseGender2a.gif' style='height:400px;''></img>",NA,"html-keyboard-response",133,846293,"0.0-15.0-1.3",60316,"ListB","man","english","EMB7",NA,NA,NA,"null",NA,NA,NA,NA,NA,NA
"null","is accompanying",NA,"html-keyboard-response",134,849295,"0.0-15.0-2.3",60316,"ListB","man","english","EMB7",NA,NA,NA,"null",NA,NA,NA,NA,NA,NA
"28049",NA,NA,"survey-text",135,877345,"0.0-15.0-3.3",60316,"ListB","man","english","EMB7",NA,NA,NA,NA,"{""Q0"":""ruth is accompanying luke""}","<img src='gifs/ChineseGender2a.gif' style='height:400px;''></img>","accompanying","is accompanying","english",NA
"null","<div style=""font-size:60px;"">+</div>",NA,"html-keyboard-response",136,877859,"0.0-15.0-0.4",60316,"ListB","man","english","EMB7",NA,NA,NA,"null",NA,NA,NA,NA,NA,NA
"null","<img src='gifs/FemaleRace1a.gif' style='height:400px;''></img>",NA,"html-keyboard-response",137,879876,"0.0-15.0-1.4",60316,"ListB","man","english","EMB7",NA,NA,NA,"null",NA,NA,NA,NA,NA,NA
"null","is convincing",NA,"html-keyboard-response",138,882877,"0.0-15.0-2.4",60316,"ListB","man","english","EMB7",NA,NA,NA,"null",NA,NA,NA,NA,NA,NA
"8989.299999952320",NA,NA,"survey-text",139,891869,"0.0-15.0-3.4",60316,"ListB","man","english","EMB7",NA,NA,NA,NA,"{""Q0"":""jane is convincing beth""}","<img src='gifs/FemaleRace1a.gif' style='height:400px;''></img>","convincing","is convincing","english",NA
"null","<div style=""font-size:60px;"">+</div>",NA,"html-keyboard-response",140,892370,"0.0-15.0-0.5",60316,"ListB","man","english","EMB7",NA,NA,NA,"null",NA,NA,NA,NA,NA,NA
"null","<img src='gifs/FemaleRace1a.gif' style='height:400px;''></img>",NA,"html-keyboard-response",141,894384,"0.0-15.0-1.5",60316,"ListB","man","english","EMB7",NA,NA,NA,"null",NA,NA,NA,NA,NA,NA
"null","is contacting",NA,"html-keyboard-response",142,897386,"0.0-15.0-2.5",60316,"ListB","man","english","EMB7",NA,NA,NA,"null",NA,NA,NA,NA,NA,NA
"9447.399999856951",NA,NA,"survey-text",143,906836,"0.0-15.0-3.5",60316,"ListB","man","english","EMB7",NA,NA,NA,NA,"{""Q0"":""beth is contacting jane""}","<img src='gifs/FemaleRace1a.gif' style='height:400px;''></img>","contacting","is contacting","english",NA
"null","<div style=""font-size:60px;"">+</div>",NA,"html-keyboard-response",144,907336,"0.0-15.0-0.6",60316,"ListB","man","english","EMB7",NA,NA,NA,"null",NA,NA,NA,NA,NA,NA
"null","<img src='gifs/FemaleRace2a.gif' style='height:400px;''></img>",NA,"html-keyboard-response",145,909351,"0.0-15.0-1.6",60316,"ListB","man","english","EMB7",NA,NA,NA,"null",NA,NA,NA,NA,NA,NA
"null","is looking at",NA,"html-keyboard-response",146,912353,"0.0-15.0-2.6",60316,"ListB","man","english","EMB7",NA,NA,NA,"null",NA,NA,NA,NA,NA,NA
"14918.5999999046",NA,NA,"survey-text",147,927274,"0.0-15.0-3.6",60316,"ListB","man","english","EMB7",NA,NA,NA,NA,"{""Q0"":""jane is looking at kate""}","<img src='gifs/FemaleRace2a.gif' style='height:400px;''></img>","looking at","is looking at","english",NA
"null","<div style=""font-size:60px;"">+</div>",NA,"html-keyboard-response",148,927780,"0.0-15.0-0.7",60316,"ListB","man","english","EMB7",NA,NA,NA,"null",NA,NA,NA,NA,NA,NA
"null","<img src='gifs/BlackGender4b.gif' style='height:400px;''></img>",NA,"html-keyboard-response",149,929782,"0.0-15.0-1.7",60316,"ListB","man","english","EMB7",NA,NA,NA,"null",NA,NA,NA,NA,NA,NA
"null","is touching",NA,"html-keyboard-response",150,932783,"0.0-15.0-2.7",60316,"ListB","man","english","EMB7",NA,NA,NA,"null",NA,NA,NA,NA,NA,NA
"7744.200000047680",NA,NA,"survey-text",151,940529,"0.0-15.0-3.7",60316,"ListB","man","english","EMB7",NA,NA,NA,NA,"{""Q0"":""mike is touching kate""}","<img src='gifs/BlackGender4b.gif' style='height:400px;''></img>","touching","is touching","english",NA
"null","<div style=""font-size:60px;"">+</div>",NA,"html-keyboard-response",152,941030,"0.0-15.0-0.8",60316,"ListB","man","english","EMB7",NA,NA,NA,"null",NA,NA,NA,NA,NA,NA
"null","<img src='gifs/FemaleRace4b.gif' style='height:400px;''></img>",NA,"html-keyboard-response",153,943036,"0.0-15.0-1.8",60316,"ListB","man","english","EMB7",NA,NA,NA,"null",NA,NA,NA,NA,NA,NA
"null","is facing",NA,"html-keyboard-response",154,946039,"0.0-15.0-2.8",60316,"ListB","man","english","EMB7",NA,NA,NA,"null",NA,NA,NA,NA,NA,NA
"7977.299999952320",NA,NA,"survey-text",155,954019,"0.0-15.0-3.8",60316,"ListB","man","english","EMB7",NA,NA,NA,NA,"{""Q0"":""kate is facing ruth""}","<img src='gifs/FemaleRace4b.gif' style='height:400px;''></img>","facing","is facing","english",NA
"null","<div style=""font-size:60px;"">+</div>",NA,"html-keyboard-response",156,954525,"0.0-15.0-0.9",60316,"ListB","man","english","EMB7",NA,NA,NA,"null",NA,NA,NA,NA,NA,NA
"null","<img src='gifs/ChineseGender1a.gif' style='height:400px;''></img>",NA,"html-keyboard-response",157,956542,"0.0-15.0-1.9",60316,"ListB","man","english","EMB7",NA,NA,NA,"null",NA,NA,NA,NA,NA,NA
"null","is joining",NA,"html-keyboard-response",158,959558,"0.0-15.0-2.9",60316,"ListB","man","english","EMB7",NA,NA,NA,"null",NA,NA,NA,NA,NA,NA
"25719.2000000477",NA,NA,"survey-text",159,985281,"0.0-15.0-3.9",60316,"ListB","man","english","EMB7",NA,NA,NA,NA,"{""Q0"":""luke  is joining jane""}","<img src='gifs/ChineseGender1a.gif' style='height:400px;''></img>","join","is joining","english",NA
"null","<div style=""font-size:60px;"">+</div>",NA,"html-keyboard-response",160,985793,"0.0-15.0-0.10",60316,"ListB","man","english","EMB7",NA,NA,NA,"null",NA,NA,NA,NA,NA,NA
"null","<img src='gifs/FemaleRace1b.gif' style='height:400px;''></img>",NA,"html-keyboard-response",161,987810,"0.0-15.0-1.10",60316,"ListB","man","english","EMB7",NA,NA,NA,"null",NA,NA,NA,NA,NA,NA
"null","is walking towards",NA,"html-keyboard-response",162,990811,"0.0-15.0-2.10",60316,"ListB","man","english","EMB7",NA,NA,NA,"null",NA,NA,NA,NA,NA,NA
"17494.5",NA,NA,"survey-text",163,1008307,"0.0-15.0-3.10",60316,"ListB","man","english","EMB7",NA,NA,NA,NA,"{""Q0"":""jane is walking towards beth""}","<img src='gifs/FemaleRace1b.gif' style='height:400px;''></img>","walking towards","is walking towards","english",NA
"null","<div style=""font-size:60px;"">+</div>",NA,"html-keyboard-response",164,1008811,"0.0-15.0-0.11",60316,"ListB","man","english","EMB7",NA,NA,NA,"null",NA,NA,NA,NA,NA,NA
"null","<img src='gifs/MaleRace4a.gif' style='height:400px;''></img>",NA,"html-keyboard-response",165,1010829,"0.0-15.0-1.11",60316,"ListB","man","english","EMB7",NA,NA,NA,"null",NA,NA,NA,NA,NA,NA
"null","is listening to",NA,"html-keyboard-response",166,1013829,"0.0-15.0-2.11",60316,"ListB","man","english","EMB7",NA,NA,NA,"null",NA,NA,NA,NA,NA,NA
"27191.899999857",NA,NA,"survey-text",167,1041023,"0.0-15.0-3.11",60316,"ListB","man","english","EMB7",NA,NA,NA,NA,"{""Q0"":""mike is listening to dave""}","<img src='gifs/MaleRace4a.gif' style='height:400px;''></img>","listening to","is listening to","english",NA
"null","<div style=""font-size:60px;"">+</div>",NA,"html-keyboard-response",168,1041524,"0.0-15.0-0.12",60316,"ListB","man","english","EMB7",NA,NA,NA,"null",NA,NA,NA,NA,NA,NA
"null","<img src='gifs/MaleRace4b.gif' style='height:400px;''></img>",NA,"html-keyboard-response",169,1043527,"0.0-15.0-1.12",60316,"ListB","man","english","EMB7",NA,NA,NA,"null",NA,NA,NA,NA,NA,NA
"null","is joining",NA,"html-keyboard-response",170,1046528,"0.0-15.0-2.12",60316,"ListB","man","english","EMB7",NA,NA,NA,"null",NA,NA,NA,NA,NA,NA
"20222.9000000954",NA,NA,"survey-text",171,1066754,"0.0-15.0-3.12",60316,"ListB","man","english","EMB7",NA,NA,NA,NA,"{""Q0"":""dave is joining mike""}","<img src='gifs/MaleRace4b.gif' style='height:400px;''></img>","join","is joining","english",NA
"null","<div style=""font-size:60px;"">+</div>",NA,"html-keyboard-response",172,1067268,"0.0-15.0-0.13",60316,"ListB","man","english","EMB7",NA,NA,NA,"null",NA,NA,NA,NA,NA,NA
"null","<img src='gifs/MaleRace1a.gif' style='height:400px;''></img>",NA,"html-keyboard-response",173,1069270,"0.0-15.0-1.13",60316,"ListB","man","english","EMB7",NA,NA,NA,"null",NA,NA,NA,NA,NA,NA
"null","is looking at",NA,"html-keyboard-response",174,1072272,"0.0-15.0-2.13",60316,"ListB","man","english","EMB7",NA,NA,NA,"null",NA,NA,NA,NA,NA,NA
"14497.7000000477",NA,NA,"survey-text",175,1086771,"0.0-15.0-3.13",60316,"ListB","man","english","EMB7",NA,NA,NA,NA,"{""Q0"":""fred is looking at luke""}","<img src='gifs/MaleRace1a.gif' style='height:400px;''></img>","looking at","is looking at","english",NA
"null","<div style=""font-size:60px;"">+</div>",NA,"html-keyboard-response",176,1087285,"0.0-15.0-0.14",60316,"ListB","man","english","EMB7",NA,NA,NA,"null",NA,NA,NA,NA,NA,NA
"null","<img src='gifs/ChineseGender4a.gif' style='height:400px;''></img>",NA,"html-keyboard-response",177,1089302,"0.0-15.0-1.14",60316,"ListB","man","english","EMB7",NA,NA,NA,"null",NA,NA,NA,NA,NA,NA
"null","is approaching",NA,"html-keyboard-response",178,1092306,"0.0-15.0-2.14",60316,"ListB","man","english","EMB7",NA,NA,NA,"null",NA,NA,NA,NA,NA,NA
"12758",NA,NA,"survey-text",179,1105067,"0.0-15.0-3.14",60316,"ListB","man","english","EMB7",NA,NA,NA,NA,"{""Q0"":""jane is approaching dave""}","<img src='gifs/ChineseGender4a.gif' style='height:400px;''></img>","approaching","is approaching","english",NA
"null","<div style=""font-size:60px;"">+</div>",NA,"html-keyboard-response",180,1105568,"0.0-15.0-0.15",60316,"ListB","man","english","EMB7",NA,NA,NA,"null",NA,NA,NA,NA,NA,NA
"null","<img src='gifs/MaleRace3b.gif' style='height:400px;''></img>",NA,"html-keyboard-response",181,1107570,"0.0-15.0-1.15",60316,"ListB","man","english","EMB7",NA,NA,NA,"null",NA,NA,NA,NA,NA,NA
"null","is approaching",NA,"html-keyboard-response",182,1110585,"0.0-15.0-2.15",60316,"ListB","man","english","EMB7",NA,NA,NA,"null",NA,NA,NA,NA,NA,NA
"17859.7000000477",NA,NA,"survey-text",183,1128447,"0.0-15.0-3.15",60316,"ListB","man","english","EMB7",NA,NA,NA,NA,"{""Q0"":""fred is approaching dave""}","<img src='gifs/MaleRace3b.gif' style='height:400px;''></img>","approaching","is approaching","english",NA
"null","<div style=""font-size:60px;"">+</div>",NA,"html-keyboard-response",184,1128950,"0.0-15.0-0.16",60316,"ListB","man","english","EMB7",NA,NA,NA,"null",NA,NA,NA,NA,NA,NA
"null","<img src='gifs/ChineseGender4b.gif' style='height:400px;''></img>",NA,"html-keyboard-response",185,1130955,"0.0-15.0-1.16",60316,"ListB","man","english","EMB7",NA,NA,NA,"null",NA,NA,NA,NA,NA,NA
"null","is facing",NA,"html-keyboard-response",186,1133961,"0.0-15.0-2.16",60316,"ListB","man","english","EMB7",NA,NA,NA,"null",NA,NA,NA,NA,NA,NA
"8037.700000047680",NA,NA,"survey-text",187,1142002,"0.0-15.0-3.16",60316,"ListB","man","english","EMB7",NA,NA,NA,NA,"{""Q0"":""dave is facing jane""}","<img src='gifs/ChineseGender4b.gif' style='height:400px;''></img>","facing","is facing","english",NA
"null","<div style=""font-size:60px;"">+</div>",NA,"html-keyboard-response",188,1142507,"0.0-15.0-0.17",60316,"ListB","man","english","EMB7",NA,NA,NA,"null",NA,NA,NA,NA,NA,NA
"null","<img src='gifs/BlackGender1a.gif' style='height:400px;''></img>",NA,"html-keyboard-response",189,1144511,"0.0-15.0-1.17",60316,"ListB","man","english","EMB7",NA,NA,NA,"null",NA,NA,NA,NA,NA,NA
"null","is convincing",NA,"html-keyboard-response",190,1147513,"0.0-15.0-2.17",60316,"ListB","man","english","EMB7",NA,NA,NA,"null",NA,NA,NA,NA,NA,NA
"14678.8999998569",NA,NA,"survey-text",191,1162194,"0.0-15.0-3.17",60316,"ListB","man","english","EMB7",NA,NA,NA,NA,"{""Q0"":""fred is convincing beth""}","<img src='gifs/BlackGender1a.gif' style='height:400px;''></img>","convincing","is convincing","english",NA
"14286.3000001907","<img src='img/portrait_matrix_listB.jpg' style='width:900px;height:500px;''></img><p>If you have memorised all the portraits and names and are ready to start, press Continue.</p><p><strong>Please note: Your memory of these faces will be tested 5 times during this experiment.</strong></p>",0,"html-button-response",192,1176481,"0.0-16.0-0.0",60316,"ListB","man","english","EMB7",NA,NA,NA,NA,NA,NA,NA,NA,NA,NA
"6063.900000095370","<img src=""portrait/BW1.jpg""style=""height:400px;""></img>",0,"html-button-response",193,1183550,"0.0-16.0-1.0",60316,"ListB","man","english","EMB7",NA,TRUE,0,NA,NA,NA,NA,NA,NA,NA
"null","CORRECT",NA,"html-keyboard-response",194,1185055,"0.0-16.0-2.0-0.0",60316,"ListB","man","english","EMB7",NA,NA,NA,"null",NA,NA,NA,NA,NA,NA
"2559.400000095370","<img src=""portrait/BW2.jpg""style=""height:400px;""></img>",2,"html-button-response",195,1187616,"0.0-16.0-4.0",60316,"ListB","man","english","EMB7",NA,TRUE,2,NA,NA,NA,NA,NA,NA,NA
"null","CORRECT",NA,"html-keyboard-response",196,1189134,"0.0-16.0-5.0-0.0",60316,"ListB","man","english","EMB7",NA,NA,NA,"null",NA,NA,NA,NA,NA,NA
"1432","<img src=""portrait/WM2.jpg""style=""height:400px;""></img>",7,"html-button-response",197,1190568,"0.0-16.0-7.0",60316,"ListB","man","english","EMB7",NA,TRUE,7,NA,NA,NA,NA,NA,NA,NA
"null","CORRECT",NA,"html-keyboard-response",198,1192071,"0.0-16.0-8.0-0.0",60316,"ListB","man","english","EMB7",NA,NA,NA,"null",NA,NA,NA,NA,NA,NA
"1459.799999952320","<img src=""portrait/BM1.jpg""style=""height:400px;""></img>",4,"html-button-response",199,1193532,"0.0-16.0-10.0",60316,"ListB","man","english","EMB7",NA,TRUE,4,NA,NA,NA,NA,NA,NA,NA
"null","CORRECT",NA,"html-keyboard-response",200,1195035,"0.0-16.0-11.0-0.0",60316,"ListB","man","english","EMB7",NA,NA,NA,"null",NA,NA,NA,NA,NA,NA
"1243.900000095370","<img src=""portrait/BM2.jpg""style=""height:400px;""></img>",5,"html-button-response",201,1196280,"0.0-16.0-13.0",60316,"ListB","man","english","EMB7",NA,TRUE,5,NA,NA,NA,NA,NA,NA,NA
"null","CORRECT",NA,"html-keyboard-response",202,1197783,"0.0-16.0-14.0-0.0",60316,"ListB","man","english","EMB7",NA,NA,NA,"null",NA,NA,NA,NA,NA,NA
"6858.800000190740","<img src=""portrait/WW1.jpg""style=""height:400px;""></img>",1,"html-button-response",203,1204644,"0.0-16.0-16.0",60316,"ListB","man","english","EMB7",NA,TRUE,1,NA,NA,NA,NA,NA,NA,NA
"null","CORRECT",NA,"html-keyboard-response",204,1206147,"0.0-16.0-17.0-0.0",60316,"ListB","man","english","EMB7",NA,NA,NA,"null",NA,NA,NA,NA,NA,NA
"2397.600000143050","<img src=""portrait/WM1.jpg""style=""height:400px;""></img>",6,"html-button-response",205,1208546,"0.0-16.0-19.0",60316,"ListB","man","english","EMB7",NA,TRUE,6,NA,NA,NA,NA,NA,NA,NA
"null","CORRECT",NA,"html-keyboard-response",206,1210059,"0.0-16.0-20.0-0.0",60316,"ListB","man","english","EMB7",NA,NA,NA,"null",NA,NA,NA,NA,NA,NA
"1599.799999952320","<img src=""portrait/WW2.jpg""style=""height:400px;""></img>",3,"html-button-response",207,1211661,"0.0-16.0-22.0",60316,"ListB","man","english","EMB7",NA,TRUE,3,NA,NA,NA,NA,NA,NA,NA
"null","CORRECT",NA,"html-keyboard-response",208,1213164,"0.0-16.0-23.0-0.0",60316,"ListB","man","english","EMB7",NA,NA,NA,"null",NA,NA,NA,NA,NA,NA
"876.7999999523161","<p>You got 8 out of 8 right first time. Press Continue.</p>",0,"html-button-response",209,1214043,"0.0-16.0-25.0",60316,"ListB","man","english","EMB7",NA,NA,NA,NA,NA,NA,NA,NA,NA,NA
"null","<div style=""font-size:60px;"">+</div>",NA,"html-keyboard-response",210,1215549,"0.0-17.0-0.0",60316,"ListB","man","english","EMB7",NA,NA,NA,"null",NA,NA,NA,NA,NA,NA
"null","<img src='gifs/FemaleRace4b.gif' style='height:400px;''></img>",NA,"html-keyboard-response",211,1217551,"0.0-17.0-1.0",60316,"ListB","man","english","EMB7",NA,NA,NA,"null",NA,NA,NA,NA,NA,NA
"null","is praising",NA,"html-keyboard-response",212,1220558,"0.0-17.0-2.0",60316,"ListB","man","english","EMB7",NA,NA,NA,"null",NA,NA,NA,NA,NA,NA
"41987.6999998093",NA,NA,"survey-text",213,1262550,"0.0-17.0-3.0",60316,"ListB","man","english","EMB7",NA,NA,NA,NA,"{""Q0"":""ruth is praising kate""}","<img src='gifs/FemaleRace4b.gif' style='height:400px;''></img>","praising","is praising","english",NA
"null","<div style=""font-size:60px;"">+</div>",NA,"html-keyboard-response",214,1263050,"0.0-17.0-0.1",60316,"ListB","man","english","EMB7",NA,NA,NA,"null",NA,NA,NA,NA,NA,NA
"null","<img src='gifs/ChineseGender3b.gif' style='height:400px;''></img>",NA,"html-keyboard-response",215,1265054,"0.0-17.0-1.1",60316,"ListB","man","english","EMB7",NA,NA,NA,"null",NA,NA,NA,NA,NA,NA
"null","is approaching",NA,"html-keyboard-response",216,1268055,"0.0-17.0-2.1",60316,"ListB","man","english","EMB7",NA,NA,NA,"null",NA,NA,NA,NA,NA,NA
"12399.3999998569",NA,NA,"survey-text",217,1280456,"0.0-17.0-3.1",60316,"ListB","man","english","EMB7",NA,NA,NA,NA,"{""Q0"":""ruth is approaching dave""}","<img src='gifs/ChineseGender3b.gif' style='height:400px;''></img>","approaching","is approaching","english",NA
"null","<div style=""font-size:60px;"">+</div>",NA,"html-keyboard-response",218,1280968,"0.0-17.0-0.2",60316,"ListB","man","english","EMB7",NA,NA,NA,"null",NA,NA,NA,NA,NA,NA
"null","<img src='gifs/MaleRace3a.gif' style='height:400px;''></img>",NA,"html-keyboard-response",219,1282985,"0.0-17.0-1.2",60316,"ListB","man","english","EMB7",NA,NA,NA,"null",NA,NA,NA,NA,NA,NA
"null","is promising",NA,"html-keyboard-response",220,1285987,"0.0-17.0-2.2",60316,"ListB","man","english","EMB7",NA,NA,NA,"null",NA,NA,NA,NA,NA,NA
"5975.399999856950",NA,NA,"survey-text",221,1291965,"0.0-17.0-3.2",60316,"ListB","man","english","EMB7",NA,NA,NA,NA,"{""Q0"":""fred is promising dave""}","<img src='gifs/MaleRace3a.gif' style='height:400px;''></img>","promising","is promising","english",NA
"null","<div style=""font-size:60px;"">+</div>",NA,"html-keyboard-response",222,1292471,"0.0-17.0-0.3",60316,"ListB","man","english","EMB7",NA,NA,NA,"null",NA,NA,NA,NA,NA,NA
"null","<img src='gifs/FemaleRace3a.gif' style='height:400px;''></img>",NA,"html-keyboard-response",223,1294473,"0.0-17.0-1.3",60316,"ListB","man","english","EMB7",NA,NA,NA,"null",NA,NA,NA,NA,NA,NA
"null","is listening to",NA,"html-keyboard-response",224,1297475,"0.0-17.0-2.3",60316,"ListB","man","english","EMB7",NA,NA,NA,"null",NA,NA,NA,NA,NA,NA
"11327.3999998569",NA,NA,"survey-text",225,1308807,"0.0-17.0-3.3",60316,"ListB","man","english","EMB7",NA,NA,NA,NA,"{""Q0"":""ruth is listening to beth""}","<img src='gifs/FemaleRace3a.gif' style='height:400px;''></img>","listening to","is listening to","english",NA
"null","<div style=""font-size:60px;"">+</div>",NA,"html-keyboard-response",226,1309308,"0.0-17.0-0.4",60316,"ListB","man","english","EMB7",NA,NA,NA,"null",NA,NA,NA,NA,NA,NA
"null","<img src='gifs/ChineseGender1a.gif' style='height:400px;''></img>",NA,"html-keyboard-response",227,1311312,"0.0-17.0-1.4",60316,"ListB","man","english","EMB7",NA,NA,NA,"null",NA,NA,NA,NA,NA,NA
"null","is convincing",NA,"html-keyboard-response",228,1314314,"0.0-17.0-2.4",60316,"ListB","man","english","EMB7",NA,NA,NA,"null",NA,NA,NA,NA,NA,NA
"16414.5",NA,NA,"survey-text",229,1330731,"0.0-17.0-3.4",60316,"ListB","man","english","EMB7",NA,NA,NA,NA,"{""Q0"":""jane is convincing luke""}","<img src='gifs/ChineseGender1a.gif' style='height:400px;''></img>","convincing","is convincing","english",NA
"null","<div style=""font-size:60px;"">+</div>",NA,"html-keyboard-response",230,1331232,"0.0-17.0-0.5",60316,"ListB","man","english","EMB7",NA,NA,NA,"null",NA,NA,NA,NA,NA,NA
"null","<img src='gifs/FemaleRace2b.gif' style='height:400px;''></img>",NA,"html-keyboard-response",231,1333235,"0.0-17.0-1.5",60316,"ListB","man","english","EMB7",NA,NA,NA,"null",NA,NA,NA,NA,NA,NA
"null","is praising",NA,"html-keyboard-response",232,1336238,"0.0-17.0-2.5",60316,"ListB","man","english","EMB7",NA,NA,NA,"null",NA,NA,NA,NA,NA,NA
"13841.2999999523",NA,NA,"survey-text",233,1350082,"0.0-17.0-3.5",60316,"ListB","man","english","EMB7",NA,NA,NA,NA,"{""Q0"":""kate is praising jane""}","<img src='gifs/FemaleRace2b.gif' style='height:400px;''></img>","praising","is praising","english",NA
"null","<div style=""font-size:60px;"">+</div>",NA,"html-keyboard-response",234,1350593,"0.0-17.0-0.6",60316,"ListB","man","english","EMB7",NA,NA,NA,"null",NA,NA,NA,NA,NA,NA
"null","<img src='gifs/BlackGender1b.gif' style='height:400px;''></img>",NA,"html-keyboard-response",235,1352610,"0.0-17.0-1.6",60316,"ListB","man","english","EMB7",NA,NA,NA,"null",NA,NA,NA,NA,NA,NA
"null","is facing",NA,"html-keyboard-response",236,1355614,"0.0-17.0-2.6",60316,"ListB","man","english","EMB7",NA,NA,NA,"null",NA,NA,NA,NA,NA,NA
"9603.799999952320",NA,NA,"survey-text",237,1365221,"0.0-17.0-3.6",60316,"ListB","man","english","EMB7",NA,NA,NA,NA,"{""Q0"":""fred is facing beth""}","<img src='gifs/BlackGender1b.gif' style='height:400px;''></img>","facing","is facing","english",NA
"null","<div style=""font-size:60px;"">+</div>",NA,"html-keyboard-response",238,1365733,"0.0-17.0-0.7",60316,"ListB","man","english","EMB7",NA,NA,NA,"null",NA,NA,NA,NA,NA,NA
"null","<img src='gifs/FemaleRace3b.gif' style='height:400px;''></img>",NA,"html-keyboard-response",239,1367736,"0.0-17.0-1.7",60316,"ListB","man","english","EMB7",NA,NA,NA,"null",NA,NA,NA,NA,NA,NA
"null","is contacting",NA,"html-keyboard-response",240,1370738,"0.0-17.0-2.7",60316,"ListB","man","english","EMB7",NA,NA,NA,"null",NA,NA,NA,NA,NA,NA
"17332.7000000477",NA,NA,"survey-text",241,1388073,"0.0-17.0-3.7",60316,"ListB","man","english","EMB7",NA,NA,NA,NA,"{""Q0"":""beth is contacting ruth""}","<img src='gifs/FemaleRace3b.gif' style='height:400px;''></img>","contacting","is contacting","english",NA
"null","<div style=""font-size:60px;"">+</div>",NA,"html-keyboard-response",242,1388588,"0.0-17.0-0.8",60316,"ListB","man","english","EMB7",NA,NA,NA,"null",NA,NA,NA,NA,NA,NA
"null","<img src='gifs/FemaleRace4a.gif' style='height:400px;''></img>",NA,"html-keyboard-response",243,1390606,"0.0-17.0-1.8",60316,"ListB","man","english","EMB7",NA,NA,NA,"null",NA,NA,NA,NA,NA,NA
"null","is listening to",NA,"html-keyboard-response",244,1393607,"0.0-17.0-2.8",60316,"ListB","man","english","EMB7",NA,NA,NA,"null",NA,NA,NA,NA,NA,NA
"12574.7000000477",NA,NA,"survey-text",245,1406185,"0.0-17.0-3.8",60316,"ListB","man","english","EMB7",NA,NA,NA,NA,"{""Q0"":""kate is listening to ruth""}","<img src='gifs/FemaleRace4a.gif' style='height:400px;''></img>","listening to","is listening to","english",NA
"null","<div style=""font-size:60px;"">+</div>",NA,"html-keyboard-response",246,1406685,"0.0-17.0-0.9",60316,"ListB","man","english","EMB7",NA,NA,NA,"null",NA,NA,NA,NA,NA,NA
"null","<img src='gifs/BlackGender4a.gif' style='height:400px;''></img>",NA,"html-keyboard-response",247,1408701,"0.0-17.0-1.9",60316,"ListB","man","english","EMB7",NA,NA,NA,"null",NA,NA,NA,NA,NA,NA
"null","is following",NA,"html-keyboard-response",248,1411703,"0.0-17.0-2.9",60316,"ListB","man","english","EMB7",NA,NA,NA,"null",NA,NA,NA,NA,NA,NA
"12722.5",NA,NA,"survey-text",249,1424429,"0.0-17.0-3.9",60316,"ListB","man","english","EMB7",NA,NA,NA,NA,"{""Q0"":""mike is following kate""}","<img src='gifs/BlackGender4a.gif' style='height:400px;''></img>","following","is following","english",NA
"null","<div style=""font-size:60px;"">+</div>",NA,"html-keyboard-response",250,1424929,"0.0-17.0-0.10",60316,"ListB","man","english","EMB7",NA,NA,NA,"null",NA,NA,NA,NA,NA,NA
"null","<img src='gifs/BlackGender2a.gif' style='height:400px;''></img>",NA,"html-keyboard-response",251,1426937,"0.0-17.0-1.10",60316,"ListB","man","english","EMB7",NA,NA,NA,"null",NA,NA,NA,NA,NA,NA
"null","is touching",NA,"html-keyboard-response",252,1429939,"0.0-17.0-2.10",60316,"ListB","man","english","EMB7",NA,NA,NA,"null",NA,NA,NA,NA,NA,NA
"8472.799999952320",NA,NA,"survey-text",253,1438414,"0.0-17.0-3.10",60316,"ListB","man","english","EMB7",NA,NA,NA,NA,"{""Q0"":""mike is touching beth""}","<img src='gifs/BlackGender2a.gif' style='height:400px;''></img>","touching","is touching","english",NA
"null","<div style=""font-size:60px;"">+</div>",NA,"html-keyboard-response",254,1438919,"0.0-17.0-0.11",60316,"ListB","man","english","EMB7",NA,NA,NA,"null",NA,NA,NA,NA,NA,NA
"null","<img src='gifs/MaleRace4a.gif' style='height:400px;''></img>",NA,"html-keyboard-response",255,1440937,"0.0-17.0-1.11",60316,"ListB","man","english","EMB7",NA,NA,NA,"null",NA,NA,NA,NA,NA,NA
"null","is accompanying",NA,"html-keyboard-response",256,1443938,"0.0-17.0-2.11",60316,"ListB","man","english","EMB7",NA,NA,NA,"null",NA,NA,NA,NA,NA,NA
"16072",NA,NA,"survey-text",257,1460012,"0.0-17.0-3.11",60316,"ListB","man","english","EMB7",NA,NA,NA,NA,"{""Q0"":""mike is accompanying dave""}","<img src='gifs/MaleRace4a.gif' style='height:400px;''></img>","accompanying","is accompanying","english",NA
"null","<div style=""font-size:60px;"">+</div>",NA,"html-keyboard-response",258,1460513,"0.0-17.0-0.12",60316,"ListB","man","english","EMB7",NA,NA,NA,"null",NA,NA,NA,NA,NA,NA
"null","<img src='gifs/MaleRace2a.gif' style='height:400px;''></img>",NA,"html-keyboard-response",259,1462527,"0.0-17.0-1.12",60316,"ListB","man","english","EMB7",NA,NA,NA,"null",NA,NA,NA,NA,NA,NA
"null","is mentioning",NA,"html-keyboard-response",260,1465529,"0.0-17.0-2.12",60316,"ListB","man","english","EMB7",NA,NA,NA,"null",NA,NA,NA,NA,NA,NA
"8170.599999904630",NA,NA,"survey-text",261,1473700,"0.0-17.0-3.12",60316,"ListB","man","english","EMB7",NA,NA,NA,NA,"{""Q0"":""luke is mentioning mike""}","<img src='gifs/MaleRace2a.gif' style='height:400px;''></img>","mention","is mentioning","english",NA
"null","<div style=""font-size:60px;"">+</div>",NA,"html-keyboard-response",262,1474216,"0.0-17.0-0.13",60316,"ListB","man","english","EMB7",NA,NA,NA,"null",NA,NA,NA,NA,NA,NA
"null","<img src='gifs/MaleRace1b.gif' style='height:400px;''></img>",NA,"html-keyboard-response",263,1476217,"0.0-17.0-1.13",60316,"ListB","man","english","EMB7",NA,NA,NA,"null",NA,NA,NA,NA,NA,NA
"null","is mentioning",NA,"html-keyboard-response",264,1479219,"0.0-17.0-2.13",60316,"ListB","man","english","EMB7",NA,NA,NA,"null",NA,NA,NA,NA,NA,NA
"7834.400000095370",NA,NA,"survey-text",265,1487057,"0.0-17.0-3.13",60316,"ListB","man","english","EMB7",NA,NA,NA,NA,"{""Q0"":""luke is mentioning fred""}","<img src='gifs/MaleRace1b.gif' style='height:400px;''></img>","mention","is mentioning","english",NA
"null","<div style=""font-size:60px;"">+</div>",NA,"html-keyboard-response",266,1487558,"0.0-17.0-0.14",60316,"ListB","man","english","EMB7",NA,NA,NA,"null",NA,NA,NA,NA,NA,NA
"null","<img src='gifs/ChineseGender3a.gif' style='height:400px;''></img>",NA,"html-keyboard-response",267,1489568,"0.0-17.0-1.14",60316,"ListB","man","english","EMB7",NA,NA,NA,"null",NA,NA,NA,NA,NA,NA
"null","is listening to",NA,"html-keyboard-response",268,1492570,"0.0-17.0-2.14",60316,"ListB","man","english","EMB7",NA,NA,NA,"null",NA,NA,NA,NA,NA,NA
"26001.2999999523",NA,NA,"survey-text",269,1518574,"0.0-17.0-3.14",60316,"ListB","man","english","EMB7",NA,NA,NA,NA,"{""Q0"":""dave is listening to ruth""}","<img src='gifs/ChineseGender3a.gif' style='height:400px;''></img>","listening to","is listening to","english",NA
"null","<div style=""font-size:60px;"">+</div>",NA,"html-keyboard-response",270,1519086,"0.0-17.0-0.15",60316,"ListB","man","english","EMB7",NA,NA,NA,"null",NA,NA,NA,NA,NA,NA
"null","<img src='gifs/ChineseGender1b.gif' style='height:400px;''></img>",NA,"html-keyboard-response",271,1521102,"0.0-17.0-1.15",60316,"ListB","man","english","EMB7",NA,NA,NA,"null",NA,NA,NA,NA,NA,NA
"null","is following",NA,"html-keyboard-response",272,1524104,"0.0-17.0-2.15",60316,"ListB","man","english","EMB7",NA,NA,NA,"null",NA,NA,NA,NA,NA,NA
"6697.599999904630",NA,NA,"survey-text",273,1530805,"0.0-17.0-3.15",60316,"ListB","man","english","EMB7",NA,NA,NA,NA,"{""Q0"":""jane is following  luke""}","<img src='gifs/ChineseGender1b.gif' style='height:400px;''></img>","following","is following","english",NA
"null","<div style=""font-size:60px;"">+</div>",NA,"html-keyboard-response",274,1531310,"0.0-17.0-0.16",60316,"ListB","man","english","EMB7",NA,NA,NA,"null",NA,NA,NA,NA,NA,NA
"null","<img src='gifs/BlackGender2b.gif' style='height:400px;''></img>",NA,"html-keyboard-response",275,1533312,"0.0-17.0-1.16",60316,"ListB","man","english","EMB7",NA,NA,NA,"null",NA,NA,NA,NA,NA,NA
"null","is joining",NA,"html-keyboard-response",276,1536316,"0.0-17.0-2.16",60316,"ListB","man","english","EMB7",NA,NA,NA,"null",NA,NA,NA,NA,NA,NA
"18450.2999999523",NA,NA,"survey-text",277,1554769,"0.0-17.0-3.16",60316,"ListB","man","english","EMB7",NA,NA,NA,NA,"{""Q0"":""beth is joining mike""}","<img src='gifs/BlackGender2b.gif' style='height:400px;''></img>","join","is joining","english",NA
"null","<div style=""font-size:60px;"">+</div>",NA,"html-keyboard-response",278,1555274,"0.0-17.0-0.17",60316,"ListB","man","english","EMB7",NA,NA,NA,"null",NA,NA,NA,NA,NA,NA
"null","<img src='gifs/BlackGender2a.gif' style='height:400px;''></img>",NA,"html-keyboard-response",279,1557291,"0.0-17.0-1.17",60316,"ListB","man","english","EMB7",NA,NA,NA,"null",NA,NA,NA,NA,NA,NA
"null","is following",NA,"html-keyboard-response",280,1560292,"0.0-17.0-2.17",60316,"ListB","man","english","EMB7",NA,NA,NA,"null",NA,NA,NA,NA,NA,NA
"9206",NA,NA,"survey-text",281,1569500,"0.0-17.0-3.17",60316,"ListB","man","english","EMB7",NA,NA,NA,NA,"{""Q0"":""beth is following mike""}","<img src='gifs/BlackGender2a.gif' style='height:400px;''></img>","following","is following","english",NA
"4755.599999904630","<p>Thank you for completing that task.</p><p>The final part of this session is a short questionnaire.</p><p>Press Continue.</p>",0,"html-button-response",282,1574256,"0.0-18.0",60316,"ListB","man","english","EMB7",NA,NA,NA,NA,NA,NA,NA,NA,NA,NA
"74233",NA,NA,"survey-text",283,1649495,"0.0-19.0",60316,"ListB","man","english","EMB7",NA,NA,NA,NA,"{""Q0"":""22"",""Q1"":""chinese"",""Q2"":""chinese"",""Q3"":""UK"",""Q4"":""China"",""Q5"":""asian"",""Q6"":""male""}",NA,NA,NA,NA,"demographics"
"5352.900000095370","<p>Have you lived in the UK for the last 5 years or more?</p>",1,"html-button-response",284,1654849,"0.0-20.0",60316,"ListB","man","english","EMB7",NA,NA,NA,NA,NA,NA,NA,NA,NA,"fiveyears"
"9137.299999952320",NA,NA,"external-html",285,1665052,"0.0-21.0",60316,"ListB","man","english","EMB7","debrief.html",NA,NA,NA,NA,NA,NA,NA,NA,NA
"38594.7000000477",NA,NA,"survey-text",286,1703648,"0.0-22.0",60316,"ListB","man","english","EMB7",NA,NA,NA,NA,"{""ptpt_id"":""EMB7""}",NA,NA,NA,NA,"worker_id"
