"rt","stimulus","button_pressed","trial_type","trial_index","time_elapsed","internal_node_id","subject","list","ppt_gender","ppt_language","ptptID","url","first_guess","correct","key_press","responses","image","verb","phrase","condition","test_part"
"12383","Welcome to the experiment. Press Continue to begin.",0,"html-button-response",0,12384,"0.0-0.0",16379,"ListB","man","english","EMB2",NA,NA,NA,NA,NA,NA,NA,NA,NA,NA
"17023.1000000015",NA,NA,"external-html",1,30507,"0.0-1.0",16379,"ListB","man","english","EMB2","consent.html",NA,NA,NA,NA,NA,NA,NA,NA,NA
"1022.399999998510","<p>On the next page, you will see portraits of 8 people and their names.</p><p>Your first task is to take a few minutes to memorise the names of these people.</p><p>You will have to recall their names during the rest of the experiment, so it is</p><p>essential that you try to memorise these people and their names as best as you can.</p><p><strong>You will then be tested on your memory of these names and portraits.</strong></p><p>The experiment will start after you have completed this memory test.</p><p>Ready?</p>",0,"html-button-response",2,31530,"0.0-2.0",16379,"ListB","man","english","EMB2",NA,NA,NA,NA,NA,NA,NA,NA,NA,NA
"63363.1000000015","<img src='img/portrait_matrix_listB.jpg' style='width:900px;height:500px;''></img><p>If you have memorised all the portraits and names and are ready to start, press Continue.</p><p><strong>Please note: Your memory of these faces will be tested 5 times during this experiment.</strong></p>",0,"html-button-response",3,95893,"0.0-3.0-0.0",16379,"ListB","man","english","EMB2",NA,NA,NA,NA,NA,NA,NA,NA,NA,NA
"16170","<img src=""portrait/WW1.jpg""style=""height:400px;""></img>",0,"html-button-response",4,113075,"0.0-3.0-1.0",16379,"ListB","man","english","EMB2",NA,TRUE,1,NA,NA,NA,NA,NA,NA,NA
"5184.899999998510","<img src=""portrait/WW1.jpg""style=""height:400px;""></img>",1,"html-button-response",5,119279,"0.0-3.0-3.0-0.0",16379,"ListB","man","english","EMB2",NA,FALSE,1,NA,NA,NA,NA,NA,NA,NA
"null","CORRECT",NA,"html-keyboard-response",6,120796,"0.0-3.0-3.0-1.0-0.0",16379,"ListB","man","english","EMB2",NA,NA,NA,"null",NA,NA,NA,NA,NA,NA
"2393.800000000750","<img src=""portrait/WW2.jpg""style=""height:400px;""></img>",3,"html-button-response",7,123190,"0.0-3.0-4.0",16379,"ListB","man","english","EMB2",NA,TRUE,3,NA,NA,NA,NA,NA,NA,NA
"null","CORRECT",NA,"html-keyboard-response",8,124705,"0.0-3.0-5.0-0.0",16379,"ListB","man","english","EMB2",NA,NA,NA,"null",NA,NA,NA,NA,NA,NA
"150.5","<img src=""portrait/BM1.jpg""style=""height:400px;""></img>",3,"html-button-response",9,124856,"0.0-3.0-7.0",16379,"ListB","man","english","EMB2",NA,TRUE,4,NA,NA,NA,NA,NA,NA,NA
"1802.800000000750","<img src=""portrait/BM1.jpg""style=""height:400px;""></img>",4,"html-button-response",10,127660,"0.0-3.0-9.0-0.0",16379,"ListB","man","english","EMB2",NA,FALSE,4,NA,NA,NA,NA,NA,NA,NA
"null","CORRECT",NA,"html-keyboard-response",11,129178,"0.0-3.0-9.0-1.0-0.0",16379,"ListB","man","english","EMB2",NA,NA,NA,"null",NA,NA,NA,NA,NA,NA
"2982.300000000750","<img src=""portrait/WM1.jpg""style=""height:400px;""></img>",6,"html-button-response",12,132160,"0.0-3.0-10.0",16379,"ListB","man","english","EMB2",NA,TRUE,6,NA,NA,NA,NA,NA,NA,NA
"null","CORRECT",NA,"html-keyboard-response",13,133688,"0.0-3.0-11.0-0.0",16379,"ListB","man","english","EMB2",NA,NA,NA,"null",NA,NA,NA,NA,NA,NA
"1502.199999999260","<img src=""portrait/BM2.jpg""style=""height:400px;""></img>",5,"html-button-response",14,135191,"0.0-3.0-13.0",16379,"ListB","man","english","EMB2",NA,TRUE,5,NA,NA,NA,NA,NA,NA,NA
"null","CORRECT",NA,"html-keyboard-response",15,136693,"0.0-3.0-14.0-0.0",16379,"ListB","man","english","EMB2",NA,NA,NA,"null",NA,NA,NA,NA,NA,NA
"5464.800000000750","<img src=""portrait/BW1.jpg""style=""height:400px;""></img>",0,"html-button-response",16,142158,"0.0-3.0-16.0",16379,"ListB","man","english","EMB2",NA,TRUE,0,NA,NA,NA,NA,NA,NA,NA
"null","CORRECT",NA,"html-keyboard-response",17,143660,"0.0-3.0-17.0-0.0",16379,"ListB","man","english","EMB2",NA,NA,NA,"null",NA,NA,NA,NA,NA,NA
"1682.199999999260","<img src=""portrait/WM2.jpg""style=""height:400px;""></img>",7,"html-button-response",18,145343,"0.0-3.0-19.0",16379,"ListB","man","english","EMB2",NA,TRUE,7,NA,NA,NA,NA,NA,NA,NA
"null","CORRECT",NA,"html-keyboard-response",19,146858,"0.0-3.0-20.0-0.0",16379,"ListB","man","english","EMB2",NA,NA,NA,"null",NA,NA,NA,NA,NA,NA
"4849.099999997770","<img src=""portrait/BW2.jpg""style=""height:400px;""></img>",2,"html-button-response",20,151707,"0.0-3.0-22.0",16379,"ListB","man","english","EMB2",NA,TRUE,2,NA,NA,NA,NA,NA,NA,NA
"null","CORRECT",NA,"html-keyboard-response",21,153210,"0.0-3.0-23.0-0.0",16379,"ListB","man","english","EMB2",NA,NA,NA,"null",NA,NA,NA,NA,NA,NA
"1463.399999998510","<p>You got 6 out of 8 right first time. Press Continue.</p>",0,"html-button-response",22,154674,"0.0-3.0-25.0",16379,"ListB","man","english","EMB2",NA,NA,NA,NA,NA,NA,NA,NA,NA,NA
"3070.600000001490","As you did not score 100%, the memory game will repeat. Press Continue.",0,"html-button-response",23,158754,"0.0-3.0-26.0-0.0",16379,"ListB","man","english","EMB2",NA,NA,NA,NA,NA,NA,NA,NA,NA,NA
"1301.399999998510","<img src='img/portrait_matrix_listB.jpg' style='width:900px;height:500px;''></img><p>If you have memorised all the portraits and names and are ready to start, press Continue.</p><p><strong>Please note: Your memory of these faces will be tested 5 times during this experiment.</strong></p>",0,"html-button-response",24,161061,"0.0-3.1-0.1",16379,"ListB","man","english","EMB2",NA,NA,NA,NA,NA,NA,NA,NA,NA,NA
"1487.5","<img src=""portrait/WW1.jpg""style=""height:400px;""></img>",1,"html-button-response",25,163558,"0.0-3.1-1.1",16379,"ListB","man","english","EMB2",NA,TRUE,1,NA,NA,NA,NA,NA,NA,NA
"null","CORRECT",NA,"html-keyboard-response",26,165059,"0.0-3.1-2.1-0.1",16379,"ListB","man","english","EMB2",NA,NA,NA,"null",NA,NA,NA,NA,NA,NA
"2525.099999997770","<img src=""portrait/WW2.jpg""style=""height:400px;""></img>",3,"html-button-response",27,167585,"0.0-3.1-4.1",16379,"ListB","man","english","EMB2",NA,TRUE,3,NA,NA,NA,NA,NA,NA,NA
"null","CORRECT",NA,"html-keyboard-response",28,169106,"0.0-3.1-5.1-0.1",16379,"ListB","man","english","EMB2",NA,NA,NA,"null",NA,NA,NA,NA,NA,NA
"3441.600000001490","<img src=""portrait/BM1.jpg""style=""height:400px;""></img>",4,"html-button-response",29,172548,"0.0-3.1-7.1",16379,"ListB","man","english","EMB2",NA,TRUE,4,NA,NA,NA,NA,NA,NA,NA
"null","CORRECT",NA,"html-keyboard-response",30,174049,"0.0-3.1-8.1-0.1",16379,"ListB","man","english","EMB2",NA,NA,NA,"null",NA,NA,NA,NA,NA,NA
"2993.699999999260","<img src=""portrait/WM1.jpg""style=""height:400px;""></img>",6,"html-button-response",31,177044,"0.0-3.1-10.1",16379,"ListB","man","english","EMB2",NA,TRUE,6,NA,NA,NA,NA,NA,NA,NA
"null","CORRECT",NA,"html-keyboard-response",32,178557,"0.0-3.1-11.1-0.1",16379,"ListB","man","english","EMB2",NA,NA,NA,"null",NA,NA,NA,NA,NA,NA
"5557","<img src=""portrait/BM2.jpg""style=""height:400px;""></img>",5,"html-button-response",33,184115,"0.0-3.1-13.1",16379,"ListB","man","english","EMB2",NA,TRUE,5,NA,NA,NA,NA,NA,NA,NA
"null","CORRECT",NA,"html-keyboard-response",34,185616,"0.0-3.1-14.1-0.1",16379,"ListB","man","english","EMB2",NA,NA,NA,"null",NA,NA,NA,NA,NA,NA
"3384.600000001490","<img src=""portrait/BW1.jpg""style=""height:400px;""></img>",2,"html-button-response",35,189001,"0.0-3.1-16.1",16379,"ListB","man","english","EMB2",NA,TRUE,0,NA,NA,NA,NA,NA,NA,NA
"2041.399999998510","<img src=""portrait/BW1.jpg""style=""height:400px;""></img>",0,"html-button-response",36,192056,"0.0-3.1-18.1-0.1",16379,"ListB","man","english","EMB2",NA,FALSE,0,NA,NA,NA,NA,NA,NA,NA
"null","CORRECT",NA,"html-keyboard-response",37,193560,"0.0-3.1-18.1-1.1-0.1",16379,"ListB","man","english","EMB2",NA,NA,NA,"null",NA,NA,NA,NA,NA,NA
"1717.400000002240","<img src=""portrait/WM2.jpg""style=""height:400px;""></img>",7,"html-button-response",38,195278,"0.0-3.1-19.1",16379,"ListB","man","english","EMB2",NA,TRUE,7,NA,NA,NA,NA,NA,NA,NA
"null","CORRECT",NA,"html-keyboard-response",39,196780,"0.0-3.1-20.1-0.1",16379,"ListB","man","english","EMB2",NA,NA,NA,"null",NA,NA,NA,NA,NA,NA
"1816.800000000750","<img src=""portrait/BW2.jpg""style=""height:400px;""></img>",2,"html-button-response",40,198597,"0.0-3.1-22.1",16379,"ListB","man","english","EMB2",NA,TRUE,2,NA,NA,NA,NA,NA,NA,NA
"null","CORRECT",NA,"html-keyboard-response",41,200113,"0.0-3.1-23.1-0.1",16379,"ListB","man","english","EMB2",NA,NA,NA,"null",NA,NA,NA,NA,NA,NA
"825.5","<p>You got 7 out of 8 right first time. Press Continue.</p>",0,"html-button-response",42,200939,"0.0-3.1-25.1",16379,"ListB","man","english","EMB2",NA,NA,NA,NA,NA,NA,NA,NA,NA,NA
"1317","As you did not score 100%, the memory game will repeat. Press Continue.",0,"html-button-response",43,203257,"0.0-3.1-26.1-0.1",16379,"ListB","man","english","EMB2",NA,NA,NA,NA,NA,NA,NA,NA,NA,NA
"5945.300000000750","<img src='img/portrait_matrix_listB.jpg' style='width:900px;height:500px;''></img><p>If you have memorised all the portraits and names and are ready to start, press Continue.</p><p><strong>Please note: Your memory of these faces will be tested 5 times during this experiment.</strong></p>",0,"html-button-response",44,210212,"0.0-3.2-0.2",16379,"ListB","man","english","EMB2",NA,NA,NA,NA,NA,NA,NA,NA,NA,NA
"2002.699999999260","<img src=""portrait/WW1.jpg""style=""height:400px;""></img>",1,"html-button-response",45,213220,"0.0-3.2-1.2",16379,"ListB","man","english","EMB2",NA,TRUE,1,NA,NA,NA,NA,NA,NA,NA
"null","CORRECT",NA,"html-keyboard-response",46,214721,"0.0-3.2-2.2-0.2",16379,"ListB","man","english","EMB2",NA,NA,NA,"null",NA,NA,NA,NA,NA,NA
"1756.300000000750","<img src=""portrait/WW2.jpg""style=""height:400px;""></img>",3,"html-button-response",47,216478,"0.0-3.2-4.2",16379,"ListB","man","english","EMB2",NA,TRUE,3,NA,NA,NA,NA,NA,NA,NA
"null","CORRECT",NA,"html-keyboard-response",48,217993,"0.0-3.2-5.2-0.2",16379,"ListB","man","english","EMB2",NA,NA,NA,"null",NA,NA,NA,NA,NA,NA
"2749","<img src=""portrait/BM1.jpg""style=""height:400px;""></img>",4,"html-button-response",49,220743,"0.0-3.2-7.2",16379,"ListB","man","english","EMB2",NA,TRUE,4,NA,NA,NA,NA,NA,NA,NA
"null","CORRECT",NA,"html-keyboard-response",50,222256,"0.0-3.2-8.2-0.2",16379,"ListB","man","english","EMB2",NA,NA,NA,"null",NA,NA,NA,NA,NA,NA
"5133.400000002240","<img src=""portrait/WM1.jpg""style=""height:400px;""></img>",6,"html-button-response",51,227390,"0.0-3.2-10.2",16379,"ListB","man","english","EMB2",NA,TRUE,6,NA,NA,NA,NA,NA,NA,NA
"null","CORRECT",NA,"html-keyboard-response",52,228902,"0.0-3.2-11.2-0.2",16379,"ListB","man","english","EMB2",NA,NA,NA,"null",NA,NA,NA,NA,NA,NA
"6851","<img src=""portrait/BM2.jpg""style=""height:400px;""></img>",5,"html-button-response",53,235753,"0.0-3.2-13.2",16379,"ListB","man","english","EMB2",NA,TRUE,5,NA,NA,NA,NA,NA,NA,NA
"null","CORRECT",NA,"html-keyboard-response",54,237267,"0.0-3.2-14.2-0.2",16379,"ListB","man","english","EMB2",NA,NA,NA,"null",NA,NA,NA,NA,NA,NA
"4786.5","<img src=""portrait/BW1.jpg""style=""height:400px;""></img>",0,"html-button-response",55,242054,"0.0-3.2-16.2",16379,"ListB","man","english","EMB2",NA,TRUE,0,NA,NA,NA,NA,NA,NA,NA
"null","CORRECT",NA,"html-keyboard-response",56,243584,"0.0-3.2-17.2-0.2",16379,"ListB","man","english","EMB2",NA,NA,NA,"null",NA,NA,NA,NA,NA,NA
"1843.099999997760","<img src=""portrait/WM2.jpg""style=""height:400px;""></img>",7,"html-button-response",57,245428,"0.0-3.2-19.2",16379,"ListB","man","english","EMB2",NA,TRUE,7,NA,NA,NA,NA,NA,NA,NA
"null","CORRECT",NA,"html-keyboard-response",58,246930,"0.0-3.2-20.2-0.2",16379,"ListB","man","english","EMB2",NA,NA,NA,"null",NA,NA,NA,NA,NA,NA
"1122.200000002980","<img src=""portrait/BW2.jpg""style=""height:400px;""></img>",2,"html-button-response",59,248052,"0.0-3.2-22.2",16379,"ListB","man","english","EMB2",NA,TRUE,2,NA,NA,NA,NA,NA,NA,NA
"null","CORRECT",NA,"html-keyboard-response",60,249560,"0.0-3.2-23.2-0.2",16379,"ListB","man","english","EMB2",NA,NA,NA,"null",NA,NA,NA,NA,NA,NA
"1183.199999999260","<p>You got 8 out of 8 right first time. Press Continue.</p>",0,"html-button-response",61,250744,"0.0-3.2-25.2",16379,"ListB","man","english","EMB2",NA,NA,NA,NA,NA,NA,NA,NA,NA,NA
"11452.6999999993","<p>In this experiment, you will view photographs of the people from the memory game.</p><p>By using the <strong>exact</strong> phrase given <i>after</i> the photograph appears and recalling the correct names of the people in the photographs, form a sentence describing an interaction. You do not need to capitalise names.</p><p>Type your answer in the space provided. Please complete every sentence before moving onto the next trial.</p><p>You will only have a few seconds to memorise each given photograph and phrase before you can respond, so try your best to focus.</p><p>An example is given below. Press 'Continue' when you are ready.</p><img src='img/speaking_example.jpg' style='width:800px;height:460px;''></img>",0,"html-button-response",62,263197,"0.0-4.0",16379,"ListB","man","english","EMB2",NA,NA,NA,NA,NA,NA,NA,NA,NA,NA
"1601.600000001490","<p>Before the experiment starts, you will watch two example trials. Press 'Continue'.</p>",0,"html-button-response",63,265804,"0.0-5.0",16379,"ListB","man","english","EMB2",NA,NA,NA,NA,NA,NA,NA,NA,NA,NA
"null","<img src='img/meet.gif' style='height:400px;''></img>",NA,"html-keyboard-response",64,268805,"0.0-6.0",16379,"ListB","man","english","EMB2",NA,NA,NA,"null",NA,NA,NA,NA,NA,NA
"null","<p>is meeting</p>",NA,"html-keyboard-response",65,270807,"0.0-7.0",16379,"ListB","man","english","EMB2",NA,NA,NA,"null",NA,NA,NA,NA,NA,NA
"2373.699999999260","<p><b>Answer:</b> jane is meeting ruth</p>",0,"html-button-response",66,273181,"0.0-8.0",16379,"ListB","man","english","EMB2",NA,NA,NA,NA,NA,NA,NA,NA,NA,NA
"null","<img src='img/spy.gif' style='height:400px;''></img>",NA,"html-keyboard-response",67,276182,"0.0-9.0",16379,"ListB","man","english","EMB2",NA,NA,NA,"null",NA,NA,NA,NA,NA,NA
"null","<p>is being spied on by</p>",NA,"html-keyboard-response",68,278187,"0.0-10.0",16379,"ListB","man","english","EMB2",NA,NA,NA,"null",NA,NA,NA,NA,NA,NA
"6227.300000000750","<p><b>Answer:</b> fred is being spied on by mike</p>",0,"html-button-response",69,284415,"0.0-11.0",16379,"ListB","man","english","EMB2",NA,NA,NA,NA,NA,NA,NA,NA,NA,NA
"13781.4000000022","<p>Ready to start the experiment?</p><br><p><strong>Remember to describe the picture using a full sentence,</strong></p><p><strong>that combines the names of the people with the <i>exact</i> phrase given.</strong></p><p><strong>To receive full payment you must do this correctly.</strong></p><p><strong> You do not need to capitalise names or use punctuation.</strong></p><br><p>Press 'Continue' to begin.</p>",0,"html-button-response",70,299211,"0.0-12.0",16379,"ListB","man","english","EMB2",NA,NA,NA,NA,NA,NA,NA,NA,NA,NA
"null","<div style=""font-size:60px;"">+</div>",NA,"html-keyboard-response",71,300720,"0.0-13.0-0.0",16379,"ListB","man","english","EMB2",NA,NA,NA,"null",NA,NA,NA,NA,NA,NA
"null","<img src='gifs/BlackGender3b.gif' style='height:400px;''></img>",NA,"html-keyboard-response",72,302736,"0.0-13.0-1.0",16379,"ListB","man","english","EMB2",NA,NA,NA,"null",NA,NA,NA,NA,NA,NA
"null","is walking towards",NA,"html-keyboard-response",73,305738,"0.0-13.0-2.0",16379,"ListB","man","english","EMB2",NA,NA,NA,"null",NA,NA,NA,NA,NA,NA
"44327.200000003",NA,NA,"survey-text",74,350068,"0.0-13.0-3.0",16379,"ListB","man","english","EMB2",NA,NA,NA,NA,"{""Q0"":""fred is walking towards kate""}","<img src='gifs/BlackGender3b.gif' style='height:400px;''></img>","walking towards","is walking towards","english",NA
"null","<div style=""font-size:60px;"">+</div>",NA,"html-keyboard-response",75,350573,"0.0-13.0-0.1",16379,"ListB","man","english","EMB2",NA,NA,NA,"null",NA,NA,NA,NA,NA,NA
"null","<img src='gifs/FemaleRace4b.gif' style='height:400px;''></img>",NA,"html-keyboard-response",76,352574,"0.0-13.0-1.1",16379,"ListB","man","english","EMB2",NA,NA,NA,"null",NA,NA,NA,NA,NA,NA
"null","is contacting",NA,"html-keyboard-response",77,355576,"0.0-13.0-2.1",16379,"ListB","man","english","EMB2",NA,NA,NA,"null",NA,NA,NA,NA,NA,NA
"9928.899999998510",NA,NA,"survey-text",78,365508,"0.0-13.0-3.1",16379,"ListB","man","english","EMB2",NA,NA,NA,NA,"{""Q0"":""kate is contacting ruth""}","<img src='gifs/FemaleRace4b.gif' style='height:400px;''></img>","contacting","is contacting","english",NA
"null","<div style=""font-size:60px;"">+</div>",NA,"html-keyboard-response",79,366020,"0.0-13.0-0.2",16379,"ListB","man","english","EMB2",NA,NA,NA,"null",NA,NA,NA,NA,NA,NA
"null","<img src='gifs/ChineseGender1b.gif' style='height:400px;''></img>",NA,"html-keyboard-response",80,368032,"0.0-13.0-1.2",16379,"ListB","man","english","EMB2",NA,NA,NA,"null",NA,NA,NA,NA,NA,NA
"null","is promising",NA,"html-keyboard-response",81,371048,"0.0-13.0-2.2",16379,"ListB","man","english","EMB2",NA,NA,NA,"null",NA,NA,NA,NA,NA,NA
"6144.300000000750",NA,NA,"survey-text",82,377195,"0.0-13.0-3.2",16379,"ListB","man","english","EMB2",NA,NA,NA,NA,"{""Q0"":""luke is promising jane""}","<img src='gifs/ChineseGender1b.gif' style='height:400px;''></img>","promising","is promising","english",NA
"null","<div style=""font-size:60px;"">+</div>",NA,"html-keyboard-response",83,377710,"0.0-13.0-0.3",16379,"ListB","man","english","EMB2",NA,NA,NA,"null",NA,NA,NA,NA,NA,NA
"null","<img src='gifs/FemaleRace2b.gif' style='height:400px;''></img>",NA,"html-keyboard-response",84,379717,"0.0-13.0-1.3",16379,"ListB","man","english","EMB2",NA,NA,NA,"null",NA,NA,NA,NA,NA,NA
"null","is listening to",NA,"html-keyboard-response",85,382719,"0.0-13.0-2.3",16379,"ListB","man","english","EMB2",NA,NA,NA,"null",NA,NA,NA,NA,NA,NA
"7163.399999998510",NA,NA,"survey-text",86,389885,"0.0-13.0-3.3",16379,"ListB","man","english","EMB2",NA,NA,NA,NA,"{""Q0"":""jane is listening to kate""}","<img src='gifs/FemaleRace2b.gif' style='height:400px;''></img>","listening to","is listening to","english",NA
"null","<div style=""font-size:60px;"">+</div>",NA,"html-keyboard-response",87,390396,"0.0-13.0-0.4",16379,"ListB","man","english","EMB2",NA,NA,NA,"null",NA,NA,NA,NA,NA,NA
"null","<img src='gifs/MaleRace2a.gif' style='height:400px;''></img>",NA,"html-keyboard-response",88,392407,"0.0-13.0-1.4",16379,"ListB","man","english","EMB2",NA,NA,NA,"null",NA,NA,NA,NA,NA,NA
"null","is introducing",NA,"html-keyboard-response",89,395412,"0.0-13.0-2.4",16379,"ListB","man","english","EMB2",NA,NA,NA,"null",NA,NA,NA,NA,NA,NA
"6863",NA,NA,"survey-text",90,402276,"0.0-13.0-3.4",16379,"ListB","man","english","EMB2",NA,NA,NA,NA,"{""Q0"":""mike is introducing luke""}","<img src='gifs/MaleRace2a.gif' style='height:400px;''></img>","introducing","is introducing","english",NA
"null","<div style=""font-size:60px;"">+</div>",NA,"html-keyboard-response",91,402786,"0.0-13.0-0.5",16379,"ListB","man","english","EMB2",NA,NA,NA,"null",NA,NA,NA,NA,NA,NA
"null","<img src='gifs/FemaleRace3a.gif' style='height:400px;''></img>",NA,"html-keyboard-response",92,404796,"0.0-13.0-1.5",16379,"ListB","man","english","EMB2",NA,NA,NA,"null",NA,NA,NA,NA,NA,NA
"null","is promising",NA,"html-keyboard-response",93,407805,"0.0-13.0-2.5",16379,"ListB","man","english","EMB2",NA,NA,NA,"null",NA,NA,NA,NA,NA,NA
"7784.899999998510",NA,NA,"survey-text",94,415591,"0.0-13.0-3.5",16379,"ListB","man","english","EMB2",NA,NA,NA,NA,"{""Q0"":""ruth is promising beth""}","<img src='gifs/FemaleRace3a.gif' style='height:400px;''></img>","promising","is promising","english",NA
"null","<div style=""font-size:60px;"">+</div>",NA,"html-keyboard-response",95,416100,"0.0-13.0-0.6",16379,"ListB","man","english","EMB2",NA,NA,NA,"null",NA,NA,NA,NA,NA,NA
"null","<img src='gifs/BlackGender2a.gif' style='height:400px;''></img>",NA,"html-keyboard-response",96,418110,"0.0-13.0-1.6",16379,"ListB","man","english","EMB2",NA,NA,NA,"null",NA,NA,NA,NA,NA,NA
"null","is employing",NA,"html-keyboard-response",97,421115,"0.0-13.0-2.6",16379,"ListB","man","english","EMB2",NA,NA,NA,"null",NA,NA,NA,NA,NA,NA
"10632.6000000015",NA,NA,"survey-text",98,431749,"0.0-13.0-3.6",16379,"ListB","man","english","EMB2",NA,NA,NA,NA,"{""Q0"":""beth is employing mike""}","<img src='gifs/BlackGender2a.gif' style='height:400px;''></img>","employing","is employing","english",NA
"null","<div style=""font-size:60px;"">+</div>",NA,"html-keyboard-response",99,432254,"0.0-13.0-0.7",16379,"ListB","man","english","EMB2",NA,NA,NA,"null",NA,NA,NA,NA,NA,NA
"null","<img src='gifs/ChineseGender3b.gif' style='height:400px;''></img>",NA,"html-keyboard-response",100,434256,"0.0-13.0-1.7",16379,"ListB","man","english","EMB2",NA,NA,NA,"null",NA,NA,NA,NA,NA,NA
"null","is touching",NA,"html-keyboard-response",101,437265,"0.0-13.0-2.7",16379,"ListB","man","english","EMB2",NA,NA,NA,"null",NA,NA,NA,NA,NA,NA
"10735.3000000007",NA,NA,"survey-text",102,448001,"0.0-13.0-3.7",16379,"ListB","man","english","EMB2",NA,NA,NA,NA,"{""Q0"":""ruth is touching dave""}","<img src='gifs/ChineseGender3b.gif' style='height:400px;''></img>","touching","is touching","english",NA
"null","<div style=""font-size:60px;"">+</div>",NA,"html-keyboard-response",103,448505,"0.0-13.0-0.8",16379,"ListB","man","english","EMB2",NA,NA,NA,"null",NA,NA,NA,NA,NA,NA
"null","<img src='gifs/MaleRace4b.gif' style='height:400px;''></img>",NA,"html-keyboard-response",104,450510,"0.0-13.0-1.8",16379,"ListB","man","english","EMB2",NA,NA,NA,"null",NA,NA,NA,NA,NA,NA
"null","is contacting",NA,"html-keyboard-response",105,453512,"0.0-13.0-2.8",16379,"ListB","man","english","EMB2",NA,NA,NA,"null",NA,NA,NA,NA,NA,NA
"8013.900000002240",NA,NA,"survey-text",106,461527,"0.0-13.0-3.8",16379,"ListB","man","english","EMB2",NA,NA,NA,NA,"{""Q0"":""mike is contacting dave""}","<img src='gifs/MaleRace4b.gif' style='height:400px;''></img>","contacting","is contacting","english",NA
"null","<div style=""font-size:60px;"">+</div>",NA,"html-keyboard-response",107,462028,"0.0-13.0-0.9",16379,"ListB","man","english","EMB2",NA,NA,NA,"null",NA,NA,NA,NA,NA,NA
"null","<img src='gifs/ChineseGender4b.gif' style='height:400px;''></img>",NA,"html-keyboard-response",108,464037,"0.0-13.0-1.9",16379,"ListB","man","english","EMB2",NA,NA,NA,"null",NA,NA,NA,NA,NA,NA
"null","is employing",NA,"html-keyboard-response",109,467044,"0.0-13.0-2.9",16379,"ListB","man","english","EMB2",NA,NA,NA,"null",NA,NA,NA,NA,NA,NA
"10409.5999999978",NA,NA,"survey-text",110,477457,"0.0-13.0-3.9",16379,"ListB","man","english","EMB2",NA,NA,NA,NA,"{""Q0"":""dave is employing jane""}","<img src='gifs/ChineseGender4b.gif' style='height:400px;''></img>","employing","is employing","english",NA
"null","<div style=""font-size:60px;"">+</div>",NA,"html-keyboard-response",111,477972,"0.0-13.0-0.10",16379,"ListB","man","english","EMB2",NA,NA,NA,"null",NA,NA,NA,NA,NA,NA
"null","<img src='gifs/ChineseGender3a.gif' style='height:400px;''></img>",NA,"html-keyboard-response",112,479981,"0.0-13.0-1.10",16379,"ListB","man","english","EMB2",NA,NA,NA,"null",NA,NA,NA,NA,NA,NA
"null","is mentioning",NA,"html-keyboard-response",113,482989,"0.0-13.0-2.10",16379,"ListB","man","english","EMB2",NA,NA,NA,"null",NA,NA,NA,NA,NA,NA
"8657.699999999260",NA,NA,"survey-text",114,491648,"0.0-13.0-3.10",16379,"ListB","man","english","EMB2",NA,NA,NA,NA,"{""Q0"":""dave is mentioning ruth""}","<img src='gifs/ChineseGender3a.gif' style='height:400px;''></img>","mention","is mentioning","english",NA
"null","<div style=""font-size:60px;"">+</div>",NA,"html-keyboard-response",115,492156,"0.0-13.0-0.11",16379,"ListB","man","english","EMB2",NA,NA,NA,"null",NA,NA,NA,NA,NA,NA
"null","<img src='gifs/MaleRace3a.gif' style='height:400px;''></img>",NA,"html-keyboard-response",116,494167,"0.0-13.0-1.11",16379,"ListB","man","english","EMB2",NA,NA,NA,"null",NA,NA,NA,NA,NA,NA
"null","is convincing",NA,"html-keyboard-response",117,497175,"0.0-13.0-2.11",16379,"ListB","man","english","EMB2",NA,NA,NA,"null",NA,NA,NA,NA,NA,NA
"6809.800000000750",NA,NA,"survey-text",118,503986,"0.0-13.0-3.11",16379,"ListB","man","english","EMB2",NA,NA,NA,NA,"{""Q0"":""dave is convincing fred""}","<img src='gifs/MaleRace3a.gif' style='height:400px;''></img>","convincing","is convincing","english",NA
"null","<div style=""font-size:60px;"">+</div>",NA,"html-keyboard-response",119,504491,"0.0-13.0-0.12",16379,"ListB","man","english","EMB2",NA,NA,NA,"null",NA,NA,NA,NA,NA,NA
"null","<img src='gifs/BlackGender4b.gif' style='height:400px;''></img>",NA,"html-keyboard-response",120,506499,"0.0-13.0-1.12",16379,"ListB","man","english","EMB2",NA,NA,NA,"null",NA,NA,NA,NA,NA,NA
"null","is following",NA,"html-keyboard-response",121,509502,"0.0-13.0-2.12",16379,"ListB","man","english","EMB2",NA,NA,NA,"null",NA,NA,NA,NA,NA,NA
"9281.700000002980",NA,NA,"survey-text",122,518784,"0.0-13.0-3.12",16379,"ListB","man","english","EMB2",NA,NA,NA,NA,"{""Q0"":""mike is following kate""}","<img src='gifs/BlackGender4b.gif' style='height:400px;''></img>","following","is following","english",NA
"null","<div style=""font-size:60px;"">+</div>",NA,"html-keyboard-response",123,519295,"0.0-13.0-0.13",16379,"ListB","man","english","EMB2",NA,NA,NA,"null",NA,NA,NA,NA,NA,NA
"null","<img src='gifs/ChineseGender3a.gif' style='height:400px;''></img>",NA,"html-keyboard-response",124,521300,"0.0-13.0-1.13",16379,"ListB","man","english","EMB2",NA,NA,NA,"null",NA,NA,NA,NA,NA,NA
"null","is following",NA,"html-keyboard-response",125,524311,"0.0-13.0-2.13",16379,"ListB","man","english","EMB2",NA,NA,NA,"null",NA,NA,NA,NA,NA,NA
"7977",NA,NA,"survey-text",126,532289,"0.0-13.0-3.13",16379,"ListB","man","english","EMB2",NA,NA,NA,NA,"{""Q0"":""ruth is following dave""}","<img src='gifs/ChineseGender3a.gif' style='height:400px;''></img>","following","is following","english",NA
"null","<div style=""font-size:60px;"">+</div>",NA,"html-keyboard-response",127,532794,"0.0-13.0-0.14",16379,"ListB","man","english","EMB2",NA,NA,NA,"null",NA,NA,NA,NA,NA,NA
"null","<img src='gifs/MaleRace2b.gif' style='height:400px;''></img>",NA,"html-keyboard-response",128,534798,"0.0-13.0-1.14",16379,"ListB","man","english","EMB2",NA,NA,NA,"null",NA,NA,NA,NA,NA,NA
"null","is listening to",NA,"html-keyboard-response",129,537806,"0.0-13.0-2.14",16379,"ListB","man","english","EMB2",NA,NA,NA,"null",NA,NA,NA,NA,NA,NA
"8000.600000001490",NA,NA,"survey-text",130,545807,"0.0-13.0-3.14",16379,"ListB","man","english","EMB2",NA,NA,NA,NA,"{""Q0"":""dave is listening to mike""}","<img src='gifs/MaleRace2b.gif' style='height:400px;''></img>","listening to","is listening to","english",NA
"null","<div style=""font-size:60px;"">+</div>",NA,"html-keyboard-response",131,546314,"0.0-13.0-0.15",16379,"ListB","man","english","EMB2",NA,NA,NA,"null",NA,NA,NA,NA,NA,NA
"null","<img src='gifs/FemaleRace4b.gif' style='height:400px;''></img>",NA,"html-keyboard-response",132,548325,"0.0-13.0-1.15",16379,"ListB","man","english","EMB2",NA,NA,NA,"null",NA,NA,NA,NA,NA,NA
"null","is looking at",NA,"html-keyboard-response",133,551341,"0.0-13.0-2.15",16379,"ListB","man","english","EMB2",NA,NA,NA,"null",NA,NA,NA,NA,NA,NA
"14633.0999999978",NA,NA,"survey-text",134,565974,"0.0-13.0-3.15",16379,"ListB","man","english","EMB2",NA,NA,NA,NA,"{""Q0"":""kate is looking at ruth""}","<img src='gifs/FemaleRace4b.gif' style='height:400px;''></img>","looking at","is looking at","english",NA
"null","<div style=""font-size:60px;"">+</div>",NA,"html-keyboard-response",135,566483,"0.0-13.0-0.16",16379,"ListB","man","english","EMB2",NA,NA,NA,"null",NA,NA,NA,NA,NA,NA
"null","<img src='gifs/MaleRace2b.gif' style='height:400px;''></img>",NA,"html-keyboard-response",136,568499,"0.0-13.0-1.16",16379,"ListB","man","english","EMB2",NA,NA,NA,"null",NA,NA,NA,NA,NA,NA
"null","is listening to",NA,"html-keyboard-response",137,571503,"0.0-13.0-2.16",16379,"ListB","man","english","EMB2",NA,NA,NA,"null",NA,NA,NA,NA,NA,NA
"6051.300000000750",NA,NA,"survey-text",138,577555,"0.0-13.0-3.16",16379,"ListB","man","english","EMB2",NA,NA,NA,NA,"{""Q0"":""dave is listening to mike""}","<img src='gifs/MaleRace2b.gif' style='height:400px;''></img>","listening to","is listening to","english",NA
"null","<div style=""font-size:60px;"">+</div>",NA,"html-keyboard-response",139,578067,"0.0-13.0-0.17",16379,"ListB","man","english","EMB2",NA,NA,NA,"null",NA,NA,NA,NA,NA,NA
"null","<img src='gifs/FemaleRace4a.gif' style='height:400px;''></img>",NA,"html-keyboard-response",140,580076,"0.0-13.0-1.17",16379,"ListB","man","english","EMB2",NA,NA,NA,"null",NA,NA,NA,NA,NA,NA
"null","is convincing",NA,"html-keyboard-response",141,583079,"0.0-13.0-2.17",16379,"ListB","man","english","EMB2",NA,NA,NA,"null",NA,NA,NA,NA,NA,NA
"7388.100000001490",NA,NA,"survey-text",142,590470,"0.0-13.0-3.17",16379,"ListB","man","english","EMB2",NA,NA,NA,NA,"{""Q0"":""ruth is convincing kate""}","<img src='gifs/FemaleRace4a.gif' style='height:400px;''></img>","convincing","is convincing","english",NA
"6109.399999998510","<img src='img/portrait_matrix_listB.jpg' style='width:900px;height:500px;''></img><p>If you have memorised all the portraits and names and are ready to start, press Continue.</p><p><strong>Please note: Your memory of these faces will be tested 5 times during this experiment.</strong></p>",0,"html-button-response",143,596580,"0.0-14.0-0.0",16379,"ListB","man","english","EMB2",NA,NA,NA,NA,NA,NA,NA,NA,NA,NA
"6627.399999998510","<img src=""portrait/BW1.jpg""style=""height:400px;""></img>",0,"html-button-response",144,604219,"0.0-14.0-1.0",16379,"ListB","man","english","EMB2",NA,TRUE,0,NA,NA,NA,NA,NA,NA,NA
"null","CORRECT",NA,"html-keyboard-response",145,605748,"0.0-14.0-2.0-0.0",16379,"ListB","man","english","EMB2",NA,NA,NA,"null",NA,NA,NA,NA,NA,NA
"1611.199999999260","<img src=""portrait/WW2.jpg""style=""height:400px;""></img>",3,"html-button-response",146,607361,"0.0-14.0-4.0",16379,"ListB","man","english","EMB2",NA,TRUE,3,NA,NA,NA,NA,NA,NA,NA
"null","CORRECT",NA,"html-keyboard-response",147,608863,"0.0-14.0-5.0-0.0",16379,"ListB","man","english","EMB2",NA,NA,NA,"null",NA,NA,NA,NA,NA,NA
"2264.100000001490","<img src=""portrait/BW2.jpg""style=""height:400px;""></img>",2,"html-button-response",148,611128,"0.0-14.0-7.0",16379,"ListB","man","english","EMB2",NA,TRUE,2,NA,NA,NA,NA,NA,NA,NA
"null","CORRECT",NA,"html-keyboard-response",149,612649,"0.0-14.0-8.0-0.0",16379,"ListB","man","english","EMB2",NA,NA,NA,"null",NA,NA,NA,NA,NA,NA
"1107.600000001490","<img src=""portrait/BM1.jpg""style=""height:400px;""></img>",4,"html-button-response",150,613757,"0.0-14.0-10.0",16379,"ListB","man","english","EMB2",NA,TRUE,4,NA,NA,NA,NA,NA,NA,NA
"null","CORRECT",NA,"html-keyboard-response",151,615265,"0.0-14.0-11.0-0.0",16379,"ListB","man","english","EMB2",NA,NA,NA,"null",NA,NA,NA,NA,NA,NA
"1159.5","<img src=""portrait/BM2.jpg""style=""height:400px;""></img>",5,"html-button-response",152,616426,"0.0-14.0-13.0",16379,"ListB","man","english","EMB2",NA,TRUE,5,NA,NA,NA,NA,NA,NA,NA
"null","CORRECT",NA,"html-keyboard-response",153,617930,"0.0-14.0-14.0-0.0",16379,"ListB","man","english","EMB2",NA,NA,NA,"null",NA,NA,NA,NA,NA,NA
"1633.5","<img src=""portrait/WM2.jpg""style=""height:400px;""></img>",7,"html-button-response",154,619564,"0.0-14.0-16.0",16379,"ListB","man","english","EMB2",NA,TRUE,7,NA,NA,NA,NA,NA,NA,NA
"null","CORRECT",NA,"html-keyboard-response",155,621073,"0.0-14.0-17.0-0.0",16379,"ListB","man","english","EMB2",NA,NA,NA,"null",NA,NA,NA,NA,NA,NA
"1932.699999999260","<img src=""portrait/WM1.jpg""style=""height:400px;""></img>",6,"html-button-response",156,623007,"0.0-14.0-19.0",16379,"ListB","man","english","EMB2",NA,TRUE,6,NA,NA,NA,NA,NA,NA,NA
"null","CORRECT",NA,"html-keyboard-response",157,624516,"0.0-14.0-20.0-0.0",16379,"ListB","man","english","EMB2",NA,NA,NA,"null",NA,NA,NA,NA,NA,NA
"1933.699999999260","<img src=""portrait/WW1.jpg""style=""height:400px;""></img>",1,"html-button-response",158,626450,"0.0-14.0-22.0",16379,"ListB","man","english","EMB2",NA,TRUE,1,NA,NA,NA,NA,NA,NA,NA
"null","CORRECT",NA,"html-keyboard-response",159,627955,"0.0-14.0-23.0-0.0",16379,"ListB","man","english","EMB2",NA,NA,NA,"null",NA,NA,NA,NA,NA,NA
"2968.300000000750","<p>You got 8 out of 8 right first time. Press Continue.</p>",0,"html-button-response",160,630924,"0.0-14.0-25.0",16379,"ListB","man","english","EMB2",NA,NA,NA,NA,NA,NA,NA,NA,NA,NA
"null","<div style=""font-size:60px;"">+</div>",NA,"html-keyboard-response",161,632425,"0.0-15.0-0.0",16379,"ListB","man","english","EMB2",NA,NA,NA,"null",NA,NA,NA,NA,NA,NA
"null","<img src='gifs/FemaleRace3b.gif' style='height:400px;''></img>",NA,"html-keyboard-response",162,634426,"0.0-15.0-1.0",16379,"ListB","man","english","EMB2",NA,NA,NA,"null",NA,NA,NA,NA,NA,NA
"null","is praising",NA,"html-keyboard-response",163,637441,"0.0-15.0-2.0",16379,"ListB","man","english","EMB2",NA,NA,NA,"null",NA,NA,NA,NA,NA,NA
"12063.1999999993",NA,NA,"survey-text",164,649505,"0.0-15.0-3.0",16379,"ListB","man","english","EMB2",NA,NA,NA,NA,"{""Q0"":""ruth is praising beth""}","<img src='gifs/FemaleRace3b.gif' style='height:400px;''></img>","praising","is praising","english",NA
"null","<div style=""font-size:60px;"">+</div>",NA,"html-keyboard-response",165,650014,"0.0-15.0-0.1",16379,"ListB","man","english","EMB2",NA,NA,NA,"null",NA,NA,NA,NA,NA,NA
"null","<img src='gifs/FemaleRace3a.gif' style='height:400px;''></img>",NA,"html-keyboard-response",166,652023,"0.0-15.0-1.1",16379,"ListB","man","english","EMB2",NA,NA,NA,"null",NA,NA,NA,NA,NA,NA
"null","is employing",NA,"html-keyboard-response",167,655026,"0.0-15.0-2.1",16379,"ListB","man","english","EMB2",NA,NA,NA,"null",NA,NA,NA,NA,NA,NA
"7742",NA,NA,"survey-text",168,662771,"0.0-15.0-3.1",16379,"ListB","man","english","EMB2",NA,NA,NA,NA,"{""Q0"":""ruth is employing beth""}","<img src='gifs/FemaleRace3a.gif' style='height:400px;''></img>","employing","is employing","english",NA
"null","<div style=""font-size:60px;"">+</div>",NA,"html-keyboard-response",169,663273,"0.0-15.0-0.2",16379,"ListB","man","english","EMB2",NA,NA,NA,"null",NA,NA,NA,NA,NA,NA
"null","<img src='gifs/BlackGender1b.gif' style='height:400px;''></img>",NA,"html-keyboard-response",170,665285,"0.0-15.0-1.2",16379,"ListB","man","english","EMB2",NA,NA,NA,"null",NA,NA,NA,NA,NA,NA
"null","is employing",NA,"html-keyboard-response",171,668289,"0.0-15.0-2.2",16379,"ListB","man","english","EMB2",NA,NA,NA,"null",NA,NA,NA,NA,NA,NA
"5926.5",NA,NA,"survey-text",172,674216,"0.0-15.0-3.2",16379,"ListB","man","english","EMB2",NA,NA,NA,NA,"{""Q0"":""fred is employing beth""}","<img src='gifs/BlackGender1b.gif' style='height:400px;''></img>","employing","is employing","english",NA
"null","<div style=""font-size:60px;"">+</div>",NA,"html-keyboard-response",173,674728,"0.0-15.0-0.3",16379,"ListB","man","english","EMB2",NA,NA,NA,"null",NA,NA,NA,NA,NA,NA
"null","<img src='gifs/BlackGender2a.gif' style='height:400px;''></img>",NA,"html-keyboard-response",174,676734,"0.0-15.0-1.3",16379,"ListB","man","english","EMB2",NA,NA,NA,"null",NA,NA,NA,NA,NA,NA
"null","is joining",NA,"html-keyboard-response",175,679741,"0.0-15.0-2.3",16379,"ListB","man","english","EMB2",NA,NA,NA,"null",NA,NA,NA,NA,NA,NA
"10517",NA,NA,"survey-text",176,690259,"0.0-15.0-3.3",16379,"ListB","man","english","EMB2",NA,NA,NA,NA,"{""Q0"":""mike is joining beth""}","<img src='gifs/BlackGender2a.gif' style='height:400px;''></img>","join","is joining","english",NA
"null","<div style=""font-size:60px;"">+</div>",NA,"html-keyboard-response",177,690772,"0.0-15.0-0.4",16379,"ListB","man","english","EMB2",NA,NA,NA,"null",NA,NA,NA,NA,NA,NA
"null","<img src='gifs/FemaleRace4a.gif' style='height:400px;''></img>",NA,"html-keyboard-response",178,692777,"0.0-15.0-1.4",16379,"ListB","man","english","EMB2",NA,NA,NA,"null",NA,NA,NA,NA,NA,NA
"null","is approaching",NA,"html-keyboard-response",179,695791,"0.0-15.0-2.4",16379,"ListB","man","english","EMB2",NA,NA,NA,"null",NA,NA,NA,NA,NA,NA
"20137.799999997",NA,NA,"survey-text",180,715929,"0.0-15.0-3.4",16379,"ListB","man","english","EMB2",NA,NA,NA,NA,"{""Q0"":""ruth is approaching kate""}","<img src='gifs/FemaleRace4a.gif' style='height:400px;''></img>","approaching","is approaching","english",NA
"null","<div style=""font-size:60px;"">+</div>",NA,"html-keyboard-response",181,716443,"0.0-15.0-0.5",16379,"ListB","man","english","EMB2",NA,NA,NA,"null",NA,NA,NA,NA,NA,NA
"null","<img src='gifs/FemaleRace1a.gif' style='height:400px;''></img>",NA,"html-keyboard-response",182,718444,"0.0-15.0-1.5",16379,"ListB","man","english","EMB2",NA,NA,NA,"null",NA,NA,NA,NA,NA,NA
"null","is touching",NA,"html-keyboard-response",183,721456,"0.0-15.0-2.5",16379,"ListB","man","english","EMB2",NA,NA,NA,"null",NA,NA,NA,NA,NA,NA
"4276.599999997770",NA,NA,"survey-text",184,725734,"0.0-15.0-3.5",16379,"ListB","man","english","EMB2",NA,NA,NA,NA,"{""Q0"":""jane is touching beth""}","<img src='gifs/FemaleRace1a.gif' style='height:400px;''></img>","touching","is touching","english",NA
"null","<div style=""font-size:60px;"">+</div>",NA,"html-keyboard-response",185,726234,"0.0-15.0-0.6",16379,"ListB","man","english","EMB2",NA,NA,NA,"null",NA,NA,NA,NA,NA,NA
"null","<img src='gifs/BlackGender4a.gif' style='height:400px;''></img>",NA,"html-keyboard-response",186,728236,"0.0-15.0-1.6",16379,"ListB","man","english","EMB2",NA,NA,NA,"null",NA,NA,NA,NA,NA,NA
"null","is touching",NA,"html-keyboard-response",187,731245,"0.0-15.0-2.6",16379,"ListB","man","english","EMB2",NA,NA,NA,"null",NA,NA,NA,NA,NA,NA
"3310.300000000750",NA,NA,"survey-text",188,734559,"0.0-15.0-3.6",16379,"ListB","man","english","EMB2",NA,NA,NA,NA,"{""Q0"":""mike is touching kate""}","<img src='gifs/BlackGender4a.gif' style='height:400px;''></img>","touching","is touching","english",NA
"null","<div style=""font-size:60px;"">+</div>",NA,"html-keyboard-response",189,735061,"0.0-15.0-0.7",16379,"ListB","man","english","EMB2",NA,NA,NA,"null",NA,NA,NA,NA,NA,NA
"null","<img src='gifs/FemaleRace1b.gif' style='height:400px;''></img>",NA,"html-keyboard-response",190,737062,"0.0-15.0-1.7",16379,"ListB","man","english","EMB2",NA,NA,NA,"null",NA,NA,NA,NA,NA,NA
"null","is joining",NA,"html-keyboard-response",191,740065,"0.0-15.0-2.7",16379,"ListB","man","english","EMB2",NA,NA,NA,"null",NA,NA,NA,NA,NA,NA
"6170.700000002980",NA,NA,"survey-text",192,746237,"0.0-15.0-3.7",16379,"ListB","man","english","EMB2",NA,NA,NA,NA,"{""Q0"":""jane is joining beth""}","<img src='gifs/FemaleRace1b.gif' style='height:400px;''></img>","join","is joining","english",NA
"null","<div style=""font-size:60px;"">+</div>",NA,"html-keyboard-response",193,746747,"0.0-15.0-0.8",16379,"ListB","man","english","EMB2",NA,NA,NA,"null",NA,NA,NA,NA,NA,NA
"null","<img src='gifs/MaleRace4a.gif' style='height:400px;''></img>",NA,"html-keyboard-response",194,748754,"0.0-15.0-1.8",16379,"ListB","man","english","EMB2",NA,NA,NA,"null",NA,NA,NA,NA,NA,NA
"null","is convincing",NA,"html-keyboard-response",195,751764,"0.0-15.0-2.8",16379,"ListB","man","english","EMB2",NA,NA,NA,"null",NA,NA,NA,NA,NA,NA
"8072.5",NA,NA,"survey-text",196,759837,"0.0-15.0-3.8",16379,"ListB","man","english","EMB2",NA,NA,NA,NA,"{""Q0"":""dave is convincing mike""}","<img src='gifs/MaleRace4a.gif' style='height:400px;''></img>","convincing","is convincing","english",NA
"null","<div style=""font-size:60px;"">+</div>",NA,"html-keyboard-response",197,760345,"0.0-15.0-0.9",16379,"ListB","man","english","EMB2",NA,NA,NA,"null",NA,NA,NA,NA,NA,NA
"null","<img src='gifs/ChineseGender4a.gif' style='height:400px;''></img>",NA,"html-keyboard-response",198,762345,"0.0-15.0-1.9",16379,"ListB","man","english","EMB2",NA,NA,NA,"null",NA,NA,NA,NA,NA,NA
"null","is looking at",NA,"html-keyboard-response",199,765360,"0.0-15.0-2.9",16379,"ListB","man","english","EMB2",NA,NA,NA,"null",NA,NA,NA,NA,NA,NA
"5901.699999999260",NA,NA,"survey-text",200,771266,"0.0-15.0-3.9",16379,"ListB","man","english","EMB2",NA,NA,NA,NA,"{""Q0"":""dave is looking at jane""}","<img src='gifs/ChineseGender4a.gif' style='height:400px;''></img>","looking at","is looking at","english",NA
"null","<div style=""font-size:60px;"">+</div>",NA,"html-keyboard-response",201,771779,"0.0-15.0-0.10",16379,"ListB","man","english","EMB2",NA,NA,NA,"null",NA,NA,NA,NA,NA,NA
"null","<img src='gifs/BlackGender2b.gif' style='height:400px;''></img>",NA,"html-keyboard-response",202,773788,"0.0-15.0-1.10",16379,"ListB","man","english","EMB2",NA,NA,NA,"null",NA,NA,NA,NA,NA,NA
"null","is walking towards",NA,"html-keyboard-response",203,776803,"0.0-15.0-2.10",16379,"ListB","man","english","EMB2",NA,NA,NA,"null",NA,NA,NA,NA,NA,NA
"8148.399999998510",NA,NA,"survey-text",204,784954,"0.0-15.0-3.10",16379,"ListB","man","english","EMB2",NA,NA,NA,NA,"{""Q0"":""mike is walking towards beth""}","<img src='gifs/BlackGender2b.gif' style='height:400px;''></img>","walking towards","is walking towards","english",NA
"null","<div style=""font-size:60px;"">+</div>",NA,"html-keyboard-response",205,785460,"0.0-15.0-0.11",16379,"ListB","man","english","EMB2",NA,NA,NA,"null",NA,NA,NA,NA,NA,NA
"null","<img src='gifs/BlackGender1b.gif' style='height:400px;''></img>",NA,"html-keyboard-response",206,787467,"0.0-15.0-1.11",16379,"ListB","man","english","EMB2",NA,NA,NA,"null",NA,NA,NA,NA,NA,NA
"null","is looking at",NA,"html-keyboard-response",207,790471,"0.0-15.0-2.11",16379,"ListB","man","english","EMB2",NA,NA,NA,"null",NA,NA,NA,NA,NA,NA
"7596.099999997770",NA,NA,"survey-text",208,798070,"0.0-15.0-3.11",16379,"ListB","man","english","EMB2",NA,NA,NA,NA,"{""Q0"":""beth is looking at fred""}","<img src='gifs/BlackGender1b.gif' style='height:400px;''></img>","looking at","is looking at","english",NA
"null","<div style=""font-size:60px;"">+</div>",NA,"html-keyboard-response",209,798578,"0.0-15.0-0.12",16379,"ListB","man","english","EMB2",NA,NA,NA,"null",NA,NA,NA,NA,NA,NA
"null","<img src='gifs/MaleRace2a.gif' style='height:400px;''></img>",NA,"html-keyboard-response",210,800583,"0.0-15.0-1.12",16379,"ListB","man","english","EMB2",NA,NA,NA,"null",NA,NA,NA,NA,NA,NA
"null","is looking at",NA,"html-keyboard-response",211,803587,"0.0-15.0-2.12",16379,"ListB","man","english","EMB2",NA,NA,NA,"null",NA,NA,NA,NA,NA,NA
"5696.100000001490",NA,NA,"survey-text",212,809284,"0.0-15.0-3.12",16379,"ListB","man","english","EMB2",NA,NA,NA,NA,"{""Q0"":""mike is looking at luke""}","<img src='gifs/MaleRace2a.gif' style='height:400px;''></img>","looking at","is looking at","english",NA
"null","<div style=""font-size:60px;"">+</div>",NA,"html-keyboard-response",213,809791,"0.0-15.0-0.13",16379,"ListB","man","english","EMB2",NA,NA,NA,"null",NA,NA,NA,NA,NA,NA
"null","<img src='gifs/BlackGender1a.gif' style='height:400px;''></img>",NA,"html-keyboard-response",214,811799,"0.0-15.0-1.13",16379,"ListB","man","english","EMB2",NA,NA,NA,"null",NA,NA,NA,NA,NA,NA
"null","is facing",NA,"html-keyboard-response",215,814803,"0.0-15.0-2.13",16379,"ListB","man","english","EMB2",NA,NA,NA,"null",NA,NA,NA,NA,NA,NA
"4109.300000000750",NA,NA,"survey-text",216,818914,"0.0-15.0-3.13",16379,"ListB","man","english","EMB2",NA,NA,NA,NA,"{""Q0"":""beth is facing fred""}","<img src='gifs/BlackGender1a.gif' style='height:400px;''></img>","facing","is facing","english",NA
"null","<div style=""font-size:60px;"">+</div>",NA,"html-keyboard-response",217,819421,"0.0-15.0-0.14",16379,"ListB","man","english","EMB2",NA,NA,NA,"null",NA,NA,NA,NA,NA,NA
"null","<img src='gifs/ChineseGender2a.gif' style='height:400px;''></img>",NA,"html-keyboard-response",218,821429,"0.0-15.0-1.14",16379,"ListB","man","english","EMB2",NA,NA,NA,"null",NA,NA,NA,NA,NA,NA
"null","is joining",NA,"html-keyboard-response",219,824433,"0.0-15.0-2.14",16379,"ListB","man","english","EMB2",NA,NA,NA,"null",NA,NA,NA,NA,NA,NA
"4909.400000002240",NA,NA,"survey-text",220,829346,"0.0-15.0-3.14",16379,"ListB","man","english","EMB2",NA,NA,NA,NA,"{""Q0"":""ruth is joining luke""}","<img src='gifs/ChineseGender2a.gif' style='height:400px;''></img>","join","is joining","english",NA
"null","<div style=""font-size:60px;"">+</div>",NA,"html-keyboard-response",221,829847,"0.0-15.0-0.15",16379,"ListB","man","english","EMB2",NA,NA,NA,"null",NA,NA,NA,NA,NA,NA
"null","<img src='gifs/ChineseGender1b.gif' style='height:400px;''></img>",NA,"html-keyboard-response",222,831861,"0.0-15.0-1.15",16379,"ListB","man","english","EMB2",NA,NA,NA,"null",NA,NA,NA,NA,NA,NA
"null","is touching",NA,"html-keyboard-response",223,834866,"0.0-15.0-2.15",16379,"ListB","man","english","EMB2",NA,NA,NA,"null",NA,NA,NA,NA,NA,NA
"6378.099999997770",NA,NA,"survey-text",224,841245,"0.0-15.0-3.15",16379,"ListB","man","english","EMB2",NA,NA,NA,NA,"{""Q0"":""jane is touching luke""}","<img src='gifs/ChineseGender1b.gif' style='height:400px;''></img>","touching","is touching","english",NA
"null","<div style=""font-size:60px;"">+</div>",NA,"html-keyboard-response",225,841749,"0.0-15.0-0.16",16379,"ListB","man","english","EMB2",NA,NA,NA,"null",NA,NA,NA,NA,NA,NA
"null","<img src='gifs/MaleRace1b.gif' style='height:400px;''></img>",NA,"html-keyboard-response",226,843758,"0.0-15.0-1.16",16379,"ListB","man","english","EMB2",NA,NA,NA,"null",NA,NA,NA,NA,NA,NA
"null","is accompanying",NA,"html-keyboard-response",227,846770,"0.0-15.0-2.16",16379,"ListB","man","english","EMB2",NA,NA,NA,"null",NA,NA,NA,NA,NA,NA
"18991.1000000015",NA,NA,"survey-text",228,865762,"0.0-15.0-3.16",16379,"ListB","man","english","EMB2",NA,NA,NA,NA,"{""Q0"":""fred is accompanying luke""}","<img src='gifs/MaleRace1b.gif' style='height:400px;''></img>","accompanying","is accompanying","english",NA
"null","<div style=""font-size:60px;"">+</div>",NA,"html-keyboard-response",229,866270,"0.0-15.0-0.17",16379,"ListB","man","english","EMB2",NA,NA,NA,"null",NA,NA,NA,NA,NA,NA
"null","<img src='gifs/BlackGender3a.gif' style='height:400px;''></img>",NA,"html-keyboard-response",230,868275,"0.0-15.0-1.17",16379,"ListB","man","english","EMB2",NA,NA,NA,"null",NA,NA,NA,NA,NA,NA
"null","is mentioning",NA,"html-keyboard-response",231,871280,"0.0-15.0-2.17",16379,"ListB","man","english","EMB2",NA,NA,NA,"null",NA,NA,NA,NA,NA,NA
"7869.099999997770",NA,NA,"survey-text",232,879152,"0.0-15.0-3.17",16379,"ListB","man","english","EMB2",NA,NA,NA,NA,"{""Q0"":""kate is mentioning fred""}","<img src='gifs/BlackGender3a.gif' style='height:400px;''></img>","mention","is mentioning","english",NA
"7886.699999999260","<img src='img/portrait_matrix_listB.jpg' style='width:900px;height:500px;''></img><p>If you have memorised all the portraits and names and are ready to start, press Continue.</p><p><strong>Please note: Your memory of these faces will be tested 5 times during this experiment.</strong></p>",0,"html-button-response",233,887039,"0.0-16.0-0.0",16379,"ListB","man","english","EMB2",NA,NA,NA,NA,NA,NA,NA,NA,NA,NA
"5240.399999998510","<img src=""portrait/WM2.jpg""style=""height:400px;""></img>",7,"html-button-response",234,893286,"0.0-16.0-1.0",16379,"ListB","man","english","EMB2",NA,TRUE,7,NA,NA,NA,NA,NA,NA,NA
"null","CORRECT",NA,"html-keyboard-response",235,894807,"0.0-16.0-2.0-0.0",16379,"ListB","man","english","EMB2",NA,NA,NA,"null",NA,NA,NA,NA,NA,NA
"1090.5","<img src=""portrait/BM1.jpg""style=""height:400px;""></img>",4,"html-button-response",236,895899,"0.0-16.0-4.0",16379,"ListB","man","english","EMB2",NA,TRUE,4,NA,NA,NA,NA,NA,NA,NA
"null","CORRECT",NA,"html-keyboard-response",237,897414,"0.0-16.0-5.0-0.0",16379,"ListB","man","english","EMB2",NA,NA,NA,"null",NA,NA,NA,NA,NA,NA
"1110","<img src=""portrait/WW2.jpg""style=""height:400px;""></img>",3,"html-button-response",238,898525,"0.0-16.0-7.0",16379,"ListB","man","english","EMB2",NA,TRUE,3,NA,NA,NA,NA,NA,NA,NA
"null","CORRECT",NA,"html-keyboard-response",239,900044,"0.0-16.0-8.0-0.0",16379,"ListB","man","english","EMB2",NA,NA,NA,"null",NA,NA,NA,NA,NA,NA
"2876","<img src=""portrait/BM2.jpg""style=""height:400px;""></img>",5,"html-button-response",240,902920,"0.0-16.0-10.0",16379,"ListB","man","english","EMB2",NA,TRUE,5,NA,NA,NA,NA,NA,NA,NA
"null","CORRECT",NA,"html-keyboard-response",241,904434,"0.0-16.0-11.0-0.0",16379,"ListB","man","english","EMB2",NA,NA,NA,"null",NA,NA,NA,NA,NA,NA
"1980.899999998510","<img src=""portrait/BW1.jpg""style=""height:400px;""></img>",0,"html-button-response",242,906416,"0.0-16.0-13.0",16379,"ListB","man","english","EMB2",NA,TRUE,0,NA,NA,NA,NA,NA,NA,NA
"null","CORRECT",NA,"html-keyboard-response",243,907934,"0.0-16.0-14.0-0.0",16379,"ListB","man","english","EMB2",NA,NA,NA,"null",NA,NA,NA,NA,NA,NA
"1743.100000001490","<img src=""portrait/WM1.jpg""style=""height:400px;""></img>",6,"html-button-response",244,909677,"0.0-16.0-16.0",16379,"ListB","man","english","EMB2",NA,TRUE,6,NA,NA,NA,NA,NA,NA,NA
"null","CORRECT",NA,"html-keyboard-response",245,911187,"0.0-16.0-17.0-0.0",16379,"ListB","man","english","EMB2",NA,NA,NA,"null",NA,NA,NA,NA,NA,NA
"1403.5","<img src=""portrait/BW2.jpg""style=""height:400px;""></img>",2,"html-button-response",246,912591,"0.0-16.0-19.0",16379,"ListB","man","english","EMB2",NA,TRUE,2,NA,NA,NA,NA,NA,NA,NA
"null","CORRECT",NA,"html-keyboard-response",247,914105,"0.0-16.0-20.0-0.0",16379,"ListB","man","english","EMB2",NA,NA,NA,"null",NA,NA,NA,NA,NA,NA
"961.399999998510","<img src=""portrait/WW1.jpg""style=""height:400px;""></img>",1,"html-button-response",248,915067,"0.0-16.0-22.0",16379,"ListB","man","english","EMB2",NA,TRUE,1,NA,NA,NA,NA,NA,NA,NA
"null","CORRECT",NA,"html-keyboard-response",249,916583,"0.0-16.0-23.0-0.0",16379,"ListB","man","english","EMB2",NA,NA,NA,"null",NA,NA,NA,NA,NA,NA
"1528","<p>You got 8 out of 8 right first time. Press Continue.</p>",0,"html-button-response",250,918112,"0.0-16.0-25.0",16379,"ListB","man","english","EMB2",NA,NA,NA,NA,NA,NA,NA,NA,NA,NA
"null","<div style=""font-size:60px;"">+</div>",NA,"html-keyboard-response",251,919625,"0.0-17.0-0.0",16379,"ListB","man","english","EMB2",NA,NA,NA,"null",NA,NA,NA,NA,NA,NA
"null","<img src='gifs/ChineseGender2b.gif' style='height:400px;''></img>",NA,"html-keyboard-response",252,921633,"0.0-17.0-1.0",16379,"ListB","man","english","EMB2",NA,NA,NA,"null",NA,NA,NA,NA,NA,NA
"null","is contacting",NA,"html-keyboard-response",253,924638,"0.0-17.0-2.0",16379,"ListB","man","english","EMB2",NA,NA,NA,"null",NA,NA,NA,NA,NA,NA
"7159.600000001490",NA,NA,"survey-text",254,931801,"0.0-17.0-3.0",16379,"ListB","man","english","EMB2",NA,NA,NA,NA,"{""Q0"":""ruth is contacting luke ""}","<img src='gifs/ChineseGender2b.gif' style='height:400px;''></img>","contacting","is contacting","english",NA
"null","<div style=""font-size:60px;"">+</div>",NA,"html-keyboard-response",255,932316,"0.0-17.0-0.1",16379,"ListB","man","english","EMB2",NA,NA,NA,"null",NA,NA,NA,NA,NA,NA
"null","<img src='gifs/BlackGender3a.gif' style='height:400px;''></img>",NA,"html-keyboard-response",256,934328,"0.0-17.0-1.1",16379,"ListB","man","english","EMB2",NA,NA,NA,"null",NA,NA,NA,NA,NA,NA
"null","is accompanying",NA,"html-keyboard-response",257,937334,"0.0-17.0-2.1",16379,"ListB","man","english","EMB2",NA,NA,NA,"null",NA,NA,NA,NA,NA,NA
"11496.5999999978",NA,NA,"survey-text",258,948832,"0.0-17.0-3.1",16379,"ListB","man","english","EMB2",NA,NA,NA,NA,"{""Q0"":""fred is accompanying kate""}","<img src='gifs/BlackGender3a.gif' style='height:400px;''></img>","accompanying","is accompanying","english",NA
"null","<div style=""font-size:60px;"">+</div>",NA,"html-keyboard-response",259,949346,"0.0-17.0-0.2",16379,"ListB","man","english","EMB2",NA,NA,NA,"null",NA,NA,NA,NA,NA,NA
"null","<img src='gifs/ChineseGender4a.gif' style='height:400px;''></img>",NA,"html-keyboard-response",260,951351,"0.0-17.0-1.2",16379,"ListB","man","english","EMB2",NA,NA,NA,"null",NA,NA,NA,NA,NA,NA
"null","is walking towards",NA,"html-keyboard-response",261,954366,"0.0-17.0-2.2",16379,"ListB","man","english","EMB2",NA,NA,NA,"null",NA,NA,NA,NA,NA,NA
"9679.800000000751",NA,NA,"survey-text",262,964047,"0.0-17.0-3.2",16379,"ListB","man","english","EMB2",NA,NA,NA,NA,"{""Q0"":""jane is walking towards dave""}","<img src='gifs/ChineseGender4a.gif' style='height:400px;''></img>","walking towards","is walking towards","english",NA
"null","<div style=""font-size:60px;"">+</div>",NA,"html-keyboard-response",263,964555,"0.0-17.0-0.3",16379,"ListB","man","english","EMB2",NA,NA,NA,"null",NA,NA,NA,NA,NA,NA
"null","<img src='gifs/BlackGender4a.gif' style='height:400px;''></img>",NA,"html-keyboard-response",264,966563,"0.0-17.0-1.3",16379,"ListB","man","english","EMB2",NA,NA,NA,"null",NA,NA,NA,NA,NA,NA
"null","is facing",NA,"html-keyboard-response",265,969570,"0.0-17.0-2.3",16379,"ListB","man","english","EMB2",NA,NA,NA,"null",NA,NA,NA,NA,NA,NA
"4773.800000000750",NA,NA,"survey-text",266,974347,"0.0-17.0-3.3",16379,"ListB","man","english","EMB2",NA,NA,NA,NA,"{""Q0"":""mike is facing kate""}","<img src='gifs/BlackGender4a.gif' style='height:400px;''></img>","facing","is facing","english",NA
"null","<div style=""font-size:60px;"">+</div>",NA,"html-keyboard-response",267,974854,"0.0-17.0-0.4",16379,"ListB","man","english","EMB2",NA,NA,NA,"null",NA,NA,NA,NA,NA,NA
"null","<img src='gifs/FemaleRace2a.gif' style='height:400px;''></img>",NA,"html-keyboard-response",268,976866,"0.0-17.0-1.4",16379,"ListB","man","english","EMB2",NA,NA,NA,"null",NA,NA,NA,NA,NA,NA
"null","is mentioning",NA,"html-keyboard-response",269,979881,"0.0-17.0-2.4",16379,"ListB","man","english","EMB2",NA,NA,NA,"null",NA,NA,NA,NA,NA,NA
"8482.800000000751",NA,NA,"survey-text",270,988364,"0.0-17.0-3.4",16379,"ListB","man","english","EMB2",NA,NA,NA,NA,"{""Q0"":""kate is mentioning jane""}","<img src='gifs/FemaleRace2a.gif' style='height:400px;''></img>","mention","is mentioning","english",NA
"null","<div style=""font-size:60px;"">+</div>",NA,"html-keyboard-response",271,988873,"0.0-17.0-0.5",16379,"ListB","man","english","EMB2",NA,NA,NA,"null",NA,NA,NA,NA,NA,NA
"null","<img src='gifs/BlackGender1a.gif' style='height:400px;''></img>",NA,"html-keyboard-response",272,990885,"0.0-17.0-1.5",16379,"ListB","man","english","EMB2",NA,NA,NA,"null",NA,NA,NA,NA,NA,NA
"null","is accompanying",NA,"html-keyboard-response",273,993897,"0.0-17.0-2.5",16379,"ListB","man","english","EMB2",NA,NA,NA,"null",NA,NA,NA,NA,NA,NA
"6932.599999997770",NA,NA,"survey-text",274,1000830,"0.0-17.0-3.5",16379,"ListB","man","english","EMB2",NA,NA,NA,NA,"{""Q0"":""fred is accompanying beth""}","<img src='gifs/BlackGender1a.gif' style='height:400px;''></img>","accompanying","is accompanying","english",NA
"null","<div style=""font-size:60px;"">+</div>",NA,"html-keyboard-response",275,1001346,"0.0-17.0-0.6",16379,"ListB","man","english","EMB2",NA,NA,NA,"null",NA,NA,NA,NA,NA,NA
"null","<img src='gifs/ChineseGender2b.gif' style='height:400px;''></img>",NA,"html-keyboard-response",276,1003350,"0.0-17.0-1.6",16379,"ListB","man","english","EMB2",NA,NA,NA,"null",NA,NA,NA,NA,NA,NA
"null","is promising",NA,"html-keyboard-response",277,1006361,"0.0-17.0-2.6",16379,"ListB","man","english","EMB2",NA,NA,NA,"null",NA,NA,NA,NA,NA,NA
"5594.099999997770",NA,NA,"survey-text",278,1011955,"0.0-17.0-3.6",16379,"ListB","man","english","EMB2",NA,NA,NA,NA,"{""Q0"":""luke is promising ruth""}","<img src='gifs/ChineseGender2b.gif' style='height:400px;''></img>","promising","is promising","english",NA
"null","<div style=""font-size:60px;"">+</div>",NA,"html-keyboard-response",279,1012461,"0.0-17.0-0.7",16379,"ListB","man","english","EMB2",NA,NA,NA,"null",NA,NA,NA,NA,NA,NA
"null","<img src='gifs/BlackGender2b.gif' style='height:400px;''></img>",NA,"html-keyboard-response",280,1014470,"0.0-17.0-1.7",16379,"ListB","man","english","EMB2",NA,NA,NA,"null",NA,NA,NA,NA,NA,NA
"null","is approaching",NA,"html-keyboard-response",281,1017480,"0.0-17.0-2.7",16379,"ListB","man","english","EMB2",NA,NA,NA,"null",NA,NA,NA,NA,NA,NA
"8403.699999999260",NA,NA,"survey-text",282,1025888,"0.0-17.0-3.7",16379,"ListB","man","english","EMB2",NA,NA,NA,NA,"{""Q0"":""beth is approaching mike""}","<img src='gifs/BlackGender2b.gif' style='height:400px;''></img>","approaching","is approaching","english",NA
"null","<div style=""font-size:60px;"">+</div>",NA,"html-keyboard-response",283,1026403,"0.0-17.0-0.8",16379,"ListB","man","english","EMB2",NA,NA,NA,"null",NA,NA,NA,NA,NA,NA
"null","<img src='gifs/ChineseGender2a.gif' style='height:400px;''></img>",NA,"html-keyboard-response",284,1028411,"0.0-17.0-1.8",16379,"ListB","man","english","EMB2",NA,NA,NA,"null",NA,NA,NA,NA,NA,NA
"null","is praising",NA,"html-keyboard-response",285,1031412,"0.0-17.0-2.8",16379,"ListB","man","english","EMB2",NA,NA,NA,"null",NA,NA,NA,NA,NA,NA
"5303.700000002980",NA,NA,"survey-text",286,1036717,"0.0-17.0-3.8",16379,"ListB","man","english","EMB2",NA,NA,NA,NA,"{""Q0"":""ruth is praising luke""}","<img src='gifs/ChineseGender2a.gif' style='height:400px;''></img>","praising","is praising","english",NA
"null","<div style=""font-size:60px;"">+</div>",NA,"html-keyboard-response",287,1037232,"0.0-17.0-0.9",16379,"ListB","man","english","EMB2",NA,NA,NA,"null",NA,NA,NA,NA,NA,NA
"null","<img src='gifs/ChineseGender3b.gif' style='height:400px;''></img>",NA,"html-keyboard-response",288,1039243,"0.0-17.0-1.9",16379,"ListB","man","english","EMB2",NA,NA,NA,"null",NA,NA,NA,NA,NA,NA
"null","is facing",NA,"html-keyboard-response",289,1042246,"0.0-17.0-2.9",16379,"ListB","man","english","EMB2",NA,NA,NA,"null",NA,NA,NA,NA,NA,NA
"8933.199999999260",NA,NA,"survey-text",290,1051180,"0.0-17.0-3.9",16379,"ListB","man","english","EMB2",NA,NA,NA,NA,"{""Q0"":""dave is facing ruth""}","<img src='gifs/ChineseGender3b.gif' style='height:400px;''></img>","facing","is facing","english",NA
"null","<div style=""font-size:60px;"">+</div>",NA,"html-keyboard-response",291,1051693,"0.0-17.0-0.10",16379,"ListB","man","english","EMB2",NA,NA,NA,"null",NA,NA,NA,NA,NA,NA
"null","<img src='gifs/MaleRace3b.gif' style='height:400px;''></img>",NA,"html-keyboard-response",292,1053694,"0.0-17.0-1.10",16379,"ListB","man","english","EMB2",NA,NA,NA,"null",NA,NA,NA,NA,NA,NA
"null","is joining",NA,"html-keyboard-response",293,1056699,"0.0-17.0-2.10",16379,"ListB","man","english","EMB2",NA,NA,NA,"null",NA,NA,NA,NA,NA,NA
"8193.699999999260",NA,NA,"survey-text",294,1064895,"0.0-17.0-3.10",16379,"ListB","man","english","EMB2",NA,NA,NA,NA,"{""Q0"":""fred is joining dave""}","<img src='gifs/MaleRace3b.gif' style='height:400px;''></img>","join","is joining","english",NA
"null","<div style=""font-size:60px;"">+</div>",NA,"html-keyboard-response",295,1065399,"0.0-17.0-0.11",16379,"ListB","man","english","EMB2",NA,NA,NA,"null",NA,NA,NA,NA,NA,NA
"null","<img src='gifs/FemaleRace3b.gif' style='height:400px;''></img>",NA,"html-keyboard-response",296,1067407,"0.0-17.0-1.11",16379,"ListB","man","english","EMB2",NA,NA,NA,"null",NA,NA,NA,NA,NA,NA
"null","is listening to",NA,"html-keyboard-response",297,1070416,"0.0-17.0-2.11",16379,"ListB","man","english","EMB2",NA,NA,NA,"null",NA,NA,NA,NA,NA,NA
"9963.699999999260",NA,NA,"survey-text",298,1080381,"0.0-17.0-3.11",16379,"ListB","man","english","EMB2",NA,NA,NA,NA,"{""Q0"":""beth is listening to ruth""}","<img src='gifs/FemaleRace3b.gif' style='height:400px;''></img>","listening to","is listening to","english",NA
"null","<div style=""font-size:60px;"">+</div>",NA,"html-keyboard-response",299,1080888,"0.0-17.0-0.12",16379,"ListB","man","english","EMB2",NA,NA,NA,"null",NA,NA,NA,NA,NA,NA
"null","<img src='gifs/MaleRace4a.gif' style='height:400px;''></img>",NA,"html-keyboard-response",300,1082897,"0.0-17.0-1.12",16379,"ListB","man","english","EMB2",NA,NA,NA,"null",NA,NA,NA,NA,NA,NA
"null","is praising",NA,"html-keyboard-response",301,1085908,"0.0-17.0-2.12",16379,"ListB","man","english","EMB2",NA,NA,NA,"null",NA,NA,NA,NA,NA,NA
"4356.900000002240",NA,NA,"survey-text",302,1090265,"0.0-17.0-3.12",16379,"ListB","man","english","EMB2",NA,NA,NA,NA,"{""Q0"":""mike is praising dave""}","<img src='gifs/MaleRace4a.gif' style='height:400px;''></img>","praising","is praising","english",NA
"null","<div style=""font-size:60px;"">+</div>",NA,"html-keyboard-response",303,1090774,"0.0-17.0-0.13",16379,"ListB","man","english","EMB2",NA,NA,NA,"null",NA,NA,NA,NA,NA,NA
"null","<img src='gifs/FemaleRace2a.gif' style='height:400px;''></img>",NA,"html-keyboard-response",304,1092779,"0.0-17.0-1.13",16379,"ListB","man","english","EMB2",NA,NA,NA,"null",NA,NA,NA,NA,NA,NA
"null","is contacting",NA,"html-keyboard-response",305,1095785,"0.0-17.0-2.13",16379,"ListB","man","english","EMB2",NA,NA,NA,"null",NA,NA,NA,NA,NA,NA
"4574.700000002980",NA,NA,"survey-text",306,1100360,"0.0-17.0-3.13",16379,"ListB","man","english","EMB2",NA,NA,NA,NA,"{""Q0"":""jane is contacting kate""}","<img src='gifs/FemaleRace2a.gif' style='height:400px;''></img>","contacting","is contacting","english",NA
"null","<div style=""font-size:60px;"">+</div>",NA,"html-keyboard-response",307,1100866,"0.0-17.0-0.14",16379,"ListB","man","english","EMB2",NA,NA,NA,"null",NA,NA,NA,NA,NA,NA
"null","<img src='gifs/ChineseGender1a.gif' style='height:400px;''></img>",NA,"html-keyboard-response",308,1102882,"0.0-17.0-1.14",16379,"ListB","man","english","EMB2",NA,NA,NA,"null",NA,NA,NA,NA,NA,NA
"null","is approaching",NA,"html-keyboard-response",309,1105898,"0.0-17.0-2.14",16379,"ListB","man","english","EMB2",NA,NA,NA,"null",NA,NA,NA,NA,NA,NA
"6437.900000002240",NA,NA,"survey-text",310,1112337,"0.0-17.0-3.14",16379,"ListB","man","english","EMB2",NA,NA,NA,NA,"{""Q0"":""luke is approaching jane""}","<img src='gifs/ChineseGender1a.gif' style='height:400px;''></img>","approaching","is approaching","english",NA
"null","<div style=""font-size:60px;"">+</div>",NA,"html-keyboard-response",311,1112843,"0.0-17.0-0.15",16379,"ListB","man","english","EMB2",NA,NA,NA,"null",NA,NA,NA,NA,NA,NA
"null","<img src='gifs/MaleRace4b.gif' style='height:400px;''></img>",NA,"html-keyboard-response",312,1114846,"0.0-17.0-1.15",16379,"ListB","man","english","EMB2",NA,NA,NA,"null",NA,NA,NA,NA,NA,NA
"null","is convincing",NA,"html-keyboard-response",313,1117860,"0.0-17.0-2.15",16379,"ListB","man","english","EMB2",NA,NA,NA,"null",NA,NA,NA,NA,NA,NA
"4398.599999997770",NA,NA,"survey-text",314,1122260,"0.0-17.0-3.15",16379,"ListB","man","english","EMB2",NA,NA,NA,NA,"{""Q0"":""dave is convincing mike""}","<img src='gifs/MaleRace4b.gif' style='height:400px;''></img>","convincing","is convincing","english",NA
"null","<div style=""font-size:60px;"">+</div>",NA,"html-keyboard-response",315,1122769,"0.0-17.0-0.16",16379,"ListB","man","english","EMB2",NA,NA,NA,"null",NA,NA,NA,NA,NA,NA
"null","<img src='gifs/FemaleRace1a.gif' style='height:400px;''></img>",NA,"html-keyboard-response",316,1124777,"0.0-17.0-1.16",16379,"ListB","man","english","EMB2",NA,NA,NA,"null",NA,NA,NA,NA,NA,NA
"null","is following",NA,"html-keyboard-response",317,1127785,"0.0-17.0-2.16",16379,"ListB","man","english","EMB2",NA,NA,NA,"null",NA,NA,NA,NA,NA,NA
"6210.699999999260",NA,NA,"survey-text",318,1133997,"0.0-17.0-3.16",16379,"ListB","man","english","EMB2",NA,NA,NA,NA,"{""Q0"":""jane is following beth""}","<img src='gifs/FemaleRace1a.gif' style='height:400px;''></img>","following","is following","english",NA
"null","<div style=""font-size:60px;"">+</div>",NA,"html-keyboard-response",319,1134498,"0.0-17.0-0.17",16379,"ListB","man","english","EMB2",NA,NA,NA,"null",NA,NA,NA,NA,NA,NA
"null","<img src='gifs/MaleRace3a.gif' style='height:400px;''></img>",NA,"html-keyboard-response",320,1136502,"0.0-17.0-1.17",16379,"ListB","man","english","EMB2",NA,NA,NA,"null",NA,NA,NA,NA,NA,NA
"null","is praising",NA,"html-keyboard-response",321,1139519,"0.0-17.0-2.17",16379,"ListB","man","english","EMB2",NA,NA,NA,"null",NA,NA,NA,NA,NA,NA
"8709.099999997770",NA,NA,"survey-text",322,1148229,"0.0-17.0-3.17",16379,"ListB","man","english","EMB2",NA,NA,NA,NA,"{""Q0"":""fred is praising dave""}","<img src='gifs/MaleRace3a.gif' style='height:400px;''></img>","praising","is praising","english",NA
"4417.199999999260","<p>Thank you for completing that task.</p><p>The final part of this session is a short questionnaire.</p><p>Press Continue.</p>",0,"html-button-response",323,1152646,"0.0-18.0",16379,"ListB","man","english","EMB2",NA,NA,NA,NA,NA,NA,NA,NA,NA,NA
"31648.1999999993",NA,NA,"survey-text",324,1185297,"0.0-19.0",16379,"ListB","man","english","EMB2",NA,NA,NA,NA,"{""Q0"":""22"",""Q1"":""Chinese"",""Q2"":""English"",""Q3"":""The UK"",""Q4"":""Chinese"",""Q5"":""Chinese"",""Q6"":""Male""}",NA,NA,NA,NA,"demographics"
"7754.099999997770","<p>Have you lived in the UK for the last 5 years or more?</p>",0,"html-button-response",325,1193052,"0.0-20.0",16379,"ListB","man","english","EMB2",NA,NA,NA,NA,NA,NA,NA,NA,NA,"fiveyears"
"2999.899999998510",NA,NA,"external-html",326,1197160,"0.0-21.0",16379,"ListB","man","english","EMB2","debrief.html",NA,NA,NA,NA,NA,NA,NA,NA,NA
"13206.6999999993",NA,NA,"survey-text",327,1210367,"0.0-22.0",16379,"ListB","man","english","EMB2",NA,NA,NA,NA,"{""ptpt_id"":""EMB2""}",NA,NA,NA,NA,"worker_id"
