"rt","stimulus","button_pressed","trial_type","trial_index","time_elapsed","internal_node_id","subject","list","ppt_gender","ppt_language","url","first_guess","correct","key_press","responses","image","verb","phrase","condition","test_part"
"3029","Welcome to the experiment. Press Continue to begin.",0,"html-button-response",0,3033,"0.0-0.0",32542,"ListA","woman","english",NA,NA,NA,NA,NA,NA,NA,NA,NA,NA
"7306",NA,NA,"external-html",1,11343,"0.0-1.0",32542,"ListA","woman","english","consent.html",NA,NA,NA,NA,NA,NA,NA,NA,NA
"1734","<p>On the next page, you will see portraits of 8 people and their names.</p><p>Your first task is to take a few minutes to memorise the names of these people.</p><p>You will have to recall their names during the rest of the experiment, so it is</p><p>essential that you try to memorise these people and their names as best as you can.</p><p><strong>You will then be tested on your memory of these names and portraits.</strong></p><p>The experiment will start after you have completed this memory test.</p><p>Ready?</p>",0,"html-button-response",2,13079,"0.0-2.0",32542,"ListA","woman","english",NA,NA,NA,NA,NA,NA,NA,NA,NA,NA
"1957","<img src='img/portrait_matrix_listA.jpg' style='width:900px;height:500px;''></img><p>If you have memorised all the portraits and names and are ready to start, press Continue.</p><p><strong>Please note: Your memory of these faces will be tested 5 times during this experiment.</strong></p>",0,"html-button-response",3,16039,"0.0-3.0-0.0",32542,"ListA","woman","english",NA,NA,NA,NA,NA,NA,NA,NA,NA,NA
"3454","<img src=""portrait/BM1.jpg""style=""height:400px;""></img>",4,"html-button-response",4,20497,"0.0-3.0-1.0",32542,"ListA","woman","english",NA,TRUE,4,NA,NA,NA,NA,NA,NA,NA
"null","CORRECT",NA,"html-keyboard-response",5,22001,"0.0-3.0-2.0-0.0",32542,"ListA","woman","english",NA,NA,NA,"null",NA,NA,NA,NA,NA,NA
"2462","<img src=""portrait/WW1.jpg""style=""height:400px;""></img>",1,"html-button-response",6,24465,"0.0-3.0-4.0",32542,"ListA","woman","english",NA,TRUE,1,NA,NA,NA,NA,NA,NA,NA
"null","CORRECT",NA,"html-keyboard-response",7,25968,"0.0-3.0-5.0-0.0",32542,"ListA","woman","english",NA,NA,NA,"null",NA,NA,NA,NA,NA,NA
"2781","<img src=""portrait/WM2.jpg""style=""height:400px;""></img>",7,"html-button-response",8,28751,"0.0-3.0-7.0",32542,"ListA","woman","english",NA,TRUE,7,NA,NA,NA,NA,NA,NA,NA
"null","CORRECT",NA,"html-keyboard-response",9,30255,"0.0-3.0-8.0-0.0",32542,"ListA","woman","english",NA,NA,NA,"null",NA,NA,NA,NA,NA,NA
"2622.000000000010","<img src=""portrait/WM1.jpg""style=""height:400px;""></img>",6,"html-button-response",10,32879,"0.0-3.0-10.0",32542,"ListA","woman","english",NA,TRUE,6,NA,NA,NA,NA,NA,NA,NA
"null","CORRECT",NA,"html-keyboard-response",11,34382,"0.0-3.0-11.0-0.0",32542,"ListA","woman","english",NA,NA,NA,"null",NA,NA,NA,NA,NA,NA
"1484","<img src=""portrait/WW2.jpg""style=""height:400px;""></img>",3,"html-button-response",12,35868,"0.0-3.0-13.0",32542,"ListA","woman","english",NA,TRUE,3,NA,NA,NA,NA,NA,NA,NA
"null","CORRECT",NA,"html-keyboard-response",13,37371,"0.0-3.0-14.0-0.0",32542,"ListA","woman","english",NA,NA,NA,"null",NA,NA,NA,NA,NA,NA
"4028.999999999990","<img src=""portrait/BW2.jpg""style=""height:400px;""></img>",2,"html-button-response",14,41402,"0.0-3.0-16.0",32542,"ListA","woman","english",NA,TRUE,2,NA,NA,NA,NA,NA,NA,NA
"null","CORRECT",NA,"html-keyboard-response",15,42906,"0.0-3.0-17.0-0.0",32542,"ListA","woman","english",NA,NA,NA,"null",NA,NA,NA,NA,NA,NA
"4675","<img src=""portrait/BM2.jpg""style=""height:400px;""></img>",5,"html-button-response",16,47583,"0.0-3.0-19.0",32542,"ListA","woman","english",NA,TRUE,5,NA,NA,NA,NA,NA,NA,NA
"null","CORRECT",NA,"html-keyboard-response",17,49087,"0.0-3.0-20.0-0.0",32542,"ListA","woman","english",NA,NA,NA,"null",NA,NA,NA,NA,NA,NA
"5125","<img src=""portrait/BW1.jpg""style=""height:400px;""></img>",0,"html-button-response",18,54215,"0.0-3.0-22.0",32542,"ListA","woman","english",NA,TRUE,0,NA,NA,NA,NA,NA,NA,NA
"null","CORRECT",NA,"html-keyboard-response",19,55717,"0.0-3.0-23.0-0.0",32542,"ListA","woman","english",NA,NA,NA,"null",NA,NA,NA,NA,NA,NA
"962","<p>You got 8 out of 8 right first time. Press Continue.</p>",0,"html-button-response",20,56681,"0.0-3.0-25.0",32542,"ListA","woman","english",NA,NA,NA,NA,NA,NA,NA,NA,NA,NA
"173457","<p>In this experiment, you will view photographs of the people from the memory game.</p><p>By using the <strong>exact</strong> phrase given <i>after</i> the photograph appears and recalling the correct names of the people in the photographs, form a sentence describing an interaction. You do not need to capitalise names.</p><p>Type your answer in the space provided. Please complete every sentence before moving onto the next trial.</p><p>You will only have a few seconds to memorise each given photograph and phrase before you can respond, so try your best to focus.</p><p>An example is given below. Press 'Continue' when you are ready.</p><img src='img/speaking_example.jpg' style='width:800px;height:460px;''></img>",0,"html-button-response",21,231137,"0.0-4.0",32542,"ListA","woman","english",NA,NA,NA,NA,NA,NA,NA,NA,NA,NA
"1626","<p>Before the experiment starts, you will watch two example trials. Press 'Continue'.</p>",0,"html-button-response",22,233765,"0.0-5.0",32542,"ListA","woman","english",NA,NA,NA,NA,NA,NA,NA,NA,NA,NA
"null","<img src='img/meet.gif' style='height:400px;''></img>",NA,"html-keyboard-response",23,236768,"0.0-6.0",32542,"ListA","woman","english",NA,NA,NA,"null",NA,NA,NA,NA,NA,NA
"null","<p>is meeting</p>",NA,"html-keyboard-response",24,238771,"0.0-7.0",32542,"ListA","woman","english",NA,NA,NA,"null",NA,NA,NA,NA,NA,NA
"18515.9999999999","<p><b>Answer:</b> kate is meeting beth</p>",0,"html-button-response",25,257287,"0.0-8.0",32542,"ListA","woman","english",NA,NA,NA,NA,NA,NA,NA,NA,NA,NA
"null","<img src='img/spy.gif' style='height:400px;''></img>",NA,"html-keyboard-response",26,260291,"0.0-9.0",32542,"ListA","woman","english",NA,NA,NA,"null",NA,NA,NA,NA,NA,NA
"null","<p>is being spied on by</p>",NA,"html-keyboard-response",27,262293,"0.0-10.0",32542,"ListA","woman","english",NA,NA,NA,"null",NA,NA,NA,NA,NA,NA
"6695","<p><b>Answer:</b> luke is being spied on by dave</p>",0,"html-button-response",28,268990,"0.0-11.0",32542,"ListA","woman","english",NA,NA,NA,NA,NA,NA,NA,NA,NA,NA
"1605","<p>Ready to start the experiment?</p><br><p><strong>Remember to describe the picture using a full sentence,</strong></p><p><strong>that combines the names of the people with the <i>exact</i> phrase given.</strong></p><p><strong>To receive full payment you must do this correctly.</strong></p><p><strong> You do not need to capitalise names or use punctuation.</strong></p><br><p>Press 'Continue' to begin.</p>",0,"html-button-response",29,271597,"0.0-12.0",32542,"ListA","woman","english",NA,NA,NA,NA,NA,NA,NA,NA,NA,NA
"null","<div style=""font-size:60px;"">+</div>",NA,"html-keyboard-response",30,273100,"0.0-13.0-0.0",32542,"ListA","woman","english",NA,NA,NA,"null",NA,NA,NA,NA,NA,NA
"null","<img src='gifs/FemaleRace4b.gif' style='height:400px;''></img>",NA,"html-keyboard-response",31,275104,"0.0-13.0-1.0",32542,"ListA","woman","english",NA,NA,NA,"null",NA,NA,NA,NA,NA,NA
"null","is praising",NA,"html-keyboard-response",32,278105,"0.0-13.0-2.0",32542,"ListA","woman","english",NA,NA,NA,"null",NA,NA,NA,NA,NA,NA
"25725",NA,NA,"survey-text",33,303848,"0.0-13.0-3.0",32542,"ListA","woman","english",NA,NA,NA,NA,"{""Q0"":""Jane Beth""}","<img src='gifs/FemaleRace4b.gif' style='height:400px;''></img>","praising","is praising","english",NA
"null","<div style=""font-size:60px;"">+</div>",NA,"html-keyboard-response",34,304349,"0.0-13.0-0.1",32542,"ListA","woman","english",NA,NA,NA,"null",NA,NA,NA,NA,NA,NA
"null","<img src='gifs/BlackGender1b.gif' style='height:400px;''></img>",NA,"html-keyboard-response",35,306351,"0.0-13.0-1.1",32542,"ListA","woman","english",NA,NA,NA,"null",NA,NA,NA,NA,NA,NA
"null","is convincing",NA,"html-keyboard-response",36,309354,"0.0-13.0-2.1",32542,"ListA","woman","english",NA,NA,NA,"null",NA,NA,NA,NA,NA,NA
"20810",NA,NA,"survey-text",37,330178,"0.0-13.0-3.1",32542,"ListA","woman","english",NA,NA,NA,NA,"{""Q0"":""Ruth is convincing Luke""}","<img src='gifs/BlackGender1b.gif' style='height:400px;''></img>","convincing","is convincing","english",NA
"null","<div style=""font-size:60px;"">+</div>",NA,"html-keyboard-response",38,330680,"0.0-13.0-0.2",32542,"ListA","woman","english",NA,NA,NA,"null",NA,NA,NA,NA,NA,NA
"null","<img src='gifs/MaleRace2b.gif' style='height:400px;''></img>",NA,"html-keyboard-response",39,332683,"0.0-13.0-1.2",32542,"ListA","woman","english",NA,NA,NA,"null",NA,NA,NA,NA,NA,NA
"null","is listening to",NA,"html-keyboard-response",40,335684,"0.0-13.0-2.2",32542,"ListA","woman","english",NA,NA,NA,"null",NA,NA,NA,NA,NA,NA
"6160",NA,NA,"survey-text",41,341852,"0.0-13.0-3.2",32542,"ListA","woman","english",NA,NA,NA,NA,"{""Q0"":""Fred is listening to Dave""}","<img src='gifs/MaleRace2b.gif' style='height:400px;''></img>","listening to","is listening to","english",NA
"null","<div style=""font-size:60px;"">+</div>",NA,"html-keyboard-response",42,342354,"0.0-13.0-0.3",32542,"ListA","woman","english",NA,NA,NA,"null",NA,NA,NA,NA,NA,NA
"null","<img src='gifs/ChineseGender4a.gif' style='height:400px;''></img>",NA,"html-keyboard-response",43,344356,"0.0-13.0-1.3",32542,"ListA","woman","english",NA,NA,NA,"null",NA,NA,NA,NA,NA,NA
"null","is contacting",NA,"html-keyboard-response",44,347357,"0.0-13.0-2.3",32542,"ListA","woman","english",NA,NA,NA,"null",NA,NA,NA,NA,NA,NA
"9047",NA,NA,"survey-text",45,356411,"0.0-13.0-3.3",32542,"ListA","woman","english",NA,NA,NA,NA,"{""Q0"":""Kate is contacting to Mike""}","<img src='gifs/ChineseGender4a.gif' style='height:400px;''></img>","contacting","is contacting","english",NA
"null","<div style=""font-size:60px;"">+</div>",NA,"html-keyboard-response",46,356913,"0.0-13.0-0.4",32542,"ListA","woman","english",NA,NA,NA,"null",NA,NA,NA,NA,NA,NA
"null","<img src='gifs/BlackGender3a.gif' style='height:400px;''></img>",NA,"html-keyboard-response",47,358916,"0.0-13.0-1.4",32542,"ListA","woman","english",NA,NA,NA,"null",NA,NA,NA,NA,NA,NA
"null","is mentioning",NA,"html-keyboard-response",48,361918,"0.0-13.0-2.4",32542,"ListA","woman","english",NA,NA,NA,"null",NA,NA,NA,NA,NA,NA
"8322",NA,NA,"survey-text",49,370246,"0.0-13.0-3.4",32542,"ListA","woman","english",NA,NA,NA,NA,"{""Q0"":""Luke is mentioning Jane""}","<img src='gifs/BlackGender3a.gif' style='height:400px;''></img>","mention","is mentioning","english",NA
"null","<div style=""font-size:60px;"">+</div>",NA,"html-keyboard-response",50,370748,"0.0-13.0-0.5",32542,"ListA","woman","english",NA,NA,NA,"null",NA,NA,NA,NA,NA,NA
"null","<img src='gifs/ChineseGender4b.gif' style='height:400px;''></img>",NA,"html-keyboard-response",51,372750,"0.0-13.0-1.5",32542,"ListA","woman","english",NA,NA,NA,"null",NA,NA,NA,NA,NA,NA
"null","is walking towards",NA,"html-keyboard-response",52,375752,"0.0-13.0-2.5",32542,"ListA","woman","english",NA,NA,NA,"null",NA,NA,NA,NA,NA,NA
"14681",NA,NA,"survey-text",53,390440,"0.0-13.0-3.5",32542,"ListA","woman","english",NA,NA,NA,NA,"{""Q0"":""Mike is walking toward Jane""}","<img src='gifs/ChineseGender4b.gif' style='height:400px;''></img>","walking towards","is walking towards","english",NA
"null","<div style=""font-size:60px;"">+</div>",NA,"html-keyboard-response",54,390941,"0.0-13.0-0.6",32542,"ListA","woman","english",NA,NA,NA,"null",NA,NA,NA,NA,NA,NA
"null","<img src='gifs/BlackGender2a.gif' style='height:400px;''></img>",NA,"html-keyboard-response",55,392944,"0.0-13.0-1.6",32542,"ListA","woman","english",NA,NA,NA,"null",NA,NA,NA,NA,NA,NA
"null","is looking at",NA,"html-keyboard-response",56,395946,"0.0-13.0-2.6",32542,"ListA","woman","english",NA,NA,NA,"null",NA,NA,NA,NA,NA,NA
"6709",NA,NA,"survey-text",57,402661,"0.0-13.0-3.6",32542,"ListA","woman","english",NA,NA,NA,NA,"{""Q0"":""Dave is looking at Ruth""}","<img src='gifs/BlackGender2a.gif' style='height:400px;''></img>","looking at","is looking at","english",NA
"null","<div style=""font-size:60px;"">+</div>",NA,"html-keyboard-response",58,403163,"0.0-13.0-0.7",32542,"ListA","woman","english",NA,NA,NA,"null",NA,NA,NA,NA,NA,NA
"null","<img src='gifs/BlackGender3b.gif' style='height:400px;''></img>",NA,"html-keyboard-response",59,405165,"0.0-13.0-1.7",32542,"ListA","woman","english",NA,NA,NA,"null",NA,NA,NA,NA,NA,NA
"null","is facing",NA,"html-keyboard-response",60,408167,"0.0-13.0-2.7",32542,"ListA","woman","english",NA,NA,NA,"null",NA,NA,NA,NA,NA,NA
"9090.999999999940",NA,NA,"survey-text",61,417264,"0.0-13.0-3.7",32542,"ListA","woman","english",NA,NA,NA,NA,"{""Q0"":""Jane is facing Luke""}","<img src='gifs/BlackGender3b.gif' style='height:400px;''></img>","facing","is facing","english",NA
"null","<div style=""font-size:60px;"">+</div>",NA,"html-keyboard-response",62,417766,"0.0-13.0-0.8",32542,"ListA","woman","english",NA,NA,NA,"null",NA,NA,NA,NA,NA,NA
"null","<img src='gifs/BlackGender1a.gif' style='height:400px;''></img>",NA,"html-keyboard-response",63,419768,"0.0-13.0-1.8",32542,"ListA","woman","english",NA,NA,NA,"null",NA,NA,NA,NA,NA,NA
"null","is walking towards",NA,"html-keyboard-response",64,422770,"0.0-13.0-2.8",32542,"ListA","woman","english",NA,NA,NA,"null",NA,NA,NA,NA,NA,NA
"7187.000000000060",NA,NA,"survey-text",65,429963,"0.0-13.0-3.8",32542,"ListA","woman","english",NA,NA,NA,NA,"{""Q0"":""Luke is walking towards Ruth""}","<img src='gifs/BlackGender1a.gif' style='height:400px;''></img>","walking towards","is walking towards","english",NA
"null","<div style=""font-size:60px;"">+</div>",NA,"html-keyboard-response",66,430465,"0.0-13.0-0.9",32542,"ListA","woman","english",NA,NA,NA,"null",NA,NA,NA,NA,NA,NA
"null","<img src='gifs/BlackGender2b.gif' style='height:400px;''></img>",NA,"html-keyboard-response",67,432466,"0.0-13.0-1.9",32542,"ListA","woman","english",NA,NA,NA,"null",NA,NA,NA,NA,NA,NA
"null","is promising",NA,"html-keyboard-response",68,435468,"0.0-13.0-2.9",32542,"ListA","woman","english",NA,NA,NA,"null",NA,NA,NA,NA,NA,NA
"5570",NA,NA,"survey-text",69,441044,"0.0-13.0-3.9",32542,"ListA","woman","english",NA,NA,NA,NA,"{""Q0"":""Ruth is promising Dave""}","<img src='gifs/BlackGender2b.gif' style='height:400px;''></img>","promising","is promising","english",NA
"null","<div style=""font-size:60px;"">+</div>",NA,"html-keyboard-response",70,441545,"0.0-13.0-0.10",32542,"ListA","woman","english",NA,NA,NA,"null",NA,NA,NA,NA,NA,NA
"null","<img src='gifs/BlackGender4b.gif' style='height:400px;''></img>",NA,"html-keyboard-response",71,443548,"0.0-13.0-1.10",32542,"ListA","woman","english",NA,NA,NA,"null",NA,NA,NA,NA,NA,NA
"null","is convincing",NA,"html-keyboard-response",72,446549,"0.0-13.0-2.10",32542,"ListA","woman","english",NA,NA,NA,"null",NA,NA,NA,NA,NA,NA
"14634",NA,NA,"survey-text",73,461191,"0.0-13.0-3.10",32542,"ListA","woman","english",NA,NA,NA,NA,"{""Q0"":""Jane is convincing Dave""}","<img src='gifs/BlackGender4b.gif' style='height:400px;''></img>","convincing","is convincing","english",NA
"null","<div style=""font-size:60px;"">+</div>",NA,"html-keyboard-response",74,461693,"0.0-13.0-0.11",32542,"ListA","woman","english",NA,NA,NA,"null",NA,NA,NA,NA,NA,NA
"null","<img src='gifs/ChineseGender3b.gif' style='height:400px;''></img>",NA,"html-keyboard-response",75,463695,"0.0-13.0-1.11",32542,"ListA","woman","english",NA,NA,NA,"null",NA,NA,NA,NA,NA,NA
"null","is contacting",NA,"html-keyboard-response",76,466698,"0.0-13.0-2.11",32542,"ListA","woman","english",NA,NA,NA,"null",NA,NA,NA,NA,NA,NA
"7054",NA,NA,"survey-text",77,473758,"0.0-13.0-3.11",32542,"ListA","woman","english",NA,NA,NA,NA,"{""Q0"":""Mike is contacting Beth""}","<img src='gifs/ChineseGender3b.gif' style='height:400px;''></img>","contacting","is contacting","english",NA
"null","<div style=""font-size:60px;"">+</div>",NA,"html-keyboard-response",78,474260,"0.0-13.0-0.12",32542,"ListA","woman","english",NA,NA,NA,"null",NA,NA,NA,NA,NA,NA
"null","<img src='gifs/ChineseGender1a.gif' style='height:400px;''></img>",NA,"html-keyboard-response",79,476262,"0.0-13.0-1.12",32542,"ListA","woman","english",NA,NA,NA,"null",NA,NA,NA,NA,NA,NA
"null","is walking towards",NA,"html-keyboard-response",80,479264,"0.0-13.0-2.12",32542,"ListA","woman","english",NA,NA,NA,"null",NA,NA,NA,NA,NA,NA
"11454",NA,NA,"survey-text",81,490723,"0.0-13.0-3.12",32542,"ListA","woman","english",NA,NA,NA,NA,"{""Q0"":""Kate is walking towards Fred""}","<img src='gifs/ChineseGender1a.gif' style='height:400px;''></img>","walking towards","is walking towards","english",NA
"null","<div style=""font-size:60px;"">+</div>",NA,"html-keyboard-response",82,491225,"0.0-13.0-0.13",32542,"ListA","woman","english",NA,NA,NA,"null",NA,NA,NA,NA,NA,NA
"null","<img src='gifs/FemaleRace1a.gif' style='height:400px;''></img>",NA,"html-keyboard-response",83,493227,"0.0-13.0-1.13",32542,"ListA","woman","english",NA,NA,NA,"null",NA,NA,NA,NA,NA,NA
"null","is following",NA,"html-keyboard-response",84,496229,"0.0-13.0-2.13",32542,"ListA","woman","english",NA,NA,NA,"null",NA,NA,NA,NA,NA,NA
"5759",NA,NA,"survey-text",85,501994,"0.0-13.0-3.13",32542,"ListA","woman","english",NA,NA,NA,NA,"{""Q0"":""Ruth is following Kate""}","<img src='gifs/FemaleRace1a.gif' style='height:400px;''></img>","following","is following","english",NA
"null","<div style=""font-size:60px;"">+</div>",NA,"html-keyboard-response",86,502496,"0.0-13.0-0.14",32542,"ListA","woman","english",NA,NA,NA,"null",NA,NA,NA,NA,NA,NA
"null","<img src='gifs/ChineseGender3a.gif' style='height:400px;''></img>",NA,"html-keyboard-response",87,504498,"0.0-13.0-1.14",32542,"ListA","woman","english",NA,NA,NA,"null",NA,NA,NA,NA,NA,NA
"null","is listening to",NA,"html-keyboard-response",88,507500,"0.0-13.0-2.14",32542,"ListA","woman","english",NA,NA,NA,"null",NA,NA,NA,NA,NA,NA
"13040",NA,NA,"survey-text",89,520546,"0.0-13.0-3.14",32542,"ListA","woman","english",NA,NA,NA,NA,"{""Q0"":""Mike is listening to Beth""}","<img src='gifs/ChineseGender3a.gif' style='height:400px;''></img>","listening to","is listening to","english",NA
"null","<div style=""font-size:60px;"">+</div>",NA,"html-keyboard-response",90,521049,"0.0-13.0-0.15",32542,"ListA","woman","english",NA,NA,NA,"null",NA,NA,NA,NA,NA,NA
"null","<img src='gifs/MaleRace3b.gif' style='height:400px;''></img>",NA,"html-keyboard-response",91,523051,"0.0-13.0-1.15",32542,"ListA","woman","english",NA,NA,NA,"null",NA,NA,NA,NA,NA,NA
"null","is promising",NA,"html-keyboard-response",92,526052,"0.0-13.0-2.15",32542,"ListA","woman","english",NA,NA,NA,"null",NA,NA,NA,NA,NA,NA
"11656.9999999999",NA,NA,"survey-text",93,537715,"0.0-13.0-3.15",32542,"ListA","woman","english",NA,NA,NA,NA,"{""Q0"":""Mike is promising Ruth""}","<img src='gifs/MaleRace3b.gif' style='height:400px;''></img>","promising","is promising","english",NA
"null","<div style=""font-size:60px;"">+</div>",NA,"html-keyboard-response",94,538217,"0.0-13.0-0.16",32542,"ListA","woman","english",NA,NA,NA,"null",NA,NA,NA,NA,NA,NA
"null","<img src='gifs/FemaleRace4b.gif' style='height:400px;''></img>",NA,"html-keyboard-response",95,540218,"0.0-13.0-1.16",32542,"ListA","woman","english",NA,NA,NA,"null",NA,NA,NA,NA,NA,NA
"null","is praising",NA,"html-keyboard-response",96,543220,"0.0-13.0-2.16",32542,"ListA","woman","english",NA,NA,NA,"null",NA,NA,NA,NA,NA,NA
"22226",NA,NA,"survey-text",97,565452,"0.0-13.0-3.16",32542,"ListA","woman","english",NA,NA,NA,NA,"{""Q0"":""Beth is praising Jane""}","<img src='gifs/FemaleRace4b.gif' style='height:400px;''></img>","praising","is praising","english",NA
"null","<div style=""font-size:60px;"">+</div>",NA,"html-keyboard-response",98,565954,"0.0-13.0-0.17",32542,"ListA","woman","english",NA,NA,NA,"null",NA,NA,NA,NA,NA,NA
"null","<img src='gifs/FemaleRace2b.gif' style='height:400px;''></img>",NA,"html-keyboard-response",99,567957,"0.0-13.0-1.17",32542,"ListA","woman","english",NA,NA,NA,"null",NA,NA,NA,NA,NA,NA
"null","is listening to",NA,"html-keyboard-response",100,570959,"0.0-13.0-2.17",32542,"ListA","woman","english",NA,NA,NA,"null",NA,NA,NA,NA,NA,NA
"6813",NA,NA,"survey-text",101,577778,"0.0-13.0-3.17",32542,"ListA","woman","english",NA,NA,NA,NA,"{""Q0"":""Kate is listening to Jane""}","<img src='gifs/FemaleRace2b.gif' style='height:400px;''></img>","listening to","is listening to","english",NA
"2252.999999999880","<img src='img/portrait_matrix_listA.jpg' style='width:900px;height:500px;''></img><p>If you have memorised all the portraits and names and are ready to start, press Continue.</p><p><strong>Please note: Your memory of these faces will be tested 5 times during this experiment.</strong></p>",0,"html-button-response",102,580033,"0.0-14.0-0.0",32542,"ListA","woman","english",NA,NA,NA,NA,NA,NA,NA,NA,NA,NA
"2302","<img src=""portrait/BW1.jpg""style=""height:400px;""></img>",0,"html-button-response",103,583338,"0.0-14.0-1.0",32542,"ListA","woman","english",NA,TRUE,0,NA,NA,NA,NA,NA,NA,NA
"null","CORRECT",NA,"html-keyboard-response",104,584841,"0.0-14.0-2.0-0.0",32542,"ListA","woman","english",NA,NA,NA,"null",NA,NA,NA,NA,NA,NA
"3794","<img src=""portrait/WM1.jpg""style=""height:400px;""></img>",6,"html-button-response",105,588637,"0.0-14.0-4.0",32542,"ListA","woman","english",NA,TRUE,6,NA,NA,NA,NA,NA,NA,NA
"null","CORRECT",NA,"html-keyboard-response",106,590141,"0.0-14.0-5.0-0.0",32542,"ListA","woman","english",NA,NA,NA,"null",NA,NA,NA,NA,NA,NA
"4793","<img src=""portrait/BM1.jpg""style=""height:400px;""></img>",4,"html-button-response",107,594935,"0.0-14.0-7.0",32542,"ListA","woman","english",NA,TRUE,4,NA,NA,NA,NA,NA,NA,NA
"null","CORRECT",NA,"html-keyboard-response",108,596438,"0.0-14.0-8.0-0.0",32542,"ListA","woman","english",NA,NA,NA,"null",NA,NA,NA,NA,NA,NA
"2002","<img src=""portrait/BM2.jpg""style=""height:400px;""></img>",5,"html-button-response",109,598442,"0.0-14.0-10.0",32542,"ListA","woman","english",NA,TRUE,5,NA,NA,NA,NA,NA,NA,NA
"null","CORRECT",NA,"html-keyboard-response",110,599945,"0.0-14.0-11.0-0.0",32542,"ListA","woman","english",NA,NA,NA,"null",NA,NA,NA,NA,NA,NA
"3755.000000000120","<img src=""portrait/WW2.jpg""style=""height:400px;""></img>",3,"html-button-response",111,603703,"0.0-14.0-13.0",32542,"ListA","woman","english",NA,TRUE,3,NA,NA,NA,NA,NA,NA,NA
"null","CORRECT",NA,"html-keyboard-response",112,605206,"0.0-14.0-14.0-0.0",32542,"ListA","woman","english",NA,NA,NA,"null",NA,NA,NA,NA,NA,NA
"1450","<img src=""portrait/BW2.jpg""style=""height:400px;""></img>",2,"html-button-response",113,606658,"0.0-14.0-16.0",32542,"ListA","woman","english",NA,TRUE,2,NA,NA,NA,NA,NA,NA,NA
"null","CORRECT",NA,"html-keyboard-response",114,608161,"0.0-14.0-17.0-0.0",32542,"ListA","woman","english",NA,NA,NA,"null",NA,NA,NA,NA,NA,NA
"1507","<img src=""portrait/WW1.jpg""style=""height:400px;""></img>",1,"html-button-response",115,609671,"0.0-14.0-19.0",32542,"ListA","woman","english",NA,TRUE,1,NA,NA,NA,NA,NA,NA,NA
"null","CORRECT",NA,"html-keyboard-response",116,611174,"0.0-14.0-20.0-0.0",32542,"ListA","woman","english",NA,NA,NA,"null",NA,NA,NA,NA,NA,NA
"6985","<img src=""portrait/WM2.jpg""style=""height:400px;""></img>",7,"html-button-response",117,618161,"0.0-14.0-22.0",32542,"ListA","woman","english",NA,TRUE,7,NA,NA,NA,NA,NA,NA,NA
"null","CORRECT",NA,"html-keyboard-response",118,619665,"0.0-14.0-23.0-0.0",32542,"ListA","woman","english",NA,NA,NA,"null",NA,NA,NA,NA,NA,NA
"1736","<p>You got 8 out of 8 right first time. Press Continue.</p>",0,"html-button-response",119,621403,"0.0-14.0-25.0",32542,"ListA","woman","english",NA,NA,NA,NA,NA,NA,NA,NA,NA,NA
"null","<div style=""font-size:60px;"">+</div>",NA,"html-keyboard-response",120,622907,"0.0-15.0-0.0",32542,"ListA","woman","english",NA,NA,NA,"null",NA,NA,NA,NA,NA,NA
"null","<img src='gifs/FemaleRace2a.gif' style='height:400px;''></img>",NA,"html-keyboard-response",121,624910,"0.0-15.0-1.0",32542,"ListA","woman","english",NA,NA,NA,"null",NA,NA,NA,NA,NA,NA
"null","is joining",NA,"html-keyboard-response",122,627913,"0.0-15.0-2.0",32542,"ListA","woman","english",NA,NA,NA,"null",NA,NA,NA,NA,NA,NA
"8658",NA,NA,"survey-text",123,636578,"0.0-15.0-3.0",32542,"ListA","woman","english",NA,NA,NA,NA,"{""Q0"":""Jane is joining Kate""}","<img src='gifs/FemaleRace2a.gif' style='height:400px;''></img>","join","is joining","english",NA
"null","<div style=""font-size:60px;"">+</div>",NA,"html-keyboard-response",124,637080,"0.0-15.0-0.1",32542,"ListA","woman","english",NA,NA,NA,"null",NA,NA,NA,NA,NA,NA
"null","<img src='gifs/ChineseGender3b.gif' style='height:400px;''></img>",NA,"html-keyboard-response",125,639082,"0.0-15.0-1.1",32542,"ListA","woman","english",NA,NA,NA,"null",NA,NA,NA,NA,NA,NA
"null","is following",NA,"html-keyboard-response",126,642084,"0.0-15.0-2.1",32542,"ListA","woman","english",NA,NA,NA,"null",NA,NA,NA,NA,NA,NA
"7366",NA,NA,"survey-text",127,649456,"0.0-15.0-3.1",32542,"ListA","woman","english",NA,NA,NA,NA,"{""Q0"":""Beth is following Mike""}","<img src='gifs/ChineseGender3b.gif' style='height:400px;''></img>","following","is following","english",NA
"null","<div style=""font-size:60px;"">+</div>",NA,"html-keyboard-response",128,649957,"0.0-15.0-0.2",32542,"ListA","woman","english",NA,NA,NA,"null",NA,NA,NA,NA,NA,NA
"null","<img src='gifs/MaleRace1a.gif' style='height:400px;''></img>",NA,"html-keyboard-response",129,651959,"0.0-15.0-1.2",32542,"ListA","woman","english",NA,NA,NA,"null",NA,NA,NA,NA,NA,NA
"null","is convincing",NA,"html-keyboard-response",130,654962,"0.0-15.0-2.2",32542,"ListA","woman","english",NA,NA,NA,"null",NA,NA,NA,NA,NA,NA
"11354",NA,NA,"survey-text",131,666321,"0.0-15.0-3.2",32542,"ListA","woman","english",NA,NA,NA,NA,"{""Q0"":""Luke is convicting Mike""}","<img src='gifs/MaleRace1a.gif' style='height:400px;''></img>","convincing","is convincing","english",NA
"null","<div style=""font-size:60px;"">+</div>",NA,"html-keyboard-response",132,666823,"0.0-15.0-0.3",32542,"ListA","woman","english",NA,NA,NA,"null",NA,NA,NA,NA,NA,NA
"null","<img src='gifs/FemaleRace2b.gif' style='height:400px;''></img>",NA,"html-keyboard-response",133,668824,"0.0-15.0-1.3",32542,"ListA","woman","english",NA,NA,NA,"null",NA,NA,NA,NA,NA,NA
"null","is contacting",NA,"html-keyboard-response",134,671826,"0.0-15.0-2.3",32542,"ListA","woman","english",NA,NA,NA,"null",NA,NA,NA,NA,NA,NA
"12325.9999999999",NA,NA,"survey-text",135,684158,"0.0-15.0-3.3",32542,"ListA","woman","english",NA,NA,NA,NA,"{""Q0"":""Jane is contacting Kate""}","<img src='gifs/FemaleRace2b.gif' style='height:400px;''></img>","contacting","is contacting","english",NA
"null","<div style=""font-size:60px;"">+</div>",NA,"html-keyboard-response",136,684660,"0.0-15.0-0.4",32542,"ListA","woman","english",NA,NA,NA,"null",NA,NA,NA,NA,NA,NA
"null","<img src='gifs/BlackGender1b.gif' style='height:400px;''></img>",NA,"html-keyboard-response",137,686662,"0.0-15.0-1.4",32542,"ListA","woman","english",NA,NA,NA,"null",NA,NA,NA,NA,NA,NA
"null","is facing",NA,"html-keyboard-response",138,689664,"0.0-15.0-2.4",32542,"ListA","woman","english",NA,NA,NA,"null",NA,NA,NA,NA,NA,NA
"7645",NA,NA,"survey-text",139,697315,"0.0-15.0-3.4",32542,"ListA","woman","english",NA,NA,NA,NA,"{""Q0"":""Luke is facing Ruth""}","<img src='gifs/BlackGender1b.gif' style='height:400px;''></img>","facing","is facing","english",NA
"null","<div style=""font-size:60px;"">+</div>",NA,"html-keyboard-response",140,697816,"0.0-15.0-0.5",32542,"ListA","woman","english",NA,NA,NA,"null",NA,NA,NA,NA,NA,NA
"null","<img src='gifs/ChineseGender2a.gif' style='height:400px;''></img>",NA,"html-keyboard-response",141,699818,"0.0-15.0-1.5",32542,"ListA","woman","english",NA,NA,NA,"null",NA,NA,NA,NA,NA,NA
"null","is touching",NA,"html-keyboard-response",142,702820,"0.0-15.0-2.5",32542,"ListA","woman","english",NA,NA,NA,"null",NA,NA,NA,NA,NA,NA
"9253",NA,NA,"survey-text",143,712079,"0.0-15.0-3.5",32542,"ListA","woman","english",NA,NA,NA,NA,"{""Q0"":""Fred is touching Beth""}","<img src='gifs/ChineseGender2a.gif' style='height:400px;''></img>","touching","is touching","english",NA
"null","<div style=""font-size:60px;"">+</div>",NA,"html-keyboard-response",144,712580,"0.0-15.0-0.6",32542,"ListA","woman","english",NA,NA,NA,"null",NA,NA,NA,NA,NA,NA
"null","<img src='gifs/ChineseGender4b.gif' style='height:400px;''></img>",NA,"html-keyboard-response",145,714583,"0.0-15.0-1.6",32542,"ListA","woman","english",NA,NA,NA,"null",NA,NA,NA,NA,NA,NA
"null","is accompanying",NA,"html-keyboard-response",146,717585,"0.0-15.0-2.6",32542,"ListA","woman","english",NA,NA,NA,"null",NA,NA,NA,NA,NA,NA
"10790",NA,NA,"survey-text",147,728380,"0.0-15.0-3.6",32542,"ListA","woman","english",NA,NA,NA,NA,"{""Q0"":""Kate is accompanying Mike""}","<img src='gifs/ChineseGender4b.gif' style='height:400px;''></img>","accompanying","is accompanying","english",NA
"null","<div style=""font-size:60px;"">+</div>",NA,"html-keyboard-response",148,728882,"0.0-15.0-0.7",32542,"ListA","woman","english",NA,NA,NA,"null",NA,NA,NA,NA,NA,NA
"null","<img src='gifs/MaleRace2a.gif' style='height:400px;''></img>",NA,"html-keyboard-response",149,730884,"0.0-15.0-1.7",32542,"ListA","woman","english",NA,NA,NA,"null",NA,NA,NA,NA,NA,NA
"null","is mentioning",NA,"html-keyboard-response",150,733886,"0.0-15.0-2.7",32542,"ListA","woman","english",NA,NA,NA,"null",NA,NA,NA,NA,NA,NA
"12096",NA,NA,"survey-text",151,745988,"0.0-15.0-3.7",32542,"ListA","woman","english",NA,NA,NA,NA,"{""Q0"":""Dave is mentioning Fred""}","<img src='gifs/MaleRace2a.gif' style='height:400px;''></img>","mention","is mentioning","english",NA
"null","<div style=""font-size:60px;"">+</div>",NA,"html-keyboard-response",152,746490,"0.0-15.0-0.8",32542,"ListA","woman","english",NA,NA,NA,"null",NA,NA,NA,NA,NA,NA
"null","<img src='gifs/ChineseGender4a.gif' style='height:400px;''></img>",NA,"html-keyboard-response",153,748491,"0.0-15.0-1.8",32542,"ListA","woman","english",NA,NA,NA,"null",NA,NA,NA,NA,NA,NA
"null","is approaching",NA,"html-keyboard-response",154,751493,"0.0-15.0-2.8",32542,"ListA","woman","english",NA,NA,NA,"null",NA,NA,NA,NA,NA,NA
"8893",NA,NA,"survey-text",155,760392,"0.0-15.0-3.8",32542,"ListA","woman","english",NA,NA,NA,NA,"{""Q0"":""Mike is approaching Kate""}","<img src='gifs/ChineseGender4a.gif' style='height:400px;''></img>","approaching","is approaching","english",NA
"null","<div style=""font-size:60px;"">+</div>",NA,"html-keyboard-response",156,760893,"0.0-15.0-0.9",32542,"ListA","woman","english",NA,NA,NA,"null",NA,NA,NA,NA,NA,NA
"null","<img src='gifs/BlackGender2b.gif' style='height:400px;''></img>",NA,"html-keyboard-response",157,762895,"0.0-15.0-1.9",32542,"ListA","woman","english",NA,NA,NA,"null",NA,NA,NA,NA,NA,NA
"null","is employing",NA,"html-keyboard-response",158,765897,"0.0-15.0-2.9",32542,"ListA","woman","english",NA,NA,NA,"null",NA,NA,NA,NA,NA,NA
"9829",NA,NA,"survey-text",159,775731,"0.0-15.0-3.9",32542,"ListA","woman","english",NA,NA,NA,NA,"{""Q0"":""Ruth is employing Dave""}","<img src='gifs/BlackGender2b.gif' style='height:400px;''></img>","employing","is employing","english",NA
"null","<div style=""font-size:60px;"">+</div>",NA,"html-keyboard-response",160,776232,"0.0-15.0-0.10",32542,"ListA","woman","english",NA,NA,NA,"null",NA,NA,NA,NA,NA,NA
"null","<img src='gifs/ChineseGender2a.gif' style='height:400px;''></img>",NA,"html-keyboard-response",161,778235,"0.0-15.0-1.10",32542,"ListA","woman","english",NA,NA,NA,"null",NA,NA,NA,NA,NA,NA
"null","is looking at",NA,"html-keyboard-response",162,781237,"0.0-15.0-2.10",32542,"ListA","woman","english",NA,NA,NA,"null",NA,NA,NA,NA,NA,NA
"8141",NA,NA,"survey-text",163,789383,"0.0-15.0-3.10",32542,"ListA","woman","english",NA,NA,NA,NA,"{""Q0"":""Beth is looking at Fred""}","<img src='gifs/ChineseGender2a.gif' style='height:400px;''></img>","looking at","is looking at","english",NA
"null","<div style=""font-size:60px;"">+</div>",NA,"html-keyboard-response",164,789884,"0.0-15.0-0.11",32542,"ListA","woman","english",NA,NA,NA,"null",NA,NA,NA,NA,NA,NA
"null","<img src='gifs/FemaleRace3b.gif' style='height:400px;''></img>",NA,"html-keyboard-response",165,791887,"0.0-15.0-1.11",32542,"ListA","woman","english",NA,NA,NA,"null",NA,NA,NA,NA,NA,NA
"null","is approaching",NA,"html-keyboard-response",166,794889,"0.0-15.0-2.11",32542,"ListA","woman","english",NA,NA,NA,"null",NA,NA,NA,NA,NA,NA
"8070",NA,NA,"survey-text",167,802964,"0.0-15.0-3.11",32542,"ListA","woman","english",NA,NA,NA,NA,"{""Q0"":""Beth is approaching Ruth""}","<img src='gifs/FemaleRace3b.gif' style='height:400px;''></img>","approaching","is approaching","english",NA
"null","<div style=""font-size:60px;"">+</div>",NA,"html-keyboard-response",168,803466,"0.0-15.0-0.12",32542,"ListA","woman","english",NA,NA,NA,"null",NA,NA,NA,NA,NA,NA
"null","<img src='gifs/MaleRace4b.gif' style='height:400px;''></img>",NA,"html-keyboard-response",169,805468,"0.0-15.0-1.12",32542,"ListA","woman","english",NA,NA,NA,"null",NA,NA,NA,NA,NA,NA
"null","is accompanying",NA,"html-keyboard-response",170,808470,"0.0-15.0-2.12",32542,"ListA","woman","english",NA,NA,NA,"null",NA,NA,NA,NA,NA,NA
"8298",NA,NA,"survey-text",171,816774,"0.0-15.0-3.12",32542,"ListA","woman","english",NA,NA,NA,NA,"{""Q0"":""Dave is accompanying Mike""}","<img src='gifs/MaleRace4b.gif' style='height:400px;''></img>","accompanying","is accompanying","english",NA
"null","<div style=""font-size:60px;"">+</div>",NA,"html-keyboard-response",172,817276,"0.0-15.0-0.13",32542,"ListA","woman","english",NA,NA,NA,"null",NA,NA,NA,NA,NA,NA
"null","<img src='gifs/ChineseGender1a.gif' style='height:400px;''></img>",NA,"html-keyboard-response",173,819278,"0.0-15.0-1.13",32542,"ListA","woman","english",NA,NA,NA,"null",NA,NA,NA,NA,NA,NA
"null","is touching",NA,"html-keyboard-response",174,822280,"0.0-15.0-2.13",32542,"ListA","woman","english",NA,NA,NA,"null",NA,NA,NA,NA,NA,NA
"10213",NA,NA,"survey-text",175,832501,"0.0-15.0-3.13",32542,"ListA","woman","english",NA,NA,NA,NA,"{""Q0"":""Kate is touching Fred""}","<img src='gifs/ChineseGender1a.gif' style='height:400px;''></img>","touching","is touching","english",NA
"null","<div style=""font-size:60px;"">+</div>",NA,"html-keyboard-response",176,833003,"0.0-15.0-0.14",32542,"ListA","woman","english",NA,NA,NA,"null",NA,NA,NA,NA,NA,NA
"null","<img src='gifs/MaleRace2a.gif' style='height:400px;''></img>",NA,"html-keyboard-response",177,835006,"0.0-15.0-1.14",32542,"ListA","woman","english",NA,NA,NA,"null",NA,NA,NA,NA,NA,NA
"null","is employing",NA,"html-keyboard-response",178,838008,"0.0-15.0-2.14",32542,"ListA","woman","english",NA,NA,NA,"null",NA,NA,NA,NA,NA,NA
"6778",NA,NA,"survey-text",179,844792,"0.0-15.0-3.14",32542,"ListA","woman","english",NA,NA,NA,NA,"{""Q0"":""Dave is employing Fred""}","<img src='gifs/MaleRace2a.gif' style='height:400px;''></img>","employing","is employing","english",NA
"null","<div style=""font-size:60px;"">+</div>",NA,"html-keyboard-response",180,845294,"0.0-15.0-0.15",32542,"ListA","woman","english",NA,NA,NA,"null",NA,NA,NA,NA,NA,NA
"null","<img src='gifs/BlackGender3b.gif' style='height:400px;''></img>",NA,"html-keyboard-response",181,847296,"0.0-15.0-1.15",32542,"ListA","woman","english",NA,NA,NA,"null",NA,NA,NA,NA,NA,NA
"null","is walking towards",NA,"html-keyboard-response",182,850298,"0.0-15.0-2.15",32542,"ListA","woman","english",NA,NA,NA,"null",NA,NA,NA,NA,NA,NA
"9779",NA,NA,"survey-text",183,860084,"0.0-15.0-3.15",32542,"ListA","woman","english",NA,NA,NA,NA,"{""Q0"":""Luke is walking towards Jane""}","<img src='gifs/BlackGender3b.gif' style='height:400px;''></img>","walking towards","is walking towards","english",NA
"null","<div style=""font-size:60px;"">+</div>",NA,"html-keyboard-response",184,860585,"0.0-15.0-0.16",32542,"ListA","woman","english",NA,NA,NA,"null",NA,NA,NA,NA,NA,NA
"null","<img src='gifs/MaleRace3a.gif' style='height:400px;''></img>",NA,"html-keyboard-response",185,862588,"0.0-15.0-1.16",32542,"ListA","woman","english",NA,NA,NA,"null",NA,NA,NA,NA,NA,NA
"null","is looking at",NA,"html-keyboard-response",186,865590,"0.0-15.0-2.16",32542,"ListA","woman","english",NA,NA,NA,"null",NA,NA,NA,NA,NA,NA
"13241",NA,NA,"survey-text",187,878837,"0.0-15.0-3.16",32542,"ListA","woman","english",NA,NA,NA,NA,"{""Q0"":""Luke is looking at Mike""}","<img src='gifs/MaleRace3a.gif' style='height:400px;''></img>","looking at","is looking at","english",NA
"null","<div style=""font-size:60px;"">+</div>",NA,"html-keyboard-response",188,879338,"0.0-15.0-0.17",32542,"ListA","woman","english",NA,NA,NA,"null",NA,NA,NA,NA,NA,NA
"null","<img src='gifs/BlackGender3a.gif' style='height:400px;''></img>",NA,"html-keyboard-response",189,881341,"0.0-15.0-1.17",32542,"ListA","woman","english",NA,NA,NA,"null",NA,NA,NA,NA,NA,NA
"null","is introducing",NA,"html-keyboard-response",190,884342,"0.0-15.0-2.17",32542,"ListA","woman","english",NA,NA,NA,"null",NA,NA,NA,NA,NA,NA
"7710",NA,NA,"survey-text",191,892058,"0.0-15.0-3.17",32542,"ListA","woman","english",NA,NA,NA,NA,"{""Q0"":""Luke is introducing Jane""}","<img src='gifs/BlackGender3a.gif' style='height:400px;''></img>","introducing","is introducing","english",NA
"12868.0000000001","<img src='img/portrait_matrix_listA.jpg' style='width:900px;height:500px;''></img><p>If you have memorised all the portraits and names and are ready to start, press Continue.</p><p><strong>Please note: Your memory of these faces will be tested 5 times during this experiment.</strong></p>",0,"html-button-response",192,904927,"0.0-16.0-0.0",32542,"ListA","woman","english",NA,NA,NA,NA,NA,NA,NA,NA,NA,NA
"6225","<img src=""portrait/WM1.jpg""style=""height:400px;""></img>",6,"html-button-response",193,912156,"0.0-16.0-1.0",32542,"ListA","woman","english",NA,TRUE,6,NA,NA,NA,NA,NA,NA,NA
"null","CORRECT",NA,"html-keyboard-response",194,913659,"0.0-16.0-2.0-0.0",32542,"ListA","woman","english",NA,NA,NA,"null",NA,NA,NA,NA,NA,NA
"56499","<img src=""portrait/WW2.jpg""style=""height:400px;""></img>",3,"html-button-response",195,970160,"0.0-16.0-4.0",32542,"ListA","woman","english",NA,TRUE,3,NA,NA,NA,NA,NA,NA,NA
"null","CORRECT",NA,"html-keyboard-response",196,971663,"0.0-16.0-5.0-0.0",32542,"ListA","woman","english",NA,NA,NA,"null",NA,NA,NA,NA,NA,NA
"24901","<img src=""portrait/BM2.jpg""style=""height:400px;""></img>",5,"html-button-response",197,996565,"0.0-16.0-7.0",32542,"ListA","woman","english",NA,TRUE,5,NA,NA,NA,NA,NA,NA,NA
"null","CORRECT",NA,"html-keyboard-response",198,998067,"0.0-16.0-8.0-0.0",32542,"ListA","woman","english",NA,NA,NA,"null",NA,NA,NA,NA,NA,NA
"2428","<img src=""portrait/BW1.jpg""style=""height:400px;""></img>",0,"html-button-response",199,1000498,"0.0-16.0-10.0",32542,"ListA","woman","english",NA,TRUE,0,NA,NA,NA,NA,NA,NA,NA
"null","CORRECT",NA,"html-keyboard-response",200,1002000,"0.0-16.0-11.0-0.0",32542,"ListA","woman","english",NA,NA,NA,"null",NA,NA,NA,NA,NA,NA
"6564","<img src=""portrait/BM1.jpg""style=""height:400px;""></img>",4,"html-button-response",201,1008567,"0.0-16.0-13.0",32542,"ListA","woman","english",NA,TRUE,4,NA,NA,NA,NA,NA,NA,NA
"null","CORRECT",NA,"html-keyboard-response",202,1010070,"0.0-16.0-14.0-0.0",32542,"ListA","woman","english",NA,NA,NA,"null",NA,NA,NA,NA,NA,NA
"37780","<img src=""portrait/BW2.jpg""style=""height:400px;""></img>",2,"html-button-response",203,1047852,"0.0-16.0-16.0",32542,"ListA","woman","english",NA,TRUE,2,NA,NA,NA,NA,NA,NA,NA
"null","CORRECT",NA,"html-keyboard-response",204,1049355,"0.0-16.0-17.0-0.0",32542,"ListA","woman","english",NA,NA,NA,"null",NA,NA,NA,NA,NA,NA
"7614","<img src=""portrait/WM2.jpg""style=""height:400px;""></img>",7,"html-button-response",205,1056972,"0.0-16.0-19.0",32542,"ListA","woman","english",NA,TRUE,7,NA,NA,NA,NA,NA,NA,NA
"null","CORRECT",NA,"html-keyboard-response",206,1058475,"0.0-16.0-20.0-0.0",32542,"ListA","woman","english",NA,NA,NA,"null",NA,NA,NA,NA,NA,NA
"1418","<img src=""portrait/WW1.jpg""style=""height:400px;""></img>",1,"html-button-response",207,1059894,"0.0-16.0-22.0",32542,"ListA","woman","english",NA,TRUE,1,NA,NA,NA,NA,NA,NA,NA
"null","CORRECT",NA,"html-keyboard-response",208,1061397,"0.0-16.0-23.0-0.0",32542,"ListA","woman","english",NA,NA,NA,"null",NA,NA,NA,NA,NA,NA
"1478","<p>You got 8 out of 8 right first time. Press Continue.</p>",0,"html-button-response",209,1062877,"0.0-16.0-25.0",32542,"ListA","woman","english",NA,NA,NA,NA,NA,NA,NA,NA,NA,NA
"null","<div style=""font-size:60px;"">+</div>",NA,"html-keyboard-response",210,1064382,"0.0-17.0-0.0",32542,"ListA","woman","english",NA,NA,NA,"null",NA,NA,NA,NA,NA,NA
"null","<img src='gifs/FemaleRace4a.gif' style='height:400px;''></img>",NA,"html-keyboard-response",211,1066385,"0.0-17.0-1.0",32542,"ListA","woman","english",NA,NA,NA,"null",NA,NA,NA,NA,NA,NA
"null","is mentioning",NA,"html-keyboard-response",212,1069387,"0.0-17.0-2.0",32542,"ListA","woman","english",NA,NA,NA,"null",NA,NA,NA,NA,NA,NA
"6738",NA,NA,"survey-text",213,1076131,"0.0-17.0-3.0",32542,"ListA","woman","english",NA,NA,NA,NA,"{""Q0"":""Beth is mentioning Jane""}","<img src='gifs/FemaleRace4a.gif' style='height:400px;''></img>","mention","is mentioning","english",NA
"null","<div style=""font-size:60px;"">+</div>",NA,"html-keyboard-response",214,1076632,"0.0-17.0-0.1",32542,"ListA","woman","english",NA,NA,NA,"null",NA,NA,NA,NA,NA,NA
"null","<img src='gifs/MaleRace4a.gif' style='height:400px;''></img>",NA,"html-keyboard-response",215,1078634,"0.0-17.0-1.1",32542,"ListA","woman","english",NA,NA,NA,"null",NA,NA,NA,NA,NA,NA
"null","is mentioning",NA,"html-keyboard-response",216,1081636,"0.0-17.0-2.1",32542,"ListA","woman","english",NA,NA,NA,"null",NA,NA,NA,NA,NA,NA
"5960",NA,NA,"survey-text",217,1087602,"0.0-17.0-3.1",32542,"ListA","woman","english",NA,NA,NA,NA,"{""Q0"":""Dave is mentioning Mike""}","<img src='gifs/MaleRace4a.gif' style='height:400px;''></img>","mention","is mentioning","english",NA
"null","<div style=""font-size:60px;"">+</div>",NA,"html-keyboard-response",218,1088104,"0.0-17.0-0.2",32542,"ListA","woman","english",NA,NA,NA,"null",NA,NA,NA,NA,NA,NA
"null","<img src='gifs/FemaleRace4a.gif' style='height:400px;''></img>",NA,"html-keyboard-response",219,1090106,"0.0-17.0-1.2",32542,"ListA","woman","english",NA,NA,NA,"null",NA,NA,NA,NA,NA,NA
"null","is accompanying",NA,"html-keyboard-response",220,1093108,"0.0-17.0-2.2",32542,"ListA","woman","english",NA,NA,NA,"null",NA,NA,NA,NA,NA,NA
"8893",NA,NA,"survey-text",221,1102008,"0.0-17.0-3.2",32542,"ListA","woman","english",NA,NA,NA,NA,"{""Q0"":""Jane is accompanying Beth""}","<img src='gifs/FemaleRace4a.gif' style='height:400px;''></img>","accompanying","is accompanying","english",NA
"null","<div style=""font-size:60px;"">+</div>",NA,"html-keyboard-response",222,1102509,"0.0-17.0-0.3",32542,"ListA","woman","english",NA,NA,NA,"null",NA,NA,NA,NA,NA,NA
"null","<img src='gifs/BlackGender4b.gif' style='height:400px;''></img>",NA,"html-keyboard-response",223,1104511,"0.0-17.0-1.3",32542,"ListA","woman","english",NA,NA,NA,"null",NA,NA,NA,NA,NA,NA
"null","is promising",NA,"html-keyboard-response",224,1107513,"0.0-17.0-2.3",32542,"ListA","woman","english",NA,NA,NA,"null",NA,NA,NA,NA,NA,NA
"5432",NA,NA,"survey-text",225,1112948,"0.0-17.0-3.3",32542,"ListA","woman","english",NA,NA,NA,NA,"{""Q0"":""Jane is promising Dave""}","<img src='gifs/BlackGender4b.gif' style='height:400px;''></img>","promising","is promising","english",NA
"null","<div style=""font-size:60px;"">+</div>",NA,"html-keyboard-response",226,1113449,"0.0-17.0-0.4",32542,"ListA","woman","english",NA,NA,NA,"null",NA,NA,NA,NA,NA,NA
"null","<img src='gifs/MaleRace1b.gif' style='height:400px;''></img>",NA,"html-keyboard-response",227,1115452,"0.0-17.0-1.4",32542,"ListA","woman","english",NA,NA,NA,"null",NA,NA,NA,NA,NA,NA
"null","is listening to",NA,"html-keyboard-response",228,1118454,"0.0-17.0-2.4",32542,"ListA","woman","english",NA,NA,NA,"null",NA,NA,NA,NA,NA,NA
"6337",NA,NA,"survey-text",229,1124796,"0.0-17.0-3.4",32542,"ListA","woman","english",NA,NA,NA,NA,"{""Q0"":""Luke is listening to Fred""}","<img src='gifs/MaleRace1b.gif' style='height:400px;''></img>","listening to","is listening to","english",NA
"null","<div style=""font-size:60px;"">+</div>",NA,"html-keyboard-response",230,1125298,"0.0-17.0-0.5",32542,"ListA","woman","english",NA,NA,NA,"null",NA,NA,NA,NA,NA,NA
"null","<img src='gifs/ChineseGender1b.gif' style='height:400px;''></img>",NA,"html-keyboard-response",231,1127300,"0.0-17.0-1.5",32542,"ListA","woman","english",NA,NA,NA,"null",NA,NA,NA,NA,NA,NA
"null","is approaching",NA,"html-keyboard-response",232,1130302,"0.0-17.0-2.5",32542,"ListA","woman","english",NA,NA,NA,"null",NA,NA,NA,NA,NA,NA
"7392",NA,NA,"survey-text",233,1137700,"0.0-17.0-3.5",32542,"ListA","woman","english",NA,NA,NA,NA,"{""Q0"":""Kate is approaching to Fred""}","<img src='gifs/ChineseGender1b.gif' style='height:400px;''></img>","approaching","is approaching","english",NA
"null","<div style=""font-size:60px;"">+</div>",NA,"html-keyboard-response",234,1138202,"0.0-17.0-0.6",32542,"ListA","woman","english",NA,NA,NA,"null",NA,NA,NA,NA,NA,NA
"null","<img src='gifs/BlackGender4a.gif' style='height:400px;''></img>",NA,"html-keyboard-response",235,1140204,"0.0-17.0-1.6",32542,"ListA","woman","english",NA,NA,NA,"null",NA,NA,NA,NA,NA,NA
"null","is contacting",NA,"html-keyboard-response",236,1143206,"0.0-17.0-2.6",32542,"ListA","woman","english",NA,NA,NA,"null",NA,NA,NA,NA,NA,NA
"6663.999999999770",NA,NA,"survey-text",237,1149875,"0.0-17.0-3.6",32542,"ListA","woman","english",NA,NA,NA,NA,"{""Q0"":""Dave is contacting Jane""}","<img src='gifs/BlackGender4a.gif' style='height:400px;''></img>","contacting","is contacting","english",NA
"null","<div style=""font-size:60px;"">+</div>",NA,"html-keyboard-response",238,1150377,"0.0-17.0-0.7",32542,"ListA","woman","english",NA,NA,NA,"null",NA,NA,NA,NA,NA,NA
"null","<img src='gifs/MaleRace1a.gif' style='height:400px;''></img>",NA,"html-keyboard-response",239,1152379,"0.0-17.0-1.7",32542,"ListA","woman","english",NA,NA,NA,"null",NA,NA,NA,NA,NA,NA
"null","is facing",NA,"html-keyboard-response",240,1155381,"0.0-17.0-2.7",32542,"ListA","woman","english",NA,NA,NA,"null",NA,NA,NA,NA,NA,NA
"12397",NA,NA,"survey-text",241,1167784,"0.0-17.0-3.7",32542,"ListA","woman","english",NA,NA,NA,NA,"{""Q0"":""Fred is facing Luke""}","<img src='gifs/MaleRace1a.gif' style='height:400px;''></img>","facing","is facing","english",NA
"null","<div style=""font-size:60px;"">+</div>",NA,"html-keyboard-response",242,1168286,"0.0-17.0-0.8",32542,"ListA","woman","english",NA,NA,NA,"null",NA,NA,NA,NA,NA,NA
"null","<img src='gifs/ChineseGender1b.gif' style='height:400px;''></img>",NA,"html-keyboard-response",243,1170288,"0.0-17.0-1.8",32542,"ListA","woman","english",NA,NA,NA,"null",NA,NA,NA,NA,NA,NA
"null","is introducing",NA,"html-keyboard-response",244,1173290,"0.0-17.0-2.8",32542,"ListA","woman","english",NA,NA,NA,"null",NA,NA,NA,NA,NA,NA
"7292",NA,NA,"survey-text",245,1180587,"0.0-17.0-3.8",32542,"ListA","woman","english",NA,NA,NA,NA,"{""Q0"":""Fred is introducing Kate""}","<img src='gifs/ChineseGender1b.gif' style='height:400px;''></img>","introducing","is introducing","english",NA
"null","<div style=""font-size:60px;"">+</div>",NA,"html-keyboard-response",246,1181089,"0.0-17.0-0.9",32542,"ListA","woman","english",NA,NA,NA,"null",NA,NA,NA,NA,NA,NA
"null","<img src='gifs/BlackGender1a.gif' style='height:400px;''></img>",NA,"html-keyboard-response",247,1183091,"0.0-17.0-1.9",32542,"ListA","woman","english",NA,NA,NA,"null",NA,NA,NA,NA,NA,NA
"null","is touching",NA,"html-keyboard-response",248,1186093,"0.0-17.0-2.9",32542,"ListA","woman","english",NA,NA,NA,"null",NA,NA,NA,NA,NA,NA
"7818",NA,NA,"survey-text",249,1193919,"0.0-17.0-3.9",32542,"ListA","woman","english",NA,NA,NA,NA,"{""Q0"":""Luke is touching Ruth""}","<img src='gifs/BlackGender1a.gif' style='height:400px;''></img>","touching","is touching","english",NA
"null","<div style=""font-size:60px;"">+</div>",NA,"html-keyboard-response",250,1194420,"0.0-17.0-0.10",32542,"ListA","woman","english",NA,NA,NA,"null",NA,NA,NA,NA,NA,NA
"null","<img src='gifs/ChineseGender2b.gif' style='height:400px;''></img>",NA,"html-keyboard-response",251,1196423,"0.0-17.0-1.10",32542,"ListA","woman","english",NA,NA,NA,"null",NA,NA,NA,NA,NA,NA
"null","is following",NA,"html-keyboard-response",252,1199425,"0.0-17.0-2.10",32542,"ListA","woman","english",NA,NA,NA,"null",NA,NA,NA,NA,NA,NA
"6765",NA,NA,"survey-text",253,1206196,"0.0-17.0-3.10",32542,"ListA","woman","english",NA,NA,NA,NA,"{""Q0"":""Beth is following Fred""}","<img src='gifs/ChineseGender2b.gif' style='height:400px;''></img>","following","is following","english",NA
"null","<div style=""font-size:60px;"">+</div>",NA,"html-keyboard-response",254,1206698,"0.0-17.0-0.11",32542,"ListA","woman","english",NA,NA,NA,"null",NA,NA,NA,NA,NA,NA
"null","<img src='gifs/FemaleRace1b.gif' style='height:400px;''></img>",NA,"html-keyboard-response",255,1208700,"0.0-17.0-1.11",32542,"ListA","woman","english",NA,NA,NA,"null",NA,NA,NA,NA,NA,NA
"null","is praising",NA,"html-keyboard-response",256,1211702,"0.0-17.0-2.11",32542,"ListA","woman","english",NA,NA,NA,"null",NA,NA,NA,NA,NA,NA
"8236",NA,NA,"survey-text",257,1219945,"0.0-17.0-3.11",32542,"ListA","woman","english",NA,NA,NA,NA,"{""Q0"":""Ruth is praising Kate""}","<img src='gifs/FemaleRace1b.gif' style='height:400px;''></img>","praising","is praising","english",NA
"null","<div style=""font-size:60px;"">+</div>",NA,"html-keyboard-response",258,1220446,"0.0-17.0-0.12",32542,"ListA","woman","english",NA,NA,NA,"null",NA,NA,NA,NA,NA,NA
"null","<img src='gifs/MaleRace4a.gif' style='height:400px;''></img>",NA,"html-keyboard-response",259,1222449,"0.0-17.0-1.12",32542,"ListA","woman","english",NA,NA,NA,"null",NA,NA,NA,NA,NA,NA
"null","is accompanying",NA,"html-keyboard-response",260,1225451,"0.0-17.0-2.12",32542,"ListA","woman","english",NA,NA,NA,"null",NA,NA,NA,NA,NA,NA
"7016",NA,NA,"survey-text",261,1232472,"0.0-17.0-3.12",32542,"ListA","woman","english",NA,NA,NA,NA,"{""Q0"":""Mike is accompanying Dave""}","<img src='gifs/MaleRace4a.gif' style='height:400px;''></img>","accompanying","is accompanying","english",NA
"null","<div style=""font-size:60px;"">+</div>",NA,"html-keyboard-response",262,1232974,"0.0-17.0-0.13",32542,"ListA","woman","english",NA,NA,NA,"null",NA,NA,NA,NA,NA,NA
"null","<img src='gifs/FemaleRace3a.gif' style='height:400px;''></img>",NA,"html-keyboard-response",263,1234975,"0.0-17.0-1.13",32542,"ListA","woman","english",NA,NA,NA,"null",NA,NA,NA,NA,NA,NA
"null","is touching",NA,"html-keyboard-response",264,1237977,"0.0-17.0-2.13",32542,"ListA","woman","english",NA,NA,NA,"null",NA,NA,NA,NA,NA,NA
"6889",NA,NA,"survey-text",265,1244873,"0.0-17.0-3.13",32542,"ListA","woman","english",NA,NA,NA,NA,"{""Q0"":""Beth is touching Ruth""}","<img src='gifs/FemaleRace3a.gif' style='height:400px;''></img>","touching","is touching","english",NA
"null","<div style=""font-size:60px;"">+</div>",NA,"html-keyboard-response",266,1245375,"0.0-17.0-0.14",32542,"ListA","woman","english",NA,NA,NA,"null",NA,NA,NA,NA,NA,NA
"null","<img src='gifs/MaleRace4b.gif' style='height:400px;''></img>",NA,"html-keyboard-response",267,1247377,"0.0-17.0-1.14",32542,"ListA","woman","english",NA,NA,NA,"null",NA,NA,NA,NA,NA,NA
"null","is facing",NA,"html-keyboard-response",268,1250379,"0.0-17.0-2.14",32542,"ListA","woman","english",NA,NA,NA,"null",NA,NA,NA,NA,NA,NA
"4695",NA,NA,"survey-text",269,1255081,"0.0-17.0-3.14",32542,"ListA","woman","english",NA,NA,NA,NA,"{""Q0"":""Mike is facing Dave""}","<img src='gifs/MaleRace4b.gif' style='height:400px;''></img>","facing","is facing","english",NA
"null","<div style=""font-size:60px;"">+</div>",NA,"html-keyboard-response",270,1255583,"0.0-17.0-0.15",32542,"ListA","woman","english",NA,NA,NA,"null",NA,NA,NA,NA,NA,NA
"null","<img src='gifs/FemaleRace3a.gif' style='height:400px;''></img>",NA,"html-keyboard-response",271,1257585,"0.0-17.0-1.15",32542,"ListA","woman","english",NA,NA,NA,"null",NA,NA,NA,NA,NA,NA
"null","is joining",NA,"html-keyboard-response",272,1260587,"0.0-17.0-2.15",32542,"ListA","woman","english",NA,NA,NA,"null",NA,NA,NA,NA,NA,NA
"5475",NA,NA,"survey-text",273,1266068,"0.0-17.0-3.15",32542,"ListA","woman","english",NA,NA,NA,NA,"{""Q0"":""Ruth is joining Beth""}","<img src='gifs/FemaleRace3a.gif' style='height:400px;''></img>","join","is joining","english",NA
"null","<div style=""font-size:60px;"">+</div>",NA,"html-keyboard-response",274,1266570,"0.0-17.0-0.16",32542,"ListA","woman","english",NA,NA,NA,"null",NA,NA,NA,NA,NA,NA
"null","<img src='gifs/MaleRace1b.gif' style='height:400px;''></img>",NA,"html-keyboard-response",275,1268572,"0.0-17.0-1.16",32542,"ListA","woman","english",NA,NA,NA,"null",NA,NA,NA,NA,NA,NA
"null","is employing",NA,"html-keyboard-response",276,1271574,"0.0-17.0-2.16",32542,"ListA","woman","english",NA,NA,NA,"null",NA,NA,NA,NA,NA,NA
"7619",NA,NA,"survey-text",277,1279200,"0.0-17.0-3.16",32542,"ListA","woman","english",NA,NA,NA,NA,"{""Q0"":""Fred is employing Luke""}","<img src='gifs/MaleRace1b.gif' style='height:400px;''></img>","employing","is employing","english",NA
"null","<div style=""font-size:60px;"">+</div>",NA,"html-keyboard-response",278,1279702,"0.0-17.0-0.17",32542,"ListA","woman","english",NA,NA,NA,"null",NA,NA,NA,NA,NA,NA
"null","<img src='gifs/BlackGender4a.gif' style='height:400px;''></img>",NA,"html-keyboard-response",279,1281704,"0.0-17.0-1.17",32542,"ListA","woman","english",NA,NA,NA,"null",NA,NA,NA,NA,NA,NA
"null","is promising",NA,"html-keyboard-response",280,1284706,"0.0-17.0-2.17",32542,"ListA","woman","english",NA,NA,NA,"null",NA,NA,NA,NA,NA,NA
"7759",NA,NA,"survey-text",281,1292472,"0.0-17.0-3.17",32542,"ListA","woman","english",NA,NA,NA,NA,"{""Q0"":""Dave is promising Jane""}","<img src='gifs/BlackGender4a.gif' style='height:400px;''></img>","promising","is promising","english",NA
"5000","<p>Thank you for completing that task.</p><p>The final part of this session is a short questionnaire.</p><p>Press Continue.</p>",0,"html-button-response",282,1297473,"0.0-18.0",32542,"ListA","woman","english",NA,NA,NA,NA,NA,NA,NA,NA,NA,NA
"89364",NA,NA,"survey-text",283,1387849,"0.0-19.0",32542,"ListA","woman","english",NA,NA,NA,NA,"{""Q0"":""22"",""Q1"":""Chinese"",""Q2"":""Chinese"",""Q3"":""UK"",""Q4"":""PRC"",""Q5"":""Chinese"",""Q6"":""Female""}",NA,NA,NA,NA,"demographics"
"4145",NA,NA,"external-html",284,1392049,"0.0-20.0",32542,"ListA","woman","english","debrief.html",NA,NA,NA,NA,NA,NA,NA,NA,NA
"33043",NA,NA,"survey-text",285,1425101,"0.0-21.0",32542,"ListA","woman","english",NA,NA,NA,NA,"{""Q0"":""EFA1""}",NA,NA,NA,NA,"worker_id"
