"rt","stimulus","button_pressed","trial_type","trial_index","time_elapsed","internal_node_id","subject","list","ppt_gender","ppt_language","ptptID","url","first_guess","correct","key_press","responses","image","verb","phrase","condition","test_part"
"38145","Welcome to the experiment. Press Continue to begin.",0,"html-button-response",0,38149,"0.0-0.0",54917,"ListA","woman","chinese","CFA2",NA,NA,NA,NA,NA,NA,NA,NA,NA,NA
"11398.000000000007",NA,NA,"external-html",1,52188,"0.0-1.0",54917,"ListA","woman","chinese","CFA2","consent.html",NA,NA,NA,NA,NA,NA,NA,NA,NA
"6127.000000000007","<p>在下一页中，您将看到8个人物肖像和他们各自的名字。</p><p>请花费几分钟的时间记住这些人物及其所对应的名字。</p><p>之后的实验中需要您对人物的名字做出回忆，</p><p>因此在实验开始前请确保您已 经完全记住这些人物及其所对应的名字。</p><p><strong>然后您将完成一个测试以检验您对人物和名字的记忆。</strong></p><p>完成此记忆测试后，您将正式进入实验。</p><p>准备好了吗？</p>",0,"html-button-response",2,58318,"0.0-2.0",54917,"ListA","woman","chinese","CFA2",NA,NA,NA,NA,NA,NA,NA,NA,NA,NA
"143007.00000000003","<img src='img/portrait_matrix_listA_chinese.jpg' style='width:900px;height:500px;''></img><p>如果您已经记住了所有的人物和名字，请点击继续。</p><p><strong>请注意：您对先前记忆的面孔将在本实验中被测试5次。</strong></p>",0,"html-button-response",3,202329,"0.0-3.0-0.0",54917,"ListA","woman","chinese","CFA2",NA,NA,NA,NA,NA,NA,NA,NA,NA,NA
"7066.000000000029","<img src=""portrait/WM2.jpg""style=""height:400px;""></img>",6,"html-button-response",4,210399,"0.0-3.0-1.0",54917,"ListA","woman","chinese","CFA2",NA,"true",7,NA,NA,NA,NA,NA,NA,NA
"3344","<img src=""portrait/WM2.jpg""style=""height:400px;""></img>",7,"html-button-response",5,214752,"0.0-3.0-3.0-0.0",54917,"ListA","woman","chinese","CFA2",NA,"false",7,NA,NA,NA,NA,NA,NA,NA
"null","正确",NA,"html-keyboard-response",6,216258,"0.0-3.0-3.0-1.0-0.0",54917,"ListA","woman","chinese","CFA2",NA,NA,NA,"null",NA,NA,NA,NA,NA,NA
"3807","<img src=""portrait/BW1.jpg""style=""height:400px;""></img>",0,"html-button-response",7,220068,"0.0-3.0-4.0",54917,"ListA","woman","chinese","CFA2",NA,"true",0,NA,NA,NA,NA,NA,NA,NA
"null","正确",NA,"html-keyboard-response",8,221571,"0.0-3.0-5.0-0.0",54917,"ListA","woman","chinese","CFA2",NA,NA,NA,"null",NA,NA,NA,NA,NA,NA
"5493.000000000029","<img src=""portrait/BM2.jpg""style=""height:400px;""></img>",5,"html-button-response",9,227067,"0.0-3.0-7.0",54917,"ListA","woman","chinese","CFA2",NA,"true",5,NA,NA,NA,NA,NA,NA,NA
"null","正确",NA,"html-keyboard-response",10,228571,"0.0-3.0-8.0-0.0",54917,"ListA","woman","chinese","CFA2",NA,NA,NA,"null",NA,NA,NA,NA,NA,NA
"8400","<img src=""portrait/BW2.jpg""style=""height:400px;""></img>",2,"html-button-response",11,236973,"0.0-3.0-10.0",54917,"ListA","woman","chinese","CFA2",NA,"true",2,NA,NA,NA,NA,NA,NA,NA
"null","正确",NA,"html-keyboard-response",12,238481,"0.0-3.0-11.0-0.0",54917,"ListA","woman","chinese","CFA2",NA,NA,NA,"null",NA,NA,NA,NA,NA,NA
"3699.999999999971","<img src=""portrait/WW2.jpg""style=""height:400px;""></img>",3,"html-button-response",13,242184,"0.0-3.0-13.0",54917,"ListA","woman","chinese","CFA2",NA,"true",3,NA,NA,NA,NA,NA,NA,NA
"null","正确",NA,"html-keyboard-response",14,243688,"0.0-3.0-14.0-0.0",54917,"ListA","woman","chinese","CFA2",NA,NA,NA,"null",NA,NA,NA,NA,NA,NA
"5561.000000000029","<img src=""portrait/WM1.jpg""style=""height:400px;""></img>",6,"html-button-response",15,249251,"0.0-3.0-16.0",54917,"ListA","woman","chinese","CFA2",NA,"true",6,NA,NA,NA,NA,NA,NA,NA
"null","正确",NA,"html-keyboard-response",16,250754,"0.0-3.0-17.0-0.0",54917,"ListA","woman","chinese","CFA2",NA,NA,NA,"null",NA,NA,NA,NA,NA,NA
"2312","<img src=""portrait/WW1.jpg""style=""height:400px;""></img>",1,"html-button-response",17,253069,"0.0-3.0-19.0",54917,"ListA","woman","chinese","CFA2",NA,"true",1,NA,NA,NA,NA,NA,NA,NA
"null","正确",NA,"html-keyboard-response",18,254572,"0.0-3.0-20.0-0.0",54917,"ListA","woman","chinese","CFA2",NA,NA,NA,"null",NA,NA,NA,NA,NA,NA
"2626","<img src=""portrait/BM1.jpg""style=""height:400px;""></img>",4,"html-button-response",19,257202,"0.0-3.0-22.0",54917,"ListA","woman","chinese","CFA2",NA,"true",4,NA,NA,NA,NA,NA,NA,NA
"null","正确",NA,"html-keyboard-response",20,258705,"0.0-3.0-23.0-0.0",54917,"ListA","woman","chinese","CFA2",NA,NA,NA,"null",NA,NA,NA,NA,NA,NA
"1700","<p>您第一次在8题里答对了 7 题。 请点击继续</p>",0,"html-button-response",21,260409,"0.0-3.0-25.0",54917,"ListA","woman","chinese","CFA2",NA,NA,NA,NA,NA,NA,NA,NA,NA,NA
"1781","因为您没有全部答对，记忆游戏将重新开始。请点击继续。",0,"html-button-response",22,263192,"0.0-3.0-26.0-0.0",54917,"ListA","woman","chinese","CFA2",NA,NA,NA,NA,NA,NA,NA,NA,NA,NA
"3063","<img src='img/portrait_matrix_listA_chinese.jpg' style='width:900px;height:500px;''></img><p>如果您已经记住了所有的人物和名字，请点击继续。</p><p><strong>请注意：您对先前记忆的面孔将在本实验中被测试5次。</strong></p>",0,"html-button-response",23,267265,"0.0-3.1-0.1",54917,"ListA","woman","chinese","CFA2",NA,NA,NA,NA,NA,NA,NA,NA,NA,NA
"2596","<img src=""portrait/WM2.jpg""style=""height:400px;""></img>",7,"html-button-response",24,270864,"0.0-3.1-1.1",54917,"ListA","woman","chinese","CFA2",NA,"true",7,NA,NA,NA,NA,NA,NA,NA
"null","正确",NA,"html-keyboard-response",25,272367,"0.0-3.1-2.1-0.1",54917,"ListA","woman","chinese","CFA2",NA,NA,NA,"null",NA,NA,NA,NA,NA,NA
"2366","<img src=""portrait/BW1.jpg""style=""height:400px;""></img>",0,"html-button-response",26,274737,"0.0-3.1-4.1",54917,"ListA","woman","chinese","CFA2",NA,"true",0,NA,NA,NA,NA,NA,NA,NA
"null","正确",NA,"html-keyboard-response",27,276240,"0.0-3.1-5.1-0.1",54917,"ListA","woman","chinese","CFA2",NA,NA,NA,"null",NA,NA,NA,NA,NA,NA
"4897","<img src=""portrait/BM2.jpg""style=""height:400px;""></img>",5,"html-button-response",28,281141,"0.0-3.1-7.1",54917,"ListA","woman","chinese","CFA2",NA,"true",5,NA,NA,NA,NA,NA,NA,NA
"null","正确",NA,"html-keyboard-response",29,282645,"0.0-3.1-8.1-0.1",54917,"ListA","woman","chinese","CFA2",NA,NA,NA,"null",NA,NA,NA,NA,NA,NA
"3122","<img src=""portrait/BW2.jpg""style=""height:400px;""></img>",2,"html-button-response",30,285770,"0.0-3.1-10.1",54917,"ListA","woman","chinese","CFA2",NA,"true",2,NA,NA,NA,NA,NA,NA,NA
"null","正确",NA,"html-keyboard-response",31,287273,"0.0-3.1-11.1-0.1",54917,"ListA","woman","chinese","CFA2",NA,NA,NA,"null",NA,NA,NA,NA,NA,NA
"2777","<img src=""portrait/WW2.jpg""style=""height:400px;""></img>",3,"html-button-response",32,290053,"0.0-3.1-13.1",54917,"ListA","woman","chinese","CFA2",NA,"true",3,NA,NA,NA,NA,NA,NA,NA
"null","正确",NA,"html-keyboard-response",33,291557,"0.0-3.1-14.1-0.1",54917,"ListA","woman","chinese","CFA2",NA,NA,NA,"null",NA,NA,NA,NA,NA,NA
"4872","<img src=""portrait/WM1.jpg""style=""height:400px;""></img>",6,"html-button-response",34,296434,"0.0-3.1-16.1",54917,"ListA","woman","chinese","CFA2",NA,"true",6,NA,NA,NA,NA,NA,NA,NA
"null","正确",NA,"html-keyboard-response",35,297937,"0.0-3.1-17.1-0.1",54917,"ListA","woman","chinese","CFA2",NA,NA,NA,"null",NA,NA,NA,NA,NA,NA
"2577.000000000058","<img src=""portrait/WW1.jpg""style=""height:400px;""></img>",1,"html-button-response",36,300517,"0.0-3.1-19.1",54917,"ListA","woman","chinese","CFA2",NA,"true",1,NA,NA,NA,NA,NA,NA,NA
"null","正确",NA,"html-keyboard-response",37,302020,"0.0-3.1-20.1-0.1",54917,"ListA","woman","chinese","CFA2",NA,NA,NA,"null",NA,NA,NA,NA,NA,NA
"2095.000000000058","<img src=""portrait/BM1.jpg""style=""height:400px;""></img>",4,"html-button-response",38,304118,"0.0-3.1-22.1",54917,"ListA","woman","chinese","CFA2",NA,"true",4,NA,NA,NA,NA,NA,NA,NA
"null","正确",NA,"html-keyboard-response",39,305621,"0.0-3.1-23.1-0.1",54917,"ListA","woman","chinese","CFA2",NA,NA,NA,"null",NA,NA,NA,NA,NA,NA
"1227","<p>您第一次在8题里答对了 8 题。 请点击继续</p>",0,"html-button-response",40,306851,"0.0-3.1-25.1",54917,"ListA","woman","chinese","CFA2",NA,NA,NA,NA,NA,NA,NA,NA,NA,NA
"22785","<p>此次实验您将会看到先前记忆任务里的人物照片。</p><p>人物照片消失后您将看到一个动词短语，请正确回忆人物的名字并用特定的 动词短语组成一句完整的句子。</p><p>请在指定的框内输入您的答案。在进入下一题之前请确保您填写了完整的句子。</p><p>人物照片和动词短语只会在屏幕上出现几秒钟，因此请您答题时尽量集中注意力。</p><p>以下是例子。请您在准备好后按下“继续”。</p><img src='img/chinese_speaking_example.jpg' style='width:800px;height:460px;''></img>",0,"html-button-response",41,330640,"0.0-4.0",54917,"ListA","woman","chinese","CFA2",NA,NA,NA,NA,NA,NA,NA,NA,NA,NA
"2021","<p>在实验开始前，将为您展示两个示例实验。</p>",0,"html-button-response",42,333664,"0.0-5.0",54917,"ListA","woman","chinese","CFA2",NA,NA,NA,NA,NA,NA,NA,NA,NA,NA
"null","<img src='img/meet.gif' style='height:400px;''></img>",NA,"html-keyboard-response",43,336668,"0.0-6.0",54917,"ListA","woman","chinese","CFA2",NA,NA,NA,"null",NA,NA,NA,NA,NA,NA
"null","<p>正在约见</p>",NA,"html-keyboard-response",44,338671,"0.0-7.0",54917,"ListA","woman","chinese","CFA2",NA,NA,NA,"null",NA,NA,NA,NA,NA,NA
"3992","<p><b>答案:</b> 凯特正在约见贝斯</p>",0,"html-button-response",45,342665,"0.0-8.0",54917,"ListA","woman","chinese","CFA2",NA,NA,NA,NA,NA,NA,NA,NA,NA,NA
"null","<img src='img/spy.gif' style='height:400px;''></img>",NA,"html-keyboard-response",46,345668,"0.0-9.0",54917,"ListA","woman","chinese","CFA2",NA,NA,NA,"null",NA,NA,NA,NA,NA,NA
"null","<p>正在监视</p>",NA,"html-keyboard-response",47,347671,"0.0-10.0",54917,"ListA","woman","chinese","CFA2",NA,NA,NA,"null",NA,NA,NA,NA,NA,NA
"2052","<p><b>答案:</b> 卢克正在监视戴夫</p>",0,"html-button-response",48,349725,"0.0-11.0",54917,"ListA","woman","chinese","CFA2",NA,NA,NA,NA,NA,NA,NA,NA,NA,NA
"8365","<p>准备好开始了吗？</p><br><p><strong>请记住，您的答案需是一句完整的句子</strong></p><p><strong>，并用给到的图片人物和动词短语作答。</strong></p><p><strong>只有正确并完整完成实验才可获得报酬。</strong></p><p><strong> 您不需要加入任何标点符号。</strong></p><br><p>请按 ‘继续’ 键开始。</p>",0,"html-button-response",49,359092,"0.0-12.0",54917,"ListA","woman","chinese","CFA2",NA,NA,NA,NA,NA,NA,NA,NA,NA,NA
"null","<div style=""font-size:60px;"">+</div>",NA,"html-keyboard-response",50,360595,"0.0-13.0-0.0",54917,"ListA","woman","chinese","CFA2",NA,NA,NA,"null",NA,NA,NA,NA,NA,NA
"null","<img src='gifs/MaleRace2b.gif' style='height:400px;''></img>",NA,"html-keyboard-response",51,362602,"0.0-13.0-1.0",54917,"ListA","woman","chinese","CFA2",NA,NA,NA,"null",NA,NA,NA,NA,NA,NA
"null","正在陪伴",NA,"html-keyboard-response",52,365604,"0.0-13.0-2.0",54917,"ListA","woman","chinese","CFA2",NA,NA,NA,"null",NA,NA,NA,NA,NA,NA
"36838",NA,NA,"survey-text",53,402460,"0.0-13.0-3.0",54917,"ListA","woman","chinese","CFA2",NA,NA,NA,NA,"{""Q0"":""弗雷正在陪伴戴夫""}","<img src='gifs/MaleRace2b.gif' style='height:400px;''></img>","陪伴","正在陪伴","chinese",NA
"null","<div style=""font-size:60px;"">+</div>",NA,"html-keyboard-response",54,402963,"0.0-13.0-0.1",54917,"ListA","woman","chinese","CFA2",NA,NA,NA,"null",NA,NA,NA,NA,NA,NA
"null","<img src='gifs/FemaleRace2b.gif' style='height:400px;''></img>",NA,"html-keyboard-response",55,404966,"0.0-13.0-1.1",54917,"ListA","woman","chinese","CFA2",NA,NA,NA,"null",NA,NA,NA,NA,NA,NA
"null","正在表扬",NA,"html-keyboard-response",56,407969,"0.0-13.0-2.1",54917,"ListA","woman","chinese","CFA2",NA,NA,NA,"null",NA,NA,NA,NA,NA,NA
"17053",NA,NA,"survey-text",57,425026,"0.0-13.0-3.1",54917,"ListA","woman","chinese","CFA2",NA,NA,NA,NA,"{""Q0"":""霍普正在陪伴凯特""}","<img src='gifs/FemaleRace2b.gif' style='height:400px;''></img>","表扬","正在表扬","chinese",NA
"null","<div style=""font-size:60px;"">+</div>",NA,"html-keyboard-response",58,425528,"0.0-13.0-0.2",54917,"ListA","woman","chinese","CFA2",NA,NA,NA,"null",NA,NA,NA,NA,NA,NA
"null","<img src='gifs/BlackGender4a.gif' style='height:400px;''></img>",NA,"html-keyboard-response",59,427530,"0.0-13.0-1.2",54917,"ListA","woman","chinese","CFA2",NA,NA,NA,"null",NA,NA,NA,NA,NA,NA
"null","正在面向",NA,"html-keyboard-response",60,430533,"0.0-13.0-2.2",54917,"ListA","woman","chinese","CFA2",NA,NA,NA,"null",NA,NA,NA,NA,NA,NA
"10716",NA,NA,"survey-text",61,441253,"0.0-13.0-3.2",54917,"ListA","woman","chinese","CFA2",NA,NA,NA,NA,"{""Q0"":""戴夫正在面向凯特""}","<img src='gifs/BlackGender4a.gif' style='height:400px;''></img>","面向","正在面向","chinese",NA
"null","<div style=""font-size:60px;"">+</div>",NA,"html-keyboard-response",62,441754,"0.0-13.0-0.3",54917,"ListA","woman","chinese","CFA2",NA,NA,NA,"null",NA,NA,NA,NA,NA,NA
"null","<img src='gifs/FemaleRace4a.gif' style='height:400px;''></img>",NA,"html-keyboard-response",63,443757,"0.0-13.0-1.3",54917,"ListA","woman","chinese","CFA2",NA,NA,NA,"null",NA,NA,NA,NA,NA,NA
"null","正在加入",NA,"html-keyboard-response",64,446760,"0.0-13.0-2.3",54917,"ListA","woman","chinese","CFA2",NA,NA,NA,"null",NA,NA,NA,NA,NA,NA
"9029",NA,NA,"survey-text",65,455792,"0.0-13.0-3.3",54917,"ListA","woman","chinese","CFA2",NA,NA,NA,NA,"{""Q0"":""霍普正在加入贝斯""}","<img src='gifs/FemaleRace4a.gif' style='height:400px;''></img>","加入","正在加入","chinese",NA
"null","<div style=""font-size:60px;"">+</div>",NA,"html-keyboard-response",66,456297,"0.0-13.0-0.4",54917,"ListA","woman","chinese","CFA2",NA,NA,NA,"null",NA,NA,NA,NA,NA,NA
"null","<img src='gifs/MaleRace2a.gif' style='height:400px;''></img>",NA,"html-keyboard-response",67,458301,"0.0-13.0-1.4",54917,"ListA","woman","chinese","CFA2",NA,NA,NA,"null",NA,NA,NA,NA,NA,NA
"null","正在跟随",NA,"html-keyboard-response",68,461303,"0.0-13.0-2.4",54917,"ListA","woman","chinese","CFA2",NA,NA,NA,"null",NA,NA,NA,NA,NA,NA
"12198.000000000058",NA,NA,"survey-text",69,473505,"0.0-13.0-3.4",54917,"ListA","woman","chinese","CFA2",NA,NA,NA,NA,"{""Q0"":""弗雷正在跟随戴夫""}","<img src='gifs/MaleRace2a.gif' style='height:400px;''></img>","跟随","正在跟随","chinese",NA
"null","<div style=""font-size:60px;"">+</div>",NA,"html-keyboard-response",70,474007,"0.0-13.0-0.5",54917,"ListA","woman","chinese","CFA2",NA,NA,NA,"null",NA,NA,NA,NA,NA,NA
"null","<img src='gifs/FemaleRace1b.gif' style='height:400px;''></img>",NA,"html-keyboard-response",71,476010,"0.0-13.0-1.5",54917,"ListA","woman","chinese","CFA2",NA,NA,NA,"null",NA,NA,NA,NA,NA,NA
"null","正在聘用",NA,"html-keyboard-response",72,479012,"0.0-13.0-2.5",54917,"ListA","woman","chinese","CFA2",NA,NA,NA,"null",NA,NA,NA,NA,NA,NA
"14043",NA,NA,"survey-text",73,493060,"0.0-13.0-3.5",54917,"ListA","woman","chinese","CFA2",NA,NA,NA,NA,"{""Q0"":""贝斯正在聘用露丝""}","<img src='gifs/FemaleRace1b.gif' style='height:400px;''></img>","聘用","正在聘用","chinese",NA
"null","<div style=""font-size:60px;"">+</div>",NA,"html-keyboard-response",74,493562,"0.0-13.0-0.6",54917,"ListA","woman","chinese","CFA2",NA,NA,NA,"null",NA,NA,NA,NA,NA,NA
"null","<img src='gifs/MaleRace4b.gif' style='height:400px;''></img>",NA,"html-keyboard-response",75,495564,"0.0-13.0-1.6",54917,"ListA","woman","chinese","CFA2",NA,NA,NA,"null",NA,NA,NA,NA,NA,NA
"null","正在面向",NA,"html-keyboard-response",76,498567,"0.0-13.0-2.6",54917,"ListA","woman","chinese","CFA2",NA,NA,NA,"null",NA,NA,NA,NA,NA,NA
"8353.999999999884",NA,NA,"survey-text",77,506925,"0.0-13.0-3.6",54917,"ListA","woman","chinese","CFA2",NA,NA,NA,NA,"{""Q0"":""麦克正在面向戴夫""}","<img src='gifs/MaleRace4b.gif' style='height:400px;''></img>","面向","正在面向","chinese",NA
"null","<div style=""font-size:60px;"">+</div>",NA,"html-keyboard-response",78,507427,"0.0-13.0-0.7",54917,"ListA","woman","chinese","CFA2",NA,NA,NA,"null",NA,NA,NA,NA,NA,NA
"null","<img src='gifs/ChineseGender4b.gif' style='height:400px;''></img>",NA,"html-keyboard-response",79,509430,"0.0-13.0-1.7",54917,"ListA","woman","chinese","CFA2",NA,NA,NA,"null",NA,NA,NA,NA,NA,NA
"null","正在说服",NA,"html-keyboard-response",80,512432,"0.0-13.0-2.7",54917,"ListA","woman","chinese","CFA2",NA,NA,NA,"null",NA,NA,NA,NA,NA,NA
"13490",NA,NA,"survey-text",81,525926,"0.0-13.0-3.7",54917,"ListA","woman","chinese","CFA2",NA,NA,NA,NA,"{""Q0"":""麦克正在说服凯特""}","<img src='gifs/ChineseGender4b.gif' style='height:400px;''></img>","说服","正在说服","chinese",NA
"null","<div style=""font-size:60px;"">+</div>",NA,"html-keyboard-response",82,526428,"0.0-13.0-0.8",54917,"ListA","woman","chinese","CFA2",NA,NA,NA,"null",NA,NA,NA,NA,NA,NA
"null","<img src='gifs/BlackGender2a.gif' style='height:400px;''></img>",NA,"html-keyboard-response",83,528430,"0.0-13.0-1.8",54917,"ListA","woman","chinese","CFA2",NA,NA,NA,"null",NA,NA,NA,NA,NA,NA
"null","正在聆听",NA,"html-keyboard-response",84,531433,"0.0-13.0-2.8",54917,"ListA","woman","chinese","CFA2",NA,NA,NA,"null",NA,NA,NA,NA,NA,NA
"13398",NA,NA,"survey-text",85,544835,"0.0-13.0-3.8",54917,"ListA","woman","chinese","CFA2",NA,NA,NA,NA,"{""Q0"":""露丝正在说服戴夫""}","<img src='gifs/BlackGender2a.gif' style='height:400px;''></img>","聆听","正在聆听","chinese",NA
"null","<div style=""font-size:60px;"">+</div>",NA,"html-keyboard-response",86,545337,"0.0-13.0-0.9",54917,"ListA","woman","chinese","CFA2",NA,NA,NA,"null",NA,NA,NA,NA,NA,NA
"null","<img src='gifs/ChineseGender4a.gif' style='height:400px;''></img>",NA,"html-keyboard-response",87,547340,"0.0-13.0-1.9",54917,"ListA","woman","chinese","CFA2",NA,NA,NA,"null",NA,NA,NA,NA,NA,NA
"null","正在表扬",NA,"html-keyboard-response",88,550342,"0.0-13.0-2.9",54917,"ListA","woman","chinese","CFA2",NA,NA,NA,"null",NA,NA,NA,NA,NA,NA
"15703",NA,NA,"survey-text",89,566049,"0.0-13.0-3.9",54917,"ListA","woman","chinese","CFA2",NA,NA,NA,NA,"{""Q0"":""贝斯正在表扬麦克""}","<img src='gifs/ChineseGender4a.gif' style='height:400px;''></img>","表扬","正在表扬","chinese",NA
"null","<div style=""font-size:60px;"">+</div>",NA,"html-keyboard-response",90,566552,"0.0-13.0-0.10",54917,"ListA","woman","chinese","CFA2",NA,NA,NA,"null",NA,NA,NA,NA,NA,NA
"null","<img src='gifs/ChineseGender1b.gif' style='height:400px;''></img>",NA,"html-keyboard-response",91,568554,"0.0-13.0-1.10",54917,"ListA","woman","chinese","CFA2",NA,NA,NA,"null",NA,NA,NA,NA,NA,NA
"null","正在看着",NA,"html-keyboard-response",92,571557,"0.0-13.0-2.10",54917,"ListA","woman","chinese","CFA2",NA,NA,NA,"null",NA,NA,NA,NA,NA,NA
"9624.000000000116",NA,NA,"survey-text",93,581185,"0.0-13.0-3.10",54917,"ListA","woman","chinese","CFA2",NA,NA,NA,NA,"{""Q0"":""凯特正在看着弗雷""}","<img src='gifs/ChineseGender1b.gif' style='height:400px;''></img>","看着","正在看着","chinese",NA
"null","<div style=""font-size:60px;"">+</div>",NA,"html-keyboard-response",94,581687,"0.0-13.0-0.11",54917,"ListA","woman","chinese","CFA2",NA,NA,NA,"null",NA,NA,NA,NA,NA,NA
"null","<img src='gifs/ChineseGender4b.gif' style='height:400px;''></img>",NA,"html-keyboard-response",95,583690,"0.0-13.0-1.11",54917,"ListA","woman","chinese","CFA2",NA,NA,NA,"null",NA,NA,NA,NA,NA,NA
"null","正在联系",NA,"html-keyboard-response",96,586692,"0.0-13.0-2.11",54917,"ListA","woman","chinese","CFA2",NA,NA,NA,"null",NA,NA,NA,NA,NA,NA
"14770",NA,NA,"survey-text",97,601463,"0.0-13.0-3.11",54917,"ListA","woman","chinese","CFA2",NA,NA,NA,NA,"{""Q0"":""凯特正在联系麦克""}","<img src='gifs/ChineseGender4b.gif' style='height:400px;''></img>","联系","正在联系","chinese",NA
"null","<div style=""font-size:60px;"">+</div>",NA,"html-keyboard-response",98,601965,"0.0-13.0-0.12",54917,"ListA","woman","chinese","CFA2",NA,NA,NA,"null",NA,NA,NA,NA,NA,NA
"null","<img src='gifs/ChineseGender3a.gif' style='height:400px;''></img>",NA,"html-keyboard-response",99,603965,"0.0-13.0-1.12",54917,"ListA","woman","chinese","CFA2",NA,NA,NA,"null",NA,NA,NA,NA,NA,NA
"null","正在提到",NA,"html-keyboard-response",100,606965,"0.0-13.0-2.12",54917,"ListA","woman","chinese","CFA2",NA,NA,NA,"null",NA,NA,NA,NA,NA,NA
"11705",NA,NA,"survey-text",101,618666,"0.0-13.0-3.12",54917,"ListA","woman","chinese","CFA2",NA,NA,NA,NA,"{""Q0"":""贝斯正在提到麦克""}","<img src='gifs/ChineseGender3a.gif' style='height:400px;''></img>","提到","正在提到","chinese",NA
"null","<div style=""font-size:60px;"">+</div>",NA,"html-keyboard-response",102,619167,"0.0-13.0-0.13",54917,"ListA","woman","chinese","CFA2",NA,NA,NA,"null",NA,NA,NA,NA,NA,NA
"null","<img src='gifs/FemaleRace2a.gif' style='height:400px;''></img>",NA,"html-keyboard-response",103,621169,"0.0-13.0-1.13",54917,"ListA","woman","chinese","CFA2",NA,NA,NA,"null",NA,NA,NA,NA,NA,NA
"null","正在联系",NA,"html-keyboard-response",104,624170,"0.0-13.0-2.13",54917,"ListA","woman","chinese","CFA2",NA,NA,NA,"null",NA,NA,NA,NA,NA,NA
"7203",NA,NA,"survey-text",105,631487,"0.0-13.0-3.13",54917,"ListA","woman","chinese","CFA2",NA,NA,NA,NA,"{""Q0"":""霍普正在联系凯特""}","<img src='gifs/FemaleRace2a.gif' style='height:400px;''></img>","联系","正在联系","chinese",NA
"null","<div style=""font-size:60px;"">+</div>",NA,"html-keyboard-response",106,631989,"0.0-13.0-0.14",54917,"ListA","woman","chinese","CFA2",NA,NA,NA,"null",NA,NA,NA,NA,NA,NA
"null","<img src='gifs/MaleRace4a.gif' style='height:400px;''></img>",NA,"html-keyboard-response",107,633992,"0.0-13.0-1.14",54917,"ListA","woman","chinese","CFA2",NA,NA,NA,"null",NA,NA,NA,NA,NA,NA
"null","正在看着",NA,"html-keyboard-response",108,636995,"0.0-13.0-2.14",54917,"ListA","woman","chinese","CFA2",NA,NA,NA,"null",NA,NA,NA,NA,NA,NA
"6783.000000000116",NA,NA,"survey-text",109,643782,"0.0-13.0-3.14",54917,"ListA","woman","chinese","CFA2",NA,NA,NA,NA,"{""Q0"":""麦克正在看着戴夫""}","<img src='gifs/MaleRace4a.gif' style='height:400px;''></img>","看着","正在看着","chinese",NA
"null","<div style=""font-size:60px;"">+</div>",NA,"html-keyboard-response",110,644284,"0.0-13.0-0.15",54917,"ListA","woman","chinese","CFA2",NA,NA,NA,"null",NA,NA,NA,NA,NA,NA
"null","<img src='gifs/ChineseGender3a.gif' style='height:400px;''></img>",NA,"html-keyboard-response",111,646287,"0.0-13.0-1.15",54917,"ListA","woman","chinese","CFA2",NA,NA,NA,"null",NA,NA,NA,NA,NA,NA
"null","正在走向",NA,"html-keyboard-response",112,649289,"0.0-13.0-2.15",54917,"ListA","woman","chinese","CFA2",NA,NA,NA,"null",NA,NA,NA,NA,NA,NA
"7342",NA,NA,"survey-text",113,656633,"0.0-13.0-3.15",54917,"ListA","woman","chinese","CFA2",NA,NA,NA,NA,"{""Q0"":""贝斯正在走向麦克""}","<img src='gifs/ChineseGender3a.gif' style='height:400px;''></img>","走向","正在走向","chinese",NA
"null","<div style=""font-size:60px;"">+</div>",NA,"html-keyboard-response",114,657135,"0.0-13.0-0.16",54917,"ListA","woman","chinese","CFA2",NA,NA,NA,"null",NA,NA,NA,NA,NA,NA
"null","<img src='gifs/MaleRace1a.gif' style='height:400px;''></img>",NA,"html-keyboard-response",115,659137,"0.0-13.0-1.16",54917,"ListA","woman","chinese","CFA2",NA,NA,NA,"null",NA,NA,NA,NA,NA,NA
"null","正在答应",NA,"html-keyboard-response",116,662138,"0.0-13.0-2.16",54917,"ListA","woman","chinese","CFA2",NA,NA,NA,"null",NA,NA,NA,NA,NA,NA
"8800",NA,NA,"survey-text",117,670941,"0.0-13.0-3.16",54917,"ListA","woman","chinese","CFA2",NA,NA,NA,NA,"{""Q0"":""弗雷正在答应卢克""}","<img src='gifs/MaleRace1a.gif' style='height:400px;''></img>","答应","正在答应","chinese",NA
"null","<div style=""font-size:60px;"">+</div>",NA,"html-keyboard-response",118,671442,"0.0-13.0-0.17",54917,"ListA","woman","chinese","CFA2",NA,NA,NA,"null",NA,NA,NA,NA,NA,NA
"null","<img src='gifs/BlackGender4b.gif' style='height:400px;''></img>",NA,"html-keyboard-response",119,673445,"0.0-13.0-1.17",54917,"ListA","woman","chinese","CFA2",NA,NA,NA,"null",NA,NA,NA,NA,NA,NA
"null","正在介绍",NA,"html-keyboard-response",120,676447,"0.0-13.0-2.17",54917,"ListA","woman","chinese","CFA2",NA,NA,NA,"null",NA,NA,NA,NA,NA,NA
"8918.999999999884",NA,NA,"survey-text",121,685370,"0.0-13.0-3.17",54917,"ListA","woman","chinese","CFA2",NA,NA,NA,NA,"{""Q0"":""戴夫正在介绍霍普""}","<img src='gifs/BlackGender4b.gif' style='height:400px;''></img>","介绍","正在介绍","chinese",NA
"5067","<img src='img/portrait_matrix_listA_chinese.jpg' style='width:900px;height:500px;''></img><p>如果您已经记住了所有的人物和名字，请点击继续。</p><p><strong>请注意：您对先前记忆的面孔将在本实验中被测试5次。</strong></p>",0,"html-button-response",122,690440,"0.0-14.0-0.0",54917,"ListA","woman","chinese","CFA2",NA,NA,NA,NA,NA,NA,NA,NA,NA,NA
"11986","<img src=""portrait/BW1.jpg""style=""height:400px;""></img>",0,"html-button-response",123,703431,"0.0-14.0-1.0",54917,"ListA","woman","chinese","CFA2",NA,"true",0,NA,NA,NA,NA,NA,NA,NA
"null","正确",NA,"html-keyboard-response",124,704933,"0.0-14.0-2.0-0.0",54917,"ListA","woman","chinese","CFA2",NA,NA,NA,"null",NA,NA,NA,NA,NA,NA
"1945","<img src=""portrait/WW2.jpg""style=""height:400px;""></img>",3,"html-button-response",125,706881,"0.0-14.0-4.0",54917,"ListA","woman","chinese","CFA2",NA,"true",3,NA,NA,NA,NA,NA,NA,NA
"null","正确",NA,"html-keyboard-response",126,708385,"0.0-14.0-5.0-0.0",54917,"ListA","woman","chinese","CFA2",NA,NA,NA,"null",NA,NA,NA,NA,NA,NA
"1628","<img src=""portrait/BM1.jpg""style=""height:400px;""></img>",3,"html-button-response",127,710015,"0.0-14.0-7.0",54917,"ListA","woman","chinese","CFA2",NA,"true",4,NA,NA,NA,NA,NA,NA,NA
"1434","<img src=""portrait/BM1.jpg""style=""height:400px;""></img>",4,"html-button-response",128,712451,"0.0-14.0-9.0-0.0",54917,"ListA","woman","chinese","CFA2",NA,"false",4,NA,NA,NA,NA,NA,NA,NA
"null","正确",NA,"html-keyboard-response",129,713954,"0.0-14.0-9.0-1.0-0.0",54917,"ListA","woman","chinese","CFA2",NA,NA,NA,"null",NA,NA,NA,NA,NA,NA
"1676","<img src=""portrait/BW2.jpg""style=""height:400px;""></img>",2,"html-button-response",130,715632,"0.0-14.0-10.0",54917,"ListA","woman","chinese","CFA2",NA,"true",2,NA,NA,NA,NA,NA,NA,NA
"null","正确",NA,"html-keyboard-response",131,717134,"0.0-14.0-11.0-0.0",54917,"ListA","woman","chinese","CFA2",NA,NA,NA,"null",NA,NA,NA,NA,NA,NA
"1761","<img src=""portrait/BM2.jpg""style=""height:400px;""></img>",5,"html-button-response",132,718896,"0.0-14.0-13.0",54917,"ListA","woman","chinese","CFA2",NA,"true",5,NA,NA,NA,NA,NA,NA,NA
"null","正确",NA,"html-keyboard-response",133,720399,"0.0-14.0-14.0-0.0",54917,"ListA","woman","chinese","CFA2",NA,NA,NA,"null",NA,NA,NA,NA,NA,NA
"2629","<img src=""portrait/WW1.jpg""style=""height:400px;""></img>",1,"html-button-response",134,723030,"0.0-14.0-16.0",54917,"ListA","woman","chinese","CFA2",NA,"true",1,NA,NA,NA,NA,NA,NA,NA
"null","正确",NA,"html-keyboard-response",135,724532,"0.0-14.0-17.0-0.0",54917,"ListA","woman","chinese","CFA2",NA,NA,NA,"null",NA,NA,NA,NA,NA,NA
"2314.9999999998836","<img src=""portrait/WM2.jpg""style=""height:400px;""></img>",7,"html-button-response",136,726849,"0.0-14.0-19.0",54917,"ListA","woman","chinese","CFA2",NA,"true",7,NA,NA,NA,NA,NA,NA,NA
"null","正确",NA,"html-keyboard-response",137,728351,"0.0-14.0-20.0-0.0",54917,"ListA","woman","chinese","CFA2",NA,NA,NA,"null",NA,NA,NA,NA,NA,NA
"2078","<img src=""portrait/WM1.jpg""style=""height:400px;""></img>",6,"html-button-response",138,730432,"0.0-14.0-22.0",54917,"ListA","woman","chinese","CFA2",NA,"true",6,NA,NA,NA,NA,NA,NA,NA
"null","正确",NA,"html-keyboard-response",139,731935,"0.0-14.0-23.0-0.0",54917,"ListA","woman","chinese","CFA2",NA,NA,NA,"null",NA,NA,NA,NA,NA,NA
"1095","<p>您第一次在8题里答对了 7 题。 请点击继续</p>",0,"html-button-response",140,733031,"0.0-14.0-25.0",54917,"ListA","woman","chinese","CFA2",NA,NA,NA,NA,NA,NA,NA,NA,NA,NA
"1566","因为您没有全部答对，记忆游戏将重新开始。请点击继续。",0,"html-button-response",141,735599,"0.0-14.0-26.0-0.0",54917,"ListA","woman","chinese","CFA2",NA,NA,NA,NA,NA,NA,NA,NA,NA,NA
"1546","<img src='img/portrait_matrix_listA_chinese.jpg' style='width:900px;height:500px;''></img><p>如果您已经记住了所有的人物和名字，请点击继续。</p><p><strong>请注意：您对先前记忆的面孔将在本实验中被测试5次。</strong></p>",0,"html-button-response",142,738149,"0.0-14.1-0.1",54917,"ListA","woman","chinese","CFA2",NA,NA,NA,NA,NA,NA,NA,NA,NA,NA
"6270","<img src=""portrait/BW1.jpg""style=""height:400px;""></img>",0,"html-button-response",143,745421,"0.0-14.1-1.1",54917,"ListA","woman","chinese","CFA2",NA,"true",0,NA,NA,NA,NA,NA,NA,NA
"null","正确",NA,"html-keyboard-response",144,746924,"0.0-14.1-2.1-0.1",54917,"ListA","woman","chinese","CFA2",NA,NA,NA,"null",NA,NA,NA,NA,NA,NA
"3666","<img src=""portrait/WW2.jpg""style=""height:400px;""></img>",3,"html-button-response",145,750593,"0.0-14.1-4.1",54917,"ListA","woman","chinese","CFA2",NA,"true",3,NA,NA,NA,NA,NA,NA,NA
"null","正确",NA,"html-keyboard-response",146,752096,"0.0-14.1-5.1-0.1",54917,"ListA","woman","chinese","CFA2",NA,NA,NA,"null",NA,NA,NA,NA,NA,NA
"1687","<img src=""portrait/BM1.jpg""style=""height:400px;""></img>",4,"html-button-response",147,753785,"0.0-14.1-7.1",54917,"ListA","woman","chinese","CFA2",NA,"true",4,NA,NA,NA,NA,NA,NA,NA
"null","正确",NA,"html-keyboard-response",148,755289,"0.0-14.1-8.1-0.1",54917,"ListA","woman","chinese","CFA2",NA,NA,NA,"null",NA,NA,NA,NA,NA,NA
"4978","<img src=""portrait/BW2.jpg""style=""height:400px;""></img>",2,"html-button-response",149,760269,"0.0-14.1-10.1",54917,"ListA","woman","chinese","CFA2",NA,"true",2,NA,NA,NA,NA,NA,NA,NA
"null","正确",NA,"html-keyboard-response",150,761772,"0.0-14.1-11.1-0.1",54917,"ListA","woman","chinese","CFA2",NA,NA,NA,"null",NA,NA,NA,NA,NA,NA
"2199","<img src=""portrait/BM2.jpg""style=""height:400px;""></img>",5,"html-button-response",151,763973,"0.0-14.1-13.1",54917,"ListA","woman","chinese","CFA2",NA,"true",5,NA,NA,NA,NA,NA,NA,NA
"null","正确",NA,"html-keyboard-response",152,765476,"0.0-14.1-14.1-0.1",54917,"ListA","woman","chinese","CFA2",NA,NA,NA,"null",NA,NA,NA,NA,NA,NA
"2193","<img src=""portrait/WW1.jpg""style=""height:400px;""></img>",1,"html-button-response",153,767671,"0.0-14.1-16.1",54917,"ListA","woman","chinese","CFA2",NA,"true",1,NA,NA,NA,NA,NA,NA,NA
"null","正确",NA,"html-keyboard-response",154,769174,"0.0-14.1-17.1-0.1",54917,"ListA","woman","chinese","CFA2",NA,NA,NA,"null",NA,NA,NA,NA,NA,NA
"1809","<img src=""portrait/WM2.jpg""style=""height:400px;""></img>",7,"html-button-response",155,770986,"0.0-14.1-19.1",54917,"ListA","woman","chinese","CFA2",NA,"true",7,NA,NA,NA,NA,NA,NA,NA
"null","正确",NA,"html-keyboard-response",156,772490,"0.0-14.1-20.1-0.1",54917,"ListA","woman","chinese","CFA2",NA,NA,NA,"null",NA,NA,NA,NA,NA,NA
"2745","<img src=""portrait/WM1.jpg""style=""height:400px;""></img>",6,"html-button-response",157,775237,"0.0-14.1-22.1",54917,"ListA","woman","chinese","CFA2",NA,"true",6,NA,NA,NA,NA,NA,NA,NA
"null","正确",NA,"html-keyboard-response",158,776741,"0.0-14.1-23.1-0.1",54917,"ListA","woman","chinese","CFA2",NA,NA,NA,"null",NA,NA,NA,NA,NA,NA
"1027.0000000001164","<p>您第一次在8题里答对了 8 题。 请点击继续</p>",0,"html-button-response",159,777771,"0.0-14.1-25.1",54917,"ListA","woman","chinese","CFA2",NA,NA,NA,NA,NA,NA,NA,NA,NA,NA
"null","<div style=""font-size:60px;"">+</div>",NA,"html-keyboard-response",160,779274,"0.0-15.0-0.0",54917,"ListA","woman","chinese","CFA2",NA,NA,NA,"null",NA,NA,NA,NA,NA,NA
"null","<img src='gifs/ChineseGender4a.gif' style='height:400px;''></img>",NA,"html-keyboard-response",161,781277,"0.0-15.0-1.0",54917,"ListA","woman","chinese","CFA2",NA,NA,NA,"null",NA,NA,NA,NA,NA,NA
"null","正在答应",NA,"html-keyboard-response",162,784278,"0.0-15.0-2.0",54917,"ListA","woman","chinese","CFA2",NA,NA,NA,"null",NA,NA,NA,NA,NA,NA
"7692",NA,NA,"survey-text",163,791975,"0.0-15.0-3.0",54917,"ListA","woman","chinese","CFA2",NA,NA,NA,NA,"{""Q0"":""麦克正在答应凯特""}","<img src='gifs/ChineseGender4a.gif' style='height:400px;''></img>","答应","正在答应","chinese",NA
"null","<div style=""font-size:60px;"">+</div>",NA,"html-keyboard-response",164,792477,"0.0-15.0-0.1",54917,"ListA","woman","chinese","CFA2",NA,NA,NA,"null",NA,NA,NA,NA,NA,NA
"null","<img src='gifs/MaleRace3a.gif' style='height:400px;''></img>",NA,"html-keyboard-response",165,794480,"0.0-15.0-1.1",54917,"ListA","woman","chinese","CFA2",NA,NA,NA,"null",NA,NA,NA,NA,NA,NA
"null","正在跟随",NA,"html-keyboard-response",166,797481,"0.0-15.0-2.1",54917,"ListA","woman","chinese","CFA2",NA,NA,NA,"null",NA,NA,NA,NA,NA,NA
"7449.000000000116",NA,NA,"survey-text",167,804935,"0.0-15.0-3.1",54917,"ListA","woman","chinese","CFA2",NA,NA,NA,NA,"{""Q0"":""麦克正在跟随卢克""}","<img src='gifs/MaleRace3a.gif' style='height:400px;''></img>","跟随","正在跟随","chinese",NA
"null","<div style=""font-size:60px;"">+</div>",NA,"html-keyboard-response",168,805437,"0.0-15.0-0.2",54917,"ListA","woman","chinese","CFA2",NA,NA,NA,"null",NA,NA,NA,NA,NA,NA
"null","<img src='gifs/FemaleRace3b.gif' style='height:400px;''></img>",NA,"html-keyboard-response",169,807439,"0.0-15.0-1.2",54917,"ListA","woman","chinese","CFA2",NA,NA,NA,"null",NA,NA,NA,NA,NA,NA
"null","正在触摸",NA,"html-keyboard-response",170,810442,"0.0-15.0-2.2",54917,"ListA","woman","chinese","CFA2",NA,NA,NA,"null",NA,NA,NA,NA,NA,NA
"9435",NA,NA,"survey-text",171,819880,"0.0-15.0-3.2",54917,"ListA","woman","chinese","CFA2",NA,NA,NA,NA,"{""Q0"":""贝斯正在触摸露丝""}","<img src='gifs/FemaleRace3b.gif' style='height:400px;''></img>","触摸","正在触摸","chinese",NA
"null","<div style=""font-size:60px;"">+</div>",NA,"html-keyboard-response",172,820382,"0.0-15.0-0.3",54917,"ListA","woman","chinese","CFA2",NA,NA,NA,"null",NA,NA,NA,NA,NA,NA
"null","<img src='gifs/MaleRace1b.gif' style='height:400px;''></img>",NA,"html-keyboard-response",173,822385,"0.0-15.0-1.3",54917,"ListA","woman","chinese","CFA2",NA,NA,NA,"null",NA,NA,NA,NA,NA,NA
"null","正在加入",NA,"html-keyboard-response",174,825386,"0.0-15.0-2.3",54917,"ListA","woman","chinese","CFA2",NA,NA,NA,"null",NA,NA,NA,NA,NA,NA
"7610",NA,NA,"survey-text",175,833000,"0.0-15.0-3.3",54917,"ListA","woman","chinese","CFA2",NA,NA,NA,NA,"{""Q0"":""弗雷正在加入卢克""}","<img src='gifs/MaleRace1b.gif' style='height:400px;''></img>","加入","正在加入","chinese",NA
"null","<div style=""font-size:60px;"">+</div>",NA,"html-keyboard-response",176,833503,"0.0-15.0-0.4",54917,"ListA","woman","chinese","CFA2",NA,NA,NA,"null",NA,NA,NA,NA,NA,NA
"null","<img src='gifs/BlackGender3a.gif' style='height:400px;''></img>",NA,"html-keyboard-response",177,835505,"0.0-15.0-1.4",54917,"ListA","woman","chinese","CFA2",NA,NA,NA,"null",NA,NA,NA,NA,NA,NA
"null","正在聆听",NA,"html-keyboard-response",178,838507,"0.0-15.0-2.4",54917,"ListA","woman","chinese","CFA2",NA,NA,NA,"null",NA,NA,NA,NA,NA,NA
"17425",NA,NA,"survey-text",179,855935,"0.0-15.0-3.4",54917,"ListA","woman","chinese","CFA2",NA,NA,NA,NA,"{""Q0"":""霍普正在聆听卢克""}","<img src='gifs/BlackGender3a.gif' style='height:400px;''></img>","聆听","正在聆听","chinese",NA
"null","<div style=""font-size:60px;"">+</div>",NA,"html-keyboard-response",180,856437,"0.0-15.0-0.5",54917,"ListA","woman","chinese","CFA2",NA,NA,NA,"null",NA,NA,NA,NA,NA,NA
"null","<img src='gifs/FemaleRace4a.gif' style='height:400px;''></img>",NA,"html-keyboard-response",181,858439,"0.0-15.0-1.5",54917,"ListA","woman","chinese","CFA2",NA,NA,NA,"null",NA,NA,NA,NA,NA,NA
"null","正在加入",NA,"html-keyboard-response",182,861441,"0.0-15.0-2.5",54917,"ListA","woman","chinese","CFA2",NA,NA,NA,"null",NA,NA,NA,NA,NA,NA
"7908",NA,NA,"survey-text",183,869351,"0.0-15.0-3.5",54917,"ListA","woman","chinese","CFA2",NA,NA,NA,NA,"{""Q0"":""贝斯正在加入霍普""}","<img src='gifs/FemaleRace4a.gif' style='height:400px;''></img>","加入","正在加入","chinese",NA
"null","<div style=""font-size:60px;"">+</div>",NA,"html-keyboard-response",184,869853,"0.0-15.0-0.6",54917,"ListA","woman","chinese","CFA2",NA,NA,NA,"null",NA,NA,NA,NA,NA,NA
"null","<img src='gifs/MaleRace1b.gif' style='height:400px;''></img>",NA,"html-keyboard-response",185,871855,"0.0-15.0-1.6",54917,"ListA","woman","chinese","CFA2",NA,NA,NA,"null",NA,NA,NA,NA,NA,NA
"null","正在聘用",NA,"html-keyboard-response",186,874858,"0.0-15.0-2.6",54917,"ListA","woman","chinese","CFA2",NA,NA,NA,"null",NA,NA,NA,NA,NA,NA
"8221.999999999884",NA,NA,"survey-text",187,883082,"0.0-15.0-3.6",54917,"ListA","woman","chinese","CFA2",NA,NA,NA,NA,"{""Q0"":""弗雷正在聘用卢克""}","<img src='gifs/MaleRace1b.gif' style='height:400px;''></img>","聘用","正在聘用","chinese",NA
"null","<div style=""font-size:60px;"">+</div>",NA,"html-keyboard-response",188,883584,"0.0-15.0-0.7",54917,"ListA","woman","chinese","CFA2",NA,NA,NA,"null",NA,NA,NA,NA,NA,NA
"null","<img src='gifs/MaleRace4a.gif' style='height:400px;''></img>",NA,"html-keyboard-response",189,885587,"0.0-15.0-1.7",54917,"ListA","woman","chinese","CFA2",NA,NA,NA,"null",NA,NA,NA,NA,NA,NA
"null","正在陪伴",NA,"html-keyboard-response",190,888588,"0.0-15.0-2.7",54917,"ListA","woman","chinese","CFA2",NA,NA,NA,"null",NA,NA,NA,NA,NA,NA
"7253",NA,NA,"survey-text",191,895847,"0.0-15.0-3.7",54917,"ListA","woman","chinese","CFA2",NA,NA,NA,NA,"{""Q0"":""麦克正在陪伴戴夫""}","<img src='gifs/MaleRace4a.gif' style='height:400px;''></img>","陪伴","正在陪伴","chinese",NA
"null","<div style=""font-size:60px;"">+</div>",NA,"html-keyboard-response",192,896349,"0.0-15.0-0.8",54917,"ListA","woman","chinese","CFA2",NA,NA,NA,"null",NA,NA,NA,NA,NA,NA
"null","<img src='gifs/FemaleRace1a.gif' style='height:400px;''></img>",NA,"html-keyboard-response",193,898351,"0.0-15.0-1.8",54917,"ListA","woman","chinese","CFA2",NA,NA,NA,"null",NA,NA,NA,NA,NA,NA
"null","正在说服",NA,"html-keyboard-response",194,901353,"0.0-15.0-2.8",54917,"ListA","woman","chinese","CFA2",NA,NA,NA,"null",NA,NA,NA,NA,NA,NA
"10662",NA,NA,"survey-text",195,912018,"0.0-15.0-3.8",54917,"ListA","woman","chinese","CFA2",NA,NA,NA,NA,"{""Q0"":""露丝正在说服贝斯""}","<img src='gifs/FemaleRace1a.gif' style='height:400px;''></img>","说服","正在说服","chinese",NA
"null","<div style=""font-size:60px;"">+</div>",NA,"html-keyboard-response",196,912519,"0.0-15.0-0.9",54917,"ListA","woman","chinese","CFA2",NA,NA,NA,"null",NA,NA,NA,NA,NA,NA
"null","<img src='gifs/BlackGender2b.gif' style='height:400px;''></img>",NA,"html-keyboard-response",197,914521,"0.0-15.0-1.9",54917,"ListA","woman","chinese","CFA2",NA,NA,NA,"null",NA,NA,NA,NA,NA,NA
"null","正在表扬",NA,"html-keyboard-response",198,917523,"0.0-15.0-2.9",54917,"ListA","woman","chinese","CFA2",NA,NA,NA,"null",NA,NA,NA,NA,NA,NA
"9106",NA,NA,"survey-text",199,926631,"0.0-15.0-3.9",54917,"ListA","woman","chinese","CFA2",NA,NA,NA,NA,"{""Q0"":""露丝正在表扬戴夫""}","<img src='gifs/BlackGender2b.gif' style='height:400px;''></img>","表扬","正在表扬","chinese",NA
"null","<div style=""font-size:60px;"">+</div>",NA,"html-keyboard-response",200,927134,"0.0-15.0-0.10",54917,"ListA","woman","chinese","CFA2",NA,NA,NA,"null",NA,NA,NA,NA,NA,NA
"null","<img src='gifs/MaleRace1a.gif' style='height:400px;''></img>",NA,"html-keyboard-response",201,929136,"0.0-15.0-1.10",54917,"ListA","woman","chinese","CFA2",NA,NA,NA,"null",NA,NA,NA,NA,NA,NA
"null","正在说服",NA,"html-keyboard-response",202,932138,"0.0-15.0-2.10",54917,"ListA","woman","chinese","CFA2",NA,NA,NA,"null",NA,NA,NA,NA,NA,NA
"12652",NA,NA,"survey-text",203,944793,"0.0-15.0-3.10",54917,"ListA","woman","chinese","CFA2",NA,NA,NA,NA,"{""Q0"":""卢克正在说服弗雷""}","<img src='gifs/MaleRace1a.gif' style='height:400px;''></img>","说服","正在说服","chinese",NA
"null","<div style=""font-size:60px;"">+</div>",NA,"html-keyboard-response",204,945295,"0.0-15.0-0.11",54917,"ListA","woman","chinese","CFA2",NA,NA,NA,"null",NA,NA,NA,NA,NA,NA
"null","<img src='gifs/FemaleRace2a.gif' style='height:400px;''></img>",NA,"html-keyboard-response",205,947297,"0.0-15.0-1.11",54917,"ListA","woman","chinese","CFA2",NA,NA,NA,"null",NA,NA,NA,NA,NA,NA
"null","正在联系",NA,"html-keyboard-response",206,950299,"0.0-15.0-2.11",54917,"ListA","woman","chinese","CFA2",NA,NA,NA,"null",NA,NA,NA,NA,NA,NA
"7484",NA,NA,"survey-text",207,957785,"0.0-15.0-3.11",54917,"ListA","woman","chinese","CFA2",NA,NA,NA,NA,"{""Q0"":""霍普正在联系贝斯""}","<img src='gifs/FemaleRace2a.gif' style='height:400px;''></img>","联系","正在联系","chinese",NA
"null","<div style=""font-size:60px;"">+</div>",NA,"html-keyboard-response",208,958286,"0.0-15.0-0.12",54917,"ListA","woman","chinese","CFA2",NA,NA,NA,"null",NA,NA,NA,NA,NA,NA
"null","<img src='gifs/BlackGender3b.gif' style='height:400px;''></img>",NA,"html-keyboard-response",209,960289,"0.0-15.0-1.12",54917,"ListA","woman","chinese","CFA2",NA,NA,NA,"null",NA,NA,NA,NA,NA,NA
"null","正在触摸",NA,"html-keyboard-response",210,963290,"0.0-15.0-2.12",54917,"ListA","woman","chinese","CFA2",NA,NA,NA,"null",NA,NA,NA,NA,NA,NA
"7435",NA,NA,"survey-text",211,970727,"0.0-15.0-3.12",54917,"ListA","woman","chinese","CFA2",NA,NA,NA,NA,"{""Q0"":""霍普正在触摸卢克""}","<img src='gifs/BlackGender3b.gif' style='height:400px;''></img>","触摸","正在触摸","chinese",NA
"null","<div style=""font-size:60px;"">+</div>",NA,"html-keyboard-response",212,971228,"0.0-15.0-0.13",54917,"ListA","woman","chinese","CFA2",NA,NA,NA,"null",NA,NA,NA,NA,NA,NA
"null","<img src='gifs/MaleRace2b.gif' style='height:400px;''></img>",NA,"html-keyboard-response",213,973231,"0.0-15.0-1.13",54917,"ListA","woman","chinese","CFA2",NA,NA,NA,"null",NA,NA,NA,NA,NA,NA
"null","正在介绍",NA,"html-keyboard-response",214,976232,"0.0-15.0-2.13",54917,"ListA","woman","chinese","CFA2",NA,NA,NA,"null",NA,NA,NA,NA,NA,NA
"9336",NA,NA,"survey-text",215,985571,"0.0-15.0-3.13",54917,"ListA","woman","chinese","CFA2",NA,NA,NA,NA,"{""Q0"":""弗雷正在介绍戴夫""}","<img src='gifs/MaleRace2b.gif' style='height:400px;''></img>","介绍","正在介绍","chinese",NA
"null","<div style=""font-size:60px;"">+</div>",NA,"html-keyboard-response",216,986073,"0.0-15.0-0.14",54917,"ListA","woman","chinese","CFA2",NA,NA,NA,"null",NA,NA,NA,NA,NA,NA
"null","<img src='gifs/ChineseGender1a.gif' style='height:400px;''></img>",NA,"html-keyboard-response",217,988075,"0.0-15.0-1.14",54917,"ListA","woman","chinese","CFA2",NA,NA,NA,"null",NA,NA,NA,NA,NA,NA
"null","正在面向",NA,"html-keyboard-response",218,991077,"0.0-15.0-2.14",54917,"ListA","woman","chinese","CFA2",NA,NA,NA,"null",NA,NA,NA,NA,NA,NA
"8459",NA,NA,"survey-text",219,999539,"0.0-15.0-3.14",54917,"ListA","woman","chinese","CFA2",NA,NA,NA,NA,"{""Q0"":""弗雷正在面向凯特""}","<img src='gifs/ChineseGender1a.gif' style='height:400px;''></img>","面向","正在面向","chinese",NA
"null","<div style=""font-size:60px;"">+</div>",NA,"html-keyboard-response",220,1000041,"0.0-15.0-0.15",54917,"ListA","woman","chinese","CFA2",NA,NA,NA,"null",NA,NA,NA,NA,NA,NA
"null","<img src='gifs/ChineseGender2a.gif' style='height:400px;''></img>",NA,"html-keyboard-response",221,1002044,"0.0-15.0-1.15",54917,"ListA","woman","chinese","CFA2",NA,NA,NA,"null",NA,NA,NA,NA,NA,NA
"null","正在陪伴",NA,"html-keyboard-response",222,1005046,"0.0-15.0-2.15",54917,"ListA","woman","chinese","CFA2",NA,NA,NA,"null",NA,NA,NA,NA,NA,NA
"6918",NA,NA,"survey-text",223,1011969,"0.0-15.0-3.15",54917,"ListA","woman","chinese","CFA2",NA,NA,NA,NA,"{""Q0"":""贝斯正在陪伴弗雷""}","<img src='gifs/ChineseGender2a.gif' style='height:400px;''></img>","陪伴","正在陪伴","chinese",NA
"null","<div style=""font-size:60px;"">+</div>",NA,"html-keyboard-response",224,1012471,"0.0-15.0-0.16",54917,"ListA","woman","chinese","CFA2",NA,NA,NA,"null",NA,NA,NA,NA,NA,NA
"null","<img src='gifs/BlackGender1a.gif' style='height:400px;''></img>",NA,"html-keyboard-response",225,1014474,"0.0-15.0-1.16",54917,"ListA","woman","chinese","CFA2",NA,NA,NA,"null",NA,NA,NA,NA,NA,NA
"null","正在表扬",NA,"html-keyboard-response",226,1017476,"0.0-15.0-2.16",54917,"ListA","woman","chinese","CFA2",NA,NA,NA,"null",NA,NA,NA,NA,NA,NA
"6804.000000000116",NA,NA,"survey-text",227,1024285,"0.0-15.0-3.16",54917,"ListA","woman","chinese","CFA2",NA,NA,NA,NA,"{""Q0"":""露丝正在表扬卢克""}","<img src='gifs/BlackGender1a.gif' style='height:400px;''></img>","表扬","正在表扬","chinese",NA
"null","<div style=""font-size:60px;"">+</div>",NA,"html-keyboard-response",228,1024787,"0.0-15.0-0.17",54917,"ListA","woman","chinese","CFA2",NA,NA,NA,"null",NA,NA,NA,NA,NA,NA
"null","<img src='gifs/ChineseGender2b.gif' style='height:400px;''></img>",NA,"html-keyboard-response",229,1026789,"0.0-15.0-1.17",54917,"ListA","woman","chinese","CFA2",NA,NA,NA,"null",NA,NA,NA,NA,NA,NA
"null","正在看着",NA,"html-keyboard-response",230,1029791,"0.0-15.0-2.17",54917,"ListA","woman","chinese","CFA2",NA,NA,NA,"null",NA,NA,NA,NA,NA,NA
"7125.999999999884",NA,NA,"survey-text",231,1036921,"0.0-15.0-3.17",54917,"ListA","woman","chinese","CFA2",NA,NA,NA,NA,"{""Q0"":""贝斯正在看着弗雷""}","<img src='gifs/ChineseGender2b.gif' style='height:400px;''></img>","看着","正在看着","chinese",NA
"4429","<img src='img/portrait_matrix_listA_chinese.jpg' style='width:900px;height:500px;''></img><p>如果您已经记住了所有的人物和名字，请点击继续。</p><p><strong>请注意：您对先前记忆的面孔将在本实验中被测试5次。</strong></p>",0,"html-button-response",232,1041358,"0.0-16.0-0.0",54917,"ListA","woman","chinese","CFA2",NA,NA,NA,NA,NA,NA,NA,NA,NA,NA
"91949.99999999988","<img src=""portrait/BW2.jpg""style=""height:400px;""></img>",2,"html-button-response",233,1134314,"0.0-16.0-1.0",54917,"ListA","woman","chinese","CFA2",NA,"true",2,NA,NA,NA,NA,NA,NA,NA
"null","正确",NA,"html-keyboard-response",234,1135823,"0.0-16.0-2.0-0.0",54917,"ListA","woman","chinese","CFA2",NA,NA,NA,"null",NA,NA,NA,NA,NA,NA
"8613","<img src=""portrait/WW1.jpg""style=""height:400px;""></img>",1,"html-button-response",235,1144435,"0.0-16.0-4.0",54917,"ListA","woman","chinese","CFA2",NA,"true",1,NA,NA,NA,NA,NA,NA,NA
"null","正确",NA,"html-keyboard-response",236,1145939,"0.0-16.0-5.0-0.0",54917,"ListA","woman","chinese","CFA2",NA,NA,NA,"null",NA,NA,NA,NA,NA,NA
"3792","<img src=""portrait/BW1.jpg""style=""height:400px;""></img>",0,"html-button-response",237,1149733,"0.0-16.0-7.0",54917,"ListA","woman","chinese","CFA2",NA,"true",0,NA,NA,NA,NA,NA,NA,NA
"null","正确",NA,"html-keyboard-response",238,1151236,"0.0-16.0-8.0-0.0",54917,"ListA","woman","chinese","CFA2",NA,NA,NA,"null",NA,NA,NA,NA,NA,NA
"1544","<img src=""portrait/WM2.jpg""style=""height:400px;""></img>",7,"html-button-response",239,1152783,"0.0-16.0-10.0",54917,"ListA","woman","chinese","CFA2",NA,"true",7,NA,NA,NA,NA,NA,NA,NA
"null","正确",NA,"html-keyboard-response",240,1154286,"0.0-16.0-11.0-0.0",54917,"ListA","woman","chinese","CFA2",NA,NA,NA,"null",NA,NA,NA,NA,NA,NA
"1776","<img src=""portrait/BM1.jpg""style=""height:400px;""></img>",4,"html-button-response",241,1156065,"0.0-16.0-13.0",54917,"ListA","woman","chinese","CFA2",NA,"true",4,NA,NA,NA,NA,NA,NA,NA
"null","正确",NA,"html-keyboard-response",242,1157569,"0.0-16.0-14.0-0.0",54917,"ListA","woman","chinese","CFA2",NA,NA,NA,"null",NA,NA,NA,NA,NA,NA
"1644","<img src=""portrait/WM1.jpg""style=""height:400px;""></img>",6,"html-button-response",243,1159215,"0.0-16.0-16.0",54917,"ListA","woman","chinese","CFA2",NA,"true",6,NA,NA,NA,NA,NA,NA,NA
"null","正确",NA,"html-keyboard-response",244,1160719,"0.0-16.0-17.0-0.0",54917,"ListA","woman","chinese","CFA2",NA,NA,NA,"null",NA,NA,NA,NA,NA,NA
"1643","<img src=""portrait/BM2.jpg""style=""height:400px;""></img>",5,"html-button-response",245,1162365,"0.0-16.0-19.0",54917,"ListA","woman","chinese","CFA2",NA,"true",5,NA,NA,NA,NA,NA,NA,NA
"null","正确",NA,"html-keyboard-response",246,1163869,"0.0-16.0-20.0-0.0",54917,"ListA","woman","chinese","CFA2",NA,NA,NA,"null",NA,NA,NA,NA,NA,NA
"2861","<img src=""portrait/WW2.jpg""style=""height:400px;""></img>",3,"html-button-response",247,1166732,"0.0-16.0-22.0",54917,"ListA","woman","chinese","CFA2",NA,"true",3,NA,NA,NA,NA,NA,NA,NA
"null","正确",NA,"html-keyboard-response",248,1168235,"0.0-16.0-23.0-0.0",54917,"ListA","woman","chinese","CFA2",NA,NA,NA,"null",NA,NA,NA,NA,NA,NA
"2633","<p>您第一次在8题里答对了 8 题。 请点击继续</p>",0,"html-button-response",249,1170871,"0.0-16.0-25.0",54917,"ListA","woman","chinese","CFA2",NA,NA,NA,NA,NA,NA,NA,NA,NA,NA
"null","<div style=""font-size:60px;"">+</div>",NA,"html-keyboard-response",250,1172380,"0.0-17.0-0.0",54917,"ListA","woman","chinese","CFA2",NA,NA,NA,"null",NA,NA,NA,NA,NA,NA
"null","<img src='gifs/ChineseGender1a.gif' style='height:400px;''></img>",NA,"html-keyboard-response",251,1174383,"0.0-17.0-1.0",54917,"ListA","woman","chinese","CFA2",NA,NA,NA,"null",NA,NA,NA,NA,NA,NA
"null","正在走向",NA,"html-keyboard-response",252,1177386,"0.0-17.0-2.0",54917,"ListA","woman","chinese","CFA2",NA,NA,NA,"null",NA,NA,NA,NA,NA,NA
"7732",NA,NA,"survey-text",253,1185127,"0.0-17.0-3.0",54917,"ListA","woman","chinese","CFA2",NA,NA,NA,NA,"{""Q0"":""凯特正在走向弗雷""}","<img src='gifs/ChineseGender1a.gif' style='height:400px;''></img>","走向","正在走向","chinese",NA
"null","<div style=""font-size:60px;"">+</div>",NA,"html-keyboard-response",254,1185630,"0.0-17.0-0.1",54917,"ListA","woman","chinese","CFA2",NA,NA,NA,"null",NA,NA,NA,NA,NA,NA
"null","<img src='gifs/FemaleRace2b.gif' style='height:400px;''></img>",NA,"html-keyboard-response",255,1187632,"0.0-17.0-1.1",54917,"ListA","woman","chinese","CFA2",NA,NA,NA,"null",NA,NA,NA,NA,NA,NA
"null","正在答应",NA,"html-keyboard-response",256,1190635,"0.0-17.0-2.1",54917,"ListA","woman","chinese","CFA2",NA,NA,NA,"null",NA,NA,NA,NA,NA,NA
"6553",NA,NA,"survey-text",257,1197192,"0.0-17.0-3.1",54917,"ListA","woman","chinese","CFA2",NA,NA,NA,NA,"{""Q0"":""霍普正在答应凯特""}","<img src='gifs/FemaleRace2b.gif' style='height:400px;''></img>","答应","正在答应","chinese",NA
"null","<div style=""font-size:60px;"">+</div>",NA,"html-keyboard-response",258,1197695,"0.0-17.0-0.2",54917,"ListA","woman","chinese","CFA2",NA,NA,NA,"null",NA,NA,NA,NA,NA,NA
"null","<img src='gifs/FemaleRace4b.gif' style='height:400px;''></img>",NA,"html-keyboard-response",259,1199699,"0.0-17.0-1.2",54917,"ListA","woman","chinese","CFA2",NA,NA,NA,"null",NA,NA,NA,NA,NA,NA
"null","正在说服",NA,"html-keyboard-response",260,1202702,"0.0-17.0-2.2",54917,"ListA","woman","chinese","CFA2",NA,NA,NA,"null",NA,NA,NA,NA,NA,NA
"6412",NA,NA,"survey-text",261,1209119,"0.0-17.0-3.2",54917,"ListA","woman","chinese","CFA2",NA,NA,NA,NA,"{""Q0"":""贝斯正在说服霍普""}","<img src='gifs/FemaleRace4b.gif' style='height:400px;''></img>","说服","正在说服","chinese",NA
"null","<div style=""font-size:60px;"">+</div>",NA,"html-keyboard-response",262,1209621,"0.0-17.0-0.3",54917,"ListA","woman","chinese","CFA2",NA,NA,NA,"null",NA,NA,NA,NA,NA,NA
"null","<img src='gifs/BlackGender2a.gif' style='height:400px;''></img>",NA,"html-keyboard-response",263,1211625,"0.0-17.0-1.3",54917,"ListA","woman","chinese","CFA2",NA,NA,NA,"null",NA,NA,NA,NA,NA,NA
"null","正在聘用",NA,"html-keyboard-response",264,1214628,"0.0-17.0-2.3",54917,"ListA","woman","chinese","CFA2",NA,NA,NA,"null",NA,NA,NA,NA,NA,NA
"13421.000000000233",NA,NA,"survey-text",265,1228054,"0.0-17.0-3.3",54917,"ListA","woman","chinese","CFA2",NA,NA,NA,NA,"{""Q0"":""露丝正在聘用戴夫""}","<img src='gifs/BlackGender2a.gif' style='height:400px;''></img>","聘用","正在聘用","chinese",NA
"null","<div style=""font-size:60px;"">+</div>",NA,"html-keyboard-response",266,1228557,"0.0-17.0-0.4",54917,"ListA","woman","chinese","CFA2",NA,NA,NA,"null",NA,NA,NA,NA,NA,NA
"null","<img src='gifs/FemaleRace4b.gif' style='height:400px;''></img>",NA,"html-keyboard-response",267,1230560,"0.0-17.0-1.4",54917,"ListA","woman","chinese","CFA2",NA,NA,NA,"null",NA,NA,NA,NA,NA,NA
"null","正在走向",NA,"html-keyboard-response",268,1233563,"0.0-17.0-2.4",54917,"ListA","woman","chinese","CFA2",NA,NA,NA,"null",NA,NA,NA,NA,NA,NA
"7028",NA,NA,"survey-text",269,1240595,"0.0-17.0-3.4",54917,"ListA","woman","chinese","CFA2",NA,NA,NA,NA,"{""Q0"":""贝斯正在走向霍普""}","<img src='gifs/FemaleRace4b.gif' style='height:400px;''></img>","走向","正在走向","chinese",NA
"null","<div style=""font-size:60px;"">+</div>",NA,"html-keyboard-response",270,1241097,"0.0-17.0-0.5",54917,"ListA","woman","chinese","CFA2",NA,NA,NA,"null",NA,NA,NA,NA,NA,NA
"null","<img src='gifs/ChineseGender3b.gif' style='height:400px;''></img>",NA,"html-keyboard-response",271,1243101,"0.0-17.0-1.5",54917,"ListA","woman","chinese","CFA2",NA,NA,NA,"null",NA,NA,NA,NA,NA,NA
"null","正在介绍",NA,"html-keyboard-response",272,1246103,"0.0-17.0-2.5",54917,"ListA","woman","chinese","CFA2",NA,NA,NA,"null",NA,NA,NA,NA,NA,NA
"12823",NA,NA,"survey-text",273,1258931,"0.0-17.0-3.5",54917,"ListA","woman","chinese","CFA2",NA,NA,NA,NA,"{""Q0"":""贝斯正在介绍麦克""}","<img src='gifs/ChineseGender3b.gif' style='height:400px;''></img>","介绍","正在介绍","chinese",NA
"null","<div style=""font-size:60px;"">+</div>",NA,"html-keyboard-response",274,1259438,"0.0-17.0-0.6",54917,"ListA","woman","chinese","CFA2",NA,NA,NA,"null",NA,NA,NA,NA,NA,NA
"null","<img src='gifs/ChineseGender2a.gif' style='height:400px;''></img>",NA,"html-keyboard-response",275,1261442,"0.0-17.0-1.6",54917,"ListA","woman","chinese","CFA2",NA,NA,NA,"null",NA,NA,NA,NA,NA,NA
"null","正在联系",NA,"html-keyboard-response",276,1264445,"0.0-17.0-2.6",54917,"ListA","woman","chinese","CFA2",NA,NA,NA,"null",NA,NA,NA,NA,NA,NA
"6580",NA,NA,"survey-text",277,1271030,"0.0-17.0-3.6",54917,"ListA","woman","chinese","CFA2",NA,NA,NA,NA,"{""Q0"":""贝斯正在联系麦克""}","<img src='gifs/ChineseGender2a.gif' style='height:400px;''></img>","联系","正在联系","chinese",NA
"null","<div style=""font-size:60px;"">+</div>",NA,"html-keyboard-response",278,1271533,"0.0-17.0-0.7",54917,"ListA","woman","chinese","CFA2",NA,NA,NA,"null",NA,NA,NA,NA,NA,NA
"null","<img src='gifs/BlackGender2b.gif' style='height:400px;''></img>",NA,"html-keyboard-response",279,1273537,"0.0-17.0-1.7",54917,"ListA","woman","chinese","CFA2",NA,NA,NA,"null",NA,NA,NA,NA,NA,NA
"null","正在接近",NA,"html-keyboard-response",280,1276540,"0.0-17.0-2.7",54917,"ListA","woman","chinese","CFA2",NA,NA,NA,"null",NA,NA,NA,NA,NA,NA
"7278.000000000233",NA,NA,"survey-text",281,1283823,"0.0-17.0-3.7",54917,"ListA","woman","chinese","CFA2",NA,NA,NA,NA,"{""Q0"":""露丝正在接近戴夫""}","<img src='gifs/BlackGender2b.gif' style='height:400px;''></img>","接近","正在接近","chinese",NA
"null","<div style=""font-size:60px;"">+</div>",NA,"html-keyboard-response",282,1284325,"0.0-17.0-0.8",54917,"ListA","woman","chinese","CFA2",NA,NA,NA,"null",NA,NA,NA,NA,NA,NA
"null","<img src='gifs/BlackGender4a.gif' style='height:400px;''></img>",NA,"html-keyboard-response",283,1286328,"0.0-17.0-1.8",54917,"ListA","woman","chinese","CFA2",NA,NA,NA,"null",NA,NA,NA,NA,NA,NA
"null","正在走向",NA,"html-keyboard-response",284,1289331,"0.0-17.0-2.8",54917,"ListA","woman","chinese","CFA2",NA,NA,NA,"null",NA,NA,NA,NA,NA,NA
"6751",NA,NA,"survey-text",285,1296086,"0.0-17.0-3.8",54917,"ListA","woman","chinese","CFA2",NA,NA,NA,NA,"{""Q0"":""戴夫正在走向霍普""}","<img src='gifs/BlackGender4a.gif' style='height:400px;''></img>","走向","正在走向","chinese",NA
"null","<div style=""font-size:60px;"">+</div>",NA,"html-keyboard-response",286,1296589,"0.0-17.0-0.9",54917,"ListA","woman","chinese","CFA2",NA,NA,NA,"null",NA,NA,NA,NA,NA,NA
"null","<img src='gifs/FemaleRace1b.gif' style='height:400px;''></img>",NA,"html-keyboard-response",287,1298592,"0.0-17.0-1.9",54917,"ListA","woman","chinese","CFA2",NA,NA,NA,"null",NA,NA,NA,NA,NA,NA
"null","正在触摸",NA,"html-keyboard-response",288,1301595,"0.0-17.0-2.9",54917,"ListA","woman","chinese","CFA2",NA,NA,NA,"null",NA,NA,NA,NA,NA,NA
"7220",NA,NA,"survey-text",289,1308819,"0.0-17.0-3.9",54917,"ListA","woman","chinese","CFA2",NA,NA,NA,NA,"{""Q0"":""凯特正在触摸露丝""}","<img src='gifs/FemaleRace1b.gif' style='height:400px;''></img>","触摸","正在触摸","chinese",NA
"null","<div style=""font-size:60px;"">+</div>",NA,"html-keyboard-response",290,1309321,"0.0-17.0-0.10",54917,"ListA","woman","chinese","CFA2",NA,NA,NA,"null",NA,NA,NA,NA,NA,NA
"null","<img src='gifs/MaleRace4b.gif' style='height:400px;''></img>",NA,"html-keyboard-response",291,1311323,"0.0-17.0-1.10",54917,"ListA","woman","chinese","CFA2",NA,NA,NA,"null",NA,NA,NA,NA,NA,NA
"null","正在跟随",NA,"html-keyboard-response",292,1314326,"0.0-17.0-2.10",54917,"ListA","woman","chinese","CFA2",NA,NA,NA,"null",NA,NA,NA,NA,NA,NA
"6078",NA,NA,"survey-text",293,1320409,"0.0-17.0-3.10",54917,"ListA","woman","chinese","CFA2",NA,NA,NA,NA,"{""Q0"":""麦克正在跟随戴夫""}","<img src='gifs/MaleRace4b.gif' style='height:400px;''></img>","跟随","正在跟随","chinese",NA
"null","<div style=""font-size:60px;"">+</div>",NA,"html-keyboard-response",294,1320911,"0.0-17.0-0.11",54917,"ListA","woman","chinese","CFA2",NA,NA,NA,"null",NA,NA,NA,NA,NA,NA
"null","<img src='gifs/FemaleRace3a.gif' style='height:400px;''></img>",NA,"html-keyboard-response",295,1322914,"0.0-17.0-1.11",54917,"ListA","woman","chinese","CFA2",NA,NA,NA,"null",NA,NA,NA,NA,NA,NA
"null","正在答应",NA,"html-keyboard-response",296,1325917,"0.0-17.0-2.11",54917,"ListA","woman","chinese","CFA2",NA,NA,NA,"null",NA,NA,NA,NA,NA,NA
"6192",NA,NA,"survey-text",297,1332113,"0.0-17.0-3.11",54917,"ListA","woman","chinese","CFA2",NA,NA,NA,NA,"{""Q0"":""露丝正在答应贝斯""}","<img src='gifs/FemaleRace3a.gif' style='height:400px;''></img>","答应","正在答应","chinese",NA
"null","<div style=""font-size:60px;"">+</div>",NA,"html-keyboard-response",298,1332615,"0.0-17.0-0.12",54917,"ListA","woman","chinese","CFA2",NA,NA,NA,"null",NA,NA,NA,NA,NA,NA
"null","<img src='gifs/FemaleRace3a.gif' style='height:400px;''></img>",NA,"html-keyboard-response",299,1334619,"0.0-17.0-1.12",54917,"ListA","woman","chinese","CFA2",NA,NA,NA,"null",NA,NA,NA,NA,NA,NA
"null","正在聆听",NA,"html-keyboard-response",300,1337622,"0.0-17.0-2.12",54917,"ListA","woman","chinese","CFA2",NA,NA,NA,"null",NA,NA,NA,NA,NA,NA
"10652",NA,NA,"survey-text",301,1348278,"0.0-17.0-3.12",54917,"ListA","woman","chinese","CFA2",NA,NA,NA,NA,"{""Q0"":""露丝正在聆听贝斯""}","<img src='gifs/FemaleRace3a.gif' style='height:400px;''></img>","聆听","正在聆听","chinese",NA
"null","<div style=""font-size:60px;"">+</div>",NA,"html-keyboard-response",302,1348781,"0.0-17.0-0.13",54917,"ListA","woman","chinese","CFA2",NA,NA,NA,"null",NA,NA,NA,NA,NA,NA
"null","<img src='gifs/BlackGender1b.gif' style='height:400px;''></img>",NA,"html-keyboard-response",303,1350784,"0.0-17.0-1.13",54917,"ListA","woman","chinese","CFA2",NA,NA,NA,"null",NA,NA,NA,NA,NA,NA
"null","正在接近",NA,"html-keyboard-response",304,1353787,"0.0-17.0-2.13",54917,"ListA","woman","chinese","CFA2",NA,NA,NA,"null",NA,NA,NA,NA,NA,NA
"9403",NA,NA,"survey-text",305,1363194,"0.0-17.0-3.13",54917,"ListA","woman","chinese","CFA2",NA,NA,NA,NA,"{""Q0"":""卢克正在接近露丝""}","<img src='gifs/BlackGender1b.gif' style='height:400px;''></img>","接近","正在接近","chinese",NA
"null","<div style=""font-size:60px;"">+</div>",NA,"html-keyboard-response",306,1363698,"0.0-17.0-0.14",54917,"ListA","woman","chinese","CFA2",NA,NA,NA,"null",NA,NA,NA,NA,NA,NA
"null","<img src='gifs/ChineseGender3b.gif' style='height:400px;''></img>",NA,"html-keyboard-response",307,1365701,"0.0-17.0-1.14",54917,"ListA","woman","chinese","CFA2",NA,NA,NA,"null",NA,NA,NA,NA,NA,NA
"null","正在陪伴",NA,"html-keyboard-response",308,1368704,"0.0-17.0-2.14",54917,"ListA","woman","chinese","CFA2",NA,NA,NA,"null",NA,NA,NA,NA,NA,NA
"6854",NA,NA,"survey-text",309,1375562,"0.0-17.0-3.14",54917,"ListA","woman","chinese","CFA2",NA,NA,NA,NA,"{""Q0"":""麦克正在陪伴贝斯""}","<img src='gifs/ChineseGender3b.gif' style='height:400px;''></img>","陪伴","正在陪伴","chinese",NA
"null","<div style=""font-size:60px;"">+</div>",NA,"html-keyboard-response",310,1376064,"0.0-17.0-0.15",54917,"ListA","woman","chinese","CFA2",NA,NA,NA,"null",NA,NA,NA,NA,NA,NA
"null","<img src='gifs/MaleRace3b.gif' style='height:400px;''></img>",NA,"html-keyboard-response",311,1378068,"0.0-17.0-1.15",54917,"ListA","woman","chinese","CFA2",NA,NA,NA,"null",NA,NA,NA,NA,NA,NA
"null","正在看着",NA,"html-keyboard-response",312,1381070,"0.0-17.0-2.15",54917,"ListA","woman","chinese","CFA2",NA,NA,NA,"null",NA,NA,NA,NA,NA,NA
"7818",NA,NA,"survey-text",313,1388892,"0.0-17.0-3.15",54917,"ListA","woman","chinese","CFA2",NA,NA,NA,NA,"{""Q0"":""卢克正在看着麦克""}","<img src='gifs/MaleRace3b.gif' style='height:400px;''></img>","看着","正在看着","chinese",NA
"null","<div style=""font-size:60px;"">+</div>",NA,"html-keyboard-response",314,1389394,"0.0-17.0-0.16",54917,"ListA","woman","chinese","CFA2",NA,NA,NA,"null",NA,NA,NA,NA,NA,NA
"null","<img src='gifs/FemaleRace3b.gif' style='height:400px;''></img>",NA,"html-keyboard-response",315,1391397,"0.0-17.0-1.16",54917,"ListA","woman","chinese","CFA2",NA,NA,NA,"null",NA,NA,NA,NA,NA,NA
"null","正在提到",NA,"html-keyboard-response",316,1394400,"0.0-17.0-2.16",54917,"ListA","woman","chinese","CFA2",NA,NA,NA,"null",NA,NA,NA,NA,NA,NA
"7164",NA,NA,"survey-text",317,1401569,"0.0-17.0-3.16",54917,"ListA","woman","chinese","CFA2",NA,NA,NA,NA,"{""Q0"":""贝斯正在提到露丝""}","<img src='gifs/FemaleRace3b.gif' style='height:400px;''></img>","提到","正在提到","chinese",NA
"null","<div style=""font-size:60px;"">+</div>",NA,"html-keyboard-response",318,1402071,"0.0-17.0-0.17",54917,"ListA","woman","chinese","CFA2",NA,NA,NA,"null",NA,NA,NA,NA,NA,NA
"null","<img src='gifs/ChineseGender1b.gif' style='height:400px;''></img>",NA,"html-keyboard-response",319,1404073,"0.0-17.0-1.17",54917,"ListA","woman","chinese","CFA2",NA,NA,NA,"null",NA,NA,NA,NA,NA,NA
"null","正在接近",NA,"html-keyboard-response",320,1407076,"0.0-17.0-2.17",54917,"ListA","woman","chinese","CFA2",NA,NA,NA,"null",NA,NA,NA,NA,NA,NA
"7990",NA,NA,"survey-text",321,1415070,"0.0-17.0-3.17",54917,"ListA","woman","chinese","CFA2",NA,NA,NA,NA,"{""Q0"":""弗雷正在接近凯特""}","<img src='gifs/ChineseGender1b.gif' style='height:400px;''></img>","接近","正在接近","chinese",NA
"3404","<p>Thank you for completing that task.</p><p>The final part of this session is a short questionnaire.</p><p>Press Continue.</p>",0,"html-button-response",322,1418477,"0.0-18.0",54917,"ListA","woman","chinese","CFA2",NA,NA,NA,NA,NA,NA,NA,NA,NA,NA
"64149.99999999977",NA,NA,"survey-text",323,1483637,"0.0-19.0",54917,"ListA","woman","chinese","CFA2",NA,NA,NA,NA,"{""Q0"":""21"",""Q1"":""Chinese"",""Q2"":""Chinese"",""Q3"":""China"",""Q4"":""Chinese"",""Q5"":""Asian"",""Q6"":""Female""}",NA,NA,NA,NA,"demographics"
"52196","<p>Have you lived in the UK for the last 5 years or more?</p>",1,"html-button-response",324,1535840,"0.0-20.0",54917,"ListA","woman","chinese","CFA2",NA,NA,NA,NA,NA,NA,NA,NA,NA,"fiveyears"
"157755.00000000023",NA,NA,"external-html",325,1696688,"0.0-21.0",54917,"ListA","woman","chinese","CFA2","debrief.html",NA,NA,NA,NA,NA,NA,NA,NA,NA
"12270",NA,NA,"survey-text",326,1708966,"0.0-22.0",54917,"ListA","woman","chinese","CFA2",NA,NA,NA,NA,"{""ptpt_id"":""CFA2""}",NA,NA,NA,NA,"worker_id"
