rt,stimulus,button_pressed,choices,ChosenStimulus,trial_type,trial_index,time_elapsed,internal_node_id,subject_id,study_id,session_id,subject,list,ppt_gender,url,key_press,sentence_type,verb,test_part,responses,question_order,left_part,right_part
1625.800000011921,Welcome to the experiment. Press Continue to begin.,0,Continue,Continue,html-button-response,0,1631,0.0-0.0,anomymised,65658173739efdc811fa7bc3,65676759d4d573142a3d9a33,10673,2C,man,NA,NA,NA,NA,NA,NA,NA,NA,NA
7045.399999976158,NA,NA,NA,NA,external-html,1,9749,0.0-1.0,anomymised,65658173739efdc811fa7bc3,65676759d4d573142a3d9a33,10673,2C,man,consent.html,NA,NA,NA,NA,NA,NA,NA,NA
6837.199999988079,"<p>Welcome.</p><p>In this experiment we will ask you to imagine some situations.</p><p>Each trial starts with a description of an event.</p><p>Then you will see alternative descriptions of that event, and you will rate on a scale how best they match the original description.</p><p>You will give your answer by clicking a button on a rating scale.</p><p>To do this task, you will have to use your imagination to visualise these events.</p><br><p>Ready?</p>",0,Continue,Continue,html-button-response,2,16588,0.0-2.0,anomymised,65658173739efdc811fa7bc3,65676759d4d573142a3d9a33,10673,2C,man,NA,NA,NA,NA,NA,NA,NA,NA,NA
2068.900000035763,"<p>Before the experiment starts, you will watch an example trial. Press 'Continue'.</p>",0,Continue,Continue,html-button-response,3,19672,0.0-3.0,anomymised,65658173739efdc811fa7bc3,65676759d4d573142a3d9a33,10673,2C,man,NA,NA,NA,NA,NA,NA,NA,NA,NA
null,The police officer is arresting the robber,NA,NA,NA,html-keyboard-response,4,22677,0.0-4.0,anomymised,65658173739efdc811fa7bc3,65676759d4d573142a3d9a33,10673,2C,man,NA,null,NA,NA,NA,NA,NA,NA,NA
6558.100000023842,<img src='img/Example-trial.jpg' style='height:550px;''></img>,0,Continue,Continue,html-button-response,5,29237,0.0-5.0,anomymised,65658173739efdc811fa7bc3,65676759d4d573142a3d9a33,10673,2C,man,NA,NA,NA,NA,NA,NA,NA,NA,NA
2799.100000023842,<p>Ready to start the experiment?</p><br><p><strong>Remember to give an answer by clicking a button on the rating scale.</strong></p><p>Press 'Continue' to begin.</p>,0,Continue,Continue,html-button-response,6,33041,0.0-6.0,anomymised,65658173739efdc811fa7bc3,65676759d4d573142a3d9a33,10673,2C,man,NA,NA,NA,NA,NA,NA,NA,NA,NA
null,Beth is being seduced by Luke,NA,NA,NA,html-keyboard-response,7,36075,0.0-7.0-0.0,anomymised,65658173739efdc811fa7bc3,65676759d4d573142a3d9a33,10673,2C,man,NA,null,W1 is being seduced by M3,seduce4,sentence,NA,NA,NA,NA
7674.300000011921,NA,NA,NA,NA,survey-likert-extra-labels,8,43755,0.0-7.0-1.0-0.0,anomymised,65658173739efdc811fa7bc3,65676759d4d573142a3d9a33,10673,2C,man,NA,NA,W1 is being seduced by M3,seduce4,rating_causation,"{""Q0"":0}",[0],M3 started seducing W1 first,W1 started seducing M3 first
16507.80000001192,NA,NA,NA,NA,survey-likert-extra-labels,9,60273,0.0-7.0-2.0,anomymised,65658173739efdc811fa7bc3,65676759d4d573142a3d9a33,10673,2C,man,NA,NA,W1 is being seduced by M3,seduce4,rating_volition,"{""Q0"":3}",[0],M3 wanted to seducing W1,W1 wanted to seducing M3
null,Jane is being opposed by Beth,NA,NA,NA,html-keyboard-response,10,62283,0.0-8.0-0.0,anomymised,65658173739efdc811fa7bc3,65676759d4d573142a3d9a33,10673,2C,man,NA,null,W3 is being opposed by W1,oppose1,sentence,NA,NA,NA,NA
8653.899999976158,NA,NA,NA,NA,survey-likert-extra-labels,11,70941,0.0-8.0-1.0-0.0,anomymised,65658173739efdc811fa7bc3,65676759d4d573142a3d9a33,10673,2C,man,NA,NA,W3 is being opposed by W1,oppose1,rating_causation,"{""Q0"":0}",[0],W1 started opposing W3,W3 started opposing W1
5723.900000035763,NA,NA,NA,NA,survey-likert-extra-labels,12,76669,0.0-8.0-2.0,anomymised,65658173739efdc811fa7bc3,65676759d4d573142a3d9a33,10673,2C,man,NA,NA,W3 is being opposed by W1,oppose1,rating_volition,"{""Q0"":6}",[0],W1 wanted to oppose W3,W3 wanted to oppose W1
null,Luke is being hugged by Fred,NA,NA,NA,html-keyboard-response,13,78683,0.0-9.0-0.0,anomymised,65658173739efdc811fa7bc3,65676759d4d573142a3d9a33,10673,2C,man,NA,null,M3 is being hugged by M1,hug2,sentence,NA,NA,NA,NA
6207.300000011921,NA,NA,NA,NA,survey-likert-extra-labels,14,84892,0.0-9.0-2.0,anomymised,65658173739efdc811fa7bc3,65676759d4d573142a3d9a33,10673,2C,man,NA,NA,M3 is being hugged by M1,hug2,rating_volition,"{""Q0"":6}",[0],M1 wanted to hug M3,M3 wanted to hug M1
2476.100000023842,NA,NA,NA,NA,survey-likert-extra-labels,15,87372,0.0-9.0-3.0-0.0,anomymised,65658173739efdc811fa7bc3,65676759d4d573142a3d9a33,10673,2C,man,NA,NA,M3 is being hugged by M1,hug2,rating_causation,"{""Q0"":3}",[0],M1 asked to hug M3,M3 asked to hug M1
null,Beth is being touched by Luke,NA,NA,NA,html-keyboard-response,16,89382,0.0-10.0-0.0,anomymised,65658173739efdc811fa7bc3,65676759d4d573142a3d9a33,10673,2C,man,NA,null,W1 is being touched by M3,touch4,sentence,NA,NA,NA,NA
5786.900000035763,NA,NA,NA,NA,survey-likert-extra-labels,17,95173,0.0-10.0-1.0-0.0,anomymised,65658173739efdc811fa7bc3,65676759d4d573142a3d9a33,10673,2C,man,NA,NA,W1 is being touched by M3,touch4,rating_causation,"{""Q0"":3}",[0],M3 asked to touch W1,W1 asked to touch M3
5724.100000023842,NA,NA,NA,NA,survey-likert-extra-labels,18,100901,0.0-10.0-2.0,anomymised,65658173739efdc811fa7bc3,65676759d4d573142a3d9a33,10673,2C,man,NA,NA,W1 is being touched by M3,touch4,rating_volition,"{""Q0"":0}",[0],M3 wanted to touch W1,W1 wanted to touch M3
null,Luke is being greeted by Beth,NA,NA,NA,html-keyboard-response,19,102918,0.0-11.0-0.0,anomymised,65658173739efdc811fa7bc3,65676759d4d573142a3d9a33,10673,2C,man,NA,null,M3 is being greeted by W1,greet3,sentence,NA,NA,NA,NA
3925,NA,NA,NA,NA,survey-likert-extra-labels,20,106845,0.0-11.0-2.0,anomymised,65658173739efdc811fa7bc3,65676759d4d573142a3d9a33,10673,2C,man,NA,NA,M3 is being greeted by W1,greet3,rating_volition,"{""Q0"":6}",[0],M3 wanted to greet W1,W1 wanted to greet M3
9004,NA,NA,NA,NA,survey-likert-extra-labels,21,115852,0.0-11.0-3.0-0.0,anomymised,65658173739efdc811fa7bc3,65676759d4d573142a3d9a33,10673,2C,man,NA,NA,M3 is being greeted by W1,greet3,rating_causation,"{""Q0"":2}",[0],M3 started greeting W1 first,W1 started greeting M3 first
null,Kate is carrying Ruth,NA,NA,NA,html-keyboard-response,22,117867,0.0-12.0-0.0,anomymised,65658173739efdc811fa7bc3,65676759d4d573142a3d9a33,10673,2C,man,NA,null,W2 is carrying W4,carry,sentence,NA,NA,NA,NA
3855.5,NA,NA,NA,NA,survey-likert-extra-labels,23,121725,0.0-12.0-2.0,anomymised,65658173739efdc811fa7bc3,65676759d4d573142a3d9a33,10673,2C,man,NA,NA,W2 is carrying W4,carry,rating_volition,"{""Q0"":0}",[0],W2 is transporting W4,W4 is transporting W2
4444.199999988079,NA,NA,NA,NA,survey-likert-extra-labels,24,126172,0.0-12.0-3.0-0.0,anomymised,65658173739efdc811fa7bc3,65676759d4d573142a3d9a33,10673,2C,man,NA,NA,W2 is carrying W4,carry,rating_causation,"{""Q0"":6}",[0],W2 is being moved by W4,W4 is being moved by W2
null,Jane is being shouted at by Beth,NA,NA,NA,html-keyboard-response,25,128186,0.0-13.0-0.0,anomymised,65658173739efdc811fa7bc3,65676759d4d573142a3d9a33,10673,2C,man,NA,null,W3 is being shouted at by W1,shout1,sentence,NA,NA,NA,NA
6412.800000011921,NA,NA,NA,NA,survey-likert-extra-labels,26,134600,0.0-13.0-2.0,anomymised,65658173739efdc811fa7bc3,65676759d4d573142a3d9a33,10673,2C,man,NA,NA,W3 is being shouted at by W1,shout1,rating_volition,"{""Q0"":0}",[0],W1 wanted to shout at W3,W3 wanted to shout at W1
5808,NA,NA,NA,NA,survey-likert-extra-labels,27,140413,0.0-13.0-3.0-0.0,anomymised,65658173739efdc811fa7bc3,65676759d4d573142a3d9a33,10673,2C,man,NA,NA,W3 is being shouted at by W1,shout1,rating_causation,"{""Q0"":5}",[0],W1 shouted at W3 first,W3 shouted at W1 first
null,Beth is chasing Jane,NA,NA,NA,html-keyboard-response,28,142419,0.0-14.0-0.0,anomymised,65658173739efdc811fa7bc3,65676759d4d573142a3d9a33,10673,2C,man,NA,null,W1 is chasing W3,chase,sentence,NA,NA,NA,NA
9583.300000011921,NA,NA,NA,NA,survey-likert-extra-labels,29,152005,0.0-14.0-1.0-0.0,anomymised,65658173739efdc811fa7bc3,65676759d4d573142a3d9a33,10673,2C,man,NA,NA,W1 is chasing W3,chase,rating_causation,"{""Q0"":6}",[0],W1 is running away from W3,W3 is running away from W1
10002.400000035763,NA,NA,NA,NA,survey-likert-extra-labels,30,162012,0.0-14.0-2.0,anomymised,65658173739efdc811fa7bc3,65676759d4d573142a3d9a33,10673,2C,man,NA,NA,W1 is chasing W3,chase,rating_volition,"{""Q0"":0}",[0],W1 is behind W3,W3 is behind W1
null,Beth is being challenged by Luke,NA,NA,NA,html-keyboard-response,31,164018,0.0-15.0-0.0,anomymised,65658173739efdc811fa7bc3,65676759d4d573142a3d9a33,10673,2C,man,NA,null,W1 is being challenged by M3,challenge3,sentence,NA,NA,NA,NA
8519.899999976158,NA,NA,NA,NA,survey-likert-extra-labels,32,172541,0.0-15.0-1.0-0.0,anomymised,65658173739efdc811fa7bc3,65676759d4d573142a3d9a33,10673,2C,man,NA,NA,W1 is being challenged by M3,challenge3,rating_causation,"{""Q0"":1}",[0],M3 started challenging W1 first,W1 started challenging M3 first
4959.699999988079,NA,NA,NA,NA,survey-likert-extra-labels,33,177504,0.0-15.0-2.0,anomymised,65658173739efdc811fa7bc3,65676759d4d573142a3d9a33,10673,2C,man,NA,NA,W1 is being challenged by M3,challenge3,rating_volition,"{""Q0"":0}",[0],M3 wanted to challenge W1,W1 wanted to challenge M3
null,Ruth is being hugged by Dave,NA,NA,NA,html-keyboard-response,34,179515,0.0-16.0-0.0,anomymised,65658173739efdc811fa7bc3,65676759d4d573142a3d9a33,10673,2C,man,NA,null,W4 is being hugged by M2,hug4,sentence,NA,NA,NA,NA
3624.300000011921,NA,NA,NA,NA,survey-likert-extra-labels,35,183143,0.0-16.0-2.0,anomymised,65658173739efdc811fa7bc3,65676759d4d573142a3d9a33,10673,2C,man,NA,NA,W4 is being hugged by M2,hug4,rating_volition,"{""Q0"":0}",[0],M2 wanted to hug W4,W4 wanted to hug M2
4728.099999964237,NA,NA,NA,NA,survey-likert-extra-labels,36,187875,0.0-16.0-3.0-0.0,anomymised,65658173739efdc811fa7bc3,65676759d4d573142a3d9a33,10673,2C,man,NA,NA,W4 is being hugged by M2,hug4,rating_causation,"{""Q0"":3}",[0],M2 asked to hug W4,W4 asked to hug M2
null,Luke is being opposed by Fred,NA,NA,NA,html-keyboard-response,37,189879,0.0-17.0-0.0,anomymised,65658173739efdc811fa7bc3,65676759d4d573142a3d9a33,10673,2C,man,NA,null,M3 is being opposed by M1,oppose2,sentence,NA,NA,NA,NA
3486.199999988079,NA,NA,NA,NA,survey-likert-extra-labels,38,193367,0.0-17.0-2.0,anomymised,65658173739efdc811fa7bc3,65676759d4d573142a3d9a33,10673,2C,man,NA,NA,M3 is being opposed by M1,oppose2,rating_volition,"{""Q0"":0}",[0],M1 wanted to oppose M3,M3 wanted to oppose M1
4455.599999964237,NA,NA,NA,NA,survey-likert-extra-labels,39,197827,0.0-17.0-3.0-0.0,anomymised,65658173739efdc811fa7bc3,65676759d4d573142a3d9a33,10673,2C,man,NA,NA,M3 is being opposed by M1,oppose2,rating_causation,"{""Q0"":0}",[0],M1 started opposing M3,M3 started opposing M1
null,Ruth is being challenged by Kate,NA,NA,NA,html-keyboard-response,40,199830,0.0-18.0-0.0,anomymised,65658173739efdc811fa7bc3,65676759d4d573142a3d9a33,10673,2C,man,NA,null,W4 is being challenged by W2,challenge1,sentence,NA,NA,NA,NA
12491.800000011921,NA,NA,NA,NA,survey-likert-extra-labels,41,212324,0.0-18.0-2.0,anomymised,65658173739efdc811fa7bc3,65676759d4d573142a3d9a33,10673,2C,man,NA,NA,W4 is being challenged by W2,challenge1,rating_volition,"{""Q0"":0}",[0],W2 wanted to challenge W4,W4 wanted to challenge W2
3228.5,NA,NA,NA,NA,survey-likert-extra-labels,42,215556,0.0-18.0-3.0-0.0,anomymised,65658173739efdc811fa7bc3,65676759d4d573142a3d9a33,10673,2C,man,NA,NA,W4 is being challenged by W2,challenge1,rating_causation,"{""Q0"":2}",[0],W2 started challenging W4 first,W4 started challenging W2 first
null,Dave is being greeted by Mike,NA,NA,NA,html-keyboard-response,43,217560,0.0-19.0-0.0,anomymised,65658173739efdc811fa7bc3,65676759d4d573142a3d9a33,10673,2C,man,NA,null,M2 is being greeted by M4,greet2,sentence,NA,NA,NA,NA
6925.599999964237,NA,NA,NA,NA,survey-likert-extra-labels,44,224488,0.0-19.0-1.0-0.0,anomymised,65658173739efdc811fa7bc3,65676759d4d573142a3d9a33,10673,2C,man,NA,NA,M2 is being greeted by M4,greet2,rating_causation,"{""Q0"":6}",[0],M2 started greeting M4 first,M4 started greeting M2 first
9335.600000023842,NA,NA,NA,NA,survey-likert-extra-labels,45,233827,0.0-19.0-2.0,anomymised,65658173739efdc811fa7bc3,65676759d4d573142a3d9a33,10673,2C,man,NA,NA,M2 is being greeted by M4,greet2,rating_volition,"{""Q0"":5}",[0],M2 wanted to greet M4,M4 wanted to greet M2
null,Ruth is being opposed by Dave,NA,NA,NA,html-keyboard-response,46,235836,0.0-20.0-0.0,anomymised,65658173739efdc811fa7bc3,65676759d4d573142a3d9a33,10673,2C,man,NA,null,W4 is being opposed by M2,oppose4,sentence,NA,NA,NA,NA
3736.300000011921,NA,NA,NA,NA,survey-likert-extra-labels,47,239576,0.0-20.0-1.0-0.0,anomymised,65658173739efdc811fa7bc3,65676759d4d573142a3d9a33,10673,2C,man,NA,NA,W4 is being opposed by M2,oppose4,rating_causation,"{""Q0"":0}",[0],M2 started opposing W4,W4 started opposing M2
4405.5,NA,NA,NA,NA,survey-likert-extra-labels,48,243985,0.0-20.0-2.0,anomymised,65658173739efdc811fa7bc3,65676759d4d573142a3d9a33,10673,2C,man,NA,NA,W4 is being opposed by M2,oppose4,rating_volition,"{""Q0"":2}",[0],M2 wanted to oppose W4,W4 wanted to oppose M2
null,Dave is being copied by Mike,NA,NA,NA,html-keyboard-response,49,246003,0.0-21.0-0.0,anomymised,65658173739efdc811fa7bc3,65676759d4d573142a3d9a33,10673,2C,man,NA,null,M2 is being copied by M4,copy2,sentence,NA,NA,NA,NA
9146.299999952316,NA,NA,NA,NA,survey-likert-extra-labels,50,255156,0.0-21.0-2.0,anomymised,65658173739efdc811fa7bc3,65676759d4d573142a3d9a33,10673,2C,man,NA,NA,M2 is being copied by M4,copy2,rating_volition,"{""Q0"":6}",[0],M2 wanted to copy M4,M4 wanted to copy M2
7375.399999976158,NA,NA,NA,NA,survey-likert-extra-labels,51,262536,0.0-21.0-3.0-0.0,anomymised,65658173739efdc811fa7bc3,65676759d4d573142a3d9a33,10673,2C,man,NA,NA,M2 is being copied by M4,copy2,rating_causation,"{""Q0"":4}",[0],M2 started copying M4 first,M4 started copying M2 first
null,Luke is being shouted at by Fred,NA,NA,NA,html-keyboard-response,52,264556,0.0-22.0-0.0,anomymised,65658173739efdc811fa7bc3,65676759d4d573142a3d9a33,10673,2C,man,NA,null,M3 is being shouted at by M1,shout2,sentence,NA,NA,NA,NA
6786.5,NA,NA,NA,NA,survey-likert-extra-labels,53,271344,0.0-22.0-1.0-0.0,anomymised,65658173739efdc811fa7bc3,65676759d4d573142a3d9a33,10673,2C,man,NA,NA,M3 is being shouted at by M1,shout2,rating_causation,"{""Q0"":1}",[0],M1 shouted at M3 first,M3 shouted at M1 first
3400.599999964237,NA,NA,NA,NA,survey-likert-extra-labels,54,274749,0.0-22.0-2.0,anomymised,65658173739efdc811fa7bc3,65676759d4d573142a3d9a33,10673,2C,man,NA,NA,M3 is being shouted at by M1,shout2,rating_volition,"{""Q0"":1}",[0],M1 wanted to shout at M3,M3 wanted to shout at M1
null,Mike is being opposed by Kate,NA,NA,NA,html-keyboard-response,55,276754,0.0-23.0-0.0,anomymised,65658173739efdc811fa7bc3,65676759d4d573142a3d9a33,10673,2C,man,NA,null,M4 is being opposed by W2,oppose3,sentence,NA,NA,NA,NA
2203.300000011921,NA,NA,NA,NA,survey-likert-extra-labels,56,278960,0.0-23.0-1.0-0.0,anomymised,65658173739efdc811fa7bc3,65676759d4d573142a3d9a33,10673,2C,man,NA,NA,M4 is being opposed by W2,oppose3,rating_causation,"{""Q0"":0}",[0],W2 started opposing M4,M4 started opposing W2
4605.199999988079,NA,NA,NA,NA,survey-likert-extra-labels,57,283569,0.0-23.0-2.0,anomymised,65658173739efdc811fa7bc3,65676759d4d573142a3d9a33,10673,2C,man,NA,NA,M4 is being opposed by W2,oppose3,rating_volition,"{""Q0"":2}",[0],W2 wanted to oppose M4,M4 wanted to oppose W2
null,Jane is being hugged by Beth,NA,NA,NA,html-keyboard-response,58,285586,0.0-24.0-0.0,anomymised,65658173739efdc811fa7bc3,65676759d4d573142a3d9a33,10673,2C,man,NA,null,W3 is being hugged by W1,hug1,sentence,NA,NA,NA,NA
6540,NA,NA,NA,NA,survey-likert-extra-labels,59,292128,0.0-24.0-1.0-0.0,anomymised,65658173739efdc811fa7bc3,65676759d4d573142a3d9a33,10673,2C,man,NA,NA,W3 is being hugged by W1,hug1,rating_causation,"{""Q0"":2}",[0],W1 asked to hug W3,W3 asked to hug W1
5135.900000035763,NA,NA,NA,NA,survey-likert-extra-labels,60,297268,0.0-24.0-2.0,anomymised,65658173739efdc811fa7bc3,65676759d4d573142a3d9a33,10673,2C,man,NA,NA,W3 is being hugged by W1,hug1,rating_volition,"{""Q0"":1}",[0],W1 wanted to hug W3,W3 wanted to hug W1
null,Dave is posing for Mike,NA,NA,NA,html-keyboard-response,61,299274,0.0-25.0-0.0,anomymised,65658173739efdc811fa7bc3,65676759d4d573142a3d9a33,10673,2C,man,NA,null,M2 is posing for M4,pose,sentence,NA,NA,NA,NA
6340.5,NA,NA,NA,NA,survey-likert-extra-labels,62,305617,0.0-25.0-1.0-0.0,anomymised,65658173739efdc811fa7bc3,65676759d4d573142a3d9a33,10673,2C,man,NA,NA,M2 is posing for M4,pose,rating_causation,"{""Q0"":6}",[0],M2 is photographing M4,M4 is photographing M2
4563.600000023842,NA,NA,NA,NA,survey-likert-extra-labels,63,310184,0.0-25.0-2.0,anomymised,65658173739efdc811fa7bc3,65676759d4d573142a3d9a33,10673,2C,man,NA,NA,M2 is posing for M4,pose,rating_volition,"{""Q0"":0}",[0],M2 is modelling for M4,M4 is modelling for M2
null,Ruth is being touched by Kate,NA,NA,NA,html-keyboard-response,64,312202,0.0-26.0-0.0,anomymised,65658173739efdc811fa7bc3,65676759d4d573142a3d9a33,10673,2C,man,NA,null,W4 is being touched by W2,touch1,sentence,NA,NA,NA,NA
3323.899999976158,NA,NA,NA,NA,survey-likert-extra-labels,65,315528,0.0-26.0-2.0,anomymised,65658173739efdc811fa7bc3,65676759d4d573142a3d9a33,10673,2C,man,NA,NA,W4 is being touched by W2,touch1,rating_volition,"{""Q0"":1}",[0],W2 wanted to touch W4,W4 wanted to touch W2
4541.100000023842,NA,NA,NA,NA,survey-likert-extra-labels,66,320073,0.0-26.0-3.0-0.0,anomymised,65658173739efdc811fa7bc3,65676759d4d573142a3d9a33,10673,2C,man,NA,NA,W4 is being touched by W2,touch1,rating_causation,"{""Q0"":2}",[0],W2 asked to touch W4,W4 asked to touch W2
null,Kate is being greeted by Ruth,NA,NA,NA,html-keyboard-response,67,322076,0.0-27.0-0.0,anomymised,65658173739efdc811fa7bc3,65676759d4d573142a3d9a33,10673,2C,man,NA,null,W2 is being greeted by W4,greet1,sentence,NA,NA,NA,NA
2602.100000023842,NA,NA,NA,NA,survey-likert-extra-labels,68,324680,0.0-27.0-2.0,anomymised,65658173739efdc811fa7bc3,65676759d4d573142a3d9a33,10673,2C,man,NA,NA,W2 is being greeted by W4,greet1,rating_volition,"{""Q0"":6}",[0],W2 wanted to greet W4,W4 wanted to greet W2
2544.7000000476837,NA,NA,NA,NA,survey-likert-extra-labels,69,327228,0.0-27.0-3.0-0.0,anomymised,65658173739efdc811fa7bc3,65676759d4d573142a3d9a33,10673,2C,man,NA,NA,W2 is being greeted by W4,greet1,rating_causation,"{""Q0"":4}",[0],W2 started greeting W4 first,W4 started greeting W2 first
null,Kate is being looked at by Mike,NA,NA,NA,html-keyboard-response,70,329235,0.0-28.0-0.0,anomymised,65658173739efdc811fa7bc3,65676759d4d573142a3d9a33,10673,2C,man,NA,null,W2 is being looked at by M4,look3,sentence,NA,NA,NA,NA
3059.5,NA,NA,NA,NA,survey-likert-extra-labels,71,332296,0.0-28.0-2.0,anomymised,65658173739efdc811fa7bc3,65676759d4d573142a3d9a33,10673,2C,man,NA,NA,W2 is being looked at by M4,look3,rating_volition,"{""Q0"":6}",[0],W2 wanted to look at M4,M4 wanted to look at W2
3096.800000011921,NA,NA,NA,NA,survey-likert-extra-labels,72,335396,0.0-28.0-3.0-0.0,anomymised,65658173739efdc811fa7bc3,65676759d4d573142a3d9a33,10673,2C,man,NA,NA,W2 is being looked at by M4,look3,rating_causation,"{""Q0"":3}",[0],W2 looked at M4 first,M4 looked at W2 first
null,Luke is hiring Beth,NA,NA,NA,html-keyboard-response,73,337404,0.0-29.0-0.0,anomymised,65658173739efdc811fa7bc3,65676759d4d573142a3d9a33,10673,2C,man,NA,null,M3 is hiring W1,hire,sentence,NA,NA,NA,NA
6946.799999952316,NA,NA,NA,NA,survey-likert-extra-labels,74,344352,0.0-29.0-1.0-0.0,anomymised,65658173739efdc811fa7bc3,65676759d4d573142a3d9a33,10673,2C,man,NA,NA,M3 is hiring W1,hire,rating_causation,"{""Q0"":6}",[0],M3 will work for W1,W1 will work for M3
4396.100000023842,NA,NA,NA,NA,survey-likert-extra-labels,75,348753,0.0-29.0-2.0,anomymised,65658173739efdc811fa7bc3,65676759d4d573142a3d9a33,10673,2C,man,NA,NA,M3 is hiring W1,hire,rating_volition,"{""Q0"":0}",[0],M3 is employing W1,W1 is employing M3
null,Ruth is being shouted at by Dave,NA,NA,NA,html-keyboard-response,76,350772,0.0-30.0-0.0,anomymised,65658173739efdc811fa7bc3,65676759d4d573142a3d9a33,10673,2C,man,NA,null,W4 is being shouted at by M2,shout3,sentence,NA,NA,NA,NA
6125.799999952316,NA,NA,NA,NA,survey-likert-extra-labels,77,356900,0.0-30.0-1.0-0.0,anomymised,65658173739efdc811fa7bc3,65676759d4d573142a3d9a33,10673,2C,man,NA,NA,W4 is being shouted at by M2,shout3,rating_causation,"{""Q0"":1}",[0],M2 shouted at W4 first,W4 shouted at M2 first
3593.300000011921,NA,NA,NA,NA,survey-likert-extra-labels,78,360496,0.0-30.0-2.0,anomymised,65658173739efdc811fa7bc3,65676759d4d573142a3d9a33,10673,2C,man,NA,NA,W4 is being shouted at by M2,shout3,rating_volition,"{""Q0"":0}",[0],M2 wanted to shout at W4,W4 wanted to shout at M2
null,Kate is teaching Mike,NA,NA,NA,html-keyboard-response,79,362503,0.0-31.0-0.0,anomymised,65658173739efdc811fa7bc3,65676759d4d573142a3d9a33,10673,2C,man,NA,null,W2 is teaching M4,teach,sentence,NA,NA,NA,NA
5773.100000023842,NA,NA,NA,NA,survey-likert-extra-labels,80,368279,0.0-31.0-2.0,anomymised,65658173739efdc811fa7bc3,65676759d4d573142a3d9a33,10673,2C,man,NA,NA,W2 is teaching M4,teach,rating_volition,"{""Q0"":0}",[0],W2 is educating M4,M4 is educating W2
4728.5,NA,NA,NA,NA,survey-likert-extra-labels,81,373012,0.0-31.0-3.0-0.0,anomymised,65658173739efdc811fa7bc3,65676759d4d573142a3d9a33,10673,2C,man,NA,NA,W2 is teaching M4,teach,rating_causation,"{""Q0"":6}",[0],W2 is learning from M4,M4 is learning from W2
null,Luke is being copied by Beth,NA,NA,NA,html-keyboard-response,82,375025,0.0-32.0-0.0,anomymised,65658173739efdc811fa7bc3,65676759d4d573142a3d9a33,10673,2C,man,NA,null,M3 is being copied by W1,copy4,sentence,NA,NA,NA,NA
7585.300000011921,NA,NA,NA,NA,survey-likert-extra-labels,83,382612,0.0-32.0-1.0-0.0,anomymised,65658173739efdc811fa7bc3,65676759d4d573142a3d9a33,10673,2C,man,NA,NA,M3 is being copied by W1,copy4,rating_causation,"{""Q0"":5}",[0],M3 started copying W1 first,W1 started copying M3 first
3971.5,NA,NA,NA,NA,survey-likert-extra-labels,84,386587,0.0-32.0-2.0,anomymised,65658173739efdc811fa7bc3,65676759d4d573142a3d9a33,10673,2C,man,NA,NA,M3 is being copied by W1,copy4,rating_volition,"{""Q0"":6}",[0],M3 wanted to copy W1,W1 wanted to copy M3
null,Mike is being hugged by Kate,NA,NA,NA,html-keyboard-response,85,388594,0.0-33.0-0.0,anomymised,65658173739efdc811fa7bc3,65676759d4d573142a3d9a33,10673,2C,man,NA,null,M4 is being hugged by W2,hug3,sentence,NA,NA,NA,NA
5766.5,NA,NA,NA,NA,survey-likert-extra-labels,86,394363,0.0-33.0-2.0,anomymised,65658173739efdc811fa7bc3,65676759d4d573142a3d9a33,10673,2C,man,NA,NA,M4 is being hugged by W2,hug3,rating_volition,"{""Q0"":0}",[0],W2 wanted to hug M4,M4 wanted to hug W2
3672.099999964237,NA,NA,NA,NA,survey-likert-extra-labels,87,398039,0.0-33.0-3.0-0.0,anomymised,65658173739efdc811fa7bc3,65676759d4d573142a3d9a33,10673,2C,man,NA,NA,M4 is being hugged by W2,hug3,rating_causation,"{""Q0"":2}",[0],W2 asked to hug M4,M4 asked to hug W2
null,Jane is feeding Fred,NA,NA,NA,html-keyboard-response,88,400056,0.0-34.0-0.0,anomymised,65658173739efdc811fa7bc3,65676759d4d573142a3d9a33,10673,2C,man,NA,null,W3 is feeding M1,feed,sentence,NA,NA,NA,NA
14318.600000023842,NA,NA,NA,NA,survey-likert-extra-labels,89,414376,0.0-34.0-1.0-0.0,anomymised,65658173739efdc811fa7bc3,65676759d4d573142a3d9a33,10673,2C,man,NA,NA,W3 is feeding M1,feed,rating_causation,"{""Q0"":6}",[0],W3 is eating M1's food,M1 is eating W3's food
4219.599999964237,NA,NA,NA,NA,survey-likert-extra-labels,90,418600,0.0-34.0-2.0,anomymised,65658173739efdc811fa7bc3,65676759d4d573142a3d9a33,10673,2C,man,NA,NA,W3 is feeding M1,feed,rating_volition,"{""Q0"":3}",[0],W3 cooked for M1,M1 cooked for W3
null,Fred is being kissed by Luke,NA,NA,NA,html-keyboard-response,91,420607,0.0-35.0-0.0,anomymised,65658173739efdc811fa7bc3,65676759d4d573142a3d9a33,10673,2C,man,NA,null,M1 is being kissed by M3,kiss2,sentence,NA,NA,NA,NA
6614.899999976158,NA,NA,NA,NA,survey-likert-extra-labels,92,427224,0.0-35.0-2.0,anomymised,65658173739efdc811fa7bc3,65676759d4d573142a3d9a33,10673,2C,man,NA,NA,M1 is being kissed by M3,kiss2,rating_volition,"{""Q0"":6}",[0],M1 wanted to kiss M3,M3 wanted to kiss M1
2163.399999976158,NA,NA,NA,NA,survey-likert-extra-labels,93,429392,0.0-35.0-3.0-0.0,anomymised,65658173739efdc811fa7bc3,65676759d4d573142a3d9a33,10673,2C,man,NA,NA,M1 is being kissed by M3,kiss2,rating_causation,"{""Q0"":3}",[0],M1 asked to kiss M3,M3 asked to kiss M1
null,Beth is being kissed by Jane,NA,NA,NA,html-keyboard-response,94,431410,0.0-36.0-0.0,anomymised,65658173739efdc811fa7bc3,65676759d4d573142a3d9a33,10673,2C,man,NA,null,W1 is being kissed by W3,kiss1,sentence,NA,NA,NA,NA
30821.30000001192,NA,NA,NA,NA,survey-likert-extra-labels,95,462236,0.0-36.0-1.0-0.0,anomymised,65658173739efdc811fa7bc3,65676759d4d573142a3d9a33,10673,2C,man,NA,NA,W1 is being kissed by W3,kiss1,rating_causation,"{""Q0"":4}",[0],W1 asked to kiss W3,W3 asked to kiss W1
5012.800000011921,NA,NA,NA,NA,survey-likert-extra-labels,96,467255,0.0-36.0-2.0,anomymised,65658173739efdc811fa7bc3,65676759d4d573142a3d9a33,10673,2C,man,NA,NA,W1 is being kissed by W3,kiss1,rating_volition,"{""Q0"":6}",[0],W1 wanted to kiss W3,W3 wanted to kiss W1
null,Dave is being looked at by Ruth,NA,NA,NA,html-keyboard-response,97,469272,0.0-37.0-0.0,anomymised,65658173739efdc811fa7bc3,65676759d4d573142a3d9a33,10673,2C,man,NA,null,M2 is being looked at by W4,look4,sentence,NA,NA,NA,NA
5729.099999964237,NA,NA,NA,NA,survey-likert-extra-labels,98,475003,0.0-37.0-2.0,anomymised,65658173739efdc811fa7bc3,65676759d4d573142a3d9a33,10673,2C,man,NA,NA,M2 is being looked at by W4,look4,rating_volition,"{""Q0"":6}",[0],M2 wanted to look at W4,W4 wanted to look at M2
1944.6000000238419,NA,NA,NA,NA,survey-likert-extra-labels,99,476952,0.0-37.0-3.0-0.0,anomymised,65658173739efdc811fa7bc3,65676759d4d573142a3d9a33,10673,2C,man,NA,NA,M2 is being looked at by W4,look4,rating_causation,"{""Q0"":3}",[0],M2 looked at W4 first,W4 looked at M2 first
null,Mike is being seduced by Dave,NA,NA,NA,html-keyboard-response,100,478956,0.0-38.0-0.0,anomymised,65658173739efdc811fa7bc3,65676759d4d573142a3d9a33,10673,2C,man,NA,null,M4 is being seduced by M2,seduce2,sentence,NA,NA,NA,NA
4854.800000011921,NA,NA,NA,NA,survey-likert-extra-labels,101,483814,0.0-38.0-2.0,anomymised,65658173739efdc811fa7bc3,65676759d4d573142a3d9a33,10673,2C,man,NA,NA,M4 is being seduced by M2,seduce2,rating_volition,"{""Q0"":0}",[0],M2 wanted to seduce M4,M4 wanted to seduce M2
2361.099999964237,NA,NA,NA,NA,survey-likert-extra-labels,102,486179,0.0-38.0-3.0-0.0,anomymised,65658173739efdc811fa7bc3,65676759d4d573142a3d9a33,10673,2C,man,NA,NA,M4 is being seduced by M2,seduce2,rating_causation,"{""Q0"":3}",[0],M2 started seducing M4 first,M4 started seducing M2 first
null,Kate is being kissed by Mike,NA,NA,NA,html-keyboard-response,103,488192,0.0-39.0-0.0,anomymised,65658173739efdc811fa7bc3,65676759d4d573142a3d9a33,10673,2C,man,NA,null,W2 is being kissed by M4,kiss4,sentence,NA,NA,NA,NA
3141.7000000476837,NA,NA,NA,NA,survey-likert-extra-labels,104,491335,0.0-39.0-1.0-0.0,anomymised,65658173739efdc811fa7bc3,65676759d4d573142a3d9a33,10673,2C,man,NA,NA,W2 is being kissed by M4,kiss4,rating_causation,"{""Q0"":4}",[0],W2 asked to kiss M4,M4 asked to kiss W2
4452.5,NA,NA,NA,NA,survey-likert-extra-labels,105,495791,0.0-39.0-2.0,anomymised,65658173739efdc811fa7bc3,65676759d4d573142a3d9a33,10673,2C,man,NA,NA,W2 is being kissed by M4,kiss4,rating_volition,"{""Q0"":6}",[0],W2 wanted to kiss M4,M4 wanted to kiss W2
null,Mike is being challenged by Dave,NA,NA,NA,html-keyboard-response,106,497809,0.0-40.0-0.0,anomymised,65658173739efdc811fa7bc3,65676759d4d573142a3d9a33,10673,2C,man,NA,null,M4 is being challenged by M2,challenge2,sentence,NA,NA,NA,NA
7667.699999988079,NA,NA,NA,NA,survey-likert-extra-labels,107,505479,0.0-40.0-1.0-0.0,anomymised,65658173739efdc811fa7bc3,65676759d4d573142a3d9a33,10673,2C,man,NA,NA,M4 is being challenged by M2,challenge2,rating_causation,"{""Q0"":1}",[0],M2 started challenging M4 first,M4 started challenging M2 first
5118.899999976158,NA,NA,NA,NA,survey-likert-extra-labels,108,510603,0.0-40.0-2.0,anomymised,65658173739efdc811fa7bc3,65676759d4d573142a3d9a33,10673,2C,man,NA,NA,M4 is being challenged by M2,challenge2,rating_volition,"{""Q0"":0}",[0],M2 wanted to challenge M4,M4 wanted to challenge M2
null,Fred is being touched by Jane,NA,NA,NA,html-keyboard-response,109,512609,0.0-41.0-0.0,anomymised,65658173739efdc811fa7bc3,65676759d4d573142a3d9a33,10673,2C,man,NA,null,M1 is being touched by W3,touch3,sentence,NA,NA,NA,NA
3628.5,NA,NA,NA,NA,survey-likert-extra-labels,110,516239,0.0-41.0-2.0,anomymised,65658173739efdc811fa7bc3,65676759d4d573142a3d9a33,10673,2C,man,NA,NA,M1 is being touched by W3,touch3,rating_volition,"{""Q0"":0}",[0],W3 wanted to touch M1,M1 wanted to touch W3
2321.2000000476837,NA,NA,NA,NA,survey-likert-extra-labels,111,518563,0.0-41.0-3.0-0.0,anomymised,65658173739efdc811fa7bc3,65676759d4d573142a3d9a33,10673,2C,man,NA,NA,M1 is being touched by W3,touch3,rating_causation,"{""Q0"":3}",[0],W3 asked to touch M1,M1 asked to touch W3
null,Fred is driving Luke,NA,NA,NA,html-keyboard-response,112,520577,0.0-42.0-0.0,anomymised,65658173739efdc811fa7bc3,65676759d4d573142a3d9a33,10673,2C,man,NA,null,M1 is driving M3,drive,sentence,NA,NA,NA,NA
4106.699999988079,NA,NA,NA,NA,survey-likert-extra-labels,113,524687,0.0-42.0-1.0-0.0,anomymised,65658173739efdc811fa7bc3,65676759d4d573142a3d9a33,10673,2C,man,NA,NA,M1 is driving M3,drive,rating_causation,"{""Q0"":0}",[0],M1 is taking M3 somewhere,M3 is taking M1 somewhere
6724.699999988079,NA,NA,NA,NA,survey-likert-extra-labels,114,531416,0.0-42.0-2.0,anomymised,65658173739efdc811fa7bc3,65676759d4d573142a3d9a33,10673,2C,man,NA,NA,M1 is driving M3,drive,rating_volition,"{""Q0"":6}",[0],M1 is M3's passenger,M3 is M1's passenger
null,Ruth is being seduced by Kate,NA,NA,NA,html-keyboard-response,115,533430,0.0-43.0-0.0,anomymised,65658173739efdc811fa7bc3,65676759d4d573142a3d9a33,10673,2C,man,NA,null,W4 is being seduced by W2,seduce1,sentence,NA,NA,NA,NA
6225.400000035763,NA,NA,NA,NA,survey-likert-extra-labels,116,539658,0.0-43.0-1.0-0.0,anomymised,65658173739efdc811fa7bc3,65676759d4d573142a3d9a33,10673,2C,man,NA,NA,W4 is being seduced by W2,seduce1,rating_causation,"{""Q0"":0}",[0],W2 started seducing W4 first,W4 started seducing W2 first
5569.300000011921,NA,NA,NA,NA,survey-likert-extra-labels,117,545230,0.0-43.0-2.0,anomymised,65658173739efdc811fa7bc3,65676759d4d573142a3d9a33,10673,2C,man,NA,NA,W4 is being seduced by W2,seduce1,rating_volition,"{""Q0"":0}",[0],W2 wanted to seduce W4,W4 wanted to seduce W2
null,Fred is being looked at by Luke,NA,NA,NA,html-keyboard-response,118,547245,0.0-44.0-0.0,anomymised,65658173739efdc811fa7bc3,65676759d4d573142a3d9a33,10673,2C,man,NA,null,M1 is being looked at by M3,look2,sentence,NA,NA,NA,NA
7420.400000035763,NA,NA,NA,NA,survey-likert-extra-labels,119,554669,0.0-44.0-1.0-0.0,anomymised,65658173739efdc811fa7bc3,65676759d4d573142a3d9a33,10673,2C,man,NA,NA,M1 is being looked at by M3,look2,rating_causation,"{""Q0"":4}",[0],M1 looked at M3 first,M3 looked at M1 first
8172.5,NA,NA,NA,NA,survey-likert-extra-labels,120,562846,0.0-44.0-2.0,anomymised,65658173739efdc811fa7bc3,65676759d4d573142a3d9a33,10673,2C,man,NA,NA,M1 is being looked at by M3,look2,rating_volition,"{""Q0"":6}",[0],M1 wanted to look at M3,M3 wanted to look at M1
null,Dave is being kissed by Ruth,NA,NA,NA,html-keyboard-response,121,564861,0.0-45.0-0.0,anomymised,65658173739efdc811fa7bc3,65676759d4d573142a3d9a33,10673,2C,man,NA,null,M2 is being kissed by W4,kiss3,sentence,NA,NA,NA,NA
4725.700000047684,NA,NA,NA,NA,survey-likert-extra-labels,122,569589,0.0-45.0-1.0-0.0,anomymised,65658173739efdc811fa7bc3,65676759d4d573142a3d9a33,10673,2C,man,NA,NA,M2 is being kissed by W4,kiss3,rating_causation,"{""Q0"":4}",[0],M2 asked to kiss W4,W4 asked to kiss M2
2932.5,NA,NA,NA,NA,survey-likert-extra-labels,123,572525,0.0-45.0-2.0,anomymised,65658173739efdc811fa7bc3,65676759d4d573142a3d9a33,10673,2C,man,NA,NA,M2 is being kissed by W4,kiss3,rating_volition,"{""Q0"":6}",[0],M2 wanted to kiss W4,W4 wanted to kiss M2
null,Mike is being touched by Dave,NA,NA,NA,html-keyboard-response,124,574537,0.0-46.0-0.0,anomymised,65658173739efdc811fa7bc3,65676759d4d573142a3d9a33,10673,2C,man,NA,null,M4 is being touched by M2,touch2,sentence,NA,NA,NA,NA
2530.5,NA,NA,NA,NA,survey-likert-extra-labels,125,577070,0.0-46.0-2.0,anomymised,65658173739efdc811fa7bc3,65676759d4d573142a3d9a33,10673,2C,man,NA,NA,M4 is being touched by M2,touch2,rating_volition,"{""Q0"":0}",[0],M2 wanted to touch M4,M4 wanted to touch M2
4524.300000011921,NA,NA,NA,NA,survey-likert-extra-labels,126,581597,0.0-46.0-3.0-0.0,anomymised,65658173739efdc811fa7bc3,65676759d4d573142a3d9a33,10673,2C,man,NA,NA,M4 is being touched by M2,touch2,rating_causation,"{""Q0"":2}",[0],M2 asked to touch M4,M4 asked to touch M2
null,Fred is being seduced by Jane,NA,NA,NA,html-keyboard-response,127,583610,0.0-47.0-0.0,anomymised,65658173739efdc811fa7bc3,65676759d4d573142a3d9a33,10673,2C,man,NA,null,M1 is being seduced by W3,seduce3,sentence,NA,NA,NA,NA
5100.300000011921,NA,NA,NA,NA,survey-likert-extra-labels,128,588713,0.0-47.0-2.0,anomymised,65658173739efdc811fa7bc3,65676759d4d573142a3d9a33,10673,2C,man,NA,NA,M1 is being seduced by W3,seduce3,rating_volition,"{""Q0"":0}",[0],W3 wanted to seduce M1,M1 wanted to seduce W3
9924,NA,NA,NA,NA,survey-likert-extra-labels,129,598641,0.0-47.0-3.0-0.0,anomymised,65658173739efdc811fa7bc3,65676759d4d573142a3d9a33,10673,2C,man,NA,NA,M1 is being seduced by W3,seduce3,rating_causation,"{""Q0"":4}",[0],W3 started seducing M1 first,M1 started seducing W3 first
null,Jane is being greeted by Fred,NA,NA,NA,html-keyboard-response,130,600648,0.0-48.0-0.0,anomymised,65658173739efdc811fa7bc3,65676759d4d573142a3d9a33,10673,2C,man,NA,null,W3 is being greeted by M1,greet4,sentence,NA,NA,NA,NA
4716.899999976158,NA,NA,NA,NA,survey-likert-extra-labels,131,605367,0.0-48.0-2.0,anomymised,65658173739efdc811fa7bc3,65676759d4d573142a3d9a33,10673,2C,man,NA,NA,W3 is being greeted by M1,greet4,rating_volition,"{""Q0"":6}",[0],W3 wanted to greet M1,M1 wanted to greet W3
1860.699999988079,NA,NA,NA,NA,survey-likert-extra-labels,132,607232,0.0-48.0-3.0-0.0,anomymised,65658173739efdc811fa7bc3,65676759d4d573142a3d9a33,10673,2C,man,NA,NA,W3 is being greeted by M1,greet4,rating_causation,"{""Q0"":4}",[0],W3 started greeting M1 first,M1 started greeting W3 first
null,Jane is being copied by Fred,NA,NA,NA,html-keyboard-response,133,609241,0.0-49.0-0.0,anomymised,65658173739efdc811fa7bc3,65676759d4d573142a3d9a33,10673,2C,man,NA,null,W3 is being copied by M1,copy3,sentence,NA,NA,NA,NA
9540.5,NA,NA,NA,NA,survey-likert-extra-labels,134,618783,0.0-49.0-1.0-0.0,anomymised,65658173739efdc811fa7bc3,65676759d4d573142a3d9a33,10673,2C,man,NA,NA,W3 is being copied by M1,copy3,rating_causation,"{""Q0"":4}",[0],W3 started copying M1 first,M1 started copying W3 first
3733,NA,NA,NA,NA,survey-likert-extra-labels,135,622520,0.0-49.0-2.0,anomymised,65658173739efdc811fa7bc3,65676759d4d573142a3d9a33,10673,2C,man,NA,NA,W3 is being copied by M1,copy3,rating_volition,"{""Q0"":6}",[0],W3 wanted to copy M1,M1 wanted to copy W3
null,Dave is reminding Ruth,NA,NA,NA,html-keyboard-response,136,624532,0.0-50.0-0.0,anomymised,65658173739efdc811fa7bc3,65676759d4d573142a3d9a33,10673,2C,man,NA,null,M2 is reminding W4,remind,sentence,NA,NA,NA,NA
4186.099999964237,NA,NA,NA,NA,survey-likert-extra-labels,137,628720,0.0-50.0-2.0,anomymised,65658173739efdc811fa7bc3,65676759d4d573142a3d9a33,10673,2C,man,NA,NA,M2 is reminding W4,remind,rating_volition,"{""Q0"":0}",[0],M2 is telling W4 again,W4 is telling M2 again
4235.399999976158,NA,NA,NA,NA,survey-likert-extra-labels,138,632959,0.0-50.0-3.0-0.0,anomymised,65658173739efdc811fa7bc3,65676759d4d573142a3d9a33,10673,2C,man,NA,NA,M2 is reminding W4,remind,rating_causation,"{""Q0"":0}",[0],M2 is remembering,W4 is remembering
null,Mike is being shouted at by Kate,NA,NA,NA,html-keyboard-response,139,634964,0.0-51.0-0.0,anomymised,65658173739efdc811fa7bc3,65676759d4d573142a3d9a33,10673,2C,man,NA,null,M4 is being shouted at by W2,shout4,sentence,NA,NA,NA,NA
6360.700000047684,NA,NA,NA,NA,survey-likert-extra-labels,140,641327,0.0-51.0-2.0,anomymised,65658173739efdc811fa7bc3,65676759d4d573142a3d9a33,10673,2C,man,NA,NA,M4 is being shouted at by W2,shout4,rating_volition,"{""Q0"":0}",[0],W2 wanted to shout at M4,M4 wanted to shout at W2
3776.100000023842,NA,NA,NA,NA,survey-likert-extra-labels,141,645107,0.0-51.0-3.0-0.0,anomymised,65658173739efdc811fa7bc3,65676759d4d573142a3d9a33,10673,2C,man,NA,NA,M4 is being shouted at by W2,shout4,rating_causation,"{""Q0"":2}",[0],W2 shouted at M4 first,M4 shouted at W2 first
null,Kate is being copied by Ruth,NA,NA,NA,html-keyboard-response,142,647127,0.0-52.0-0.0,anomymised,65658173739efdc811fa7bc3,65676759d4d573142a3d9a33,10673,2C,man,NA,null,W2 is being copied by W4,copy1,sentence,NA,NA,NA,NA
6621.199999988079,NA,NA,NA,NA,survey-likert-extra-labels,143,653751,0.0-52.0-1.0-0.0,anomymised,65658173739efdc811fa7bc3,65676759d4d573142a3d9a33,10673,2C,man,NA,NA,W2 is being copied by W4,copy1,rating_causation,"{""Q0"":4}",[0],W2 started copying W4 first,W4 started copying W2 first
4484.600000023842,NA,NA,NA,NA,survey-likert-extra-labels,144,658239,0.0-52.0-2.0,anomymised,65658173739efdc811fa7bc3,65676759d4d573142a3d9a33,10673,2C,man,NA,NA,W2 is being copied by W4,copy1,rating_volition,"{""Q0"":6}",[0],W2 wanted to copy W4,W4 wanted to copy W2
null,Fred is being challenged by Jane,NA,NA,NA,html-keyboard-response,145,660248,0.0-53.0-0.0,anomymised,65658173739efdc811fa7bc3,65676759d4d573142a3d9a33,10673,2C,man,NA,null,M1 is being challenged by W3,challenge4,sentence,NA,NA,NA,NA
2575.899999976158,NA,NA,NA,NA,survey-likert-extra-labels,146,662828,0.0-53.0-2.0,anomymised,65658173739efdc811fa7bc3,65676759d4d573142a3d9a33,10673,2C,man,NA,NA,M1 is being challenged by W3,challenge4,rating_volition,"{""Q0"":0}",[0],W3 wanted to challenge M1,M1 wanted to challenge W3
6184,NA,NA,NA,NA,survey-likert-extra-labels,147,669015,0.0-53.0-3.0-0.0,anomymised,65658173739efdc811fa7bc3,65676759d4d573142a3d9a33,10673,2C,man,NA,NA,M1 is being challenged by W3,challenge4,rating_causation,"{""Q0"":2}",[0],W3 started challenging M1 first,M1 started challenging W3 first
null,Beth is being looked at by Jane,NA,NA,NA,html-keyboard-response,148,671029,0.0-54.0-0.0,anomymised,65658173739efdc811fa7bc3,65676759d4d573142a3d9a33,10673,2C,man,NA,null,W1 is being looked at by W3,look1,sentence,NA,NA,NA,NA
5934.099999964237,NA,NA,NA,NA,survey-likert-extra-labels,149,676966,0.0-54.0-2.0,anomymised,65658173739efdc811fa7bc3,65676759d4d573142a3d9a33,10673,2C,man,NA,NA,W1 is being looked at by W3,look1,rating_volition,"{""Q0"":6}",[0],W1 wanted to look at W3,W3 wanted to look at W1
3405.100000023842,NA,NA,NA,NA,survey-likert-extra-labels,150,680376,0.0-54.0-3.0-0.0,anomymised,65658173739efdc811fa7bc3,65676759d4d573142a3d9a33,10673,2C,man,NA,NA,W1 is being looked at by W3,look1,rating_causation,"{""Q0"":4}",[0],W1 looked at W3 first,W3 looked at W1 first
1359.3999999761581,<p>Thank you for completing that task.</p><p>The final part of this session is a short questionnaire.</p><p>Press Continue.</p>,0,Continue,Continue,html-button-response,151,681739,0.0-55.0,anomymised,65658173739efdc811fa7bc3,65676759d4d573142a3d9a33,10673,2C,man,NA,NA,NA,NA,NA,NA,NA,NA,NA
28520.69999998808,NA,NA,NA,NA,survey-text,152,711292,0.0-56.0,anomymised,65658173739efdc811fa7bc3,65676759d4d573142a3d9a33,10673,2C,man,NA,NA,NA,NA,demographics,"{""Q0"":""32"",""Q1"":""english"",""Q2"":""english"",""Q3"":""england"",""Q4"":""english"",""Q5"":""white"",""Q6"":""male""}",NA,NA,NA
2624.900000035763,<p>This is the last question - thank you for taking part! Have you lived in the UK for the last 5 years or more?</p>,0,"Yes,No",Yes,html-button-response,153,713920,0.0-57.0,anomymised,65658173739efdc811fa7bc3,65676759d4d573142a3d9a33,10673,2C,man,NA,NA,NA,NA,fiveyears,NA,NA,NA,NA
