rt,stimulus,button_pressed,choices,ChosenStimulus,trial_type,trial_index,time_elapsed,internal_node_id,subject_id,study_id,session_id,subject,list,ppt_gender,url,key_press,sentence_type,verb,test_part,responses,question_order,left_part,right_part
2630.6999999999534,Welcome to the experiment. Press Continue to begin.,0,Continue,Continue,html-button-response,0,2637,0.0-0.0,anomymised,6565831db6b8903cc398def3,656766cfd6c8129a83135949,16254,2C,woman,NA,NA,NA,NA,NA,NA,NA,NA,NA
8446.400000000023,NA,NA,NA,NA,external-html,1,12170,0.0-1.0,anomymised,6565831db6b8903cc398def3,656766cfd6c8129a83135949,16254,2C,woman,consent.html,NA,NA,NA,NA,NA,NA,NA,NA
6411.599999999977,"<p>Welcome.</p><p>In this experiment we will ask you to imagine some situations.</p><p>Each trial starts with a description of an event.</p><p>Then you will see alternative descriptions of that event, and you will rate on a scale how best they match the original description.</p><p>You will give your answer by clicking a button on a rating scale.</p><p>To do this task, you will have to use your imagination to visualise these events.</p><br><p>Ready?</p>",0,Continue,Continue,html-button-response,2,18585,0.0-2.0,anomymised,6565831db6b8903cc398def3,656766cfd6c8129a83135949,16254,2C,woman,NA,NA,NA,NA,NA,NA,NA,NA,NA
2366.3000000000466,"<p>Before the experiment starts, you will watch an example trial. Press 'Continue'.</p>",0,Continue,Continue,html-button-response,3,21956,0.0-3.0,anomymised,6565831db6b8903cc398def3,656766cfd6c8129a83135949,16254,2C,woman,NA,NA,NA,NA,NA,NA,NA,NA,NA
null,The police officer is arresting the robber,NA,NA,NA,html-keyboard-response,4,24960,0.0-4.0,anomymised,6565831db6b8903cc398def3,656766cfd6c8129a83135949,16254,2C,woman,NA,null,NA,NA,NA,NA,NA,NA,NA
17655.399999999907,<img src='img/Example-trial.jpg' style='height:550px;''></img>,0,Continue,Continue,html-button-response,5,42618,0.0-5.0,anomymised,6565831db6b8903cc398def3,656766cfd6c8129a83135949,16254,2C,woman,NA,NA,NA,NA,NA,NA,NA,NA,NA
1776,<p>Ready to start the experiment?</p><br><p><strong>Remember to give an answer by clicking a button on the rating scale.</strong></p><p>Press 'Continue' to begin.</p>,0,Continue,Continue,html-button-response,6,45397,0.0-6.0,anomymised,6565831db6b8903cc398def3,656766cfd6c8129a83135949,16254,2C,woman,NA,NA,NA,NA,NA,NA,NA,NA,NA
null,Luke is hiring Beth,NA,NA,NA,html-keyboard-response,7,48404,0.0-7.0-0.0,anomymised,6565831db6b8903cc398def3,656766cfd6c8129a83135949,16254,2C,woman,NA,null,M3 is hiring W1,hire,sentence,NA,NA,NA,NA
3468.100000000093,NA,NA,NA,NA,survey-likert-extra-labels,8,51877,0.0-7.0-2.0,anomymised,6565831db6b8903cc398def3,656766cfd6c8129a83135949,16254,2C,woman,NA,NA,M3 is hiring W1,hire,rating_volition,"{""Q0"":0}",[0],M3 is employing W1,W1 is employing M3
6825.5,NA,NA,NA,NA,survey-likert-extra-labels,9,58709,0.0-7.0-3.0-0.0,anomymised,6565831db6b8903cc398def3,656766cfd6c8129a83135949,16254,2C,woman,NA,NA,M3 is hiring W1,hire,rating_causation,"{""Q0"":6}",[0],M3 will work for W1,W1 will work for M3
null,Jane is being copied by Fred,NA,NA,NA,html-keyboard-response,10,60713,0.0-8.0-0.0,anomymised,6565831db6b8903cc398def3,656766cfd6c8129a83135949,16254,2C,woman,NA,null,W3 is being copied by M1,copy3,sentence,NA,NA,NA,NA
7405.79999999993,NA,NA,NA,NA,survey-likert-extra-labels,11,68122,0.0-8.0-1.0-0.0,anomymised,6565831db6b8903cc398def3,656766cfd6c8129a83135949,16254,2C,woman,NA,NA,W3 is being copied by M1,copy3,rating_causation,"{""Q0"":6}",[0],W3 started copying M1 first,M1 started copying W3 first
5808.5,NA,NA,NA,NA,survey-likert-extra-labels,12,73940,0.0-8.0-2.0,anomymised,6565831db6b8903cc398def3,656766cfd6c8129a83135949,16254,2C,woman,NA,NA,W3 is being copied by M1,copy3,rating_volition,"{""Q0"":6}",[0],W3 wanted to copy M1,M1 wanted to copy W3
null,Dave is being copied by Mike,NA,NA,NA,html-keyboard-response,13,75945,0.0-9.0-0.0,anomymised,6565831db6b8903cc398def3,656766cfd6c8129a83135949,16254,2C,woman,NA,null,M2 is being copied by M4,copy2,sentence,NA,NA,NA,NA
8622.300000000047,NA,NA,NA,NA,survey-likert-extra-labels,14,84571,0.0-9.0-1.0-0.0,anomymised,6565831db6b8903cc398def3,656766cfd6c8129a83135949,16254,2C,woman,NA,NA,M2 is being copied by M4,copy2,rating_causation,"{""Q0"":6}",[0],M2 started copying M4 first,M4 started copying M2 first
9878.20000000007,NA,NA,NA,NA,survey-likert-extra-labels,15,94456,0.0-9.0-2.0,anomymised,6565831db6b8903cc398def3,656766cfd6c8129a83135949,16254,2C,woman,NA,NA,M2 is being copied by M4,copy2,rating_volition,"{""Q0"":6}",[0],M2 wanted to copy M4,M4 wanted to copy M2
null,Kate is being copied by Ruth,NA,NA,NA,html-keyboard-response,16,96461,0.0-10.0-0.0,anomymised,6565831db6b8903cc398def3,656766cfd6c8129a83135949,16254,2C,woman,NA,null,W2 is being copied by W4,copy1,sentence,NA,NA,NA,NA
6177.29999999993,NA,NA,NA,NA,survey-likert-extra-labels,17,102642,0.0-10.0-2.0,anomymised,6565831db6b8903cc398def3,656766cfd6c8129a83135949,16254,2C,woman,NA,NA,W2 is being copied by W4,copy1,rating_volition,"{""Q0"":6}",[0],W2 wanted to copy W4,W4 wanted to copy W2
3643.20000000007,NA,NA,NA,NA,survey-likert-extra-labels,18,106292,0.0-10.0-3.0-0.0,anomymised,6565831db6b8903cc398def3,656766cfd6c8129a83135949,16254,2C,woman,NA,NA,W2 is being copied by W4,copy1,rating_causation,"{""Q0"":6}",[0],W2 started copying W4 first,W4 started copying W2 first
null,Luke is being shouted at by Fred,NA,NA,NA,html-keyboard-response,19,108296,0.0-11.0-0.0,anomymised,6565831db6b8903cc398def3,656766cfd6c8129a83135949,16254,2C,woman,NA,null,M3 is being shouted at by M1,shout2,sentence,NA,NA,NA,NA
3373.5,NA,NA,NA,NA,survey-likert-extra-labels,20,111672,0.0-11.0-2.0,anomymised,6565831db6b8903cc398def3,656766cfd6c8129a83135949,16254,2C,woman,NA,NA,M3 is being shouted at by M1,shout2,rating_volition,"{""Q0"":0}",[0],M1 wanted to shout at M3,M3 wanted to shout at M1
3965.8000000000466,NA,NA,NA,NA,survey-likert-extra-labels,21,115642,0.0-11.0-3.0-0.0,anomymised,6565831db6b8903cc398def3,656766cfd6c8129a83135949,16254,2C,woman,NA,NA,M3 is being shouted at by M1,shout2,rating_causation,"{""Q0"":0}",[0],M1 shouted at M3 first,M3 shouted at M1 first
null,Beth is being kissed by Jane,NA,NA,NA,html-keyboard-response,22,117647,0.0-12.0-0.0,anomymised,6565831db6b8903cc398def3,656766cfd6c8129a83135949,16254,2C,woman,NA,null,W1 is being kissed by W3,kiss1,sentence,NA,NA,NA,NA
7021,NA,NA,NA,NA,survey-likert-extra-labels,23,124672,0.0-12.0-1.0-0.0,anomymised,6565831db6b8903cc398def3,656766cfd6c8129a83135949,16254,2C,woman,NA,NA,W1 is being kissed by W3,kiss1,rating_causation,"{""Q0"":6}",[0],W1 asked to kiss W3,W3 asked to kiss W1
5723.800000000047,NA,NA,NA,NA,survey-likert-extra-labels,24,130404,0.0-12.0-2.0,anomymised,6565831db6b8903cc398def3,656766cfd6c8129a83135949,16254,2C,woman,NA,NA,W1 is being kissed by W3,kiss1,rating_volition,"{""Q0"":6}",[0],W1 wanted to kiss W3,W3 wanted to kiss W1
null,Luke is being opposed by Fred,NA,NA,NA,html-keyboard-response,25,132409,0.0-13.0-0.0,anomymised,6565831db6b8903cc398def3,656766cfd6c8129a83135949,16254,2C,woman,NA,null,M3 is being opposed by M1,oppose2,sentence,NA,NA,NA,NA
7405.099999999977,NA,NA,NA,NA,survey-likert-extra-labels,26,139818,0.0-13.0-1.0-0.0,anomymised,6565831db6b8903cc398def3,656766cfd6c8129a83135949,16254,2C,woman,NA,NA,M3 is being opposed by M1,oppose2,rating_causation,"{""Q0"":0}",[0],M1 started opposing M3,M3 started opposing M1
9135.800000000047,NA,NA,NA,NA,survey-likert-extra-labels,27,148960,0.0-13.0-2.0,anomymised,6565831db6b8903cc398def3,656766cfd6c8129a83135949,16254,2C,woman,NA,NA,M3 is being opposed by M1,oppose2,rating_volition,"{""Q0"":0}",[0],M1 wanted to oppose M3,M3 wanted to oppose M1
null,Mike is being shouted at by Kate,NA,NA,NA,html-keyboard-response,28,150964,0.0-14.0-0.0,anomymised,6565831db6b8903cc398def3,656766cfd6c8129a83135949,16254,2C,woman,NA,null,M4 is being shouted at by W2,shout4,sentence,NA,NA,NA,NA
2871,NA,NA,NA,NA,survey-likert-extra-labels,29,153838,0.0-14.0-1.0-0.0,anomymised,6565831db6b8903cc398def3,656766cfd6c8129a83135949,16254,2C,woman,NA,NA,M4 is being shouted at by W2,shout4,rating_causation,"{""Q0"":6}",[0],W2 shouted at M4 first,M4 shouted at W2 first
3335.0999999999767,NA,NA,NA,NA,survey-likert-extra-labels,30,157179,0.0-14.0-2.0,anomymised,6565831db6b8903cc398def3,656766cfd6c8129a83135949,16254,2C,woman,NA,NA,M4 is being shouted at by W2,shout4,rating_volition,"{""Q0"":6}",[0],W2 wanted to shout at M4,M4 wanted to shout at W2
null,Kate is being greeted by Ruth,NA,NA,NA,html-keyboard-response,31,159184,0.0-15.0-0.0,anomymised,6565831db6b8903cc398def3,656766cfd6c8129a83135949,16254,2C,woman,NA,null,W2 is being greeted by W4,greet1,sentence,NA,NA,NA,NA
16018.899999999907,NA,NA,NA,NA,survey-likert-extra-labels,32,175207,0.0-15.0-1.0-0.0,anomymised,6565831db6b8903cc398def3,656766cfd6c8129a83135949,16254,2C,woman,NA,NA,W2 is being greeted by W4,greet1,rating_causation,"{""Q0"":6}",[0],W2 started greeting W4 first,W4 started greeting W2 first
5876.70000000007,NA,NA,NA,NA,survey-likert-extra-labels,33,181090,0.0-15.0-2.0,anomymised,6565831db6b8903cc398def3,656766cfd6c8129a83135949,16254,2C,woman,NA,NA,W2 is being greeted by W4,greet1,rating_volition,"{""Q0"":0}",[0],W2 wanted to greet W4,W4 wanted to greet W2
null,Ruth is being challenged by Kate,NA,NA,NA,html-keyboard-response,34,183095,0.0-16.0-0.0,anomymised,6565831db6b8903cc398def3,656766cfd6c8129a83135949,16254,2C,woman,NA,null,W4 is being challenged by W2,challenge1,sentence,NA,NA,NA,NA
6571.599999999977,NA,NA,NA,NA,survey-likert-extra-labels,35,189671,0.0-16.0-2.0,anomymised,6565831db6b8903cc398def3,656766cfd6c8129a83135949,16254,2C,woman,NA,NA,W4 is being challenged by W2,challenge1,rating_volition,"{""Q0"":0}",[0],W2 wanted to challenge W4,W4 wanted to challenge W2
3347,NA,NA,NA,NA,survey-likert-extra-labels,36,193025,0.0-16.0-3.0-0.0,anomymised,6565831db6b8903cc398def3,656766cfd6c8129a83135949,16254,2C,woman,NA,NA,W4 is being challenged by W2,challenge1,rating_causation,"{""Q0"":0}",[0],W2 started challenging W4 first,W4 started challenging W2 first
null,Mike is being seduced by Dave,NA,NA,NA,html-keyboard-response,37,195029,0.0-17.0-0.0,anomymised,6565831db6b8903cc398def3,656766cfd6c8129a83135949,16254,2C,woman,NA,null,M4 is being seduced by M2,seduce2,sentence,NA,NA,NA,NA
4689.699999999953,NA,NA,NA,NA,survey-likert-extra-labels,38,199722,0.0-17.0-2.0,anomymised,6565831db6b8903cc398def3,656766cfd6c8129a83135949,16254,2C,woman,NA,NA,M4 is being seduced by M2,seduce2,rating_volition,"{""Q0"":0}",[0],M2 wanted to seduce M4,M4 wanted to seduce M2
3317.6999999999534,NA,NA,NA,NA,survey-likert-extra-labels,39,203046,0.0-17.0-3.0-0.0,anomymised,6565831db6b8903cc398def3,656766cfd6c8129a83135949,16254,2C,woman,NA,NA,M4 is being seduced by M2,seduce2,rating_causation,"{""Q0"":0}",[0],M2 started seducing M4 first,M4 started seducing M2 first
null,Jane is being shouted at by Beth,NA,NA,NA,html-keyboard-response,40,205049,0.0-18.0-0.0,anomymised,6565831db6b8903cc398def3,656766cfd6c8129a83135949,16254,2C,woman,NA,null,W3 is being shouted at by W1,shout1,sentence,NA,NA,NA,NA
4468.5,NA,NA,NA,NA,survey-likert-extra-labels,41,209521,0.0-18.0-2.0,anomymised,6565831db6b8903cc398def3,656766cfd6c8129a83135949,16254,2C,woman,NA,NA,W3 is being shouted at by W1,shout1,rating_volition,"{""Q0"":0}",[0],W1 wanted to shout at W3,W3 wanted to shout at W1
2943.8000000000466,NA,NA,NA,NA,survey-likert-extra-labels,42,212471,0.0-18.0-3.0-0.0,anomymised,6565831db6b8903cc398def3,656766cfd6c8129a83135949,16254,2C,woman,NA,NA,W3 is being shouted at by W1,shout1,rating_causation,"{""Q0"":0}",[0],W1 shouted at W3 first,W3 shouted at W1 first
null,Ruth is being seduced by Kate,NA,NA,NA,html-keyboard-response,43,214475,0.0-19.0-0.0,anomymised,6565831db6b8903cc398def3,656766cfd6c8129a83135949,16254,2C,woman,NA,null,W4 is being seduced by W2,seduce1,sentence,NA,NA,NA,NA
3061.1999999999534,NA,NA,NA,NA,survey-likert-extra-labels,44,217540,0.0-19.0-2.0,anomymised,6565831db6b8903cc398def3,656766cfd6c8129a83135949,16254,2C,woman,NA,NA,W4 is being seduced by W2,seduce1,rating_volition,"{""Q0"":0}",[0],W2 wanted to seduce W4,W4 wanted to seduce W2
2843.3000000000466,NA,NA,NA,NA,survey-likert-extra-labels,45,220390,0.0-19.0-3.0-0.0,anomymised,6565831db6b8903cc398def3,656766cfd6c8129a83135949,16254,2C,woman,NA,NA,W4 is being seduced by W2,seduce1,rating_causation,"{""Q0"":0}",[0],W2 started seducing W4 first,W4 started seducing W2 first
null,Beth is being looked at by Jane,NA,NA,NA,html-keyboard-response,46,222393,0.0-20.0-0.0,anomymised,6565831db6b8903cc398def3,656766cfd6c8129a83135949,16254,2C,woman,NA,null,W1 is being looked at by W3,look1,sentence,NA,NA,NA,NA
3986,NA,NA,NA,NA,survey-likert-extra-labels,47,226383,0.0-20.0-2.0,anomymised,6565831db6b8903cc398def3,656766cfd6c8129a83135949,16254,2C,woman,NA,NA,W1 is being looked at by W3,look1,rating_volition,"{""Q0"":6}",[0],W1 wanted to look at W3,W3 wanted to look at W1
4634.599999999977,NA,NA,NA,NA,survey-likert-extra-labels,48,231024,0.0-20.0-3.0-0.0,anomymised,6565831db6b8903cc398def3,656766cfd6c8129a83135949,16254,2C,woman,NA,NA,W1 is being looked at by W3,look1,rating_causation,"{""Q0"":6}",[0],W1 looked at W3 first,W3 looked at W1 first
null,Ruth is being shouted at by Dave,NA,NA,NA,html-keyboard-response,49,233029,0.0-21.0-0.0,anomymised,6565831db6b8903cc398def3,656766cfd6c8129a83135949,16254,2C,woman,NA,null,W4 is being shouted at by M2,shout3,sentence,NA,NA,NA,NA
4791.899999999907,NA,NA,NA,NA,survey-likert-extra-labels,50,237823,0.0-21.0-1.0-0.0,anomymised,6565831db6b8903cc398def3,656766cfd6c8129a83135949,16254,2C,woman,NA,NA,W4 is being shouted at by M2,shout3,rating_causation,"{""Q0"":0}",[0],M2 shouted at W4 first,W4 shouted at M2 first
2573.9000000000233,NA,NA,NA,NA,survey-likert-extra-labels,51,240400,0.0-21.0-2.0,anomymised,6565831db6b8903cc398def3,656766cfd6c8129a83135949,16254,2C,woman,NA,NA,W4 is being shouted at by M2,shout3,rating_volition,"{""Q0"":0}",[0],M2 wanted to shout at W4,W4 wanted to shout at M2
null,Jane is being greeted by Fred,NA,NA,NA,html-keyboard-response,52,242404,0.0-22.0-0.0,anomymised,6565831db6b8903cc398def3,656766cfd6c8129a83135949,16254,2C,woman,NA,null,W3 is being greeted by M1,greet4,sentence,NA,NA,NA,NA
4102.399999999907,NA,NA,NA,NA,survey-likert-extra-labels,53,246510,0.0-22.0-2.0,anomymised,6565831db6b8903cc398def3,656766cfd6c8129a83135949,16254,2C,woman,NA,NA,W3 is being greeted by M1,greet4,rating_volition,"{""Q0"":6}",[0],W3 wanted to greet M1,M1 wanted to greet W3
3098.6999999999534,NA,NA,NA,NA,survey-likert-extra-labels,54,249614,0.0-22.0-3.0-0.0,anomymised,6565831db6b8903cc398def3,656766cfd6c8129a83135949,16254,2C,woman,NA,NA,W3 is being greeted by M1,greet4,rating_causation,"{""Q0"":6}",[0],W3 started greeting M1 first,M1 started greeting W3 first
null,Kate is teaching Mike,NA,NA,NA,html-keyboard-response,55,251618,0.0-23.0-0.0,anomymised,6565831db6b8903cc398def3,656766cfd6c8129a83135949,16254,2C,woman,NA,null,W2 is teaching M4,teach,sentence,NA,NA,NA,NA
6541.100000000093,NA,NA,NA,NA,survey-likert-extra-labels,56,258163,0.0-23.0-1.0-0.0,anomymised,6565831db6b8903cc398def3,656766cfd6c8129a83135949,16254,2C,woman,NA,NA,W2 is teaching M4,teach,rating_causation,"{""Q0"":6}",[0],W2 is learning from M4,M4 is learning from W2
6428.90000000014,NA,NA,NA,NA,survey-likert-extra-labels,57,264598,0.0-23.0-2.0,anomymised,6565831db6b8903cc398def3,656766cfd6c8129a83135949,16254,2C,woman,NA,NA,W2 is teaching M4,teach,rating_volition,"{""Q0"":0}",[0],W2 is educating M4,M4 is educating W2
null,Mike is being challenged by Dave,NA,NA,NA,html-keyboard-response,58,266604,0.0-24.0-0.0,anomymised,6565831db6b8903cc398def3,656766cfd6c8129a83135949,16254,2C,woman,NA,null,M4 is being challenged by M2,challenge2,sentence,NA,NA,NA,NA
6725.199999999953,NA,NA,NA,NA,survey-likert-extra-labels,59,273333,0.0-24.0-1.0-0.0,anomymised,6565831db6b8903cc398def3,656766cfd6c8129a83135949,16254,2C,woman,NA,NA,M4 is being challenged by M2,challenge2,rating_causation,"{""Q0"":0}",[0],M2 started challenging M4 first,M4 started challenging M2 first
3889.1999999999534,NA,NA,NA,NA,survey-likert-extra-labels,60,277229,0.0-24.0-2.0,anomymised,6565831db6b8903cc398def3,656766cfd6c8129a83135949,16254,2C,woman,NA,NA,M4 is being challenged by M2,challenge2,rating_volition,"{""Q0"":0}",[0],M2 wanted to challenge M4,M4 wanted to challenge M2
null,Luke is being greeted by Beth,NA,NA,NA,html-keyboard-response,61,279232,0.0-25.0-0.0,anomymised,6565831db6b8903cc398def3,656766cfd6c8129a83135949,16254,2C,woman,NA,null,M3 is being greeted by W1,greet3,sentence,NA,NA,NA,NA
3931.6999999999534,NA,NA,NA,NA,survey-likert-extra-labels,62,283168,0.0-25.0-2.0,anomymised,6565831db6b8903cc398def3,656766cfd6c8129a83135949,16254,2C,woman,NA,NA,M3 is being greeted by W1,greet3,rating_volition,"{""Q0"":0}",[0],M3 wanted to greet W1,W1 wanted to greet M3
5534.40000000014,NA,NA,NA,NA,survey-likert-extra-labels,63,288708,0.0-25.0-3.0-0.0,anomymised,6565831db6b8903cc398def3,656766cfd6c8129a83135949,16254,2C,woman,NA,NA,M3 is being greeted by W1,greet3,rating_causation,"{""Q0"":6}",[0],M3 started greeting W1 first,W1 started greeting M3 first
null,Mike is being touched by Dave,NA,NA,NA,html-keyboard-response,64,290715,0.0-26.0-0.0,anomymised,6565831db6b8903cc398def3,656766cfd6c8129a83135949,16254,2C,woman,NA,null,M4 is being touched by M2,touch2,sentence,NA,NA,NA,NA
4363.90000000014,NA,NA,NA,NA,survey-likert-extra-labels,65,295082,0.0-26.0-2.0,anomymised,6565831db6b8903cc398def3,656766cfd6c8129a83135949,16254,2C,woman,NA,NA,M4 is being touched by M2,touch2,rating_volition,"{""Q0"":6}",[0],M2 wanted to touch M4,M4 wanted to touch M2
7492.600000000093,NA,NA,NA,NA,survey-likert-extra-labels,66,302581,0.0-26.0-3.0-0.0,anomymised,6565831db6b8903cc398def3,656766cfd6c8129a83135949,16254,2C,woman,NA,NA,M4 is being touched by M2,touch2,rating_causation,"{""Q0"":6}",[0],M2 asked to touch M4,M4 asked to touch M2
null,Mike is being opposed by Kate,NA,NA,NA,html-keyboard-response,67,304587,0.0-27.0-0.0,anomymised,6565831db6b8903cc398def3,656766cfd6c8129a83135949,16254,2C,woman,NA,null,M4 is being opposed by W2,oppose3,sentence,NA,NA,NA,NA
8279.899999999907,NA,NA,NA,NA,survey-likert-extra-labels,68,312870,0.0-27.0-1.0-0.0,anomymised,6565831db6b8903cc398def3,656766cfd6c8129a83135949,16254,2C,woman,NA,NA,M4 is being opposed by W2,oppose3,rating_causation,"{""Q0"":0}",[0],W2 started opposing M4,M4 started opposing W2
5661.399999999907,NA,NA,NA,NA,survey-likert-extra-labels,69,318535,0.0-27.0-2.0,anomymised,6565831db6b8903cc398def3,656766cfd6c8129a83135949,16254,2C,woman,NA,NA,M4 is being opposed by W2,oppose3,rating_volition,"{""Q0"":0}",[0],W2 wanted to oppose M4,M4 wanted to oppose W2
null,Dave is posing for Mike,NA,NA,NA,html-keyboard-response,70,320538,0.0-28.0-0.0,anomymised,6565831db6b8903cc398def3,656766cfd6c8129a83135949,16254,2C,woman,NA,null,M2 is posing for M4,pose,sentence,NA,NA,NA,NA
9226.300000000047,NA,NA,NA,NA,survey-likert-extra-labels,71,329768,0.0-28.0-1.0-0.0,anomymised,6565831db6b8903cc398def3,656766cfd6c8129a83135949,16254,2C,woman,NA,NA,M2 is posing for M4,pose,rating_causation,"{""Q0"":6}",[0],M2 is photographing M4,M4 is photographing M2
6714.300000000047,NA,NA,NA,NA,survey-likert-extra-labels,72,336489,0.0-28.0-2.0,anomymised,6565831db6b8903cc398def3,656766cfd6c8129a83135949,16254,2C,woman,NA,NA,M2 is posing for M4,pose,rating_volition,"{""Q0"":0}",[0],M2 is modelling for M4,M4 is modelling for M2
null,Luke is being hugged by Fred,NA,NA,NA,html-keyboard-response,73,338495,0.0-29.0-0.0,anomymised,6565831db6b8903cc398def3,656766cfd6c8129a83135949,16254,2C,woman,NA,null,M3 is being hugged by M1,hug2,sentence,NA,NA,NA,NA
6846.299999999814,NA,NA,NA,NA,survey-likert-extra-labels,74,345345,0.0-29.0-1.0-0.0,anomymised,6565831db6b8903cc398def3,656766cfd6c8129a83135949,16254,2C,woman,NA,NA,M3 is being hugged by M1,hug2,rating_causation,"{""Q0"":0}",[0],M1 asked to hug M3,M3 asked to hug M1
5650.199999999953,NA,NA,NA,NA,survey-likert-extra-labels,75,351001,0.0-29.0-2.0,anomymised,6565831db6b8903cc398def3,656766cfd6c8129a83135949,16254,2C,woman,NA,NA,M3 is being hugged by M1,hug2,rating_volition,"{""Q0"":0}",[0],M1 wanted to hug M3,M3 wanted to hug M1
null,Kate is carrying Ruth,NA,NA,NA,html-keyboard-response,76,353006,0.0-30.0-0.0,anomymised,6565831db6b8903cc398def3,656766cfd6c8129a83135949,16254,2C,woman,NA,null,W2 is carrying W4,carry,sentence,NA,NA,NA,NA
8368.700000000186,NA,NA,NA,NA,survey-likert-extra-labels,77,361379,0.0-30.0-1.0-0.0,anomymised,6565831db6b8903cc398def3,656766cfd6c8129a83135949,16254,2C,woman,NA,NA,W2 is carrying W4,carry,rating_causation,"{""Q0"":6}",[0],W2 is being moved by W4,W4 is being moved by W2
4789,NA,NA,NA,NA,survey-likert-extra-labels,78,366175,0.0-30.0-2.0,anomymised,6565831db6b8903cc398def3,656766cfd6c8129a83135949,16254,2C,woman,NA,NA,W2 is carrying W4,carry,rating_volition,"{""Q0"":0}",[0],W2 is transporting W4,W4 is transporting W2
null,Ruth is being touched by Kate,NA,NA,NA,html-keyboard-response,79,368181,0.0-31.0-0.0,anomymised,6565831db6b8903cc398def3,656766cfd6c8129a83135949,16254,2C,woman,NA,null,W4 is being touched by W2,touch1,sentence,NA,NA,NA,NA
6194.100000000093,NA,NA,NA,NA,survey-likert-extra-labels,80,374379,0.0-31.0-1.0-0.0,anomymised,6565831db6b8903cc398def3,656766cfd6c8129a83135949,16254,2C,woman,NA,NA,W4 is being touched by W2,touch1,rating_causation,"{""Q0"":0}",[0],W2 asked to touch W4,W4 asked to touch W2
4562.199999999953,NA,NA,NA,NA,survey-likert-extra-labels,81,378948,0.0-31.0-2.0,anomymised,6565831db6b8903cc398def3,656766cfd6c8129a83135949,16254,2C,woman,NA,NA,W4 is being touched by W2,touch1,rating_volition,"{""Q0"":0}",[0],W2 wanted to touch W4,W4 wanted to touch W2
null,Kate is being looked at by Mike,NA,NA,NA,html-keyboard-response,82,380953,0.0-32.0-0.0,anomymised,6565831db6b8903cc398def3,656766cfd6c8129a83135949,16254,2C,woman,NA,null,W2 is being looked at by M4,look3,sentence,NA,NA,NA,NA
5001.699999999953,NA,NA,NA,NA,survey-likert-extra-labels,83,385958,0.0-32.0-1.0-0.0,anomymised,6565831db6b8903cc398def3,656766cfd6c8129a83135949,16254,2C,woman,NA,NA,W2 is being looked at by M4,look3,rating_causation,"{""Q0"":6}",[0],W2 looked at M4 first,M4 looked at W2 first
3718.0999999998603,NA,NA,NA,NA,survey-likert-extra-labels,84,389683,0.0-32.0-2.0,anomymised,6565831db6b8903cc398def3,656766cfd6c8129a83135949,16254,2C,woman,NA,NA,W2 is being looked at by M4,look3,rating_volition,"{""Q0"":6}",[0],W2 wanted to look at M4,M4 wanted to look at W2
null,Beth is chasing Jane,NA,NA,NA,html-keyboard-response,85,391687,0.0-33.0-0.0,anomymised,6565831db6b8903cc398def3,656766cfd6c8129a83135949,16254,2C,woman,NA,null,W1 is chasing W3,chase,sentence,NA,NA,NA,NA
6227.699999999953,NA,NA,NA,NA,survey-likert-extra-labels,86,397918,0.0-33.0-1.0-0.0,anomymised,6565831db6b8903cc398def3,656766cfd6c8129a83135949,16254,2C,woman,NA,NA,W1 is chasing W3,chase,rating_causation,"{""Q0"":6}",[0],W1 is running away from W3,W3 is running away from W1
10193.200000000186,NA,NA,NA,NA,survey-likert-extra-labels,87,408118,0.0-33.0-2.0,anomymised,6565831db6b8903cc398def3,656766cfd6c8129a83135949,16254,2C,woman,NA,NA,W1 is chasing W3,chase,rating_volition,"{""Q0"":0}",[0],W1 is behind W3,W3 is behind W1
null,Fred is being challenged by Jane,NA,NA,NA,html-keyboard-response,88,410123,0.0-34.0-0.0,anomymised,6565831db6b8903cc398def3,656766cfd6c8129a83135949,16254,2C,woman,NA,null,M1 is being challenged by W3,challenge4,sentence,NA,NA,NA,NA
7112.199999999953,NA,NA,NA,NA,survey-likert-extra-labels,89,417238,0.0-34.0-2.0,anomymised,6565831db6b8903cc398def3,656766cfd6c8129a83135949,16254,2C,woman,NA,NA,M1 is being challenged by W3,challenge4,rating_volition,"{""Q0"":0}",[0],W3 wanted to challenge M1,M1 wanted to challenge W3
8227.300000000047,NA,NA,NA,NA,survey-likert-extra-labels,90,425472,0.0-34.0-3.0-0.0,anomymised,6565831db6b8903cc398def3,656766cfd6c8129a83135949,16254,2C,woman,NA,NA,M1 is being challenged by W3,challenge4,rating_causation,"{""Q0"":0}",[0],W3 started challenging M1 first,M1 started challenging W3 first
null,Ruth is being opposed by Dave,NA,NA,NA,html-keyboard-response,91,427487,0.0-35.0-0.0,anomymised,6565831db6b8903cc398def3,656766cfd6c8129a83135949,16254,2C,woman,NA,null,W4 is being opposed by M2,oppose4,sentence,NA,NA,NA,NA
6125.399999999907,NA,NA,NA,NA,survey-likert-extra-labels,92,433615,0.0-35.0-1.0-0.0,anomymised,6565831db6b8903cc398def3,656766cfd6c8129a83135949,16254,2C,woman,NA,NA,W4 is being opposed by M2,oppose4,rating_causation,"{""Q0"":0}",[0],M2 started opposing W4,W4 started opposing M2
3824.8000000000466,NA,NA,NA,NA,survey-likert-extra-labels,93,437449,0.0-35.0-2.0,anomymised,6565831db6b8903cc398def3,656766cfd6c8129a83135949,16254,2C,woman,NA,NA,W4 is being opposed by M2,oppose4,rating_volition,"{""Q0"":0}",[0],M2 wanted to oppose W4,W4 wanted to oppose M2
null,Fred is being looked at by Luke,NA,NA,NA,html-keyboard-response,94,439454,0.0-36.0-0.0,anomymised,6565831db6b8903cc398def3,656766cfd6c8129a83135949,16254,2C,woman,NA,null,M1 is being looked at by M3,look2,sentence,NA,NA,NA,NA
6005.300000000047,NA,NA,NA,NA,survey-likert-extra-labels,95,445462,0.0-36.0-2.0,anomymised,6565831db6b8903cc398def3,656766cfd6c8129a83135949,16254,2C,woman,NA,NA,M1 is being looked at by M3,look2,rating_volition,"{""Q0"":6}",[0],M1 wanted to look at M3,M3 wanted to look at M1
4187,NA,NA,NA,NA,survey-likert-extra-labels,96,449652,0.0-36.0-3.0-0.0,anomymised,6565831db6b8903cc398def3,656766cfd6c8129a83135949,16254,2C,woman,NA,NA,M1 is being looked at by M3,look2,rating_causation,"{""Q0"":6}",[0],M1 looked at M3 first,M3 looked at M1 first
null,Fred is driving Luke,NA,NA,NA,html-keyboard-response,97,451654,0.0-37.0-0.0,anomymised,6565831db6b8903cc398def3,656766cfd6c8129a83135949,16254,2C,woman,NA,null,M1 is driving M3,drive,sentence,NA,NA,NA,NA
5096.700000000186,NA,NA,NA,NA,survey-likert-extra-labels,98,456755,0.0-37.0-2.0,anomymised,6565831db6b8903cc398def3,656766cfd6c8129a83135949,16254,2C,woman,NA,NA,M1 is driving M3,drive,rating_volition,"{""Q0"":6}",[0],M1 is M3's passenger,M3 is M1's passenger
6511.40000000014,NA,NA,NA,NA,survey-likert-extra-labels,99,463273,0.0-37.0-3.0-0.0,anomymised,6565831db6b8903cc398def3,656766cfd6c8129a83135949,16254,2C,woman,NA,NA,M1 is driving M3,drive,rating_causation,"{""Q0"":0}",[0],M1 is taking M3 somewhere,M3 is taking M1 somewhere
null,Fred is being kissed by Luke,NA,NA,NA,html-keyboard-response,100,465279,0.0-38.0-0.0,anomymised,6565831db6b8903cc398def3,656766cfd6c8129a83135949,16254,2C,woman,NA,null,M1 is being kissed by M3,kiss2,sentence,NA,NA,NA,NA
4144,NA,NA,NA,NA,survey-likert-extra-labels,101,469426,0.0-38.0-1.0-0.0,anomymised,6565831db6b8903cc398def3,656766cfd6c8129a83135949,16254,2C,woman,NA,NA,M1 is being kissed by M3,kiss2,rating_causation,"{""Q0"":6}",[0],M1 asked to kiss M3,M3 asked to kiss M1
4261.399999999907,NA,NA,NA,NA,survey-likert-extra-labels,102,473694,0.0-38.0-2.0,anomymised,6565831db6b8903cc398def3,656766cfd6c8129a83135949,16254,2C,woman,NA,NA,M1 is being kissed by M3,kiss2,rating_volition,"{""Q0"":6}",[0],M1 wanted to kiss M3,M3 wanted to kiss M1
null,Luke is being copied by Beth,NA,NA,NA,html-keyboard-response,103,475700,0.0-39.0-0.0,anomymised,6565831db6b8903cc398def3,656766cfd6c8129a83135949,16254,2C,woman,NA,null,M3 is being copied by W1,copy4,sentence,NA,NA,NA,NA
4525.200000000186,NA,NA,NA,NA,survey-likert-extra-labels,104,480228,0.0-39.0-2.0,anomymised,6565831db6b8903cc398def3,656766cfd6c8129a83135949,16254,2C,woman,NA,NA,M3 is being copied by W1,copy4,rating_volition,"{""Q0"":6}",[0],M3 wanted to copy W1,W1 wanted to copy M3
5541.600000000093,NA,NA,NA,NA,survey-likert-extra-labels,105,485776,0.0-39.0-3.0-0.0,anomymised,6565831db6b8903cc398def3,656766cfd6c8129a83135949,16254,2C,woman,NA,NA,M3 is being copied by W1,copy4,rating_causation,"{""Q0"":6}",[0],M3 started copying W1 first,W1 started copying M3 first
null,Kate is being kissed by Mike,NA,NA,NA,html-keyboard-response,106,487781,0.0-40.0-0.0,anomymised,6565831db6b8903cc398def3,656766cfd6c8129a83135949,16254,2C,woman,NA,null,W2 is being kissed by M4,kiss4,sentence,NA,NA,NA,NA
3525.600000000093,NA,NA,NA,NA,survey-likert-extra-labels,107,491310,0.0-40.0-1.0-0.0,anomymised,6565831db6b8903cc398def3,656766cfd6c8129a83135949,16254,2C,woman,NA,NA,W2 is being kissed by M4,kiss4,rating_causation,"{""Q0"":6}",[0],W2 asked to kiss M4,M4 asked to kiss W2
2693.5,NA,NA,NA,NA,survey-likert-extra-labels,108,494011,0.0-40.0-2.0,anomymised,6565831db6b8903cc398def3,656766cfd6c8129a83135949,16254,2C,woman,NA,NA,W2 is being kissed by M4,kiss4,rating_volition,"{""Q0"":6}",[0],W2 wanted to kiss M4,M4 wanted to kiss W2
null,Fred is being touched by Jane,NA,NA,NA,html-keyboard-response,109,496015,0.0-41.0-0.0,anomymised,6565831db6b8903cc398def3,656766cfd6c8129a83135949,16254,2C,woman,NA,null,M1 is being touched by W3,touch3,sentence,NA,NA,NA,NA
3850.4000000001397,NA,NA,NA,NA,survey-likert-extra-labels,110,499870,0.0-41.0-2.0,anomymised,6565831db6b8903cc398def3,656766cfd6c8129a83135949,16254,2C,woman,NA,NA,M1 is being touched by W3,touch3,rating_volition,"{""Q0"":0}",[0],W3 wanted to touch M1,M1 wanted to touch W3
3532.399999999907,NA,NA,NA,NA,survey-likert-extra-labels,111,503408,0.0-41.0-3.0-0.0,anomymised,6565831db6b8903cc398def3,656766cfd6c8129a83135949,16254,2C,woman,NA,NA,M1 is being touched by W3,touch3,rating_causation,"{""Q0"":0}",[0],W3 asked to touch M1,M1 asked to touch W3
null,Beth is being challenged by Luke,NA,NA,NA,html-keyboard-response,112,505413,0.0-42.0-0.0,anomymised,6565831db6b8903cc398def3,656766cfd6c8129a83135949,16254,2C,woman,NA,null,W1 is being challenged by M3,challenge3,sentence,NA,NA,NA,NA
4020.899999999907,NA,NA,NA,NA,survey-likert-extra-labels,113,509436,0.0-42.0-1.0-0.0,anomymised,6565831db6b8903cc398def3,656766cfd6c8129a83135949,16254,2C,woman,NA,NA,W1 is being challenged by M3,challenge3,rating_causation,"{""Q0"":0}",[0],M3 started challenging W1 first,W1 started challenging M3 first
12730.5,NA,NA,NA,NA,survey-likert-extra-labels,114,522173,0.0-42.0-2.0,anomymised,6565831db6b8903cc398def3,656766cfd6c8129a83135949,16254,2C,woman,NA,NA,W1 is being challenged by M3,challenge3,rating_volition,"{""Q0"":0}",[0],M3 wanted to challenge W1,W1 wanted to challenge M3
null,Dave is reminding Ruth,NA,NA,NA,html-keyboard-response,115,524177,0.0-43.0-0.0,anomymised,6565831db6b8903cc398def3,656766cfd6c8129a83135949,16254,2C,woman,NA,null,M2 is reminding W4,remind,sentence,NA,NA,NA,NA
5448.299999999814,NA,NA,NA,NA,survey-likert-extra-labels,116,529629,0.0-43.0-2.0,anomymised,6565831db6b8903cc398def3,656766cfd6c8129a83135949,16254,2C,woman,NA,NA,M2 is reminding W4,remind,rating_volition,"{""Q0"":0}",[0],M2 is telling W4 again,W4 is telling M2 again
5333.699999999953,NA,NA,NA,NA,survey-likert-extra-labels,117,534969,0.0-43.0-3.0-0.0,anomymised,6565831db6b8903cc398def3,656766cfd6c8129a83135949,16254,2C,woman,NA,NA,M2 is reminding W4,remind,rating_causation,"{""Q0"":0}",[0],M2 is remembering,W4 is remembering
null,Jane is being opposed by Beth,NA,NA,NA,html-keyboard-response,118,536975,0.0-44.0-0.0,anomymised,6565831db6b8903cc398def3,656766cfd6c8129a83135949,16254,2C,woman,NA,null,W3 is being opposed by W1,oppose1,sentence,NA,NA,NA,NA
4298.59999999986,NA,NA,NA,NA,survey-likert-extra-labels,119,541277,0.0-44.0-2.0,anomymised,6565831db6b8903cc398def3,656766cfd6c8129a83135949,16254,2C,woman,NA,NA,W3 is being opposed by W1,oppose1,rating_volition,"{""Q0"":0}",[0],W1 wanted to oppose W3,W3 wanted to oppose W1
7029.199999999953,NA,NA,NA,NA,survey-likert-extra-labels,120,548312,0.0-44.0-3.0-0.0,anomymised,6565831db6b8903cc398def3,656766cfd6c8129a83135949,16254,2C,woman,NA,NA,W3 is being opposed by W1,oppose1,rating_causation,"{""Q0"":0}",[0],W1 started opposing W3,W3 started opposing W1
null,Beth is being seduced by Luke,NA,NA,NA,html-keyboard-response,121,550317,0.0-45.0-0.0,anomymised,6565831db6b8903cc398def3,656766cfd6c8129a83135949,16254,2C,woman,NA,null,W1 is being seduced by M3,seduce4,sentence,NA,NA,NA,NA
4027.3000000000466,NA,NA,NA,NA,survey-likert-extra-labels,122,554348,0.0-45.0-1.0-0.0,anomymised,6565831db6b8903cc398def3,656766cfd6c8129a83135949,16254,2C,woman,NA,NA,W1 is being seduced by M3,seduce4,rating_causation,"{""Q0"":0}",[0],M3 started seducing W1 first,W1 started seducing M3 first
3183.7999999998137,NA,NA,NA,NA,survey-likert-extra-labels,123,557538,0.0-45.0-2.0,anomymised,6565831db6b8903cc398def3,656766cfd6c8129a83135949,16254,2C,woman,NA,NA,W1 is being seduced by M3,seduce4,rating_volition,"{""Q0"":0}",[0],M3 wanted to seducing W1,W1 wanted to seducing M3
null,Jane is being hugged by Beth,NA,NA,NA,html-keyboard-response,124,559542,0.0-46.0-0.0,anomymised,6565831db6b8903cc398def3,656766cfd6c8129a83135949,16254,2C,woman,NA,null,W3 is being hugged by W1,hug1,sentence,NA,NA,NA,NA
6022.09999999986,NA,NA,NA,NA,survey-likert-extra-labels,125,565568,0.0-46.0-1.0-0.0,anomymised,6565831db6b8903cc398def3,656766cfd6c8129a83135949,16254,2C,woman,NA,NA,W3 is being hugged by W1,hug1,rating_causation,"{""Q0"":0}",[0],W1 asked to hug W3,W3 asked to hug W1
4943.199999999953,NA,NA,NA,NA,survey-likert-extra-labels,126,570519,0.0-46.0-2.0,anomymised,6565831db6b8903cc398def3,656766cfd6c8129a83135949,16254,2C,woman,NA,NA,W3 is being hugged by W1,hug1,rating_volition,"{""Q0"":0}",[0],W1 wanted to hug W3,W3 wanted to hug W1
null,Dave is being greeted by Mike,NA,NA,NA,html-keyboard-response,127,572526,0.0-47.0-0.0,anomymised,6565831db6b8903cc398def3,656766cfd6c8129a83135949,16254,2C,woman,NA,null,M2 is being greeted by M4,greet2,sentence,NA,NA,NA,NA
4854.899999999907,NA,NA,NA,NA,survey-likert-extra-labels,128,577385,0.0-47.0-1.0-0.0,anomymised,6565831db6b8903cc398def3,656766cfd6c8129a83135949,16254,2C,woman,NA,NA,M2 is being greeted by M4,greet2,rating_causation,"{""Q0"":6}",[0],M2 started greeting M4 first,M4 started greeting M2 first
3093.7000000001863,NA,NA,NA,NA,survey-likert-extra-labels,129,580487,0.0-47.0-2.0,anomymised,6565831db6b8903cc398def3,656766cfd6c8129a83135949,16254,2C,woman,NA,NA,M2 is being greeted by M4,greet2,rating_volition,"{""Q0"":6}",[0],M2 wanted to greet M4,M4 wanted to greet M2
null,Ruth is being hugged by Dave,NA,NA,NA,html-keyboard-response,130,582491,0.0-48.0-0.0,anomymised,6565831db6b8903cc398def3,656766cfd6c8129a83135949,16254,2C,woman,NA,null,W4 is being hugged by M2,hug4,sentence,NA,NA,NA,NA
4467,NA,NA,NA,NA,survey-likert-extra-labels,131,586963,0.0-48.0-1.0-0.0,anomymised,6565831db6b8903cc398def3,656766cfd6c8129a83135949,16254,2C,woman,NA,NA,W4 is being hugged by M2,hug4,rating_causation,"{""Q0"":0}",[0],M2 asked to hug W4,W4 asked to hug M2
3266.4000000001397,NA,NA,NA,NA,survey-likert-extra-labels,132,590236,0.0-48.0-2.0,anomymised,6565831db6b8903cc398def3,656766cfd6c8129a83135949,16254,2C,woman,NA,NA,W4 is being hugged by M2,hug4,rating_volition,"{""Q0"":0}",[0],M2 wanted to hug W4,W4 wanted to hug M2
null,Jane is feeding Fred,NA,NA,NA,html-keyboard-response,133,592240,0.0-49.0-0.0,anomymised,6565831db6b8903cc398def3,656766cfd6c8129a83135949,16254,2C,woman,NA,null,W3 is feeding M1,feed,sentence,NA,NA,NA,NA
4859.199999999953,NA,NA,NA,NA,survey-likert-extra-labels,134,597102,0.0-49.0-2.0,anomymised,6565831db6b8903cc398def3,656766cfd6c8129a83135949,16254,2C,woman,NA,NA,W3 is feeding M1,feed,rating_volition,"{""Q0"":0}",[0],W3 cooked for M1,M1 cooked for W3
3437.1999999999534,NA,NA,NA,NA,survey-likert-extra-labels,135,600547,0.0-49.0-3.0-0.0,anomymised,6565831db6b8903cc398def3,656766cfd6c8129a83135949,16254,2C,woman,NA,NA,W3 is feeding M1,feed,rating_causation,"{""Q0"":6}",[0],W3 is eating M1's food,M1 is eating W3's food
null,Mike is being hugged by Kate,NA,NA,NA,html-keyboard-response,136,602551,0.0-50.0-0.0,anomymised,6565831db6b8903cc398def3,656766cfd6c8129a83135949,16254,2C,woman,NA,null,M4 is being hugged by W2,hug3,sentence,NA,NA,NA,NA
5112.899999999907,NA,NA,NA,NA,survey-likert-extra-labels,137,607668,0.0-50.0-1.0-0.0,anomymised,6565831db6b8903cc398def3,656766cfd6c8129a83135949,16254,2C,woman,NA,NA,M4 is being hugged by W2,hug3,rating_causation,"{""Q0"":0}",[0],W2 asked to hug M4,M4 asked to hug W2
2716.100000000093,NA,NA,NA,NA,survey-likert-extra-labels,138,610390,0.0-50.0-2.0,anomymised,6565831db6b8903cc398def3,656766cfd6c8129a83135949,16254,2C,woman,NA,NA,M4 is being hugged by W2,hug3,rating_volition,"{""Q0"":0}",[0],W2 wanted to hug M4,M4 wanted to hug W2
null,Dave is being looked at by Ruth,NA,NA,NA,html-keyboard-response,139,612394,0.0-51.0-0.0,anomymised,6565831db6b8903cc398def3,656766cfd6c8129a83135949,16254,2C,woman,NA,null,M2 is being looked at by W4,look4,sentence,NA,NA,NA,NA
4337.800000000047,NA,NA,NA,NA,survey-likert-extra-labels,140,616735,0.0-51.0-2.0,anomymised,6565831db6b8903cc398def3,656766cfd6c8129a83135949,16254,2C,woman,NA,NA,M2 is being looked at by W4,look4,rating_volition,"{""Q0"":6}",[0],M2 wanted to look at W4,W4 wanted to look at M2
5649.299999999814,NA,NA,NA,NA,survey-likert-extra-labels,141,622390,0.0-51.0-3.0-0.0,anomymised,6565831db6b8903cc398def3,656766cfd6c8129a83135949,16254,2C,woman,NA,NA,M2 is being looked at by W4,look4,rating_causation,"{""Q0"":6}",[0],M2 looked at W4 first,W4 looked at M2 first
null,Fred is being seduced by Jane,NA,NA,NA,html-keyboard-response,142,624400,0.0-52.0-0.0,anomymised,6565831db6b8903cc398def3,656766cfd6c8129a83135949,16254,2C,woman,NA,null,M1 is being seduced by W3,seduce3,sentence,NA,NA,NA,NA
8901.300000000047,NA,NA,NA,NA,survey-likert-extra-labels,143,633305,0.0-52.0-1.0-0.0,anomymised,6565831db6b8903cc398def3,656766cfd6c8129a83135949,16254,2C,woman,NA,NA,M1 is being seduced by W3,seduce3,rating_causation,"{""Q0"":0}",[0],W3 started seducing M1 first,M1 started seducing W3 first
3456.2000000001863,NA,NA,NA,NA,survey-likert-extra-labels,144,636765,0.0-52.0-2.0,anomymised,6565831db6b8903cc398def3,656766cfd6c8129a83135949,16254,2C,woman,NA,NA,M1 is being seduced by W3,seduce3,rating_volition,"{""Q0"":0}",[0],W3 wanted to seduce M1,M1 wanted to seduce W3
null,Dave is being kissed by Ruth,NA,NA,NA,html-keyboard-response,145,638770,0.0-53.0-0.0,anomymised,6565831db6b8903cc398def3,656766cfd6c8129a83135949,16254,2C,woman,NA,null,M2 is being kissed by W4,kiss3,sentence,NA,NA,NA,NA
4188.800000000047,NA,NA,NA,NA,survey-likert-extra-labels,146,642962,0.0-53.0-1.0-0.0,anomymised,6565831db6b8903cc398def3,656766cfd6c8129a83135949,16254,2C,woman,NA,NA,M2 is being kissed by W4,kiss3,rating_causation,"{""Q0"":6}",[0],M2 asked to kiss W4,W4 asked to kiss M2
2451.600000000093,NA,NA,NA,NA,survey-likert-extra-labels,147,645421,0.0-53.0-2.0,anomymised,6565831db6b8903cc398def3,656766cfd6c8129a83135949,16254,2C,woman,NA,NA,M2 is being kissed by W4,kiss3,rating_volition,"{""Q0"":6}",[0],M2 wanted to kiss W4,W4 wanted to kiss M2
null,Beth is being touched by Luke,NA,NA,NA,html-keyboard-response,148,647425,0.0-54.0-0.0,anomymised,6565831db6b8903cc398def3,656766cfd6c8129a83135949,16254,2C,woman,NA,null,W1 is being touched by M3,touch4,sentence,NA,NA,NA,NA
4191.699999999953,NA,NA,NA,NA,survey-likert-extra-labels,149,651620,0.0-54.0-1.0-0.0,anomymised,6565831db6b8903cc398def3,656766cfd6c8129a83135949,16254,2C,woman,NA,NA,W1 is being touched by M3,touch4,rating_causation,"{""Q0"":0}",[0],M3 asked to touch W1,W1 asked to touch M3
3274.0999999998603,NA,NA,NA,NA,survey-likert-extra-labels,150,654900,0.0-54.0-2.0,anomymised,6565831db6b8903cc398def3,656766cfd6c8129a83135949,16254,2C,woman,NA,NA,W1 is being touched by M3,touch4,rating_volition,"{""Q0"":0}",[0],M3 wanted to touch W1,W1 wanted to touch M3
1971.6999999999534,<p>Thank you for completing that task.</p><p>The final part of this session is a short questionnaire.</p><p>Press Continue.</p>,0,Continue,Continue,html-button-response,151,656877,0.0-55.0,anomymised,6565831db6b8903cc398def3,656766cfd6c8129a83135949,16254,2C,woman,NA,NA,NA,NA,NA,NA,NA,NA,NA
32870.700000000186,NA,NA,NA,NA,survey-text,152,690766,0.0-56.0,anomymised,6565831db6b8903cc398def3,656766cfd6c8129a83135949,16254,2C,woman,NA,NA,NA,NA,demographics,"{""Q0"":""59"",""Q1"":""english"",""Q2"":""english"",""Q3"":""United Kingdom"",""Q4"":""english"",""Q5"":""white "",""Q6"":""female""}",NA,NA,NA
2616.5,<p>This is the last question - thank you for taking part! Have you lived in the UK for the last 5 years or more?</p>,0,"Yes,No",Yes,html-button-response,153,693385,0.0-57.0,anomymised,6565831db6b8903cc398def3,656766cfd6c8129a83135949,16254,2C,woman,NA,NA,NA,NA,fiveyears,NA,NA,NA,NA
