rt,stimulus,button_pressed,choices,ChosenStimulus,trial_type,trial_index,time_elapsed,internal_node_id,subject_id,study_id,session_id,subject,list,ppt_gender,url,key_press,sentence_type,verb,test_part,responses,question_order,left_part,right_part
56207,Welcome to the experiment. Press Continue to begin.,0,Continue,Continue,html-button-response,0,56210,0.0-0.0,anomymised,656580e591ab4d27a27b0c3d,6565f9233639c1a741be0236,17606,1B,man,NA,NA,NA,NA,NA,NA,NA,NA,NA
3302,NA,NA,NA,NA,external-html,1,60851,0.0-1.0,anomymised,656580e591ab4d27a27b0c3d,6565f9233639c1a741be0236,17606,1B,man,consent.html,NA,NA,NA,NA,NA,NA,NA,NA
12169,"<p>Welcome.</p><p>In this experiment we will ask you to imagine some situations.</p><p>Each trial starts with a description of an event.</p><p>Then you will see alternative descriptions of that event, and you will rate on a scale how best they match the original description.</p><p>You will give your answer by clicking a button on a rating scale.</p><p>To do this task, you will have to use your imagination to visualise these events.</p><br><p>Ready?</p>",0,Continue,Continue,html-button-response,2,73021,0.0-2.0,anomymised,656580e591ab4d27a27b0c3d,6565f9233639c1a741be0236,17606,1B,man,NA,NA,NA,NA,NA,NA,NA,NA,NA
2028,"<p>Before the experiment starts, you will watch an example trial. Press 'Continue'.</p>",0,Continue,Continue,html-button-response,3,76054,0.0-3.0,anomymised,656580e591ab4d27a27b0c3d,6565f9233639c1a741be0236,17606,1B,man,NA,NA,NA,NA,NA,NA,NA,NA,NA
null,The police officer is arresting the robber,NA,NA,NA,html-keyboard-response,4,79066,0.0-4.0,anomymised,656580e591ab4d27a27b0c3d,6565f9233639c1a741be0236,17606,1B,man,NA,null,NA,NA,NA,NA,NA,NA,NA
19570,<img src='img/Example-trial.jpg' style='height:550px;''></img>,0,Continue,Continue,html-button-response,5,98637,0.0-5.0,anomymised,656580e591ab4d27a27b0c3d,6565f9233639c1a741be0236,17606,1B,man,NA,NA,NA,NA,NA,NA,NA,NA,NA
2457,<p>Ready to start the experiment?</p><br><p><strong>Remember to give an answer by clicking a button on the rating scale.</strong></p><p>Press 'Continue' to begin.</p>,0,Continue,Continue,html-button-response,6,102099,0.0-6.0,anomymised,656580e591ab4d27a27b0c3d,6565f9233639c1a741be0236,17606,1B,man,NA,NA,NA,NA,NA,NA,NA,NA,NA
null,Jane is being challenged by Beth,NA,NA,NA,html-keyboard-response,7,105105,0.0-7.0-0.0,anomymised,656580e591ab4d27a27b0c3d,6565f9233639c1a741be0236,17606,1B,man,NA,null,W2 is being challenged by W4,challenge1,sentence,NA,NA,NA,NA
14439,NA,NA,NA,NA,survey-likert-extra-labels,8,119546,0.0-7.0-1.0-0.0,anomymised,656580e591ab4d27a27b0c3d,6565f9233639c1a741be0236,17606,1B,man,NA,NA,W2 is being challenged by W4,challenge1,rating_causation,"{""Q0"":0}",[0],W4 started challenging W2 first,W2 started challenging W4 first
9215,NA,NA,NA,NA,survey-likert-extra-labels,9,128763,0.0-7.0-2.0,anomymised,656580e591ab4d27a27b0c3d,6565f9233639c1a741be0236,17606,1B,man,NA,NA,W2 is being challenged by W4,challenge1,rating_volition,"{""Q0"":2}",[0],W4 wanted to challenge W2,W2 wanted to challenge W4
null,Luke is being greeted by Kate,NA,NA,NA,html-keyboard-response,10,130765,0.0-8.0-0.0,anomymised,656580e591ab4d27a27b0c3d,6565f9233639c1a741be0236,17606,1B,man,NA,null,M1 is being greeted by W3,greet4,sentence,NA,NA,NA,NA
8594,NA,NA,NA,NA,survey-likert-extra-labels,11,139360,0.0-8.0-1.0-0.0,anomymised,656580e591ab4d27a27b0c3d,6565f9233639c1a741be0236,17606,1B,man,NA,NA,M1 is being greeted by W3,greet4,rating_causation,"{""Q0"":6}",[0],M1 started greeting W3 first,W3 started greeting M1 first
2964,NA,NA,NA,NA,survey-likert-extra-labels,12,142326,0.0-8.0-2.0,anomymised,656580e591ab4d27a27b0c3d,6565f9233639c1a741be0236,17606,1B,man,NA,NA,M1 is being greeted by W3,greet4,rating_volition,"{""Q0"":6}",[0],M1 wanted to greet W3,W3 wanted to greet M1
null,Fred is being touched by Ruth,NA,NA,NA,html-keyboard-response,13,144335,0.0-9.0-0.0,anomymised,656580e591ab4d27a27b0c3d,6565f9233639c1a741be0236,17606,1B,man,NA,null,M3 is being touched by W1,touch4,sentence,NA,NA,NA,NA
9119,NA,NA,NA,NA,survey-likert-extra-labels,14,153455,0.0-9.0-2.0,anomymised,656580e591ab4d27a27b0c3d,6565f9233639c1a741be0236,17606,1B,man,NA,NA,M3 is being touched by W1,touch4,rating_volition,"{""Q0"":1}",[0],W1 wanted to touch M3,M3 wanted to touch W1
6062,NA,NA,NA,NA,survey-likert-extra-labels,15,159518,0.0-9.0-3.0-0.0,anomymised,656580e591ab4d27a27b0c3d,6565f9233639c1a741be0236,17606,1B,man,NA,NA,M3 is being touched by W1,touch4,rating_causation,"{""Q0"":3}",[0],W1 asked to touch M3,M3 asked to touch W1
null,Luke is being opposed by Fred,NA,NA,NA,html-keyboard-response,16,161525,0.0-10.0-0.0,anomymised,656580e591ab4d27a27b0c3d,6565f9233639c1a741be0236,17606,1B,man,NA,null,M1 is being opposed by M3,oppose2,sentence,NA,NA,NA,NA
11135,NA,NA,NA,NA,survey-likert-extra-labels,17,172661,0.0-10.0-2.0,anomymised,656580e591ab4d27a27b0c3d,6565f9233639c1a741be0236,17606,1B,man,NA,NA,M1 is being opposed by M3,oppose2,rating_volition,"{""Q0"":2}",[0],M3 wanted to oppose M1,M1 wanted to oppose M3
4987,NA,NA,NA,NA,survey-likert-extra-labels,18,177651,0.0-10.0-3.0-0.0,anomymised,656580e591ab4d27a27b0c3d,6565f9233639c1a741be0236,17606,1B,man,NA,NA,M1 is being opposed by M3,oppose2,rating_causation,"{""Q0"":0}",[0],M3 started opposing M1,M1 started opposing M3
null,Ruth is being hugged by Kate,NA,NA,NA,html-keyboard-response,19,179658,0.0-11.0-0.0,anomymised,656580e591ab4d27a27b0c3d,6565f9233639c1a741be0236,17606,1B,man,NA,null,W1 is being hugged by W3,hug1,sentence,NA,NA,NA,NA
4393,NA,NA,NA,NA,survey-likert-extra-labels,20,184052,0.0-11.0-1.0-0.0,anomymised,656580e591ab4d27a27b0c3d,6565f9233639c1a741be0236,17606,1B,man,NA,NA,W1 is being hugged by W3,hug1,rating_causation,"{""Q0"":3}",[0],W3 asked to hug W1,W1 asked to hug W3
6598,NA,NA,NA,NA,survey-likert-extra-labels,21,190652,0.0-11.0-2.0,anomymised,656580e591ab4d27a27b0c3d,6565f9233639c1a741be0236,17606,1B,man,NA,NA,W1 is being hugged by W3,hug1,rating_volition,"{""Q0"":0}",[0],W3 wanted to hug W1,W1 wanted to hug W3
null,Mike is being challenged by Dave,NA,NA,NA,html-keyboard-response,22,192660,0.0-12.0-0.0,anomymised,656580e591ab4d27a27b0c3d,6565f9233639c1a741be0236,17606,1B,man,NA,null,M2 is being challenged by M4,challenge2,sentence,NA,NA,NA,NA
6361,NA,NA,NA,NA,survey-likert-extra-labels,23,199022,0.0-12.0-1.0-0.0,anomymised,656580e591ab4d27a27b0c3d,6565f9233639c1a741be0236,17606,1B,man,NA,NA,M2 is being challenged by M4,challenge2,rating_causation,"{""Q0"":5}",[0],M4 started challenging M2 first,M2 started challenging M4 first
9484,NA,NA,NA,NA,survey-likert-extra-labels,24,208507,0.0-12.0-2.0,anomymised,656580e591ab4d27a27b0c3d,6565f9233639c1a741be0236,17606,1B,man,NA,NA,M2 is being challenged by M4,challenge2,rating_volition,"{""Q0"":2}",[0],M4 wanted to challenge M2,M2 wanted to challenge M4
null,Fred is being looked at by Luke,NA,NA,NA,html-keyboard-response,25,210520,0.0-13.0-0.0,anomymised,656580e591ab4d27a27b0c3d,6565f9233639c1a741be0236,17606,1B,man,NA,null,M3 is being looked at by M1,look2,sentence,NA,NA,NA,NA
8844,NA,NA,NA,NA,survey-likert-extra-labels,26,219366,0.0-13.0-1.0-0.0,anomymised,656580e591ab4d27a27b0c3d,6565f9233639c1a741be0236,17606,1B,man,NA,NA,M3 is being looked at by M1,look2,rating_causation,"{""Q0"":3}",[0],M3 looked at M1 first,M1 looked at M3 first
8307,NA,NA,NA,NA,survey-likert-extra-labels,27,227676,0.0-13.0-2.0,anomymised,656580e591ab4d27a27b0c3d,6565f9233639c1a741be0236,17606,1B,man,NA,NA,M3 is being looked at by M1,look2,rating_volition,"{""Q0"":5}",[0],M3 wanted to look at M1,M1 wanted to look at M3
null,Dave is being kissed by Jane,NA,NA,NA,html-keyboard-response,28,229681,0.0-14.0-0.0,anomymised,656580e591ab4d27a27b0c3d,6565f9233639c1a741be0236,17606,1B,man,NA,null,M4 is being kissed by W2,kiss4,sentence,NA,NA,NA,NA
3275,NA,NA,NA,NA,survey-likert-extra-labels,29,232958,0.0-14.0-1.0-0.0,anomymised,656580e591ab4d27a27b0c3d,6565f9233639c1a741be0236,17606,1B,man,NA,NA,M4 is being kissed by W2,kiss4,rating_causation,"{""Q0"":3}",[0],M4 asked to kiss W2,W2 asked to kiss M4
4914,NA,NA,NA,NA,survey-likert-extra-labels,30,237873,0.0-14.0-2.0,anomymised,656580e591ab4d27a27b0c3d,6565f9233639c1a741be0236,17606,1B,man,NA,NA,M4 is being kissed by W2,kiss4,rating_volition,"{""Q0"":6}",[0],M4 wanted to kiss W2,W2 wanted to kiss M4
null,Ruth is being greeted by Fred,NA,NA,NA,html-keyboard-response,31,239876,0.0-15.0-0.0,anomymised,656580e591ab4d27a27b0c3d,6565f9233639c1a741be0236,17606,1B,man,NA,null,W1 is being greeted by M3,greet3,sentence,NA,NA,NA,NA
4554,NA,NA,NA,NA,survey-likert-extra-labels,32,244431,0.0-15.0-2.0,anomymised,656580e591ab4d27a27b0c3d,6565f9233639c1a741be0236,17606,1B,man,NA,NA,W1 is being greeted by M3,greet3,rating_volition,"{""Q0"":6}",[0],W1 wanted to greet M3,M3 wanted to greet W1
5167,NA,NA,NA,NA,survey-likert-extra-labels,33,249599,0.0-15.0-3.0-0.0,anomymised,656580e591ab4d27a27b0c3d,6565f9233639c1a741be0236,17606,1B,man,NA,NA,W1 is being greeted by M3,greet3,rating_causation,"{""Q0"":5}",[0],W1 started greeting M3 first,M3 started greeting W1 first
null,Jane is being shouted at by Dave,NA,NA,NA,html-keyboard-response,34,251613,0.0-16.0-0.0,anomymised,656580e591ab4d27a27b0c3d,6565f9233639c1a741be0236,17606,1B,man,NA,null,W2 is being shouted at by M4,shout4,sentence,NA,NA,NA,NA
4247,NA,NA,NA,NA,survey-likert-extra-labels,35,255861,0.0-16.0-2.0,anomymised,656580e591ab4d27a27b0c3d,6565f9233639c1a741be0236,17606,1B,man,NA,NA,W2 is being shouted at by M4,shout4,rating_volition,"{""Q0"":2}",[0],M4 wanted to shout at W2,W2 wanted to shout at M4
10653,NA,NA,NA,NA,survey-likert-extra-labels,36,266517,0.0-16.0-3.0-0.0,anomymised,656580e591ab4d27a27b0c3d,6565f9233639c1a741be0236,17606,1B,man,NA,NA,W2 is being shouted at by M4,shout4,rating_causation,"{""Q0"":3}",[0],M4 shouted at W2 first,W2 shouted at M4 first
null,Mike is being opposed by Beth,NA,NA,NA,html-keyboard-response,37,268521,0.0-17.0-0.0,anomymised,656580e591ab4d27a27b0c3d,6565f9233639c1a741be0236,17606,1B,man,NA,null,M2 is being opposed by W4,oppose4,sentence,NA,NA,NA,NA
7580,NA,NA,NA,NA,survey-likert-extra-labels,38,276103,0.0-17.0-2.0,anomymised,656580e591ab4d27a27b0c3d,6565f9233639c1a741be0236,17606,1B,man,NA,NA,M2 is being opposed by W4,oppose4,rating_volition,"{""Q0"":2}",[0],W4 wanted to oppose M2,M2 wanted to oppose W4
6626,NA,NA,NA,NA,survey-likert-extra-labels,39,282730,0.0-17.0-3.0-0.0,anomymised,656580e591ab4d27a27b0c3d,6565f9233639c1a741be0236,17606,1B,man,NA,NA,M2 is being opposed by W4,oppose4,rating_causation,"{""Q0"":2}",[0],W4 started opposing M2,M2 started opposing W4
null,Kate is being touched by Luke,NA,NA,NA,html-keyboard-response,40,284732,0.0-18.0-0.0,anomymised,656580e591ab4d27a27b0c3d,6565f9233639c1a741be0236,17606,1B,man,NA,null,W3 is being touched by M1,touch3,sentence,NA,NA,NA,NA
2775,NA,NA,NA,NA,survey-likert-extra-labels,41,287508,0.0-18.0-1.0-0.0,anomymised,656580e591ab4d27a27b0c3d,6565f9233639c1a741be0236,17606,1B,man,NA,NA,W3 is being touched by M1,touch3,rating_causation,"{""Q0"":3}",[0],M1 asked to touch W3,W3 asked to touch M1
7009,NA,NA,NA,NA,survey-likert-extra-labels,42,294517,0.0-18.0-2.0,anomymised,656580e591ab4d27a27b0c3d,6565f9233639c1a741be0236,17606,1B,man,NA,NA,W3 is being touched by M1,touch3,rating_volition,"{""Q0"":0}",[0],M1 wanted to touch W3,W3 wanted to touch M1
null,Beth is being kissed by Mike,NA,NA,NA,html-keyboard-response,43,296520,0.0-19.0-0.0,anomymised,656580e591ab4d27a27b0c3d,6565f9233639c1a741be0236,17606,1B,man,NA,null,W4 is being kissed by M2,kiss3,sentence,NA,NA,NA,NA
2409,NA,NA,NA,NA,survey-likert-extra-labels,44,298930,0.0-19.0-1.0-0.0,anomymised,656580e591ab4d27a27b0c3d,6565f9233639c1a741be0236,17606,1B,man,NA,NA,W4 is being kissed by M2,kiss3,rating_causation,"{""Q0"":3}",[0],W4 asked to kiss M2,M2 asked to kiss W4
4333,NA,NA,NA,NA,survey-likert-extra-labels,45,303265,0.0-19.0-2.0,anomymised,656580e591ab4d27a27b0c3d,6565f9233639c1a741be0236,17606,1B,man,NA,NA,W4 is being kissed by M2,kiss3,rating_volition,"{""Q0"":6}",[0],W4 wanted to kiss M2,M2 wanted to kiss W4
null,Beth is being copied by Jane,NA,NA,NA,html-keyboard-response,46,305268,0.0-20.0-0.0,anomymised,656580e591ab4d27a27b0c3d,6565f9233639c1a741be0236,17606,1B,man,NA,null,W4 is being copied by W2,copy1,sentence,NA,NA,NA,NA
5067,NA,NA,NA,NA,survey-likert-extra-labels,47,310337,0.0-20.0-1.0-0.0,anomymised,656580e591ab4d27a27b0c3d,6565f9233639c1a741be0236,17606,1B,man,NA,NA,W4 is being copied by W2,copy1,rating_causation,"{""Q0"":3}",[0],W4 started copying W2 first,W2 started copying W4 first
4286,NA,NA,NA,NA,survey-likert-extra-labels,48,314625,0.0-20.0-2.0,anomymised,656580e591ab4d27a27b0c3d,6565f9233639c1a741be0236,17606,1B,man,NA,NA,W4 is being copied by W2,copy1,rating_volition,"{""Q0"":6}",[0],W4 wanted to copy W2,W2 wanted to copy W4
null,Jane is being seduced by Beth,NA,NA,NA,html-keyboard-response,49,316630,0.0-21.0-0.0,anomymised,656580e591ab4d27a27b0c3d,6565f9233639c1a741be0236,17606,1B,man,NA,null,W2 is being seduced by W4,seduce1,sentence,NA,NA,NA,NA
4901,NA,NA,NA,NA,survey-likert-extra-labels,50,321533,0.0-21.0-1.0-0.0,anomymised,656580e591ab4d27a27b0c3d,6565f9233639c1a741be0236,17606,1B,man,NA,NA,W2 is being seduced by W4,seduce1,rating_causation,"{""Q0"":3}",[0],W4 started seducing W2 first,W2 started seducing W4 first
5346,NA,NA,NA,NA,survey-likert-extra-labels,51,326879,0.0-21.0-2.0,anomymised,656580e591ab4d27a27b0c3d,6565f9233639c1a741be0236,17606,1B,man,NA,NA,W2 is being seduced by W4,seduce1,rating_volition,"{""Q0"":0}",[0],W4 wanted to seduce W2,W2 wanted to seduce W4
null,Dave is being greeted by Mike,NA,NA,NA,html-keyboard-response,52,328884,0.0-22.0-0.0,anomymised,656580e591ab4d27a27b0c3d,6565f9233639c1a741be0236,17606,1B,man,NA,null,M4 is being greeted by M2,greet2,sentence,NA,NA,NA,NA
4531,NA,NA,NA,NA,survey-likert-extra-labels,53,333415,0.0-22.0-2.0,anomymised,656580e591ab4d27a27b0c3d,6565f9233639c1a741be0236,17606,1B,man,NA,NA,M4 is being greeted by M2,greet2,rating_volition,"{""Q0"":5}",[0],M4 wanted to greet M2,M2 wanted to greet M4
3753,NA,NA,NA,NA,survey-likert-extra-labels,54,337171,0.0-22.0-3.0-0.0,anomymised,656580e591ab4d27a27b0c3d,6565f9233639c1a741be0236,17606,1B,man,NA,NA,M4 is being greeted by M2,greet2,rating_causation,"{""Q0"":6}",[0],M4 started greeting M2 first,M2 started greeting M4 first
null,Fred is hiring Ruth,NA,NA,NA,html-keyboard-response,55,339183,0.0-23.0-0.0,anomymised,656580e591ab4d27a27b0c3d,6565f9233639c1a741be0236,17606,1B,man,NA,null,M3 is hiring W1,hire,sentence,NA,NA,NA,NA
6402,NA,NA,NA,NA,survey-likert-extra-labels,56,345587,0.0-23.0-1.0-0.0,anomymised,656580e591ab4d27a27b0c3d,6565f9233639c1a741be0236,17606,1B,man,NA,NA,M3 is hiring W1,hire,rating_causation,"{""Q0"":5}",[0],M3 will work for W1,W1 will work for M3
11120,NA,NA,NA,NA,survey-likert-extra-labels,57,356709,0.0-23.0-2.0,anomymised,656580e591ab4d27a27b0c3d,6565f9233639c1a741be0236,17606,1B,man,NA,NA,M3 is hiring W1,hire,rating_volition,"{""Q0"":0}",[0],M3 is employing W1,W1 is employing M3
null,Jane is carrying Beth,NA,NA,NA,html-keyboard-response,58,358711,0.0-24.0-0.0,anomymised,656580e591ab4d27a27b0c3d,6565f9233639c1a741be0236,17606,1B,man,NA,null,W2 is carrying W4,carry,sentence,NA,NA,NA,NA
10227,NA,NA,NA,NA,survey-likert-extra-labels,59,368939,0.0-24.0-1.0-0.0,anomymised,656580e591ab4d27a27b0c3d,6565f9233639c1a741be0236,17606,1B,man,NA,NA,W2 is carrying W4,carry,rating_causation,"{""Q0"":5}",[0],W2 is being moved by W4,W4 is being moved by W2
7218,NA,NA,NA,NA,survey-likert-extra-labels,60,376159,0.0-24.0-2.0,anomymised,656580e591ab4d27a27b0c3d,6565f9233639c1a741be0236,17606,1B,man,NA,NA,W2 is carrying W4,carry,rating_volition,"{""Q0"":1}",[0],W2 is transporting W4,W4 is transporting W2
null,Jane is teaching Dave,NA,NA,NA,html-keyboard-response,61,378167,0.0-25.0-0.0,anomymised,656580e591ab4d27a27b0c3d,6565f9233639c1a741be0236,17606,1B,man,NA,null,W2 is teaching M4,teach,sentence,NA,NA,NA,NA
5430,NA,NA,NA,NA,survey-likert-extra-labels,62,383598,0.0-25.0-1.0-0.0,anomymised,656580e591ab4d27a27b0c3d,6565f9233639c1a741be0236,17606,1B,man,NA,NA,W2 is teaching M4,teach,rating_causation,"{""Q0"":5}",[0],W2 is learning from M4,M4 is learning from W2
3978,NA,NA,NA,NA,survey-likert-extra-labels,63,387579,0.0-25.0-2.0,anomymised,656580e591ab4d27a27b0c3d,6565f9233639c1a741be0236,17606,1B,man,NA,NA,W2 is teaching M4,teach,rating_volition,"{""Q0"":1}",[0],W2 is educating M4,M4 is educating W2
null,Mike is reminding Beth,NA,NA,NA,html-keyboard-response,64,389585,0.0-26.0-0.0,anomymised,656580e591ab4d27a27b0c3d,6565f9233639c1a741be0236,17606,1B,man,NA,null,M2 is reminding W4,remind,sentence,NA,NA,NA,NA
8234,NA,NA,NA,NA,survey-likert-extra-labels,65,397820,0.0-26.0-1.0-0.0,anomymised,656580e591ab4d27a27b0c3d,6565f9233639c1a741be0236,17606,1B,man,NA,NA,M2 is reminding W4,remind,rating_causation,"{""Q0"":4}",[0],M2 is remembering,W4 is remembering
7000,NA,NA,NA,NA,survey-likert-extra-labels,66,404822,0.0-26.0-2.0,anomymised,656580e591ab4d27a27b0c3d,6565f9233639c1a741be0236,17606,1B,man,NA,NA,M2 is reminding W4,remind,rating_volition,"{""Q0"":0}",[0],M2 is telling W4 again,W4 is telling M2 again
null,Mike is posing for Dave,NA,NA,NA,html-keyboard-response,67,406830,0.0-27.0-0.0,anomymised,656580e591ab4d27a27b0c3d,6565f9233639c1a741be0236,17606,1B,man,NA,null,M2 is posing for M4,pose,sentence,NA,NA,NA,NA
7064,NA,NA,NA,NA,survey-likert-extra-labels,68,413896,0.0-27.0-2.0,anomymised,656580e591ab4d27a27b0c3d,6565f9233639c1a741be0236,17606,1B,man,NA,NA,M2 is posing for M4,pose,rating_volition,"{""Q0"":0}",[0],M2 is modelling for M4,M4 is modelling for M2
11899,NA,NA,NA,NA,survey-likert-extra-labels,69,425797,0.0-27.0-3.0-0.0,anomymised,656580e591ab4d27a27b0c3d,6565f9233639c1a741be0236,17606,1B,man,NA,NA,M2 is posing for M4,pose,rating_causation,"{""Q0"":3}",[0],M2 is photographing M4,M4 is photographing M2
null,Mike is being seduced by Dave,NA,NA,NA,html-keyboard-response,70,427814,0.0-28.0-0.0,anomymised,656580e591ab4d27a27b0c3d,6565f9233639c1a741be0236,17606,1B,man,NA,null,M2 is being seduced by M4,seduce2,sentence,NA,NA,NA,NA
5063,NA,NA,NA,NA,survey-likert-extra-labels,71,432878,0.0-28.0-1.0-0.0,anomymised,656580e591ab4d27a27b0c3d,6565f9233639c1a741be0236,17606,1B,man,NA,NA,M2 is being seduced by M4,seduce2,rating_causation,"{""Q0"":3}",[0],M4 started seducing M2 first,M2 started seducing M4 first
5406,NA,NA,NA,NA,survey-likert-extra-labels,72,438285,0.0-28.0-2.0,anomymised,656580e591ab4d27a27b0c3d,6565f9233639c1a741be0236,17606,1B,man,NA,NA,M2 is being seduced by M4,seduce2,rating_volition,"{""Q0"":0}",[0],M4 wanted to seduce M2,M2 wanted to seduce M4
null,Beth is being looked at by Mike,NA,NA,NA,html-keyboard-response,73,440287,0.0-29.0-0.0,anomymised,656580e591ab4d27a27b0c3d,6565f9233639c1a741be0236,17606,1B,man,NA,null,W4 is being looked at by M2,look4,sentence,NA,NA,NA,NA
4457,NA,NA,NA,NA,survey-likert-extra-labels,74,444746,0.0-29.0-1.0-0.0,anomymised,656580e591ab4d27a27b0c3d,6565f9233639c1a741be0236,17606,1B,man,NA,NA,W4 is being looked at by M2,look4,rating_causation,"{""Q0"":3}",[0],W4 looked at M2 first,M2 looked at W4 first
8651,NA,NA,NA,NA,survey-likert-extra-labels,75,453397,0.0-29.0-2.0,anomymised,656580e591ab4d27a27b0c3d,6565f9233639c1a741be0236,17606,1B,man,NA,NA,W4 is being looked at by M2,look4,rating_volition,"{""Q0"":4}",[0],W4 wanted to look at M2,M2 wanted to look at W4
null,Kate is being looked at by Ruth,NA,NA,NA,html-keyboard-response,76,455401,0.0-30.0-0.0,anomymised,656580e591ab4d27a27b0c3d,6565f9233639c1a741be0236,17606,1B,man,NA,null,W3 is being looked at by W1,look1,sentence,NA,NA,NA,NA
6015,NA,NA,NA,NA,survey-likert-extra-labels,77,461417,0.0-30.0-2.0,anomymised,656580e591ab4d27a27b0c3d,6565f9233639c1a741be0236,17606,1B,man,NA,NA,W3 is being looked at by W1,look1,rating_volition,"{""Q0"":4}",[0],W3 wanted to look at W1,W1 wanted to look at W3
4803,NA,NA,NA,NA,survey-likert-extra-labels,78,466222,0.0-30.0-3.0-0.0,anomymised,656580e591ab4d27a27b0c3d,6565f9233639c1a741be0236,17606,1B,man,NA,NA,W3 is being looked at by W1,look1,rating_causation,"{""Q0"":3}",[0],W3 looked at W1 first,W1 looked at W3 first
null,Mike is being shouted at by Beth,NA,NA,NA,html-keyboard-response,79,468233,0.0-31.0-0.0,anomymised,656580e591ab4d27a27b0c3d,6565f9233639c1a741be0236,17606,1B,man,NA,null,M2 is being shouted at by W4,shout3,sentence,NA,NA,NA,NA
8124,NA,NA,NA,NA,survey-likert-extra-labels,80,476360,0.0-31.0-2.0,anomymised,656580e591ab4d27a27b0c3d,6565f9233639c1a741be0236,17606,1B,man,NA,NA,M2 is being shouted at by W4,shout3,rating_volition,"{""Q0"":3}",[0],W4 wanted to shout at M2,M2 wanted to shout at W4
3255,NA,NA,NA,NA,survey-likert-extra-labels,81,479616,0.0-31.0-3.0-0.0,anomymised,656580e591ab4d27a27b0c3d,6565f9233639c1a741be0236,17606,1B,man,NA,NA,M2 is being shouted at by W4,shout3,rating_causation,"{""Q0"":3}",[0],W4 shouted at M2 first,M2 shouted at W4 first
null,Fred is being seduced by Ruth,NA,NA,NA,html-keyboard-response,82,481633,0.0-32.0-0.0,anomymised,656580e591ab4d27a27b0c3d,6565f9233639c1a741be0236,17606,1B,man,NA,null,M3 is being seduced by W1,seduce4,sentence,NA,NA,NA,NA
14765,NA,NA,NA,NA,survey-likert-extra-labels,83,496399,0.0-32.0-2.0,anomymised,656580e591ab4d27a27b0c3d,6565f9233639c1a741be0236,17606,1B,man,NA,NA,M3 is being seduced by W1,seduce4,rating_volition,"{""Q0"":1}",[0],W1 wanted to seducing M3,M3 wanted to seducing W1
9076,NA,NA,NA,NA,survey-likert-extra-labels,84,505476,0.0-32.0-3.0-0.0,anomymised,656580e591ab4d27a27b0c3d,6565f9233639c1a741be0236,17606,1B,man,NA,NA,M3 is being seduced by W1,seduce4,rating_causation,"{""Q0"":2}",[0],W1 started seducing M3 first,M3 started seducing W1 first
null,Kate is being kissed by Ruth,NA,NA,NA,html-keyboard-response,85,507488,0.0-33.0-0.0,anomymised,656580e591ab4d27a27b0c3d,6565f9233639c1a741be0236,17606,1B,man,NA,null,W3 is being kissed by W1,kiss1,sentence,NA,NA,NA,NA
5169,NA,NA,NA,NA,survey-likert-extra-labels,86,512659,0.0-33.0-2.0,anomymised,656580e591ab4d27a27b0c3d,6565f9233639c1a741be0236,17606,1B,man,NA,NA,W3 is being kissed by W1,kiss1,rating_volition,"{""Q0"":6}",[0],W3 wanted to kiss W1,W1 wanted to kiss W3
3175,NA,NA,NA,NA,survey-likert-extra-labels,87,515836,0.0-33.0-3.0-0.0,anomymised,656580e591ab4d27a27b0c3d,6565f9233639c1a741be0236,17606,1B,man,NA,NA,W3 is being kissed by W1,kiss1,rating_causation,"{""Q0"":3}",[0],W3 asked to kiss W1,W1 asked to kiss W3
null,Luke is being hugged by Fred,NA,NA,NA,html-keyboard-response,88,517847,0.0-34.0-0.0,anomymised,656580e591ab4d27a27b0c3d,6565f9233639c1a741be0236,17606,1B,man,NA,null,M1 is being hugged by M3,hug2,sentence,NA,NA,NA,NA
3611,NA,NA,NA,NA,survey-likert-extra-labels,89,521458,0.0-34.0-1.0-0.0,anomymised,656580e591ab4d27a27b0c3d,6565f9233639c1a741be0236,17606,1B,man,NA,NA,M1 is being hugged by M3,hug2,rating_causation,"{""Q0"":3}",[0],M3 asked to hug M1,M1 asked to hug M3
5113,NA,NA,NA,NA,survey-likert-extra-labels,90,526573,0.0-34.0-2.0,anomymised,656580e591ab4d27a27b0c3d,6565f9233639c1a741be0236,17606,1B,man,NA,NA,M1 is being hugged by M3,hug2,rating_volition,"{""Q0"":0}",[0],M3 wanted to hug M1,M1 wanted to hug M3
null,Fred is being kissed by Luke,NA,NA,NA,html-keyboard-response,91,528586,0.0-35.0-0.0,anomymised,656580e591ab4d27a27b0c3d,6565f9233639c1a741be0236,17606,1B,man,NA,null,M3 is being kissed by M1,kiss2,sentence,NA,NA,NA,NA
5808,NA,NA,NA,NA,survey-likert-extra-labels,92,534395,0.0-35.0-2.0,anomymised,656580e591ab4d27a27b0c3d,6565f9233639c1a741be0236,17606,1B,man,NA,NA,M3 is being kissed by M1,kiss2,rating_volition,"{""Q0"":6}",[0],M3 wanted to kiss M1,M1 wanted to kiss M3
2515,NA,NA,NA,NA,survey-likert-extra-labels,93,536911,0.0-35.0-3.0-0.0,anomymised,656580e591ab4d27a27b0c3d,6565f9233639c1a741be0236,17606,1B,man,NA,NA,M3 is being kissed by M1,kiss2,rating_causation,"{""Q0"":3}",[0],M3 asked to kiss M1,M1 asked to kiss M3
null,Kate is feeding Luke,NA,NA,NA,html-keyboard-response,94,538913,0.0-36.0-0.0,anomymised,656580e591ab4d27a27b0c3d,6565f9233639c1a741be0236,17606,1B,man,NA,null,W3 is feeding M1,feed,sentence,NA,NA,NA,NA
9690,NA,NA,NA,NA,survey-likert-extra-labels,95,548605,0.0-36.0-1.0-0.0,anomymised,656580e591ab4d27a27b0c3d,6565f9233639c1a741be0236,17606,1B,man,NA,NA,W3 is feeding M1,feed,rating_causation,"{""Q0"":4}",[0],W3 is eating M1's food,M1 is eating W3's food
3089,NA,NA,NA,NA,survey-likert-extra-labels,96,551695,0.0-36.0-2.0,anomymised,656580e591ab4d27a27b0c3d,6565f9233639c1a741be0236,17606,1B,man,NA,NA,W3 is feeding M1,feed,rating_volition,"{""Q0"":3}",[0],W3 cooked for M1,M1 cooked for W3
null,Mike is being touched by Dave,NA,NA,NA,html-keyboard-response,97,553696,0.0-37.0-0.0,anomymised,656580e591ab4d27a27b0c3d,6565f9233639c1a741be0236,17606,1B,man,NA,null,M2 is being touched by M4,touch2,sentence,NA,NA,NA,NA
2728,NA,NA,NA,NA,survey-likert-extra-labels,98,556424,0.0-37.0-1.0-0.0,anomymised,656580e591ab4d27a27b0c3d,6565f9233639c1a741be0236,17606,1B,man,NA,NA,M2 is being touched by M4,touch2,rating_causation,"{""Q0"":3}",[0],M4 asked to touch M2,M2 asked to touch M4
3960,NA,NA,NA,NA,survey-likert-extra-labels,99,560386,0.0-37.0-2.0,anomymised,656580e591ab4d27a27b0c3d,6565f9233639c1a741be0236,17606,1B,man,NA,NA,M2 is being touched by M4,touch2,rating_volition,"{""Q0"":0}",[0],M4 wanted to touch M2,M2 wanted to touch M4
null,Ruth is being shouted at by Kate,NA,NA,NA,html-keyboard-response,100,562394,0.0-38.0-0.0,anomymised,656580e591ab4d27a27b0c3d,6565f9233639c1a741be0236,17606,1B,man,NA,null,W1 is being shouted at by W3,shout1,sentence,NA,NA,NA,NA
7054,NA,NA,NA,NA,survey-likert-extra-labels,101,569449,0.0-38.0-2.0,anomymised,656580e591ab4d27a27b0c3d,6565f9233639c1a741be0236,17606,1B,man,NA,NA,W1 is being shouted at by W3,shout1,rating_volition,"{""Q0"":3}",[0],W3 wanted to shout at W1,W1 wanted to shout at W3
15880,NA,NA,NA,NA,survey-likert-extra-labels,102,585331,0.0-38.0-3.0-0.0,anomymised,656580e591ab4d27a27b0c3d,6565f9233639c1a741be0236,17606,1B,man,NA,NA,W1 is being shouted at by W3,shout1,rating_causation,"{""Q0"":3}",[0],W3 shouted at W1 first,W1 shouted at W3 first
null,Mike is being hugged by Beth,NA,NA,NA,html-keyboard-response,103,587335,0.0-39.0-0.0,anomymised,656580e591ab4d27a27b0c3d,6565f9233639c1a741be0236,17606,1B,man,NA,null,M2 is being hugged by W4,hug4,sentence,NA,NA,NA,NA
2332,NA,NA,NA,NA,survey-likert-extra-labels,104,589669,0.0-39.0-1.0-0.0,anomymised,656580e591ab4d27a27b0c3d,6565f9233639c1a741be0236,17606,1B,man,NA,NA,M2 is being hugged by W4,hug4,rating_causation,"{""Q0"":3}",[0],W4 asked to hug M2,M2 asked to hug W4
3610,NA,NA,NA,NA,survey-likert-extra-labels,105,593281,0.0-39.0-2.0,anomymised,656580e591ab4d27a27b0c3d,6565f9233639c1a741be0236,17606,1B,man,NA,NA,M2 is being hugged by W4,hug4,rating_volition,"{""Q0"":0}",[0],W4 wanted to hug M2,M2 wanted to hug W4
null,Jane is being touched by Beth,NA,NA,NA,html-keyboard-response,106,595297,0.0-40.0-0.0,anomymised,656580e591ab4d27a27b0c3d,6565f9233639c1a741be0236,17606,1B,man,NA,null,W2 is being touched by W4,touch1,sentence,NA,NA,NA,NA
4835,NA,NA,NA,NA,survey-likert-extra-labels,107,600132,0.0-40.0-2.0,anomymised,656580e591ab4d27a27b0c3d,6565f9233639c1a741be0236,17606,1B,man,NA,NA,W2 is being touched by W4,touch1,rating_volition,"{""Q0"":0}",[0],W4 wanted to touch W2,W2 wanted to touch W4
1556,NA,NA,NA,NA,survey-likert-extra-labels,108,601691,0.0-40.0-3.0-0.0,anomymised,656580e591ab4d27a27b0c3d,6565f9233639c1a741be0236,17606,1B,man,NA,NA,W2 is being touched by W4,touch1,rating_causation,"{""Q0"":3}",[0],W4 asked to touch W2,W2 asked to touch W4
null,Dave is being looked at by Jane,NA,NA,NA,html-keyboard-response,109,603706,0.0-41.0-0.0,anomymised,656580e591ab4d27a27b0c3d,6565f9233639c1a741be0236,17606,1B,man,NA,null,M4 is being looked at by W2,look3,sentence,NA,NA,NA,NA
7434,NA,NA,NA,NA,survey-likert-extra-labels,110,611140,0.0-41.0-1.0-0.0,anomymised,656580e591ab4d27a27b0c3d,6565f9233639c1a741be0236,17606,1B,man,NA,NA,M4 is being looked at by W2,look3,rating_causation,"{""Q0"":4}",[0],M4 looked at W2 first,W2 looked at M4 first
4739,NA,NA,NA,NA,survey-likert-extra-labels,111,615881,0.0-41.0-2.0,anomymised,656580e591ab4d27a27b0c3d,6565f9233639c1a741be0236,17606,1B,man,NA,NA,M4 is being looked at by W2,look3,rating_volition,"{""Q0"":4}",[0],M4 wanted to look at W2,W2 wanted to look at M4
null,Luke is being shouted at by Fred,NA,NA,NA,html-keyboard-response,112,617884,0.0-42.0-0.0,anomymised,656580e591ab4d27a27b0c3d,6565f9233639c1a741be0236,17606,1B,man,NA,null,M1 is being shouted at by M3,shout2,sentence,NA,NA,NA,NA
4784,NA,NA,NA,NA,survey-likert-extra-labels,113,622669,0.0-42.0-1.0-0.0,anomymised,656580e591ab4d27a27b0c3d,6565f9233639c1a741be0236,17606,1B,man,NA,NA,M1 is being shouted at by M3,shout2,rating_causation,"{""Q0"":2}",[0],M3 shouted at M1 first,M1 shouted at M3 first
4772,NA,NA,NA,NA,survey-likert-extra-labels,114,627442,0.0-42.0-2.0,anomymised,656580e591ab4d27a27b0c3d,6565f9233639c1a741be0236,17606,1B,man,NA,NA,M1 is being shouted at by M3,shout2,rating_volition,"{""Q0"":2}",[0],M3 wanted to shout at M1,M1 wanted to shout at M3
null,Ruth is chasing Kate,NA,NA,NA,html-keyboard-response,115,629456,0.0-43.0-0.0,anomymised,656580e591ab4d27a27b0c3d,6565f9233639c1a741be0236,17606,1B,man,NA,null,W1 is chasing W3,chase,sentence,NA,NA,NA,NA
6264,NA,NA,NA,NA,survey-likert-extra-labels,116,635721,0.0-43.0-1.0-0.0,anomymised,656580e591ab4d27a27b0c3d,6565f9233639c1a741be0236,17606,1B,man,NA,NA,W1 is chasing W3,chase,rating_causation,"{""Q0"":6}",[0],W1 is running away from W3,W3 is running away from W1
9410,NA,NA,NA,NA,survey-likert-extra-labels,117,645132,0.0-43.0-2.0,anomymised,656580e591ab4d27a27b0c3d,6565f9233639c1a741be0236,17606,1B,man,NA,NA,W1 is chasing W3,chase,rating_volition,"{""Q0"":0}",[0],W1 is behind W3,W3 is behind W1
null,Ruth is being opposed by Kate,NA,NA,NA,html-keyboard-response,118,647147,0.0-44.0-0.0,anomymised,656580e591ab4d27a27b0c3d,6565f9233639c1a741be0236,17606,1B,man,NA,null,W1 is being opposed by W3,oppose1,sentence,NA,NA,NA,NA
8899,NA,NA,NA,NA,survey-likert-extra-labels,119,656047,0.0-44.0-1.0-0.0,anomymised,656580e591ab4d27a27b0c3d,6565f9233639c1a741be0236,17606,1B,man,NA,NA,W1 is being opposed by W3,oppose1,rating_causation,"{""Q0"":4}",[0],W3 started opposing W1,W1 started opposing W3
3131,NA,NA,NA,NA,survey-likert-extra-labels,120,659180,0.0-44.0-2.0,anomymised,656580e591ab4d27a27b0c3d,6565f9233639c1a741be0236,17606,1B,man,NA,NA,W1 is being opposed by W3,oppose1,rating_volition,"{""Q0"":5}",[0],W3 wanted to oppose W1,W1 wanted to oppose W3
null,Kate is being challenged by Luke,NA,NA,NA,html-keyboard-response,121,661182,0.0-45.0-0.0,anomymised,656580e591ab4d27a27b0c3d,6565f9233639c1a741be0236,17606,1B,man,NA,null,W3 is being challenged by M1,challenge4,sentence,NA,NA,NA,NA
7637,NA,NA,NA,NA,survey-likert-extra-labels,122,668819,0.0-45.0-2.0,anomymised,656580e591ab4d27a27b0c3d,6565f9233639c1a741be0236,17606,1B,man,NA,NA,W3 is being challenged by M1,challenge4,rating_volition,"{""Q0"":2}",[0],M1 wanted to challenge W3,W3 wanted to challenge M1
6493,NA,NA,NA,NA,survey-likert-extra-labels,123,675314,0.0-45.0-3.0-0.0,anomymised,656580e591ab4d27a27b0c3d,6565f9233639c1a741be0236,17606,1B,man,NA,NA,W3 is being challenged by M1,challenge4,rating_causation,"{""Q0"":1}",[0],M1 started challenging W3 first,W3 started challenging M1 first
null,Dave is being copied by Mike,NA,NA,NA,html-keyboard-response,124,677323,0.0-46.0-0.0,anomymised,656580e591ab4d27a27b0c3d,6565f9233639c1a741be0236,17606,1B,man,NA,null,M4 is being copied by M2,copy2,sentence,NA,NA,NA,NA
9620,NA,NA,NA,NA,survey-likert-extra-labels,125,686944,0.0-46.0-2.0,anomymised,656580e591ab4d27a27b0c3d,6565f9233639c1a741be0236,17606,1B,man,NA,NA,M4 is being copied by M2,copy2,rating_volition,"{""Q0"":5}",[0],M4 wanted to copy M2,M2 wanted to copy M4
3643,NA,NA,NA,NA,survey-likert-extra-labels,126,690590,0.0-46.0-3.0-0.0,anomymised,656580e591ab4d27a27b0c3d,6565f9233639c1a741be0236,17606,1B,man,NA,NA,M4 is being copied by M2,copy2,rating_causation,"{""Q0"":3}",[0],M4 started copying M2 first,M2 started copying M4 first
null,Beth is being greeted by Jane,NA,NA,NA,html-keyboard-response,127,692595,0.0-47.0-0.0,anomymised,656580e591ab4d27a27b0c3d,6565f9233639c1a741be0236,17606,1B,man,NA,null,W4 is being greeted by W2,greet1,sentence,NA,NA,NA,NA
7426,NA,NA,NA,NA,survey-likert-extra-labels,128,700022,0.0-47.0-1.0-0.0,anomymised,656580e591ab4d27a27b0c3d,6565f9233639c1a741be0236,17606,1B,man,NA,NA,W4 is being greeted by W2,greet1,rating_causation,"{""Q0"":6}",[0],W4 started greeting W2 first,W2 started greeting W4 first
5906,NA,NA,NA,NA,survey-likert-extra-labels,129,705929,0.0-47.0-2.0,anomymised,656580e591ab4d27a27b0c3d,6565f9233639c1a741be0236,17606,1B,man,NA,NA,W4 is being greeted by W2,greet1,rating_volition,"{""Q0"":6}",[0],W4 wanted to greet W2,W2 wanted to greet W4
null,Kate is being seduced by Luke,NA,NA,NA,html-keyboard-response,130,707944,0.0-48.0-0.0,anomymised,656580e591ab4d27a27b0c3d,6565f9233639c1a741be0236,17606,1B,man,NA,null,W3 is being seduced by M1,seduce3,sentence,NA,NA,NA,NA
6945,NA,NA,NA,NA,survey-likert-extra-labels,131,714890,0.0-48.0-1.0-0.0,anomymised,656580e591ab4d27a27b0c3d,6565f9233639c1a741be0236,17606,1B,man,NA,NA,W3 is being seduced by M1,seduce3,rating_causation,"{""Q0"":2}",[0],M1 started seducing W3 first,W3 started seducing M1 first
2857,NA,NA,NA,NA,survey-likert-extra-labels,132,717749,0.0-48.0-2.0,anomymised,656580e591ab4d27a27b0c3d,6565f9233639c1a741be0236,17606,1B,man,NA,NA,W3 is being seduced by M1,seduce3,rating_volition,"{""Q0"":0}",[0],M1 wanted to seduce W3,W3 wanted to seduce M1
null,Fred is being challenged by Ruth,NA,NA,NA,html-keyboard-response,133,719751,0.0-49.0-0.0,anomymised,656580e591ab4d27a27b0c3d,6565f9233639c1a741be0236,17606,1B,man,NA,null,M3 is being challenged by W1,challenge3,sentence,NA,NA,NA,NA
9285,NA,NA,NA,NA,survey-likert-extra-labels,134,729038,0.0-49.0-1.0-0.0,anomymised,656580e591ab4d27a27b0c3d,6565f9233639c1a741be0236,17606,1B,man,NA,NA,M3 is being challenged by W1,challenge3,rating_causation,"{""Q0"":2}",[0],W1 started challenging M3 first,M3 started challenging W1 first
9706,NA,NA,NA,NA,survey-likert-extra-labels,135,738746,0.0-49.0-2.0,anomymised,656580e591ab4d27a27b0c3d,6565f9233639c1a741be0236,17606,1B,man,NA,NA,M3 is being challenged by W1,challenge3,rating_volition,"{""Q0"":0}",[0],W1 wanted to challenge M3,M3 wanted to challenge W1
null,Luke is being copied by Kate,NA,NA,NA,html-keyboard-response,136,740748,0.0-50.0-0.0,anomymised,656580e591ab4d27a27b0c3d,6565f9233639c1a741be0236,17606,1B,man,NA,null,M1 is being copied by W3,copy3,sentence,NA,NA,NA,NA
6460,NA,NA,NA,NA,survey-likert-extra-labels,137,747210,0.0-50.0-2.0,anomymised,656580e591ab4d27a27b0c3d,6565f9233639c1a741be0236,17606,1B,man,NA,NA,M1 is being copied by W3,copy3,rating_volition,"{""Q0"":0}",[0],M1 wanted to copy W3,W3 wanted to copy M1
2933,NA,NA,NA,NA,survey-likert-extra-labels,138,750145,0.0-50.0-3.0-0.0,anomymised,656580e591ab4d27a27b0c3d,6565f9233639c1a741be0236,17606,1B,man,NA,NA,M1 is being copied by W3,copy3,rating_causation,"{""Q0"":3}",[0],M1 started copying W3 first,W3 started copying M1 first
null,Jane is being hugged by Dave,NA,NA,NA,html-keyboard-response,139,752156,0.0-51.0-0.0,anomymised,656580e591ab4d27a27b0c3d,6565f9233639c1a741be0236,17606,1B,man,NA,null,W2 is being hugged by M4,hug3,sentence,NA,NA,NA,NA
7113,NA,NA,NA,NA,survey-likert-extra-labels,140,759271,0.0-51.0-2.0,anomymised,656580e591ab4d27a27b0c3d,6565f9233639c1a741be0236,17606,1B,man,NA,NA,W2 is being hugged by M4,hug3,rating_volition,"{""Q0"":0}",[0],M4 wanted to hug W2,W2 wanted to hug M4
2289,NA,NA,NA,NA,survey-likert-extra-labels,141,761561,0.0-51.0-3.0-0.0,anomymised,656580e591ab4d27a27b0c3d,6565f9233639c1a741be0236,17606,1B,man,NA,NA,W2 is being hugged by M4,hug3,rating_causation,"{""Q0"":3}",[0],M4 asked to hug W2,W2 asked to hug M4
null,Ruth is being copied by Fred,NA,NA,NA,html-keyboard-response,142,763570,0.0-52.0-0.0,anomymised,656580e591ab4d27a27b0c3d,6565f9233639c1a741be0236,17606,1B,man,NA,null,W1 is being copied by M3,copy4,sentence,NA,NA,NA,NA
5903,NA,NA,NA,NA,survey-likert-extra-labels,143,769475,0.0-52.0-2.0,anomymised,656580e591ab4d27a27b0c3d,6565f9233639c1a741be0236,17606,1B,man,NA,NA,W1 is being copied by M3,copy4,rating_volition,"{""Q0"":0}",[0],W1 wanted to copy M3,M3 wanted to copy W1
5234,NA,NA,NA,NA,survey-likert-extra-labels,144,774710,0.0-52.0-3.0-0.0,anomymised,656580e591ab4d27a27b0c3d,6565f9233639c1a741be0236,17606,1B,man,NA,NA,W1 is being copied by M3,copy4,rating_causation,"{""Q0"":3}",[0],W1 started copying M3 first,M3 started copying W1 first
null,Jane is being opposed by Dave,NA,NA,NA,html-keyboard-response,145,776712,0.0-53.0-0.0,anomymised,656580e591ab4d27a27b0c3d,6565f9233639c1a741be0236,17606,1B,man,NA,null,W2 is being opposed by M4,oppose3,sentence,NA,NA,NA,NA
8793,NA,NA,NA,NA,survey-likert-extra-labels,146,785506,0.0-53.0-2.0,anomymised,656580e591ab4d27a27b0c3d,6565f9233639c1a741be0236,17606,1B,man,NA,NA,W2 is being opposed by M4,oppose3,rating_volition,"{""Q0"":3}",[0],M4 wanted to oppose W2,W2 wanted to oppose M4
6463,NA,NA,NA,NA,survey-likert-extra-labels,147,791971,0.0-53.0-3.0-0.0,anomymised,656580e591ab4d27a27b0c3d,6565f9233639c1a741be0236,17606,1B,man,NA,NA,W2 is being opposed by M4,oppose3,rating_causation,"{""Q0"":4}",[0],M4 started opposing W2,W2 started opposing M4
null,Luke is driving Fred,NA,NA,NA,html-keyboard-response,148,793981,0.0-54.0-0.0,anomymised,656580e591ab4d27a27b0c3d,6565f9233639c1a741be0236,17606,1B,man,NA,null,M1 is driving M3,drive,sentence,NA,NA,NA,NA
4996,NA,NA,NA,NA,survey-likert-extra-labels,149,798977,0.0-54.0-2.0,anomymised,656580e591ab4d27a27b0c3d,6565f9233639c1a741be0236,17606,1B,man,NA,NA,M1 is driving M3,drive,rating_volition,"{""Q0"":6}",[0],M1 is M3's passenger,M3 is M1's passenger
3716,NA,NA,NA,NA,survey-likert-extra-labels,150,802695,0.0-54.0-3.0-0.0,anomymised,656580e591ab4d27a27b0c3d,6565f9233639c1a741be0236,17606,1B,man,NA,NA,M1 is driving M3,drive,rating_causation,"{""Q0"":0}",[0],M1 is taking M3 somewhere,M3 is taking M1 somewhere
2381,<p>Thank you for completing that task.</p><p>The final part of this session is a short questionnaire.</p><p>Press Continue.</p>,0,Continue,Continue,html-button-response,151,805078,0.0-55.0,anomymised,656580e591ab4d27a27b0c3d,6565f9233639c1a741be0236,17606,1B,man,NA,NA,NA,NA,NA,NA,NA,NA,NA
25291,NA,NA,NA,NA,survey-text,152,831373,0.0-56.0,anomymised,656580e591ab4d27a27b0c3d,6565f9233639c1a741be0236,17606,1B,man,NA,NA,NA,NA,demographics,"{""Q0"":""29"",""Q1"":""English"",""Q2"":""English"",""Q3"":""United Kingdom - England"",""Q4"":""British"",""Q5"":""white"",""Q6"":""Male""}",NA,NA,NA
3302,<p>This is the last question - thank you for taking part! Have you lived in the UK for the last 5 years or more?</p>,0,"Yes,No",Yes,html-button-response,153,834676,0.0-57.0,anomymised,656580e591ab4d27a27b0c3d,6565f9233639c1a741be0236,17606,1B,man,NA,NA,NA,NA,fiveyears,NA,NA,NA,NA
