rt,stimulus,button_pressed,choices,ChosenStimulus,trial_type,trial_index,time_elapsed,internal_node_id,subject_id,study_id,session_id,subject,list,ppt_gender,url,key_press,sentence_type,verb,test_part,responses,question_order,left_part,right_part
2112.7000000476837,Welcome to the experiment. Press Continue to begin.,0,Continue,Continue,html-button-response,0,2114,0.0-0.0,anomymised,65658308d20c86dae326cedf,656704306604d6d4dd458052,21070,2B,woman,NA,NA,NA,NA,NA,NA,NA,NA,NA
24165.599999904633,NA,NA,NA,NA,external-html,1,27330,0.0-1.0,anomymised,65658308d20c86dae326cedf,656704306604d6d4dd458052,21070,2B,woman,consent.html,NA,NA,NA,NA,NA,NA,NA,NA
5395.700000047684,"<p>Welcome.</p><p>In this experiment we will ask you to imagine some situations.</p><p>Each trial starts with a description of an event.</p><p>Then you will see alternative descriptions of that event, and you will rate on a scale how best they match the original description.</p><p>You will give your answer by clicking a button on a rating scale.</p><p>To do this task, you will have to use your imagination to visualise these events.</p><br><p>Ready?</p>",0,Continue,Continue,html-button-response,2,32727,0.0-2.0,anomymised,65658308d20c86dae326cedf,656704306604d6d4dd458052,21070,2B,woman,NA,NA,NA,NA,NA,NA,NA,NA,NA
1905,"<p>Before the experiment starts, you will watch an example trial. Press 'Continue'.</p>",0,Continue,Continue,html-button-response,3,35643,0.0-3.0,anomymised,65658308d20c86dae326cedf,656704306604d6d4dd458052,21070,2B,woman,NA,NA,NA,NA,NA,NA,NA,NA,NA
null,The police officer is arresting the robber,NA,NA,NA,html-keyboard-response,4,38653,0.0-4.0,anomymised,65658308d20c86dae326cedf,656704306604d6d4dd458052,21070,2B,woman,NA,null,NA,NA,NA,NA,NA,NA,NA
19234.200000047684,<img src='img/Example-trial.jpg' style='height:550px;''></img>,0,Continue,Continue,html-button-response,5,57889,0.0-5.0,anomymised,65658308d20c86dae326cedf,656704306604d6d4dd458052,21070,2B,woman,NA,NA,NA,NA,NA,NA,NA,NA,NA
1494,<p>Ready to start the experiment?</p><br><p><strong>Remember to give an answer by clicking a button on the rating scale.</strong></p><p>Press 'Continue' to begin.</p>,0,Continue,Continue,html-button-response,6,60403,0.0-6.0,anomymised,65658308d20c86dae326cedf,656704306604d6d4dd458052,21070,2B,woman,NA,NA,NA,NA,NA,NA,NA,NA,NA
null,Jane is feeding Fred,NA,NA,NA,html-keyboard-response,7,63426,0.0-7.0-0.0,anomymised,65658308d20c86dae326cedf,656704306604d6d4dd458052,21070,2B,woman,NA,null,W3 is feeding M1,feed,sentence,NA,NA,NA,NA
7103.899999856949,NA,NA,NA,NA,survey-likert-extra-labels,8,70533,0.0-7.0-1.0-0.0,anomymised,65658308d20c86dae326cedf,656704306604d6d4dd458052,21070,2B,woman,NA,NA,W3 is feeding M1,feed,rating_causation,"{""Q0"":3}",[0],W3 is eating M1's food,M1 is eating W3's food
9619.700000047684,NA,NA,NA,NA,survey-likert-extra-labels,9,80154,0.0-7.0-2.0,anomymised,65658308d20c86dae326cedf,656704306604d6d4dd458052,21070,2B,woman,NA,NA,W3 is feeding M1,feed,rating_volition,"{""Q0"":3}",[0],W3 cooked for M1,M1 cooked for W3
null,Kate is being hugged by Mike,NA,NA,NA,html-keyboard-response,10,82166,0.0-8.0-0.0,anomymised,65658308d20c86dae326cedf,656704306604d6d4dd458052,21070,2B,woman,NA,null,W2 is being hugged by M4,hug3,sentence,NA,NA,NA,NA
11677.099999904633,NA,NA,NA,NA,survey-likert-extra-labels,11,93844,0.0-8.0-2.0,anomymised,65658308d20c86dae326cedf,656704306604d6d4dd458052,21070,2B,woman,NA,NA,W2 is being hugged by M4,hug3,rating_volition,"{""Q0"":2}",[0],M4 wanted to hug W2,W2 wanted to hug M4
9591.800000190735,NA,NA,NA,NA,survey-likert-extra-labels,12,103438,0.0-8.0-3.0-0.0,anomymised,65658308d20c86dae326cedf,656704306604d6d4dd458052,21070,2B,woman,NA,NA,W2 is being hugged by M4,hug3,rating_causation,"{""Q0"":2}",[0],M4 asked to hug W2,W2 asked to hug M4
null,Kate is being challenged by Ruth,NA,NA,NA,html-keyboard-response,13,105454,0.0-9.0-0.0,anomymised,65658308d20c86dae326cedf,656704306604d6d4dd458052,21070,2B,woman,NA,null,W2 is being challenged by W4,challenge1,sentence,NA,NA,NA,NA
13179.099999904633,NA,NA,NA,NA,survey-likert-extra-labels,14,118635,0.0-9.0-1.0-0.0,anomymised,65658308d20c86dae326cedf,656704306604d6d4dd458052,21070,2B,woman,NA,NA,W2 is being challenged by W4,challenge1,rating_causation,"{""Q0"":0}",[0],W4 started challenging W2 first,W2 started challenging W4 first
6745.200000047684,NA,NA,NA,NA,survey-likert-extra-labels,15,125382,0.0-9.0-2.0,anomymised,65658308d20c86dae326cedf,656704306604d6d4dd458052,21070,2B,woman,NA,NA,W2 is being challenged by W4,challenge1,rating_volition,"{""Q0"":0}",[0],W4 wanted to challenge W2,W2 wanted to challenge W4
null,Ruth is being greeted by Kate,NA,NA,NA,html-keyboard-response,16,127399,0.0-10.0-0.0,anomymised,65658308d20c86dae326cedf,656704306604d6d4dd458052,21070,2B,woman,NA,null,W4 is being greeted by W2,greet1,sentence,NA,NA,NA,NA
6282.299999952316,NA,NA,NA,NA,survey-likert-extra-labels,17,133683,0.0-10.0-1.0-0.0,anomymised,65658308d20c86dae326cedf,656704306604d6d4dd458052,21070,2B,woman,NA,NA,W4 is being greeted by W2,greet1,rating_causation,"{""Q0"":6}",[0],W4 started greeting W2 first,W2 started greeting W4 first
7788.299999952316,NA,NA,NA,NA,survey-likert-extra-labels,18,141472,0.0-10.0-2.0,anomymised,65658308d20c86dae326cedf,656704306604d6d4dd458052,21070,2B,woman,NA,NA,W4 is being greeted by W2,greet1,rating_volition,"{""Q0"":6}",[0],W4 wanted to greet W2,W2 wanted to greet W4
null,Mike is being greeted by Dave,NA,NA,NA,html-keyboard-response,19,143478,0.0-11.0-0.0,anomymised,65658308d20c86dae326cedf,656704306604d6d4dd458052,21070,2B,woman,NA,null,M4 is being greeted by M2,greet2,sentence,NA,NA,NA,NA
5750.200000047684,NA,NA,NA,NA,survey-likert-extra-labels,20,149229,0.0-11.0-1.0-0.0,anomymised,65658308d20c86dae326cedf,656704306604d6d4dd458052,21070,2B,woman,NA,NA,M4 is being greeted by M2,greet2,rating_causation,"{""Q0"":0}",[0],M4 started greeting M2 first,M2 started greeting M4 first
4558.300000190735,NA,NA,NA,NA,survey-likert-extra-labels,21,153789,0.0-11.0-2.0,anomymised,65658308d20c86dae326cedf,656704306604d6d4dd458052,21070,2B,woman,NA,NA,M4 is being greeted by M2,greet2,rating_volition,"{""Q0"":0}",[0],M4 wanted to greet M2,M2 wanted to greet M4
null,Kate is being touched by Ruth,NA,NA,NA,html-keyboard-response,22,155800,0.0-12.0-0.0,anomymised,65658308d20c86dae326cedf,656704306604d6d4dd458052,21070,2B,woman,NA,null,W2 is being touched by W4,touch1,sentence,NA,NA,NA,NA
4706.700000047684,NA,NA,NA,NA,survey-likert-extra-labels,23,160508,0.0-12.0-2.0,anomymised,65658308d20c86dae326cedf,656704306604d6d4dd458052,21070,2B,woman,NA,NA,W2 is being touched by W4,touch1,rating_volition,"{""Q0"":0}",[0],W4 wanted to touch W2,W2 wanted to touch W4
4523.400000095367,NA,NA,NA,NA,survey-likert-extra-labels,24,165033,0.0-12.0-3.0-0.0,anomymised,65658308d20c86dae326cedf,656704306604d6d4dd458052,21070,2B,woman,NA,NA,W2 is being touched by W4,touch1,rating_causation,"{""Q0"":3}",[0],W4 asked to touch W2,W2 asked to touch W4
null,Ruth is being copied by Kate,NA,NA,NA,html-keyboard-response,25,167043,0.0-13.0-0.0,anomymised,65658308d20c86dae326cedf,656704306604d6d4dd458052,21070,2B,woman,NA,null,W4 is being copied by W2,copy1,sentence,NA,NA,NA,NA
5964.299999952316,NA,NA,NA,NA,survey-likert-extra-labels,26,173009,0.0-13.0-2.0,anomymised,65658308d20c86dae326cedf,656704306604d6d4dd458052,21070,2B,woman,NA,NA,W4 is being copied by W2,copy1,rating_volition,"{""Q0"":4}",[0],W4 wanted to copy W2,W2 wanted to copy W4
6632.799999952316,NA,NA,NA,NA,survey-likert-extra-labels,27,179644,0.0-13.0-3.0-0.0,anomymised,65658308d20c86dae326cedf,656704306604d6d4dd458052,21070,2B,woman,NA,NA,W4 is being copied by W2,copy1,rating_causation,"{""Q0"":6}",[0],W4 started copying W2 first,W2 started copying W4 first
null,Mike is being copied by Dave,NA,NA,NA,html-keyboard-response,28,181645,0.0-14.0-0.0,anomymised,65658308d20c86dae326cedf,656704306604d6d4dd458052,21070,2B,woman,NA,null,M4 is being copied by M2,copy2,sentence,NA,NA,NA,NA
5960.199999809265,NA,NA,NA,NA,survey-likert-extra-labels,29,187607,0.0-14.0-1.0-0.0,anomymised,65658308d20c86dae326cedf,656704306604d6d4dd458052,21070,2B,woman,NA,NA,M4 is being copied by M2,copy2,rating_causation,"{""Q0"":0}",[0],M4 started copying M2 first,M2 started copying M4 first
6125.400000095367,NA,NA,NA,NA,survey-likert-extra-labels,30,193734,0.0-14.0-2.0,anomymised,65658308d20c86dae326cedf,656704306604d6d4dd458052,21070,2B,woman,NA,NA,M4 is being copied by M2,copy2,rating_volition,"{""Q0"":2}",[0],M4 wanted to copy M2,M2 wanted to copy M4
null,Kate is being opposed by Mike,NA,NA,NA,html-keyboard-response,31,195750,0.0-15.0-0.0,anomymised,65658308d20c86dae326cedf,656704306604d6d4dd458052,21070,2B,woman,NA,null,W2 is being opposed by M4,oppose3,sentence,NA,NA,NA,NA
4137.900000095367,NA,NA,NA,NA,survey-likert-extra-labels,32,199889,0.0-15.0-2.0,anomymised,65658308d20c86dae326cedf,656704306604d6d4dd458052,21070,2B,woman,NA,NA,W2 is being opposed by M4,oppose3,rating_volition,"{""Q0"":0}",[0],M4 wanted to oppose W2,W2 wanted to oppose M4
4804.599999904633,NA,NA,NA,NA,survey-likert-extra-labels,33,204695,0.0-15.0-3.0-0.0,anomymised,65658308d20c86dae326cedf,656704306604d6d4dd458052,21070,2B,woman,NA,NA,W2 is being opposed by M4,oppose3,rating_causation,"{""Q0"":0}",[0],M4 started opposing W2,W2 started opposing M4
null,Dave is posing for Mike,NA,NA,NA,html-keyboard-response,34,206707,0.0-16.0-0.0,anomymised,65658308d20c86dae326cedf,656704306604d6d4dd458052,21070,2B,woman,NA,null,M2 is posing for M4,pose,sentence,NA,NA,NA,NA
309388.7999999523,NA,NA,NA,NA,survey-likert-extra-labels,35,516097,0.0-16.0-1.0-0.0,anomymised,65658308d20c86dae326cedf,656704306604d6d4dd458052,21070,2B,woman,NA,NA,M2 is posing for M4,pose,rating_causation,"{""Q0"":6}",[0],M2 is photographing M4,M4 is photographing M2
5849.199999809265,NA,NA,NA,NA,survey-likert-extra-labels,36,521949,0.0-16.0-2.0,anomymised,65658308d20c86dae326cedf,656704306604d6d4dd458052,21070,2B,woman,NA,NA,M2 is posing for M4,pose,rating_volition,"{""Q0"":0}",[0],M2 is modelling for M4,M4 is modelling for M2
null,Luke is being looked at by Fred,NA,NA,NA,html-keyboard-response,37,523954,0.0-17.0-0.0,anomymised,65658308d20c86dae326cedf,656704306604d6d4dd458052,21070,2B,woman,NA,null,M3 is being looked at by M1,look2,sentence,NA,NA,NA,NA
7793,NA,NA,NA,NA,survey-likert-extra-labels,38,531748,0.0-17.0-2.0,anomymised,65658308d20c86dae326cedf,656704306604d6d4dd458052,21070,2B,woman,NA,NA,M3 is being looked at by M1,look2,rating_volition,"{""Q0"":6}",[0],M3 wanted to look at M1,M1 wanted to look at M3
7197.099999904633,NA,NA,NA,NA,survey-likert-extra-labels,39,538947,0.0-17.0-3.0-0.0,anomymised,65658308d20c86dae326cedf,656704306604d6d4dd458052,21070,2B,woman,NA,NA,M3 is being looked at by M1,look2,rating_causation,"{""Q0"":6}",[0],M3 looked at M1 first,M1 looked at M3 first
null,Dave is being hugged by Ruth,NA,NA,NA,html-keyboard-response,40,540949,0.0-18.0-0.0,anomymised,65658308d20c86dae326cedf,656704306604d6d4dd458052,21070,2B,woman,NA,null,M2 is being hugged by W4,hug4,sentence,NA,NA,NA,NA
5029.5,NA,NA,NA,NA,survey-likert-extra-labels,41,545979,0.0-18.0-2.0,anomymised,65658308d20c86dae326cedf,656704306604d6d4dd458052,21070,2B,woman,NA,NA,M2 is being hugged by W4,hug4,rating_volition,"{""Q0"":0}",[0],W4 wanted to hug M2,M2 wanted to hug W4
5066.399999856949,NA,NA,NA,NA,survey-likert-extra-labels,42,551047,0.0-18.0-3.0-0.0,anomymised,65658308d20c86dae326cedf,656704306604d6d4dd458052,21070,2B,woman,NA,NA,M2 is being hugged by W4,hug4,rating_causation,"{""Q0"":3}",[0],W4 asked to hug M2,M2 asked to hug W4
null,Luke is being challenged by Beth,NA,NA,NA,html-keyboard-response,43,553059,0.0-19.0-0.0,anomymised,65658308d20c86dae326cedf,656704306604d6d4dd458052,21070,2B,woman,NA,null,M3 is being challenged by W1,challenge3,sentence,NA,NA,NA,NA
16962.200000047684,NA,NA,NA,NA,survey-likert-extra-labels,44,570022,0.0-19.0-2.0,anomymised,65658308d20c86dae326cedf,656704306604d6d4dd458052,21070,2B,woman,NA,NA,M3 is being challenged by W1,challenge3,rating_volition,"{""Q0"":0}",[0],W1 wanted to challenge M3,M3 wanted to challenge W1
47042.39999985695,NA,NA,NA,NA,survey-likert-extra-labels,45,617067,0.0-19.0-3.0-0.0,anomymised,65658308d20c86dae326cedf,656704306604d6d4dd458052,21070,2B,woman,NA,NA,M3 is being challenged by W1,challenge3,rating_causation,"{""Q0"":0}",[0],W1 started challenging M3 first,M3 started challenging W1 first
null,Beth is being hugged by Jane,NA,NA,NA,html-keyboard-response,46,619071,0.0-20.0-0.0,anomymised,65658308d20c86dae326cedf,656704306604d6d4dd458052,21070,2B,woman,NA,null,W1 is being hugged by W3,hug1,sentence,NA,NA,NA,NA
7971.5,NA,NA,NA,NA,survey-likert-extra-labels,47,627044,0.0-20.0-1.0-0.0,anomymised,65658308d20c86dae326cedf,656704306604d6d4dd458052,21070,2B,woman,NA,NA,W1 is being hugged by W3,hug1,rating_causation,"{""Q0"":3}",[0],W3 asked to hug W1,W1 asked to hug W3
8540.799999952316,NA,NA,NA,NA,survey-likert-extra-labels,48,635587,0.0-20.0-2.0,anomymised,65658308d20c86dae326cedf,656704306604d6d4dd458052,21070,2B,woman,NA,NA,W1 is being hugged by W3,hug1,rating_volition,"{""Q0"":0}",[0],W3 wanted to hug W1,W1 wanted to hug W3
null,Beth is being greeted by Luke,NA,NA,NA,html-keyboard-response,49,637589,0.0-21.0-0.0,anomymised,65658308d20c86dae326cedf,656704306604d6d4dd458052,21070,2B,woman,NA,null,W1 is being greeted by M3,greet3,sentence,NA,NA,NA,NA
8458.900000095367,NA,NA,NA,NA,survey-likert-extra-labels,50,646049,0.0-21.0-1.0-0.0,anomymised,65658308d20c86dae326cedf,656704306604d6d4dd458052,21070,2B,woman,NA,NA,W1 is being greeted by M3,greet3,rating_causation,"{""Q0"":6}",[0],W1 started greeting M3 first,M3 started greeting W1 first
4948.800000190735,NA,NA,NA,NA,survey-likert-extra-labels,51,650999,0.0-21.0-2.0,anomymised,65658308d20c86dae326cedf,656704306604d6d4dd458052,21070,2B,woman,NA,NA,W1 is being greeted by M3,greet3,rating_volition,"{""Q0"":6}",[0],W1 wanted to greet M3,M3 wanted to greet W1
null,Mike is being looked at by Kate,NA,NA,NA,html-keyboard-response,52,653016,0.0-22.0-0.0,anomymised,65658308d20c86dae326cedf,656704306604d6d4dd458052,21070,2B,woman,NA,null,M4 is being looked at by W2,look3,sentence,NA,NA,NA,NA
6125.100000143051,NA,NA,NA,NA,survey-likert-extra-labels,53,659143,0.0-22.0-2.0,anomymised,65658308d20c86dae326cedf,656704306604d6d4dd458052,21070,2B,woman,NA,NA,M4 is being looked at by W2,look3,rating_volition,"{""Q0"":6}",[0],M4 wanted to look at W2,W2 wanted to look at M4
3653.7999999523163,NA,NA,NA,NA,survey-likert-extra-labels,54,662798,0.0-22.0-3.0-0.0,anomymised,65658308d20c86dae326cedf,656704306604d6d4dd458052,21070,2B,woman,NA,NA,M4 is being looked at by W2,look3,rating_causation,"{""Q0"":3}",[0],M4 looked at W2 first,W2 looked at M4 first
null,Jane is being touched by Fred,NA,NA,NA,html-keyboard-response,55,664821,0.0-23.0-0.0,anomymised,65658308d20c86dae326cedf,656704306604d6d4dd458052,21070,2B,woman,NA,null,W3 is being touched by M1,touch3,sentence,NA,NA,NA,NA
3917,NA,NA,NA,NA,survey-likert-extra-labels,56,668739,0.0-23.0-2.0,anomymised,65658308d20c86dae326cedf,656704306604d6d4dd458052,21070,2B,woman,NA,NA,W3 is being touched by M1,touch3,rating_volition,"{""Q0"":0}",[0],M1 wanted to touch W3,W3 wanted to touch M1
3197.0999999046326,NA,NA,NA,NA,survey-likert-extra-labels,57,671939,0.0-23.0-3.0-0.0,anomymised,65658308d20c86dae326cedf,656704306604d6d4dd458052,21070,2B,woman,NA,NA,W3 is being touched by M1,touch3,rating_causation,"{""Q0"":3}",[0],M1 asked to touch W3,W3 asked to touch M1
null,Luke is being seduced by Beth,NA,NA,NA,html-keyboard-response,58,673941,0.0-24.0-0.0,anomymised,65658308d20c86dae326cedf,656704306604d6d4dd458052,21070,2B,woman,NA,null,M3 is being seduced by W1,seduce4,sentence,NA,NA,NA,NA
24391.5,NA,NA,NA,NA,survey-likert-extra-labels,59,698333,0.0-24.0-2.0,anomymised,65658308d20c86dae326cedf,656704306604d6d4dd458052,21070,2B,woman,NA,NA,M3 is being seduced by W1,seduce4,rating_volition,"{""Q0"":0}",[0],W1 wanted to seducing M3,M3 wanted to seducing W1
7806.099999904633,NA,NA,NA,NA,survey-likert-extra-labels,60,706142,0.0-24.0-3.0-0.0,anomymised,65658308d20c86dae326cedf,656704306604d6d4dd458052,21070,2B,woman,NA,NA,M3 is being seduced by W1,seduce4,rating_causation,"{""Q0"":0}",[0],W1 started seducing M3 first,M3 started seducing W1 first
null,Beth is chasing Jane,NA,NA,NA,html-keyboard-response,61,708160,0.0-25.0-0.0,anomymised,65658308d20c86dae326cedf,656704306604d6d4dd458052,21070,2B,woman,NA,null,W1 is chasing W3,chase,sentence,NA,NA,NA,NA
3420.2999999523163,NA,NA,NA,NA,survey-likert-extra-labels,62,711582,0.0-25.0-2.0,anomymised,65658308d20c86dae326cedf,656704306604d6d4dd458052,21070,2B,woman,NA,NA,W1 is chasing W3,chase,rating_volition,"{""Q0"":0}",[0],W1 is behind W3,W3 is behind W1
6197.299999952316,NA,NA,NA,NA,survey-likert-extra-labels,63,717782,0.0-25.0-3.0-0.0,anomymised,65658308d20c86dae326cedf,656704306604d6d4dd458052,21070,2B,woman,NA,NA,W1 is chasing W3,chase,rating_causation,"{""Q0"":6}",[0],W1 is running away from W3,W3 is running away from W1
null,Beth is being opposed by Jane,NA,NA,NA,html-keyboard-response,64,719800,0.0-26.0-0.0,anomymised,65658308d20c86dae326cedf,656704306604d6d4dd458052,21070,2B,woman,NA,null,W1 is being opposed by W3,oppose1,sentence,NA,NA,NA,NA
27410.300000190735,NA,NA,NA,NA,survey-likert-extra-labels,65,747212,0.0-26.0-1.0-0.0,anomymised,65658308d20c86dae326cedf,656704306604d6d4dd458052,21070,2B,woman,NA,NA,W1 is being opposed by W3,oppose1,rating_causation,"{""Q0"":0}",[0],W3 started opposing W1,W1 started opposing W3
8007.599999904633,NA,NA,NA,NA,survey-likert-extra-labels,66,755222,0.0-26.0-2.0,anomymised,65658308d20c86dae326cedf,656704306604d6d4dd458052,21070,2B,woman,NA,NA,W1 is being opposed by W3,oppose1,rating_volition,"{""Q0"":0}",[0],W3 wanted to oppose W1,W1 wanted to oppose W3
null,Luke is being kissed by Fred,NA,NA,NA,html-keyboard-response,67,757225,0.0-27.0-0.0,anomymised,65658308d20c86dae326cedf,656704306604d6d4dd458052,21070,2B,woman,NA,null,M3 is being kissed by M1,kiss2,sentence,NA,NA,NA,NA
5021.299999952316,NA,NA,NA,NA,survey-likert-extra-labels,68,762248,0.0-27.0-1.0-0.0,anomymised,65658308d20c86dae326cedf,656704306604d6d4dd458052,21070,2B,woman,NA,NA,M3 is being kissed by M1,kiss2,rating_causation,"{""Q0"":3}",[0],M3 asked to kiss M1,M1 asked to kiss M3
8188.199999809265,NA,NA,NA,NA,survey-likert-extra-labels,69,770438,0.0-27.0-2.0,anomymised,65658308d20c86dae326cedf,656704306604d6d4dd458052,21070,2B,woman,NA,NA,M3 is being kissed by M1,kiss2,rating_volition,"{""Q0"":6}",[0],M3 wanted to kiss M1,M1 wanted to kiss M3
null,Fred is being opposed by Luke,NA,NA,NA,html-keyboard-response,70,772447,0.0-28.0-0.0,anomymised,65658308d20c86dae326cedf,656704306604d6d4dd458052,21070,2B,woman,NA,null,M1 is being opposed by M3,oppose2,sentence,NA,NA,NA,NA
4150.5,NA,NA,NA,NA,survey-likert-extra-labels,71,776599,0.0-28.0-2.0,anomymised,65658308d20c86dae326cedf,656704306604d6d4dd458052,21070,2B,woman,NA,NA,M1 is being opposed by M3,oppose2,rating_volition,"{""Q0"":0}",[0],M3 wanted to oppose M1,M1 wanted to oppose M3
2287,NA,NA,NA,NA,survey-likert-extra-labels,72,778887,0.0-28.0-3.0-0.0,anomymised,65658308d20c86dae326cedf,656704306604d6d4dd458052,21070,2B,woman,NA,NA,M1 is being opposed by M3,oppose2,rating_causation,"{""Q0"":0}",[0],M3 started opposing M1,M1 started opposing M3
null,Fred is being copied by Jane,NA,NA,NA,html-keyboard-response,73,780899,0.0-29.0-0.0,anomymised,65658308d20c86dae326cedf,656704306604d6d4dd458052,21070,2B,woman,NA,null,M1 is being copied by W3,copy3,sentence,NA,NA,NA,NA
3068.0999999046326,NA,NA,NA,NA,survey-likert-extra-labels,74,783969,0.0-29.0-2.0,anomymised,65658308d20c86dae326cedf,656704306604d6d4dd458052,21070,2B,woman,NA,NA,M1 is being copied by W3,copy3,rating_volition,"{""Q0"":6}",[0],M1 wanted to copy W3,W3 wanted to copy M1
4604.799999952316,NA,NA,NA,NA,survey-likert-extra-labels,75,788575,0.0-29.0-3.0-0.0,anomymised,65658308d20c86dae326cedf,656704306604d6d4dd458052,21070,2B,woman,NA,NA,M1 is being copied by W3,copy3,rating_causation,"{""Q0"":3}",[0],M1 started copying W3 first,W3 started copying M1 first
null,Jane is being looked at by Beth,NA,NA,NA,html-keyboard-response,76,790592,0.0-30.0-0.0,anomymised,65658308d20c86dae326cedf,656704306604d6d4dd458052,21070,2B,woman,NA,null,W3 is being looked at by W1,look1,sentence,NA,NA,NA,NA
3909.5999999046326,NA,NA,NA,NA,survey-likert-extra-labels,77,794503,0.0-30.0-2.0,anomymised,65658308d20c86dae326cedf,656704306604d6d4dd458052,21070,2B,woman,NA,NA,W3 is being looked at by W1,look1,rating_volition,"{""Q0"":6}",[0],W3 wanted to look at W1,W1 wanted to look at W3
4061.7000000476837,NA,NA,NA,NA,survey-likert-extra-labels,78,798567,0.0-30.0-3.0-0.0,anomymised,65658308d20c86dae326cedf,656704306604d6d4dd458052,21070,2B,woman,NA,NA,W3 is being looked at by W1,look1,rating_causation,"{""Q0"":6}",[0],W3 looked at W1 first,W1 looked at W3 first
null,Fred is being hugged by Luke,NA,NA,NA,html-keyboard-response,79,800573,0.0-31.0-0.0,anomymised,65658308d20c86dae326cedf,656704306604d6d4dd458052,21070,2B,woman,NA,null,M1 is being hugged by M3,hug2,sentence,NA,NA,NA,NA
2407.7999999523163,NA,NA,NA,NA,survey-likert-extra-labels,80,802982,0.0-31.0-2.0,anomymised,65658308d20c86dae326cedf,656704306604d6d4dd458052,21070,2B,woman,NA,NA,M1 is being hugged by M3,hug2,rating_volition,"{""Q0"":0}",[0],M3 wanted to hug M1,M1 wanted to hug M3
3093.600000143051,NA,NA,NA,NA,survey-likert-extra-labels,81,806077,0.0-31.0-3.0-0.0,anomymised,65658308d20c86dae326cedf,656704306604d6d4dd458052,21070,2B,woman,NA,NA,M1 is being hugged by M3,hug2,rating_causation,"{""Q0"":3}",[0],M3 asked to hug M1,M1 asked to hug M3
null,Dave is being shouted at by Ruth,NA,NA,NA,html-keyboard-response,82,808098,0.0-32.0-0.0,anomymised,65658308d20c86dae326cedf,656704306604d6d4dd458052,21070,2B,woman,NA,null,M2 is being shouted at by W4,shout3,sentence,NA,NA,NA,NA
2962.0999999046326,NA,NA,NA,NA,survey-likert-extra-labels,83,811062,0.0-32.0-2.0,anomymised,65658308d20c86dae326cedf,656704306604d6d4dd458052,21070,2B,woman,NA,NA,M2 is being shouted at by W4,shout3,rating_volition,"{""Q0"":0}",[0],W4 wanted to shout at M2,M2 wanted to shout at W4
2940.7999999523163,NA,NA,NA,NA,survey-likert-extra-labels,84,814005,0.0-32.0-3.0-0.0,anomymised,65658308d20c86dae326cedf,656704306604d6d4dd458052,21070,2B,woman,NA,NA,M2 is being shouted at by W4,shout3,rating_causation,"{""Q0"":0}",[0],W4 shouted at M2 first,M2 shouted at W4 first
null,Jane is being kissed by Beth,NA,NA,NA,html-keyboard-response,85,816009,0.0-33.0-0.0,anomymised,65658308d20c86dae326cedf,656704306604d6d4dd458052,21070,2B,woman,NA,null,W3 is being kissed by W1,kiss1,sentence,NA,NA,NA,NA
3116.9000000953674,NA,NA,NA,NA,survey-likert-extra-labels,86,819128,0.0-33.0-2.0,anomymised,65658308d20c86dae326cedf,656704306604d6d4dd458052,21070,2B,woman,NA,NA,W3 is being kissed by W1,kiss1,rating_volition,"{""Q0"":6}",[0],W3 wanted to kiss W1,W1 wanted to kiss W3
2603.899999856949,NA,NA,NA,NA,survey-likert-extra-labels,87,821734,0.0-33.0-3.0-0.0,anomymised,65658308d20c86dae326cedf,656704306604d6d4dd458052,21070,2B,woman,NA,NA,W3 is being kissed by W1,kiss1,rating_causation,"{""Q0"":3}",[0],W3 asked to kiss W1,W1 asked to kiss W3
null,Kate is being shouted at by Mike,NA,NA,NA,html-keyboard-response,88,823752,0.0-34.0-0.0,anomymised,65658308d20c86dae326cedf,656704306604d6d4dd458052,21070,2B,woman,NA,null,W2 is being shouted at by M4,shout4,sentence,NA,NA,NA,NA
2614,NA,NA,NA,NA,survey-likert-extra-labels,89,826368,0.0-34.0-2.0,anomymised,65658308d20c86dae326cedf,656704306604d6d4dd458052,21070,2B,woman,NA,NA,W2 is being shouted at by M4,shout4,rating_volition,"{""Q0"":0}",[0],M4 wanted to shout at W2,W2 wanted to shout at M4
2625.9000000953674,NA,NA,NA,NA,survey-likert-extra-labels,90,828995,0.0-34.0-3.0-0.0,anomymised,65658308d20c86dae326cedf,656704306604d6d4dd458052,21070,2B,woman,NA,NA,W2 is being shouted at by M4,shout4,rating_causation,"{""Q0"":0}",[0],M4 shouted at W2 first,W2 shouted at M4 first
null,Fred is driving Luke,NA,NA,NA,html-keyboard-response,91,831004,0.0-35.0-0.0,anomymised,65658308d20c86dae326cedf,656704306604d6d4dd458052,21070,2B,woman,NA,null,M1 is driving M3,drive,sentence,NA,NA,NA,NA
3408,NA,NA,NA,NA,survey-likert-extra-labels,92,834413,0.0-35.0-2.0,anomymised,65658308d20c86dae326cedf,656704306604d6d4dd458052,21070,2B,woman,NA,NA,M1 is driving M3,drive,rating_volition,"{""Q0"":0}",[0],M1 is M3's passenger,M3 is M1's passenger
9913.600000143051,NA,NA,NA,NA,survey-likert-extra-labels,93,844328,0.0-35.0-3.0-0.0,anomymised,65658308d20c86dae326cedf,656704306604d6d4dd458052,21070,2B,woman,NA,NA,M1 is driving M3,drive,rating_causation,"{""Q0"":0}",[0],M1 is taking M3 somewhere,M3 is taking M1 somewhere
null,Jane is being seduced by Fred,NA,NA,NA,html-keyboard-response,94,846340,0.0-36.0-0.0,anomymised,65658308d20c86dae326cedf,656704306604d6d4dd458052,21070,2B,woman,NA,null,W3 is being seduced by M1,seduce3,sentence,NA,NA,NA,NA
2278.100000143051,NA,NA,NA,NA,survey-likert-extra-labels,95,848619,0.0-36.0-2.0,anomymised,65658308d20c86dae326cedf,656704306604d6d4dd458052,21070,2B,woman,NA,NA,W3 is being seduced by M1,seduce3,rating_volition,"{""Q0"":0}",[0],M1 wanted to seduce W3,W3 wanted to seduce M1
2447.699999809265,NA,NA,NA,NA,survey-likert-extra-labels,96,851068,0.0-36.0-3.0-0.0,anomymised,65658308d20c86dae326cedf,656704306604d6d4dd458052,21070,2B,woman,NA,NA,W3 is being seduced by M1,seduce3,rating_causation,"{""Q0"":0}",[0],M1 started seducing W3 first,W3 started seducing M1 first
null,Beth is being shouted at by Jane,NA,NA,NA,html-keyboard-response,97,853082,0.0-37.0-0.0,anomymised,65658308d20c86dae326cedf,656704306604d6d4dd458052,21070,2B,woman,NA,null,W1 is being shouted at by W3,shout1,sentence,NA,NA,NA,NA
6516.5,NA,NA,NA,NA,survey-likert-extra-labels,98,859600,0.0-37.0-2.0,anomymised,65658308d20c86dae326cedf,656704306604d6d4dd458052,21070,2B,woman,NA,NA,W1 is being shouted at by W3,shout1,rating_volition,"{""Q0"":0}",[0],W3 wanted to shout at W1,W1 wanted to shout at W3
5264.599999904633,NA,NA,NA,NA,survey-likert-extra-labels,99,864866,0.0-37.0-3.0-0.0,anomymised,65658308d20c86dae326cedf,656704306604d6d4dd458052,21070,2B,woman,NA,NA,W1 is being shouted at by W3,shout1,rating_causation,"{""Q0"":3}",[0],W3 shouted at W1 first,W1 shouted at W3 first
null,Kate is carrying Ruth,NA,NA,NA,html-keyboard-response,100,866875,0.0-38.0-0.0,anomymised,65658308d20c86dae326cedf,656704306604d6d4dd458052,21070,2B,woman,NA,null,W2 is carrying W4,carry,sentence,NA,NA,NA,NA
3870.399999856949,NA,NA,NA,NA,survey-likert-extra-labels,101,870747,0.0-38.0-1.0-0.0,anomymised,65658308d20c86dae326cedf,656704306604d6d4dd458052,21070,2B,woman,NA,NA,W2 is carrying W4,carry,rating_causation,"{""Q0"":6}",[0],W2 is being moved by W4,W4 is being moved by W2
4708.299999952316,NA,NA,NA,NA,survey-likert-extra-labels,102,875457,0.0-38.0-2.0,anomymised,65658308d20c86dae326cedf,656704306604d6d4dd458052,21070,2B,woman,NA,NA,W2 is carrying W4,carry,rating_volition,"{""Q0"":0}",[0],W2 is transporting W4,W4 is transporting W2
null,Dave is being touched by Mike,NA,NA,NA,html-keyboard-response,103,877475,0.0-39.0-0.0,anomymised,65658308d20c86dae326cedf,656704306604d6d4dd458052,21070,2B,woman,NA,null,M2 is being touched by M4,touch2,sentence,NA,NA,NA,NA
2883.5999999046326,NA,NA,NA,NA,survey-likert-extra-labels,104,880361,0.0-39.0-1.0-0.0,anomymised,65658308d20c86dae326cedf,656704306604d6d4dd458052,21070,2B,woman,NA,NA,M2 is being touched by M4,touch2,rating_causation,"{""Q0"":3}",[0],M4 asked to touch M2,M2 asked to touch M4
2474.2999999523163,NA,NA,NA,NA,survey-likert-extra-labels,105,882836,0.0-39.0-2.0,anomymised,65658308d20c86dae326cedf,656704306604d6d4dd458052,21070,2B,woman,NA,NA,M2 is being touched by M4,touch2,rating_volition,"{""Q0"":0}",[0],M4 wanted to touch M2,M2 wanted to touch M4
null,Dave is being challenged by Mike,NA,NA,NA,html-keyboard-response,106,884838,0.0-40.0-0.0,anomymised,65658308d20c86dae326cedf,656704306604d6d4dd458052,21070,2B,woman,NA,null,M2 is being challenged by M4,challenge2,sentence,NA,NA,NA,NA
4364.299999952316,NA,NA,NA,NA,survey-likert-extra-labels,107,889203,0.0-40.0-1.0-0.0,anomymised,65658308d20c86dae326cedf,656704306604d6d4dd458052,21070,2B,woman,NA,NA,M2 is being challenged by M4,challenge2,rating_causation,"{""Q0"":3}",[0],M4 started challenging M2 first,M2 started challenging M4 first
2445.699999809265,NA,NA,NA,NA,survey-likert-extra-labels,108,891651,0.0-40.0-2.0,anomymised,65658308d20c86dae326cedf,656704306604d6d4dd458052,21070,2B,woman,NA,NA,M2 is being challenged by M4,challenge2,rating_volition,"{""Q0"":0}",[0],M4 wanted to challenge M2,M2 wanted to challenge M4
null,Ruth is being kissed by Dave,NA,NA,NA,html-keyboard-response,109,893664,0.0-41.0-0.0,anomymised,65658308d20c86dae326cedf,656704306604d6d4dd458052,21070,2B,woman,NA,null,W4 is being kissed by M2,kiss3,sentence,NA,NA,NA,NA
3899.2999999523163,NA,NA,NA,NA,survey-likert-extra-labels,110,897565,0.0-41.0-1.0-0.0,anomymised,65658308d20c86dae326cedf,656704306604d6d4dd458052,21070,2B,woman,NA,NA,W4 is being kissed by M2,kiss3,rating_causation,"{""Q0"":3}",[0],W4 asked to kiss M2,M2 asked to kiss W4
3242.7000000476837,NA,NA,NA,NA,survey-likert-extra-labels,111,900809,0.0-41.0-2.0,anomymised,65658308d20c86dae326cedf,656704306604d6d4dd458052,21070,2B,woman,NA,NA,W4 is being kissed by M2,kiss3,rating_volition,"{""Q0"":6}",[0],W4 wanted to kiss M2,M2 wanted to kiss W4
null,Dave is being opposed by Ruth,NA,NA,NA,html-keyboard-response,112,902824,0.0-42.0-0.0,anomymised,65658308d20c86dae326cedf,656704306604d6d4dd458052,21070,2B,woman,NA,null,M2 is being opposed by W4,oppose4,sentence,NA,NA,NA,NA
3616.9000000953674,NA,NA,NA,NA,survey-likert-extra-labels,113,906442,0.0-42.0-2.0,anomymised,65658308d20c86dae326cedf,656704306604d6d4dd458052,21070,2B,woman,NA,NA,M2 is being opposed by W4,oppose4,rating_volition,"{""Q0"":0}",[0],W4 wanted to oppose M2,M2 wanted to oppose W4
2240.2999999523163,NA,NA,NA,NA,survey-likert-extra-labels,114,908684,0.0-42.0-3.0-0.0,anomymised,65658308d20c86dae326cedf,656704306604d6d4dd458052,21070,2B,woman,NA,NA,M2 is being opposed by W4,oppose4,rating_causation,"{""Q0"":3}",[0],W4 started opposing M2,M2 started opposing W4
null,Luke is hiring Beth,NA,NA,NA,html-keyboard-response,115,910689,0.0-43.0-0.0,anomymised,65658308d20c86dae326cedf,656704306604d6d4dd458052,21070,2B,woman,NA,null,M3 is hiring W1,hire,sentence,NA,NA,NA,NA
2777.899999856949,NA,NA,NA,NA,survey-likert-extra-labels,116,913468,0.0-43.0-2.0,anomymised,65658308d20c86dae326cedf,656704306604d6d4dd458052,21070,2B,woman,NA,NA,M3 is hiring W1,hire,rating_volition,"{""Q0"":0}",[0],M3 is employing W1,W1 is employing M3
3010.800000190735,NA,NA,NA,NA,survey-likert-extra-labels,117,916480,0.0-43.0-3.0-0.0,anomymised,65658308d20c86dae326cedf,656704306604d6d4dd458052,21070,2B,woman,NA,NA,M3 is hiring W1,hire,rating_causation,"{""Q0"":6}",[0],M3 will work for W1,W1 will work for M3
null,Luke is being touched by Beth,NA,NA,NA,html-keyboard-response,118,918489,0.0-44.0-0.0,anomymised,65658308d20c86dae326cedf,656704306604d6d4dd458052,21070,2B,woman,NA,null,M3 is being touched by W1,touch4,sentence,NA,NA,NA,NA
3643.600000143051,NA,NA,NA,NA,survey-likert-extra-labels,119,922134,0.0-44.0-1.0-0.0,anomymised,65658308d20c86dae326cedf,656704306604d6d4dd458052,21070,2B,woman,NA,NA,M3 is being touched by W1,touch4,rating_causation,"{""Q0"":3}",[0],W1 asked to touch M3,M3 asked to touch W1
2411.2000000476837,NA,NA,NA,NA,survey-likert-extra-labels,120,924547,0.0-44.0-2.0,anomymised,65658308d20c86dae326cedf,656704306604d6d4dd458052,21070,2B,woman,NA,NA,M3 is being touched by W1,touch4,rating_volition,"{""Q0"":0}",[0],W1 wanted to touch M3,M3 wanted to touch W1
null,Mike is being kissed by Kate,NA,NA,NA,html-keyboard-response,121,926560,0.0-45.0-0.0,anomymised,65658308d20c86dae326cedf,656704306604d6d4dd458052,21070,2B,woman,NA,null,M4 is being kissed by W2,kiss4,sentence,NA,NA,NA,NA
2723.5,NA,NA,NA,NA,survey-likert-extra-labels,122,929285,0.0-45.0-2.0,anomymised,65658308d20c86dae326cedf,656704306604d6d4dd458052,21070,2B,woman,NA,NA,M4 is being kissed by W2,kiss4,rating_volition,"{""Q0"":6}",[0],M4 wanted to kiss W2,W2 wanted to kiss M4
3409.5,NA,NA,NA,NA,survey-likert-extra-labels,123,932696,0.0-45.0-3.0-0.0,anomymised,65658308d20c86dae326cedf,656704306604d6d4dd458052,21070,2B,woman,NA,NA,M4 is being kissed by W2,kiss4,rating_causation,"{""Q0"":3}",[0],M4 asked to kiss W2,W2 asked to kiss M4
null,Ruth is being looked at by Dave,NA,NA,NA,html-keyboard-response,124,934716,0.0-46.0-0.0,anomymised,65658308d20c86dae326cedf,656704306604d6d4dd458052,21070,2B,woman,NA,null,W4 is being looked at by M2,look4,sentence,NA,NA,NA,NA
13909.099999904633,NA,NA,NA,NA,survey-likert-extra-labels,125,948627,0.0-46.0-1.0-0.0,anomymised,65658308d20c86dae326cedf,656704306604d6d4dd458052,21070,2B,woman,NA,NA,W4 is being looked at by M2,look4,rating_causation,"{""Q0"":3}",[0],W4 looked at M2 first,M2 looked at W4 first
3759.600000143051,NA,NA,NA,NA,survey-likert-extra-labels,126,952388,0.0-46.0-2.0,anomymised,65658308d20c86dae326cedf,656704306604d6d4dd458052,21070,2B,woman,NA,NA,W4 is being looked at by M2,look4,rating_volition,"{""Q0"":6}",[0],W4 wanted to look at M2,M2 wanted to look at W4
null,Beth is being copied by Luke,NA,NA,NA,html-keyboard-response,127,954391,0.0-47.0-0.0,anomymised,65658308d20c86dae326cedf,656704306604d6d4dd458052,21070,2B,woman,NA,null,W1 is being copied by M3,copy4,sentence,NA,NA,NA,NA
3310.899999856949,NA,NA,NA,NA,survey-likert-extra-labels,128,957704,0.0-47.0-1.0-0.0,anomymised,65658308d20c86dae326cedf,656704306604d6d4dd458052,21070,2B,woman,NA,NA,W1 is being copied by M3,copy4,rating_causation,"{""Q0"":6}",[0],W1 started copying M3 first,M3 started copying W1 first
3422.100000143051,NA,NA,NA,NA,survey-likert-extra-labels,129,961127,0.0-47.0-2.0,anomymised,65658308d20c86dae326cedf,656704306604d6d4dd458052,21070,2B,woman,NA,NA,W1 is being copied by M3,copy4,rating_volition,"{""Q0"":6}",[0],W1 wanted to copy M3,M3 wanted to copy W1
null,Jane is being challenged by Fred,NA,NA,NA,html-keyboard-response,130,963132,0.0-48.0-0.0,anomymised,65658308d20c86dae326cedf,656704306604d6d4dd458052,21070,2B,woman,NA,null,W3 is being challenged by M1,challenge4,sentence,NA,NA,NA,NA
3390,NA,NA,NA,NA,survey-likert-extra-labels,131,966524,0.0-48.0-1.0-0.0,anomymised,65658308d20c86dae326cedf,656704306604d6d4dd458052,21070,2B,woman,NA,NA,W3 is being challenged by M1,challenge4,rating_causation,"{""Q0"":0}",[0],M1 started challenging W3 first,W3 started challenging M1 first
3189.100000143051,NA,NA,NA,NA,survey-likert-extra-labels,132,969714,0.0-48.0-2.0,anomymised,65658308d20c86dae326cedf,656704306604d6d4dd458052,21070,2B,woman,NA,NA,W3 is being challenged by M1,challenge4,rating_volition,"{""Q0"":0}",[0],M1 wanted to challenge W3,W3 wanted to challenge M1
null,Dave is being seduced by Mike,NA,NA,NA,html-keyboard-response,133,971727,0.0-49.0-0.0,anomymised,65658308d20c86dae326cedf,656704306604d6d4dd458052,21070,2B,woman,NA,null,M2 is being seduced by M4,seduce2,sentence,NA,NA,NA,NA
4442.400000095367,NA,NA,NA,NA,survey-likert-extra-labels,134,976171,0.0-49.0-2.0,anomymised,65658308d20c86dae326cedf,656704306604d6d4dd458052,21070,2B,woman,NA,NA,M2 is being seduced by M4,seduce2,rating_volition,"{""Q0"":0}",[0],M4 wanted to seduce M2,M2 wanted to seduce M4
2837.0999999046326,NA,NA,NA,NA,survey-likert-extra-labels,135,979010,0.0-49.0-3.0-0.0,anomymised,65658308d20c86dae326cedf,656704306604d6d4dd458052,21070,2B,woman,NA,NA,M2 is being seduced by M4,seduce2,rating_causation,"{""Q0"":0}",[0],M4 started seducing M2 first,M2 started seducing M4 first
null,Kate is being seduced by Ruth,NA,NA,NA,html-keyboard-response,136,981018,0.0-50.0-0.0,anomymised,65658308d20c86dae326cedf,656704306604d6d4dd458052,21070,2B,woman,NA,null,W2 is being seduced by W4,seduce1,sentence,NA,NA,NA,NA
5919.699999809265,NA,NA,NA,NA,survey-likert-extra-labels,137,986938,0.0-50.0-1.0-0.0,anomymised,65658308d20c86dae326cedf,656704306604d6d4dd458052,21070,2B,woman,NA,NA,W2 is being seduced by W4,seduce1,rating_causation,"{""Q0"":0}",[0],W4 started seducing W2 first,W2 started seducing W4 first
2514.7999999523163,NA,NA,NA,NA,survey-likert-extra-labels,138,989455,0.0-50.0-2.0,anomymised,65658308d20c86dae326cedf,656704306604d6d4dd458052,21070,2B,woman,NA,NA,W2 is being seduced by W4,seduce1,rating_volition,"{""Q0"":0}",[0],W4 wanted to seduce W2,W2 wanted to seduce W4
null,Fred is being shouted at by Luke,NA,NA,NA,html-keyboard-response,139,991460,0.0-51.0-0.0,anomymised,65658308d20c86dae326cedf,656704306604d6d4dd458052,21070,2B,woman,NA,null,M1 is being shouted at by M3,shout2,sentence,NA,NA,NA,NA
3886.9000000953674,NA,NA,NA,NA,survey-likert-extra-labels,140,995348,0.0-51.0-2.0,anomymised,65658308d20c86dae326cedf,656704306604d6d4dd458052,21070,2B,woman,NA,NA,M1 is being shouted at by M3,shout2,rating_volition,"{""Q0"":0}",[0],M3 wanted to shout at M1,M1 wanted to shout at M3
3277.7000000476837,NA,NA,NA,NA,survey-likert-extra-labels,141,998627,0.0-51.0-3.0-0.0,anomymised,65658308d20c86dae326cedf,656704306604d6d4dd458052,21070,2B,woman,NA,NA,M1 is being shouted at by M3,shout2,rating_causation,"{""Q0"":3}",[0],M3 shouted at M1 first,M1 shouted at M3 first
null,Dave is reminding Ruth,NA,NA,NA,html-keyboard-response,142,1000629,0.0-52.0-0.0,anomymised,65658308d20c86dae326cedf,656704306604d6d4dd458052,21070,2B,woman,NA,null,M2 is reminding W4,remind,sentence,NA,NA,NA,NA
5580.899999856949,NA,NA,NA,NA,survey-likert-extra-labels,143,1006211,0.0-52.0-1.0-0.0,anomymised,65658308d20c86dae326cedf,656704306604d6d4dd458052,21070,2B,woman,NA,NA,M2 is reminding W4,remind,rating_causation,"{""Q0"":3}",[0],M2 is remembering,W4 is remembering
4921.899999856949,NA,NA,NA,NA,survey-likert-extra-labels,144,1011134,0.0-52.0-2.0,anomymised,65658308d20c86dae326cedf,656704306604d6d4dd458052,21070,2B,woman,NA,NA,M2 is reminding W4,remind,rating_volition,"{""Q0"":0}",[0],M2 is telling W4 again,W4 is telling M2 again
null,Fred is being greeted by Jane,NA,NA,NA,html-keyboard-response,145,1013141,0.0-53.0-0.0,anomymised,65658308d20c86dae326cedf,656704306604d6d4dd458052,21070,2B,woman,NA,null,M1 is being greeted by W3,greet4,sentence,NA,NA,NA,NA
4642.199999809265,NA,NA,NA,NA,survey-likert-extra-labels,146,1017785,0.0-53.0-2.0,anomymised,65658308d20c86dae326cedf,656704306604d6d4dd458052,21070,2B,woman,NA,NA,M1 is being greeted by W3,greet4,rating_volition,"{""Q0"":6}",[0],M1 wanted to greet W3,W3 wanted to greet M1
1468.7999999523163,NA,NA,NA,NA,survey-likert-extra-labels,147,1019256,0.0-53.0-3.0-0.0,anomymised,65658308d20c86dae326cedf,656704306604d6d4dd458052,21070,2B,woman,NA,NA,M1 is being greeted by W3,greet4,rating_causation,"{""Q0"":""""}",[0],M1 started greeting W3 first,W3 started greeting M1 first
null,Kate is teaching Mike,NA,NA,NA,html-keyboard-response,148,1021259,0.0-54.0-0.0,anomymised,65658308d20c86dae326cedf,656704306604d6d4dd458052,21070,2B,woman,NA,null,W2 is teaching M4,teach,sentence,NA,NA,NA,NA
5484.200000047684,NA,NA,NA,NA,survey-likert-extra-labels,149,1026745,0.0-54.0-2.0,anomymised,65658308d20c86dae326cedf,656704306604d6d4dd458052,21070,2B,woman,NA,NA,W2 is teaching M4,teach,rating_volition,"{""Q0"":0}",[0],W2 is educating M4,M4 is educating W2
3270.5,NA,NA,NA,NA,survey-likert-extra-labels,150,1030017,0.0-54.0-3.0-0.0,anomymised,65658308d20c86dae326cedf,656704306604d6d4dd458052,21070,2B,woman,NA,NA,W2 is teaching M4,teach,rating_causation,"{""Q0"":6}",[0],W2 is learning from M4,M4 is learning from W2
1828,<p>Thank you for completing that task.</p><p>The final part of this session is a short questionnaire.</p><p>Press Continue.</p>,0,Continue,Continue,html-button-response,151,1031846,0.0-55.0,anomymised,65658308d20c86dae326cedf,656704306604d6d4dd458052,21070,2B,woman,NA,NA,NA,NA,NA,NA,NA,NA,NA
27470.699999809265,NA,NA,NA,NA,survey-text,152,1060329,0.0-56.0,anomymised,65658308d20c86dae326cedf,656704306604d6d4dd458052,21070,2B,woman,NA,NA,NA,NA,demographics,"{""Q0"":""36"",""Q1"":""english"",""Q2"":""english"",""Q3"":""england"",""Q4"":""british"",""Q5"":""white "",""Q6"":""female""}",NA,NA,NA
3091.7999999523163,<p>This is the last question - thank you for taking part! Have you lived in the UK for the last 5 years or more?</p>,0,"Yes,No",Yes,html-button-response,153,1063422,0.0-57.0,anomymised,65658308d20c86dae326cedf,656704306604d6d4dd458052,21070,2B,woman,NA,NA,NA,NA,fiveyears,NA,NA,NA,NA
