rt,stimulus,button_pressed,choices,ChosenStimulus,trial_type,trial_index,time_elapsed,internal_node_id,subject_id,study_id,session_id,subject,list,ppt_gender,url,key_press,sentence_type,verb,test_part,responses,question_order,left_part,right_part
3261.7999999988824,Welcome to the experiment. Press Continue to begin.,0,Continue,Continue,html-button-response,0,3264,0.0-0.0,anomymised,65658159d48bb6bd55b14990,65671a1a0694a63a153fd451,22216,1C,man,NA,NA,NA,NA,NA,NA,NA,NA,NA
41472.90000000037,NA,NA,NA,NA,external-html,1,45830,0.0-1.0,anomymised,65658159d48bb6bd55b14990,65671a1a0694a63a153fd451,22216,1C,man,consent.html,NA,NA,NA,NA,NA,NA,NA,NA
18348.199999999255,"<p>Welcome.</p><p>In this experiment we will ask you to imagine some situations.</p><p>Each trial starts with a description of an event.</p><p>Then you will see alternative descriptions of that event, and you will rate on a scale how best they match the original description.</p><p>You will give your answer by clicking a button on a rating scale.</p><p>To do this task, you will have to use your imagination to visualise these events.</p><br><p>Ready?</p>",0,Continue,Continue,html-button-response,2,64179,0.0-2.0,anomymised,65658159d48bb6bd55b14990,65671a1a0694a63a153fd451,22216,1C,man,NA,NA,NA,NA,NA,NA,NA,NA,NA
3436.7999999988824,"<p>Before the experiment starts, you will watch an example trial. Press 'Continue'.</p>",0,Continue,Continue,html-button-response,3,68626,0.0-3.0,anomymised,65658159d48bb6bd55b14990,65671a1a0694a63a153fd451,22216,1C,man,NA,NA,NA,NA,NA,NA,NA,NA,NA
null,The police officer is arresting the robber,NA,NA,NA,html-keyboard-response,4,71642,0.0-4.0,anomymised,65658159d48bb6bd55b14990,65671a1a0694a63a153fd451,22216,1C,man,NA,null,NA,NA,NA,NA,NA,NA,NA
17502,<img src='img/Example-trial.jpg' style='height:550px;''></img>,0,Continue,Continue,html-button-response,5,89145,0.0-5.0,anomymised,65658159d48bb6bd55b14990,65671a1a0694a63a153fd451,22216,1C,man,NA,NA,NA,NA,NA,NA,NA,NA,NA
4519.9000000003725,<p>Ready to start the experiment?</p><br><p><strong>Remember to give an answer by clicking a button on the rating scale.</strong></p><p>Press 'Continue' to begin.</p>,0,Continue,Continue,html-button-response,6,94675,0.0-6.0,anomymised,65658159d48bb6bd55b14990,65671a1a0694a63a153fd451,22216,1C,man,NA,NA,NA,NA,NA,NA,NA,NA,NA
null,Kate is feeding Luke,NA,NA,NA,html-keyboard-response,7,97684,0.0-7.0-0.0,anomymised,65658159d48bb6bd55b14990,65671a1a0694a63a153fd451,22216,1C,man,NA,null,W3 is feeding M1,feed,sentence,NA,NA,NA,NA
13085.200000001118,NA,NA,NA,NA,survey-likert-extra-labels,8,110771,0.0-7.0-1.0-0.0,anomymised,65658159d48bb6bd55b14990,65671a1a0694a63a153fd451,22216,1C,man,NA,NA,W3 is feeding M1,feed,rating_causation,"{""Q0"":5}",[0],W3 is eating M1's food,M1 is eating W3's food
8867.5,NA,NA,NA,NA,survey-likert-extra-labels,9,119640,0.0-7.0-2.0,anomymised,65658159d48bb6bd55b14990,65671a1a0694a63a153fd451,22216,1C,man,NA,NA,W3 is feeding M1,feed,rating_volition,"{""Q0"":3}",[0],W3 cooked for M1,M1 cooked for W3
null,Jane is being kissed by Dave,NA,NA,NA,html-keyboard-response,10,121642,0.0-8.0-0.0,anomymised,65658159d48bb6bd55b14990,65671a1a0694a63a153fd451,22216,1C,man,NA,null,W2 is being kissed by M4,kiss4,sentence,NA,NA,NA,NA
6980.699999999255,NA,NA,NA,NA,survey-likert-extra-labels,11,128623,0.0-8.0-2.0,anomymised,65658159d48bb6bd55b14990,65671a1a0694a63a153fd451,22216,1C,man,NA,NA,W2 is being kissed by M4,kiss4,rating_volition,"{""Q0"":5}",[0],W2 wanted to kiss M4,M4 wanted to kiss W2
7185.9000000003725,NA,NA,NA,NA,survey-likert-extra-labels,12,135811,0.0-8.0-3.0-0.0,anomymised,65658159d48bb6bd55b14990,65671a1a0694a63a153fd451,22216,1C,man,NA,NA,W2 is being kissed by M4,kiss4,rating_causation,"{""Q0"":2}",[0],W2 asked to kiss M4,M4 asked to kiss W2
null,Beth is being shouted at by Mike,NA,NA,NA,html-keyboard-response,13,137816,0.0-9.0-0.0,anomymised,65658159d48bb6bd55b14990,65671a1a0694a63a153fd451,22216,1C,man,NA,null,W4 is being shouted at by M2,shout3,sentence,NA,NA,NA,NA
9094.5,NA,NA,NA,NA,survey-likert-extra-labels,14,146911,0.0-9.0-2.0,anomymised,65658159d48bb6bd55b14990,65671a1a0694a63a153fd451,22216,1C,man,NA,NA,W4 is being shouted at by M2,shout3,rating_volition,"{""Q0"":0}",[0],M2 wanted to shout at W4,W4 wanted to shout at M2
6340.5,NA,NA,NA,NA,survey-likert-extra-labels,15,153253,0.0-9.0-3.0-0.0,anomymised,65658159d48bb6bd55b14990,65671a1a0694a63a153fd451,22216,1C,man,NA,NA,W4 is being shouted at by M2,shout3,rating_causation,"{""Q0"":3}",[0],M2 shouted at W4 first,W4 shouted at M2 first
null,Dave is being opposed by Jane,NA,NA,NA,html-keyboard-response,16,155269,0.0-10.0-0.0,anomymised,65658159d48bb6bd55b14990,65671a1a0694a63a153fd451,22216,1C,man,NA,null,M4 is being opposed by W2,oppose3,sentence,NA,NA,NA,NA
7351.60000000149,NA,NA,NA,NA,survey-likert-extra-labels,17,162621,0.0-10.0-1.0-0.0,anomymised,65658159d48bb6bd55b14990,65671a1a0694a63a153fd451,22216,1C,man,NA,NA,M4 is being opposed by W2,oppose3,rating_causation,"{""Q0"":0}",[0],W2 started opposing M4,M4 started opposing W2
8383.10000000149,NA,NA,NA,NA,survey-likert-extra-labels,18,171006,0.0-10.0-2.0,anomymised,65658159d48bb6bd55b14990,65671a1a0694a63a153fd451,22216,1C,man,NA,NA,M4 is being opposed by W2,oppose3,rating_volition,"{""Q0"":5}",[0],W2 wanted to oppose M4,M4 wanted to oppose W2
null,Beth is being touched by Jane,NA,NA,NA,html-keyboard-response,19,173020,0.0-11.0-0.0,anomymised,65658159d48bb6bd55b14990,65671a1a0694a63a153fd451,22216,1C,man,NA,null,W4 is being touched by W2,touch1,sentence,NA,NA,NA,NA
5934.10000000149,NA,NA,NA,NA,survey-likert-extra-labels,20,178955,0.0-11.0-1.0-0.0,anomymised,65658159d48bb6bd55b14990,65671a1a0694a63a153fd451,22216,1C,man,NA,NA,W4 is being touched by W2,touch1,rating_causation,"{""Q0"":3}",[0],W2 asked to touch W4,W4 asked to touch W2
5791,NA,NA,NA,NA,survey-likert-extra-labels,21,184747,0.0-11.0-2.0,anomymised,65658159d48bb6bd55b14990,65671a1a0694a63a153fd451,22216,1C,man,NA,NA,W4 is being touched by W2,touch1,rating_volition,"{""Q0"":5}",[0],W2 wanted to touch W4,W4 wanted to touch W2
null,Luke is being touched by Kate,NA,NA,NA,html-keyboard-response,22,186763,0.0-12.0-0.0,anomymised,65658159d48bb6bd55b14990,65671a1a0694a63a153fd451,22216,1C,man,NA,null,M1 is being touched by W3,touch3,sentence,NA,NA,NA,NA
7530,NA,NA,NA,NA,survey-likert-extra-labels,23,194294,0.0-12.0-1.0-0.0,anomymised,65658159d48bb6bd55b14990,65671a1a0694a63a153fd451,22216,1C,man,NA,NA,M1 is being touched by W3,touch3,rating_causation,"{""Q0"":3}",[0],W3 asked to touch M1,M1 asked to touch W3
8630.800000000745,NA,NA,NA,NA,survey-likert-extra-labels,24,202926,0.0-12.0-2.0,anomymised,65658159d48bb6bd55b14990,65671a1a0694a63a153fd451,22216,1C,man,NA,NA,M1 is being touched by W3,touch3,rating_volition,"{""Q0"":1}",[0],W3 wanted to touch M1,M1 wanted to touch W3
null,Beth is being hugged by Mike,NA,NA,NA,html-keyboard-response,25,204935,0.0-13.0-0.0,anomymised,65658159d48bb6bd55b14990,65671a1a0694a63a153fd451,22216,1C,man,NA,null,W4 is being hugged by M2,hug4,sentence,NA,NA,NA,NA
48965.40000000037,NA,NA,NA,NA,survey-likert-extra-labels,26,253902,0.0-13.0-2.0,anomymised,65658159d48bb6bd55b14990,65671a1a0694a63a153fd451,22216,1C,man,NA,NA,W4 is being hugged by M2,hug4,rating_volition,"{""Q0"":0}",[0],M2 wanted to hug W4,W4 wanted to hug M2
58839.800000000745,NA,NA,NA,NA,survey-likert-extra-labels,27,312743,0.0-13.0-3.0-0.0,anomymised,65658159d48bb6bd55b14990,65671a1a0694a63a153fd451,22216,1C,man,NA,NA,W4 is being hugged by M2,hug4,rating_causation,"{""Q0"":0}",[0],M2 asked to hug W4,W4 asked to hug M2
null,Luke is being looked at by Fred,NA,NA,NA,html-keyboard-response,28,314746,0.0-14.0-0.0,anomymised,65658159d48bb6bd55b14990,65671a1a0694a63a153fd451,22216,1C,man,NA,null,M1 is being looked at by M3,look2,sentence,NA,NA,NA,NA
7420,NA,NA,NA,NA,survey-likert-extra-labels,29,322167,0.0-14.0-1.0-0.0,anomymised,65658159d48bb6bd55b14990,65671a1a0694a63a153fd451,22216,1C,man,NA,NA,M1 is being looked at by M3,look2,rating_causation,"{""Q0"":6}",[0],M1 looked at M3 first,M3 looked at M1 first
34440,NA,NA,NA,NA,survey-likert-extra-labels,30,356609,0.0-14.0-2.0,anomymised,65658159d48bb6bd55b14990,65671a1a0694a63a153fd451,22216,1C,man,NA,NA,M1 is being looked at by M3,look2,rating_volition,"{""Q0"":6}",[0],M1 wanted to look at M3,M3 wanted to look at M1
null,Kate is being hugged by Ruth,NA,NA,NA,html-keyboard-response,31,358613,0.0-15.0-0.0,anomymised,65658159d48bb6bd55b14990,65671a1a0694a63a153fd451,22216,1C,man,NA,null,W3 is being hugged by W1,hug1,sentence,NA,NA,NA,NA
10075.5,NA,NA,NA,NA,survey-likert-extra-labels,32,368690,0.0-15.0-1.0-0.0,anomymised,65658159d48bb6bd55b14990,65671a1a0694a63a153fd451,22216,1C,man,NA,NA,W3 is being hugged by W1,hug1,rating_causation,"{""Q0"":1}",[0],W1 asked to hug W3,W3 asked to hug W1
2566.5999999996275,NA,NA,NA,NA,survey-likert-extra-labels,33,371258,0.0-15.0-2.0,anomymised,65658159d48bb6bd55b14990,65671a1a0694a63a153fd451,22216,1C,man,NA,NA,W3 is being hugged by W1,hug1,rating_volition,"{""Q0"":""""}",[0],W1 wanted to hug W3,W3 wanted to hug W1
null,Luke is driving Fred,NA,NA,NA,html-keyboard-response,34,373270,0.0-16.0-0.0,anomymised,65658159d48bb6bd55b14990,65671a1a0694a63a153fd451,22216,1C,man,NA,null,M1 is driving M3,drive,sentence,NA,NA,NA,NA
8089,NA,NA,NA,NA,survey-likert-extra-labels,35,381360,0.0-16.0-1.0-0.0,anomymised,65658159d48bb6bd55b14990,65671a1a0694a63a153fd451,22216,1C,man,NA,NA,M1 is driving M3,drive,rating_causation,"{""Q0"":0}",[0],M1 is taking M3 somewhere,M3 is taking M1 somewhere
5535.0999999996275,NA,NA,NA,NA,survey-likert-extra-labels,36,386897,0.0-16.0-2.0,anomymised,65658159d48bb6bd55b14990,65671a1a0694a63a153fd451,22216,1C,man,NA,NA,M1 is driving M3,drive,rating_volition,"{""Q0"":6}",[0],M1 is M3's passenger,M3 is M1's passenger
null,Fred is being opposed by Luke,NA,NA,NA,html-keyboard-response,37,388898,0.0-17.0-0.0,anomymised,65658159d48bb6bd55b14990,65671a1a0694a63a153fd451,22216,1C,man,NA,null,M3 is being opposed by M1,oppose2,sentence,NA,NA,NA,NA
8362.5,NA,NA,NA,NA,survey-likert-extra-labels,38,397262,0.0-17.0-2.0,anomymised,65658159d48bb6bd55b14990,65671a1a0694a63a153fd451,22216,1C,man,NA,NA,M3 is being opposed by M1,oppose2,rating_volition,"{""Q0"":1}",[0],M1 wanted to oppose M3,M3 wanted to oppose M1
8705.799999998882,NA,NA,NA,NA,survey-likert-extra-labels,39,405969,0.0-17.0-3.0-0.0,anomymised,65658159d48bb6bd55b14990,65671a1a0694a63a153fd451,22216,1C,man,NA,NA,M3 is being opposed by M1,oppose2,rating_causation,"{""Q0"":5}",[0],M1 started opposing M3,M3 started opposing M1
null,Jane is teaching Dave,NA,NA,NA,html-keyboard-response,40,407971,0.0-18.0-0.0,anomymised,65658159d48bb6bd55b14990,65671a1a0694a63a153fd451,22216,1C,man,NA,null,W2 is teaching M4,teach,sentence,NA,NA,NA,NA
7164.800000000745,NA,NA,NA,NA,survey-likert-extra-labels,41,415137,0.0-18.0-2.0,anomymised,65658159d48bb6bd55b14990,65671a1a0694a63a153fd451,22216,1C,man,NA,NA,W2 is teaching M4,teach,rating_volition,"{""Q0"":0}",[0],W2 is educating M4,M4 is educating W2
4801.5,NA,NA,NA,NA,survey-likert-extra-labels,42,419940,0.0-18.0-3.0-0.0,anomymised,65658159d48bb6bd55b14990,65671a1a0694a63a153fd451,22216,1C,man,NA,NA,W2 is teaching M4,teach,rating_causation,"{""Q0"":6}",[0],W2 is learning from M4,M4 is learning from W2
null,Kate is being greeted by Luke,NA,NA,NA,html-keyboard-response,43,421943,0.0-19.0-0.0,anomymised,65658159d48bb6bd55b14990,65671a1a0694a63a153fd451,22216,1C,man,NA,null,W3 is being greeted by M1,greet4,sentence,NA,NA,NA,NA
8288.599999999627,NA,NA,NA,NA,survey-likert-extra-labels,44,430232,0.0-19.0-2.0,anomymised,65658159d48bb6bd55b14990,65671a1a0694a63a153fd451,22216,1C,man,NA,NA,W3 is being greeted by M1,greet4,rating_volition,"{""Q0"":6}",[0],W3 wanted to greet M1,M1 wanted to greet W3
6211.300000000745,NA,NA,NA,NA,survey-likert-extra-labels,45,436445,0.0-19.0-3.0-0.0,anomymised,65658159d48bb6bd55b14990,65671a1a0694a63a153fd451,22216,1C,man,NA,NA,W3 is being greeted by M1,greet4,rating_causation,"{""Q0"":3}",[0],W3 started greeting M1 first,M1 started greeting W3 first
null,Dave is being hugged by Jane,NA,NA,NA,html-keyboard-response,46,438449,0.0-20.0-0.0,anomymised,65658159d48bb6bd55b14990,65671a1a0694a63a153fd451,22216,1C,man,NA,null,M4 is being hugged by W2,hug3,sentence,NA,NA,NA,NA
5444.199999999255,NA,NA,NA,NA,survey-likert-extra-labels,47,443894,0.0-20.0-1.0-0.0,anomymised,65658159d48bb6bd55b14990,65671a1a0694a63a153fd451,22216,1C,man,NA,NA,M4 is being hugged by W2,hug3,rating_causation,"{""Q0"":3}",[0],W2 asked to hug M4,M4 asked to hug W2
5350.800000000745,NA,NA,NA,NA,survey-likert-extra-labels,48,449246,0.0-20.0-2.0,anomymised,65658159d48bb6bd55b14990,65671a1a0694a63a153fd451,22216,1C,man,NA,NA,M4 is being hugged by W2,hug3,rating_volition,"{""Q0"":0}",[0],W2 wanted to hug M4,M4 wanted to hug W2
null,Mike is being looked at by Beth,NA,NA,NA,html-keyboard-response,49,451250,0.0-21.0-0.0,anomymised,65658159d48bb6bd55b14990,65671a1a0694a63a153fd451,22216,1C,man,NA,null,M2 is being looked at by W4,look4,sentence,NA,NA,NA,NA
12220.200000001118,NA,NA,NA,NA,survey-likert-extra-labels,50,463471,0.0-21.0-2.0,anomymised,65658159d48bb6bd55b14990,65671a1a0694a63a153fd451,22216,1C,man,NA,NA,M2 is being looked at by W4,look4,rating_volition,"{""Q0"":6}",[0],M2 wanted to look at W4,W4 wanted to look at M2
3503.800000000745,NA,NA,NA,NA,survey-likert-extra-labels,51,466976,0.0-21.0-3.0-0.0,anomymised,65658159d48bb6bd55b14990,65671a1a0694a63a153fd451,22216,1C,man,NA,NA,M2 is being looked at by W4,look4,rating_causation,"{""Q0"":3}",[0],M2 looked at W4 first,W4 looked at M2 first
null,Mike is being copied by Dave,NA,NA,NA,html-keyboard-response,52,468991,0.0-22.0-0.0,anomymised,65658159d48bb6bd55b14990,65671a1a0694a63a153fd451,22216,1C,man,NA,null,M2 is being copied by M4,copy2,sentence,NA,NA,NA,NA
6782,NA,NA,NA,NA,survey-likert-extra-labels,53,475774,0.0-22.0-2.0,anomymised,65658159d48bb6bd55b14990,65671a1a0694a63a153fd451,22216,1C,man,NA,NA,M2 is being copied by M4,copy2,rating_volition,"{""Q0"":6}",[0],M2 wanted to copy M4,M4 wanted to copy M2
10268.699999999255,NA,NA,NA,NA,survey-likert-extra-labels,54,486044,0.0-22.0-3.0-0.0,anomymised,65658159d48bb6bd55b14990,65671a1a0694a63a153fd451,22216,1C,man,NA,NA,M2 is being copied by M4,copy2,rating_causation,"{""Q0"":6}",[0],M2 started copying M4 first,M4 started copying M2 first
null,Fred is being greeted by Ruth,NA,NA,NA,html-keyboard-response,55,488050,0.0-23.0-0.0,anomymised,65658159d48bb6bd55b14990,65671a1a0694a63a153fd451,22216,1C,man,NA,null,M3 is being greeted by W1,greet3,sentence,NA,NA,NA,NA
3782,NA,NA,NA,NA,survey-likert-extra-labels,56,491833,0.0-23.0-2.0,anomymised,65658159d48bb6bd55b14990,65671a1a0694a63a153fd451,22216,1C,man,NA,NA,M3 is being greeted by W1,greet3,rating_volition,"{""Q0"":0}",[0],M3 wanted to greet W1,W1 wanted to greet M3
3905.89999999851,NA,NA,NA,NA,survey-likert-extra-labels,57,495740,0.0-23.0-3.0-0.0,anomymised,65658159d48bb6bd55b14990,65671a1a0694a63a153fd451,22216,1C,man,NA,NA,M3 is being greeted by W1,greet3,rating_causation,"{""Q0"":3}",[0],M3 started greeting W1 first,W1 started greeting M3 first
null,Kate is being shouted at by Ruth,NA,NA,NA,html-keyboard-response,58,497751,0.0-24.0-0.0,anomymised,65658159d48bb6bd55b14990,65671a1a0694a63a153fd451,22216,1C,man,NA,null,W3 is being shouted at by W1,shout1,sentence,NA,NA,NA,NA
11178.400000000373,NA,NA,NA,NA,survey-likert-extra-labels,59,508930,0.0-24.0-2.0,anomymised,65658159d48bb6bd55b14990,65671a1a0694a63a153fd451,22216,1C,man,NA,NA,W3 is being shouted at by W1,shout1,rating_volition,"{""Q0"":0}",[0],W1 wanted to shout at W3,W3 wanted to shout at W1
5902.5999999996275,NA,NA,NA,NA,survey-likert-extra-labels,60,514834,0.0-24.0-3.0-0.0,anomymised,65658159d48bb6bd55b14990,65671a1a0694a63a153fd451,22216,1C,man,NA,NA,W3 is being shouted at by W1,shout1,rating_causation,"{""Q0"":3}",[0],W1 shouted at W3 first,W3 shouted at W1 first
null,Jane is carrying Beth,NA,NA,NA,html-keyboard-response,61,516841,0.0-25.0-0.0,anomymised,65658159d48bb6bd55b14990,65671a1a0694a63a153fd451,22216,1C,man,NA,null,W2 is carrying W4,carry,sentence,NA,NA,NA,NA
4146.5,NA,NA,NA,NA,survey-likert-extra-labels,62,520988,0.0-25.0-2.0,anomymised,65658159d48bb6bd55b14990,65671a1a0694a63a153fd451,22216,1C,man,NA,NA,W2 is carrying W4,carry,rating_volition,"{""Q0"":0}",[0],W2 is transporting W4,W4 is transporting W2
5875.9000000003725,NA,NA,NA,NA,survey-likert-extra-labels,63,526866,0.0-25.0-3.0-0.0,anomymised,65658159d48bb6bd55b14990,65671a1a0694a63a153fd451,22216,1C,man,NA,NA,W2 is carrying W4,carry,rating_causation,"{""Q0"":6}",[0],W2 is being moved by W4,W4 is being moved by W2
null,Dave is being challenged by Mike,NA,NA,NA,html-keyboard-response,64,528878,0.0-26.0-0.0,anomymised,65658159d48bb6bd55b14990,65671a1a0694a63a153fd451,22216,1C,man,NA,null,M4 is being challenged by M2,challenge2,sentence,NA,NA,NA,NA
7485.0999999996275,NA,NA,NA,NA,survey-likert-extra-labels,65,536364,0.0-26.0-2.0,anomymised,65658159d48bb6bd55b14990,65671a1a0694a63a153fd451,22216,1C,man,NA,NA,M4 is being challenged by M2,challenge2,rating_volition,"{""Q0"":0}",[0],M2 wanted to challenge M4,M4 wanted to challenge M2
6774.4000000003725,NA,NA,NA,NA,survey-likert-extra-labels,66,543140,0.0-26.0-3.0-0.0,anomymised,65658159d48bb6bd55b14990,65671a1a0694a63a153fd451,22216,1C,man,NA,NA,M4 is being challenged by M2,challenge2,rating_causation,"{""Q0"":0}",[0],M2 started challenging M4 first,M4 started challenging M2 first
null,Ruth is being challenged by Fred,NA,NA,NA,html-keyboard-response,67,545150,0.0-27.0-0.0,anomymised,65658159d48bb6bd55b14990,65671a1a0694a63a153fd451,22216,1C,man,NA,null,W1 is being challenged by M3,challenge3,sentence,NA,NA,NA,NA
4803.0999999996275,NA,NA,NA,NA,survey-likert-extra-labels,68,549954,0.0-27.0-1.0-0.0,anomymised,65658159d48bb6bd55b14990,65671a1a0694a63a153fd451,22216,1C,man,NA,NA,W1 is being challenged by M3,challenge3,rating_causation,"{""Q0"":6}",[0],M3 started challenging W1 first,W1 started challenging M3 first
9109.400000000373,NA,NA,NA,NA,survey-likert-extra-labels,69,559065,0.0-27.0-2.0,anomymised,65658159d48bb6bd55b14990,65671a1a0694a63a153fd451,22216,1C,man,NA,NA,W1 is being challenged by M3,challenge3,rating_volition,"{""Q0"":0}",[0],M3 wanted to challenge W1,W1 wanted to challenge M3
null,Jane is being greeted by Beth,NA,NA,NA,html-keyboard-response,70,561072,0.0-28.0-0.0,anomymised,65658159d48bb6bd55b14990,65671a1a0694a63a153fd451,22216,1C,man,NA,null,W2 is being greeted by W4,greet1,sentence,NA,NA,NA,NA
5741.299999998882,NA,NA,NA,NA,survey-likert-extra-labels,71,566814,0.0-28.0-2.0,anomymised,65658159d48bb6bd55b14990,65671a1a0694a63a153fd451,22216,1C,man,NA,NA,W2 is being greeted by W4,greet1,rating_volition,"{""Q0"":6}",[0],W2 wanted to greet W4,W4 wanted to greet W2
2931.9000000003725,NA,NA,NA,NA,survey-likert-extra-labels,72,569748,0.0-28.0-3.0-0.0,anomymised,65658159d48bb6bd55b14990,65671a1a0694a63a153fd451,22216,1C,man,NA,NA,W2 is being greeted by W4,greet1,rating_causation,"{""Q0"":3}",[0],W2 started greeting W4 first,W4 started greeting W2 first
null,Ruth is being seduced by Fred,NA,NA,NA,html-keyboard-response,73,571759,0.0-29.0-0.0,anomymised,65658159d48bb6bd55b14990,65671a1a0694a63a153fd451,22216,1C,man,NA,null,W1 is being seduced by M3,seduce4,sentence,NA,NA,NA,NA
11140.699999999255,NA,NA,NA,NA,survey-likert-extra-labels,74,582901,0.0-29.0-2.0,anomymised,65658159d48bb6bd55b14990,65671a1a0694a63a153fd451,22216,1C,man,NA,NA,W1 is being seduced by M3,seduce4,rating_volition,"{""Q0"":0}",[0],M3 wanted to seducing W1,W1 wanted to seducing M3
4592,NA,NA,NA,NA,survey-likert-extra-labels,75,587494,0.0-29.0-3.0-0.0,anomymised,65658159d48bb6bd55b14990,65671a1a0694a63a153fd451,22216,1C,man,NA,NA,W1 is being seduced by M3,seduce4,rating_causation,"{""Q0"":3}",[0],M3 started seducing W1 first,W1 started seducing M3 first
null,Ruth is chasing Kate,NA,NA,NA,html-keyboard-response,76,589500,0.0-30.0-0.0,anomymised,65658159d48bb6bd55b14990,65671a1a0694a63a153fd451,22216,1C,man,NA,null,W1 is chasing W3,chase,sentence,NA,NA,NA,NA
7409.5999999996275,NA,NA,NA,NA,survey-likert-extra-labels,77,596910,0.0-30.0-2.0,anomymised,65658159d48bb6bd55b14990,65671a1a0694a63a153fd451,22216,1C,man,NA,NA,W1 is chasing W3,chase,rating_volition,"{""Q0"":0}",[0],W1 is behind W3,W3 is behind W1
5421.89999999851,NA,NA,NA,NA,survey-likert-extra-labels,78,602333,0.0-30.0-3.0-0.0,anomymised,65658159d48bb6bd55b14990,65671a1a0694a63a153fd451,22216,1C,man,NA,NA,W1 is chasing W3,chase,rating_causation,"{""Q0"":6}",[0],W1 is running away from W3,W3 is running away from W1
null,Luke is being kissed by Fred,NA,NA,NA,html-keyboard-response,79,604338,0.0-31.0-0.0,anomymised,65658159d48bb6bd55b14990,65671a1a0694a63a153fd451,22216,1C,man,NA,null,M1 is being kissed by M3,kiss2,sentence,NA,NA,NA,NA
65758.79999999888,NA,NA,NA,NA,survey-likert-extra-labels,80,670097,0.0-31.0-1.0-0.0,anomymised,65658159d48bb6bd55b14990,65671a1a0694a63a153fd451,22216,1C,man,NA,NA,M1 is being kissed by M3,kiss2,rating_causation,"{""Q0"":3}",[0],M1 asked to kiss M3,M3 asked to kiss M1
6289.699999999255,NA,NA,NA,NA,survey-likert-extra-labels,81,676389,0.0-31.0-2.0,anomymised,65658159d48bb6bd55b14990,65671a1a0694a63a153fd451,22216,1C,man,NA,NA,M1 is being kissed by M3,kiss2,rating_volition,"{""Q0"":6}",[0],M1 wanted to kiss M3,M3 wanted to kiss M1
null,Dave is being touched by Mike,NA,NA,NA,html-keyboard-response,82,678391,0.0-32.0-0.0,anomymised,65658159d48bb6bd55b14990,65671a1a0694a63a153fd451,22216,1C,man,NA,null,M4 is being touched by M2,touch2,sentence,NA,NA,NA,NA
35448.40000000037,NA,NA,NA,NA,survey-likert-extra-labels,83,713840,0.0-32.0-1.0-0.0,anomymised,65658159d48bb6bd55b14990,65671a1a0694a63a153fd451,22216,1C,man,NA,NA,M4 is being touched by M2,touch2,rating_causation,"{""Q0"":3}",[0],M2 asked to touch M4,M4 asked to touch M2
10734.400000000373,NA,NA,NA,NA,survey-likert-extra-labels,84,724576,0.0-32.0-2.0,anomymised,65658159d48bb6bd55b14990,65671a1a0694a63a153fd451,22216,1C,man,NA,NA,M4 is being touched by M2,touch2,rating_volition,"{""Q0"":0}",[0],M2 wanted to touch M4,M4 wanted to touch M2
null,Beth is being opposed by Mike,NA,NA,NA,html-keyboard-response,85,726584,0.0-33.0-0.0,anomymised,65658159d48bb6bd55b14990,65671a1a0694a63a153fd451,22216,1C,man,NA,null,W4 is being opposed by M2,oppose4,sentence,NA,NA,NA,NA
5999.5,NA,NA,NA,NA,survey-likert-extra-labels,86,732584,0.0-33.0-1.0-0.0,anomymised,65658159d48bb6bd55b14990,65671a1a0694a63a153fd451,22216,1C,man,NA,NA,W4 is being opposed by M2,oppose4,rating_causation,"{""Q0"":3}",[0],M2 started opposing W4,W4 started opposing M2
5786.0999999996275,NA,NA,NA,NA,survey-likert-extra-labels,87,738372,0.0-33.0-2.0,anomymised,65658159d48bb6bd55b14990,65671a1a0694a63a153fd451,22216,1C,man,NA,NA,W4 is being opposed by M2,oppose4,rating_volition,"{""Q0"":6}",[0],M2 wanted to oppose W4,W4 wanted to oppose M2
null,Ruth is being touched by Fred,NA,NA,NA,html-keyboard-response,88,740383,0.0-34.0-0.0,anomymised,65658159d48bb6bd55b14990,65671a1a0694a63a153fd451,22216,1C,man,NA,null,W1 is being touched by M3,touch4,sentence,NA,NA,NA,NA
8712.10000000149,NA,NA,NA,NA,survey-likert-extra-labels,89,749096,0.0-34.0-2.0,anomymised,65658159d48bb6bd55b14990,65671a1a0694a63a153fd451,22216,1C,man,NA,NA,W1 is being touched by M3,touch4,rating_volition,"{""Q0"":0}",[0],M3 wanted to touch W1,W1 wanted to touch M3
76891.09999999963,NA,NA,NA,NA,survey-likert-extra-labels,90,825988,0.0-34.0-3.0-0.0,anomymised,65658159d48bb6bd55b14990,65671a1a0694a63a153fd451,22216,1C,man,NA,NA,W1 is being touched by M3,touch4,rating_causation,"{""Q0"":3}",[0],M3 asked to touch W1,W1 asked to touch M3
null,Beth is being challenged by Jane,NA,NA,NA,html-keyboard-response,91,827992,0.0-35.0-0.0,anomymised,65658159d48bb6bd55b14990,65671a1a0694a63a153fd451,22216,1C,man,NA,null,W4 is being challenged by W2,challenge1,sentence,NA,NA,NA,NA
8760.299999998882,NA,NA,NA,NA,survey-likert-extra-labels,92,836753,0.0-35.0-2.0,anomymised,65658159d48bb6bd55b14990,65671a1a0694a63a153fd451,22216,1C,man,NA,NA,W4 is being challenged by W2,challenge1,rating_volition,"{""Q0"":6}",[0],W2 wanted to challenge W4,W4 wanted to challenge W2
4643.4000000003725,NA,NA,NA,NA,survey-likert-extra-labels,93,841398,0.0-35.0-3.0-0.0,anomymised,65658159d48bb6bd55b14990,65671a1a0694a63a153fd451,22216,1C,man,NA,NA,W4 is being challenged by W2,challenge1,rating_causation,"{""Q0"":3}",[0],W2 started challenging W4 first,W4 started challenging W2 first
null,Luke is being seduced by Kate,NA,NA,NA,html-keyboard-response,94,843404,0.0-36.0-0.0,anomymised,65658159d48bb6bd55b14990,65671a1a0694a63a153fd451,22216,1C,man,NA,null,M1 is being seduced by W3,seduce3,sentence,NA,NA,NA,NA
3088.60000000149,NA,NA,NA,NA,survey-likert-extra-labels,95,846493,0.0-36.0-2.0,anomymised,65658159d48bb6bd55b14990,65671a1a0694a63a153fd451,22216,1C,man,NA,NA,M1 is being seduced by W3,seduce3,rating_volition,"{""Q0"":0}",[0],W3 wanted to seduce M1,M1 wanted to seduce W3
4044.800000000745,NA,NA,NA,NA,survey-likert-extra-labels,96,850539,0.0-36.0-3.0-0.0,anomymised,65658159d48bb6bd55b14990,65671a1a0694a63a153fd451,22216,1C,man,NA,NA,M1 is being seduced by W3,seduce3,rating_causation,"{""Q0"":3}",[0],W3 started seducing M1 first,M1 started seducing W3 first
null,Fred is hiring Ruth,NA,NA,NA,html-keyboard-response,97,852554,0.0-37.0-0.0,anomymised,65658159d48bb6bd55b14990,65671a1a0694a63a153fd451,22216,1C,man,NA,null,M3 is hiring W1,hire,sentence,NA,NA,NA,NA
4827.300000000745,NA,NA,NA,NA,survey-likert-extra-labels,98,857382,0.0-37.0-1.0-0.0,anomymised,65658159d48bb6bd55b14990,65671a1a0694a63a153fd451,22216,1C,man,NA,NA,M3 is hiring W1,hire,rating_causation,"{""Q0"":6}",[0],M3 will work for W1,W1 will work for M3
4481.5999999996275,NA,NA,NA,NA,survey-likert-extra-labels,99,861865,0.0-37.0-2.0,anomymised,65658159d48bb6bd55b14990,65671a1a0694a63a153fd451,22216,1C,man,NA,NA,M3 is hiring W1,hire,rating_volition,"{""Q0"":0}",[0],M3 is employing W1,W1 is employing M3
null,Fred is being shouted at by Luke,NA,NA,NA,html-keyboard-response,100,863875,0.0-38.0-0.0,anomymised,65658159d48bb6bd55b14990,65671a1a0694a63a153fd451,22216,1C,man,NA,null,M3 is being shouted at by M1,shout2,sentence,NA,NA,NA,NA
6419,NA,NA,NA,NA,survey-likert-extra-labels,101,870295,0.0-38.0-2.0,anomymised,65658159d48bb6bd55b14990,65671a1a0694a63a153fd451,22216,1C,man,NA,NA,M3 is being shouted at by M1,shout2,rating_volition,"{""Q0"":0}",[0],M1 wanted to shout at M3,M3 wanted to shout at M1
3819.60000000149,NA,NA,NA,NA,survey-likert-extra-labels,102,874116,0.0-38.0-3.0-0.0,anomymised,65658159d48bb6bd55b14990,65671a1a0694a63a153fd451,22216,1C,man,NA,NA,M3 is being shouted at by M1,shout2,rating_causation,"{""Q0"":3}",[0],M1 shouted at M3 first,M3 shouted at M1 first
null,Ruth is being kissed by Kate,NA,NA,NA,html-keyboard-response,103,876129,0.0-39.0-0.0,anomymised,65658159d48bb6bd55b14990,65671a1a0694a63a153fd451,22216,1C,man,NA,null,W1 is being kissed by W3,kiss1,sentence,NA,NA,NA,NA
8043.199999999255,NA,NA,NA,NA,survey-likert-extra-labels,104,884173,0.0-39.0-1.0-0.0,anomymised,65658159d48bb6bd55b14990,65671a1a0694a63a153fd451,22216,1C,man,NA,NA,W1 is being kissed by W3,kiss1,rating_causation,"{""Q0"":0}",[0],W1 asked to kiss W3,W3 asked to kiss W1
4928,NA,NA,NA,NA,survey-likert-extra-labels,105,889102,0.0-39.0-2.0,anomymised,65658159d48bb6bd55b14990,65671a1a0694a63a153fd451,22216,1C,man,NA,NA,W1 is being kissed by W3,kiss1,rating_volition,"{""Q0"":6}",[0],W1 wanted to kiss W3,W3 wanted to kiss W1
null,Kate is being opposed by Ruth,NA,NA,NA,html-keyboard-response,106,891117,0.0-40.0-0.0,anomymised,65658159d48bb6bd55b14990,65671a1a0694a63a153fd451,22216,1C,man,NA,null,W3 is being opposed by W1,oppose1,sentence,NA,NA,NA,NA
3554,NA,NA,NA,NA,survey-likert-extra-labels,107,894672,0.0-40.0-2.0,anomymised,65658159d48bb6bd55b14990,65671a1a0694a63a153fd451,22216,1C,man,NA,NA,W3 is being opposed by W1,oppose1,rating_volition,"{""Q0"":6}",[0],W1 wanted to oppose W3,W3 wanted to oppose W1
7736.200000001118,NA,NA,NA,NA,survey-likert-extra-labels,108,902409,0.0-40.0-3.0-0.0,anomymised,65658159d48bb6bd55b14990,65671a1a0694a63a153fd451,22216,1C,man,NA,NA,W3 is being opposed by W1,oppose1,rating_causation,"{""Q0"":0}",[0],W1 started opposing W3,W3 started opposing W1
null,Dave is being shouted at by Jane,NA,NA,NA,html-keyboard-response,109,904421,0.0-41.0-0.0,anomymised,65658159d48bb6bd55b14990,65671a1a0694a63a153fd451,22216,1C,man,NA,null,M4 is being shouted at by W2,shout4,sentence,NA,NA,NA,NA
37716.59999999963,NA,NA,NA,NA,survey-likert-extra-labels,110,942138,0.0-41.0-1.0-0.0,anomymised,65658159d48bb6bd55b14990,65671a1a0694a63a153fd451,22216,1C,man,NA,NA,M4 is being shouted at by W2,shout4,rating_causation,"{""Q0"":3}",[0],W2 shouted at M4 first,M4 shouted at W2 first
4557.199999999255,NA,NA,NA,NA,survey-likert-extra-labels,111,946697,0.0-41.0-2.0,anomymised,65658159d48bb6bd55b14990,65671a1a0694a63a153fd451,22216,1C,man,NA,NA,M4 is being shouted at by W2,shout4,rating_volition,"{""Q0"":6}",[0],W2 wanted to shout at M4,M4 wanted to shout at W2
null,Mike is reminding Beth,NA,NA,NA,html-keyboard-response,112,948703,0.0-42.0-0.0,anomymised,65658159d48bb6bd55b14990,65671a1a0694a63a153fd451,22216,1C,man,NA,null,M2 is reminding W4,remind,sentence,NA,NA,NA,NA
5885.800000000745,NA,NA,NA,NA,survey-likert-extra-labels,113,954590,0.0-42.0-2.0,anomymised,65658159d48bb6bd55b14990,65671a1a0694a63a153fd451,22216,1C,man,NA,NA,M2 is reminding W4,remind,rating_volition,"{""Q0"":0}",[0],M2 is telling W4 again,W4 is telling M2 again
9192.099999999627,NA,NA,NA,NA,survey-likert-extra-labels,114,963783,0.0-42.0-3.0-0.0,anomymised,65658159d48bb6bd55b14990,65671a1a0694a63a153fd451,22216,1C,man,NA,NA,M2 is reminding W4,remind,rating_causation,"{""Q0"":6}",[0],M2 is remembering,W4 is remembering
null,Luke is being challenged by Kate,NA,NA,NA,html-keyboard-response,115,965792,0.0-43.0-0.0,anomymised,65658159d48bb6bd55b14990,65671a1a0694a63a153fd451,22216,1C,man,NA,null,M1 is being challenged by W3,challenge4,sentence,NA,NA,NA,NA
3634.7000000011176,NA,NA,NA,NA,survey-likert-extra-labels,116,969428,0.0-43.0-2.0,anomymised,65658159d48bb6bd55b14990,65671a1a0694a63a153fd451,22216,1C,man,NA,NA,M1 is being challenged by W3,challenge4,rating_volition,"{""Q0"":0}",[0],W3 wanted to challenge M1,M1 wanted to challenge W3
4396.0999999996275,NA,NA,NA,NA,survey-likert-extra-labels,117,973825,0.0-43.0-3.0-0.0,anomymised,65658159d48bb6bd55b14990,65671a1a0694a63a153fd451,22216,1C,man,NA,NA,M1 is being challenged by W3,challenge4,rating_causation,"{""Q0"":3}",[0],W3 started challenging M1 first,M1 started challenging W3 first
null,Jane is being looked at by Dave,NA,NA,NA,html-keyboard-response,118,975830,0.0-44.0-0.0,anomymised,65658159d48bb6bd55b14990,65671a1a0694a63a153fd451,22216,1C,man,NA,null,W2 is being looked at by M4,look3,sentence,NA,NA,NA,NA
5999.60000000149,NA,NA,NA,NA,survey-likert-extra-labels,119,981830,0.0-44.0-2.0,anomymised,65658159d48bb6bd55b14990,65671a1a0694a63a153fd451,22216,1C,man,NA,NA,W2 is being looked at by M4,look3,rating_volition,"{""Q0"":0}",[0],W2 wanted to look at M4,M4 wanted to look at W2
6656.800000000745,NA,NA,NA,NA,survey-likert-extra-labels,120,988488,0.0-44.0-3.0-0.0,anomymised,65658159d48bb6bd55b14990,65671a1a0694a63a153fd451,22216,1C,man,NA,NA,W2 is being looked at by M4,look3,rating_causation,"{""Q0"":3}",[0],W2 looked at M4 first,M4 looked at W2 first
null,Kate is being copied by Luke,NA,NA,NA,html-keyboard-response,121,990500,0.0-45.0-0.0,anomymised,65658159d48bb6bd55b14990,65671a1a0694a63a153fd451,22216,1C,man,NA,null,W3 is being copied by M1,copy3,sentence,NA,NA,NA,NA
12700.39999999851,NA,NA,NA,NA,survey-likert-extra-labels,122,1003201,0.0-45.0-2.0,anomymised,65658159d48bb6bd55b14990,65671a1a0694a63a153fd451,22216,1C,man,NA,NA,W3 is being copied by M1,copy3,rating_volition,"{""Q0"":0}",[0],W3 wanted to copy M1,M1 wanted to copy W3
7724.800000000745,NA,NA,NA,NA,survey-likert-extra-labels,123,1010928,0.0-45.0-3.0-0.0,anomymised,65658159d48bb6bd55b14990,65671a1a0694a63a153fd451,22216,1C,man,NA,NA,W3 is being copied by M1,copy3,rating_causation,"{""Q0"":6}",[0],W3 started copying M1 first,M1 started copying W3 first
null,Mike is being greeted by Dave,NA,NA,NA,html-keyboard-response,124,1012941,0.0-46.0-0.0,anomymised,65658159d48bb6bd55b14990,65671a1a0694a63a153fd451,22216,1C,man,NA,null,M2 is being greeted by M4,greet2,sentence,NA,NA,NA,NA
6413.60000000149,NA,NA,NA,NA,survey-likert-extra-labels,125,1019356,0.0-46.0-2.0,anomymised,65658159d48bb6bd55b14990,65671a1a0694a63a153fd451,22216,1C,man,NA,NA,M2 is being greeted by M4,greet2,rating_volition,"{""Q0"":6}",[0],M2 wanted to greet M4,M4 wanted to greet M2
6569.60000000149,NA,NA,NA,NA,survey-likert-extra-labels,126,1025927,0.0-46.0-3.0-0.0,anomymised,65658159d48bb6bd55b14990,65671a1a0694a63a153fd451,22216,1C,man,NA,NA,M2 is being greeted by M4,greet2,rating_causation,"{""Q0"":3}",[0],M2 started greeting M4 first,M4 started greeting M2 first
null,Beth is being seduced by Jane,NA,NA,NA,html-keyboard-response,127,1027931,0.0-47.0-0.0,anomymised,65658159d48bb6bd55b14990,65671a1a0694a63a153fd451,22216,1C,man,NA,null,W4 is being seduced by W2,seduce1,sentence,NA,NA,NA,NA
3904.10000000149,NA,NA,NA,NA,survey-likert-extra-labels,128,1031836,0.0-47.0-1.0-0.0,anomymised,65658159d48bb6bd55b14990,65671a1a0694a63a153fd451,22216,1C,man,NA,NA,W4 is being seduced by W2,seduce1,rating_causation,"{""Q0"":6}",[0],W2 started seducing W4 first,W4 started seducing W2 first
4021,NA,NA,NA,NA,survey-likert-extra-labels,129,1035858,0.0-47.0-2.0,anomymised,65658159d48bb6bd55b14990,65671a1a0694a63a153fd451,22216,1C,man,NA,NA,W4 is being seduced by W2,seduce1,rating_volition,"{""Q0"":6}",[0],W2 wanted to seduce W4,W4 wanted to seduce W2
null,Fred is being hugged by Luke,NA,NA,NA,html-keyboard-response,130,1037867,0.0-48.0-0.0,anomymised,65658159d48bb6bd55b14990,65671a1a0694a63a153fd451,22216,1C,man,NA,null,M3 is being hugged by M1,hug2,sentence,NA,NA,NA,NA
5860.5999999996275,NA,NA,NA,NA,survey-likert-extra-labels,131,1043728,0.0-48.0-2.0,anomymised,65658159d48bb6bd55b14990,65671a1a0694a63a153fd451,22216,1C,man,NA,NA,M3 is being hugged by M1,hug2,rating_volition,"{""Q0"":0}",[0],M1 wanted to hug M3,M3 wanted to hug M1
4595.5,NA,NA,NA,NA,survey-likert-extra-labels,132,1048325,0.0-48.0-3.0-0.0,anomymised,65658159d48bb6bd55b14990,65671a1a0694a63a153fd451,22216,1C,man,NA,NA,M3 is being hugged by M1,hug2,rating_causation,"{""Q0"":3}",[0],M1 asked to hug M3,M3 asked to hug M1
null,Mike is being kissed by Beth,NA,NA,NA,html-keyboard-response,133,1050337,0.0-49.0-0.0,anomymised,65658159d48bb6bd55b14990,65671a1a0694a63a153fd451,22216,1C,man,NA,null,M2 is being kissed by W4,kiss3,sentence,NA,NA,NA,NA
6233.200000001118,NA,NA,NA,NA,survey-likert-extra-labels,134,1056571,0.0-49.0-1.0-0.0,anomymised,65658159d48bb6bd55b14990,65671a1a0694a63a153fd451,22216,1C,man,NA,NA,M2 is being kissed by W4,kiss3,rating_causation,"{""Q0"":6}",[0],M2 asked to kiss W4,W4 asked to kiss M2
4571.4000000003725,NA,NA,NA,NA,survey-likert-extra-labels,135,1061143,0.0-49.0-2.0,anomymised,65658159d48bb6bd55b14990,65671a1a0694a63a153fd451,22216,1C,man,NA,NA,M2 is being kissed by W4,kiss3,rating_volition,"{""Q0"":6}",[0],M2 wanted to kiss W4,W4 wanted to kiss M2
null,Dave is being seduced by Mike,NA,NA,NA,html-keyboard-response,136,1063159,0.0-50.0-0.0,anomymised,65658159d48bb6bd55b14990,65671a1a0694a63a153fd451,22216,1C,man,NA,null,M4 is being seduced by M2,seduce2,sentence,NA,NA,NA,NA
6193,NA,NA,NA,NA,survey-likert-extra-labels,137,1069353,0.0-50.0-1.0-0.0,anomymised,65658159d48bb6bd55b14990,65671a1a0694a63a153fd451,22216,1C,man,NA,NA,M4 is being seduced by M2,seduce2,rating_causation,"{""Q0"":0}",[0],M2 started seducing M4 first,M4 started seducing M2 first
9157.5,NA,NA,NA,NA,survey-likert-extra-labels,138,1078512,0.0-50.0-2.0,anomymised,65658159d48bb6bd55b14990,65671a1a0694a63a153fd451,22216,1C,man,NA,NA,M4 is being seduced by M2,seduce2,rating_volition,"{""Q0"":0}",[0],M2 wanted to seduce M4,M4 wanted to seduce M2
null,Ruth is being looked at by Kate,NA,NA,NA,html-keyboard-response,139,1080515,0.0-51.0-0.0,anomymised,65658159d48bb6bd55b14990,65671a1a0694a63a153fd451,22216,1C,man,NA,null,W1 is being looked at by W3,look1,sentence,NA,NA,NA,NA
3556.7999999988824,NA,NA,NA,NA,survey-likert-extra-labels,140,1084072,0.0-51.0-1.0-0.0,anomymised,65658159d48bb6bd55b14990,65671a1a0694a63a153fd451,22216,1C,man,NA,NA,W1 is being looked at by W3,look1,rating_causation,"{""Q0"":3}",[0],W1 looked at W3 first,W3 looked at W1 first
6409.4000000003725,NA,NA,NA,NA,survey-likert-extra-labels,141,1090483,0.0-51.0-2.0,anomymised,65658159d48bb6bd55b14990,65671a1a0694a63a153fd451,22216,1C,man,NA,NA,W1 is being looked at by W3,look1,rating_volition,"{""Q0"":6}",[0],W1 wanted to look at W3,W3 wanted to look at W1
null,Fred is being copied by Ruth,NA,NA,NA,html-keyboard-response,142,1092486,0.0-52.0-0.0,anomymised,65658159d48bb6bd55b14990,65671a1a0694a63a153fd451,22216,1C,man,NA,null,M3 is being copied by W1,copy4,sentence,NA,NA,NA,NA
5194.5,NA,NA,NA,NA,survey-likert-extra-labels,143,1097681,0.0-52.0-2.0,anomymised,65658159d48bb6bd55b14990,65671a1a0694a63a153fd451,22216,1C,man,NA,NA,M3 is being copied by W1,copy4,rating_volition,"{""Q0"":6}",[0],M3 wanted to copy W1,W1 wanted to copy M3
9494.599999999627,NA,NA,NA,NA,survey-likert-extra-labels,144,1107177,0.0-52.0-3.0-0.0,anomymised,65658159d48bb6bd55b14990,65671a1a0694a63a153fd451,22216,1C,man,NA,NA,M3 is being copied by W1,copy4,rating_causation,"{""Q0"":6}",[0],M3 started copying W1 first,W1 started copying M3 first
null,Mike is posing for Dave,NA,NA,NA,html-keyboard-response,145,1109190,0.0-53.0-0.0,anomymised,65658159d48bb6bd55b14990,65671a1a0694a63a153fd451,22216,1C,man,NA,null,M2 is posing for M4,pose,sentence,NA,NA,NA,NA
7445.800000000745,NA,NA,NA,NA,survey-likert-extra-labels,146,1116635,0.0-53.0-1.0-0.0,anomymised,65658159d48bb6bd55b14990,65671a1a0694a63a153fd451,22216,1C,man,NA,NA,M2 is posing for M4,pose,rating_causation,"{""Q0"":6}",[0],M2 is photographing M4,M4 is photographing M2
6122.200000001118,NA,NA,NA,NA,survey-likert-extra-labels,147,1122759,0.0-53.0-2.0,anomymised,65658159d48bb6bd55b14990,65671a1a0694a63a153fd451,22216,1C,man,NA,NA,M2 is posing for M4,pose,rating_volition,"{""Q0"":0}",[0],M2 is modelling for M4,M4 is modelling for M2
null,Jane is being copied by Beth,NA,NA,NA,html-keyboard-response,148,1124762,0.0-54.0-0.0,anomymised,65658159d48bb6bd55b14990,65671a1a0694a63a153fd451,22216,1C,man,NA,null,W2 is being copied by W4,copy1,sentence,NA,NA,NA,NA
5256.89999999851,NA,NA,NA,NA,survey-likert-extra-labels,149,1130020,0.0-54.0-2.0,anomymised,65658159d48bb6bd55b14990,65671a1a0694a63a153fd451,22216,1C,man,NA,NA,W2 is being copied by W4,copy1,rating_volition,"{""Q0"":6}",[0],W2 wanted to copy W4,W4 wanted to copy W2
4184.799999998882,NA,NA,NA,NA,survey-likert-extra-labels,150,1134206,0.0-54.0-3.0-0.0,anomymised,65658159d48bb6bd55b14990,65671a1a0694a63a153fd451,22216,1C,man,NA,NA,W2 is being copied by W4,copy1,rating_causation,"{""Q0"":6}",[0],W2 started copying W4 first,W4 started copying W2 first
3885.2999999988824,<p>Thank you for completing that task.</p><p>The final part of this session is a short questionnaire.</p><p>Press Continue.</p>,0,Continue,Continue,html-button-response,151,1138092,0.0-55.0,anomymised,65658159d48bb6bd55b14990,65671a1a0694a63a153fd451,22216,1C,man,NA,NA,NA,NA,NA,NA,NA,NA,NA
36728.5,NA,NA,NA,NA,survey-text,152,1175833,0.0-56.0,anomymised,65658159d48bb6bd55b14990,65671a1a0694a63a153fd451,22216,1C,man,NA,NA,NA,NA,demographics,"{""Q0"":""35"",""Q1"":""English"",""Q2"":""English"",""Q3"":""United Kingdom"",""Q4"":""English"",""Q5"":""white"",""Q6"":""male""}",NA,NA,NA
3921.300000000745,<p>This is the last question - thank you for taking part! Have you lived in the UK for the last 5 years or more?</p>,0,"Yes,No",Yes,html-button-response,153,1179755,0.0-57.0,anomymised,65658159d48bb6bd55b14990,65671a1a0694a63a153fd451,22216,1C,man,NA,NA,NA,NA,fiveyears,NA,NA,NA,NA
