rt,stimulus,button_pressed,choices,ChosenStimulus,trial_type,trial_index,time_elapsed,internal_node_id,subject_id,study_id,session_id,subject,list,ppt_gender,url,key_press,sentence_type,verb,test_part,responses,question_order,left_part,right_part
2835.7000000029802,Welcome to the experiment. Press Continue to begin.,0,Continue,Continue,html-button-response,0,2840,0.0-0.0,anomymised,65658173009eeb17459c8404,656776d541acc528d873ee3f,28078,2,man,NA,NA,NA,NA,NA,NA,NA,NA,NA
7106.79999999702,NA,NA,NA,NA,external-html,1,11087,0.0-1.0,anomymised,65658173009eeb17459c8404,656776d541acc528d873ee3f,28078,2,man,consent.html,NA,NA,NA,NA,NA,NA,NA,NA
1900.7000000029802,"<p>Welcome.</p><p>In this experiment we will ask you to imagine some situations.</p><p>Each trial starts with a description of an event.</p><p>Then you will see alternative descriptions of that event, and you will rate on a scale how best they match the original description.</p><p>You will give your answer by clicking a button on a rating scale.</p><p>To do this task, you will have to use your imagination to visualise these events.</p><br><p>Ready?</p>",0,Continue,Continue,html-button-response,2,12990,0.0-2.0,anomymised,65658173009eeb17459c8404,656776d541acc528d873ee3f,28078,2,man,NA,NA,NA,NA,NA,NA,NA,NA,NA
2609.7999999970198,"<p>Before the experiment starts, you will watch an example trial. Press 'Continue'.</p>",0,Continue,Continue,html-button-response,3,16613,0.0-3.0,anomymised,65658173009eeb17459c8404,656776d541acc528d873ee3f,28078,2,man,NA,NA,NA,NA,NA,NA,NA,NA,NA
null,The police officer is arresting the robber,NA,NA,NA,html-keyboard-response,4,19642,0.0-4.0,anomymised,65658173009eeb17459c8404,656776d541acc528d873ee3f,28078,2,man,NA,null,NA,NA,NA,NA,NA,NA,NA
18147.29999999702,<img src='img/Example-trial.jpg' style='height:550px;''></img>,0,Continue,Continue,html-button-response,5,37791,0.0-5.0,anomymised,65658173009eeb17459c8404,656776d541acc528d873ee3f,28078,2,man,NA,NA,NA,NA,NA,NA,NA,NA,NA
35654.80000001192,<p>Ready to start the experiment?</p><br><p><strong>Remember to give an answer by clicking a button on the rating scale.</strong></p><p>Press 'Continue' to begin.</p>,0,Continue,Continue,html-button-response,6,74456,0.0-6.0,anomymised,65658173009eeb17459c8404,656776d541acc528d873ee3f,28078,2,man,NA,NA,NA,NA,NA,NA,NA,NA,NA
null,Dave is being greeted by Mike,NA,NA,NA,html-keyboard-response,7,77485,0.0-7.0-0.0,anomymised,65658173009eeb17459c8404,656776d541acc528d873ee3f,28078,2,man,NA,null,M2 is being greeted by M4,greet2,sentence,NA,NA,NA,NA
14778.90000000596,NA,NA,NA,NA,survey-likert-extra-labels,8,92267,0.0-7.0-2.0,anomymised,65658173009eeb17459c8404,656776d541acc528d873ee3f,28078,2,man,NA,NA,M2 is being greeted by M4,greet2,rating_volition,"{""Q0"":0}",[0],M4 wanted to greet M2,M2 wanted to greet M4
21880.5,NA,NA,NA,NA,survey-likert-extra-labels,9,114151,0.0-7.0-3.0-0.0,anomymised,65658173009eeb17459c8404,656776d541acc528d873ee3f,28078,2,man,NA,NA,M2 is being greeted by M4,greet2,rating_causation,"{""Q0"":0}",[0],M4 started greeting M2 first,M2 started greeting M4 first
null,Ruth is being seduced by Kate,NA,NA,NA,html-keyboard-response,10,116159,0.0-8.0-0.0,anomymised,65658173009eeb17459c8404,656776d541acc528d873ee3f,28078,2,man,NA,null,W4 is being seduced by W2,seduce1,sentence,NA,NA,NA,NA
8448.89999999106,NA,NA,NA,NA,survey-likert-extra-labels,11,124610,0.0-8.0-1.0-0.0,anomymised,65658173009eeb17459c8404,656776d541acc528d873ee3f,28078,2,man,NA,NA,W4 is being seduced by W2,seduce1,rating_causation,"{""Q0"":6}",[0],W4 started seducing W2 first,W2 started seducing W4 first
7550.70000000298,NA,NA,NA,NA,survey-likert-extra-labels,12,132163,0.0-8.0-2.0,anomymised,65658173009eeb17459c8404,656776d541acc528d873ee3f,28078,2,man,NA,NA,W4 is being seduced by W2,seduce1,rating_volition,"{""Q0"":6}",[0],W4 wanted to seduce W2,W2 wanted to seduce W4
null,Kate is teaching Mike,NA,NA,NA,html-keyboard-response,13,134176,0.0-9.0-0.0,anomymised,65658173009eeb17459c8404,656776d541acc528d873ee3f,28078,2,man,NA,null,W2 is teaching M4,teach,sentence,NA,NA,NA,NA
4521.79999999702,NA,NA,NA,NA,survey-likert-extra-labels,14,138700,0.0-9.0-1.0-0.0,anomymised,65658173009eeb17459c8404,656776d541acc528d873ee3f,28078,2,man,NA,NA,W2 is teaching M4,teach,rating_causation,"{""Q0"":6}",[0],W2 is learning from M4,M4 is learning from W2
9607.10000000894,NA,NA,NA,NA,survey-likert-extra-labels,15,148310,0.0-9.0-2.0,anomymised,65658173009eeb17459c8404,656776d541acc528d873ee3f,28078,2,man,NA,NA,W2 is teaching M4,teach,rating_volition,"{""Q0"":0}",[0],W2 is educating M4,M4 is educating W2
null,Luke is hiring Beth,NA,NA,NA,html-keyboard-response,16,150328,0.0-10.0-0.0,anomymised,65658173009eeb17459c8404,656776d541acc528d873ee3f,28078,2,man,NA,null,M3 is hiring W1,hire,sentence,NA,NA,NA,NA
4698.9000000059605,NA,NA,NA,NA,survey-likert-extra-labels,17,155029,0.0-10.0-1.0-0.0,anomymised,65658173009eeb17459c8404,656776d541acc528d873ee3f,28078,2,man,NA,NA,M3 is hiring W1,hire,rating_causation,"{""Q0"":6}",[0],M3 will work for W1,W1 will work for M3
6617.5,NA,NA,NA,NA,survey-likert-extra-labels,18,161650,0.0-10.0-2.0,anomymised,65658173009eeb17459c8404,656776d541acc528d873ee3f,28078,2,man,NA,NA,M3 is hiring W1,hire,rating_volition,"{""Q0"":0}",[0],M3 is employing W1,W1 is employing M3
null,Mike is being challenged by Dave,NA,NA,NA,html-keyboard-response,19,163663,0.0-11.0-0.0,anomymised,65658173009eeb17459c8404,656776d541acc528d873ee3f,28078,2,man,NA,null,M4 is being challenged by M2,challenge2,sentence,NA,NA,NA,NA
5920.0999999940395,NA,NA,NA,NA,survey-likert-extra-labels,20,169585,0.0-11.0-2.0,anomymised,65658173009eeb17459c8404,656776d541acc528d873ee3f,28078,2,man,NA,NA,M4 is being challenged by M2,challenge2,rating_volition,"{""Q0"":6}",[0],M4 wanted to challenge M2,M2 wanted to challenge M4
6145.20000000298,NA,NA,NA,NA,survey-likert-extra-labels,21,175735,0.0-11.0-3.0-0.0,anomymised,65658173009eeb17459c8404,656776d541acc528d873ee3f,28078,2,man,NA,NA,M4 is being challenged by M2,challenge2,rating_causation,"{""Q0"":6}",[0],M4 started challenging M2 first,M2 started challenging M4 first
null,Jane is being greeted by Fred,NA,NA,NA,html-keyboard-response,22,177751,0.0-12.0-0.0,anomymised,65658173009eeb17459c8404,656776d541acc528d873ee3f,28078,2,man,NA,null,W3 is being greeted by M1,greet4,sentence,NA,NA,NA,NA
4250.29999999702,NA,NA,NA,NA,survey-likert-extra-labels,23,182003,0.0-12.0-1.0-0.0,anomymised,65658173009eeb17459c8404,656776d541acc528d873ee3f,28078,2,man,NA,NA,W3 is being greeted by M1,greet4,rating_causation,"{""Q0"":0}",[0],M1 started greeting W3 first,W3 started greeting M1 first
3423.2999999970198,NA,NA,NA,NA,survey-likert-extra-labels,24,185429,0.0-12.0-2.0,anomymised,65658173009eeb17459c8404,656776d541acc528d873ee3f,28078,2,man,NA,NA,W3 is being greeted by M1,greet4,rating_volition,"{""Q0"":0}",[0],M1 wanted to greet W3,W3 wanted to greet M1
null,Luke is being copied by Beth,NA,NA,NA,html-keyboard-response,25,187436,0.0-13.0-0.0,anomymised,65658173009eeb17459c8404,656776d541acc528d873ee3f,28078,2,man,NA,null,M3 is being copied by W1,copy4,sentence,NA,NA,NA,NA
4717.20000000298,NA,NA,NA,NA,survey-likert-extra-labels,26,192155,0.0-13.0-1.0-0.0,anomymised,65658173009eeb17459c8404,656776d541acc528d873ee3f,28078,2,man,NA,NA,M3 is being copied by W1,copy4,rating_causation,"{""Q0"":0}",[0],W1 started copying M3 first,M3 started copying W1 first
6071.29999999702,NA,NA,NA,NA,survey-likert-extra-labels,27,198230,0.0-13.0-2.0,anomymised,65658173009eeb17459c8404,656776d541acc528d873ee3f,28078,2,man,NA,NA,M3 is being copied by W1,copy4,rating_volition,"{""Q0"":0}",[0],W1 wanted to copy M3,M3 wanted to copy W1
null,Beth is being kissed by Jane,NA,NA,NA,html-keyboard-response,28,200248,0.0-14.0-0.0,anomymised,65658173009eeb17459c8404,656776d541acc528d873ee3f,28078,2,man,NA,null,W1 is being kissed by W3,kiss1,sentence,NA,NA,NA,NA
4843.29999999702,NA,NA,NA,NA,survey-likert-extra-labels,29,205093,0.0-14.0-2.0,anomymised,65658173009eeb17459c8404,656776d541acc528d873ee3f,28078,2,man,NA,NA,W1 is being kissed by W3,kiss1,rating_volition,"{""Q0"":0}",[0],W3 wanted to kiss W1,W1 wanted to kiss W3
6534.20000000298,NA,NA,NA,NA,survey-likert-extra-labels,30,211630,0.0-14.0-3.0-0.0,anomymised,65658173009eeb17459c8404,656776d541acc528d873ee3f,28078,2,man,NA,NA,W1 is being kissed by W3,kiss1,rating_causation,"{""Q0"":0}",[0],W3 asked to kiss W1,W1 asked to kiss W3
null,Beth is being challenged by Luke,NA,NA,NA,html-keyboard-response,31,213644,0.0-15.0-0.0,anomymised,65658173009eeb17459c8404,656776d541acc528d873ee3f,28078,2,man,NA,null,W1 is being challenged by M3,challenge3,sentence,NA,NA,NA,NA
4083.6000000089407,NA,NA,NA,NA,survey-likert-extra-labels,32,217729,0.0-15.0-2.0,anomymised,65658173009eeb17459c8404,656776d541acc528d873ee3f,28078,2,man,NA,NA,W1 is being challenged by M3,challenge3,rating_volition,"{""Q0"":6}",[0],W1 wanted to challenge M3,M3 wanted to challenge W1
3486.1000000089407,NA,NA,NA,NA,survey-likert-extra-labels,33,221218,0.0-15.0-3.0-0.0,anomymised,65658173009eeb17459c8404,656776d541acc528d873ee3f,28078,2,man,NA,NA,W1 is being challenged by M3,challenge3,rating_causation,"{""Q0"":0}",[0],W1 started challenging M3 first,M3 started challenging W1 first
null,Dave is being looked at by Ruth,NA,NA,NA,html-keyboard-response,34,223226,0.0-16.0-0.0,anomymised,65658173009eeb17459c8404,656776d541acc528d873ee3f,28078,2,man,NA,null,M2 is being looked at by W4,look4,sentence,NA,NA,NA,NA
4032.5,NA,NA,NA,NA,survey-likert-extra-labels,35,227260,0.0-16.0-2.0,anomymised,65658173009eeb17459c8404,656776d541acc528d873ee3f,28078,2,man,NA,NA,M2 is being looked at by W4,look4,rating_volition,"{""Q0"":0}",[0],W4 wanted to look at M2,M2 wanted to look at W4
5595.20000000298,NA,NA,NA,NA,survey-likert-extra-labels,36,232858,0.0-16.0-3.0-0.0,anomymised,65658173009eeb17459c8404,656776d541acc528d873ee3f,28078,2,man,NA,NA,M2 is being looked at by W4,look4,rating_causation,"{""Q0"":0}",[0],W4 looked at M2 first,M2 looked at W4 first
null,Mike is being shouted at by Kate,NA,NA,NA,html-keyboard-response,37,234869,0.0-17.0-0.0,anomymised,65658173009eeb17459c8404,656776d541acc528d873ee3f,28078,2,man,NA,null,M4 is being shouted at by W2,shout4,sentence,NA,NA,NA,NA
4624.5999999940395,NA,NA,NA,NA,survey-likert-extra-labels,38,239495,0.0-17.0-1.0-0.0,anomymised,65658173009eeb17459c8404,656776d541acc528d873ee3f,28078,2,man,NA,NA,M4 is being shouted at by W2,shout4,rating_causation,"{""Q0"":6}",[0],M4 shouted at W2 first,W2 shouted at M4 first
5746.29999999702,NA,NA,NA,NA,survey-likert-extra-labels,39,245244,0.0-17.0-2.0,anomymised,65658173009eeb17459c8404,656776d541acc528d873ee3f,28078,2,man,NA,NA,M4 is being shouted at by W2,shout4,rating_volition,"{""Q0"":6}",[0],M4 wanted to shout at W2,W2 wanted to shout at M4
null,Dave is reminding Ruth,NA,NA,NA,html-keyboard-response,40,247258,0.0-18.0-0.0,anomymised,65658173009eeb17459c8404,656776d541acc528d873ee3f,28078,2,man,NA,null,M2 is reminding W4,remind,sentence,NA,NA,NA,NA
15665.20000000298,NA,NA,NA,NA,survey-likert-extra-labels,41,262927,0.0-18.0-2.0,anomymised,65658173009eeb17459c8404,656776d541acc528d873ee3f,28078,2,man,NA,NA,M2 is reminding W4,remind,rating_volition,"{""Q0"":0}",[0],M2 is telling W4 again,W4 is telling M2 again
4318.29999999702,NA,NA,NA,NA,survey-likert-extra-labels,42,267248,0.0-18.0-3.0-0.0,anomymised,65658173009eeb17459c8404,656776d541acc528d873ee3f,28078,2,man,NA,NA,M2 is reminding W4,remind,rating_causation,"{""Q0"":6}",[0],M2 is remembering,W4 is remembering
null,Fred is being touched by Jane,NA,NA,NA,html-keyboard-response,43,269252,0.0-19.0-0.0,anomymised,65658173009eeb17459c8404,656776d541acc528d873ee3f,28078,2,man,NA,null,M1 is being touched by W3,touch3,sentence,NA,NA,NA,NA
3615.3999999910593,NA,NA,NA,NA,survey-likert-extra-labels,44,272869,0.0-19.0-2.0,anomymised,65658173009eeb17459c8404,656776d541acc528d873ee3f,28078,2,man,NA,NA,M1 is being touched by W3,touch3,rating_volition,"{""Q0"":6}",[0],M1 wanted to touch W3,W3 wanted to touch M1
4854.600000008941,NA,NA,NA,NA,survey-likert-extra-labels,45,277726,0.0-19.0-3.0-0.0,anomymised,65658173009eeb17459c8404,656776d541acc528d873ee3f,28078,2,man,NA,NA,M1 is being touched by W3,touch3,rating_causation,"{""Q0"":6}",[0],M1 asked to touch W3,W3 asked to touch M1
null,Beth is being touched by Luke,NA,NA,NA,html-keyboard-response,46,279744,0.0-20.0-0.0,anomymised,65658173009eeb17459c8404,656776d541acc528d873ee3f,28078,2,man,NA,null,W1 is being touched by M3,touch4,sentence,NA,NA,NA,NA
7078.70000000298,NA,NA,NA,NA,survey-likert-extra-labels,47,286824,0.0-20.0-2.0,anomymised,65658173009eeb17459c8404,656776d541acc528d873ee3f,28078,2,man,NA,NA,W1 is being touched by M3,touch4,rating_volition,"{""Q0"":6}",[0],W1 wanted to touch M3,M3 wanted to touch W1
5474.100000008941,NA,NA,NA,NA,survey-likert-extra-labels,48,292301,0.0-20.0-3.0-0.0,anomymised,65658173009eeb17459c8404,656776d541acc528d873ee3f,28078,2,man,NA,NA,W1 is being touched by M3,touch4,rating_causation,"{""Q0"":6}",[0],W1 asked to touch M3,M3 asked to touch W1
null,Ruth is being hugged by Dave,NA,NA,NA,html-keyboard-response,49,294314,0.0-21.0-0.0,anomymised,65658173009eeb17459c8404,656776d541acc528d873ee3f,28078,2,man,NA,null,W4 is being hugged by M2,hug4,sentence,NA,NA,NA,NA
3917.5999999940395,NA,NA,NA,NA,survey-likert-extra-labels,50,298233,0.0-21.0-1.0-0.0,anomymised,65658173009eeb17459c8404,656776d541acc528d873ee3f,28078,2,man,NA,NA,W4 is being hugged by M2,hug4,rating_causation,"{""Q0"":6}",[0],W4 asked to hug M2,M2 asked to hug W4
5543.9000000059605,NA,NA,NA,NA,survey-likert-extra-labels,51,303780,0.0-21.0-2.0,anomymised,65658173009eeb17459c8404,656776d541acc528d873ee3f,28078,2,man,NA,NA,W4 is being hugged by M2,hug4,rating_volition,"{""Q0"":6}",[0],W4 wanted to hug M2,M2 wanted to hug W4
null,Ruth is being touched by Kate,NA,NA,NA,html-keyboard-response,52,305783,0.0-22.0-0.0,anomymised,65658173009eeb17459c8404,656776d541acc528d873ee3f,28078,2,man,NA,null,W4 is being touched by W2,touch1,sentence,NA,NA,NA,NA
83560.90000000596,NA,NA,NA,NA,survey-likert-extra-labels,53,389345,0.0-22.0-2.0,anomymised,65658173009eeb17459c8404,656776d541acc528d873ee3f,28078,2,man,NA,NA,W4 is being touched by W2,touch1,rating_volition,"{""Q0"":6}",[0],W4 wanted to touch W2,W2 wanted to touch W4
5490.20000000298,NA,NA,NA,NA,survey-likert-extra-labels,54,394839,0.0-22.0-3.0-0.0,anomymised,65658173009eeb17459c8404,656776d541acc528d873ee3f,28078,2,man,NA,NA,W4 is being touched by W2,touch1,rating_causation,"{""Q0"":6}",[0],W4 asked to touch W2,W2 asked to touch W4
null,Dave is posing for Mike,NA,NA,NA,html-keyboard-response,55,396851,0.0-23.0-0.0,anomymised,65658173009eeb17459c8404,656776d541acc528d873ee3f,28078,2,man,NA,null,M2 is posing for M4,pose,sentence,NA,NA,NA,NA
118512.90000000596,NA,NA,NA,NA,survey-likert-extra-labels,56,515365,0.0-23.0-1.0-0.0,anomymised,65658173009eeb17459c8404,656776d541acc528d873ee3f,28078,2,man,NA,NA,M2 is posing for M4,pose,rating_causation,"{""Q0"":6}",[0],M2 is photographing M4,M4 is photographing M2
4934.699999988079,NA,NA,NA,NA,survey-likert-extra-labels,57,520303,0.0-23.0-2.0,anomymised,65658173009eeb17459c8404,656776d541acc528d873ee3f,28078,2,man,NA,NA,M2 is posing for M4,pose,rating_volition,"{""Q0"":0}",[0],M2 is modelling for M4,M4 is modelling for M2
null,Luke is being shouted at by Fred,NA,NA,NA,html-keyboard-response,58,522306,0.0-24.0-0.0,anomymised,65658173009eeb17459c8404,656776d541acc528d873ee3f,28078,2,man,NA,null,M3 is being shouted at by M1,shout2,sentence,NA,NA,NA,NA
4476.29999999702,NA,NA,NA,NA,survey-likert-extra-labels,59,526784,0.0-24.0-1.0-0.0,anomymised,65658173009eeb17459c8404,656776d541acc528d873ee3f,28078,2,man,NA,NA,M3 is being shouted at by M1,shout2,rating_causation,"{""Q0"":6}",[0],M3 shouted at M1 first,M1 shouted at M3 first
6023.20000000298,NA,NA,NA,NA,survey-likert-extra-labels,60,532810,0.0-24.0-2.0,anomymised,65658173009eeb17459c8404,656776d541acc528d873ee3f,28078,2,man,NA,NA,M3 is being shouted at by M1,shout2,rating_volition,"{""Q0"":6}",[0],M3 wanted to shout at M1,M1 wanted to shout at M3
null,Jane is being opposed by Beth,NA,NA,NA,html-keyboard-response,61,534827,0.0-25.0-0.0,anomymised,65658173009eeb17459c8404,656776d541acc528d873ee3f,28078,2,man,NA,null,W3 is being opposed by W1,oppose1,sentence,NA,NA,NA,NA
6924.79999999702,NA,NA,NA,NA,survey-likert-extra-labels,62,541754,0.0-25.0-2.0,anomymised,65658173009eeb17459c8404,656776d541acc528d873ee3f,28078,2,man,NA,NA,W3 is being opposed by W1,oppose1,rating_volition,"{""Q0"":6}",[0],W3 wanted to oppose W1,W1 wanted to oppose W3
4982.9000000059605,NA,NA,NA,NA,survey-likert-extra-labels,63,546739,0.0-25.0-3.0-0.0,anomymised,65658173009eeb17459c8404,656776d541acc528d873ee3f,28078,2,man,NA,NA,W3 is being opposed by W1,oppose1,rating_causation,"{""Q0"":6}",[0],W3 started opposing W1,W1 started opposing W3
null,Kate is being greeted by Ruth,NA,NA,NA,html-keyboard-response,64,548743,0.0-26.0-0.0,anomymised,65658173009eeb17459c8404,656776d541acc528d873ee3f,28078,2,man,NA,null,W2 is being greeted by W4,greet1,sentence,NA,NA,NA,NA
5957.399999991059,NA,NA,NA,NA,survey-likert-extra-labels,65,554703,0.0-26.0-2.0,anomymised,65658173009eeb17459c8404,656776d541acc528d873ee3f,28078,2,man,NA,NA,W2 is being greeted by W4,greet1,rating_volition,"{""Q0"":0}",[0],W4 wanted to greet W2,W2 wanted to greet W4
2871,NA,NA,NA,NA,survey-likert-extra-labels,66,557576,0.0-26.0-3.0-0.0,anomymised,65658173009eeb17459c8404,656776d541acc528d873ee3f,28078,2,man,NA,NA,W2 is being greeted by W4,greet1,rating_causation,"{""Q0"":0}",[0],W4 started greeting W2 first,W2 started greeting W4 first
null,Fred is being seduced by Jane,NA,NA,NA,html-keyboard-response,67,559583,0.0-27.0-0.0,anomymised,65658173009eeb17459c8404,656776d541acc528d873ee3f,28078,2,man,NA,null,M1 is being seduced by W3,seduce3,sentence,NA,NA,NA,NA
2588.0999999940395,NA,NA,NA,NA,survey-likert-extra-labels,68,562173,0.0-27.0-2.0,anomymised,65658173009eeb17459c8404,656776d541acc528d873ee3f,28078,2,man,NA,NA,M1 is being seduced by W3,seduce3,rating_volition,"{""Q0"":6}",[0],M1 wanted to seduce W3,W3 wanted to seduce M1
3046.6000000089407,NA,NA,NA,NA,survey-likert-extra-labels,69,565222,0.0-27.0-3.0-0.0,anomymised,65658173009eeb17459c8404,656776d541acc528d873ee3f,28078,2,man,NA,NA,M1 is being seduced by W3,seduce3,rating_causation,"{""Q0"":6}",[0],M1 started seducing W3 first,W3 started seducing M1 first
null,Fred is being kissed by Luke,NA,NA,NA,html-keyboard-response,70,567227,0.0-28.0-0.0,anomymised,65658173009eeb17459c8404,656776d541acc528d873ee3f,28078,2,man,NA,null,M1 is being kissed by M3,kiss2,sentence,NA,NA,NA,NA
3932,NA,NA,NA,NA,survey-likert-extra-labels,71,571160,0.0-28.0-2.0,anomymised,65658173009eeb17459c8404,656776d541acc528d873ee3f,28078,2,man,NA,NA,M1 is being kissed by M3,kiss2,rating_volition,"{""Q0"":0}",[0],M3 wanted to kiss M1,M1 wanted to kiss M3
4457.0999999940395,NA,NA,NA,NA,survey-likert-extra-labels,72,575620,0.0-28.0-3.0-0.0,anomymised,65658173009eeb17459c8404,656776d541acc528d873ee3f,28078,2,man,NA,NA,M1 is being kissed by M3,kiss2,rating_causation,"{""Q0"":0}",[0],M3 asked to kiss M1,M1 asked to kiss M3
null,Beth is chasing Jane,NA,NA,NA,html-keyboard-response,73,577624,0.0-29.0-0.0,anomymised,65658173009eeb17459c8404,656776d541acc528d873ee3f,28078,2,man,NA,null,W1 is chasing W3,chase,sentence,NA,NA,NA,NA
7268.4000000059605,NA,NA,NA,NA,survey-likert-extra-labels,74,584894,0.0-29.0-1.0-0.0,anomymised,65658173009eeb17459c8404,656776d541acc528d873ee3f,28078,2,man,NA,NA,W1 is chasing W3,chase,rating_causation,"{""Q0"":6}",[0],W1 is running away from W3,W3 is running away from W1
5425.399999991059,NA,NA,NA,NA,survey-likert-extra-labels,75,590323,0.0-29.0-2.0,anomymised,65658173009eeb17459c8404,656776d541acc528d873ee3f,28078,2,man,NA,NA,W1 is chasing W3,chase,rating_volition,"{""Q0"":0}",[0],W1 is behind W3,W3 is behind W1
null,Kate is being copied by Ruth,NA,NA,NA,html-keyboard-response,76,592331,0.0-30.0-0.0,anomymised,65658173009eeb17459c8404,656776d541acc528d873ee3f,28078,2,man,NA,null,W2 is being copied by W4,copy1,sentence,NA,NA,NA,NA
2488.5999999940395,NA,NA,NA,NA,survey-likert-extra-labels,77,594821,0.0-30.0-1.0-0.0,anomymised,65658173009eeb17459c8404,656776d541acc528d873ee3f,28078,2,man,NA,NA,W2 is being copied by W4,copy1,rating_causation,"{""Q0"":0}",[0],W4 started copying W2 first,W2 started copying W4 first
3209.699999988079,NA,NA,NA,NA,survey-likert-extra-labels,78,598033,0.0-30.0-2.0,anomymised,65658173009eeb17459c8404,656776d541acc528d873ee3f,28078,2,man,NA,NA,W2 is being copied by W4,copy1,rating_volition,"{""Q0"":0}",[0],W4 wanted to copy W2,W2 wanted to copy W4
null,Mike is being seduced by Dave,NA,NA,NA,html-keyboard-response,79,600040,0.0-31.0-0.0,anomymised,65658173009eeb17459c8404,656776d541acc528d873ee3f,28078,2,man,NA,null,M4 is being seduced by M2,seduce2,sentence,NA,NA,NA,NA
2001.4000000059605,NA,NA,NA,NA,survey-likert-extra-labels,80,602043,0.0-31.0-1.0-0.0,anomymised,65658173009eeb17459c8404,656776d541acc528d873ee3f,28078,2,man,NA,NA,M4 is being seduced by M2,seduce2,rating_causation,"{""Q0"":6}",[0],M4 started seducing M2 first,M2 started seducing M4 first
5147.9000000059605,NA,NA,NA,NA,survey-likert-extra-labels,81,607193,0.0-31.0-2.0,anomymised,65658173009eeb17459c8404,656776d541acc528d873ee3f,28078,2,man,NA,NA,M4 is being seduced by M2,seduce2,rating_volition,"{""Q0"":6}",[0],M4 wanted to seduce M2,M2 wanted to seduce M4
null,Beth is being looked at by Jane,NA,NA,NA,html-keyboard-response,82,609198,0.0-32.0-0.0,anomymised,65658173009eeb17459c8404,656776d541acc528d873ee3f,28078,2,man,NA,null,W1 is being looked at by W3,look1,sentence,NA,NA,NA,NA
4923,NA,NA,NA,NA,survey-likert-extra-labels,83,614123,0.0-32.0-2.0,anomymised,65658173009eeb17459c8404,656776d541acc528d873ee3f,28078,2,man,NA,NA,W1 is being looked at by W3,look1,rating_volition,"{""Q0"":0}",[0],W3 wanted to look at W1,W1 wanted to look at W3
3909,NA,NA,NA,NA,survey-likert-extra-labels,84,618035,0.0-32.0-3.0-0.0,anomymised,65658173009eeb17459c8404,656776d541acc528d873ee3f,28078,2,man,NA,NA,W1 is being looked at by W3,look1,rating_causation,"{""Q0"":0}",[0],W3 looked at W1 first,W1 looked at W3 first
null,Beth is being seduced by Luke,NA,NA,NA,html-keyboard-response,85,620038,0.0-33.0-0.0,anomymised,65658173009eeb17459c8404,656776d541acc528d873ee3f,28078,2,man,NA,null,W1 is being seduced by M3,seduce4,sentence,NA,NA,NA,NA
4324.5,NA,NA,NA,NA,survey-likert-extra-labels,86,624364,0.0-33.0-2.0,anomymised,65658173009eeb17459c8404,656776d541acc528d873ee3f,28078,2,man,NA,NA,W1 is being seduced by M3,seduce4,rating_volition,"{""Q0"":6}",[0],W1 wanted to seducing M3,M3 wanted to seducing W1
3087.5,NA,NA,NA,NA,survey-likert-extra-labels,87,627456,0.0-33.0-3.0-0.0,anomymised,65658173009eeb17459c8404,656776d541acc528d873ee3f,28078,2,man,NA,NA,W1 is being seduced by M3,seduce4,rating_causation,"{""Q0"":6}",[0],W1 started seducing M3 first,M3 started seducing W1 first
null,Mike is being hugged by Kate,NA,NA,NA,html-keyboard-response,88,629460,0.0-34.0-0.0,anomymised,65658173009eeb17459c8404,656776d541acc528d873ee3f,28078,2,man,NA,null,M4 is being hugged by W2,hug3,sentence,NA,NA,NA,NA
3247.9000000059605,NA,NA,NA,NA,survey-likert-extra-labels,89,632710,0.0-34.0-1.0-0.0,anomymised,65658173009eeb17459c8404,656776d541acc528d873ee3f,28078,2,man,NA,NA,M4 is being hugged by W2,hug3,rating_causation,"{""Q0"":6}",[0],M4 asked to hug W2,W2 asked to hug M4
3740,NA,NA,NA,NA,survey-likert-extra-labels,90,636453,0.0-34.0-2.0,anomymised,65658173009eeb17459c8404,656776d541acc528d873ee3f,28078,2,man,NA,NA,M4 is being hugged by W2,hug3,rating_volition,"{""Q0"":6}",[0],M4 wanted to hug W2,W2 wanted to hug M4
null,Kate is carrying Ruth,NA,NA,NA,html-keyboard-response,91,638456,0.0-35.0-0.0,anomymised,65658173009eeb17459c8404,656776d541acc528d873ee3f,28078,2,man,NA,null,W2 is carrying W4,carry,sentence,NA,NA,NA,NA
4827.600000008941,NA,NA,NA,NA,survey-likert-extra-labels,92,643285,0.0-35.0-2.0,anomymised,65658173009eeb17459c8404,656776d541acc528d873ee3f,28078,2,man,NA,NA,W2 is carrying W4,carry,rating_volition,"{""Q0"":0}",[0],W2 is transporting W4,W4 is transporting W2
2823.1000000089407,NA,NA,NA,NA,survey-likert-extra-labels,93,646111,0.0-35.0-3.0-0.0,anomymised,65658173009eeb17459c8404,656776d541acc528d873ee3f,28078,2,man,NA,NA,W2 is carrying W4,carry,rating_causation,"{""Q0"":6}",[0],W2 is being moved by W4,W4 is being moved by W2
null,Luke is being greeted by Beth,NA,NA,NA,html-keyboard-response,94,648115,0.0-36.0-0.0,anomymised,65658173009eeb17459c8404,656776d541acc528d873ee3f,28078,2,man,NA,null,M3 is being greeted by W1,greet3,sentence,NA,NA,NA,NA
4297.600000008941,NA,NA,NA,NA,survey-likert-extra-labels,95,652414,0.0-36.0-1.0-0.0,anomymised,65658173009eeb17459c8404,656776d541acc528d873ee3f,28078,2,man,NA,NA,M3 is being greeted by W1,greet3,rating_causation,"{""Q0"":0}",[0],W1 started greeting M3 first,M3 started greeting W1 first
18405.19999998808,NA,NA,NA,NA,survey-likert-extra-labels,96,670822,0.0-36.0-2.0,anomymised,65658173009eeb17459c8404,656776d541acc528d873ee3f,28078,2,man,NA,NA,M3 is being greeted by W1,greet3,rating_volition,"{""Q0"":0}",[0],W1 wanted to greet M3,M3 wanted to greet W1
null,Mike is being touched by Dave,NA,NA,NA,html-keyboard-response,97,672840,0.0-37.0-0.0,anomymised,65658173009eeb17459c8404,656776d541acc528d873ee3f,28078,2,man,NA,null,M4 is being touched by M2,touch2,sentence,NA,NA,NA,NA
4094.2000000029802,NA,NA,NA,NA,survey-likert-extra-labels,98,676936,0.0-37.0-2.0,anomymised,65658173009eeb17459c8404,656776d541acc528d873ee3f,28078,2,man,NA,NA,M4 is being touched by M2,touch2,rating_volition,"{""Q0"":6}",[0],M4 wanted to touch M2,M2 wanted to touch M4
3042,NA,NA,NA,NA,survey-likert-extra-labels,99,679981,0.0-37.0-3.0-0.0,anomymised,65658173009eeb17459c8404,656776d541acc528d873ee3f,28078,2,man,NA,NA,M4 is being touched by M2,touch2,rating_causation,"{""Q0"":6}",[0],M4 asked to touch M2,M2 asked to touch M4
null,Mike is being opposed by Kate,NA,NA,NA,html-keyboard-response,100,681991,0.0-38.0-0.0,anomymised,65658173009eeb17459c8404,656776d541acc528d873ee3f,28078,2,man,NA,null,M4 is being opposed by W2,oppose3,sentence,NA,NA,NA,NA
1878.6000000089407,NA,NA,NA,NA,survey-likert-extra-labels,101,683871,0.0-38.0-2.0,anomymised,65658173009eeb17459c8404,656776d541acc528d873ee3f,28078,2,man,NA,NA,M4 is being opposed by W2,oppose3,rating_volition,"{""Q0"":6}",[0],M4 wanted to oppose W2,W2 wanted to oppose M4
1998.8999999910593,NA,NA,NA,NA,survey-likert-extra-labels,102,685871,0.0-38.0-3.0-0.0,anomymised,65658173009eeb17459c8404,656776d541acc528d873ee3f,28078,2,man,NA,NA,M4 is being opposed by W2,oppose3,rating_causation,"{""Q0"":6}",[0],M4 started opposing W2,W2 started opposing M4
null,Ruth is being challenged by Kate,NA,NA,NA,html-keyboard-response,103,687885,0.0-39.0-0.0,anomymised,65658173009eeb17459c8404,656776d541acc528d873ee3f,28078,2,man,NA,null,W4 is being challenged by W2,challenge1,sentence,NA,NA,NA,NA
4287.5,NA,NA,NA,NA,survey-likert-extra-labels,104,692180,0.0-39.0-1.0-0.0,anomymised,65658173009eeb17459c8404,656776d541acc528d873ee3f,28078,2,man,NA,NA,W4 is being challenged by W2,challenge1,rating_causation,"{""Q0"":6}",[0],W4 started challenging W2 first,W2 started challenging W4 first
2951,NA,NA,NA,NA,survey-likert-extra-labels,105,695134,0.0-39.0-2.0,anomymised,65658173009eeb17459c8404,656776d541acc528d873ee3f,28078,2,man,NA,NA,W4 is being challenged by W2,challenge1,rating_volition,"{""Q0"":6}",[0],W4 wanted to challenge W2,W2 wanted to challenge W4
null,Luke is being hugged by Fred,NA,NA,NA,html-keyboard-response,106,697152,0.0-40.0-0.0,anomymised,65658173009eeb17459c8404,656776d541acc528d873ee3f,28078,2,man,NA,null,M3 is being hugged by M1,hug2,sentence,NA,NA,NA,NA
2962.0999999940395,NA,NA,NA,NA,survey-likert-extra-labels,107,700116,0.0-40.0-1.0-0.0,anomymised,65658173009eeb17459c8404,656776d541acc528d873ee3f,28078,2,man,NA,NA,M3 is being hugged by M1,hug2,rating_causation,"{""Q0"":6}",[0],M3 asked to hug M1,M1 asked to hug M3
4106.5999999940395,NA,NA,NA,NA,survey-likert-extra-labels,108,704225,0.0-40.0-2.0,anomymised,65658173009eeb17459c8404,656776d541acc528d873ee3f,28078,2,man,NA,NA,M3 is being hugged by M1,hug2,rating_volition,"{""Q0"":6}",[0],M3 wanted to hug M1,M1 wanted to hug M3
null,Dave is being copied by Mike,NA,NA,NA,html-keyboard-response,109,706238,0.0-41.0-0.0,anomymised,65658173009eeb17459c8404,656776d541acc528d873ee3f,28078,2,man,NA,null,M2 is being copied by M4,copy2,sentence,NA,NA,NA,NA
6204.5,NA,NA,NA,NA,survey-likert-extra-labels,110,712444,0.0-41.0-2.0,anomymised,65658173009eeb17459c8404,656776d541acc528d873ee3f,28078,2,man,NA,NA,M2 is being copied by M4,copy2,rating_volition,"{""Q0"":0}",[0],M4 wanted to copy M2,M2 wanted to copy M4
2781.9000000059605,NA,NA,NA,NA,survey-likert-extra-labels,111,715229,0.0-41.0-3.0-0.0,anomymised,65658173009eeb17459c8404,656776d541acc528d873ee3f,28078,2,man,NA,NA,M2 is being copied by M4,copy2,rating_causation,"{""Q0"":0}",[0],M4 started copying M2 first,M2 started copying M4 first
null,Jane is feeding Fred,NA,NA,NA,html-keyboard-response,112,717233,0.0-42.0-0.0,anomymised,65658173009eeb17459c8404,656776d541acc528d873ee3f,28078,2,man,NA,null,W3 is feeding M1,feed,sentence,NA,NA,NA,NA
8314.60000000894,NA,NA,NA,NA,survey-likert-extra-labels,113,725549,0.0-42.0-2.0,anomymised,65658173009eeb17459c8404,656776d541acc528d873ee3f,28078,2,man,NA,NA,W3 is feeding M1,feed,rating_volition,"{""Q0"":0}",[0],W3 cooked for M1,M1 cooked for W3
3613,NA,NA,NA,NA,survey-likert-extra-labels,114,729166,0.0-42.0-3.0-0.0,anomymised,65658173009eeb17459c8404,656776d541acc528d873ee3f,28078,2,man,NA,NA,W3 is feeding M1,feed,rating_causation,"{""Q0"":6}",[0],W3 is eating M1's food,M1 is eating W3's food
null,Dave is being kissed by Ruth,NA,NA,NA,html-keyboard-response,115,731171,0.0-43.0-0.0,anomymised,65658173009eeb17459c8404,656776d541acc528d873ee3f,28078,2,man,NA,null,M2 is being kissed by W4,kiss3,sentence,NA,NA,NA,NA
3931.2000000029802,NA,NA,NA,NA,survey-likert-extra-labels,116,735104,0.0-43.0-2.0,anomymised,65658173009eeb17459c8404,656776d541acc528d873ee3f,28078,2,man,NA,NA,M2 is being kissed by W4,kiss3,rating_volition,"{""Q0"":0}",[0],W4 wanted to kiss M2,M2 wanted to kiss W4
4288.79999999702,NA,NA,NA,NA,survey-likert-extra-labels,117,739396,0.0-43.0-3.0-0.0,anomymised,65658173009eeb17459c8404,656776d541acc528d873ee3f,28078,2,man,NA,NA,M2 is being kissed by W4,kiss3,rating_causation,"{""Q0"":0}",[0],W4 asked to kiss M2,M2 asked to kiss W4
null,Jane is being shouted at by Beth,NA,NA,NA,html-keyboard-response,118,741410,0.0-44.0-0.0,anomymised,65658173009eeb17459c8404,656776d541acc528d873ee3f,28078,2,man,NA,null,W3 is being shouted at by W1,shout1,sentence,NA,NA,NA,NA
2924.5,NA,NA,NA,NA,survey-likert-extra-labels,119,744336,0.0-44.0-2.0,anomymised,65658173009eeb17459c8404,656776d541acc528d873ee3f,28078,2,man,NA,NA,W3 is being shouted at by W1,shout1,rating_volition,"{""Q0"":6}",[0],W3 wanted to shout at W1,W1 wanted to shout at W3
2466.7000000029802,NA,NA,NA,NA,survey-likert-extra-labels,120,746806,0.0-44.0-3.0-0.0,anomymised,65658173009eeb17459c8404,656776d541acc528d873ee3f,28078,2,man,NA,NA,W3 is being shouted at by W1,shout1,rating_causation,"{""Q0"":6}",[0],W3 shouted at W1 first,W1 shouted at W3 first
null,Fred is driving Luke,NA,NA,NA,html-keyboard-response,121,748811,0.0-45.0-0.0,anomymised,65658173009eeb17459c8404,656776d541acc528d873ee3f,28078,2,man,NA,null,M1 is driving M3,drive,sentence,NA,NA,NA,NA
2966.6000000089407,NA,NA,NA,NA,survey-likert-extra-labels,122,751794,0.0-45.0-2.0,anomymised,65658173009eeb17459c8404,656776d541acc528d873ee3f,28078,2,man,NA,NA,M1 is driving M3,drive,rating_volition,"{""Q0"":6}",[0],M1 is M3's passenger,M3 is M1's passenger
4257.5999999940395,NA,NA,NA,NA,survey-likert-extra-labels,123,756055,0.0-45.0-3.0-0.0,anomymised,65658173009eeb17459c8404,656776d541acc528d873ee3f,28078,2,man,NA,NA,M1 is driving M3,drive,rating_causation,"{""Q0"":0}",[0],M1 is taking M3 somewhere,M3 is taking M1 somewhere
null,Fred is being challenged by Jane,NA,NA,NA,html-keyboard-response,124,758059,0.0-46.0-0.0,anomymised,65658173009eeb17459c8404,656776d541acc528d873ee3f,28078,2,man,NA,null,M1 is being challenged by W3,challenge4,sentence,NA,NA,NA,NA
210027.5,NA,NA,NA,NA,survey-likert-extra-labels,125,968134,0.0-46.0-2.0,anomymised,65658173009eeb17459c8404,656776d541acc528d873ee3f,28078,2,man,NA,NA,M1 is being challenged by W3,challenge4,rating_volition,"{""Q0"":6}",[0],M1 wanted to challenge W3,W3 wanted to challenge M1
3526.8999999910593,NA,NA,NA,NA,survey-likert-extra-labels,126,971663,0.0-46.0-3.0-0.0,anomymised,65658173009eeb17459c8404,656776d541acc528d873ee3f,28078,2,man,NA,NA,M1 is being challenged by W3,challenge4,rating_causation,"{""Q0"":6}",[0],M1 started challenging W3 first,W3 started challenging M1 first
null,Kate is being looked at by Mike,NA,NA,NA,html-keyboard-response,127,973681,0.0-47.0-0.0,anomymised,65658173009eeb17459c8404,656776d541acc528d873ee3f,28078,2,man,NA,null,W2 is being looked at by M4,look3,sentence,NA,NA,NA,NA
3938.7999999970198,NA,NA,NA,NA,survey-likert-extra-labels,128,977622,0.0-47.0-1.0-0.0,anomymised,65658173009eeb17459c8404,656776d541acc528d873ee3f,28078,2,man,NA,NA,W2 is being looked at by M4,look3,rating_causation,"{""Q0"":0}",[0],M4 looked at W2 first,W2 looked at M4 first
2162.0999999940395,NA,NA,NA,NA,survey-likert-extra-labels,129,979787,0.0-47.0-2.0,anomymised,65658173009eeb17459c8404,656776d541acc528d873ee3f,28078,2,man,NA,NA,W2 is being looked at by M4,look3,rating_volition,"{""Q0"":0}",[0],M4 wanted to look at W2,W2 wanted to look at M4
null,Kate is being kissed by Mike,NA,NA,NA,html-keyboard-response,130,981790,0.0-48.0-0.0,anomymised,65658173009eeb17459c8404,656776d541acc528d873ee3f,28078,2,man,NA,null,W2 is being kissed by M4,kiss4,sentence,NA,NA,NA,NA
3951.2000000029802,NA,NA,NA,NA,survey-likert-extra-labels,131,985743,0.0-48.0-2.0,anomymised,65658173009eeb17459c8404,656776d541acc528d873ee3f,28078,2,man,NA,NA,W2 is being kissed by M4,kiss4,rating_volition,"{""Q0"":0}",[0],M4 wanted to kiss W2,W2 wanted to kiss M4
2536.4000000059605,NA,NA,NA,NA,survey-likert-extra-labels,132,988283,0.0-48.0-3.0-0.0,anomymised,65658173009eeb17459c8404,656776d541acc528d873ee3f,28078,2,man,NA,NA,W2 is being kissed by M4,kiss4,rating_causation,"{""Q0"":0}",[0],M4 asked to kiss W2,W2 asked to kiss M4
null,Ruth is being shouted at by Dave,NA,NA,NA,html-keyboard-response,133,990285,0.0-49.0-0.0,anomymised,65658173009eeb17459c8404,656776d541acc528d873ee3f,28078,2,man,NA,null,W4 is being shouted at by M2,shout3,sentence,NA,NA,NA,NA
3399.7000000029802,NA,NA,NA,NA,survey-likert-extra-labels,134,993687,0.0-49.0-2.0,anomymised,65658173009eeb17459c8404,656776d541acc528d873ee3f,28078,2,man,NA,NA,W4 is being shouted at by M2,shout3,rating_volition,"{""Q0"":6}",[0],W4 wanted to shout at M2,M2 wanted to shout at W4
3728,NA,NA,NA,NA,survey-likert-extra-labels,135,997418,0.0-49.0-3.0-0.0,anomymised,65658173009eeb17459c8404,656776d541acc528d873ee3f,28078,2,man,NA,NA,W4 is being shouted at by M2,shout3,rating_causation,"{""Q0"":6}",[0],W4 shouted at M2 first,M2 shouted at W4 first
null,Luke is being opposed by Fred,NA,NA,NA,html-keyboard-response,136,999423,0.0-50.0-0.0,anomymised,65658173009eeb17459c8404,656776d541acc528d873ee3f,28078,2,man,NA,null,M3 is being opposed by M1,oppose2,sentence,NA,NA,NA,NA
4083.699999988079,NA,NA,NA,NA,survey-likert-extra-labels,137,1003509,0.0-50.0-1.0-0.0,anomymised,65658173009eeb17459c8404,656776d541acc528d873ee3f,28078,2,man,NA,NA,M3 is being opposed by M1,oppose2,rating_causation,"{""Q0"":6}",[0],M3 started opposing M1,M1 started opposing M3
3131.2000000029802,NA,NA,NA,NA,survey-likert-extra-labels,138,1006643,0.0-50.0-2.0,anomymised,65658173009eeb17459c8404,656776d541acc528d873ee3f,28078,2,man,NA,NA,M3 is being opposed by M1,oppose2,rating_volition,"{""Q0"":6}",[0],M3 wanted to oppose M1,M1 wanted to oppose M3
null,Fred is being looked at by Luke,NA,NA,NA,html-keyboard-response,139,1008647,0.0-51.0-0.0,anomymised,65658173009eeb17459c8404,656776d541acc528d873ee3f,28078,2,man,NA,null,M1 is being looked at by M3,look2,sentence,NA,NA,NA,NA
3323.5,NA,NA,NA,NA,survey-likert-extra-labels,140,1011972,0.0-51.0-1.0-0.0,anomymised,65658173009eeb17459c8404,656776d541acc528d873ee3f,28078,2,man,NA,NA,M1 is being looked at by M3,look2,rating_causation,"{""Q0"":0}",[0],M3 looked at M1 first,M1 looked at M3 first
4334.0999999940395,NA,NA,NA,NA,survey-likert-extra-labels,141,1016310,0.0-51.0-2.0,anomymised,65658173009eeb17459c8404,656776d541acc528d873ee3f,28078,2,man,NA,NA,M1 is being looked at by M3,look2,rating_volition,"{""Q0"":0}",[0],M3 wanted to look at M1,M1 wanted to look at M3
null,Jane is being copied by Fred,NA,NA,NA,html-keyboard-response,142,1018325,0.0-52.0-0.0,anomymised,65658173009eeb17459c8404,656776d541acc528d873ee3f,28078,2,man,NA,null,W3 is being copied by M1,copy3,sentence,NA,NA,NA,NA
5047.4000000059605,NA,NA,NA,NA,survey-likert-extra-labels,143,1023387,0.0-52.0-2.0,anomymised,65658173009eeb17459c8404,656776d541acc528d873ee3f,28078,2,man,NA,NA,W3 is being copied by M1,copy3,rating_volition,"{""Q0"":0}",[0],M1 wanted to copy W3,W3 wanted to copy M1
4379.300000011921,NA,NA,NA,NA,survey-likert-extra-labels,144,1027770,0.0-52.0-3.0-0.0,anomymised,65658173009eeb17459c8404,656776d541acc528d873ee3f,28078,2,man,NA,NA,W3 is being copied by M1,copy3,rating_causation,"{""Q0"":0}",[0],M1 started copying W3 first,W3 started copying M1 first
null,Ruth is being opposed by Dave,NA,NA,NA,html-keyboard-response,145,1029773,0.0-53.0-0.0,anomymised,65658173009eeb17459c8404,656776d541acc528d873ee3f,28078,2,man,NA,null,W4 is being opposed by M2,oppose4,sentence,NA,NA,NA,NA
4305.100000008941,NA,NA,NA,NA,survey-likert-extra-labels,146,1034079,0.0-53.0-1.0-0.0,anomymised,65658173009eeb17459c8404,656776d541acc528d873ee3f,28078,2,man,NA,NA,W4 is being opposed by M2,oppose4,rating_causation,"{""Q0"":6}",[0],W4 started opposing M2,M2 started opposing W4
2495.5,NA,NA,NA,NA,survey-likert-extra-labels,147,1036577,0.0-53.0-2.0,anomymised,65658173009eeb17459c8404,656776d541acc528d873ee3f,28078,2,man,NA,NA,W4 is being opposed by M2,oppose4,rating_volition,"{""Q0"":6}",[0],W4 wanted to oppose M2,M2 wanted to oppose W4
null,Jane is being hugged by Beth,NA,NA,NA,html-keyboard-response,148,1038585,0.0-54.0-0.0,anomymised,65658173009eeb17459c8404,656776d541acc528d873ee3f,28078,2,man,NA,null,W3 is being hugged by W1,hug1,sentence,NA,NA,NA,NA
5277.20000000298,NA,NA,NA,NA,survey-likert-extra-labels,149,1043864,0.0-54.0-1.0-0.0,anomymised,65658173009eeb17459c8404,656776d541acc528d873ee3f,28078,2,man,NA,NA,W3 is being hugged by W1,hug1,rating_causation,"{""Q0"":6}",[0],W3 asked to hug W1,W1 asked to hug W3
3848.3999999910593,NA,NA,NA,NA,survey-likert-extra-labels,150,1047715,0.0-54.0-2.0,anomymised,65658173009eeb17459c8404,656776d541acc528d873ee3f,28078,2,man,NA,NA,W3 is being hugged by W1,hug1,rating_volition,"{""Q0"":6}",[0],W3 wanted to hug W1,W1 wanted to hug W3
3139.199999988079,<p>Thank you for completing that task.</p><p>The final part of this session is a short questionnaire.</p><p>Press Continue.</p>,0,Continue,Continue,html-button-response,151,1050857,0.0-55.0,anomymised,65658173009eeb17459c8404,656776d541acc528d873ee3f,28078,2,man,NA,NA,NA,NA,NA,NA,NA,NA,NA
30143,NA,NA,NA,NA,survey-text,152,1082035,0.0-56.0,anomymised,65658173009eeb17459c8404,656776d541acc528d873ee3f,28078,2,man,NA,NA,NA,NA,demographics,"{""Q0"":""30"",""Q1"":""English"",""Q2"":""English"",""Q3"":""Northern Ireland"",""Q4"":""Northern Irish"",""Q5"":""White"",""Q6"":""Male""}",NA,NA,NA
2821.4000000059605,<p>This is the last question - thank you for taking part! Have you lived in the UK for the last 5 years or more?</p>,0,"Yes,No",Yes,html-button-response,153,1084858,0.0-57.0,anomymised,65658173009eeb17459c8404,656776d541acc528d873ee3f,28078,2,man,NA,NA,NA,NA,fiveyears,NA,NA,NA,NA
