rt,stimulus,button_pressed,choices,ChosenStimulus,trial_type,trial_index,time_elapsed,internal_node_id,subject_id,study_id,session_id,subject,list,ppt_gender,url,key_press,sentence_type,verb,test_part,responses,question_order,left_part,right_part
1417.2999999523163,Welcome to the experiment. Press Continue to begin.,0,Continue,Continue,html-button-response,0,1419,0.0-0.0,anomymised,656580e591ab4d27a27b0c3d,6565f5e63639c1a741be00fe,3549,1B,man,NA,NA,NA,NA,NA,NA,NA,NA,NA
5101.200000047684,NA,NA,NA,NA,external-html,1,7556,0.0-1.0,anomymised,656580e591ab4d27a27b0c3d,6565f5e63639c1a741be00fe,3549,1B,man,consent.html,NA,NA,NA,NA,NA,NA,NA,NA
5662.199999928474,"<p>Welcome.</p><p>In this experiment we will ask you to imagine some situations.</p><p>Each trial starts with a description of an event.</p><p>Then you will see alternative descriptions of that event, and you will rate on a scale how best they match the original description.</p><p>You will give your answer by clicking a button on a rating scale.</p><p>To do this task, you will have to use your imagination to visualise these events.</p><br><p>Ready?</p>",0,Continue,Continue,html-button-response,2,13219,0.0-2.0,anomymised,656580e591ab4d27a27b0c3d,6565f5e63639c1a741be00fe,3549,1B,man,NA,NA,NA,NA,NA,NA,NA,NA,NA
2016.7000000476837,"<p>Before the experiment starts, you will watch an example trial. Press 'Continue'.</p>",0,Continue,Continue,html-button-response,3,16237,0.0-3.0,anomymised,656580e591ab4d27a27b0c3d,6565f5e63639c1a741be00fe,3549,1B,man,NA,NA,NA,NA,NA,NA,NA,NA,NA
null,The police officer is arresting the robber,NA,NA,NA,html-keyboard-response,4,19240,0.0-4.0,anomymised,656580e591ab4d27a27b0c3d,6565f5e63639c1a741be00fe,3549,1B,man,NA,null,NA,NA,NA,NA,NA,NA,NA
21955,<img src='img/Example-trial.jpg' style='height:550px;''></img>,0,Continue,Continue,html-button-response,5,41195,0.0-5.0,anomymised,656580e591ab4d27a27b0c3d,6565f5e63639c1a741be00fe,3549,1B,man,NA,NA,NA,NA,NA,NA,NA,NA,NA
2064.399999976158,<p>Ready to start the experiment?</p><br><p><strong>Remember to give an answer by clicking a button on the rating scale.</strong></p><p>Press 'Continue' to begin.</p>,0,Continue,Continue,html-button-response,6,44261,0.0-6.0,anomymised,656580e591ab4d27a27b0c3d,6565f5e63639c1a741be00fe,3549,1B,man,NA,NA,NA,NA,NA,NA,NA,NA,NA
null,Ruth is being hugged by Kate,NA,NA,NA,html-keyboard-response,7,47274,0.0-7.0-0.0,anomymised,656580e591ab4d27a27b0c3d,6565f5e63639c1a741be00fe,3549,1B,man,NA,null,W1 is being hugged by W3,hug1,sentence,NA,NA,NA,NA
13367.199999928474,NA,NA,NA,NA,survey-likert-extra-labels,8,60641,0.0-7.0-1.0-0.0,anomymised,656580e591ab4d27a27b0c3d,6565f5e63639c1a741be00fe,3549,1B,man,NA,NA,W1 is being hugged by W3,hug1,rating_causation,"{""Q0"":2}",[0],W3 asked to hug W1,W1 asked to hug W3
8081.899999976158,NA,NA,NA,NA,survey-likert-extra-labels,9,68725,0.0-7.0-2.0,anomymised,656580e591ab4d27a27b0c3d,6565f5e63639c1a741be00fe,3549,1B,man,NA,NA,W1 is being hugged by W3,hug1,rating_volition,"{""Q0"":0}",[0],W3 wanted to hug W1,W1 wanted to hug W3
null,Fred is being touched by Ruth,NA,NA,NA,html-keyboard-response,10,70730,0.0-8.0-0.0,anomymised,656580e591ab4d27a27b0c3d,6565f5e63639c1a741be00fe,3549,1B,man,NA,null,M3 is being touched by W1,touch4,sentence,NA,NA,NA,NA
5570.100000023842,NA,NA,NA,NA,survey-likert-extra-labels,11,76301,0.0-8.0-2.0,anomymised,656580e591ab4d27a27b0c3d,6565f5e63639c1a741be00fe,3549,1B,man,NA,NA,M3 is being touched by W1,touch4,rating_volition,"{""Q0"":0}",[0],W1 wanted to touch M3,M3 wanted to touch W1
6904.100000023842,NA,NA,NA,NA,survey-likert-extra-labels,12,83207,0.0-8.0-3.0-0.0,anomymised,656580e591ab4d27a27b0c3d,6565f5e63639c1a741be00fe,3549,1B,man,NA,NA,M3 is being touched by W1,touch4,rating_causation,"{""Q0"":1}",[0],W1 asked to touch M3,M3 asked to touch W1
null,Jane is carrying Beth,NA,NA,NA,html-keyboard-response,13,85209,0.0-9.0-0.0,anomymised,656580e591ab4d27a27b0c3d,6565f5e63639c1a741be00fe,3549,1B,man,NA,null,W2 is carrying W4,carry,sentence,NA,NA,NA,NA
5342.899999976158,NA,NA,NA,NA,survey-likert-extra-labels,14,90552,0.0-9.0-1.0-0.0,anomymised,656580e591ab4d27a27b0c3d,6565f5e63639c1a741be00fe,3549,1B,man,NA,NA,W2 is carrying W4,carry,rating_causation,"{""Q0"":6}",[0],W2 is being moved by W4,W4 is being moved by W2
5651.199999928474,NA,NA,NA,NA,survey-likert-extra-labels,15,96205,0.0-9.0-2.0,anomymised,656580e591ab4d27a27b0c3d,6565f5e63639c1a741be00fe,3549,1B,man,NA,NA,W2 is carrying W4,carry,rating_volition,"{""Q0"":0}",[0],W2 is transporting W4,W4 is transporting W2
null,Luke is being opposed by Fred,NA,NA,NA,html-keyboard-response,16,98211,0.0-10.0-0.0,anomymised,656580e591ab4d27a27b0c3d,6565f5e63639c1a741be00fe,3549,1B,man,NA,null,M1 is being opposed by M3,oppose2,sentence,NA,NA,NA,NA
5049.100000023842,NA,NA,NA,NA,survey-likert-extra-labels,17,103261,0.0-10.0-2.0,anomymised,656580e591ab4d27a27b0c3d,6565f5e63639c1a741be00fe,3549,1B,man,NA,NA,M1 is being opposed by M3,oppose2,rating_volition,"{""Q0"":0}",[0],M3 wanted to oppose M1,M1 wanted to oppose M3
7790.700000047684,NA,NA,NA,NA,survey-likert-extra-labels,18,111054,0.0-10.0-3.0-0.0,anomymised,656580e591ab4d27a27b0c3d,6565f5e63639c1a741be00fe,3549,1B,man,NA,NA,M1 is being opposed by M3,oppose2,rating_causation,"{""Q0"":2}",[0],M3 started opposing M1,M1 started opposing M3
null,Ruth is being copied by Fred,NA,NA,NA,html-keyboard-response,19,113056,0.0-11.0-0.0,anomymised,656580e591ab4d27a27b0c3d,6565f5e63639c1a741be00fe,3549,1B,man,NA,null,W1 is being copied by M3,copy4,sentence,NA,NA,NA,NA
7488.399999976158,NA,NA,NA,NA,survey-likert-extra-labels,20,120545,0.0-11.0-1.0-0.0,anomymised,656580e591ab4d27a27b0c3d,6565f5e63639c1a741be00fe,3549,1B,man,NA,NA,W1 is being copied by M3,copy4,rating_causation,"{""Q0"":4}",[0],W1 started copying M3 first,M3 started copying W1 first
6386.200000047684,NA,NA,NA,NA,survey-likert-extra-labels,21,126933,0.0-11.0-2.0,anomymised,656580e591ab4d27a27b0c3d,6565f5e63639c1a741be00fe,3549,1B,man,NA,NA,W1 is being copied by M3,copy4,rating_volition,"{""Q0"":5}",[0],W1 wanted to copy M3,M3 wanted to copy W1
null,Fred is being challenged by Ruth,NA,NA,NA,html-keyboard-response,22,128935,0.0-12.0-0.0,anomymised,656580e591ab4d27a27b0c3d,6565f5e63639c1a741be00fe,3549,1B,man,NA,null,M3 is being challenged by W1,challenge3,sentence,NA,NA,NA,NA
6107.5,NA,NA,NA,NA,survey-likert-extra-labels,23,135043,0.0-12.0-2.0,anomymised,656580e591ab4d27a27b0c3d,6565f5e63639c1a741be00fe,3549,1B,man,NA,NA,M3 is being challenged by W1,challenge3,rating_volition,"{""Q0"":5}",[0],W1 wanted to challenge M3,M3 wanted to challenge W1
9695,NA,NA,NA,NA,survey-likert-extra-labels,24,144740,0.0-12.0-3.0-0.0,anomymised,656580e591ab4d27a27b0c3d,6565f5e63639c1a741be00fe,3549,1B,man,NA,NA,M3 is being challenged by W1,challenge3,rating_causation,"{""Q0"":2}",[0],W1 started challenging M3 first,M3 started challenging W1 first
null,Luke is being greeted by Kate,NA,NA,NA,html-keyboard-response,25,146743,0.0-13.0-0.0,anomymised,656580e591ab4d27a27b0c3d,6565f5e63639c1a741be00fe,3549,1B,man,NA,null,M1 is being greeted by W3,greet4,sentence,NA,NA,NA,NA
6694.899999976158,NA,NA,NA,NA,survey-likert-extra-labels,26,153438,0.0-13.0-1.0-0.0,anomymised,656580e591ab4d27a27b0c3d,6565f5e63639c1a741be00fe,3549,1B,man,NA,NA,M1 is being greeted by W3,greet4,rating_causation,"{""Q0"":6}",[0],M1 started greeting W3 first,W3 started greeting M1 first
4383.699999928474,NA,NA,NA,NA,survey-likert-extra-labels,27,157823,0.0-13.0-2.0,anomymised,656580e591ab4d27a27b0c3d,6565f5e63639c1a741be00fe,3549,1B,man,NA,NA,M1 is being greeted by W3,greet4,rating_volition,"{""Q0"":6}",[0],M1 wanted to greet W3,W3 wanted to greet M1
null,Fred is hiring Ruth,NA,NA,NA,html-keyboard-response,28,159840,0.0-14.0-0.0,anomymised,656580e591ab4d27a27b0c3d,6565f5e63639c1a741be00fe,3549,1B,man,NA,null,M3 is hiring W1,hire,sentence,NA,NA,NA,NA
4371.399999976158,NA,NA,NA,NA,survey-likert-extra-labels,29,164212,0.0-14.0-2.0,anomymised,656580e591ab4d27a27b0c3d,6565f5e63639c1a741be00fe,3549,1B,man,NA,NA,M3 is hiring W1,hire,rating_volition,"{""Q0"":0}",[0],M3 is employing W1,W1 is employing M3
3696.1999999284744,NA,NA,NA,NA,survey-likert-extra-labels,30,167910,0.0-14.0-3.0-0.0,anomymised,656580e591ab4d27a27b0c3d,6565f5e63639c1a741be00fe,3549,1B,man,NA,NA,M3 is hiring W1,hire,rating_causation,"{""Q0"":6}",[0],M3 will work for W1,W1 will work for M3
null,Dave is being kissed by Jane,NA,NA,NA,html-keyboard-response,31,169917,0.0-15.0-0.0,anomymised,656580e591ab4d27a27b0c3d,6565f5e63639c1a741be00fe,3549,1B,man,NA,null,M4 is being kissed by W2,kiss4,sentence,NA,NA,NA,NA
8508,NA,NA,NA,NA,survey-likert-extra-labels,32,178426,0.0-15.0-1.0-0.0,anomymised,656580e591ab4d27a27b0c3d,6565f5e63639c1a741be00fe,3549,1B,man,NA,NA,M4 is being kissed by W2,kiss4,rating_causation,"{""Q0"":4}",[0],M4 asked to kiss W2,W2 asked to kiss M4
4552.199999928474,NA,NA,NA,NA,survey-likert-extra-labels,33,182980,0.0-15.0-2.0,anomymised,656580e591ab4d27a27b0c3d,6565f5e63639c1a741be00fe,3549,1B,man,NA,NA,M4 is being kissed by W2,kiss4,rating_volition,"{""Q0"":4}",[0],M4 wanted to kiss W2,W2 wanted to kiss M4
null,Jane is being seduced by Beth,NA,NA,NA,html-keyboard-response,34,184983,0.0-16.0-0.0,anomymised,656580e591ab4d27a27b0c3d,6565f5e63639c1a741be00fe,3549,1B,man,NA,null,W2 is being seduced by W4,seduce1,sentence,NA,NA,NA,NA
6454.5,NA,NA,NA,NA,survey-likert-extra-labels,35,191437,0.0-16.0-1.0-0.0,anomymised,656580e591ab4d27a27b0c3d,6565f5e63639c1a741be00fe,3549,1B,man,NA,NA,W2 is being seduced by W4,seduce1,rating_causation,"{""Q0"":1}",[0],W4 started seducing W2 first,W2 started seducing W4 first
5320.400000095367,NA,NA,NA,NA,survey-likert-extra-labels,36,196760,0.0-16.0-2.0,anomymised,656580e591ab4d27a27b0c3d,6565f5e63639c1a741be00fe,3549,1B,man,NA,NA,W2 is being seduced by W4,seduce1,rating_volition,"{""Q0"":5}",[0],W4 wanted to seduce W2,W2 wanted to seduce W4
null,Mike is reminding Beth,NA,NA,NA,html-keyboard-response,37,198762,0.0-17.0-0.0,anomymised,656580e591ab4d27a27b0c3d,6565f5e63639c1a741be00fe,3549,1B,man,NA,null,M2 is reminding W4,remind,sentence,NA,NA,NA,NA
3580.5,NA,NA,NA,NA,survey-likert-extra-labels,38,202343,0.0-17.0-1.0-0.0,anomymised,656580e591ab4d27a27b0c3d,6565f5e63639c1a741be00fe,3549,1B,man,NA,NA,M2 is reminding W4,remind,rating_causation,"{""Q0"":0}",[0],M2 is remembering,W4 is remembering
4073.899999976158,NA,NA,NA,NA,survey-likert-extra-labels,39,206418,0.0-17.0-2.0,anomymised,656580e591ab4d27a27b0c3d,6565f5e63639c1a741be00fe,3549,1B,man,NA,NA,M2 is reminding W4,remind,rating_volition,"{""Q0"":0}",[0],M2 is telling W4 again,W4 is telling M2 again
null,Kate is being touched by Luke,NA,NA,NA,html-keyboard-response,40,208420,0.0-18.0-0.0,anomymised,656580e591ab4d27a27b0c3d,6565f5e63639c1a741be00fe,3549,1B,man,NA,null,W3 is being touched by M1,touch3,sentence,NA,NA,NA,NA
7300.5,NA,NA,NA,NA,survey-likert-extra-labels,41,215721,0.0-18.0-1.0-0.0,anomymised,656580e591ab4d27a27b0c3d,6565f5e63639c1a741be00fe,3549,1B,man,NA,NA,W3 is being touched by M1,touch3,rating_causation,"{""Q0"":2}",[0],M1 asked to touch W3,W3 asked to touch M1
3079.5,NA,NA,NA,NA,survey-likert-extra-labels,42,218803,0.0-18.0-2.0,anomymised,656580e591ab4d27a27b0c3d,6565f5e63639c1a741be00fe,3549,1B,man,NA,NA,W3 is being touched by M1,touch3,rating_volition,"{""Q0"":1}",[0],M1 wanted to touch W3,W3 wanted to touch M1
null,Jane is being shouted at by Dave,NA,NA,NA,html-keyboard-response,43,220805,0.0-19.0-0.0,anomymised,656580e591ab4d27a27b0c3d,6565f5e63639c1a741be00fe,3549,1B,man,NA,null,W2 is being shouted at by M4,shout4,sentence,NA,NA,NA,NA
5018,NA,NA,NA,NA,survey-likert-extra-labels,44,225823,0.0-19.0-1.0-0.0,anomymised,656580e591ab4d27a27b0c3d,6565f5e63639c1a741be00fe,3549,1B,man,NA,NA,W2 is being shouted at by M4,shout4,rating_causation,"{""Q0"":2}",[0],M4 shouted at W2 first,W2 shouted at M4 first
3786.399999976158,NA,NA,NA,NA,survey-likert-extra-labels,45,229611,0.0-19.0-2.0,anomymised,656580e591ab4d27a27b0c3d,6565f5e63639c1a741be00fe,3549,1B,man,NA,NA,W2 is being shouted at by M4,shout4,rating_volition,"{""Q0"":2}",[0],M4 wanted to shout at W2,W2 wanted to shout at M4
null,Mike is being seduced by Dave,NA,NA,NA,html-keyboard-response,46,231614,0.0-20.0-0.0,anomymised,656580e591ab4d27a27b0c3d,6565f5e63639c1a741be00fe,3549,1B,man,NA,null,M2 is being seduced by M4,seduce2,sentence,NA,NA,NA,NA
3573.100000023842,NA,NA,NA,NA,survey-likert-extra-labels,47,235188,0.0-20.0-2.0,anomymised,656580e591ab4d27a27b0c3d,6565f5e63639c1a741be00fe,3549,1B,man,NA,NA,M2 is being seduced by M4,seduce2,rating_volition,"{""Q0"":0}",[0],M4 wanted to seduce M2,M2 wanted to seduce M4
3693.5,NA,NA,NA,NA,survey-likert-extra-labels,48,238883,0.0-20.0-3.0-0.0,anomymised,656580e591ab4d27a27b0c3d,6565f5e63639c1a741be00fe,3549,1B,man,NA,NA,M2 is being seduced by M4,seduce2,rating_causation,"{""Q0"":2}",[0],M4 started seducing M2 first,M2 started seducing M4 first
null,Luke is being copied by Kate,NA,NA,NA,html-keyboard-response,49,240885,0.0-21.0-0.0,anomymised,656580e591ab4d27a27b0c3d,6565f5e63639c1a741be00fe,3549,1B,man,NA,null,M1 is being copied by W3,copy3,sentence,NA,NA,NA,NA
5279.400000095367,NA,NA,NA,NA,survey-likert-extra-labels,50,246165,0.0-21.0-2.0,anomymised,656580e591ab4d27a27b0c3d,6565f5e63639c1a741be00fe,3549,1B,man,NA,NA,M1 is being copied by W3,copy3,rating_volition,"{""Q0"":5}",[0],M1 wanted to copy W3,W3 wanted to copy M1
4914.300000071526,NA,NA,NA,NA,survey-likert-extra-labels,51,251081,0.0-21.0-3.0-0.0,anomymised,656580e591ab4d27a27b0c3d,6565f5e63639c1a741be00fe,3549,1B,man,NA,NA,M1 is being copied by W3,copy3,rating_causation,"{""Q0"":4}",[0],M1 started copying W3 first,W3 started copying M1 first
null,Jane is being challenged by Beth,NA,NA,NA,html-keyboard-response,52,253084,0.0-22.0-0.0,anomymised,656580e591ab4d27a27b0c3d,6565f5e63639c1a741be00fe,3549,1B,man,NA,null,W2 is being challenged by W4,challenge1,sentence,NA,NA,NA,NA
4386.399999976158,NA,NA,NA,NA,survey-likert-extra-labels,53,257471,0.0-22.0-2.0,anomymised,656580e591ab4d27a27b0c3d,6565f5e63639c1a741be00fe,3549,1B,man,NA,NA,W2 is being challenged by W4,challenge1,rating_volition,"{""Q0"":1}",[0],W4 wanted to challenge W2,W2 wanted to challenge W4
7125,NA,NA,NA,NA,survey-likert-extra-labels,54,264598,0.0-22.0-3.0-0.0,anomymised,656580e591ab4d27a27b0c3d,6565f5e63639c1a741be00fe,3549,1B,man,NA,NA,W2 is being challenged by W4,challenge1,rating_causation,"{""Q0"":2}",[0],W4 started challenging W2 first,W2 started challenging W4 first
null,Jane is being opposed by Dave,NA,NA,NA,html-keyboard-response,55,266602,0.0-23.0-0.0,anomymised,656580e591ab4d27a27b0c3d,6565f5e63639c1a741be00fe,3549,1B,man,NA,null,W2 is being opposed by M4,oppose3,sentence,NA,NA,NA,NA
5447.300000071526,NA,NA,NA,NA,survey-likert-extra-labels,56,272050,0.0-23.0-1.0-0.0,anomymised,656580e591ab4d27a27b0c3d,6565f5e63639c1a741be00fe,3549,1B,man,NA,NA,W2 is being opposed by M4,oppose3,rating_causation,"{""Q0"":2}",[0],M4 started opposing W2,W2 started opposing M4
7012.099999904633,NA,NA,NA,NA,survey-likert-extra-labels,57,279063,0.0-23.0-2.0,anomymised,656580e591ab4d27a27b0c3d,6565f5e63639c1a741be00fe,3549,1B,man,NA,NA,W2 is being opposed by M4,oppose3,rating_volition,"{""Q0"":2}",[0],M4 wanted to oppose W2,W2 wanted to oppose M4
null,Mike is being hugged by Beth,NA,NA,NA,html-keyboard-response,58,281065,0.0-24.0-0.0,anomymised,656580e591ab4d27a27b0c3d,6565f5e63639c1a741be00fe,3549,1B,man,NA,null,M2 is being hugged by W4,hug4,sentence,NA,NA,NA,NA
2873.2000000476837,NA,NA,NA,NA,survey-likert-extra-labels,59,283939,0.0-24.0-1.0-0.0,anomymised,656580e591ab4d27a27b0c3d,6565f5e63639c1a741be00fe,3549,1B,man,NA,NA,M2 is being hugged by W4,hug4,rating_causation,"{""Q0"":1}",[0],W4 asked to hug M2,M2 asked to hug W4
4430.100000023842,NA,NA,NA,NA,survey-likert-extra-labels,60,288371,0.0-24.0-2.0,anomymised,656580e591ab4d27a27b0c3d,6565f5e63639c1a741be00fe,3549,1B,man,NA,NA,M2 is being hugged by W4,hug4,rating_volition,"{""Q0"":0}",[0],W4 wanted to hug M2,M2 wanted to hug W4
null,Beth is being kissed by Mike,NA,NA,NA,html-keyboard-response,61,290385,0.0-25.0-0.0,anomymised,656580e591ab4d27a27b0c3d,6565f5e63639c1a741be00fe,3549,1B,man,NA,null,W4 is being kissed by M2,kiss3,sentence,NA,NA,NA,NA
3197.2000000476837,NA,NA,NA,NA,survey-likert-extra-labels,62,293583,0.0-25.0-2.0,anomymised,656580e591ab4d27a27b0c3d,6565f5e63639c1a741be00fe,3549,1B,man,NA,NA,W4 is being kissed by M2,kiss3,rating_volition,"{""Q0"":5}",[0],W4 wanted to kiss M2,M2 wanted to kiss W4
3808.399999976158,NA,NA,NA,NA,survey-likert-extra-labels,63,297393,0.0-25.0-3.0-0.0,anomymised,656580e591ab4d27a27b0c3d,6565f5e63639c1a741be00fe,3549,1B,man,NA,NA,W4 is being kissed by M2,kiss3,rating_causation,"{""Q0"":4}",[0],W4 asked to kiss M2,M2 asked to kiss W4
null,Mike is being touched by Dave,NA,NA,NA,html-keyboard-response,64,299394,0.0-26.0-0.0,anomymised,656580e591ab4d27a27b0c3d,6565f5e63639c1a741be00fe,3549,1B,man,NA,null,M2 is being touched by M4,touch2,sentence,NA,NA,NA,NA
3758.5999999046326,NA,NA,NA,NA,survey-likert-extra-labels,65,303153,0.0-26.0-2.0,anomymised,656580e591ab4d27a27b0c3d,6565f5e63639c1a741be00fe,3549,1B,man,NA,NA,M2 is being touched by M4,touch2,rating_volition,"{""Q0"":2}",[0],M4 wanted to touch M2,M2 wanted to touch M4
3871.399999976158,NA,NA,NA,NA,survey-likert-extra-labels,66,307026,0.0-26.0-3.0-0.0,anomymised,656580e591ab4d27a27b0c3d,6565f5e63639c1a741be00fe,3549,1B,man,NA,NA,M2 is being touched by M4,touch2,rating_causation,"{""Q0"":3}",[0],M4 asked to touch M2,M2 asked to touch M4
null,Kate is being looked at by Ruth,NA,NA,NA,html-keyboard-response,67,309028,0.0-27.0-0.0,anomymised,656580e591ab4d27a27b0c3d,6565f5e63639c1a741be00fe,3549,1B,man,NA,null,W3 is being looked at by W1,look1,sentence,NA,NA,NA,NA
3922.3000000715256,NA,NA,NA,NA,survey-likert-extra-labels,68,312950,0.0-27.0-2.0,anomymised,656580e591ab4d27a27b0c3d,6565f5e63639c1a741be00fe,3549,1B,man,NA,NA,W3 is being looked at by W1,look1,rating_volition,"{""Q0"":6}",[0],W3 wanted to look at W1,W1 wanted to look at W3
7272.199999928474,NA,NA,NA,NA,survey-likert-extra-labels,69,320224,0.0-27.0-3.0-0.0,anomymised,656580e591ab4d27a27b0c3d,6565f5e63639c1a741be00fe,3549,1B,man,NA,NA,W3 is being looked at by W1,look1,rating_causation,"{""Q0"":3}",[0],W3 looked at W1 first,W1 looked at W3 first
null,Ruth is chasing Kate,NA,NA,NA,html-keyboard-response,70,322240,0.0-28.0-0.0,anomymised,656580e591ab4d27a27b0c3d,6565f5e63639c1a741be00fe,3549,1B,man,NA,null,W1 is chasing W3,chase,sentence,NA,NA,NA,NA
4191.399999976158,NA,NA,NA,NA,survey-likert-extra-labels,71,326432,0.0-28.0-1.0-0.0,anomymised,656580e591ab4d27a27b0c3d,6565f5e63639c1a741be00fe,3549,1B,man,NA,NA,W1 is chasing W3,chase,rating_causation,"{""Q0"":6}",[0],W1 is running away from W3,W3 is running away from W1
6562.699999928474,NA,NA,NA,NA,survey-likert-extra-labels,72,332996,0.0-28.0-2.0,anomymised,656580e591ab4d27a27b0c3d,6565f5e63639c1a741be00fe,3549,1B,man,NA,NA,W1 is chasing W3,chase,rating_volition,"{""Q0"":0}",[0],W1 is behind W3,W3 is behind W1
null,Ruth is being shouted at by Kate,NA,NA,NA,html-keyboard-response,73,334998,0.0-29.0-0.0,anomymised,656580e591ab4d27a27b0c3d,6565f5e63639c1a741be00fe,3549,1B,man,NA,null,W1 is being shouted at by W3,shout1,sentence,NA,NA,NA,NA
9283.200000047684,NA,NA,NA,NA,survey-likert-extra-labels,74,344281,0.0-29.0-1.0-0.0,anomymised,656580e591ab4d27a27b0c3d,6565f5e63639c1a741be00fe,3549,1B,man,NA,NA,W1 is being shouted at by W3,shout1,rating_causation,"{""Q0"":2}",[0],W3 shouted at W1 first,W1 shouted at W3 first
5697.799999952316,NA,NA,NA,NA,survey-likert-extra-labels,75,349981,0.0-29.0-2.0,anomymised,656580e591ab4d27a27b0c3d,6565f5e63639c1a741be00fe,3549,1B,man,NA,NA,W1 is being shouted at by W3,shout1,rating_volition,"{""Q0"":2}",[0],W3 wanted to shout at W1,W1 wanted to shout at W3
null,Jane is teaching Dave,NA,NA,NA,html-keyboard-response,76,351993,0.0-30.0-0.0,anomymised,656580e591ab4d27a27b0c3d,6565f5e63639c1a741be00fe,3549,1B,man,NA,null,W2 is teaching M4,teach,sentence,NA,NA,NA,NA
5461.100000023842,NA,NA,NA,NA,survey-likert-extra-labels,77,357454,0.0-30.0-2.0,anomymised,656580e591ab4d27a27b0c3d,6565f5e63639c1a741be00fe,3549,1B,man,NA,NA,W2 is teaching M4,teach,rating_volition,"{""Q0"":0}",[0],W2 is educating M4,M4 is educating W2
2631.399999976158,NA,NA,NA,NA,survey-likert-extra-labels,78,360087,0.0-30.0-3.0-0.0,anomymised,656580e591ab4d27a27b0c3d,6565f5e63639c1a741be00fe,3549,1B,man,NA,NA,W2 is teaching M4,teach,rating_causation,"{""Q0"":6}",[0],W2 is learning from M4,M4 is learning from W2
null,Jane is being hugged by Dave,NA,NA,NA,html-keyboard-response,79,362089,0.0-31.0-0.0,anomymised,656580e591ab4d27a27b0c3d,6565f5e63639c1a741be00fe,3549,1B,man,NA,null,W2 is being hugged by M4,hug3,sentence,NA,NA,NA,NA
4713.5,NA,NA,NA,NA,survey-likert-extra-labels,80,366803,0.0-31.0-1.0-0.0,anomymised,656580e591ab4d27a27b0c3d,6565f5e63639c1a741be00fe,3549,1B,man,NA,NA,W2 is being hugged by M4,hug3,rating_causation,"{""Q0"":2}",[0],M4 asked to hug W2,W2 asked to hug M4
5680.799999952316,NA,NA,NA,NA,survey-likert-extra-labels,81,372486,0.0-31.0-2.0,anomymised,656580e591ab4d27a27b0c3d,6565f5e63639c1a741be00fe,3549,1B,man,NA,NA,W2 is being hugged by M4,hug3,rating_volition,"{""Q0"":1}",[0],M4 wanted to hug W2,W2 wanted to hug M4
null,Jane is being touched by Beth,NA,NA,NA,html-keyboard-response,82,374488,0.0-32.0-0.0,anomymised,656580e591ab4d27a27b0c3d,6565f5e63639c1a741be00fe,3549,1B,man,NA,null,W2 is being touched by W4,touch1,sentence,NA,NA,NA,NA
4507.799999952316,NA,NA,NA,NA,survey-likert-extra-labels,83,378996,0.0-32.0-1.0-0.0,anomymised,656580e591ab4d27a27b0c3d,6565f5e63639c1a741be00fe,3549,1B,man,NA,NA,W2 is being touched by W4,touch1,rating_causation,"{""Q0"":2}",[0],W4 asked to touch W2,W2 asked to touch W4
3934.600000023842,NA,NA,NA,NA,survey-likert-extra-labels,84,382932,0.0-32.0-2.0,anomymised,656580e591ab4d27a27b0c3d,6565f5e63639c1a741be00fe,3549,1B,man,NA,NA,W2 is being touched by W4,touch1,rating_volition,"{""Q0"":0}",[0],W4 wanted to touch W2,W2 wanted to touch W4
null,Beth is being copied by Jane,NA,NA,NA,html-keyboard-response,85,384939,0.0-33.0-0.0,anomymised,656580e591ab4d27a27b0c3d,6565f5e63639c1a741be00fe,3549,1B,man,NA,null,W4 is being copied by W2,copy1,sentence,NA,NA,NA,NA
3400,NA,NA,NA,NA,survey-likert-extra-labels,86,388339,0.0-33.0-1.0-0.0,anomymised,656580e591ab4d27a27b0c3d,6565f5e63639c1a741be00fe,3549,1B,man,NA,NA,W4 is being copied by W2,copy1,rating_causation,"{""Q0"":3}",[0],W4 started copying W2 first,W2 started copying W4 first
6092,NA,NA,NA,NA,survey-likert-extra-labels,87,394433,0.0-33.0-2.0,anomymised,656580e591ab4d27a27b0c3d,6565f5e63639c1a741be00fe,3549,1B,man,NA,NA,W4 is being copied by W2,copy1,rating_volition,"{""Q0"":5}",[0],W4 wanted to copy W2,W2 wanted to copy W4
null,Dave is being greeted by Mike,NA,NA,NA,html-keyboard-response,88,396448,0.0-34.0-0.0,anomymised,656580e591ab4d27a27b0c3d,6565f5e63639c1a741be00fe,3549,1B,man,NA,null,M4 is being greeted by M2,greet2,sentence,NA,NA,NA,NA
9117.900000095367,NA,NA,NA,NA,survey-likert-extra-labels,89,405566,0.0-34.0-2.0,anomymised,656580e591ab4d27a27b0c3d,6565f5e63639c1a741be00fe,3549,1B,man,NA,NA,M4 is being greeted by M2,greet2,rating_volition,"{""Q0"":4}",[0],M4 wanted to greet M2,M2 wanted to greet M4
3481.7000000476837,NA,NA,NA,NA,survey-likert-extra-labels,90,409049,0.0-34.0-3.0-0.0,anomymised,656580e591ab4d27a27b0c3d,6565f5e63639c1a741be00fe,3549,1B,man,NA,NA,M4 is being greeted by M2,greet2,rating_causation,"{""Q0"":4}",[0],M4 started greeting M2 first,M2 started greeting M4 first
null,Kate is feeding Luke,NA,NA,NA,html-keyboard-response,91,411052,0.0-35.0-0.0,anomymised,656580e591ab4d27a27b0c3d,6565f5e63639c1a741be00fe,3549,1B,man,NA,null,W3 is feeding M1,feed,sentence,NA,NA,NA,NA
3539,NA,NA,NA,NA,survey-likert-extra-labels,92,414591,0.0-35.0-1.0-0.0,anomymised,656580e591ab4d27a27b0c3d,6565f5e63639c1a741be00fe,3549,1B,man,NA,NA,W3 is feeding M1,feed,rating_causation,"{""Q0"":6}",[0],W3 is eating M1's food,M1 is eating W3's food
2720.7000000476837,NA,NA,NA,NA,survey-likert-extra-labels,93,417313,0.0-35.0-2.0,anomymised,656580e591ab4d27a27b0c3d,6565f5e63639c1a741be00fe,3549,1B,man,NA,NA,W3 is feeding M1,feed,rating_volition,"{""Q0"":0}",[0],W3 cooked for M1,M1 cooked for W3
null,Kate is being challenged by Luke,NA,NA,NA,html-keyboard-response,94,419316,0.0-36.0-0.0,anomymised,656580e591ab4d27a27b0c3d,6565f5e63639c1a741be00fe,3549,1B,man,NA,null,W3 is being challenged by M1,challenge4,sentence,NA,NA,NA,NA
3406,NA,NA,NA,NA,survey-likert-extra-labels,95,422722,0.0-36.0-1.0-0.0,anomymised,656580e591ab4d27a27b0c3d,6565f5e63639c1a741be00fe,3549,1B,man,NA,NA,W3 is being challenged by M1,challenge4,rating_causation,"{""Q0"":2}",[0],M1 started challenging W3 first,W3 started challenging M1 first
2312.2999999523163,NA,NA,NA,NA,survey-likert-extra-labels,96,425036,0.0-36.0-2.0,anomymised,656580e591ab4d27a27b0c3d,6565f5e63639c1a741be00fe,3549,1B,man,NA,NA,W3 is being challenged by M1,challenge4,rating_volition,"{""Q0"":2}",[0],M1 wanted to challenge W3,W3 wanted to challenge M1
null,Mike is being shouted at by Beth,NA,NA,NA,html-keyboard-response,97,427037,0.0-37.0-0.0,anomymised,656580e591ab4d27a27b0c3d,6565f5e63639c1a741be00fe,3549,1B,man,NA,null,M2 is being shouted at by W4,shout3,sentence,NA,NA,NA,NA
3706.899999976158,NA,NA,NA,NA,survey-likert-extra-labels,98,430744,0.0-37.0-2.0,anomymised,656580e591ab4d27a27b0c3d,6565f5e63639c1a741be00fe,3549,1B,man,NA,NA,M2 is being shouted at by W4,shout3,rating_volition,"{""Q0"":2}",[0],W4 wanted to shout at M2,M2 wanted to shout at W4
2068.5999999046326,NA,NA,NA,NA,survey-likert-extra-labels,99,432815,0.0-37.0-3.0-0.0,anomymised,656580e591ab4d27a27b0c3d,6565f5e63639c1a741be00fe,3549,1B,man,NA,NA,M2 is being shouted at by W4,shout3,rating_causation,"{""Q0"":3}",[0],W4 shouted at M2 first,M2 shouted at W4 first
null,Mike is being opposed by Beth,NA,NA,NA,html-keyboard-response,100,434827,0.0-38.0-0.0,anomymised,656580e591ab4d27a27b0c3d,6565f5e63639c1a741be00fe,3549,1B,man,NA,null,M2 is being opposed by W4,oppose4,sentence,NA,NA,NA,NA
2379.5999999046326,NA,NA,NA,NA,survey-likert-extra-labels,101,437208,0.0-38.0-1.0-0.0,anomymised,656580e591ab4d27a27b0c3d,6565f5e63639c1a741be00fe,3549,1B,man,NA,NA,M2 is being opposed by W4,oppose4,rating_causation,"{""Q0"":3}",[0],W4 started opposing M2,M2 started opposing W4
4474.5,NA,NA,NA,NA,survey-likert-extra-labels,102,441684,0.0-38.0-2.0,anomymised,656580e591ab4d27a27b0c3d,6565f5e63639c1a741be00fe,3549,1B,man,NA,NA,M2 is being opposed by W4,oppose4,rating_volition,"{""Q0"":2}",[0],W4 wanted to oppose M2,M2 wanted to oppose W4
null,Beth is being looked at by Mike,NA,NA,NA,html-keyboard-response,103,443688,0.0-39.0-0.0,anomymised,656580e591ab4d27a27b0c3d,6565f5e63639c1a741be00fe,3549,1B,man,NA,null,W4 is being looked at by M2,look4,sentence,NA,NA,NA,NA
3609.5,NA,NA,NA,NA,survey-likert-extra-labels,104,447298,0.0-39.0-2.0,anomymised,656580e591ab4d27a27b0c3d,6565f5e63639c1a741be00fe,3549,1B,man,NA,NA,W4 is being looked at by M2,look4,rating_volition,"{""Q0"":2}",[0],W4 wanted to look at M2,M2 wanted to look at W4
1839,NA,NA,NA,NA,survey-likert-extra-labels,105,449139,0.0-39.0-3.0-0.0,anomymised,656580e591ab4d27a27b0c3d,6565f5e63639c1a741be00fe,3549,1B,man,NA,NA,W4 is being looked at by M2,look4,rating_causation,"{""Q0"":3}",[0],W4 looked at M2 first,M2 looked at W4 first
null,Dave is being copied by Mike,NA,NA,NA,html-keyboard-response,106,451141,0.0-40.0-0.0,anomymised,656580e591ab4d27a27b0c3d,6565f5e63639c1a741be00fe,3549,1B,man,NA,null,M4 is being copied by M2,copy2,sentence,NA,NA,NA,NA
5383.399999976158,NA,NA,NA,NA,survey-likert-extra-labels,107,456525,0.0-40.0-2.0,anomymised,656580e591ab4d27a27b0c3d,6565f5e63639c1a741be00fe,3549,1B,man,NA,NA,M4 is being copied by M2,copy2,rating_volition,"{""Q0"":5}",[0],M4 wanted to copy M2,M2 wanted to copy M4
2211.2000000476837,NA,NA,NA,NA,survey-likert-extra-labels,108,458738,0.0-40.0-3.0-0.0,anomymised,656580e591ab4d27a27b0c3d,6565f5e63639c1a741be00fe,3549,1B,man,NA,NA,M4 is being copied by M2,copy2,rating_causation,"{""Q0"":3}",[0],M4 started copying M2 first,M2 started copying M4 first
null,Luke is being shouted at by Fred,NA,NA,NA,html-keyboard-response,109,460753,0.0-41.0-0.0,anomymised,656580e591ab4d27a27b0c3d,6565f5e63639c1a741be00fe,3549,1B,man,NA,null,M1 is being shouted at by M3,shout2,sentence,NA,NA,NA,NA
2487,NA,NA,NA,NA,survey-likert-extra-labels,110,463241,0.0-41.0-2.0,anomymised,656580e591ab4d27a27b0c3d,6565f5e63639c1a741be00fe,3549,1B,man,NA,NA,M1 is being shouted at by M3,shout2,rating_volition,"{""Q0"":3}",[0],M3 wanted to shout at M1,M1 wanted to shout at M3
2785.5,NA,NA,NA,NA,survey-likert-extra-labels,111,466028,0.0-41.0-3.0-0.0,anomymised,656580e591ab4d27a27b0c3d,6565f5e63639c1a741be00fe,3549,1B,man,NA,NA,M1 is being shouted at by M3,shout2,rating_causation,"{""Q0"":3}",[0],M3 shouted at M1 first,M1 shouted at M3 first
null,Kate is being seduced by Luke,NA,NA,NA,html-keyboard-response,112,468029,0.0-42.0-0.0,anomymised,656580e591ab4d27a27b0c3d,6565f5e63639c1a741be00fe,3549,1B,man,NA,null,W3 is being seduced by M1,seduce3,sentence,NA,NA,NA,NA
2238.0999999046326,NA,NA,NA,NA,survey-likert-extra-labels,113,470268,0.0-42.0-2.0,anomymised,656580e591ab4d27a27b0c3d,6565f5e63639c1a741be00fe,3549,1B,man,NA,NA,W3 is being seduced by M1,seduce3,rating_volition,"{""Q0"":0}",[0],M1 wanted to seduce W3,W3 wanted to seduce M1
2479.3000000715256,NA,NA,NA,NA,survey-likert-extra-labels,114,472748,0.0-42.0-3.0-0.0,anomymised,656580e591ab4d27a27b0c3d,6565f5e63639c1a741be00fe,3549,1B,man,NA,NA,W3 is being seduced by M1,seduce3,rating_causation,"{""Q0"":3}",[0],M1 started seducing W3 first,W3 started seducing M1 first
null,Kate is being kissed by Ruth,NA,NA,NA,html-keyboard-response,115,474752,0.0-43.0-0.0,anomymised,656580e591ab4d27a27b0c3d,6565f5e63639c1a741be00fe,3549,1B,man,NA,null,W3 is being kissed by W1,kiss1,sentence,NA,NA,NA,NA
2302.7999999523163,NA,NA,NA,NA,survey-likert-extra-labels,116,477056,0.0-43.0-2.0,anomymised,656580e591ab4d27a27b0c3d,6565f5e63639c1a741be00fe,3549,1B,man,NA,NA,W3 is being kissed by W1,kiss1,rating_volition,"{""Q0"":3}",[0],W3 wanted to kiss W1,W1 wanted to kiss W3
5959.400000095367,NA,NA,NA,NA,survey-likert-extra-labels,117,483017,0.0-43.0-3.0-0.0,anomymised,656580e591ab4d27a27b0c3d,6565f5e63639c1a741be00fe,3549,1B,man,NA,NA,W3 is being kissed by W1,kiss1,rating_causation,"{""Q0"":6}",[0],W3 asked to kiss W1,W1 asked to kiss W3
null,Ruth is being opposed by Kate,NA,NA,NA,html-keyboard-response,118,485023,0.0-44.0-0.0,anomymised,656580e591ab4d27a27b0c3d,6565f5e63639c1a741be00fe,3549,1B,man,NA,null,W1 is being opposed by W3,oppose1,sentence,NA,NA,NA,NA
11841.399999976158,NA,NA,NA,NA,survey-likert-extra-labels,119,496865,0.0-44.0-1.0-0.0,anomymised,656580e591ab4d27a27b0c3d,6565f5e63639c1a741be00fe,3549,1B,man,NA,NA,W1 is being opposed by W3,oppose1,rating_causation,"{""Q0"":1}",[0],W3 started opposing W1,W1 started opposing W3
3817,NA,NA,NA,NA,survey-likert-extra-labels,120,500684,0.0-44.0-2.0,anomymised,656580e591ab4d27a27b0c3d,6565f5e63639c1a741be00fe,3549,1B,man,NA,NA,W1 is being opposed by W3,oppose1,rating_volition,"{""Q0"":3}",[0],W3 wanted to oppose W1,W1 wanted to oppose W3
null,Fred is being looked at by Luke,NA,NA,NA,html-keyboard-response,121,502695,0.0-45.0-0.0,anomymised,656580e591ab4d27a27b0c3d,6565f5e63639c1a741be00fe,3549,1B,man,NA,null,M3 is being looked at by M1,look2,sentence,NA,NA,NA,NA
6684.100000023842,NA,NA,NA,NA,survey-likert-extra-labels,122,509380,0.0-45.0-2.0,anomymised,656580e591ab4d27a27b0c3d,6565f5e63639c1a741be00fe,3549,1B,man,NA,NA,M3 is being looked at by M1,look2,rating_volition,"{""Q0"":4}",[0],M3 wanted to look at M1,M1 wanted to look at M3
2518.3000000715256,NA,NA,NA,NA,survey-likert-extra-labels,123,511900,0.0-45.0-3.0-0.0,anomymised,656580e591ab4d27a27b0c3d,6565f5e63639c1a741be00fe,3549,1B,man,NA,NA,M3 is being looked at by M1,look2,rating_causation,"{""Q0"":3}",[0],M3 looked at M1 first,M1 looked at M3 first
null,Fred is being kissed by Luke,NA,NA,NA,html-keyboard-response,124,513902,0.0-46.0-0.0,anomymised,656580e591ab4d27a27b0c3d,6565f5e63639c1a741be00fe,3549,1B,man,NA,null,M3 is being kissed by M1,kiss2,sentence,NA,NA,NA,NA
3791.5,NA,NA,NA,NA,survey-likert-extra-labels,125,517694,0.0-46.0-2.0,anomymised,656580e591ab4d27a27b0c3d,6565f5e63639c1a741be00fe,3549,1B,man,NA,NA,M3 is being kissed by M1,kiss2,rating_volition,"{""Q0"":4}",[0],M3 wanted to kiss M1,M1 wanted to kiss M3
2731.399999976158,NA,NA,NA,NA,survey-likert-extra-labels,126,520427,0.0-46.0-3.0-0.0,anomymised,656580e591ab4d27a27b0c3d,6565f5e63639c1a741be00fe,3549,1B,man,NA,NA,M3 is being kissed by M1,kiss2,rating_causation,"{""Q0"":3}",[0],M3 asked to kiss M1,M1 asked to kiss M3
null,Mike is being challenged by Dave,NA,NA,NA,html-keyboard-response,127,522429,0.0-47.0-0.0,anomymised,656580e591ab4d27a27b0c3d,6565f5e63639c1a741be00fe,3549,1B,man,NA,null,M2 is being challenged by M4,challenge2,sentence,NA,NA,NA,NA
10403.899999976158,NA,NA,NA,NA,survey-likert-extra-labels,128,532833,0.0-47.0-2.0,anomymised,656580e591ab4d27a27b0c3d,6565f5e63639c1a741be00fe,3549,1B,man,NA,NA,M2 is being challenged by M4,challenge2,rating_volition,"{""Q0"":2}",[0],M4 wanted to challenge M2,M2 wanted to challenge M4
2932,NA,NA,NA,NA,survey-likert-extra-labels,129,535767,0.0-47.0-3.0-0.0,anomymised,656580e591ab4d27a27b0c3d,6565f5e63639c1a741be00fe,3549,1B,man,NA,NA,M2 is being challenged by M4,challenge2,rating_causation,"{""Q0"":3}",[0],M4 started challenging M2 first,M2 started challenging M4 first
null,Beth is being greeted by Jane,NA,NA,NA,html-keyboard-response,130,537769,0.0-48.0-0.0,anomymised,656580e591ab4d27a27b0c3d,6565f5e63639c1a741be00fe,3549,1B,man,NA,null,W4 is being greeted by W2,greet1,sentence,NA,NA,NA,NA
2888.0999999046326,NA,NA,NA,NA,survey-likert-extra-labels,131,540657,0.0-48.0-2.0,anomymised,656580e591ab4d27a27b0c3d,6565f5e63639c1a741be00fe,3549,1B,man,NA,NA,W4 is being greeted by W2,greet1,rating_volition,"{""Q0"":6}",[0],W4 wanted to greet W2,W2 wanted to greet W4
3085.3000000715256,NA,NA,NA,NA,survey-likert-extra-labels,132,543744,0.0-48.0-3.0-0.0,anomymised,656580e591ab4d27a27b0c3d,6565f5e63639c1a741be00fe,3549,1B,man,NA,NA,W4 is being greeted by W2,greet1,rating_causation,"{""Q0"":4}",[0],W4 started greeting W2 first,W2 started greeting W4 first
null,Dave is being looked at by Jane,NA,NA,NA,html-keyboard-response,133,545750,0.0-49.0-0.0,anomymised,656580e591ab4d27a27b0c3d,6565f5e63639c1a741be00fe,3549,1B,man,NA,null,M4 is being looked at by W2,look3,sentence,NA,NA,NA,NA
2386.9000000953674,NA,NA,NA,NA,survey-likert-extra-labels,134,548137,0.0-49.0-2.0,anomymised,656580e591ab4d27a27b0c3d,6565f5e63639c1a741be00fe,3549,1B,man,NA,NA,M4 is being looked at by W2,look3,rating_volition,"{""Q0"":2}",[0],M4 wanted to look at W2,W2 wanted to look at M4
1339.5,NA,NA,NA,NA,survey-likert-extra-labels,135,549478,0.0-49.0-3.0-0.0,anomymised,656580e591ab4d27a27b0c3d,6565f5e63639c1a741be00fe,3549,1B,man,NA,NA,M4 is being looked at by W2,look3,rating_causation,"{""Q0"":3}",[0],M4 looked at W2 first,W2 looked at M4 first
null,Luke is driving Fred,NA,NA,NA,html-keyboard-response,136,551484,0.0-50.0-0.0,anomymised,656580e591ab4d27a27b0c3d,6565f5e63639c1a741be00fe,3549,1B,man,NA,null,M1 is driving M3,drive,sentence,NA,NA,NA,NA
3005.899999976158,NA,NA,NA,NA,survey-likert-extra-labels,137,554491,0.0-50.0-1.0-0.0,anomymised,656580e591ab4d27a27b0c3d,6565f5e63639c1a741be00fe,3549,1B,man,NA,NA,M1 is driving M3,drive,rating_causation,"{""Q0"":0}",[0],M1 is taking M3 somewhere,M3 is taking M1 somewhere
2831.7000000476837,NA,NA,NA,NA,survey-likert-extra-labels,138,557324,0.0-50.0-2.0,anomymised,656580e591ab4d27a27b0c3d,6565f5e63639c1a741be00fe,3549,1B,man,NA,NA,M1 is driving M3,drive,rating_volition,"{""Q0"":6}",[0],M1 is M3's passenger,M3 is M1's passenger
null,Luke is being hugged by Fred,NA,NA,NA,html-keyboard-response,139,559331,0.0-51.0-0.0,anomymised,656580e591ab4d27a27b0c3d,6565f5e63639c1a741be00fe,3549,1B,man,NA,null,M1 is being hugged by M3,hug2,sentence,NA,NA,NA,NA
3206.2999999523163,NA,NA,NA,NA,survey-likert-extra-labels,140,562538,0.0-51.0-2.0,anomymised,656580e591ab4d27a27b0c3d,6565f5e63639c1a741be00fe,3549,1B,man,NA,NA,M1 is being hugged by M3,hug2,rating_volition,"{""Q0"":0}",[0],M3 wanted to hug M1,M1 wanted to hug M3
2229.399999976158,NA,NA,NA,NA,survey-likert-extra-labels,141,564769,0.0-51.0-3.0-0.0,anomymised,656580e591ab4d27a27b0c3d,6565f5e63639c1a741be00fe,3549,1B,man,NA,NA,M1 is being hugged by M3,hug2,rating_causation,"{""Q0"":2}",[0],M3 asked to hug M1,M1 asked to hug M3
null,Mike is posing for Dave,NA,NA,NA,html-keyboard-response,142,566776,0.0-52.0-0.0,anomymised,656580e591ab4d27a27b0c3d,6565f5e63639c1a741be00fe,3549,1B,man,NA,null,M2 is posing for M4,pose,sentence,NA,NA,NA,NA
3420.7000000476837,NA,NA,NA,NA,survey-likert-extra-labels,143,570197,0.0-52.0-2.0,anomymised,656580e591ab4d27a27b0c3d,6565f5e63639c1a741be00fe,3549,1B,man,NA,NA,M2 is posing for M4,pose,rating_volition,"{""Q0"":0}",[0],M2 is modelling for M4,M4 is modelling for M2
3578.7000000476837,NA,NA,NA,NA,survey-likert-extra-labels,144,573778,0.0-52.0-3.0-0.0,anomymised,656580e591ab4d27a27b0c3d,6565f5e63639c1a741be00fe,3549,1B,man,NA,NA,M2 is posing for M4,pose,rating_causation,"{""Q0"":6}",[0],M2 is photographing M4,M4 is photographing M2
null,Ruth is being greeted by Fred,NA,NA,NA,html-keyboard-response,145,575794,0.0-53.0-0.0,anomymised,656580e591ab4d27a27b0c3d,6565f5e63639c1a741be00fe,3549,1B,man,NA,null,W1 is being greeted by M3,greet3,sentence,NA,NA,NA,NA
8140.899999976158,NA,NA,NA,NA,survey-likert-extra-labels,146,583935,0.0-53.0-1.0-0.0,anomymised,656580e591ab4d27a27b0c3d,6565f5e63639c1a741be00fe,3549,1B,man,NA,NA,W1 is being greeted by M3,greet3,rating_causation,"{""Q0"":5}",[0],W1 started greeting M3 first,M3 started greeting W1 first
2734.2000000476837,NA,NA,NA,NA,survey-likert-extra-labels,147,586671,0.0-53.0-2.0,anomymised,656580e591ab4d27a27b0c3d,6565f5e63639c1a741be00fe,3549,1B,man,NA,NA,W1 is being greeted by M3,greet3,rating_volition,"{""Q0"":6}",[0],W1 wanted to greet M3,M3 wanted to greet W1
null,Fred is being seduced by Ruth,NA,NA,NA,html-keyboard-response,148,588677,0.0-54.0-0.0,anomymised,656580e591ab4d27a27b0c3d,6565f5e63639c1a741be00fe,3549,1B,man,NA,null,M3 is being seduced by W1,seduce4,sentence,NA,NA,NA,NA
3283.5,NA,NA,NA,NA,survey-likert-extra-labels,149,591961,0.0-54.0-2.0,anomymised,656580e591ab4d27a27b0c3d,6565f5e63639c1a741be00fe,3549,1B,man,NA,NA,M3 is being seduced by W1,seduce4,rating_volition,"{""Q0"":0}",[0],W1 wanted to seducing M3,M3 wanted to seducing W1
3607.399999976158,NA,NA,NA,NA,survey-likert-extra-labels,150,595570,0.0-54.0-3.0-0.0,anomymised,656580e591ab4d27a27b0c3d,6565f5e63639c1a741be00fe,3549,1B,man,NA,NA,M3 is being seduced by W1,seduce4,rating_causation,"{""Q0"":1}",[0],W1 started seducing M3 first,M3 started seducing W1 first
1957.5,<p>Thank you for completing that task.</p><p>The final part of this session is a short questionnaire.</p><p>Press Continue.</p>,0,Continue,Continue,html-button-response,151,597529,0.0-55.0,anomymised,656580e591ab4d27a27b0c3d,6565f5e63639c1a741be00fe,3549,1B,man,NA,NA,NA,NA,NA,NA,NA,NA,NA
18845.700000047684,NA,NA,NA,NA,survey-text,152,617389,0.0-56.0,anomymised,656580e591ab4d27a27b0c3d,6565f5e63639c1a741be00fe,3549,1B,man,NA,NA,NA,NA,demographics,"{""Q0"":""30"",""Q1"":""English"",""Q2"":""English"",""Q3"":""Wales UK"",""Q4"":""British"",""Q5"":""White "",""Q6"":""Male""}",NA,NA,NA
2011.8999999761581,<p>This is the last question - thank you for taking part! Have you lived in the UK for the last 5 years or more?</p>,0,"Yes,No",Yes,html-button-response,153,619402,0.0-57.0,anomymised,656580e591ab4d27a27b0c3d,6565f5e63639c1a741be00fe,3549,1B,man,NA,NA,NA,NA,fiveyears,NA,NA,NA,NA
