rt,stimulus,button_pressed,choices,ChosenStimulus,trial_type,trial_index,time_elapsed,internal_node_id,subject_id,study_id,session_id,subject,list,ppt_gender,url,key_press,sentence_type,verb,test_part,responses,question_order,left_part,right_part
2287.699999999255,Welcome to the experiment. Press Continue to begin.,0,Continue,Continue,html-button-response,0,2290,0.0-0.0,anomymised,656582f39349a91f9e20cf14,6567371ec4ea65c65161457f,36184,1,woman,NA,NA,NA,NA,NA,NA,NA,NA,NA
23462.900000000373,NA,NA,NA,NA,external-html,1,26818,0.0-1.0,anomymised,656582f39349a91f9e20cf14,6567371ec4ea65c65161457f,36184,1,woman,consent.html,NA,NA,NA,NA,NA,NA,NA,NA
25102.10000000149,"<p>Welcome.</p><p>In this experiment we will ask you to imagine some situations.</p><p>Each trial starts with a description of an event.</p><p>Then you will see alternative descriptions of that event, and you will rate on a scale how best they match the original description.</p><p>You will give your answer by clicking a button on a rating scale.</p><p>To do this task, you will have to use your imagination to visualise these events.</p><br><p>Ready?</p>",0,Continue,Continue,html-button-response,2,51921,0.0-2.0,anomymised,656582f39349a91f9e20cf14,6567371ec4ea65c65161457f,36184,1,woman,NA,NA,NA,NA,NA,NA,NA,NA,NA
2879.0999999996275,"<p>Before the experiment starts, you will watch an example trial. Press 'Continue'.</p>",0,Continue,Continue,html-button-response,3,55809,0.0-3.0,anomymised,656582f39349a91f9e20cf14,6567371ec4ea65c65161457f,36184,1,woman,NA,NA,NA,NA,NA,NA,NA,NA,NA
null,The police officer is arresting the robber,NA,NA,NA,html-keyboard-response,4,58832,0.0-4.0,anomymised,656582f39349a91f9e20cf14,6567371ec4ea65c65161457f,36184,1,woman,NA,null,NA,NA,NA,NA,NA,NA,NA
14815.800000000745,<img src='img/Example-trial.jpg' style='height:550px;''></img>,0,Continue,Continue,html-button-response,5,73649,0.0-5.0,anomymised,656582f39349a91f9e20cf14,6567371ec4ea65c65161457f,36184,1,woman,NA,NA,NA,NA,NA,NA,NA,NA,NA
3102.5,<p>Ready to start the experiment?</p><br><p><strong>Remember to give an answer by clicking a button on the rating scale.</strong></p><p>Press 'Continue' to begin.</p>,0,Continue,Continue,html-button-response,6,77760,0.0-6.0,anomymised,656582f39349a91f9e20cf14,6567371ec4ea65c65161457f,36184,1,woman,NA,NA,NA,NA,NA,NA,NA,NA,NA
null,Jane is carrying Beth,NA,NA,NA,html-keyboard-response,7,80778,0.0-7.0-0.0,anomymised,656582f39349a91f9e20cf14,6567371ec4ea65c65161457f,36184,1,woman,NA,null,W2 is carrying W4,carry,sentence,NA,NA,NA,NA
14467.400000000373,NA,NA,NA,NA,survey-likert-extra-labels,8,95250,0.0-7.0-2.0,anomymised,656582f39349a91f9e20cf14,6567371ec4ea65c65161457f,36184,1,woman,NA,NA,W2 is carrying W4,carry,rating_volition,"{""Q0"":1}",[0],W2 is transporting W4,W4 is transporting W2
23325.300000000745,NA,NA,NA,NA,survey-likert-extra-labels,9,118578,0.0-7.0-3.0-0.0,anomymised,656582f39349a91f9e20cf14,6567371ec4ea65c65161457f,36184,1,woman,NA,NA,W2 is carrying W4,carry,rating_causation,"{""Q0"":6}",[0],W2 is being moved by W4,W4 is being moved by W2
null,Dave is being touched by Mike,NA,NA,NA,html-keyboard-response,10,120592,0.0-8.0-0.0,anomymised,656582f39349a91f9e20cf14,6567371ec4ea65c65161457f,36184,1,woman,NA,null,M4 is being touched by M2,touch2,sentence,NA,NA,NA,NA
16583.89999999851,NA,NA,NA,NA,survey-likert-extra-labels,11,137178,0.0-8.0-1.0-0.0,anomymised,656582f39349a91f9e20cf14,6567371ec4ea65c65161457f,36184,1,woman,NA,NA,M4 is being touched by M2,touch2,rating_causation,"{""Q0"":4}",[0],M4 asked to touch M2,M2 asked to touch M4
12549.699999999255,NA,NA,NA,NA,survey-likert-extra-labels,12,149730,0.0-8.0-2.0,anomymised,656582f39349a91f9e20cf14,6567371ec4ea65c65161457f,36184,1,woman,NA,NA,M4 is being touched by M2,touch2,rating_volition,"{""Q0"":4}",[0],M4 wanted to touch M2,M2 wanted to touch M4
null,Fred is being copied by Ruth,NA,NA,NA,html-keyboard-response,13,151732,0.0-9.0-0.0,anomymised,656582f39349a91f9e20cf14,6567371ec4ea65c65161457f,36184,1,woman,NA,null,M3 is being copied by W1,copy4,sentence,NA,NA,NA,NA
16707.900000000373,NA,NA,NA,NA,survey-likert-extra-labels,14,168442,0.0-9.0-1.0-0.0,anomymised,656582f39349a91f9e20cf14,6567371ec4ea65c65161457f,36184,1,woman,NA,NA,M3 is being copied by W1,copy4,rating_causation,"{""Q0"":2}",[0],W1 started copying M3 first,M3 started copying W1 first
14469.699999999255,NA,NA,NA,NA,survey-likert-extra-labels,15,182914,0.0-9.0-2.0,anomymised,656582f39349a91f9e20cf14,6567371ec4ea65c65161457f,36184,1,woman,NA,NA,M3 is being copied by W1,copy4,rating_volition,"{""Q0"":1}",[0],W1 wanted to copy M3,M3 wanted to copy W1
null,Dave is being shouted at by Jane,NA,NA,NA,html-keyboard-response,16,184932,0.0-10.0-0.0,anomymised,656582f39349a91f9e20cf14,6567371ec4ea65c65161457f,36184,1,woman,NA,null,M4 is being shouted at by W2,shout4,sentence,NA,NA,NA,NA
9676,NA,NA,NA,NA,survey-likert-extra-labels,17,194610,0.0-10.0-1.0-0.0,anomymised,656582f39349a91f9e20cf14,6567371ec4ea65c65161457f,36184,1,woman,NA,NA,M4 is being shouted at by W2,shout4,rating_causation,"{""Q0"":4}",[0],M4 shouted at W2 first,W2 shouted at M4 first
8909.5,NA,NA,NA,NA,survey-likert-extra-labels,18,203522,0.0-10.0-2.0,anomymised,656582f39349a91f9e20cf14,6567371ec4ea65c65161457f,36184,1,woman,NA,NA,M4 is being shouted at by W2,shout4,rating_volition,"{""Q0"":3}",[0],M4 wanted to shout at W2,W2 wanted to shout at M4
null,Ruth is being challenged by Fred,NA,NA,NA,html-keyboard-response,19,205525,0.0-11.0-0.0,anomymised,656582f39349a91f9e20cf14,6567371ec4ea65c65161457f,36184,1,woman,NA,null,W1 is being challenged by M3,challenge3,sentence,NA,NA,NA,NA
4979.5,NA,NA,NA,NA,survey-likert-extra-labels,20,210506,0.0-11.0-2.0,anomymised,656582f39349a91f9e20cf14,6567371ec4ea65c65161457f,36184,1,woman,NA,NA,W1 is being challenged by M3,challenge3,rating_volition,"{""Q0"":5}",[0],W1 wanted to challenge M3,M3 wanted to challenge W1
9342.099999999627,NA,NA,NA,NA,survey-likert-extra-labels,21,219850,0.0-11.0-3.0-0.0,anomymised,656582f39349a91f9e20cf14,6567371ec4ea65c65161457f,36184,1,woman,NA,NA,W1 is being challenged by M3,challenge3,rating_causation,"{""Q0"":4}",[0],W1 started challenging M3 first,M3 started challenging W1 first
null,Kate is being copied by Luke,NA,NA,NA,html-keyboard-response,22,221867,0.0-12.0-0.0,anomymised,656582f39349a91f9e20cf14,6567371ec4ea65c65161457f,36184,1,woman,NA,null,W3 is being copied by M1,copy3,sentence,NA,NA,NA,NA
5669.0999999996275,NA,NA,NA,NA,survey-likert-extra-labels,23,227538,0.0-12.0-2.0,anomymised,656582f39349a91f9e20cf14,6567371ec4ea65c65161457f,36184,1,woman,NA,NA,W3 is being copied by M1,copy3,rating_volition,"{""Q0"":1}",[0],M1 wanted to copy W3,W3 wanted to copy M1
7333.4000000003725,NA,NA,NA,NA,survey-likert-extra-labels,24,234874,0.0-12.0-3.0-0.0,anomymised,656582f39349a91f9e20cf14,6567371ec4ea65c65161457f,36184,1,woman,NA,NA,W3 is being copied by M1,copy3,rating_causation,"{""Q0"":2}",[0],M1 started copying W3 first,W3 started copying M1 first
null,Kate is being shouted at by Ruth,NA,NA,NA,html-keyboard-response,25,236886,0.0-13.0-0.0,anomymised,656582f39349a91f9e20cf14,6567371ec4ea65c65161457f,36184,1,woman,NA,null,W3 is being shouted at by W1,shout1,sentence,NA,NA,NA,NA
5058.699999999255,NA,NA,NA,NA,survey-likert-extra-labels,26,241946,0.0-13.0-2.0,anomymised,656582f39349a91f9e20cf14,6567371ec4ea65c65161457f,36184,1,woman,NA,NA,W3 is being shouted at by W1,shout1,rating_volition,"{""Q0"":5}",[0],W3 wanted to shout at W1,W1 wanted to shout at W3
3550,NA,NA,NA,NA,survey-likert-extra-labels,27,245498,0.0-13.0-3.0-0.0,anomymised,656582f39349a91f9e20cf14,6567371ec4ea65c65161457f,36184,1,woman,NA,NA,W3 is being shouted at by W1,shout1,rating_causation,"{""Q0"":3}",[0],W3 shouted at W1 first,W1 shouted at W3 first
null,Beth is being seduced by Jane,NA,NA,NA,html-keyboard-response,28,247506,0.0-14.0-0.0,anomymised,656582f39349a91f9e20cf14,6567371ec4ea65c65161457f,36184,1,woman,NA,null,W4 is being seduced by W2,seduce1,sentence,NA,NA,NA,NA
7229.800000000745,NA,NA,NA,NA,survey-likert-extra-labels,29,254738,0.0-14.0-1.0-0.0,anomymised,656582f39349a91f9e20cf14,6567371ec4ea65c65161457f,36184,1,woman,NA,NA,W4 is being seduced by W2,seduce1,rating_causation,"{""Q0"":4}",[0],W4 started seducing W2 first,W2 started seducing W4 first
6326.300000000745,NA,NA,NA,NA,survey-likert-extra-labels,30,261066,0.0-14.0-2.0,anomymised,656582f39349a91f9e20cf14,6567371ec4ea65c65161457f,36184,1,woman,NA,NA,W4 is being seduced by W2,seduce1,rating_volition,"{""Q0"":6}",[0],W4 wanted to seduce W2,W2 wanted to seduce W4
null,Jane is being greeted by Beth,NA,NA,NA,html-keyboard-response,31,263074,0.0-15.0-0.0,anomymised,656582f39349a91f9e20cf14,6567371ec4ea65c65161457f,36184,1,woman,NA,null,W2 is being greeted by W4,greet1,sentence,NA,NA,NA,NA
7854.5,NA,NA,NA,NA,survey-likert-extra-labels,32,270930,0.0-15.0-1.0-0.0,anomymised,656582f39349a91f9e20cf14,6567371ec4ea65c65161457f,36184,1,woman,NA,NA,W2 is being greeted by W4,greet1,rating_causation,"{""Q0"":1}",[0],W4 started greeting W2 first,W2 started greeting W4 first
8101.9000000003725,NA,NA,NA,NA,survey-likert-extra-labels,33,279034,0.0-15.0-2.0,anomymised,656582f39349a91f9e20cf14,6567371ec4ea65c65161457f,36184,1,woman,NA,NA,W2 is being greeted by W4,greet1,rating_volition,"{""Q0"":1}",[0],W4 wanted to greet W2,W2 wanted to greet W4
null,Luke is being looked at by Fred,NA,NA,NA,html-keyboard-response,34,281045,0.0-16.0-0.0,anomymised,656582f39349a91f9e20cf14,6567371ec4ea65c65161457f,36184,1,woman,NA,null,M1 is being looked at by M3,look2,sentence,NA,NA,NA,NA
6203,NA,NA,NA,NA,survey-likert-extra-labels,35,287250,0.0-16.0-2.0,anomymised,656582f39349a91f9e20cf14,6567371ec4ea65c65161457f,36184,1,woman,NA,NA,M1 is being looked at by M3,look2,rating_volition,"{""Q0"":1}",[0],M3 wanted to look at M1,M1 wanted to look at M3
6174.300000000745,NA,NA,NA,NA,survey-likert-extra-labels,36,293426,0.0-16.0-3.0-0.0,anomymised,656582f39349a91f9e20cf14,6567371ec4ea65c65161457f,36184,1,woman,NA,NA,M1 is being looked at by M3,look2,rating_causation,"{""Q0"":3}",[0],M3 looked at M1 first,M1 looked at M3 first
null,Luke is being kissed by Fred,NA,NA,NA,html-keyboard-response,37,295441,0.0-17.0-0.0,anomymised,656582f39349a91f9e20cf14,6567371ec4ea65c65161457f,36184,1,woman,NA,null,M1 is being kissed by M3,kiss2,sentence,NA,NA,NA,NA
6031.5,NA,NA,NA,NA,survey-likert-extra-labels,38,301474,0.0-17.0-2.0,anomymised,656582f39349a91f9e20cf14,6567371ec4ea65c65161457f,36184,1,woman,NA,NA,M1 is being kissed by M3,kiss2,rating_volition,"{""Q0"":0}",[0],M3 wanted to kiss M1,M1 wanted to kiss M3
6813.9000000003725,NA,NA,NA,NA,survey-likert-extra-labels,39,308291,0.0-17.0-3.0-0.0,anomymised,656582f39349a91f9e20cf14,6567371ec4ea65c65161457f,36184,1,woman,NA,NA,M1 is being kissed by M3,kiss2,rating_causation,"{""Q0"":1}",[0],M3 asked to kiss M1,M1 asked to kiss M3
null,Kate is being opposed by Ruth,NA,NA,NA,html-keyboard-response,40,310293,0.0-18.0-0.0,anomymised,656582f39349a91f9e20cf14,6567371ec4ea65c65161457f,36184,1,woman,NA,null,W3 is being opposed by W1,oppose1,sentence,NA,NA,NA,NA
7163.5999999996275,NA,NA,NA,NA,survey-likert-extra-labels,41,317458,0.0-18.0-2.0,anomymised,656582f39349a91f9e20cf14,6567371ec4ea65c65161457f,36184,1,woman,NA,NA,W3 is being opposed by W1,oppose1,rating_volition,"{""Q0"":5}",[0],W3 wanted to oppose W1,W1 wanted to oppose W3
11541.900000000373,NA,NA,NA,NA,survey-likert-extra-labels,42,329002,0.0-18.0-3.0-0.0,anomymised,656582f39349a91f9e20cf14,6567371ec4ea65c65161457f,36184,1,woman,NA,NA,W3 is being opposed by W1,oppose1,rating_causation,"{""Q0"":5}",[0],W3 started opposing W1,W1 started opposing W3
null,Ruth is being looked at by Kate,NA,NA,NA,html-keyboard-response,43,331005,0.0-19.0-0.0,anomymised,656582f39349a91f9e20cf14,6567371ec4ea65c65161457f,36184,1,woman,NA,null,W1 is being looked at by W3,look1,sentence,NA,NA,NA,NA
6229.199999999255,NA,NA,NA,NA,survey-likert-extra-labels,44,337235,0.0-19.0-1.0-0.0,anomymised,656582f39349a91f9e20cf14,6567371ec4ea65c65161457f,36184,1,woman,NA,NA,W1 is being looked at by W3,look1,rating_causation,"{""Q0"":3}",[0],W3 looked at W1 first,W1 looked at W3 first
5109.4000000003725,NA,NA,NA,NA,survey-likert-extra-labels,45,342346,0.0-19.0-2.0,anomymised,656582f39349a91f9e20cf14,6567371ec4ea65c65161457f,36184,1,woman,NA,NA,W1 is being looked at by W3,look1,rating_volition,"{""Q0"":1}",[0],W3 wanted to look at W1,W1 wanted to look at W3
null,Luke is being seduced by Kate,NA,NA,NA,html-keyboard-response,46,344358,0.0-20.0-0.0,anomymised,656582f39349a91f9e20cf14,6567371ec4ea65c65161457f,36184,1,woman,NA,null,M1 is being seduced by W3,seduce3,sentence,NA,NA,NA,NA
6322.200000001118,NA,NA,NA,NA,survey-likert-extra-labels,47,350682,0.0-20.0-2.0,anomymised,656582f39349a91f9e20cf14,6567371ec4ea65c65161457f,36184,1,woman,NA,NA,M1 is being seduced by W3,seduce3,rating_volition,"{""Q0"":6}",[0],M1 wanted to seduce W3,W3 wanted to seduce M1
10902.099999999627,NA,NA,NA,NA,survey-likert-extra-labels,48,361586,0.0-20.0-3.0-0.0,anomymised,656582f39349a91f9e20cf14,6567371ec4ea65c65161457f,36184,1,woman,NA,NA,M1 is being seduced by W3,seduce3,rating_causation,"{""Q0"":5}",[0],M1 started seducing W3 first,W3 started seducing M1 first
null,Ruth is being kissed by Kate,NA,NA,NA,html-keyboard-response,49,363599,0.0-21.0-0.0,anomymised,656582f39349a91f9e20cf14,6567371ec4ea65c65161457f,36184,1,woman,NA,null,W1 is being kissed by W3,kiss1,sentence,NA,NA,NA,NA
9609.299999998882,NA,NA,NA,NA,survey-likert-extra-labels,50,373211,0.0-21.0-1.0-0.0,anomymised,656582f39349a91f9e20cf14,6567371ec4ea65c65161457f,36184,1,woman,NA,NA,W1 is being kissed by W3,kiss1,rating_causation,"{""Q0"":2}",[0],W3 asked to kiss W1,W1 asked to kiss W3
5637.9000000003725,NA,NA,NA,NA,survey-likert-extra-labels,51,378851,0.0-21.0-2.0,anomymised,656582f39349a91f9e20cf14,6567371ec4ea65c65161457f,36184,1,woman,NA,NA,W1 is being kissed by W3,kiss1,rating_volition,"{""Q0"":1}",[0],W3 wanted to kiss W1,W1 wanted to kiss W3
null,Beth is being opposed by Mike,NA,NA,NA,html-keyboard-response,52,380854,0.0-22.0-0.0,anomymised,656582f39349a91f9e20cf14,6567371ec4ea65c65161457f,36184,1,woman,NA,null,W4 is being opposed by M2,oppose4,sentence,NA,NA,NA,NA
4188.10000000149,NA,NA,NA,NA,survey-likert-extra-labels,53,385043,0.0-22.0-2.0,anomymised,656582f39349a91f9e20cf14,6567371ec4ea65c65161457f,36184,1,woman,NA,NA,W4 is being opposed by M2,oppose4,rating_volition,"{""Q0"":5}",[0],W4 wanted to oppose M2,M2 wanted to oppose W4
7005.4000000003725,NA,NA,NA,NA,survey-likert-extra-labels,54,392050,0.0-22.0-3.0-0.0,anomymised,656582f39349a91f9e20cf14,6567371ec4ea65c65161457f,36184,1,woman,NA,NA,W4 is being opposed by M2,oppose4,rating_causation,"{""Q0"":5}",[0],W4 started opposing M2,M2 started opposing W4
null,Ruth is chasing Kate,NA,NA,NA,html-keyboard-response,55,394065,0.0-23.0-0.0,anomymised,656582f39349a91f9e20cf14,6567371ec4ea65c65161457f,36184,1,woman,NA,null,W1 is chasing W3,chase,sentence,NA,NA,NA,NA
7183.200000001118,NA,NA,NA,NA,survey-likert-extra-labels,56,401251,0.0-23.0-1.0-0.0,anomymised,656582f39349a91f9e20cf14,6567371ec4ea65c65161457f,36184,1,woman,NA,NA,W1 is chasing W3,chase,rating_causation,"{""Q0"":6}",[0],W1 is running away from W3,W3 is running away from W1
6989.5999999996275,NA,NA,NA,NA,survey-likert-extra-labels,57,408243,0.0-23.0-2.0,anomymised,656582f39349a91f9e20cf14,6567371ec4ea65c65161457f,36184,1,woman,NA,NA,W1 is chasing W3,chase,rating_volition,"{""Q0"":0}",[0],W1 is behind W3,W3 is behind W1
null,Jane is teaching Dave,NA,NA,NA,html-keyboard-response,58,410259,0.0-24.0-0.0,anomymised,656582f39349a91f9e20cf14,6567371ec4ea65c65161457f,36184,1,woman,NA,null,W2 is teaching M4,teach,sentence,NA,NA,NA,NA
4469.200000001118,NA,NA,NA,NA,survey-likert-extra-labels,59,414730,0.0-24.0-1.0-0.0,anomymised,656582f39349a91f9e20cf14,6567371ec4ea65c65161457f,36184,1,woman,NA,NA,W2 is teaching M4,teach,rating_causation,"{""Q0"":6}",[0],W2 is learning from M4,M4 is learning from W2
6566.299999998882,NA,NA,NA,NA,survey-likert-extra-labels,60,421299,0.0-24.0-2.0,anomymised,656582f39349a91f9e20cf14,6567371ec4ea65c65161457f,36184,1,woman,NA,NA,W2 is teaching M4,teach,rating_volition,"{""Q0"":0}",[0],W2 is educating M4,M4 is educating W2
null,Ruth is being touched by Fred,NA,NA,NA,html-keyboard-response,61,423306,0.0-25.0-0.0,anomymised,656582f39349a91f9e20cf14,6567371ec4ea65c65161457f,36184,1,woman,NA,null,W1 is being touched by M3,touch4,sentence,NA,NA,NA,NA
4926.9000000003725,NA,NA,NA,NA,survey-likert-extra-labels,62,428235,0.0-25.0-2.0,anomymised,656582f39349a91f9e20cf14,6567371ec4ea65c65161457f,36184,1,woman,NA,NA,W1 is being touched by M3,touch4,rating_volition,"{""Q0"":6}",[0],W1 wanted to touch M3,M3 wanted to touch W1
5750.4000000003725,NA,NA,NA,NA,survey-likert-extra-labels,63,433987,0.0-25.0-3.0-0.0,anomymised,656582f39349a91f9e20cf14,6567371ec4ea65c65161457f,36184,1,woman,NA,NA,W1 is being touched by M3,touch4,rating_causation,"{""Q0"":3}",[0],W1 asked to touch M3,M3 asked to touch W1
null,Mike is being greeted by Dave,NA,NA,NA,html-keyboard-response,64,435995,0.0-26.0-0.0,anomymised,656582f39349a91f9e20cf14,6567371ec4ea65c65161457f,36184,1,woman,NA,null,M2 is being greeted by M4,greet2,sentence,NA,NA,NA,NA
5502.699999999255,NA,NA,NA,NA,survey-likert-extra-labels,65,441499,0.0-26.0-1.0-0.0,anomymised,656582f39349a91f9e20cf14,6567371ec4ea65c65161457f,36184,1,woman,NA,NA,M2 is being greeted by M4,greet2,rating_causation,"{""Q0"":1}",[0],M4 started greeting M2 first,M2 started greeting M4 first
7326,NA,NA,NA,NA,survey-likert-extra-labels,66,448827,0.0-26.0-2.0,anomymised,656582f39349a91f9e20cf14,6567371ec4ea65c65161457f,36184,1,woman,NA,NA,M2 is being greeted by M4,greet2,rating_volition,"{""Q0"":1}",[0],M4 wanted to greet M2,M2 wanted to greet M4
null,Beth is being touched by Jane,NA,NA,NA,html-keyboard-response,67,450853,0.0-27.0-0.0,anomymised,656582f39349a91f9e20cf14,6567371ec4ea65c65161457f,36184,1,woman,NA,null,W4 is being touched by W2,touch1,sentence,NA,NA,NA,NA
5812,NA,NA,NA,NA,survey-likert-extra-labels,68,456666,0.0-27.0-2.0,anomymised,656582f39349a91f9e20cf14,6567371ec4ea65c65161457f,36184,1,woman,NA,NA,W4 is being touched by W2,touch1,rating_volition,"{""Q0"":5}",[0],W4 wanted to touch W2,W2 wanted to touch W4
4926.5,NA,NA,NA,NA,survey-likert-extra-labels,69,461595,0.0-27.0-3.0-0.0,anomymised,656582f39349a91f9e20cf14,6567371ec4ea65c65161457f,36184,1,woman,NA,NA,W4 is being touched by W2,touch1,rating_causation,"{""Q0"":3}",[0],W4 asked to touch W2,W2 asked to touch W4
null,Luke is being touched by Kate,NA,NA,NA,html-keyboard-response,70,463599,0.0-28.0-0.0,anomymised,656582f39349a91f9e20cf14,6567371ec4ea65c65161457f,36184,1,woman,NA,null,M1 is being touched by W3,touch3,sentence,NA,NA,NA,NA
4744.800000000745,NA,NA,NA,NA,survey-likert-extra-labels,71,468346,0.0-28.0-2.0,anomymised,656582f39349a91f9e20cf14,6567371ec4ea65c65161457f,36184,1,woman,NA,NA,M1 is being touched by W3,touch3,rating_volition,"{""Q0"":5}",[0],M1 wanted to touch W3,W3 wanted to touch M1
3062.5999999996275,NA,NA,NA,NA,survey-likert-extra-labels,72,471410,0.0-28.0-3.0-0.0,anomymised,656582f39349a91f9e20cf14,6567371ec4ea65c65161457f,36184,1,woman,NA,NA,M1 is being touched by W3,touch3,rating_causation,"{""Q0"":3}",[0],M1 asked to touch W3,W3 asked to touch M1
null,Fred is being opposed by Luke,NA,NA,NA,html-keyboard-response,73,473419,0.0-29.0-0.0,anomymised,656582f39349a91f9e20cf14,6567371ec4ea65c65161457f,36184,1,woman,NA,null,M3 is being opposed by M1,oppose2,sentence,NA,NA,NA,NA
4110.199999999255,NA,NA,NA,NA,survey-likert-extra-labels,74,477531,0.0-29.0-2.0,anomymised,656582f39349a91f9e20cf14,6567371ec4ea65c65161457f,36184,1,woman,NA,NA,M3 is being opposed by M1,oppose2,rating_volition,"{""Q0"":5}",[0],M3 wanted to oppose M1,M1 wanted to oppose M3
2646.0999999996275,NA,NA,NA,NA,survey-likert-extra-labels,75,480179,0.0-29.0-3.0-0.0,anomymised,656582f39349a91f9e20cf14,6567371ec4ea65c65161457f,36184,1,woman,NA,NA,M3 is being opposed by M1,oppose2,rating_causation,"{""Q0"":3}",[0],M3 started opposing M1,M1 started opposing M3
null,Dave is being challenged by Mike,NA,NA,NA,html-keyboard-response,76,482187,0.0-30.0-0.0,anomymised,656582f39349a91f9e20cf14,6567371ec4ea65c65161457f,36184,1,woman,NA,null,M4 is being challenged by M2,challenge2,sentence,NA,NA,NA,NA
5557.5,NA,NA,NA,NA,survey-likert-extra-labels,77,487746,0.0-30.0-2.0,anomymised,656582f39349a91f9e20cf14,6567371ec4ea65c65161457f,36184,1,woman,NA,NA,M4 is being challenged by M2,challenge2,rating_volition,"{""Q0"":5}",[0],M4 wanted to challenge M2,M2 wanted to challenge M4
2902.199999999255,NA,NA,NA,NA,survey-likert-extra-labels,78,490651,0.0-30.0-3.0-0.0,anomymised,656582f39349a91f9e20cf14,6567371ec4ea65c65161457f,36184,1,woman,NA,NA,M4 is being challenged by M2,challenge2,rating_causation,"{""Q0"":3}",[0],M4 started challenging M2 first,M2 started challenging M4 first
null,Fred is being hugged by Luke,NA,NA,NA,html-keyboard-response,79,492661,0.0-31.0-0.0,anomymised,656582f39349a91f9e20cf14,6567371ec4ea65c65161457f,36184,1,woman,NA,null,M3 is being hugged by M1,hug2,sentence,NA,NA,NA,NA
8291.799999998882,NA,NA,NA,NA,survey-likert-extra-labels,80,500955,0.0-31.0-2.0,anomymised,656582f39349a91f9e20cf14,6567371ec4ea65c65161457f,36184,1,woman,NA,NA,M3 is being hugged by M1,hug2,rating_volition,"{""Q0"":5}",[0],M3 wanted to hug M1,M1 wanted to hug M3
3093.699999999255,NA,NA,NA,NA,survey-likert-extra-labels,81,504051,0.0-31.0-3.0-0.0,anomymised,656582f39349a91f9e20cf14,6567371ec4ea65c65161457f,36184,1,woman,NA,NA,M3 is being hugged by M1,hug2,rating_causation,"{""Q0"":3}",[0],M3 asked to hug M1,M1 asked to hug M3
null,Fred is being shouted at by Luke,NA,NA,NA,html-keyboard-response,82,506059,0.0-32.0-0.0,anomymised,656582f39349a91f9e20cf14,6567371ec4ea65c65161457f,36184,1,woman,NA,null,M3 is being shouted at by M1,shout2,sentence,NA,NA,NA,NA
8447.400000000373,NA,NA,NA,NA,survey-likert-extra-labels,83,514507,0.0-32.0-1.0-0.0,anomymised,656582f39349a91f9e20cf14,6567371ec4ea65c65161457f,36184,1,woman,NA,NA,M3 is being shouted at by M1,shout2,rating_causation,"{""Q0"":4}",[0],M3 shouted at M1 first,M1 shouted at M3 first
4221.4000000003725,NA,NA,NA,NA,survey-likert-extra-labels,84,518731,0.0-32.0-2.0,anomymised,656582f39349a91f9e20cf14,6567371ec4ea65c65161457f,36184,1,woman,NA,NA,M3 is being shouted at by M1,shout2,rating_volition,"{""Q0"":3}",[0],M3 wanted to shout at M1,M1 wanted to shout at M3
null,Kate is being greeted by Luke,NA,NA,NA,html-keyboard-response,85,520734,0.0-33.0-0.0,anomymised,656582f39349a91f9e20cf14,6567371ec4ea65c65161457f,36184,1,woman,NA,null,W3 is being greeted by M1,greet4,sentence,NA,NA,NA,NA
10059.699999999255,NA,NA,NA,NA,survey-likert-extra-labels,86,530795,0.0-33.0-2.0,anomymised,656582f39349a91f9e20cf14,6567371ec4ea65c65161457f,36184,1,woman,NA,NA,W3 is being greeted by M1,greet4,rating_volition,"{""Q0"":1}",[0],M1 wanted to greet W3,W3 wanted to greet M1
2541.9000000003725,NA,NA,NA,NA,survey-likert-extra-labels,87,533339,0.0-33.0-3.0-0.0,anomymised,656582f39349a91f9e20cf14,6567371ec4ea65c65161457f,36184,1,woman,NA,NA,W3 is being greeted by M1,greet4,rating_causation,"{""Q0"":3}",[0],M1 started greeting W3 first,W3 started greeting M1 first
null,Kate is being hugged by Ruth,NA,NA,NA,html-keyboard-response,88,535341,0.0-34.0-0.0,anomymised,656582f39349a91f9e20cf14,6567371ec4ea65c65161457f,36184,1,woman,NA,null,W3 is being hugged by W1,hug1,sentence,NA,NA,NA,NA
3420,NA,NA,NA,NA,survey-likert-extra-labels,89,538763,0.0-34.0-1.0-0.0,anomymised,656582f39349a91f9e20cf14,6567371ec4ea65c65161457f,36184,1,woman,NA,NA,W3 is being hugged by W1,hug1,rating_causation,"{""Q0"":3}",[0],W3 asked to hug W1,W1 asked to hug W3
5886.4000000003725,NA,NA,NA,NA,survey-likert-extra-labels,90,544651,0.0-34.0-2.0,anomymised,656582f39349a91f9e20cf14,6567371ec4ea65c65161457f,36184,1,woman,NA,NA,W3 is being hugged by W1,hug1,rating_volition,"{""Q0"":5}",[0],W3 wanted to hug W1,W1 wanted to hug W3
null,Dave is being hugged by Jane,NA,NA,NA,html-keyboard-response,91,546671,0.0-35.0-0.0,anomymised,656582f39349a91f9e20cf14,6567371ec4ea65c65161457f,36184,1,woman,NA,null,M4 is being hugged by W2,hug3,sentence,NA,NA,NA,NA
2506.300000000745,NA,NA,NA,NA,survey-likert-extra-labels,92,549179,0.0-35.0-1.0-0.0,anomymised,656582f39349a91f9e20cf14,6567371ec4ea65c65161457f,36184,1,woman,NA,NA,M4 is being hugged by W2,hug3,rating_causation,"{""Q0"":3}",[0],M4 asked to hug W2,W2 asked to hug M4
5790.200000001118,NA,NA,NA,NA,survey-likert-extra-labels,93,554972,0.0-35.0-2.0,anomymised,656582f39349a91f9e20cf14,6567371ec4ea65c65161457f,36184,1,woman,NA,NA,M4 is being hugged by W2,hug3,rating_volition,"{""Q0"":5}",[0],M4 wanted to hug W2,W2 wanted to hug M4
null,Mike is being kissed by Beth,NA,NA,NA,html-keyboard-response,94,556978,0.0-36.0-0.0,anomymised,656582f39349a91f9e20cf14,6567371ec4ea65c65161457f,36184,1,woman,NA,null,M2 is being kissed by W4,kiss3,sentence,NA,NA,NA,NA
3078.9000000003725,NA,NA,NA,NA,survey-likert-extra-labels,95,560059,0.0-36.0-1.0-0.0,anomymised,656582f39349a91f9e20cf14,6567371ec4ea65c65161457f,36184,1,woman,NA,NA,M2 is being kissed by W4,kiss3,rating_causation,"{""Q0"":3}",[0],W4 asked to kiss M2,M2 asked to kiss W4
4246.5,NA,NA,NA,NA,survey-likert-extra-labels,96,564307,0.0-36.0-2.0,anomymised,656582f39349a91f9e20cf14,6567371ec4ea65c65161457f,36184,1,woman,NA,NA,M2 is being kissed by W4,kiss3,rating_volition,"{""Q0"":1}",[0],W4 wanted to kiss M2,M2 wanted to kiss W4
null,Dave is being opposed by Jane,NA,NA,NA,html-keyboard-response,97,566334,0.0-37.0-0.0,anomymised,656582f39349a91f9e20cf14,6567371ec4ea65c65161457f,36184,1,woman,NA,null,M4 is being opposed by W2,oppose3,sentence,NA,NA,NA,NA
3227.0999999996275,NA,NA,NA,NA,survey-likert-extra-labels,98,569563,0.0-37.0-1.0-0.0,anomymised,656582f39349a91f9e20cf14,6567371ec4ea65c65161457f,36184,1,woman,NA,NA,M4 is being opposed by W2,oppose3,rating_causation,"{""Q0"":3}",[0],M4 started opposing W2,W2 started opposing M4
4086.199999999255,NA,NA,NA,NA,survey-likert-extra-labels,99,573651,0.0-37.0-2.0,anomymised,656582f39349a91f9e20cf14,6567371ec4ea65c65161457f,36184,1,woman,NA,NA,M4 is being opposed by W2,oppose3,rating_volition,"{""Q0"":5}",[0],M4 wanted to oppose W2,W2 wanted to oppose M4
null,Mike is posing for Dave,NA,NA,NA,html-keyboard-response,100,575662,0.0-38.0-0.0,anomymised,656582f39349a91f9e20cf14,6567371ec4ea65c65161457f,36184,1,woman,NA,null,M2 is posing for M4,pose,sentence,NA,NA,NA,NA
6619.300000000745,NA,NA,NA,NA,survey-likert-extra-labels,101,582283,0.0-38.0-2.0,anomymised,656582f39349a91f9e20cf14,6567371ec4ea65c65161457f,36184,1,woman,NA,NA,M2 is posing for M4,pose,rating_volition,"{""Q0"":1}",[0],M2 is modelling for M4,M4 is modelling for M2
3870.699999999255,NA,NA,NA,NA,survey-likert-extra-labels,102,586156,0.0-38.0-3.0-0.0,anomymised,656582f39349a91f9e20cf14,6567371ec4ea65c65161457f,36184,1,woman,NA,NA,M2 is posing for M4,pose,rating_causation,"{""Q0"":5}",[0],M2 is photographing M4,M4 is photographing M2
null,Beth is being challenged by Jane,NA,NA,NA,html-keyboard-response,103,588174,0.0-39.0-0.0,anomymised,656582f39349a91f9e20cf14,6567371ec4ea65c65161457f,36184,1,woman,NA,null,W4 is being challenged by W2,challenge1,sentence,NA,NA,NA,NA
4371.5999999996275,NA,NA,NA,NA,survey-likert-extra-labels,104,592547,0.0-39.0-2.0,anomymised,656582f39349a91f9e20cf14,6567371ec4ea65c65161457f,36184,1,woman,NA,NA,W4 is being challenged by W2,challenge1,rating_volition,"{""Q0"":5}",[0],W4 wanted to challenge W2,W2 wanted to challenge W4
2509.7999999988824,NA,NA,NA,NA,survey-likert-extra-labels,105,595059,0.0-39.0-3.0-0.0,anomymised,656582f39349a91f9e20cf14,6567371ec4ea65c65161457f,36184,1,woman,NA,NA,W4 is being challenged by W2,challenge1,rating_causation,"{""Q0"":3}",[0],W4 started challenging W2 first,W2 started challenging W4 first
null,Jane is being kissed by Dave,NA,NA,NA,html-keyboard-response,106,597074,0.0-40.0-0.0,anomymised,656582f39349a91f9e20cf14,6567371ec4ea65c65161457f,36184,1,woman,NA,null,W2 is being kissed by M4,kiss4,sentence,NA,NA,NA,NA
2831.9000000003725,NA,NA,NA,NA,survey-likert-extra-labels,107,599908,0.0-40.0-1.0-0.0,anomymised,656582f39349a91f9e20cf14,6567371ec4ea65c65161457f,36184,1,woman,NA,NA,W2 is being kissed by M4,kiss4,rating_causation,"{""Q0"":3}",[0],M4 asked to kiss W2,W2 asked to kiss M4
4661.5,NA,NA,NA,NA,survey-likert-extra-labels,108,604570,0.0-40.0-2.0,anomymised,656582f39349a91f9e20cf14,6567371ec4ea65c65161457f,36184,1,woman,NA,NA,W2 is being kissed by M4,kiss4,rating_volition,"{""Q0"":1}",[0],M4 wanted to kiss W2,W2 wanted to kiss M4
null,Jane is being looked at by Dave,NA,NA,NA,html-keyboard-response,109,606574,0.0-41.0-0.0,anomymised,656582f39349a91f9e20cf14,6567371ec4ea65c65161457f,36184,1,woman,NA,null,W2 is being looked at by M4,look3,sentence,NA,NA,NA,NA
5122.5,NA,NA,NA,NA,survey-likert-extra-labels,110,611699,0.0-41.0-2.0,anomymised,656582f39349a91f9e20cf14,6567371ec4ea65c65161457f,36184,1,woman,NA,NA,W2 is being looked at by M4,look3,rating_volition,"{""Q0"":1}",[0],M4 wanted to look at W2,W2 wanted to look at M4
2486,NA,NA,NA,NA,survey-likert-extra-labels,111,614187,0.0-41.0-3.0-0.0,anomymised,656582f39349a91f9e20cf14,6567371ec4ea65c65161457f,36184,1,woman,NA,NA,W2 is being looked at by M4,look3,rating_causation,"{""Q0"":3}",[0],M4 looked at W2 first,W2 looked at M4 first
null,Dave is being seduced by Mike,NA,NA,NA,html-keyboard-response,112,616190,0.0-42.0-0.0,anomymised,656582f39349a91f9e20cf14,6567371ec4ea65c65161457f,36184,1,woman,NA,null,M4 is being seduced by M2,seduce2,sentence,NA,NA,NA,NA
4659.4000000003725,NA,NA,NA,NA,survey-likert-extra-labels,113,620851,0.0-42.0-2.0,anomymised,656582f39349a91f9e20cf14,6567371ec4ea65c65161457f,36184,1,woman,NA,NA,M4 is being seduced by M2,seduce2,rating_volition,"{""Q0"":5}",[0],M4 wanted to seduce M2,M2 wanted to seduce M4
3101.199999999255,NA,NA,NA,NA,survey-likert-extra-labels,114,623954,0.0-42.0-3.0-0.0,anomymised,656582f39349a91f9e20cf14,6567371ec4ea65c65161457f,36184,1,woman,NA,NA,M4 is being seduced by M2,seduce2,rating_causation,"{""Q0"":3}",[0],M4 started seducing M2 first,M2 started seducing M4 first
null,Kate is feeding Luke,NA,NA,NA,html-keyboard-response,115,625957,0.0-43.0-0.0,anomymised,656582f39349a91f9e20cf14,6567371ec4ea65c65161457f,36184,1,woman,NA,null,W3 is feeding M1,feed,sentence,NA,NA,NA,NA
7860.10000000149,NA,NA,NA,NA,survey-likert-extra-labels,116,633819,0.0-43.0-2.0,anomymised,656582f39349a91f9e20cf14,6567371ec4ea65c65161457f,36184,1,woman,NA,NA,W3 is feeding M1,feed,rating_volition,"{""Q0"":1}",[0],W3 cooked for M1,M1 cooked for W3
4645.9000000003725,NA,NA,NA,NA,survey-likert-extra-labels,117,638467,0.0-43.0-3.0-0.0,anomymised,656582f39349a91f9e20cf14,6567371ec4ea65c65161457f,36184,1,woman,NA,NA,W3 is feeding M1,feed,rating_causation,"{""Q0"":6}",[0],W3 is eating M1's food,M1 is eating W3's food
null,Mike is being copied by Dave,NA,NA,NA,html-keyboard-response,118,640482,0.0-44.0-0.0,anomymised,656582f39349a91f9e20cf14,6567371ec4ea65c65161457f,36184,1,woman,NA,null,M2 is being copied by M4,copy2,sentence,NA,NA,NA,NA
2983.699999999255,NA,NA,NA,NA,survey-likert-extra-labels,119,643467,0.0-44.0-1.0-0.0,anomymised,656582f39349a91f9e20cf14,6567371ec4ea65c65161457f,36184,1,woman,NA,NA,M2 is being copied by M4,copy2,rating_causation,"{""Q0"":3}",[0],M4 started copying M2 first,M2 started copying M4 first
5237.9000000003725,NA,NA,NA,NA,survey-likert-extra-labels,120,648707,0.0-44.0-2.0,anomymised,656582f39349a91f9e20cf14,6567371ec4ea65c65161457f,36184,1,woman,NA,NA,M2 is being copied by M4,copy2,rating_volition,"{""Q0"":1}",[0],M4 wanted to copy M2,M2 wanted to copy M4
null,Luke is driving Fred,NA,NA,NA,html-keyboard-response,121,650721,0.0-45.0-0.0,anomymised,656582f39349a91f9e20cf14,6567371ec4ea65c65161457f,36184,1,woman,NA,null,M1 is driving M3,drive,sentence,NA,NA,NA,NA
5968.800000000745,NA,NA,NA,NA,survey-likert-extra-labels,122,656691,0.0-45.0-1.0-0.0,anomymised,656582f39349a91f9e20cf14,6567371ec4ea65c65161457f,36184,1,woman,NA,NA,M1 is driving M3,drive,rating_causation,"{""Q0"":1}",[0],M1 is taking M3 somewhere,M3 is taking M1 somewhere
5509.5999999996275,NA,NA,NA,NA,survey-likert-extra-labels,123,662203,0.0-45.0-2.0,anomymised,656582f39349a91f9e20cf14,6567371ec4ea65c65161457f,36184,1,woman,NA,NA,M1 is driving M3,drive,rating_volition,"{""Q0"":6}",[0],M1 is M3's passenger,M3 is M1's passenger
null,Fred is hiring Ruth,NA,NA,NA,html-keyboard-response,124,664215,0.0-46.0-0.0,anomymised,656582f39349a91f9e20cf14,6567371ec4ea65c65161457f,36184,1,woman,NA,null,M3 is hiring W1,hire,sentence,NA,NA,NA,NA
5706.800000000745,NA,NA,NA,NA,survey-likert-extra-labels,125,669923,0.0-46.0-1.0-0.0,anomymised,656582f39349a91f9e20cf14,6567371ec4ea65c65161457f,36184,1,woman,NA,NA,M3 is hiring W1,hire,rating_causation,"{""Q0"":6}",[0],M3 will work for W1,W1 will work for M3
6470.0999999996275,NA,NA,NA,NA,survey-likert-extra-labels,126,676395,0.0-46.0-2.0,anomymised,656582f39349a91f9e20cf14,6567371ec4ea65c65161457f,36184,1,woman,NA,NA,M3 is hiring W1,hire,rating_volition,"{""Q0"":0}",[0],M3 is employing W1,W1 is employing M3
null,Fred is being greeted by Ruth,NA,NA,NA,html-keyboard-response,127,678405,0.0-47.0-0.0,anomymised,656582f39349a91f9e20cf14,6567371ec4ea65c65161457f,36184,1,woman,NA,null,M3 is being greeted by W1,greet3,sentence,NA,NA,NA,NA
6493,NA,NA,NA,NA,survey-likert-extra-labels,128,684899,0.0-47.0-2.0,anomymised,656582f39349a91f9e20cf14,6567371ec4ea65c65161457f,36184,1,woman,NA,NA,M3 is being greeted by W1,greet3,rating_volition,"{""Q0"":1}",[0],W1 wanted to greet M3,M3 wanted to greet W1
2573.199999999255,NA,NA,NA,NA,survey-likert-extra-labels,129,687474,0.0-47.0-3.0-0.0,anomymised,656582f39349a91f9e20cf14,6567371ec4ea65c65161457f,36184,1,woman,NA,NA,M3 is being greeted by W1,greet3,rating_causation,"{""Q0"":3}",[0],W1 started greeting M3 first,M3 started greeting W1 first
null,Mike is being looked at by Beth,NA,NA,NA,html-keyboard-response,130,689477,0.0-48.0-0.0,anomymised,656582f39349a91f9e20cf14,6567371ec4ea65c65161457f,36184,1,woman,NA,null,M2 is being looked at by W4,look4,sentence,NA,NA,NA,NA
3029.2000000011176,NA,NA,NA,NA,survey-likert-extra-labels,131,692507,0.0-48.0-2.0,anomymised,656582f39349a91f9e20cf14,6567371ec4ea65c65161457f,36184,1,woman,NA,NA,M2 is being looked at by W4,look4,rating_volition,"{""Q0"":1}",[0],W4 wanted to look at M2,M2 wanted to look at W4
1693.699999999255,NA,NA,NA,NA,survey-likert-extra-labels,132,694203,0.0-48.0-3.0-0.0,anomymised,656582f39349a91f9e20cf14,6567371ec4ea65c65161457f,36184,1,woman,NA,NA,M2 is being looked at by W4,look4,rating_causation,"{""Q0"":3}",[0],W4 looked at M2 first,M2 looked at W4 first
null,Mike is reminding Beth,NA,NA,NA,html-keyboard-response,133,696208,0.0-49.0-0.0,anomymised,656582f39349a91f9e20cf14,6567371ec4ea65c65161457f,36184,1,woman,NA,null,M2 is reminding W4,remind,sentence,NA,NA,NA,NA
4769.199999999255,NA,NA,NA,NA,survey-likert-extra-labels,134,700979,0.0-49.0-1.0-0.0,anomymised,656582f39349a91f9e20cf14,6567371ec4ea65c65161457f,36184,1,woman,NA,NA,M2 is reminding W4,remind,rating_causation,"{""Q0"":5}",[0],M2 is remembering,W4 is remembering
3950,NA,NA,NA,NA,survey-likert-extra-labels,135,704932,0.0-49.0-2.0,anomymised,656582f39349a91f9e20cf14,6567371ec4ea65c65161457f,36184,1,woman,NA,NA,M2 is reminding W4,remind,rating_volition,"{""Q0"":1}",[0],M2 is telling W4 again,W4 is telling M2 again
null,Luke is being challenged by Kate,NA,NA,NA,html-keyboard-response,136,706946,0.0-50.0-0.0,anomymised,656582f39349a91f9e20cf14,6567371ec4ea65c65161457f,36184,1,woman,NA,null,M1 is being challenged by W3,challenge4,sentence,NA,NA,NA,NA
3520.2000000011176,NA,NA,NA,NA,survey-likert-extra-labels,137,710467,0.0-50.0-2.0,anomymised,656582f39349a91f9e20cf14,6567371ec4ea65c65161457f,36184,1,woman,NA,NA,M1 is being challenged by W3,challenge4,rating_volition,"{""Q0"":5}",[0],M1 wanted to challenge W3,W3 wanted to challenge M1
2895.9000000003725,NA,NA,NA,NA,survey-likert-extra-labels,138,713365,0.0-50.0-3.0-0.0,anomymised,656582f39349a91f9e20cf14,6567371ec4ea65c65161457f,36184,1,woman,NA,NA,M1 is being challenged by W3,challenge4,rating_causation,"{""Q0"":3}",[0],M1 started challenging W3 first,W3 started challenging M1 first
null,Beth is being hugged by Mike,NA,NA,NA,html-keyboard-response,139,715369,0.0-51.0-0.0,anomymised,656582f39349a91f9e20cf14,6567371ec4ea65c65161457f,36184,1,woman,NA,null,W4 is being hugged by M2,hug4,sentence,NA,NA,NA,NA
3152,NA,NA,NA,NA,survey-likert-extra-labels,140,718523,0.0-51.0-2.0,anomymised,656582f39349a91f9e20cf14,6567371ec4ea65c65161457f,36184,1,woman,NA,NA,W4 is being hugged by M2,hug4,rating_volition,"{""Q0"":5}",[0],W4 wanted to hug M2,M2 wanted to hug W4
3432.4000000003725,NA,NA,NA,NA,survey-likert-extra-labels,141,721957,0.0-51.0-3.0-0.0,anomymised,656582f39349a91f9e20cf14,6567371ec4ea65c65161457f,36184,1,woman,NA,NA,W4 is being hugged by M2,hug4,rating_causation,"{""Q0"":3}",[0],W4 asked to hug M2,M2 asked to hug W4
null,Jane is being copied by Beth,NA,NA,NA,html-keyboard-response,142,723974,0.0-52.0-0.0,anomymised,656582f39349a91f9e20cf14,6567371ec4ea65c65161457f,36184,1,woman,NA,null,W2 is being copied by W4,copy1,sentence,NA,NA,NA,NA
10754.400000000373,NA,NA,NA,NA,survey-likert-extra-labels,143,734731,0.0-52.0-2.0,anomymised,656582f39349a91f9e20cf14,6567371ec4ea65c65161457f,36184,1,woman,NA,NA,W2 is being copied by W4,copy1,rating_volition,"{""Q0"":1}",[0],W4 wanted to copy W2,W2 wanted to copy W4
2453.9000000003725,NA,NA,NA,NA,survey-likert-extra-labels,144,737187,0.0-52.0-3.0-0.0,anomymised,656582f39349a91f9e20cf14,6567371ec4ea65c65161457f,36184,1,woman,NA,NA,W2 is being copied by W4,copy1,rating_causation,"{""Q0"":3}",[0],W4 started copying W2 first,W2 started copying W4 first
null,Beth is being shouted at by Mike,NA,NA,NA,html-keyboard-response,145,739209,0.0-53.0-0.0,anomymised,656582f39349a91f9e20cf14,6567371ec4ea65c65161457f,36184,1,woman,NA,null,W4 is being shouted at by M2,shout3,sentence,NA,NA,NA,NA
2401.0999999996275,NA,NA,NA,NA,survey-likert-extra-labels,146,741611,0.0-53.0-1.0-0.0,anomymised,656582f39349a91f9e20cf14,6567371ec4ea65c65161457f,36184,1,woman,NA,NA,W4 is being shouted at by M2,shout3,rating_causation,"{""Q0"":3}",[0],W4 shouted at M2 first,M2 shouted at W4 first
3390.5,NA,NA,NA,NA,survey-likert-extra-labels,147,745003,0.0-53.0-2.0,anomymised,656582f39349a91f9e20cf14,6567371ec4ea65c65161457f,36184,1,woman,NA,NA,W4 is being shouted at by M2,shout3,rating_volition,"{""Q0"":5}",[0],W4 wanted to shout at M2,M2 wanted to shout at W4
null,Ruth is being seduced by Fred,NA,NA,NA,html-keyboard-response,148,747022,0.0-54.0-0.0,anomymised,656582f39349a91f9e20cf14,6567371ec4ea65c65161457f,36184,1,woman,NA,null,W1 is being seduced by M3,seduce4,sentence,NA,NA,NA,NA
2443.300000000745,NA,NA,NA,NA,survey-likert-extra-labels,149,749467,0.0-54.0-1.0-0.0,anomymised,656582f39349a91f9e20cf14,6567371ec4ea65c65161457f,36184,1,woman,NA,NA,W1 is being seduced by M3,seduce4,rating_causation,"{""Q0"":3}",[0],W1 started seducing M3 first,M3 started seducing W1 first
7878,NA,NA,NA,NA,survey-likert-extra-labels,150,757347,0.0-54.0-2.0,anomymised,656582f39349a91f9e20cf14,6567371ec4ea65c65161457f,36184,1,woman,NA,NA,W1 is being seduced by M3,seduce4,rating_volition,"{""Q0"":5}",[0],W1 wanted to seducing M3,M3 wanted to seducing W1
2207.0999999996275,<p>Thank you for completing that task.</p><p>The final part of this session is a short questionnaire.</p><p>Press Continue.</p>,0,Continue,Continue,html-button-response,151,759555,0.0-55.0,anomymised,656582f39349a91f9e20cf14,6567371ec4ea65c65161457f,36184,1,woman,NA,NA,NA,NA,NA,NA,NA,NA,NA
23320,NA,NA,NA,NA,survey-text,152,783891,0.0-56.0,anomymised,656582f39349a91f9e20cf14,6567371ec4ea65c65161457f,36184,1,woman,NA,NA,NA,NA,demographics,"{""Q0"":""28"",""Q1"":""English"",""Q2"":""English"",""Q3"":""England"",""Q4"":""English"",""Q5"":""White british"",""Q6"":""Female""}",NA,NA,NA
2983.0999999996275,<p>This is the last question - thank you for taking part! Have you lived in the UK for the last 5 years or more?</p>,0,"Yes,No",Yes,html-button-response,153,786875,0.0-57.0,anomymised,656582f39349a91f9e20cf14,6567371ec4ea65c65161457f,36184,1,woman,NA,NA,NA,NA,fiveyears,NA,NA,NA,NA
