rt,stimulus,button_pressed,choices,ChosenStimulus,trial_type,trial_index,time_elapsed,internal_node_id,subject_id,study_id,session_id,subject,list,ppt_gender,url,key_press,sentence_type,verb,test_part,responses,question_order,left_part,right_part
2799.2000002861023,Welcome to the experiment. Press Continue to begin.,0,Continue,Continue,html-button-response,0,2801,0.0-0.0,anomymised,65658173009eeb17459c8404,656779918cedf82cd7a4f233,36454,2,man,NA,NA,NA,NA,NA,NA,NA,NA,NA
14863.89999961853,NA,NA,NA,NA,external-html,1,18734,0.0-1.0,anomymised,65658173009eeb17459c8404,656779918cedf82cd7a4f233,36454,2,man,consent.html,NA,NA,NA,NA,NA,NA,NA,NA
44965.59999990463,"<p>Welcome.</p><p>In this experiment we will ask you to imagine some situations.</p><p>Each trial starts with a description of an event.</p><p>Then you will see alternative descriptions of that event, and you will rate on a scale how best they match the original description.</p><p>You will give your answer by clicking a button on a rating scale.</p><p>To do this task, you will have to use your imagination to visualise these events.</p><br><p>Ready?</p>",0,Continue,Continue,html-button-response,2,63701,0.0-2.0,anomymised,65658173009eeb17459c8404,656779918cedf82cd7a4f233,36454,2,man,NA,NA,NA,NA,NA,NA,NA,NA,NA
2796,"<p>Before the experiment starts, you will watch an example trial. Press 'Continue'.</p>",0,Continue,Continue,html-button-response,3,67499,0.0-3.0,anomymised,65658173009eeb17459c8404,656779918cedf82cd7a4f233,36454,2,man,NA,NA,NA,NA,NA,NA,NA,NA,NA
null,The police officer is arresting the robber,NA,NA,NA,html-keyboard-response,4,70506,0.0-4.0,anomymised,65658173009eeb17459c8404,656779918cedf82cd7a4f233,36454,2,man,NA,null,NA,NA,NA,NA,NA,NA,NA
25693.400000095367,<img src='img/Example-trial.jpg' style='height:550px;''></img>,0,Continue,Continue,html-button-response,5,96201,0.0-5.0,anomymised,65658173009eeb17459c8404,656779918cedf82cd7a4f233,36454,2,man,NA,NA,NA,NA,NA,NA,NA,NA,NA
2409,<p>Ready to start the experiment?</p><br><p><strong>Remember to give an answer by clicking a button on the rating scale.</strong></p><p>Press 'Continue' to begin.</p>,0,Continue,Continue,html-button-response,6,99617,0.0-6.0,anomymised,65658173009eeb17459c8404,656779918cedf82cd7a4f233,36454,2,man,NA,NA,NA,NA,NA,NA,NA,NA,NA
null,Beth is being kissed by Jane,NA,NA,NA,html-keyboard-response,7,102623,0.0-7.0-0.0,anomymised,65658173009eeb17459c8404,656779918cedf82cd7a4f233,36454,2,man,NA,null,W1 is being kissed by W3,kiss1,sentence,NA,NA,NA,NA
12224.799999713898,NA,NA,NA,NA,survey-likert-extra-labels,8,114852,0.0-7.0-2.0,anomymised,65658173009eeb17459c8404,656779918cedf82cd7a4f233,36454,2,man,NA,NA,W1 is being kissed by W3,kiss1,rating_volition,"{""Q0"":1}",[0],W3 wanted to kiss W1,W1 wanted to kiss W3
10513.199999809265,NA,NA,NA,NA,survey-likert-extra-labels,9,125368,0.0-7.0-3.0-0.0,anomymised,65658173009eeb17459c8404,656779918cedf82cd7a4f233,36454,2,man,NA,NA,W1 is being kissed by W3,kiss1,rating_causation,"{""Q0"":1}",[0],W3 asked to kiss W1,W1 asked to kiss W3
null,Luke is being greeted by Beth,NA,NA,NA,html-keyboard-response,10,127374,0.0-8.0-0.0,anomymised,65658173009eeb17459c8404,656779918cedf82cd7a4f233,36454,2,man,NA,null,M3 is being greeted by W1,greet3,sentence,NA,NA,NA,NA
9008.400000095367,NA,NA,NA,NA,survey-likert-extra-labels,11,136385,0.0-8.0-1.0-0.0,anomymised,65658173009eeb17459c8404,656779918cedf82cd7a4f233,36454,2,man,NA,NA,M3 is being greeted by W1,greet3,rating_causation,"{""Q0"":6}",[0],W1 started greeting M3 first,M3 started greeting W1 first
5813.599999904633,NA,NA,NA,NA,survey-likert-extra-labels,12,142201,0.0-8.0-2.0,anomymised,65658173009eeb17459c8404,656779918cedf82cd7a4f233,36454,2,man,NA,NA,M3 is being greeted by W1,greet3,rating_volition,"{""Q0"":6}",[0],W1 wanted to greet M3,M3 wanted to greet W1
null,Mike is being touched by Dave,NA,NA,NA,html-keyboard-response,13,144205,0.0-9.0-0.0,anomymised,65658173009eeb17459c8404,656779918cedf82cd7a4f233,36454,2,man,NA,null,M4 is being touched by M2,touch2,sentence,NA,NA,NA,NA
7794.599999904633,NA,NA,NA,NA,survey-likert-extra-labels,14,152001,0.0-9.0-1.0-0.0,anomymised,65658173009eeb17459c8404,656779918cedf82cd7a4f233,36454,2,man,NA,NA,M4 is being touched by M2,touch2,rating_causation,"{""Q0"":6}",[0],M4 asked to touch M2,M2 asked to touch M4
3414.2000002861023,NA,NA,NA,NA,survey-likert-extra-labels,15,155418,0.0-9.0-2.0,anomymised,65658173009eeb17459c8404,656779918cedf82cd7a4f233,36454,2,man,NA,NA,M4 is being touched by M2,touch2,rating_volition,"{""Q0"":6}",[0],M4 wanted to touch M2,M2 wanted to touch M4
null,Beth is being looked at by Jane,NA,NA,NA,html-keyboard-response,16,157426,0.0-10.0-0.0,anomymised,65658173009eeb17459c8404,656779918cedf82cd7a4f233,36454,2,man,NA,null,W1 is being looked at by W3,look1,sentence,NA,NA,NA,NA
10590.099999904633,NA,NA,NA,NA,survey-likert-extra-labels,17,168018,0.0-10.0-1.0-0.0,anomymised,65658173009eeb17459c8404,656779918cedf82cd7a4f233,36454,2,man,NA,NA,W1 is being looked at by W3,look1,rating_causation,"{""Q0"":0}",[0],W3 looked at W1 first,W1 looked at W3 first
3446.7999997138977,NA,NA,NA,NA,survey-likert-extra-labels,18,171467,0.0-10.0-2.0,anomymised,65658173009eeb17459c8404,656779918cedf82cd7a4f233,36454,2,man,NA,NA,W1 is being looked at by W3,look1,rating_volition,"{""Q0"":0}",[0],W3 wanted to look at W1,W1 wanted to look at W3
null,Jane is being shouted at by Beth,NA,NA,NA,html-keyboard-response,19,173475,0.0-11.0-0.0,anomymised,65658173009eeb17459c8404,656779918cedf82cd7a4f233,36454,2,man,NA,null,W3 is being shouted at by W1,shout1,sentence,NA,NA,NA,NA
9024.5,NA,NA,NA,NA,survey-likert-extra-labels,20,182501,0.0-11.0-1.0-0.0,anomymised,65658173009eeb17459c8404,656779918cedf82cd7a4f233,36454,2,man,NA,NA,W3 is being shouted at by W1,shout1,rating_causation,"{""Q0"":0}",[0],W3 shouted at W1 first,W1 shouted at W3 first
4780.700000286102,NA,NA,NA,NA,survey-likert-extra-labels,21,187285,0.0-11.0-2.0,anomymised,65658173009eeb17459c8404,656779918cedf82cd7a4f233,36454,2,man,NA,NA,W3 is being shouted at by W1,shout1,rating_volition,"{""Q0"":0}",[0],W3 wanted to shout at W1,W1 wanted to shout at W3
null,Kate is carrying Ruth,NA,NA,NA,html-keyboard-response,22,189293,0.0-12.0-0.0,anomymised,65658173009eeb17459c8404,656779918cedf82cd7a4f233,36454,2,man,NA,null,W2 is carrying W4,carry,sentence,NA,NA,NA,NA
5373.10000038147,NA,NA,NA,NA,survey-likert-extra-labels,23,194667,0.0-12.0-1.0-0.0,anomymised,65658173009eeb17459c8404,656779918cedf82cd7a4f233,36454,2,man,NA,NA,W2 is carrying W4,carry,rating_causation,"{""Q0"":6}",[0],W2 is being moved by W4,W4 is being moved by W2
4381.299999713898,NA,NA,NA,NA,survey-likert-extra-labels,24,199051,0.0-12.0-2.0,anomymised,65658173009eeb17459c8404,656779918cedf82cd7a4f233,36454,2,man,NA,NA,W2 is carrying W4,carry,rating_volition,"{""Q0"":6}",[0],W2 is transporting W4,W4 is transporting W2
null,Fred is being seduced by Jane,NA,NA,NA,html-keyboard-response,25,201055,0.0-13.0-0.0,anomymised,65658173009eeb17459c8404,656779918cedf82cd7a4f233,36454,2,man,NA,null,M1 is being seduced by W3,seduce3,sentence,NA,NA,NA,NA
3494.5999999046326,NA,NA,NA,NA,survey-likert-extra-labels,26,204551,0.0-13.0-1.0-0.0,anomymised,65658173009eeb17459c8404,656779918cedf82cd7a4f233,36454,2,man,NA,NA,M1 is being seduced by W3,seduce3,rating_causation,"{""Q0"":0}",[0],M1 started seducing W3 first,W3 started seducing M1 first
2647,NA,NA,NA,NA,survey-likert-extra-labels,27,207201,0.0-13.0-2.0,anomymised,65658173009eeb17459c8404,656779918cedf82cd7a4f233,36454,2,man,NA,NA,M1 is being seduced by W3,seduce3,rating_volition,"{""Q0"":0}",[0],M1 wanted to seduce W3,W3 wanted to seduce M1
null,Beth is chasing Jane,NA,NA,NA,html-keyboard-response,28,209208,0.0-14.0-0.0,anomymised,65658173009eeb17459c8404,656779918cedf82cd7a4f233,36454,2,man,NA,null,W1 is chasing W3,chase,sentence,NA,NA,NA,NA
5757.800000190735,NA,NA,NA,NA,survey-likert-extra-labels,29,214968,0.0-14.0-2.0,anomymised,65658173009eeb17459c8404,656779918cedf82cd7a4f233,36454,2,man,NA,NA,W1 is chasing W3,chase,rating_volition,"{""Q0"":0}",[0],W1 is behind W3,W3 is behind W1
5197,NA,NA,NA,NA,survey-likert-extra-labels,30,220168,0.0-14.0-3.0-0.0,anomymised,65658173009eeb17459c8404,656779918cedf82cd7a4f233,36454,2,man,NA,NA,W1 is chasing W3,chase,rating_causation,"{""Q0"":6}",[0],W1 is running away from W3,W3 is running away from W1
null,Kate is being kissed by Mike,NA,NA,NA,html-keyboard-response,31,222175,0.0-15.0-0.0,anomymised,65658173009eeb17459c8404,656779918cedf82cd7a4f233,36454,2,man,NA,null,W2 is being kissed by M4,kiss4,sentence,NA,NA,NA,NA
6257.700000286102,NA,NA,NA,NA,survey-likert-extra-labels,32,228435,0.0-15.0-1.0-0.0,anomymised,65658173009eeb17459c8404,656779918cedf82cd7a4f233,36454,2,man,NA,NA,W2 is being kissed by M4,kiss4,rating_causation,"{""Q0"":0}",[0],M4 asked to kiss W2,W2 asked to kiss M4
6979.400000095367,NA,NA,NA,NA,survey-likert-extra-labels,33,235417,0.0-15.0-2.0,anomymised,65658173009eeb17459c8404,656779918cedf82cd7a4f233,36454,2,man,NA,NA,W2 is being kissed by M4,kiss4,rating_volition,"{""Q0"":1}",[0],M4 wanted to kiss W2,W2 wanted to kiss M4
null,Ruth is being challenged by Kate,NA,NA,NA,html-keyboard-response,34,237420,0.0-16.0-0.0,anomymised,65658173009eeb17459c8404,656779918cedf82cd7a4f233,36454,2,man,NA,null,W4 is being challenged by W2,challenge1,sentence,NA,NA,NA,NA
10696.199999809265,NA,NA,NA,NA,survey-likert-extra-labels,35,248118,0.0-16.0-2.0,anomymised,65658173009eeb17459c8404,656779918cedf82cd7a4f233,36454,2,man,NA,NA,W4 is being challenged by W2,challenge1,rating_volition,"{""Q0"":6}",[0],W4 wanted to challenge W2,W2 wanted to challenge W4
3346,NA,NA,NA,NA,survey-likert-extra-labels,36,251466,0.0-16.0-3.0-0.0,anomymised,65658173009eeb17459c8404,656779918cedf82cd7a4f233,36454,2,man,NA,NA,W4 is being challenged by W2,challenge1,rating_causation,"{""Q0"":6}",[0],W4 started challenging W2 first,W2 started challenging W4 first
null,Dave is reminding Ruth,NA,NA,NA,html-keyboard-response,37,253470,0.0-17.0-0.0,anomymised,65658173009eeb17459c8404,656779918cedf82cd7a4f233,36454,2,man,NA,null,M2 is reminding W4,remind,sentence,NA,NA,NA,NA
5979.900000095367,NA,NA,NA,NA,survey-likert-extra-labels,38,259452,0.0-17.0-1.0-0.0,anomymised,65658173009eeb17459c8404,656779918cedf82cd7a4f233,36454,2,man,NA,NA,M2 is reminding W4,remind,rating_causation,"{""Q0"":6}",[0],M2 is remembering,W4 is remembering
3513.800000190735,NA,NA,NA,NA,survey-likert-extra-labels,39,262968,0.0-17.0-2.0,anomymised,65658173009eeb17459c8404,656779918cedf82cd7a4f233,36454,2,man,NA,NA,M2 is reminding W4,remind,rating_volition,"{""Q0"":0}",[0],M2 is telling W4 again,W4 is telling M2 again
null,Fred is being kissed by Luke,NA,NA,NA,html-keyboard-response,40,264976,0.0-18.0-0.0,anomymised,65658173009eeb17459c8404,656779918cedf82cd7a4f233,36454,2,man,NA,null,M1 is being kissed by M3,kiss2,sentence,NA,NA,NA,NA
10588.599999904633,NA,NA,NA,NA,survey-likert-extra-labels,41,275566,0.0-18.0-1.0-0.0,anomymised,65658173009eeb17459c8404,656779918cedf82cd7a4f233,36454,2,man,NA,NA,M1 is being kissed by M3,kiss2,rating_causation,"{""Q0"":0}",[0],M3 asked to kiss M1,M1 asked to kiss M3
2549.5,NA,NA,NA,NA,survey-likert-extra-labels,42,278118,0.0-18.0-2.0,anomymised,65658173009eeb17459c8404,656779918cedf82cd7a4f233,36454,2,man,NA,NA,M1 is being kissed by M3,kiss2,rating_volition,"{""Q0"":0}",[0],M3 wanted to kiss M1,M1 wanted to kiss M3
null,Mike is being opposed by Kate,NA,NA,NA,html-keyboard-response,43,280120,0.0-19.0-0.0,anomymised,65658173009eeb17459c8404,656779918cedf82cd7a4f233,36454,2,man,NA,null,M4 is being opposed by W2,oppose3,sentence,NA,NA,NA,NA
5397.299999713898,NA,NA,NA,NA,survey-likert-extra-labels,44,285519,0.0-19.0-1.0-0.0,anomymised,65658173009eeb17459c8404,656779918cedf82cd7a4f233,36454,2,man,NA,NA,M4 is being opposed by W2,oppose3,rating_causation,"{""Q0"":0}",[0],M4 started opposing W2,W2 started opposing M4
2513.699999809265,NA,NA,NA,NA,survey-likert-extra-labels,45,288035,0.0-19.0-2.0,anomymised,65658173009eeb17459c8404,656779918cedf82cd7a4f233,36454,2,man,NA,NA,M4 is being opposed by W2,oppose3,rating_volition,"{""Q0"":0}",[0],M4 wanted to oppose W2,W2 wanted to oppose M4
null,Jane is being copied by Fred,NA,NA,NA,html-keyboard-response,46,290039,0.0-20.0-0.0,anomymised,65658173009eeb17459c8404,656779918cedf82cd7a4f233,36454,2,man,NA,null,W3 is being copied by M1,copy3,sentence,NA,NA,NA,NA
3594.7000002861023,NA,NA,NA,NA,survey-likert-extra-labels,47,293636,0.0-20.0-2.0,anomymised,65658173009eeb17459c8404,656779918cedf82cd7a4f233,36454,2,man,NA,NA,W3 is being copied by M1,copy3,rating_volition,"{""Q0"":0}",[0],M1 wanted to copy W3,W3 wanted to copy M1
2846.800000190735,NA,NA,NA,NA,survey-likert-extra-labels,48,296485,0.0-20.0-3.0-0.0,anomymised,65658173009eeb17459c8404,656779918cedf82cd7a4f233,36454,2,man,NA,NA,W3 is being copied by M1,copy3,rating_causation,"{""Q0"":0}",[0],M1 started copying W3 first,W3 started copying M1 first
null,Mike is being challenged by Dave,NA,NA,NA,html-keyboard-response,49,298492,0.0-21.0-0.0,anomymised,65658173009eeb17459c8404,656779918cedf82cd7a4f233,36454,2,man,NA,null,M4 is being challenged by M2,challenge2,sentence,NA,NA,NA,NA
3991.4000000953674,NA,NA,NA,NA,survey-likert-extra-labels,50,302485,0.0-21.0-1.0-0.0,anomymised,65658173009eeb17459c8404,656779918cedf82cd7a4f233,36454,2,man,NA,NA,M4 is being challenged by M2,challenge2,rating_causation,"{""Q0"":6}",[0],M4 started challenging M2 first,M2 started challenging M4 first
18380.60000038147,NA,NA,NA,NA,survey-likert-extra-labels,51,320869,0.0-21.0-2.0,anomymised,65658173009eeb17459c8404,656779918cedf82cd7a4f233,36454,2,man,NA,NA,M4 is being challenged by M2,challenge2,rating_volition,"{""Q0"":6}",[0],M4 wanted to challenge M2,M2 wanted to challenge M4
null,Dave is being copied by Mike,NA,NA,NA,html-keyboard-response,52,322872,0.0-22.0-0.0,anomymised,65658173009eeb17459c8404,656779918cedf82cd7a4f233,36454,2,man,NA,null,M2 is being copied by M4,copy2,sentence,NA,NA,NA,NA
3329.2000002861023,NA,NA,NA,NA,survey-likert-extra-labels,53,326203,0.0-22.0-2.0,anomymised,65658173009eeb17459c8404,656779918cedf82cd7a4f233,36454,2,man,NA,NA,M2 is being copied by M4,copy2,rating_volition,"{""Q0"":0}",[0],M4 wanted to copy M2,M2 wanted to copy M4
5963.900000095367,NA,NA,NA,NA,survey-likert-extra-labels,54,332169,0.0-22.0-3.0-0.0,anomymised,65658173009eeb17459c8404,656779918cedf82cd7a4f233,36454,2,man,NA,NA,M2 is being copied by M4,copy2,rating_causation,"{""Q0"":0}",[0],M4 started copying M2 first,M2 started copying M4 first
null,Fred is driving Luke,NA,NA,NA,html-keyboard-response,55,334177,0.0-23.0-0.0,anomymised,65658173009eeb17459c8404,656779918cedf82cd7a4f233,36454,2,man,NA,null,M1 is driving M3,drive,sentence,NA,NA,NA,NA
7622.900000095367,NA,NA,NA,NA,survey-likert-extra-labels,56,341801,0.0-23.0-2.0,anomymised,65658173009eeb17459c8404,656779918cedf82cd7a4f233,36454,2,man,NA,NA,M1 is driving M3,drive,rating_volition,"{""Q0"":6}",[0],M1 is M3's passenger,M3 is M1's passenger
4014.7000002861023,NA,NA,NA,NA,survey-likert-extra-labels,57,345819,0.0-23.0-3.0-0.0,anomymised,65658173009eeb17459c8404,656779918cedf82cd7a4f233,36454,2,man,NA,NA,M1 is driving M3,drive,rating_causation,"{""Q0"":6}",[0],M1 is taking M3 somewhere,M3 is taking M1 somewhere
null,Jane is being greeted by Fred,NA,NA,NA,html-keyboard-response,58,347822,0.0-24.0-0.0,anomymised,65658173009eeb17459c8404,656779918cedf82cd7a4f233,36454,2,man,NA,null,W3 is being greeted by M1,greet4,sentence,NA,NA,NA,NA
8462.300000190735,NA,NA,NA,NA,survey-likert-extra-labels,59,356286,0.0-24.0-1.0-0.0,anomymised,65658173009eeb17459c8404,656779918cedf82cd7a4f233,36454,2,man,NA,NA,W3 is being greeted by M1,greet4,rating_causation,"{""Q0"":0}",[0],M1 started greeting W3 first,W3 started greeting M1 first
3813.7000002861023,NA,NA,NA,NA,survey-likert-extra-labels,60,360102,0.0-24.0-2.0,anomymised,65658173009eeb17459c8404,656779918cedf82cd7a4f233,36454,2,man,NA,NA,W3 is being greeted by M1,greet4,rating_volition,"{""Q0"":0}",[0],M1 wanted to greet W3,W3 wanted to greet M1
null,Ruth is being opposed by Dave,NA,NA,NA,html-keyboard-response,61,362104,0.0-25.0-0.0,anomymised,65658173009eeb17459c8404,656779918cedf82cd7a4f233,36454,2,man,NA,null,W4 is being opposed by M2,oppose4,sentence,NA,NA,NA,NA
3996.2000002861023,NA,NA,NA,NA,survey-likert-extra-labels,62,366102,0.0-25.0-2.0,anomymised,65658173009eeb17459c8404,656779918cedf82cd7a4f233,36454,2,man,NA,NA,W4 is being opposed by M2,oppose4,rating_volition,"{""Q0"":0}",[0],W4 wanted to oppose M2,M2 wanted to oppose W4
5878.89999961853,NA,NA,NA,NA,survey-likert-extra-labels,63,371984,0.0-25.0-3.0-0.0,anomymised,65658173009eeb17459c8404,656779918cedf82cd7a4f233,36454,2,man,NA,NA,W4 is being opposed by M2,oppose4,rating_causation,"{""Q0"":6}",[0],W4 started opposing M2,M2 started opposing W4
null,Luke is hiring Beth,NA,NA,NA,html-keyboard-response,64,373988,0.0-26.0-0.0,anomymised,65658173009eeb17459c8404,656779918cedf82cd7a4f233,36454,2,man,NA,null,M3 is hiring W1,hire,sentence,NA,NA,NA,NA
4495.400000095367,NA,NA,NA,NA,survey-likert-extra-labels,65,378486,0.0-26.0-2.0,anomymised,65658173009eeb17459c8404,656779918cedf82cd7a4f233,36454,2,man,NA,NA,M3 is hiring W1,hire,rating_volition,"{""Q0"":0}",[0],M3 is employing W1,W1 is employing M3
4047.0999999046326,NA,NA,NA,NA,survey-likert-extra-labels,66,382535,0.0-26.0-3.0-0.0,anomymised,65658173009eeb17459c8404,656779918cedf82cd7a4f233,36454,2,man,NA,NA,M3 is hiring W1,hire,rating_causation,"{""Q0"":6}",[0],M3 will work for W1,W1 will work for M3
null,Dave is being looked at by Ruth,NA,NA,NA,html-keyboard-response,67,384543,0.0-27.0-0.0,anomymised,65658173009eeb17459c8404,656779918cedf82cd7a4f233,36454,2,man,NA,null,M2 is being looked at by W4,look4,sentence,NA,NA,NA,NA
18657.299999713898,NA,NA,NA,NA,survey-likert-extra-labels,68,403202,0.0-27.0-2.0,anomymised,65658173009eeb17459c8404,656779918cedf82cd7a4f233,36454,2,man,NA,NA,M2 is being looked at by W4,look4,rating_volition,"{""Q0"":0}",[0],W4 wanted to look at M2,M2 wanted to look at W4
18947.800000190735,NA,NA,NA,NA,survey-likert-extra-labels,69,422152,0.0-27.0-3.0-0.0,anomymised,65658173009eeb17459c8404,656779918cedf82cd7a4f233,36454,2,man,NA,NA,M2 is being looked at by W4,look4,rating_causation,"{""Q0"":0}",[0],W4 looked at M2 first,M2 looked at W4 first
null,Mike is being shouted at by Kate,NA,NA,NA,html-keyboard-response,70,424159,0.0-28.0-0.0,anomymised,65658173009eeb17459c8404,656779918cedf82cd7a4f233,36454,2,man,NA,null,M4 is being shouted at by W2,shout4,sentence,NA,NA,NA,NA
4325.10000038147,NA,NA,NA,NA,survey-likert-extra-labels,71,428486,0.0-28.0-2.0,anomymised,65658173009eeb17459c8404,656779918cedf82cd7a4f233,36454,2,man,NA,NA,M4 is being shouted at by W2,shout4,rating_volition,"{""Q0"":6}",[0],M4 wanted to shout at W2,W2 wanted to shout at M4
4030.699999809265,NA,NA,NA,NA,survey-likert-extra-labels,72,432519,0.0-28.0-3.0-0.0,anomymised,65658173009eeb17459c8404,656779918cedf82cd7a4f233,36454,2,man,NA,NA,M4 is being shouted at by W2,shout4,rating_causation,"{""Q0"":6}",[0],M4 shouted at W2 first,W2 shouted at M4 first
null,Jane is feeding Fred,NA,NA,NA,html-keyboard-response,73,434526,0.0-29.0-0.0,anomymised,65658173009eeb17459c8404,656779918cedf82cd7a4f233,36454,2,man,NA,null,W3 is feeding M1,feed,sentence,NA,NA,NA,NA
7724.39999961853,NA,NA,NA,NA,survey-likert-extra-labels,74,442253,0.0-29.0-1.0-0.0,anomymised,65658173009eeb17459c8404,656779918cedf82cd7a4f233,36454,2,man,NA,NA,W3 is feeding M1,feed,rating_causation,"{""Q0"":6}",[0],W3 is eating M1's food,M1 is eating W3's food
5414.199999809265,NA,NA,NA,NA,survey-likert-extra-labels,75,447669,0.0-29.0-2.0,anomymised,65658173009eeb17459c8404,656779918cedf82cd7a4f233,36454,2,man,NA,NA,W3 is feeding M1,feed,rating_volition,"{""Q0"":0}",[0],W3 cooked for M1,M1 cooked for W3
null,Luke is being opposed by Fred,NA,NA,NA,html-keyboard-response,76,449677,0.0-30.0-0.0,anomymised,65658173009eeb17459c8404,656779918cedf82cd7a4f233,36454,2,man,NA,null,M3 is being opposed by M1,oppose2,sentence,NA,NA,NA,NA
4490.400000095367,NA,NA,NA,NA,survey-likert-extra-labels,77,454169,0.0-30.0-1.0-0.0,anomymised,65658173009eeb17459c8404,656779918cedf82cd7a4f233,36454,2,man,NA,NA,M3 is being opposed by M1,oppose2,rating_causation,"{""Q0"":6}",[0],M3 started opposing M1,M1 started opposing M3
3530.199999809265,NA,NA,NA,NA,survey-likert-extra-labels,78,457702,0.0-30.0-2.0,anomymised,65658173009eeb17459c8404,656779918cedf82cd7a4f233,36454,2,man,NA,NA,M3 is being opposed by M1,oppose2,rating_volition,"{""Q0"":6}",[0],M3 wanted to oppose M1,M1 wanted to oppose M3
null,Kate is teaching Mike,NA,NA,NA,html-keyboard-response,79,459710,0.0-31.0-0.0,anomymised,65658173009eeb17459c8404,656779918cedf82cd7a4f233,36454,2,man,NA,null,W2 is teaching M4,teach,sentence,NA,NA,NA,NA
4356.900000095367,NA,NA,NA,NA,survey-likert-extra-labels,80,464069,0.0-31.0-1.0-0.0,anomymised,65658173009eeb17459c8404,656779918cedf82cd7a4f233,36454,2,man,NA,NA,W2 is teaching M4,teach,rating_causation,"{""Q0"":6}",[0],W2 is learning from M4,M4 is learning from W2
3080.2000002861023,NA,NA,NA,NA,survey-likert-extra-labels,81,467153,0.0-31.0-2.0,anomymised,65658173009eeb17459c8404,656779918cedf82cd7a4f233,36454,2,man,NA,NA,W2 is teaching M4,teach,rating_volition,"{""Q0"":0}",[0],W2 is educating M4,M4 is educating W2
null,Ruth is being shouted at by Dave,NA,NA,NA,html-keyboard-response,82,469160,0.0-32.0-0.0,anomymised,65658173009eeb17459c8404,656779918cedf82cd7a4f233,36454,2,man,NA,null,W4 is being shouted at by M2,shout3,sentence,NA,NA,NA,NA
4958.199999809265,NA,NA,NA,NA,survey-likert-extra-labels,83,474120,0.0-32.0-1.0-0.0,anomymised,65658173009eeb17459c8404,656779918cedf82cd7a4f233,36454,2,man,NA,NA,W4 is being shouted at by M2,shout3,rating_causation,"{""Q0"":6}",[0],W4 shouted at M2 first,M2 shouted at W4 first
4847,NA,NA,NA,NA,survey-likert-extra-labels,84,478970,0.0-32.0-2.0,anomymised,65658173009eeb17459c8404,656779918cedf82cd7a4f233,36454,2,man,NA,NA,W4 is being shouted at by M2,shout3,rating_volition,"{""Q0"":6}",[0],W4 wanted to shout at M2,M2 wanted to shout at W4
null,Beth is being touched by Luke,NA,NA,NA,html-keyboard-response,85,480977,0.0-33.0-0.0,anomymised,65658173009eeb17459c8404,656779918cedf82cd7a4f233,36454,2,man,NA,null,W1 is being touched by M3,touch4,sentence,NA,NA,NA,NA
4140.299999713898,NA,NA,NA,NA,survey-likert-extra-labels,86,485119,0.0-33.0-1.0-0.0,anomymised,65658173009eeb17459c8404,656779918cedf82cd7a4f233,36454,2,man,NA,NA,W1 is being touched by M3,touch4,rating_causation,"{""Q0"":0}",[0],W1 asked to touch M3,M3 asked to touch W1
3097.5,NA,NA,NA,NA,survey-likert-extra-labels,87,488220,0.0-33.0-2.0,anomymised,65658173009eeb17459c8404,656779918cedf82cd7a4f233,36454,2,man,NA,NA,W1 is being touched by M3,touch4,rating_volition,"{""Q0"":0}",[0],W1 wanted to touch M3,M3 wanted to touch W1
null,Mike is being hugged by Kate,NA,NA,NA,html-keyboard-response,88,490225,0.0-34.0-0.0,anomymised,65658173009eeb17459c8404,656779918cedf82cd7a4f233,36454,2,man,NA,null,M4 is being hugged by W2,hug3,sentence,NA,NA,NA,NA
4408.699999809265,NA,NA,NA,NA,survey-likert-extra-labels,89,494636,0.0-34.0-1.0-0.0,anomymised,65658173009eeb17459c8404,656779918cedf82cd7a4f233,36454,2,man,NA,NA,M4 is being hugged by W2,hug3,rating_causation,"{""Q0"":6}",[0],M4 asked to hug W2,W2 asked to hug M4
3897.699999809265,NA,NA,NA,NA,survey-likert-extra-labels,90,498536,0.0-34.0-2.0,anomymised,65658173009eeb17459c8404,656779918cedf82cd7a4f233,36454,2,man,NA,NA,M4 is being hugged by W2,hug3,rating_volition,"{""Q0"":6}",[0],M4 wanted to hug W2,W2 wanted to hug M4
null,Jane is being hugged by Beth,NA,NA,NA,html-keyboard-response,91,500544,0.0-35.0-0.0,anomymised,65658173009eeb17459c8404,656779918cedf82cd7a4f233,36454,2,man,NA,null,W3 is being hugged by W1,hug1,sentence,NA,NA,NA,NA
2890.4000000953674,NA,NA,NA,NA,survey-likert-extra-labels,92,503436,0.0-35.0-1.0-0.0,anomymised,65658173009eeb17459c8404,656779918cedf82cd7a4f233,36454,2,man,NA,NA,W3 is being hugged by W1,hug1,rating_causation,"{""Q0"":6}",[0],W3 asked to hug W1,W1 asked to hug W3
3630.9000000953674,NA,NA,NA,NA,survey-likert-extra-labels,93,507069,0.0-35.0-2.0,anomymised,65658173009eeb17459c8404,656779918cedf82cd7a4f233,36454,2,man,NA,NA,W3 is being hugged by W1,hug1,rating_volition,"{""Q0"":6}",[0],W3 wanted to hug W1,W1 wanted to hug W3
null,Luke is being shouted at by Fred,NA,NA,NA,html-keyboard-response,94,509076,0.0-36.0-0.0,anomymised,65658173009eeb17459c8404,656779918cedf82cd7a4f233,36454,2,man,NA,null,M3 is being shouted at by M1,shout2,sentence,NA,NA,NA,NA
3258.199999809265,NA,NA,NA,NA,survey-likert-extra-labels,95,512337,0.0-36.0-1.0-0.0,anomymised,65658173009eeb17459c8404,656779918cedf82cd7a4f233,36454,2,man,NA,NA,M3 is being shouted at by M1,shout2,rating_causation,"{""Q0"":6}",[0],M3 shouted at M1 first,M1 shouted at M3 first
2380,NA,NA,NA,NA,survey-likert-extra-labels,96,514719,0.0-36.0-2.0,anomymised,65658173009eeb17459c8404,656779918cedf82cd7a4f233,36454,2,man,NA,NA,M3 is being shouted at by M1,shout2,rating_volition,"{""Q0"":6}",[0],M3 wanted to shout at M1,M1 wanted to shout at M3
null,Ruth is being seduced by Kate,NA,NA,NA,html-keyboard-response,97,516725,0.0-37.0-0.0,anomymised,65658173009eeb17459c8404,656779918cedf82cd7a4f233,36454,2,man,NA,null,W4 is being seduced by W2,seduce1,sentence,NA,NA,NA,NA
5059.39999961853,NA,NA,NA,NA,survey-likert-extra-labels,98,521786,0.0-37.0-1.0-0.0,anomymised,65658173009eeb17459c8404,656779918cedf82cd7a4f233,36454,2,man,NA,NA,W4 is being seduced by W2,seduce1,rating_causation,"{""Q0"":6}",[0],W4 started seducing W2 first,W2 started seducing W4 first
4963.39999961853,NA,NA,NA,NA,survey-likert-extra-labels,99,526753,0.0-37.0-2.0,anomymised,65658173009eeb17459c8404,656779918cedf82cd7a4f233,36454,2,man,NA,NA,W4 is being seduced by W2,seduce1,rating_volition,"{""Q0"":0}",[0],W4 wanted to seduce W2,W2 wanted to seduce W4
null,Kate is being greeted by Ruth,NA,NA,NA,html-keyboard-response,100,528760,0.0-38.0-0.0,anomymised,65658173009eeb17459c8404,656779918cedf82cd7a4f233,36454,2,man,NA,null,W2 is being greeted by W4,greet1,sentence,NA,NA,NA,NA
5440.699999809265,NA,NA,NA,NA,survey-likert-extra-labels,101,534203,0.0-38.0-1.0-0.0,anomymised,65658173009eeb17459c8404,656779918cedf82cd7a4f233,36454,2,man,NA,NA,W2 is being greeted by W4,greet1,rating_causation,"{""Q0"":0}",[0],W4 started greeting W2 first,W2 started greeting W4 first
6480.89999961853,NA,NA,NA,NA,survey-likert-extra-labels,102,540686,0.0-38.0-2.0,anomymised,65658173009eeb17459c8404,656779918cedf82cd7a4f233,36454,2,man,NA,NA,W2 is being greeted by W4,greet1,rating_volition,"{""Q0"":0}",[0],W4 wanted to greet W2,W2 wanted to greet W4
null,Kate is being looked at by Mike,NA,NA,NA,html-keyboard-response,103,542692,0.0-39.0-0.0,anomymised,65658173009eeb17459c8404,656779918cedf82cd7a4f233,36454,2,man,NA,null,W2 is being looked at by M4,look3,sentence,NA,NA,NA,NA
3225.5999999046326,NA,NA,NA,NA,survey-likert-extra-labels,104,545919,0.0-39.0-2.0,anomymised,65658173009eeb17459c8404,656779918cedf82cd7a4f233,36454,2,man,NA,NA,W2 is being looked at by M4,look3,rating_volition,"{""Q0"":0}",[0],M4 wanted to look at W2,W2 wanted to look at M4
4282.199999809265,NA,NA,NA,NA,survey-likert-extra-labels,105,550203,0.0-39.0-3.0-0.0,anomymised,65658173009eeb17459c8404,656779918cedf82cd7a4f233,36454,2,man,NA,NA,W2 is being looked at by M4,look3,rating_causation,"{""Q0"":0}",[0],M4 looked at W2 first,W2 looked at M4 first
null,Ruth is being hugged by Dave,NA,NA,NA,html-keyboard-response,106,552212,0.0-40.0-0.0,anomymised,65658173009eeb17459c8404,656779918cedf82cd7a4f233,36454,2,man,NA,null,W4 is being hugged by M2,hug4,sentence,NA,NA,NA,NA
5222.199999809265,NA,NA,NA,NA,survey-likert-extra-labels,107,557436,0.0-40.0-1.0-0.0,anomymised,65658173009eeb17459c8404,656779918cedf82cd7a4f233,36454,2,man,NA,NA,W4 is being hugged by M2,hug4,rating_causation,"{""Q0"":6}",[0],W4 asked to hug M2,M2 asked to hug W4
9264.300000190735,NA,NA,NA,NA,survey-likert-extra-labels,108,566703,0.0-40.0-2.0,anomymised,65658173009eeb17459c8404,656779918cedf82cd7a4f233,36454,2,man,NA,NA,W4 is being hugged by M2,hug4,rating_volition,"{""Q0"":3}",[0],W4 wanted to hug M2,M2 wanted to hug W4
null,Dave is being greeted by Mike,NA,NA,NA,html-keyboard-response,109,568705,0.0-41.0-0.0,anomymised,65658173009eeb17459c8404,656779918cedf82cd7a4f233,36454,2,man,NA,null,M2 is being greeted by M4,greet2,sentence,NA,NA,NA,NA
5762.699999809265,NA,NA,NA,NA,survey-likert-extra-labels,110,574470,0.0-41.0-2.0,anomymised,65658173009eeb17459c8404,656779918cedf82cd7a4f233,36454,2,man,NA,NA,M2 is being greeted by M4,greet2,rating_volition,"{""Q0"":0}",[0],M4 wanted to greet M2,M2 wanted to greet M4
3748.0999999046326,NA,NA,NA,NA,survey-likert-extra-labels,111,578221,0.0-41.0-3.0-0.0,anomymised,65658173009eeb17459c8404,656779918cedf82cd7a4f233,36454,2,man,NA,NA,M2 is being greeted by M4,greet2,rating_causation,"{""Q0"":6}",[0],M4 started greeting M2 first,M2 started greeting M4 first
null,Ruth is being touched by Kate,NA,NA,NA,html-keyboard-response,112,580228,0.0-42.0-0.0,anomymised,65658173009eeb17459c8404,656779918cedf82cd7a4f233,36454,2,man,NA,null,W4 is being touched by W2,touch1,sentence,NA,NA,NA,NA
5823.199999809265,NA,NA,NA,NA,survey-likert-extra-labels,113,586054,0.0-42.0-2.0,anomymised,65658173009eeb17459c8404,656779918cedf82cd7a4f233,36454,2,man,NA,NA,W4 is being touched by W2,touch1,rating_volition,"{""Q0"":6}",[0],W4 wanted to touch W2,W2 wanted to touch W4
4463.099999904633,NA,NA,NA,NA,survey-likert-extra-labels,114,590520,0.0-42.0-3.0-0.0,anomymised,65658173009eeb17459c8404,656779918cedf82cd7a4f233,36454,2,man,NA,NA,W4 is being touched by W2,touch1,rating_causation,"{""Q0"":6}",[0],W4 asked to touch W2,W2 asked to touch W4
null,Fred is being touched by Jane,NA,NA,NA,html-keyboard-response,115,592524,0.0-43.0-0.0,anomymised,65658173009eeb17459c8404,656779918cedf82cd7a4f233,36454,2,man,NA,null,M1 is being touched by W3,touch3,sentence,NA,NA,NA,NA
6628,NA,NA,NA,NA,survey-likert-extra-labels,116,599154,0.0-43.0-1.0-0.0,anomymised,65658173009eeb17459c8404,656779918cedf82cd7a4f233,36454,2,man,NA,NA,M1 is being touched by W3,touch3,rating_causation,"{""Q0"":6}",[0],M1 asked to touch W3,W3 asked to touch M1
3780.0999999046326,NA,NA,NA,NA,survey-likert-extra-labels,117,602937,0.0-43.0-2.0,anomymised,65658173009eeb17459c8404,656779918cedf82cd7a4f233,36454,2,man,NA,NA,M1 is being touched by W3,touch3,rating_volition,"{""Q0"":6}",[0],M1 wanted to touch W3,W3 wanted to touch M1
null,Luke is being hugged by Fred,NA,NA,NA,html-keyboard-response,118,604944,0.0-44.0-0.0,anomymised,65658173009eeb17459c8404,656779918cedf82cd7a4f233,36454,2,man,NA,null,M3 is being hugged by M1,hug2,sentence,NA,NA,NA,NA
7457,NA,NA,NA,NA,survey-likert-extra-labels,119,612403,0.0-44.0-2.0,anomymised,65658173009eeb17459c8404,656779918cedf82cd7a4f233,36454,2,man,NA,NA,M3 is being hugged by M1,hug2,rating_volition,"{""Q0"":6}",[0],M3 wanted to hug M1,M1 wanted to hug M3
3131.2000002861023,NA,NA,NA,NA,survey-likert-extra-labels,120,615537,0.0-44.0-3.0-0.0,anomymised,65658173009eeb17459c8404,656779918cedf82cd7a4f233,36454,2,man,NA,NA,M3 is being hugged by M1,hug2,rating_causation,"{""Q0"":6}",[0],M3 asked to hug M1,M1 asked to hug M3
null,Beth is being challenged by Luke,NA,NA,NA,html-keyboard-response,121,617544,0.0-45.0-0.0,anomymised,65658173009eeb17459c8404,656779918cedf82cd7a4f233,36454,2,man,NA,null,W1 is being challenged by M3,challenge3,sentence,NA,NA,NA,NA
3074.199999809265,NA,NA,NA,NA,survey-likert-extra-labels,122,620620,0.0-45.0-2.0,anomymised,65658173009eeb17459c8404,656779918cedf82cd7a4f233,36454,2,man,NA,NA,W1 is being challenged by M3,challenge3,rating_volition,"{""Q0"":6}",[0],W1 wanted to challenge M3,M3 wanted to challenge W1
2113.699999809265,NA,NA,NA,NA,survey-likert-extra-labels,123,622736,0.0-45.0-3.0-0.0,anomymised,65658173009eeb17459c8404,656779918cedf82cd7a4f233,36454,2,man,NA,NA,W1 is being challenged by M3,challenge3,rating_causation,"{""Q0"":6}",[0],W1 started challenging M3 first,M3 started challenging W1 first
null,Fred is being challenged by Jane,NA,NA,NA,html-keyboard-response,124,624743,0.0-46.0-0.0,anomymised,65658173009eeb17459c8404,656779918cedf82cd7a4f233,36454,2,man,NA,null,M1 is being challenged by W3,challenge4,sentence,NA,NA,NA,NA
5025.700000286102,NA,NA,NA,NA,survey-likert-extra-labels,125,629770,0.0-46.0-1.0-0.0,anomymised,65658173009eeb17459c8404,656779918cedf82cd7a4f233,36454,2,man,NA,NA,M1 is being challenged by W3,challenge4,rating_causation,"{""Q0"":6}",[0],M1 started challenging W3 first,W3 started challenging M1 first
2714,NA,NA,NA,NA,survey-likert-extra-labels,126,632487,0.0-46.0-2.0,anomymised,65658173009eeb17459c8404,656779918cedf82cd7a4f233,36454,2,man,NA,NA,M1 is being challenged by W3,challenge4,rating_volition,"{""Q0"":6}",[0],M1 wanted to challenge W3,W3 wanted to challenge M1
null,Kate is being copied by Ruth,NA,NA,NA,html-keyboard-response,127,634495,0.0-47.0-0.0,anomymised,65658173009eeb17459c8404,656779918cedf82cd7a4f233,36454,2,man,NA,null,W2 is being copied by W4,copy1,sentence,NA,NA,NA,NA
4640.199999809265,NA,NA,NA,NA,survey-likert-extra-labels,128,639137,0.0-47.0-2.0,anomymised,65658173009eeb17459c8404,656779918cedf82cd7a4f233,36454,2,man,NA,NA,W2 is being copied by W4,copy1,rating_volition,"{""Q0"":0}",[0],W4 wanted to copy W2,W2 wanted to copy W4
3347.0999999046326,NA,NA,NA,NA,survey-likert-extra-labels,129,642486,0.0-47.0-3.0-0.0,anomymised,65658173009eeb17459c8404,656779918cedf82cd7a4f233,36454,2,man,NA,NA,W2 is being copied by W4,copy1,rating_causation,"{""Q0"":0}",[0],W4 started copying W2 first,W2 started copying W4 first
null,Mike is being seduced by Dave,NA,NA,NA,html-keyboard-response,130,644494,0.0-48.0-0.0,anomymised,65658173009eeb17459c8404,656779918cedf82cd7a4f233,36454,2,man,NA,null,M4 is being seduced by M2,seduce2,sentence,NA,NA,NA,NA
3706.300000190735,NA,NA,NA,NA,survey-likert-extra-labels,131,648202,0.0-48.0-2.0,anomymised,65658173009eeb17459c8404,656779918cedf82cd7a4f233,36454,2,man,NA,NA,M4 is being seduced by M2,seduce2,rating_volition,"{""Q0"":6}",[0],M4 wanted to seduce M2,M2 wanted to seduce M4
4982.800000190735,NA,NA,NA,NA,survey-likert-extra-labels,132,653187,0.0-48.0-3.0-0.0,anomymised,65658173009eeb17459c8404,656779918cedf82cd7a4f233,36454,2,man,NA,NA,M4 is being seduced by M2,seduce2,rating_causation,"{""Q0"":6}",[0],M4 started seducing M2 first,M2 started seducing M4 first
null,Jane is being opposed by Beth,NA,NA,NA,html-keyboard-response,133,655195,0.0-49.0-0.0,anomymised,65658173009eeb17459c8404,656779918cedf82cd7a4f233,36454,2,man,NA,null,W3 is being opposed by W1,oppose1,sentence,NA,NA,NA,NA
4507.60000038147,NA,NA,NA,NA,survey-likert-extra-labels,134,659704,0.0-49.0-1.0-0.0,anomymised,65658173009eeb17459c8404,656779918cedf82cd7a4f233,36454,2,man,NA,NA,W3 is being opposed by W1,oppose1,rating_causation,"{""Q0"":6}",[0],W3 started opposing W1,W1 started opposing W3
4979.5,NA,NA,NA,NA,survey-likert-extra-labels,135,664686,0.0-49.0-2.0,anomymised,65658173009eeb17459c8404,656779918cedf82cd7a4f233,36454,2,man,NA,NA,W3 is being opposed by W1,oppose1,rating_volition,"{""Q0"":6}",[0],W3 wanted to oppose W1,W1 wanted to oppose W3
null,Dave is being kissed by Ruth,NA,NA,NA,html-keyboard-response,136,666691,0.0-50.0-0.0,anomymised,65658173009eeb17459c8404,656779918cedf82cd7a4f233,36454,2,man,NA,null,M2 is being kissed by W4,kiss3,sentence,NA,NA,NA,NA
7927.099999904633,NA,NA,NA,NA,survey-likert-extra-labels,137,674620,0.0-50.0-2.0,anomymised,65658173009eeb17459c8404,656779918cedf82cd7a4f233,36454,2,man,NA,NA,M2 is being kissed by W4,kiss3,rating_volition,"{""Q0"":0}",[0],W4 wanted to kiss M2,M2 wanted to kiss W4
3297.0999999046326,NA,NA,NA,NA,survey-likert-extra-labels,138,677920,0.0-50.0-3.0-0.0,anomymised,65658173009eeb17459c8404,656779918cedf82cd7a4f233,36454,2,man,NA,NA,M2 is being kissed by W4,kiss3,rating_causation,"{""Q0"":0}",[0],W4 asked to kiss M2,M2 asked to kiss W4
null,Beth is being seduced by Luke,NA,NA,NA,html-keyboard-response,139,679927,0.0-51.0-0.0,anomymised,65658173009eeb17459c8404,656779918cedf82cd7a4f233,36454,2,man,NA,null,W1 is being seduced by M3,seduce4,sentence,NA,NA,NA,NA
4958.800000190735,NA,NA,NA,NA,survey-likert-extra-labels,140,684887,0.0-51.0-1.0-0.0,anomymised,65658173009eeb17459c8404,656779918cedf82cd7a4f233,36454,2,man,NA,NA,W1 is being seduced by M3,seduce4,rating_causation,"{""Q0"":6}",[0],W1 started seducing M3 first,M3 started seducing W1 first
2847,NA,NA,NA,NA,survey-likert-extra-labels,141,687737,0.0-51.0-2.0,anomymised,65658173009eeb17459c8404,656779918cedf82cd7a4f233,36454,2,man,NA,NA,W1 is being seduced by M3,seduce4,rating_volition,"{""Q0"":6}",[0],W1 wanted to seducing M3,M3 wanted to seducing W1
null,Fred is being looked at by Luke,NA,NA,NA,html-keyboard-response,142,689744,0.0-52.0-0.0,anomymised,65658173009eeb17459c8404,656779918cedf82cd7a4f233,36454,2,man,NA,null,M1 is being looked at by M3,look2,sentence,NA,NA,NA,NA
4774.60000038147,NA,NA,NA,NA,survey-likert-extra-labels,143,694521,0.0-52.0-2.0,anomymised,65658173009eeb17459c8404,656779918cedf82cd7a4f233,36454,2,man,NA,NA,M1 is being looked at by M3,look2,rating_volition,"{""Q0"":0}",[0],M3 wanted to look at M1,M1 wanted to look at M3
2980.199999809265,NA,NA,NA,NA,survey-likert-extra-labels,144,697503,0.0-52.0-3.0-0.0,anomymised,65658173009eeb17459c8404,656779918cedf82cd7a4f233,36454,2,man,NA,NA,M1 is being looked at by M3,look2,rating_causation,"{""Q0"":0}",[0],M3 looked at M1 first,M1 looked at M3 first
null,Luke is being copied by Beth,NA,NA,NA,html-keyboard-response,145,699512,0.0-53.0-0.0,anomymised,65658173009eeb17459c8404,656779918cedf82cd7a4f233,36454,2,man,NA,null,M3 is being copied by W1,copy4,sentence,NA,NA,NA,NA
6090.299999713898,NA,NA,NA,NA,survey-likert-extra-labels,146,705604,0.0-53.0-1.0-0.0,anomymised,65658173009eeb17459c8404,656779918cedf82cd7a4f233,36454,2,man,NA,NA,M3 is being copied by W1,copy4,rating_causation,"{""Q0"":0}",[0],W1 started copying M3 first,M3 started copying W1 first
2613.7999997138977,NA,NA,NA,NA,survey-likert-extra-labels,147,708220,0.0-53.0-2.0,anomymised,65658173009eeb17459c8404,656779918cedf82cd7a4f233,36454,2,man,NA,NA,M3 is being copied by W1,copy4,rating_volition,"{""Q0"":0}",[0],W1 wanted to copy M3,M3 wanted to copy W1
null,Dave is posing for Mike,NA,NA,NA,html-keyboard-response,148,710228,0.0-54.0-0.0,anomymised,65658173009eeb17459c8404,656779918cedf82cd7a4f233,36454,2,man,NA,null,M2 is posing for M4,pose,sentence,NA,NA,NA,NA
6625.10000038147,NA,NA,NA,NA,survey-likert-extra-labels,149,716855,0.0-54.0-1.0-0.0,anomymised,65658173009eeb17459c8404,656779918cedf82cd7a4f233,36454,2,man,NA,NA,M2 is posing for M4,pose,rating_causation,"{""Q0"":6}",[0],M2 is photographing M4,M4 is photographing M2
6213.200000286102,NA,NA,NA,NA,survey-likert-extra-labels,150,723070,0.0-54.0-2.0,anomymised,65658173009eeb17459c8404,656779918cedf82cd7a4f233,36454,2,man,NA,NA,M2 is posing for M4,pose,rating_volition,"{""Q0"":0}",[0],M2 is modelling for M4,M4 is modelling for M2
2880.5,<p>Thank you for completing that task.</p><p>The final part of this session is a short questionnaire.</p><p>Press Continue.</p>,0,Continue,Continue,html-button-response,151,725954,0.0-55.0,anomymised,65658173009eeb17459c8404,656779918cedf82cd7a4f233,36454,2,man,NA,NA,NA,NA,NA,NA,NA,NA,NA
20809.300000190735,NA,NA,NA,NA,survey-text,152,747771,0.0-56.0,anomymised,65658173009eeb17459c8404,656779918cedf82cd7a4f233,36454,2,man,NA,NA,NA,NA,demographics,"{""Q0"":""45"",""Q1"":""English"",""Q2"":""English"",""Q3"":""United Kingdom"",""Q4"":""British"",""Q5"":""White"",""Q6"":""Male""}",NA,NA,NA
4096.099999904633,<p>This is the last question - thank you for taking part! Have you lived in the UK for the last 5 years or more?</p>,0,"Yes,No",Yes,html-button-response,153,751870,0.0-57.0,anomymised,65658173009eeb17459c8404,656779918cedf82cd7a4f233,36454,2,man,NA,NA,NA,NA,fiveyears,NA,NA,NA,NA
