rt,stimulus,button_pressed,choices,ChosenStimulus,trial_type,trial_index,time_elapsed,internal_node_id,subject_id,study_id,session_id,subject,list,ppt_gender,url,key_press,sentence_type,verb,test_part,responses,question_order,left_part,right_part
3012.600000000093,Welcome to the experiment. Press Continue to begin.,0,Continue,Continue,html-button-response,0,3016,0.0-0.0,anomymised,65658308d20c86dae326cedf,6567035e57acb6ba1c87e218,36693,2B,woman,NA,NA,NA,NA,NA,NA,NA,NA,NA
12011.799999999814,NA,NA,NA,NA,external-html,1,16082,0.0-1.0,anomymised,65658308d20c86dae326cedf,6567035e57acb6ba1c87e218,36693,2B,woman,consent.html,NA,NA,NA,NA,NA,NA,NA,NA
10973,"<p>Welcome.</p><p>In this experiment we will ask you to imagine some situations.</p><p>Each trial starts with a description of an event.</p><p>Then you will see alternative descriptions of that event, and you will rate on a scale how best they match the original description.</p><p>You will give your answer by clicking a button on a rating scale.</p><p>To do this task, you will have to use your imagination to visualise these events.</p><br><p>Ready?</p>",0,Continue,Continue,html-button-response,2,27057,0.0-2.0,anomymised,65658308d20c86dae326cedf,6567035e57acb6ba1c87e218,36693,2B,woman,NA,NA,NA,NA,NA,NA,NA,NA,NA
2927.399999999907,"<p>Before the experiment starts, you will watch an example trial. Press 'Continue'.</p>",0,Continue,Continue,html-button-response,3,30991,0.0-3.0,anomymised,65658308d20c86dae326cedf,6567035e57acb6ba1c87e218,36693,2B,woman,NA,NA,NA,NA,NA,NA,NA,NA,NA
null,The police officer is arresting the robber,NA,NA,NA,html-keyboard-response,4,34009,0.0-4.0,anomymised,65658308d20c86dae326cedf,6567035e57acb6ba1c87e218,36693,2B,woman,NA,null,NA,NA,NA,NA,NA,NA,NA
24032.5,<img src='img/Example-trial.jpg' style='height:550px;''></img>,0,Continue,Continue,html-button-response,5,58043,0.0-5.0,anomymised,65658308d20c86dae326cedf,6567035e57acb6ba1c87e218,36693,2B,woman,NA,NA,NA,NA,NA,NA,NA,NA,NA
6448.5999999996275,<p>Ready to start the experiment?</p><br><p><strong>Remember to give an answer by clicking a button on the rating scale.</strong></p><p>Press 'Continue' to begin.</p>,0,Continue,Continue,html-button-response,6,65496,0.0-6.0,anomymised,65658308d20c86dae326cedf,6567035e57acb6ba1c87e218,36693,2B,woman,NA,NA,NA,NA,NA,NA,NA,NA,NA
null,Fred is being shouted at by Luke,NA,NA,NA,html-keyboard-response,7,68523,0.0-7.0-0.0,anomymised,65658308d20c86dae326cedf,6567035e57acb6ba1c87e218,36693,2B,woman,NA,null,M1 is being shouted at by M3,shout2,sentence,NA,NA,NA,NA
17370.899999999907,NA,NA,NA,NA,survey-likert-extra-labels,8,85899,0.0-7.0-2.0,anomymised,65658308d20c86dae326cedf,6567035e57acb6ba1c87e218,36693,2B,woman,NA,NA,M1 is being shouted at by M3,shout2,rating_volition,"{""Q0"":3}",[0],M3 wanted to shout at M1,M1 wanted to shout at M3
11210.600000000093,NA,NA,NA,NA,survey-likert-extra-labels,9,97114,0.0-7.0-3.0-0.0,anomymised,65658308d20c86dae326cedf,6567035e57acb6ba1c87e218,36693,2B,woman,NA,NA,M1 is being shouted at by M3,shout2,rating_causation,"{""Q0"":1}",[0],M3 shouted at M1 first,M1 shouted at M3 first
null,Jane is being challenged by Fred,NA,NA,NA,html-keyboard-response,10,99132,0.0-8.0-0.0,anomymised,65658308d20c86dae326cedf,6567035e57acb6ba1c87e218,36693,2B,woman,NA,null,W3 is being challenged by M1,challenge4,sentence,NA,NA,NA,NA
6257.199999999721,NA,NA,NA,NA,survey-likert-extra-labels,11,105392,0.0-8.0-2.0,anomymised,65658308d20c86dae326cedf,6567035e57acb6ba1c87e218,36693,2B,woman,NA,NA,W3 is being challenged by M1,challenge4,rating_volition,"{""Q0"":1}",[0],M1 wanted to challenge W3,W3 wanted to challenge M1
6685.699999999721,NA,NA,NA,NA,survey-likert-extra-labels,12,112082,0.0-8.0-3.0-0.0,anomymised,65658308d20c86dae326cedf,6567035e57acb6ba1c87e218,36693,2B,woman,NA,NA,W3 is being challenged by M1,challenge4,rating_causation,"{""Q0"":1}",[0],M1 started challenging W3 first,W3 started challenging M1 first
null,Ruth is being greeted by Kate,NA,NA,NA,html-keyboard-response,13,114105,0.0-9.0-0.0,anomymised,65658308d20c86dae326cedf,6567035e57acb6ba1c87e218,36693,2B,woman,NA,null,W4 is being greeted by W2,greet1,sentence,NA,NA,NA,NA
5822,NA,NA,NA,NA,survey-likert-extra-labels,14,119929,0.0-9.0-2.0,anomymised,65658308d20c86dae326cedf,6567035e57acb6ba1c87e218,36693,2B,woman,NA,NA,W4 is being greeted by W2,greet1,rating_volition,"{""Q0"":5}",[0],W4 wanted to greet W2,W2 wanted to greet W4
17510.5,NA,NA,NA,NA,survey-likert-extra-labels,15,137442,0.0-9.0-3.0-0.0,anomymised,65658308d20c86dae326cedf,6567035e57acb6ba1c87e218,36693,2B,woman,NA,NA,W4 is being greeted by W2,greet1,rating_causation,"{""Q0"":2}",[0],W4 started greeting W2 first,W2 started greeting W4 first
null,Jane is being touched by Fred,NA,NA,NA,html-keyboard-response,16,139451,0.0-10.0-0.0,anomymised,65658308d20c86dae326cedf,6567035e57acb6ba1c87e218,36693,2B,woman,NA,null,W3 is being touched by M1,touch3,sentence,NA,NA,NA,NA
4244.199999999721,NA,NA,NA,NA,survey-likert-extra-labels,17,143696,0.0-10.0-2.0,anomymised,65658308d20c86dae326cedf,6567035e57acb6ba1c87e218,36693,2B,woman,NA,NA,W3 is being touched by M1,touch3,rating_volition,"{""Q0"":1}",[0],M1 wanted to touch W3,W3 wanted to touch M1
9581.5,NA,NA,NA,NA,survey-likert-extra-labels,18,153281,0.0-10.0-3.0-0.0,anomymised,65658308d20c86dae326cedf,6567035e57acb6ba1c87e218,36693,2B,woman,NA,NA,W3 is being touched by M1,touch3,rating_causation,"{""Q0"":1}",[0],M1 asked to touch W3,W3 asked to touch M1
null,Fred is being hugged by Luke,NA,NA,NA,html-keyboard-response,19,155289,0.0-11.0-0.0,anomymised,65658308d20c86dae326cedf,6567035e57acb6ba1c87e218,36693,2B,woman,NA,null,M1 is being hugged by M3,hug2,sentence,NA,NA,NA,NA
9399.19999999972,NA,NA,NA,NA,survey-likert-extra-labels,20,164690,0.0-11.0-1.0-0.0,anomymised,65658308d20c86dae326cedf,6567035e57acb6ba1c87e218,36693,2B,woman,NA,NA,M1 is being hugged by M3,hug2,rating_causation,"{""Q0"":1}",[0],M3 asked to hug M1,M1 asked to hug M3
3517.3000000002794,NA,NA,NA,NA,survey-likert-extra-labels,21,168212,0.0-11.0-2.0,anomymised,65658308d20c86dae326cedf,6567035e57acb6ba1c87e218,36693,2B,woman,NA,NA,M1 is being hugged by M3,hug2,rating_volition,"{""Q0"":2}",[0],M3 wanted to hug M1,M1 wanted to hug M3
null,Mike is being copied by Dave,NA,NA,NA,html-keyboard-response,22,170222,0.0-12.0-0.0,anomymised,65658308d20c86dae326cedf,6567035e57acb6ba1c87e218,36693,2B,woman,NA,null,M4 is being copied by M2,copy2,sentence,NA,NA,NA,NA
6545,NA,NA,NA,NA,survey-likert-extra-labels,23,176769,0.0-12.0-1.0-0.0,anomymised,65658308d20c86dae326cedf,6567035e57acb6ba1c87e218,36693,2B,woman,NA,NA,M4 is being copied by M2,copy2,rating_causation,"{""Q0"":4}",[0],M4 started copying M2 first,M2 started copying M4 first
6302.700000000186,NA,NA,NA,NA,survey-likert-extra-labels,24,183077,0.0-12.0-2.0,anomymised,65658308d20c86dae326cedf,6567035e57acb6ba1c87e218,36693,2B,woman,NA,NA,M4 is being copied by M2,copy2,rating_volition,"{""Q0"":4}",[0],M4 wanted to copy M2,M2 wanted to copy M4
null,Beth is being greeted by Luke,NA,NA,NA,html-keyboard-response,25,185088,0.0-13.0-0.0,anomymised,65658308d20c86dae326cedf,6567035e57acb6ba1c87e218,36693,2B,woman,NA,null,W1 is being greeted by M3,greet3,sentence,NA,NA,NA,NA
3271.2000000001863,NA,NA,NA,NA,survey-likert-extra-labels,26,188361,0.0-13.0-2.0,anomymised,65658308d20c86dae326cedf,6567035e57acb6ba1c87e218,36693,2B,woman,NA,NA,W1 is being greeted by M3,greet3,rating_volition,"{""Q0"":2}",[0],W1 wanted to greet M3,M3 wanted to greet W1
6164.300000000279,NA,NA,NA,NA,survey-likert-extra-labels,27,194528,0.0-13.0-3.0-0.0,anomymised,65658308d20c86dae326cedf,6567035e57acb6ba1c87e218,36693,2B,woman,NA,NA,W1 is being greeted by M3,greet3,rating_causation,"{""Q0"":2}",[0],W1 started greeting M3 first,M3 started greeting W1 first
null,Kate is carrying Ruth,NA,NA,NA,html-keyboard-response,28,196533,0.0-14.0-0.0,anomymised,65658308d20c86dae326cedf,6567035e57acb6ba1c87e218,36693,2B,woman,NA,null,W2 is carrying W4,carry,sentence,NA,NA,NA,NA
5307.299999999814,NA,NA,NA,NA,survey-likert-extra-labels,29,201842,0.0-14.0-1.0-0.0,anomymised,65658308d20c86dae326cedf,6567035e57acb6ba1c87e218,36693,2B,woman,NA,NA,W2 is carrying W4,carry,rating_causation,"{""Q0"":4}",[0],W2 is being moved by W4,W4 is being moved by W2
5280.600000000093,NA,NA,NA,NA,survey-likert-extra-labels,30,207126,0.0-14.0-2.0,anomymised,65658308d20c86dae326cedf,6567035e57acb6ba1c87e218,36693,2B,woman,NA,NA,W2 is carrying W4,carry,rating_volition,"{""Q0"":4}",[0],W2 is transporting W4,W4 is transporting W2
null,Dave is being opposed by Ruth,NA,NA,NA,html-keyboard-response,31,209138,0.0-15.0-0.0,anomymised,65658308d20c86dae326cedf,6567035e57acb6ba1c87e218,36693,2B,woman,NA,null,M2 is being opposed by W4,oppose4,sentence,NA,NA,NA,NA
4232.700000000186,NA,NA,NA,NA,survey-likert-extra-labels,32,213372,0.0-15.0-1.0-0.0,anomymised,65658308d20c86dae326cedf,6567035e57acb6ba1c87e218,36693,2B,woman,NA,NA,M2 is being opposed by W4,oppose4,rating_causation,"{""Q0"":2}",[0],W4 started opposing M2,M2 started opposing W4
8611.200000000186,NA,NA,NA,NA,survey-likert-extra-labels,33,221986,0.0-15.0-2.0,anomymised,65658308d20c86dae326cedf,6567035e57acb6ba1c87e218,36693,2B,woman,NA,NA,M2 is being opposed by W4,oppose4,rating_volition,"{""Q0"":6}",[0],W4 wanted to oppose M2,M2 wanted to oppose W4
null,Kate is being challenged by Ruth,NA,NA,NA,html-keyboard-response,34,223995,0.0-16.0-0.0,anomymised,65658308d20c86dae326cedf,6567035e57acb6ba1c87e218,36693,2B,woman,NA,null,W2 is being challenged by W4,challenge1,sentence,NA,NA,NA,NA
3011,NA,NA,NA,NA,survey-likert-extra-labels,35,227008,0.0-16.0-2.0,anomymised,65658308d20c86dae326cedf,6567035e57acb6ba1c87e218,36693,2B,woman,NA,NA,W2 is being challenged by W4,challenge1,rating_volition,"{""Q0"":3}",[0],W4 wanted to challenge W2,W2 wanted to challenge W4
4817,NA,NA,NA,NA,survey-likert-extra-labels,36,231827,0.0-16.0-3.0-0.0,anomymised,65658308d20c86dae326cedf,6567035e57acb6ba1c87e218,36693,2B,woman,NA,NA,W2 is being challenged by W4,challenge1,rating_causation,"{""Q0"":2}",[0],W4 started challenging W2 first,W2 started challenging W4 first
null,Fred is being copied by Jane,NA,NA,NA,html-keyboard-response,37,233839,0.0-17.0-0.0,anomymised,65658308d20c86dae326cedf,6567035e57acb6ba1c87e218,36693,2B,woman,NA,null,M1 is being copied by W3,copy3,sentence,NA,NA,NA,NA
3751.2000000001863,NA,NA,NA,NA,survey-likert-extra-labels,38,237592,0.0-17.0-1.0-0.0,anomymised,65658308d20c86dae326cedf,6567035e57acb6ba1c87e218,36693,2B,woman,NA,NA,M1 is being copied by W3,copy3,rating_causation,"{""Q0"":4}",[0],M1 started copying W3 first,W3 started copying M1 first
3549.5,NA,NA,NA,NA,survey-likert-extra-labels,39,241145,0.0-17.0-2.0,anomymised,65658308d20c86dae326cedf,6567035e57acb6ba1c87e218,36693,2B,woman,NA,NA,M1 is being copied by W3,copy3,rating_volition,"{""Q0"":4}",[0],M1 wanted to copy W3,W3 wanted to copy M1
null,Jane is feeding Fred,NA,NA,NA,html-keyboard-response,40,243149,0.0-18.0-0.0,anomymised,65658308d20c86dae326cedf,6567035e57acb6ba1c87e218,36693,2B,woman,NA,null,W3 is feeding M1,feed,sentence,NA,NA,NA,NA
5640.299999999814,NA,NA,NA,NA,survey-likert-extra-labels,41,248790,0.0-18.0-2.0,anomymised,65658308d20c86dae326cedf,6567035e57acb6ba1c87e218,36693,2B,woman,NA,NA,W3 is feeding M1,feed,rating_volition,"{""Q0"":2}",[0],W3 cooked for M1,M1 cooked for W3
11113.700000000186,NA,NA,NA,NA,survey-likert-extra-labels,42,259908,0.0-18.0-3.0-0.0,anomymised,65658308d20c86dae326cedf,6567035e57acb6ba1c87e218,36693,2B,woman,NA,NA,W3 is feeding M1,feed,rating_causation,"{""Q0"":5}",[0],W3 is eating M1's food,M1 is eating W3's food
null,Beth is chasing Jane,NA,NA,NA,html-keyboard-response,43,261911,0.0-19.0-0.0,anomymised,65658308d20c86dae326cedf,6567035e57acb6ba1c87e218,36693,2B,woman,NA,null,W1 is chasing W3,chase,sentence,NA,NA,NA,NA
5426.600000000093,NA,NA,NA,NA,survey-likert-extra-labels,44,267340,0.0-19.0-2.0,anomymised,65658308d20c86dae326cedf,6567035e57acb6ba1c87e218,36693,2B,woman,NA,NA,W1 is chasing W3,chase,rating_volition,"{""Q0"":1}",[0],W1 is behind W3,W3 is behind W1
7540.300000000279,NA,NA,NA,NA,survey-likert-extra-labels,45,274884,0.0-19.0-3.0-0.0,anomymised,65658308d20c86dae326cedf,6567035e57acb6ba1c87e218,36693,2B,woman,NA,NA,W1 is chasing W3,chase,rating_causation,"{""Q0"":6}",[0],W1 is running away from W3,W3 is running away from W1
null,Fred is driving Luke,NA,NA,NA,html-keyboard-response,46,276907,0.0-20.0-0.0,anomymised,65658308d20c86dae326cedf,6567035e57acb6ba1c87e218,36693,2B,woman,NA,null,M1 is driving M3,drive,sentence,NA,NA,NA,NA
7960.600000000093,NA,NA,NA,NA,survey-likert-extra-labels,47,284869,0.0-20.0-2.0,anomymised,65658308d20c86dae326cedf,6567035e57acb6ba1c87e218,36693,2B,woman,NA,NA,M1 is driving M3,drive,rating_volition,"{""Q0"":5}",[0],M1 is M3's passenger,M3 is M1's passenger
9096.399999999907,NA,NA,NA,NA,survey-likert-extra-labels,48,293970,0.0-20.0-3.0-0.0,anomymised,65658308d20c86dae326cedf,6567035e57acb6ba1c87e218,36693,2B,woman,NA,NA,M1 is driving M3,drive,rating_causation,"{""Q0"":1}",[0],M1 is taking M3 somewhere,M3 is taking M1 somewhere
null,Mike is being looked at by Kate,NA,NA,NA,html-keyboard-response,49,295978,0.0-21.0-0.0,anomymised,65658308d20c86dae326cedf,6567035e57acb6ba1c87e218,36693,2B,woman,NA,null,M4 is being looked at by W2,look3,sentence,NA,NA,NA,NA
3522.7999999998137,NA,NA,NA,NA,survey-likert-extra-labels,50,299502,0.0-21.0-2.0,anomymised,65658308d20c86dae326cedf,6567035e57acb6ba1c87e218,36693,2B,woman,NA,NA,M4 is being looked at by W2,look3,rating_volition,"{""Q0"":1}",[0],M4 wanted to look at W2,W2 wanted to look at M4
6810.899999999907,NA,NA,NA,NA,survey-likert-extra-labels,51,306316,0.0-21.0-3.0-0.0,anomymised,65658308d20c86dae326cedf,6567035e57acb6ba1c87e218,36693,2B,woman,NA,NA,M4 is being looked at by W2,look3,rating_causation,"{""Q0"":1}",[0],M4 looked at W2 first,W2 looked at M4 first
null,Luke is hiring Beth,NA,NA,NA,html-keyboard-response,52,308334,0.0-22.0-0.0,anomymised,65658308d20c86dae326cedf,6567035e57acb6ba1c87e218,36693,2B,woman,NA,null,M3 is hiring W1,hire,sentence,NA,NA,NA,NA
6325,NA,NA,NA,NA,survey-likert-extra-labels,53,314661,0.0-22.0-1.0-0.0,anomymised,65658308d20c86dae326cedf,6567035e57acb6ba1c87e218,36693,2B,woman,NA,NA,M3 is hiring W1,hire,rating_causation,"{""Q0"":5}",[0],M3 will work for W1,W1 will work for M3
9273.600000000093,NA,NA,NA,NA,survey-likert-extra-labels,54,323938,0.0-22.0-2.0,anomymised,65658308d20c86dae326cedf,6567035e57acb6ba1c87e218,36693,2B,woman,NA,NA,M3 is hiring W1,hire,rating_volition,"{""Q0"":1}",[0],M3 is employing W1,W1 is employing M3
null,Ruth is being kissed by Dave,NA,NA,NA,html-keyboard-response,55,325955,0.0-23.0-0.0,anomymised,65658308d20c86dae326cedf,6567035e57acb6ba1c87e218,36693,2B,woman,NA,null,W4 is being kissed by M2,kiss3,sentence,NA,NA,NA,NA
15458.200000000186,NA,NA,NA,NA,survey-likert-extra-labels,56,341415,0.0-23.0-2.0,anomymised,65658308d20c86dae326cedf,6567035e57acb6ba1c87e218,36693,2B,woman,NA,NA,W4 is being kissed by M2,kiss3,rating_volition,"{""Q0"":5}",[0],W4 wanted to kiss M2,M2 wanted to kiss W4
10617,NA,NA,NA,NA,survey-likert-extra-labels,57,352035,0.0-23.0-3.0-0.0,anomymised,65658308d20c86dae326cedf,6567035e57acb6ba1c87e218,36693,2B,woman,NA,NA,W4 is being kissed by M2,kiss3,rating_causation,"{""Q0"":4}",[0],W4 asked to kiss M2,M2 asked to kiss W4
null,Mike is being greeted by Dave,NA,NA,NA,html-keyboard-response,58,354052,0.0-24.0-0.0,anomymised,65658308d20c86dae326cedf,6567035e57acb6ba1c87e218,36693,2B,woman,NA,null,M4 is being greeted by M2,greet2,sentence,NA,NA,NA,NA
4561.5,NA,NA,NA,NA,survey-likert-extra-labels,59,358616,0.0-24.0-2.0,anomymised,65658308d20c86dae326cedf,6567035e57acb6ba1c87e218,36693,2B,woman,NA,NA,M4 is being greeted by M2,greet2,rating_volition,"{""Q0"":2}",[0],M4 wanted to greet M2,M2 wanted to greet M4
4319.5,NA,NA,NA,NA,survey-likert-extra-labels,60,362939,0.0-24.0-3.0-0.0,anomymised,65658308d20c86dae326cedf,6567035e57acb6ba1c87e218,36693,2B,woman,NA,NA,M4 is being greeted by M2,greet2,rating_causation,"{""Q0"":4}",[0],M4 started greeting M2 first,M2 started greeting M4 first
null,Jane is being seduced by Fred,NA,NA,NA,html-keyboard-response,61,364952,0.0-25.0-0.0,anomymised,65658308d20c86dae326cedf,6567035e57acb6ba1c87e218,36693,2B,woman,NA,null,W3 is being seduced by M1,seduce3,sentence,NA,NA,NA,NA
10090.399999999907,NA,NA,NA,NA,survey-likert-extra-labels,62,375044,0.0-25.0-1.0-0.0,anomymised,65658308d20c86dae326cedf,6567035e57acb6ba1c87e218,36693,2B,woman,NA,NA,W3 is being seduced by M1,seduce3,rating_causation,"{""Q0"":2}",[0],M1 started seducing W3 first,W3 started seducing M1 first
5103.899999999907,NA,NA,NA,NA,survey-likert-extra-labels,63,380152,0.0-25.0-2.0,anomymised,65658308d20c86dae326cedf,6567035e57acb6ba1c87e218,36693,2B,woman,NA,NA,W3 is being seduced by M1,seduce3,rating_volition,"{""Q0"":2}",[0],M1 wanted to seduce W3,W3 wanted to seduce M1
null,Dave is reminding Ruth,NA,NA,NA,html-keyboard-response,64,382166,0.0-26.0-0.0,anomymised,65658308d20c86dae326cedf,6567035e57acb6ba1c87e218,36693,2B,woman,NA,null,M2 is reminding W4,remind,sentence,NA,NA,NA,NA
8414.100000000093,NA,NA,NA,NA,survey-likert-extra-labels,65,390581,0.0-26.0-1.0-0.0,anomymised,65658308d20c86dae326cedf,6567035e57acb6ba1c87e218,36693,2B,woman,NA,NA,M2 is reminding W4,remind,rating_causation,"{""Q0"":4}",[0],M2 is remembering,W4 is remembering
10213.799999999814,NA,NA,NA,NA,survey-likert-extra-labels,66,400799,0.0-26.0-2.0,anomymised,65658308d20c86dae326cedf,6567035e57acb6ba1c87e218,36693,2B,woman,NA,NA,M2 is reminding W4,remind,rating_volition,"{""Q0"":0}",[0],M2 is telling W4 again,W4 is telling M2 again
null,Luke is being looked at by Fred,NA,NA,NA,html-keyboard-response,67,402808,0.0-27.0-0.0,anomymised,65658308d20c86dae326cedf,6567035e57acb6ba1c87e218,36693,2B,woman,NA,null,M3 is being looked at by M1,look2,sentence,NA,NA,NA,NA
6185.200000000186,NA,NA,NA,NA,survey-likert-extra-labels,68,408995,0.0-27.0-1.0-0.0,anomymised,65658308d20c86dae326cedf,6567035e57acb6ba1c87e218,36693,2B,woman,NA,NA,M3 is being looked at by M1,look2,rating_causation,"{""Q0"":5}",[0],M3 looked at M1 first,M1 looked at M3 first
10591.599999999627,NA,NA,NA,NA,survey-likert-extra-labels,69,419591,0.0-27.0-2.0,anomymised,65658308d20c86dae326cedf,6567035e57acb6ba1c87e218,36693,2B,woman,NA,NA,M3 is being looked at by M1,look2,rating_volition,"{""Q0"":5}",[0],M3 wanted to look at M1,M1 wanted to look at M3
null,Kate is being shouted at by Mike,NA,NA,NA,html-keyboard-response,70,421614,0.0-28.0-0.0,anomymised,65658308d20c86dae326cedf,6567035e57acb6ba1c87e218,36693,2B,woman,NA,null,W2 is being shouted at by M4,shout4,sentence,NA,NA,NA,NA
4560.200000000186,NA,NA,NA,NA,survey-likert-extra-labels,71,426175,0.0-28.0-2.0,anomymised,65658308d20c86dae326cedf,6567035e57acb6ba1c87e218,36693,2B,woman,NA,NA,W2 is being shouted at by M4,shout4,rating_volition,"{""Q0"":1}",[0],M4 wanted to shout at W2,W2 wanted to shout at M4
4489.200000000186,NA,NA,NA,NA,survey-likert-extra-labels,72,430668,0.0-28.0-3.0-0.0,anomymised,65658308d20c86dae326cedf,6567035e57acb6ba1c87e218,36693,2B,woman,NA,NA,W2 is being shouted at by M4,shout4,rating_causation,"{""Q0"":1}",[0],M4 shouted at W2 first,W2 shouted at M4 first
null,Beth is being opposed by Jane,NA,NA,NA,html-keyboard-response,73,432682,0.0-29.0-0.0,anomymised,65658308d20c86dae326cedf,6567035e57acb6ba1c87e218,36693,2B,woman,NA,null,W1 is being opposed by W3,oppose1,sentence,NA,NA,NA,NA
5516.199999999721,NA,NA,NA,NA,survey-likert-extra-labels,74,438200,0.0-29.0-2.0,anomymised,65658308d20c86dae326cedf,6567035e57acb6ba1c87e218,36693,2B,woman,NA,NA,W1 is being opposed by W3,oppose1,rating_volition,"{""Q0"":1}",[0],W3 wanted to oppose W1,W1 wanted to oppose W3
4575.199999999721,NA,NA,NA,NA,survey-likert-extra-labels,75,442778,0.0-29.0-3.0-0.0,anomymised,65658308d20c86dae326cedf,6567035e57acb6ba1c87e218,36693,2B,woman,NA,NA,W1 is being opposed by W3,oppose1,rating_causation,"{""Q0"":1}",[0],W3 started opposing W1,W1 started opposing W3
null,Jane is being kissed by Beth,NA,NA,NA,html-keyboard-response,76,444782,0.0-30.0-0.0,anomymised,65658308d20c86dae326cedf,6567035e57acb6ba1c87e218,36693,2B,woman,NA,null,W3 is being kissed by W1,kiss1,sentence,NA,NA,NA,NA
4127.899999999907,NA,NA,NA,NA,survey-likert-extra-labels,77,448912,0.0-30.0-2.0,anomymised,65658308d20c86dae326cedf,6567035e57acb6ba1c87e218,36693,2B,woman,NA,NA,W3 is being kissed by W1,kiss1,rating_volition,"{""Q0"":5}",[0],W3 wanted to kiss W1,W1 wanted to kiss W3
9945.200000000186,NA,NA,NA,NA,survey-likert-extra-labels,78,458861,0.0-30.0-3.0-0.0,anomymised,65658308d20c86dae326cedf,6567035e57acb6ba1c87e218,36693,2B,woman,NA,NA,W3 is being kissed by W1,kiss1,rating_causation,"{""Q0"":2}",[0],W3 asked to kiss W1,W1 asked to kiss W3
null,Dave is being hugged by Ruth,NA,NA,NA,html-keyboard-response,79,460879,0.0-31.0-0.0,anomymised,65658308d20c86dae326cedf,6567035e57acb6ba1c87e218,36693,2B,woman,NA,null,M2 is being hugged by W4,hug4,sentence,NA,NA,NA,NA
4347.799999999814,NA,NA,NA,NA,survey-likert-extra-labels,80,465229,0.0-31.0-2.0,anomymised,65658308d20c86dae326cedf,6567035e57acb6ba1c87e218,36693,2B,woman,NA,NA,M2 is being hugged by W4,hug4,rating_volition,"{""Q0"":2}",[0],W4 wanted to hug M2,M2 wanted to hug W4
7501.5,NA,NA,NA,NA,survey-likert-extra-labels,81,472734,0.0-31.0-3.0-0.0,anomymised,65658308d20c86dae326cedf,6567035e57acb6ba1c87e218,36693,2B,woman,NA,NA,M2 is being hugged by W4,hug4,rating_causation,"{""Q0"":0}",[0],W4 asked to hug M2,M2 asked to hug W4
null,Fred is being greeted by Jane,NA,NA,NA,html-keyboard-response,82,474754,0.0-32.0-0.0,anomymised,65658308d20c86dae326cedf,6567035e57acb6ba1c87e218,36693,2B,woman,NA,null,M1 is being greeted by W3,greet4,sentence,NA,NA,NA,NA
8308.099999999627,NA,NA,NA,NA,survey-likert-extra-labels,83,483063,0.0-32.0-2.0,anomymised,65658308d20c86dae326cedf,6567035e57acb6ba1c87e218,36693,2B,woman,NA,NA,M1 is being greeted by W3,greet4,rating_volition,"{""Q0"":6}",[0],M1 wanted to greet W3,W3 wanted to greet M1
6727.399999999907,NA,NA,NA,NA,survey-likert-extra-labels,84,489793,0.0-32.0-3.0-0.0,anomymised,65658308d20c86dae326cedf,6567035e57acb6ba1c87e218,36693,2B,woman,NA,NA,M1 is being greeted by W3,greet4,rating_causation,"{""Q0"":5}",[0],M1 started greeting W3 first,W3 started greeting M1 first
null,Jane is being looked at by Beth,NA,NA,NA,html-keyboard-response,85,491797,0.0-33.0-0.0,anomymised,65658308d20c86dae326cedf,6567035e57acb6ba1c87e218,36693,2B,woman,NA,null,W3 is being looked at by W1,look1,sentence,NA,NA,NA,NA
7564.600000000093,NA,NA,NA,NA,survey-likert-extra-labels,86,499364,0.0-33.0-1.0-0.0,anomymised,65658308d20c86dae326cedf,6567035e57acb6ba1c87e218,36693,2B,woman,NA,NA,W3 is being looked at by W1,look1,rating_causation,"{""Q0"":5}",[0],W3 looked at W1 first,W1 looked at W3 first
5700.899999999907,NA,NA,NA,NA,survey-likert-extra-labels,87,505068,0.0-33.0-2.0,anomymised,65658308d20c86dae326cedf,6567035e57acb6ba1c87e218,36693,2B,woman,NA,NA,W3 is being looked at by W1,look1,rating_volition,"{""Q0"":4}",[0],W3 wanted to look at W1,W1 wanted to look at W3
null,Ruth is being copied by Kate,NA,NA,NA,html-keyboard-response,88,507073,0.0-34.0-0.0,anomymised,65658308d20c86dae326cedf,6567035e57acb6ba1c87e218,36693,2B,woman,NA,null,W4 is being copied by W2,copy1,sentence,NA,NA,NA,NA
3586.6999999997206,NA,NA,NA,NA,survey-likert-extra-labels,89,510661,0.0-34.0-2.0,anomymised,65658308d20c86dae326cedf,6567035e57acb6ba1c87e218,36693,2B,woman,NA,NA,W4 is being copied by W2,copy1,rating_volition,"{""Q0"":1}",[0],W4 wanted to copy W2,W2 wanted to copy W4
3043,NA,NA,NA,NA,survey-likert-extra-labels,90,513707,0.0-34.0-3.0-0.0,anomymised,65658308d20c86dae326cedf,6567035e57acb6ba1c87e218,36693,2B,woman,NA,NA,W4 is being copied by W2,copy1,rating_causation,"{""Q0"":1}",[0],W4 started copying W2 first,W2 started copying W4 first
null,Luke is being challenged by Beth,NA,NA,NA,html-keyboard-response,91,515728,0.0-35.0-0.0,anomymised,65658308d20c86dae326cedf,6567035e57acb6ba1c87e218,36693,2B,woman,NA,null,M3 is being challenged by W1,challenge3,sentence,NA,NA,NA,NA
4751,NA,NA,NA,NA,survey-likert-extra-labels,92,520481,0.0-35.0-2.0,anomymised,65658308d20c86dae326cedf,6567035e57acb6ba1c87e218,36693,2B,woman,NA,NA,M3 is being challenged by W1,challenge3,rating_volition,"{""Q0"":0}",[0],W1 wanted to challenge M3,M3 wanted to challenge W1
5920.5999999996275,NA,NA,NA,NA,survey-likert-extra-labels,93,526405,0.0-35.0-3.0-0.0,anomymised,65658308d20c86dae326cedf,6567035e57acb6ba1c87e218,36693,2B,woman,NA,NA,M3 is being challenged by W1,challenge3,rating_causation,"{""Q0"":0}",[0],W1 started challenging M3 first,M3 started challenging W1 first
null,Kate is being hugged by Mike,NA,NA,NA,html-keyboard-response,94,528410,0.0-36.0-0.0,anomymised,65658308d20c86dae326cedf,6567035e57acb6ba1c87e218,36693,2B,woman,NA,null,W2 is being hugged by M4,hug3,sentence,NA,NA,NA,NA
3380.8000000002794,NA,NA,NA,NA,survey-likert-extra-labels,95,531793,0.0-36.0-2.0,anomymised,65658308d20c86dae326cedf,6567035e57acb6ba1c87e218,36693,2B,woman,NA,NA,W2 is being hugged by M4,hug3,rating_volition,"{""Q0"":1}",[0],M4 wanted to hug W2,W2 wanted to hug M4
5598,NA,NA,NA,NA,survey-likert-extra-labels,96,537394,0.0-36.0-3.0-0.0,anomymised,65658308d20c86dae326cedf,6567035e57acb6ba1c87e218,36693,2B,woman,NA,NA,W2 is being hugged by M4,hug3,rating_causation,"{""Q0"":1}",[0],M4 asked to hug W2,W2 asked to hug M4
null,Dave is being challenged by Mike,NA,NA,NA,html-keyboard-response,97,539400,0.0-37.0-0.0,anomymised,65658308d20c86dae326cedf,6567035e57acb6ba1c87e218,36693,2B,woman,NA,null,M2 is being challenged by M4,challenge2,sentence,NA,NA,NA,NA
2516.899999999907,NA,NA,NA,NA,survey-likert-extra-labels,98,541919,0.0-37.0-1.0-0.0,anomymised,65658308d20c86dae326cedf,6567035e57acb6ba1c87e218,36693,2B,woman,NA,NA,M2 is being challenged by M4,challenge2,rating_causation,"{""Q0"":2}",[0],M4 started challenging M2 first,M2 started challenging M4 first
6676.5,NA,NA,NA,NA,survey-likert-extra-labels,99,548600,0.0-37.0-2.0,anomymised,65658308d20c86dae326cedf,6567035e57acb6ba1c87e218,36693,2B,woman,NA,NA,M2 is being challenged by M4,challenge2,rating_volition,"{""Q0"":0}",[0],M4 wanted to challenge M2,M2 wanted to challenge M4
null,Luke is being seduced by Beth,NA,NA,NA,html-keyboard-response,100,550611,0.0-38.0-0.0,anomymised,65658308d20c86dae326cedf,6567035e57acb6ba1c87e218,36693,2B,woman,NA,null,M3 is being seduced by W1,seduce4,sentence,NA,NA,NA,NA
5697.600000000093,NA,NA,NA,NA,survey-likert-extra-labels,101,556310,0.0-38.0-1.0-0.0,anomymised,65658308d20c86dae326cedf,6567035e57acb6ba1c87e218,36693,2B,woman,NA,NA,M3 is being seduced by W1,seduce4,rating_causation,"{""Q0"":1}",[0],W1 started seducing M3 first,M3 started seducing W1 first
6148.4000000003725,NA,NA,NA,NA,survey-likert-extra-labels,102,562463,0.0-38.0-2.0,anomymised,65658308d20c86dae326cedf,6567035e57acb6ba1c87e218,36693,2B,woman,NA,NA,M3 is being seduced by W1,seduce4,rating_volition,"{""Q0"":1}",[0],W1 wanted to seducing M3,M3 wanted to seducing W1
null,Luke is being touched by Beth,NA,NA,NA,html-keyboard-response,103,564468,0.0-39.0-0.0,anomymised,65658308d20c86dae326cedf,6567035e57acb6ba1c87e218,36693,2B,woman,NA,null,M3 is being touched by W1,touch4,sentence,NA,NA,NA,NA
3858.7000000001863,NA,NA,NA,NA,survey-likert-extra-labels,104,568329,0.0-39.0-1.0-0.0,anomymised,65658308d20c86dae326cedf,6567035e57acb6ba1c87e218,36693,2B,woman,NA,NA,M3 is being touched by W1,touch4,rating_causation,"{""Q0"":1}",[0],W1 asked to touch M3,M3 asked to touch W1
4433.399999999907,NA,NA,NA,NA,survey-likert-extra-labels,105,572766,0.0-39.0-2.0,anomymised,65658308d20c86dae326cedf,6567035e57acb6ba1c87e218,36693,2B,woman,NA,NA,M3 is being touched by W1,touch4,rating_volition,"{""Q0"":1}",[0],W1 wanted to touch M3,M3 wanted to touch W1
null,Mike is being kissed by Kate,NA,NA,NA,html-keyboard-response,106,574781,0.0-40.0-0.0,anomymised,65658308d20c86dae326cedf,6567035e57acb6ba1c87e218,36693,2B,woman,NA,null,M4 is being kissed by W2,kiss4,sentence,NA,NA,NA,NA
4532.300000000279,NA,NA,NA,NA,survey-likert-extra-labels,107,579315,0.0-40.0-1.0-0.0,anomymised,65658308d20c86dae326cedf,6567035e57acb6ba1c87e218,36693,2B,woman,NA,NA,M4 is being kissed by W2,kiss4,rating_causation,"{""Q0"":5}",[0],M4 asked to kiss W2,W2 asked to kiss M4
7494.600000000093,NA,NA,NA,NA,survey-likert-extra-labels,108,586814,0.0-40.0-2.0,anomymised,65658308d20c86dae326cedf,6567035e57acb6ba1c87e218,36693,2B,woman,NA,NA,M4 is being kissed by W2,kiss4,rating_volition,"{""Q0"":5}",[0],M4 wanted to kiss W2,W2 wanted to kiss M4
null,Dave is posing for Mike,NA,NA,NA,html-keyboard-response,109,588821,0.0-41.0-0.0,anomymised,65658308d20c86dae326cedf,6567035e57acb6ba1c87e218,36693,2B,woman,NA,null,M2 is posing for M4,pose,sentence,NA,NA,NA,NA
4638.600000000093,NA,NA,NA,NA,survey-likert-extra-labels,110,593461,0.0-41.0-1.0-0.0,anomymised,65658308d20c86dae326cedf,6567035e57acb6ba1c87e218,36693,2B,woman,NA,NA,M2 is posing for M4,pose,rating_causation,"{""Q0"":5}",[0],M2 is photographing M4,M4 is photographing M2
9998.5,NA,NA,NA,NA,survey-likert-extra-labels,111,603463,0.0-41.0-2.0,anomymised,65658308d20c86dae326cedf,6567035e57acb6ba1c87e218,36693,2B,woman,NA,NA,M2 is posing for M4,pose,rating_volition,"{""Q0"":0}",[0],M2 is modelling for M4,M4 is modelling for M2
null,Dave is being seduced by Mike,NA,NA,NA,html-keyboard-response,112,605478,0.0-42.0-0.0,anomymised,65658308d20c86dae326cedf,6567035e57acb6ba1c87e218,36693,2B,woman,NA,null,M2 is being seduced by M4,seduce2,sentence,NA,NA,NA,NA
15100.400000000373,NA,NA,NA,NA,survey-likert-extra-labels,113,620581,0.0-42.0-2.0,anomymised,65658308d20c86dae326cedf,6567035e57acb6ba1c87e218,36693,2B,woman,NA,NA,M2 is being seduced by M4,seduce2,rating_volition,"{""Q0"":1}",[0],M4 wanted to seduce M2,M2 wanted to seduce M4
3816.899999999907,NA,NA,NA,NA,survey-likert-extra-labels,114,624402,0.0-42.0-3.0-0.0,anomymised,65658308d20c86dae326cedf,6567035e57acb6ba1c87e218,36693,2B,woman,NA,NA,M2 is being seduced by M4,seduce2,rating_causation,"{""Q0"":1}",[0],M4 started seducing M2 first,M2 started seducing M4 first
null,Beth is being shouted at by Jane,NA,NA,NA,html-keyboard-response,115,626407,0.0-43.0-0.0,anomymised,65658308d20c86dae326cedf,6567035e57acb6ba1c87e218,36693,2B,woman,NA,null,W1 is being shouted at by W3,shout1,sentence,NA,NA,NA,NA
4877.299999999814,NA,NA,NA,NA,survey-likert-extra-labels,116,631286,0.0-43.0-1.0-0.0,anomymised,65658308d20c86dae326cedf,6567035e57acb6ba1c87e218,36693,2B,woman,NA,NA,W1 is being shouted at by W3,shout1,rating_causation,"{""Q0"":1}",[0],W3 shouted at W1 first,W1 shouted at W3 first
6448.699999999721,NA,NA,NA,NA,survey-likert-extra-labels,117,637737,0.0-43.0-2.0,anomymised,65658308d20c86dae326cedf,6567035e57acb6ba1c87e218,36693,2B,woman,NA,NA,W1 is being shouted at by W3,shout1,rating_volition,"{""Q0"":2}",[0],W3 wanted to shout at W1,W1 wanted to shout at W3
null,Kate is teaching Mike,NA,NA,NA,html-keyboard-response,118,639740,0.0-44.0-0.0,anomymised,65658308d20c86dae326cedf,6567035e57acb6ba1c87e218,36693,2B,woman,NA,null,W2 is teaching M4,teach,sentence,NA,NA,NA,NA
4638.100000000093,NA,NA,NA,NA,survey-likert-extra-labels,119,644380,0.0-44.0-1.0-0.0,anomymised,65658308d20c86dae326cedf,6567035e57acb6ba1c87e218,36693,2B,woman,NA,NA,W2 is teaching M4,teach,rating_causation,"{""Q0"":6}",[0],W2 is learning from M4,M4 is learning from W2
6712.600000000093,NA,NA,NA,NA,survey-likert-extra-labels,120,651096,0.0-44.0-2.0,anomymised,65658308d20c86dae326cedf,6567035e57acb6ba1c87e218,36693,2B,woman,NA,NA,W2 is teaching M4,teach,rating_volition,"{""Q0"":0}",[0],W2 is educating M4,M4 is educating W2
null,Luke is being kissed by Fred,NA,NA,NA,html-keyboard-response,121,653113,0.0-45.0-0.0,anomymised,65658308d20c86dae326cedf,6567035e57acb6ba1c87e218,36693,2B,woman,NA,null,M3 is being kissed by M1,kiss2,sentence,NA,NA,NA,NA
3734.600000000093,NA,NA,NA,NA,survey-likert-extra-labels,122,656850,0.0-45.0-2.0,anomymised,65658308d20c86dae326cedf,6567035e57acb6ba1c87e218,36693,2B,woman,NA,NA,M3 is being kissed by M1,kiss2,rating_volition,"{""Q0"":1}",[0],M3 wanted to kiss M1,M1 wanted to kiss M3
4957.600000000093,NA,NA,NA,NA,survey-likert-extra-labels,123,661810,0.0-45.0-3.0-0.0,anomymised,65658308d20c86dae326cedf,6567035e57acb6ba1c87e218,36693,2B,woman,NA,NA,M3 is being kissed by M1,kiss2,rating_causation,"{""Q0"":1}",[0],M3 asked to kiss M1,M1 asked to kiss M3
null,Ruth is being looked at by Dave,NA,NA,NA,html-keyboard-response,124,663822,0.0-46.0-0.0,anomymised,65658308d20c86dae326cedf,6567035e57acb6ba1c87e218,36693,2B,woman,NA,null,W4 is being looked at by M2,look4,sentence,NA,NA,NA,NA
5977.800000000279,NA,NA,NA,NA,survey-likert-extra-labels,125,669801,0.0-46.0-2.0,anomymised,65658308d20c86dae326cedf,6567035e57acb6ba1c87e218,36693,2B,woman,NA,NA,W4 is being looked at by M2,look4,rating_volition,"{""Q0"":6}",[0],W4 wanted to look at M2,M2 wanted to look at W4
5376.9000000003725,NA,NA,NA,NA,survey-likert-extra-labels,126,675181,0.0-46.0-3.0-0.0,anomymised,65658308d20c86dae326cedf,6567035e57acb6ba1c87e218,36693,2B,woman,NA,NA,W4 is being looked at by M2,look4,rating_causation,"{""Q0"":6}",[0],W4 looked at M2 first,M2 looked at W4 first
null,Dave is being touched by Mike,NA,NA,NA,html-keyboard-response,127,677192,0.0-47.0-0.0,anomymised,65658308d20c86dae326cedf,6567035e57acb6ba1c87e218,36693,2B,woman,NA,null,M2 is being touched by M4,touch2,sentence,NA,NA,NA,NA
3974.0999999996275,NA,NA,NA,NA,survey-likert-extra-labels,128,681168,0.0-47.0-2.0,anomymised,65658308d20c86dae326cedf,6567035e57acb6ba1c87e218,36693,2B,woman,NA,NA,M2 is being touched by M4,touch2,rating_volition,"{""Q0"":4}",[0],M4 wanted to touch M2,M2 wanted to touch M4
11248.69999999972,NA,NA,NA,NA,survey-likert-extra-labels,129,692419,0.0-47.0-3.0-0.0,anomymised,65658308d20c86dae326cedf,6567035e57acb6ba1c87e218,36693,2B,woman,NA,NA,M2 is being touched by M4,touch2,rating_causation,"{""Q0"":1}",[0],M4 asked to touch M2,M2 asked to touch M4
null,Fred is being opposed by Luke,NA,NA,NA,html-keyboard-response,130,694430,0.0-48.0-0.0,anomymised,65658308d20c86dae326cedf,6567035e57acb6ba1c87e218,36693,2B,woman,NA,null,M1 is being opposed by M3,oppose2,sentence,NA,NA,NA,NA
5094.5,NA,NA,NA,NA,survey-likert-extra-labels,131,699527,0.0-48.0-1.0-0.0,anomymised,65658308d20c86dae326cedf,6567035e57acb6ba1c87e218,36693,2B,woman,NA,NA,M1 is being opposed by M3,oppose2,rating_causation,"{""Q0"":5}",[0],M3 started opposing M1,M1 started opposing M3
4595.799999999814,NA,NA,NA,NA,survey-likert-extra-labels,132,704126,0.0-48.0-2.0,anomymised,65658308d20c86dae326cedf,6567035e57acb6ba1c87e218,36693,2B,woman,NA,NA,M1 is being opposed by M3,oppose2,rating_volition,"{""Q0"":4}",[0],M3 wanted to oppose M1,M1 wanted to oppose M3
null,Beth is being copied by Luke,NA,NA,NA,html-keyboard-response,133,706131,0.0-49.0-0.0,anomymised,65658308d20c86dae326cedf,6567035e57acb6ba1c87e218,36693,2B,woman,NA,null,W1 is being copied by M3,copy4,sentence,NA,NA,NA,NA
7768,NA,NA,NA,NA,survey-likert-extra-labels,134,713900,0.0-49.0-1.0-0.0,anomymised,65658308d20c86dae326cedf,6567035e57acb6ba1c87e218,36693,2B,woman,NA,NA,W1 is being copied by M3,copy4,rating_causation,"{""Q0"":1}",[0],W1 started copying M3 first,M3 started copying W1 first
3812.100000000093,NA,NA,NA,NA,survey-likert-extra-labels,135,717717,0.0-49.0-2.0,anomymised,65658308d20c86dae326cedf,6567035e57acb6ba1c87e218,36693,2B,woman,NA,NA,W1 is being copied by M3,copy4,rating_volition,"{""Q0"":2}",[0],W1 wanted to copy M3,M3 wanted to copy W1
null,Kate is being touched by Ruth,NA,NA,NA,html-keyboard-response,136,719732,0.0-50.0-0.0,anomymised,65658308d20c86dae326cedf,6567035e57acb6ba1c87e218,36693,2B,woman,NA,null,W2 is being touched by W4,touch1,sentence,NA,NA,NA,NA
8948,NA,NA,NA,NA,survey-likert-extra-labels,137,728681,0.0-50.0-1.0-0.0,anomymised,65658308d20c86dae326cedf,6567035e57acb6ba1c87e218,36693,2B,woman,NA,NA,W2 is being touched by W4,touch1,rating_causation,"{""Q0"":6}",[0],W4 asked to touch W2,W2 asked to touch W4
5634.5,NA,NA,NA,NA,survey-likert-extra-labels,138,734320,0.0-50.0-2.0,anomymised,65658308d20c86dae326cedf,6567035e57acb6ba1c87e218,36693,2B,woman,NA,NA,W2 is being touched by W4,touch1,rating_volition,"{""Q0"":5}",[0],W4 wanted to touch W2,W2 wanted to touch W4
null,Beth is being hugged by Jane,NA,NA,NA,html-keyboard-response,139,736334,0.0-51.0-0.0,anomymised,65658308d20c86dae326cedf,6567035e57acb6ba1c87e218,36693,2B,woman,NA,null,W1 is being hugged by W3,hug1,sentence,NA,NA,NA,NA
15647.69999999972,NA,NA,NA,NA,survey-likert-extra-labels,140,751984,0.0-51.0-2.0,anomymised,65658308d20c86dae326cedf,6567035e57acb6ba1c87e218,36693,2B,woman,NA,NA,W1 is being hugged by W3,hug1,rating_volition,"{""Q0"":4}",[0],W3 wanted to hug W1,W1 wanted to hug W3
5398.399999999907,NA,NA,NA,NA,survey-likert-extra-labels,141,757385,0.0-51.0-3.0-0.0,anomymised,65658308d20c86dae326cedf,6567035e57acb6ba1c87e218,36693,2B,woman,NA,NA,W1 is being hugged by W3,hug1,rating_causation,"{""Q0"":4}",[0],W3 asked to hug W1,W1 asked to hug W3
null,Dave is being shouted at by Ruth,NA,NA,NA,html-keyboard-response,142,759400,0.0-52.0-0.0,anomymised,65658308d20c86dae326cedf,6567035e57acb6ba1c87e218,36693,2B,woman,NA,null,M2 is being shouted at by W4,shout3,sentence,NA,NA,NA,NA
2509.4000000003725,NA,NA,NA,NA,survey-likert-extra-labels,143,761911,0.0-52.0-2.0,anomymised,65658308d20c86dae326cedf,6567035e57acb6ba1c87e218,36693,2B,woman,NA,NA,M2 is being shouted at by W4,shout3,rating_volition,"{""Q0"":3}",[0],W4 wanted to shout at M2,M2 wanted to shout at W4
6973.5999999996275,NA,NA,NA,NA,survey-likert-extra-labels,144,768887,0.0-52.0-3.0-0.0,anomymised,65658308d20c86dae326cedf,6567035e57acb6ba1c87e218,36693,2B,woman,NA,NA,M2 is being shouted at by W4,shout3,rating_causation,"{""Q0"":6}",[0],W4 shouted at M2 first,M2 shouted at W4 first
null,Kate is being opposed by Mike,NA,NA,NA,html-keyboard-response,145,770896,0.0-53.0-0.0,anomymised,65658308d20c86dae326cedf,6567035e57acb6ba1c87e218,36693,2B,woman,NA,null,W2 is being opposed by M4,oppose3,sentence,NA,NA,NA,NA
4851.100000000093,NA,NA,NA,NA,survey-likert-extra-labels,146,775749,0.0-53.0-2.0,anomymised,65658308d20c86dae326cedf,6567035e57acb6ba1c87e218,36693,2B,woman,NA,NA,W2 is being opposed by M4,oppose3,rating_volition,"{""Q0"":0}",[0],M4 wanted to oppose W2,W2 wanted to oppose M4
4969,NA,NA,NA,NA,survey-likert-extra-labels,147,780721,0.0-53.0-3.0-0.0,anomymised,65658308d20c86dae326cedf,6567035e57acb6ba1c87e218,36693,2B,woman,NA,NA,W2 is being opposed by M4,oppose3,rating_causation,"{""Q0"":0}",[0],M4 started opposing W2,W2 started opposing M4
null,Kate is being seduced by Ruth,NA,NA,NA,html-keyboard-response,148,782734,0.0-54.0-0.0,anomymised,65658308d20c86dae326cedf,6567035e57acb6ba1c87e218,36693,2B,woman,NA,null,W2 is being seduced by W4,seduce1,sentence,NA,NA,NA,NA
6597.100000000093,NA,NA,NA,NA,survey-likert-extra-labels,149,789333,0.0-54.0-2.0,anomymised,65658308d20c86dae326cedf,6567035e57acb6ba1c87e218,36693,2B,woman,NA,NA,W2 is being seduced by W4,seduce1,rating_volition,"{""Q0"":1}",[0],W4 wanted to seduce W2,W2 wanted to seduce W4
3886,NA,NA,NA,NA,survey-likert-extra-labels,150,793223,0.0-54.0-3.0-0.0,anomymised,65658308d20c86dae326cedf,6567035e57acb6ba1c87e218,36693,2B,woman,NA,NA,W2 is being seduced by W4,seduce1,rating_causation,"{""Q0"":1}",[0],W4 started seducing W2 first,W2 started seducing W4 first
2703.5,<p>Thank you for completing that task.</p><p>The final part of this session is a short questionnaire.</p><p>Press Continue.</p>,0,Continue,Continue,html-button-response,151,795929,0.0-55.0,anomymised,65658308d20c86dae326cedf,6567035e57acb6ba1c87e218,36693,2B,woman,NA,NA,NA,NA,NA,NA,NA,NA,NA
31181.5,NA,NA,NA,NA,survey-text,152,828125,0.0-56.0,anomymised,65658308d20c86dae326cedf,6567035e57acb6ba1c87e218,36693,2B,woman,NA,NA,NA,NA,demographics,"{""Q0"":""48"",""Q1"":""English"",""Q2"":""English"",""Q3"":""United Kingdom"",""Q4"":""British"",""Q5"":""White"",""Q6"":""Female""}",NA,NA,NA
3523.3000000002794,<p>This is the last question - thank you for taking part! Have you lived in the UK for the last 5 years or more?</p>,0,"Yes,No",Yes,html-button-response,153,831650,0.0-57.0,anomymised,65658308d20c86dae326cedf,6567035e57acb6ba1c87e218,36693,2B,woman,NA,NA,NA,NA,fiveyears,NA,NA,NA,NA
