rt,stimulus,button_pressed,choices,ChosenStimulus,trial_type,trial_index,time_elapsed,internal_node_id,subject_id,study_id,session_id,subject,list,ppt_gender,url,key_press,sentence_type,verb,test_part,responses,question_order,left_part,right_part
2925.300000011921,Welcome to the experiment. Press Continue to begin.,0,Continue,Continue,html-button-response,0,2927,0.0-0.0,anomymised,656582f39349a91f9e20cf14,6567381efd348ca2d0c89d11,38957,1,woman,NA,NA,NA,NA,NA,NA,NA,NA,NA
22051.100000023842,NA,NA,NA,NA,external-html,1,26031,0.0-1.0,anomymised,656582f39349a91f9e20cf14,6567381efd348ca2d0c89d11,38957,1,woman,consent.html,NA,NA,NA,NA,NA,NA,NA,NA
14614.100000023842,"<p>Welcome.</p><p>In this experiment we will ask you to imagine some situations.</p><p>Each trial starts with a description of an event.</p><p>Then you will see alternative descriptions of that event, and you will rate on a scale how best they match the original description.</p><p>You will give your answer by clicking a button on a rating scale.</p><p>To do this task, you will have to use your imagination to visualise these events.</p><br><p>Ready?</p>",0,Continue,Continue,html-button-response,2,40663,0.0-2.0,anomymised,656582f39349a91f9e20cf14,6567381efd348ca2d0c89d11,38957,1,woman,NA,NA,NA,NA,NA,NA,NA,NA,NA
7077,"<p>Before the experiment starts, you will watch an example trial. Press 'Continue'.</p>",0,Continue,Continue,html-button-response,3,48742,0.0-3.0,anomymised,656582f39349a91f9e20cf14,6567381efd348ca2d0c89d11,38957,1,woman,NA,NA,NA,NA,NA,NA,NA,NA,NA
null,The police officer is arresting the robber,NA,NA,NA,html-keyboard-response,4,51769,0.0-4.0,anomymised,656582f39349a91f9e20cf14,6567381efd348ca2d0c89d11,38957,1,woman,NA,null,NA,NA,NA,NA,NA,NA,NA
21618.80000001192,<img src='img/Example-trial.jpg' style='height:550px;''></img>,0,Continue,Continue,html-button-response,5,73390,0.0-5.0,anomymised,656582f39349a91f9e20cf14,6567381efd348ca2d0c89d11,38957,1,woman,NA,NA,NA,NA,NA,NA,NA,NA,NA
7889.899999976158,<p>Ready to start the experiment?</p><br><p><strong>Remember to give an answer by clicking a button on the rating scale.</strong></p><p>Press 'Continue' to begin.</p>,0,Continue,Continue,html-button-response,6,82294,0.0-6.0,anomymised,656582f39349a91f9e20cf14,6567381efd348ca2d0c89d11,38957,1,woman,NA,NA,NA,NA,NA,NA,NA,NA,NA
null,Mike is being greeted by Dave,NA,NA,NA,html-keyboard-response,7,85319,0.0-7.0-0.0,anomymised,656582f39349a91f9e20cf14,6567381efd348ca2d0c89d11,38957,1,woman,NA,null,M2 is being greeted by M4,greet2,sentence,NA,NA,NA,NA
20475.69999998808,NA,NA,NA,NA,survey-likert-extra-labels,8,105799,0.0-7.0-1.0-0.0,anomymised,656582f39349a91f9e20cf14,6567381efd348ca2d0c89d11,38957,1,woman,NA,NA,M2 is being greeted by M4,greet2,rating_causation,"{""Q0"":0}",[0],M4 started greeting M2 first,M2 started greeting M4 first
14925.199999988079,NA,NA,NA,NA,survey-likert-extra-labels,9,120726,0.0-7.0-2.0,anomymised,656582f39349a91f9e20cf14,6567381efd348ca2d0c89d11,38957,1,woman,NA,NA,M2 is being greeted by M4,greet2,rating_volition,"{""Q0"":0}",[0],M4 wanted to greet M2,M2 wanted to greet M4
null,Dave is being seduced by Mike,NA,NA,NA,html-keyboard-response,10,122734,0.0-8.0-0.0,anomymised,656582f39349a91f9e20cf14,6567381efd348ca2d0c89d11,38957,1,woman,NA,null,M4 is being seduced by M2,seduce2,sentence,NA,NA,NA,NA
18142.100000023842,NA,NA,NA,NA,survey-likert-extra-labels,11,140878,0.0-8.0-2.0,anomymised,656582f39349a91f9e20cf14,6567381efd348ca2d0c89d11,38957,1,woman,NA,NA,M4 is being seduced by M2,seduce2,rating_volition,"{""Q0"":6}",[0],M4 wanted to seduce M2,M2 wanted to seduce M4
18021.899999976158,NA,NA,NA,NA,survey-likert-extra-labels,12,158903,0.0-8.0-3.0-0.0,anomymised,656582f39349a91f9e20cf14,6567381efd348ca2d0c89d11,38957,1,woman,NA,NA,M4 is being seduced by M2,seduce2,rating_causation,"{""Q0"":6}",[0],M4 started seducing M2 first,M2 started seducing M4 first
null,Kate is feeding Luke,NA,NA,NA,html-keyboard-response,13,160904,0.0-9.0-0.0,anomymised,656582f39349a91f9e20cf14,6567381efd348ca2d0c89d11,38957,1,woman,NA,null,W3 is feeding M1,feed,sentence,NA,NA,NA,NA
8964,NA,NA,NA,NA,survey-likert-extra-labels,14,169870,0.0-9.0-2.0,anomymised,656582f39349a91f9e20cf14,6567381efd348ca2d0c89d11,38957,1,woman,NA,NA,W3 is feeding M1,feed,rating_volition,"{""Q0"":0}",[0],W3 cooked for M1,M1 cooked for W3
10237.5,NA,NA,NA,NA,survey-likert-extra-labels,15,180110,0.0-9.0-3.0-0.0,anomymised,656582f39349a91f9e20cf14,6567381efd348ca2d0c89d11,38957,1,woman,NA,NA,W3 is feeding M1,feed,rating_causation,"{""Q0"":6}",[0],W3 is eating M1's food,M1 is eating W3's food
null,Ruth is being challenged by Fred,NA,NA,NA,html-keyboard-response,16,182122,0.0-10.0-0.0,anomymised,656582f39349a91f9e20cf14,6567381efd348ca2d0c89d11,38957,1,woman,NA,null,W1 is being challenged by M3,challenge3,sentence,NA,NA,NA,NA
11234.399999976158,NA,NA,NA,NA,survey-likert-extra-labels,17,193358,0.0-10.0-1.0-0.0,anomymised,656582f39349a91f9e20cf14,6567381efd348ca2d0c89d11,38957,1,woman,NA,NA,W1 is being challenged by M3,challenge3,rating_causation,"{""Q0"":6}",[0],W1 started challenging M3 first,M3 started challenging W1 first
9965.899999976158,NA,NA,NA,NA,survey-likert-extra-labels,18,203326,0.0-10.0-2.0,anomymised,656582f39349a91f9e20cf14,6567381efd348ca2d0c89d11,38957,1,woman,NA,NA,W1 is being challenged by M3,challenge3,rating_volition,"{""Q0"":6}",[0],W1 wanted to challenge M3,M3 wanted to challenge W1
null,Dave is being shouted at by Jane,NA,NA,NA,html-keyboard-response,19,205337,0.0-11.0-0.0,anomymised,656582f39349a91f9e20cf14,6567381efd348ca2d0c89d11,38957,1,woman,NA,null,M4 is being shouted at by W2,shout4,sentence,NA,NA,NA,NA
7379.199999988079,NA,NA,NA,NA,survey-likert-extra-labels,20,212718,0.0-11.0-2.0,anomymised,656582f39349a91f9e20cf14,6567381efd348ca2d0c89d11,38957,1,woman,NA,NA,M4 is being shouted at by W2,shout4,rating_volition,"{""Q0"":6}",[0],M4 wanted to shout at W2,W2 wanted to shout at M4
10725.5,NA,NA,NA,NA,survey-likert-extra-labels,21,223447,0.0-11.0-3.0-0.0,anomymised,656582f39349a91f9e20cf14,6567381efd348ca2d0c89d11,38957,1,woman,NA,NA,M4 is being shouted at by W2,shout4,rating_causation,"{""Q0"":6}",[0],M4 shouted at W2 first,W2 shouted at M4 first
null,Mike is being kissed by Beth,NA,NA,NA,html-keyboard-response,22,225449,0.0-12.0-0.0,anomymised,656582f39349a91f9e20cf14,6567381efd348ca2d0c89d11,38957,1,woman,NA,null,M2 is being kissed by W4,kiss3,sentence,NA,NA,NA,NA
5708.300000011921,NA,NA,NA,NA,survey-likert-extra-labels,23,231159,0.0-12.0-2.0,anomymised,656582f39349a91f9e20cf14,6567381efd348ca2d0c89d11,38957,1,woman,NA,NA,M2 is being kissed by W4,kiss3,rating_volition,"{""Q0"":0}",[0],W4 wanted to kiss M2,M2 wanted to kiss W4
32486.19999998808,NA,NA,NA,NA,survey-likert-extra-labels,24,263647,0.0-12.0-3.0-0.0,anomymised,656582f39349a91f9e20cf14,6567381efd348ca2d0c89d11,38957,1,woman,NA,NA,M2 is being kissed by W4,kiss3,rating_causation,"{""Q0"":0}",[0],W4 asked to kiss M2,M2 asked to kiss W4
null,Jane is being kissed by Dave,NA,NA,NA,html-keyboard-response,25,265648,0.0-13.0-0.0,anomymised,656582f39349a91f9e20cf14,6567381efd348ca2d0c89d11,38957,1,woman,NA,null,W2 is being kissed by M4,kiss4,sentence,NA,NA,NA,NA
15581.199999988079,NA,NA,NA,NA,survey-likert-extra-labels,26,281231,0.0-13.0-1.0-0.0,anomymised,656582f39349a91f9e20cf14,6567381efd348ca2d0c89d11,38957,1,woman,NA,NA,W2 is being kissed by M4,kiss4,rating_causation,"{""Q0"":1}",[0],M4 asked to kiss W2,W2 asked to kiss M4
11926.100000023842,NA,NA,NA,NA,survey-likert-extra-labels,27,293159,0.0-13.0-2.0,anomymised,656582f39349a91f9e20cf14,6567381efd348ca2d0c89d11,38957,1,woman,NA,NA,W2 is being kissed by M4,kiss4,rating_volition,"{""Q0"":0}",[0],M4 wanted to kiss W2,W2 wanted to kiss M4
null,Dave is being opposed by Jane,NA,NA,NA,html-keyboard-response,28,295169,0.0-14.0-0.0,anomymised,656582f39349a91f9e20cf14,6567381efd348ca2d0c89d11,38957,1,woman,NA,null,M4 is being opposed by W2,oppose3,sentence,NA,NA,NA,NA
7171.600000023842,NA,NA,NA,NA,survey-likert-extra-labels,29,302343,0.0-14.0-1.0-0.0,anomymised,656582f39349a91f9e20cf14,6567381efd348ca2d0c89d11,38957,1,woman,NA,NA,M4 is being opposed by W2,oppose3,rating_causation,"{""Q0"":6}",[0],M4 started opposing W2,W2 started opposing M4
9493.800000011921,NA,NA,NA,NA,survey-likert-extra-labels,30,311839,0.0-14.0-2.0,anomymised,656582f39349a91f9e20cf14,6567381efd348ca2d0c89d11,38957,1,woman,NA,NA,M4 is being opposed by W2,oppose3,rating_volition,"{""Q0"":6}",[0],M4 wanted to oppose W2,W2 wanted to oppose M4
null,Luke is being touched by Kate,NA,NA,NA,html-keyboard-response,31,313845,0.0-15.0-0.0,anomymised,656582f39349a91f9e20cf14,6567381efd348ca2d0c89d11,38957,1,woman,NA,null,M1 is being touched by W3,touch3,sentence,NA,NA,NA,NA
13551.300000011921,NA,NA,NA,NA,survey-likert-extra-labels,32,327399,0.0-15.0-1.0-0.0,anomymised,656582f39349a91f9e20cf14,6567381efd348ca2d0c89d11,38957,1,woman,NA,NA,M1 is being touched by W3,touch3,rating_causation,"{""Q0"":5}",[0],M1 asked to touch W3,W3 asked to touch M1
18029.599999964237,NA,NA,NA,NA,survey-likert-extra-labels,33,345431,0.0-15.0-2.0,anomymised,656582f39349a91f9e20cf14,6567381efd348ca2d0c89d11,38957,1,woman,NA,NA,M1 is being touched by W3,touch3,rating_volition,"{""Q0"":6}",[0],M1 wanted to touch W3,W3 wanted to touch M1
null,Ruth is being seduced by Fred,NA,NA,NA,html-keyboard-response,34,347439,0.0-16.0-0.0,anomymised,656582f39349a91f9e20cf14,6567381efd348ca2d0c89d11,38957,1,woman,NA,null,W1 is being seduced by M3,seduce4,sentence,NA,NA,NA,NA
7750.199999988079,NA,NA,NA,NA,survey-likert-extra-labels,35,355191,0.0-16.0-1.0-0.0,anomymised,656582f39349a91f9e20cf14,6567381efd348ca2d0c89d11,38957,1,woman,NA,NA,W1 is being seduced by M3,seduce4,rating_causation,"{""Q0"":6}",[0],W1 started seducing M3 first,M3 started seducing W1 first
16053.699999988079,NA,NA,NA,NA,survey-likert-extra-labels,36,371247,0.0-16.0-2.0,anomymised,656582f39349a91f9e20cf14,6567381efd348ca2d0c89d11,38957,1,woman,NA,NA,W1 is being seduced by M3,seduce4,rating_volition,"{""Q0"":6}",[0],W1 wanted to seducing M3,M3 wanted to seducing W1
null,Luke is driving Fred,NA,NA,NA,html-keyboard-response,37,373252,0.0-17.0-0.0,anomymised,656582f39349a91f9e20cf14,6567381efd348ca2d0c89d11,38957,1,woman,NA,null,M1 is driving M3,drive,sentence,NA,NA,NA,NA
10112.699999988079,NA,NA,NA,NA,survey-likert-extra-labels,38,383367,0.0-17.0-2.0,anomymised,656582f39349a91f9e20cf14,6567381efd348ca2d0c89d11,38957,1,woman,NA,NA,M1 is driving M3,drive,rating_volition,"{""Q0"":6}",[0],M1 is M3's passenger,M3 is M1's passenger
7605.899999976158,NA,NA,NA,NA,survey-likert-extra-labels,39,390975,0.0-17.0-3.0-0.0,anomymised,656582f39349a91f9e20cf14,6567381efd348ca2d0c89d11,38957,1,woman,NA,NA,M1 is driving M3,drive,rating_causation,"{""Q0"":0}",[0],M1 is taking M3 somewhere,M3 is taking M1 somewhere
null,Jane is teaching Dave,NA,NA,NA,html-keyboard-response,40,392987,0.0-18.0-0.0,anomymised,656582f39349a91f9e20cf14,6567381efd348ca2d0c89d11,38957,1,woman,NA,null,W2 is teaching M4,teach,sentence,NA,NA,NA,NA
23321.30000001192,NA,NA,NA,NA,survey-likert-extra-labels,41,416311,0.0-18.0-1.0-0.0,anomymised,656582f39349a91f9e20cf14,6567381efd348ca2d0c89d11,38957,1,woman,NA,NA,W2 is teaching M4,teach,rating_causation,"{""Q0"":6}",[0],W2 is learning from M4,M4 is learning from W2
5309.400000035763,NA,NA,NA,NA,survey-likert-extra-labels,42,421623,0.0-18.0-2.0,anomymised,656582f39349a91f9e20cf14,6567381efd348ca2d0c89d11,38957,1,woman,NA,NA,W2 is teaching M4,teach,rating_volition,"{""Q0"":0}",[0],W2 is educating M4,M4 is educating W2
null,Beth is being hugged by Mike,NA,NA,NA,html-keyboard-response,43,423626,0.0-19.0-0.0,anomymised,656582f39349a91f9e20cf14,6567381efd348ca2d0c89d11,38957,1,woman,NA,null,W4 is being hugged by M2,hug4,sentence,NA,NA,NA,NA
30755.900000035763,NA,NA,NA,NA,survey-likert-extra-labels,44,454383,0.0-19.0-1.0-0.0,anomymised,656582f39349a91f9e20cf14,6567381efd348ca2d0c89d11,38957,1,woman,NA,NA,W4 is being hugged by M2,hug4,rating_causation,"{""Q0"":6}",[0],W4 asked to hug M2,M2 asked to hug W4
6229.600000023842,NA,NA,NA,NA,survey-likert-extra-labels,45,460615,0.0-19.0-2.0,anomymised,656582f39349a91f9e20cf14,6567381efd348ca2d0c89d11,38957,1,woman,NA,NA,W4 is being hugged by M2,hug4,rating_volition,"{""Q0"":6}",[0],W4 wanted to hug M2,M2 wanted to hug W4
null,Mike is being looked at by Beth,NA,NA,NA,html-keyboard-response,46,462620,0.0-20.0-0.0,anomymised,656582f39349a91f9e20cf14,6567381efd348ca2d0c89d11,38957,1,woman,NA,null,M2 is being looked at by W4,look4,sentence,NA,NA,NA,NA
8944.900000035763,NA,NA,NA,NA,survey-likert-extra-labels,47,471567,0.0-20.0-2.0,anomymised,656582f39349a91f9e20cf14,6567381efd348ca2d0c89d11,38957,1,woman,NA,NA,M2 is being looked at by W4,look4,rating_volition,"{""Q0"":0}",[0],W4 wanted to look at M2,M2 wanted to look at W4
6765.800000011921,NA,NA,NA,NA,survey-likert-extra-labels,48,478335,0.0-20.0-3.0-0.0,anomymised,656582f39349a91f9e20cf14,6567381efd348ca2d0c89d11,38957,1,woman,NA,NA,M2 is being looked at by W4,look4,rating_causation,"{""Q0"":0}",[0],W4 looked at M2 first,M2 looked at W4 first
null,Jane is being greeted by Beth,NA,NA,NA,html-keyboard-response,49,480338,0.0-21.0-0.0,anomymised,656582f39349a91f9e20cf14,6567381efd348ca2d0c89d11,38957,1,woman,NA,null,W2 is being greeted by W4,greet1,sentence,NA,NA,NA,NA
8946.800000011921,NA,NA,NA,NA,survey-likert-extra-labels,50,489287,0.0-21.0-2.0,anomymised,656582f39349a91f9e20cf14,6567381efd348ca2d0c89d11,38957,1,woman,NA,NA,W2 is being greeted by W4,greet1,rating_volition,"{""Q0"":0}",[0],W4 wanted to greet W2,W2 wanted to greet W4
7093.899999976158,NA,NA,NA,NA,survey-likert-extra-labels,51,496383,0.0-21.0-3.0-0.0,anomymised,656582f39349a91f9e20cf14,6567381efd348ca2d0c89d11,38957,1,woman,NA,NA,W2 is being greeted by W4,greet1,rating_causation,"{""Q0"":0}",[0],W4 started greeting W2 first,W2 started greeting W4 first
null,Kate is being hugged by Ruth,NA,NA,NA,html-keyboard-response,52,498385,0.0-22.0-0.0,anomymised,656582f39349a91f9e20cf14,6567381efd348ca2d0c89d11,38957,1,woman,NA,null,W3 is being hugged by W1,hug1,sentence,NA,NA,NA,NA
7484.199999988079,NA,NA,NA,NA,survey-likert-extra-labels,53,505871,0.0-22.0-2.0,anomymised,656582f39349a91f9e20cf14,6567381efd348ca2d0c89d11,38957,1,woman,NA,NA,W3 is being hugged by W1,hug1,rating_volition,"{""Q0"":6}",[0],W3 wanted to hug W1,W1 wanted to hug W3
23517.69999998808,NA,NA,NA,NA,survey-likert-extra-labels,54,529391,0.0-22.0-3.0-0.0,anomymised,656582f39349a91f9e20cf14,6567381efd348ca2d0c89d11,38957,1,woman,NA,NA,W3 is being hugged by W1,hug1,rating_causation,"{""Q0"":6}",[0],W3 asked to hug W1,W1 asked to hug W3
null,Mike is posing for Dave,NA,NA,NA,html-keyboard-response,55,531393,0.0-23.0-0.0,anomymised,656582f39349a91f9e20cf14,6567381efd348ca2d0c89d11,38957,1,woman,NA,null,M2 is posing for M4,pose,sentence,NA,NA,NA,NA
5477,NA,NA,NA,NA,survey-likert-extra-labels,56,536873,0.0-23.0-2.0,anomymised,656582f39349a91f9e20cf14,6567381efd348ca2d0c89d11,38957,1,woman,NA,NA,M2 is posing for M4,pose,rating_volition,"{""Q0"":""""}",[0],M2 is modelling for M4,M4 is modelling for M2
6459.900000035763,NA,NA,NA,NA,survey-likert-extra-labels,57,543335,0.0-23.0-3.0-0.0,anomymised,656582f39349a91f9e20cf14,6567381efd348ca2d0c89d11,38957,1,woman,NA,NA,M2 is posing for M4,pose,rating_causation,"{""Q0"":6}",[0],M2 is photographing M4,M4 is photographing M2
null,Luke is being challenged by Kate,NA,NA,NA,html-keyboard-response,58,545337,0.0-24.0-0.0,anomymised,656582f39349a91f9e20cf14,6567381efd348ca2d0c89d11,38957,1,woman,NA,null,M1 is being challenged by W3,challenge4,sentence,NA,NA,NA,NA
30212.400000035763,NA,NA,NA,NA,survey-likert-extra-labels,59,575551,0.0-24.0-2.0,anomymised,656582f39349a91f9e20cf14,6567381efd348ca2d0c89d11,38957,1,woman,NA,NA,M1 is being challenged by W3,challenge4,rating_volition,"{""Q0"":6}",[0],M1 wanted to challenge W3,W3 wanted to challenge M1
6237.800000011921,NA,NA,NA,NA,survey-likert-extra-labels,60,581791,0.0-24.0-3.0-0.0,anomymised,656582f39349a91f9e20cf14,6567381efd348ca2d0c89d11,38957,1,woman,NA,NA,M1 is being challenged by W3,challenge4,rating_causation,"{""Q0"":6}",[0],M1 started challenging W3 first,W3 started challenging M1 first
null,Luke is being seduced by Kate,NA,NA,NA,html-keyboard-response,61,583803,0.0-25.0-0.0,anomymised,656582f39349a91f9e20cf14,6567381efd348ca2d0c89d11,38957,1,woman,NA,null,M1 is being seduced by W3,seduce3,sentence,NA,NA,NA,NA
5570.199999988079,NA,NA,NA,NA,survey-likert-extra-labels,62,589374,0.0-25.0-2.0,anomymised,656582f39349a91f9e20cf14,6567381efd348ca2d0c89d11,38957,1,woman,NA,NA,M1 is being seduced by W3,seduce3,rating_volition,"{""Q0"":6}",[0],M1 wanted to seduce W3,W3 wanted to seduce M1
7174,NA,NA,NA,NA,survey-likert-extra-labels,63,596551,0.0-25.0-3.0-0.0,anomymised,656582f39349a91f9e20cf14,6567381efd348ca2d0c89d11,38957,1,woman,NA,NA,M1 is being seduced by W3,seduce3,rating_causation,"{""Q0"":6}",[0],M1 started seducing W3 first,W3 started seducing M1 first
null,Mike is reminding Beth,NA,NA,NA,html-keyboard-response,64,598553,0.0-26.0-0.0,anomymised,656582f39349a91f9e20cf14,6567381efd348ca2d0c89d11,38957,1,woman,NA,null,M2 is reminding W4,remind,sentence,NA,NA,NA,NA
5455.299999952316,NA,NA,NA,NA,survey-likert-extra-labels,65,604010,0.0-26.0-2.0,anomymised,656582f39349a91f9e20cf14,6567381efd348ca2d0c89d11,38957,1,woman,NA,NA,M2 is reminding W4,remind,rating_volition,"{""Q0"":0}",[0],M2 is telling W4 again,W4 is telling M2 again
5602.100000023842,NA,NA,NA,NA,survey-likert-extra-labels,66,609615,0.0-26.0-3.0-0.0,anomymised,656582f39349a91f9e20cf14,6567381efd348ca2d0c89d11,38957,1,woman,NA,NA,M2 is reminding W4,remind,rating_causation,"{""Q0"":6}",[0],M2 is remembering,W4 is remembering
null,Beth is being challenged by Jane,NA,NA,NA,html-keyboard-response,67,611632,0.0-27.0-0.0,anomymised,656582f39349a91f9e20cf14,6567381efd348ca2d0c89d11,38957,1,woman,NA,null,W4 is being challenged by W2,challenge1,sentence,NA,NA,NA,NA
7164.399999976158,NA,NA,NA,NA,survey-likert-extra-labels,68,618799,0.0-27.0-2.0,anomymised,656582f39349a91f9e20cf14,6567381efd348ca2d0c89d11,38957,1,woman,NA,NA,W4 is being challenged by W2,challenge1,rating_volition,"{""Q0"":6}",[0],W4 wanted to challenge W2,W2 wanted to challenge W4
9765.799999952316,NA,NA,NA,NA,survey-likert-extra-labels,69,628567,0.0-27.0-3.0-0.0,anomymised,656582f39349a91f9e20cf14,6567381efd348ca2d0c89d11,38957,1,woman,NA,NA,W4 is being challenged by W2,challenge1,rating_causation,"{""Q0"":6}",[0],W4 started challenging W2 first,W2 started challenging W4 first
null,Jane is carrying Beth,NA,NA,NA,html-keyboard-response,70,630575,0.0-28.0-0.0,anomymised,656582f39349a91f9e20cf14,6567381efd348ca2d0c89d11,38957,1,woman,NA,null,W2 is carrying W4,carry,sentence,NA,NA,NA,NA
15685.399999976158,NA,NA,NA,NA,survey-likert-extra-labels,71,646263,0.0-28.0-1.0-0.0,anomymised,656582f39349a91f9e20cf14,6567381efd348ca2d0c89d11,38957,1,woman,NA,NA,W2 is carrying W4,carry,rating_causation,"{""Q0"":6}",[0],W2 is being moved by W4,W4 is being moved by W2
10109.699999988079,NA,NA,NA,NA,survey-likert-extra-labels,72,656375,0.0-28.0-2.0,anomymised,656582f39349a91f9e20cf14,6567381efd348ca2d0c89d11,38957,1,woman,NA,NA,W2 is carrying W4,carry,rating_volition,"{""Q0"":0}",[0],W2 is transporting W4,W4 is transporting W2
null,Fred is being shouted at by Luke,NA,NA,NA,html-keyboard-response,73,658386,0.0-29.0-0.0,anomymised,656582f39349a91f9e20cf14,6567381efd348ca2d0c89d11,38957,1,woman,NA,null,M3 is being shouted at by M1,shout2,sentence,NA,NA,NA,NA
7882.800000011921,NA,NA,NA,NA,survey-likert-extra-labels,74,666271,0.0-29.0-1.0-0.0,anomymised,656582f39349a91f9e20cf14,6567381efd348ca2d0c89d11,38957,1,woman,NA,NA,M3 is being shouted at by M1,shout2,rating_causation,"{""Q0"":6}",[0],M3 shouted at M1 first,M1 shouted at M3 first
6293.600000023842,NA,NA,NA,NA,survey-likert-extra-labels,75,672567,0.0-29.0-2.0,anomymised,656582f39349a91f9e20cf14,6567381efd348ca2d0c89d11,38957,1,woman,NA,NA,M3 is being shouted at by M1,shout2,rating_volition,"{""Q0"":6}",[0],M3 wanted to shout at M1,M1 wanted to shout at M3
null,Fred is being greeted by Ruth,NA,NA,NA,html-keyboard-response,76,674574,0.0-30.0-0.0,anomymised,656582f39349a91f9e20cf14,6567381efd348ca2d0c89d11,38957,1,woman,NA,null,M3 is being greeted by W1,greet3,sentence,NA,NA,NA,NA
5714.800000011921,NA,NA,NA,NA,survey-likert-extra-labels,77,680291,0.0-30.0-1.0-0.0,anomymised,656582f39349a91f9e20cf14,6567381efd348ca2d0c89d11,38957,1,woman,NA,NA,M3 is being greeted by W1,greet3,rating_causation,"{""Q0"":0}",[0],W1 started greeting M3 first,M3 started greeting W1 first
8978.5,NA,NA,NA,NA,survey-likert-extra-labels,78,689272,0.0-30.0-2.0,anomymised,656582f39349a91f9e20cf14,6567381efd348ca2d0c89d11,38957,1,woman,NA,NA,M3 is being greeted by W1,greet3,rating_volition,"{""Q0"":0}",[0],W1 wanted to greet M3,M3 wanted to greet W1
null,Beth is being opposed by Mike,NA,NA,NA,html-keyboard-response,79,691286,0.0-31.0-0.0,anomymised,656582f39349a91f9e20cf14,6567381efd348ca2d0c89d11,38957,1,woman,NA,null,W4 is being opposed by M2,oppose4,sentence,NA,NA,NA,NA
11199.100000023842,NA,NA,NA,NA,survey-likert-extra-labels,80,702487,0.0-31.0-1.0-0.0,anomymised,656582f39349a91f9e20cf14,6567381efd348ca2d0c89d11,38957,1,woman,NA,NA,W4 is being opposed by M2,oppose4,rating_causation,"{""Q0"":6}",[0],W4 started opposing M2,M2 started opposing W4
5981.399999976158,NA,NA,NA,NA,survey-likert-extra-labels,81,708471,0.0-31.0-2.0,anomymised,656582f39349a91f9e20cf14,6567381efd348ca2d0c89d11,38957,1,woman,NA,NA,W4 is being opposed by M2,oppose4,rating_volition,"{""Q0"":6}",[0],W4 wanted to oppose M2,M2 wanted to oppose W4
null,Jane is being copied by Beth,NA,NA,NA,html-keyboard-response,82,710478,0.0-32.0-0.0,anomymised,656582f39349a91f9e20cf14,6567381efd348ca2d0c89d11,38957,1,woman,NA,null,W2 is being copied by W4,copy1,sentence,NA,NA,NA,NA
6535.200000047684,NA,NA,NA,NA,survey-likert-extra-labels,83,717016,0.0-32.0-1.0-0.0,anomymised,656582f39349a91f9e20cf14,6567381efd348ca2d0c89d11,38957,1,woman,NA,NA,W2 is being copied by W4,copy1,rating_causation,"{""Q0"":0}",[0],W4 started copying W2 first,W2 started copying W4 first
10789.699999988079,NA,NA,NA,NA,survey-likert-extra-labels,84,727808,0.0-32.0-2.0,anomymised,656582f39349a91f9e20cf14,6567381efd348ca2d0c89d11,38957,1,woman,NA,NA,W2 is being copied by W4,copy1,rating_volition,"{""Q0"":0}",[0],W4 wanted to copy W2,W2 wanted to copy W4
null,Fred is being opposed by Luke,NA,NA,NA,html-keyboard-response,85,729816,0.0-33.0-0.0,anomymised,656582f39349a91f9e20cf14,6567381efd348ca2d0c89d11,38957,1,woman,NA,null,M3 is being opposed by M1,oppose2,sentence,NA,NA,NA,NA
8501.600000023842,NA,NA,NA,NA,survey-likert-extra-labels,86,738320,0.0-33.0-2.0,anomymised,656582f39349a91f9e20cf14,6567381efd348ca2d0c89d11,38957,1,woman,NA,NA,M3 is being opposed by M1,oppose2,rating_volition,"{""Q0"":6}",[0],M3 wanted to oppose M1,M1 wanted to oppose M3
6885.800000011921,NA,NA,NA,NA,survey-likert-extra-labels,87,745208,0.0-33.0-3.0-0.0,anomymised,656582f39349a91f9e20cf14,6567381efd348ca2d0c89d11,38957,1,woman,NA,NA,M3 is being opposed by M1,oppose2,rating_causation,"{""Q0"":6}",[0],M3 started opposing M1,M1 started opposing M3
null,Kate is being greeted by Luke,NA,NA,NA,html-keyboard-response,88,747222,0.0-34.0-0.0,anomymised,656582f39349a91f9e20cf14,6567381efd348ca2d0c89d11,38957,1,woman,NA,null,W3 is being greeted by M1,greet4,sentence,NA,NA,NA,NA
15231.800000011921,NA,NA,NA,NA,survey-likert-extra-labels,89,762456,0.0-34.0-1.0-0.0,anomymised,656582f39349a91f9e20cf14,6567381efd348ca2d0c89d11,38957,1,woman,NA,NA,W3 is being greeted by M1,greet4,rating_causation,"{""Q0"":0}",[0],M1 started greeting W3 first,W3 started greeting M1 first
6965.699999988079,NA,NA,NA,NA,survey-likert-extra-labels,90,769424,0.0-34.0-2.0,anomymised,656582f39349a91f9e20cf14,6567381efd348ca2d0c89d11,38957,1,woman,NA,NA,W3 is being greeted by M1,greet4,rating_volition,"{""Q0"":0}",[0],M1 wanted to greet W3,W3 wanted to greet M1
null,Luke is being kissed by Fred,NA,NA,NA,html-keyboard-response,91,771437,0.0-35.0-0.0,anomymised,656582f39349a91f9e20cf14,6567381efd348ca2d0c89d11,38957,1,woman,NA,null,M1 is being kissed by M3,kiss2,sentence,NA,NA,NA,NA
10169.300000011921,NA,NA,NA,NA,survey-likert-extra-labels,92,781608,0.0-35.0-1.0-0.0,anomymised,656582f39349a91f9e20cf14,6567381efd348ca2d0c89d11,38957,1,woman,NA,NA,M1 is being kissed by M3,kiss2,rating_causation,"{""Q0"":1}",[0],M3 asked to kiss M1,M1 asked to kiss M3
12037.800000011921,NA,NA,NA,NA,survey-likert-extra-labels,93,793648,0.0-35.0-2.0,anomymised,656582f39349a91f9e20cf14,6567381efd348ca2d0c89d11,38957,1,woman,NA,NA,M1 is being kissed by M3,kiss2,rating_volition,"{""Q0"":0}",[0],M3 wanted to kiss M1,M1 wanted to kiss M3
null,Mike is being copied by Dave,NA,NA,NA,html-keyboard-response,94,795649,0.0-36.0-0.0,anomymised,656582f39349a91f9e20cf14,6567381efd348ca2d0c89d11,38957,1,woman,NA,null,M2 is being copied by M4,copy2,sentence,NA,NA,NA,NA
9148.300000011921,NA,NA,NA,NA,survey-likert-extra-labels,95,804800,0.0-36.0-2.0,anomymised,656582f39349a91f9e20cf14,6567381efd348ca2d0c89d11,38957,1,woman,NA,NA,M2 is being copied by M4,copy2,rating_volition,"{""Q0"":0}",[0],M4 wanted to copy M2,M2 wanted to copy M4
6717.900000035763,NA,NA,NA,NA,survey-likert-extra-labels,96,811520,0.0-36.0-3.0-0.0,anomymised,656582f39349a91f9e20cf14,6567381efd348ca2d0c89d11,38957,1,woman,NA,NA,M2 is being copied by M4,copy2,rating_causation,"{""Q0"":0}",[0],M4 started copying M2 first,M2 started copying M4 first
null,Ruth is chasing Kate,NA,NA,NA,html-keyboard-response,97,813528,0.0-37.0-0.0,anomymised,656582f39349a91f9e20cf14,6567381efd348ca2d0c89d11,38957,1,woman,NA,null,W1 is chasing W3,chase,sentence,NA,NA,NA,NA
5293.599999964237,NA,NA,NA,NA,survey-likert-extra-labels,98,818824,0.0-37.0-2.0,anomymised,656582f39349a91f9e20cf14,6567381efd348ca2d0c89d11,38957,1,woman,NA,NA,W1 is chasing W3,chase,rating_volition,"{""Q0"":0}",[0],W1 is behind W3,W3 is behind W1
11789.700000047684,NA,NA,NA,NA,survey-likert-extra-labels,99,830616,0.0-37.0-3.0-0.0,anomymised,656582f39349a91f9e20cf14,6567381efd348ca2d0c89d11,38957,1,woman,NA,NA,W1 is chasing W3,chase,rating_causation,"{""Q0"":6}",[0],W1 is running away from W3,W3 is running away from W1
null,Ruth is being touched by Fred,NA,NA,NA,html-keyboard-response,100,832625,0.0-38.0-0.0,anomymised,656582f39349a91f9e20cf14,6567381efd348ca2d0c89d11,38957,1,woman,NA,null,W1 is being touched by M3,touch4,sentence,NA,NA,NA,NA
16011.600000023842,NA,NA,NA,NA,survey-likert-extra-labels,101,848639,0.0-38.0-1.0-0.0,anomymised,656582f39349a91f9e20cf14,6567381efd348ca2d0c89d11,38957,1,woman,NA,NA,W1 is being touched by M3,touch4,rating_causation,"{""Q0"":5}",[0],W1 asked to touch M3,M3 asked to touch W1
7653.899999976158,NA,NA,NA,NA,survey-likert-extra-labels,102,856295,0.0-38.0-2.0,anomymised,656582f39349a91f9e20cf14,6567381efd348ca2d0c89d11,38957,1,woman,NA,NA,W1 is being touched by M3,touch4,rating_volition,"{""Q0"":6}",[0],W1 wanted to touch M3,M3 wanted to touch W1
null,Kate is being copied by Luke,NA,NA,NA,html-keyboard-response,103,858299,0.0-39.0-0.0,anomymised,656582f39349a91f9e20cf14,6567381efd348ca2d0c89d11,38957,1,woman,NA,null,W3 is being copied by M1,copy3,sentence,NA,NA,NA,NA
5337.899999976158,NA,NA,NA,NA,survey-likert-extra-labels,104,863639,0.0-39.0-2.0,anomymised,656582f39349a91f9e20cf14,6567381efd348ca2d0c89d11,38957,1,woman,NA,NA,W3 is being copied by M1,copy3,rating_volition,"{""Q0"":0}",[0],M1 wanted to copy W3,W3 wanted to copy M1
10629.600000023842,NA,NA,NA,NA,survey-likert-extra-labels,105,874271,0.0-39.0-3.0-0.0,anomymised,656582f39349a91f9e20cf14,6567381efd348ca2d0c89d11,38957,1,woman,NA,NA,W3 is being copied by M1,copy3,rating_causation,"{""Q0"":0}",[0],M1 started copying W3 first,W3 started copying M1 first
null,Kate is being shouted at by Ruth,NA,NA,NA,html-keyboard-response,106,876277,0.0-40.0-0.0,anomymised,656582f39349a91f9e20cf14,6567381efd348ca2d0c89d11,38957,1,woman,NA,null,W3 is being shouted at by W1,shout1,sentence,NA,NA,NA,NA
32168.399999976158,NA,NA,NA,NA,survey-likert-extra-labels,107,908448,0.0-40.0-1.0-0.0,anomymised,656582f39349a91f9e20cf14,6567381efd348ca2d0c89d11,38957,1,woman,NA,NA,W3 is being shouted at by W1,shout1,rating_causation,"{""Q0"":6}",[0],W3 shouted at W1 first,W1 shouted at W3 first
7341.799999952316,NA,NA,NA,NA,survey-likert-extra-labels,108,915792,0.0-40.0-2.0,anomymised,656582f39349a91f9e20cf14,6567381efd348ca2d0c89d11,38957,1,woman,NA,NA,W3 is being shouted at by W1,shout1,rating_volition,"{""Q0"":6}",[0],W3 wanted to shout at W1,W1 wanted to shout at W3
null,Dave is being touched by Mike,NA,NA,NA,html-keyboard-response,109,917803,0.0-41.0-0.0,anomymised,656582f39349a91f9e20cf14,6567381efd348ca2d0c89d11,38957,1,woman,NA,null,M4 is being touched by M2,touch2,sentence,NA,NA,NA,NA
7115.199999988079,NA,NA,NA,NA,survey-likert-extra-labels,110,924920,0.0-41.0-2.0,anomymised,656582f39349a91f9e20cf14,6567381efd348ca2d0c89d11,38957,1,woman,NA,NA,M4 is being touched by M2,touch2,rating_volition,"{""Q0"":6}",[0],M4 wanted to touch M2,M2 wanted to touch M4
8957.5,NA,NA,NA,NA,survey-likert-extra-labels,111,933880,0.0-41.0-3.0-0.0,anomymised,656582f39349a91f9e20cf14,6567381efd348ca2d0c89d11,38957,1,woman,NA,NA,M4 is being touched by M2,touch2,rating_causation,"{""Q0"":5}",[0],M4 asked to touch M2,M2 asked to touch M4
null,Jane is being looked at by Dave,NA,NA,NA,html-keyboard-response,112,935882,0.0-42.0-0.0,anomymised,656582f39349a91f9e20cf14,6567381efd348ca2d0c89d11,38957,1,woman,NA,null,W2 is being looked at by M4,look3,sentence,NA,NA,NA,NA
7075.700000047684,NA,NA,NA,NA,survey-likert-extra-labels,113,942960,0.0-42.0-2.0,anomymised,656582f39349a91f9e20cf14,6567381efd348ca2d0c89d11,38957,1,woman,NA,NA,W2 is being looked at by M4,look3,rating_volition,"{""Q0"":0}",[0],M4 wanted to look at W2,W2 wanted to look at M4
8229.399999976158,NA,NA,NA,NA,survey-likert-extra-labels,114,951192,0.0-42.0-3.0-0.0,anomymised,656582f39349a91f9e20cf14,6567381efd348ca2d0c89d11,38957,1,woman,NA,NA,W2 is being looked at by M4,look3,rating_causation,"{""Q0"":0}",[0],M4 looked at W2 first,W2 looked at M4 first
null,Kate is being opposed by Ruth,NA,NA,NA,html-keyboard-response,115,953205,0.0-43.0-0.0,anomymised,656582f39349a91f9e20cf14,6567381efd348ca2d0c89d11,38957,1,woman,NA,null,W3 is being opposed by W1,oppose1,sentence,NA,NA,NA,NA
7761.399999976158,NA,NA,NA,NA,survey-likert-extra-labels,116,960968,0.0-43.0-2.0,anomymised,656582f39349a91f9e20cf14,6567381efd348ca2d0c89d11,38957,1,woman,NA,NA,W3 is being opposed by W1,oppose1,rating_volition,"{""Q0"":6}",[0],W3 wanted to oppose W1,W1 wanted to oppose W3
7437.699999988079,NA,NA,NA,NA,survey-likert-extra-labels,117,968408,0.0-43.0-3.0-0.0,anomymised,656582f39349a91f9e20cf14,6567381efd348ca2d0c89d11,38957,1,woman,NA,NA,W3 is being opposed by W1,oppose1,rating_causation,"{""Q0"":6}",[0],W3 started opposing W1,W1 started opposing W3
null,Luke is being looked at by Fred,NA,NA,NA,html-keyboard-response,118,970425,0.0-44.0-0.0,anomymised,656582f39349a91f9e20cf14,6567381efd348ca2d0c89d11,38957,1,woman,NA,null,M1 is being looked at by M3,look2,sentence,NA,NA,NA,NA
5381.300000011921,NA,NA,NA,NA,survey-likert-extra-labels,119,975808,0.0-44.0-2.0,anomymised,656582f39349a91f9e20cf14,6567381efd348ca2d0c89d11,38957,1,woman,NA,NA,M1 is being looked at by M3,look2,rating_volition,"{""Q0"":0}",[0],M3 wanted to look at M1,M1 wanted to look at M3
19717.69999998808,NA,NA,NA,NA,survey-likert-extra-labels,120,995528,0.0-44.0-3.0-0.0,anomymised,656582f39349a91f9e20cf14,6567381efd348ca2d0c89d11,38957,1,woman,NA,NA,M1 is being looked at by M3,look2,rating_causation,"{""Q0"":0}",[0],M3 looked at M1 first,M1 looked at M3 first
null,Ruth is being kissed by Kate,NA,NA,NA,html-keyboard-response,121,997530,0.0-45.0-0.0,anomymised,656582f39349a91f9e20cf14,6567381efd348ca2d0c89d11,38957,1,woman,NA,null,W1 is being kissed by W3,kiss1,sentence,NA,NA,NA,NA
31988.600000023842,NA,NA,NA,NA,survey-likert-extra-labels,122,1029520,0.0-45.0-2.0,anomymised,656582f39349a91f9e20cf14,6567381efd348ca2d0c89d11,38957,1,woman,NA,NA,W1 is being kissed by W3,kiss1,rating_volition,"{""Q0"":0}",[0],W3 wanted to kiss W1,W1 wanted to kiss W3
13478,NA,NA,NA,NA,survey-likert-extra-labels,123,1043000,0.0-45.0-3.0-0.0,anomymised,656582f39349a91f9e20cf14,6567381efd348ca2d0c89d11,38957,1,woman,NA,NA,W1 is being kissed by W3,kiss1,rating_causation,"{""Q0"":0}",[0],W3 asked to kiss W1,W1 asked to kiss W3
null,Dave is being hugged by Jane,NA,NA,NA,html-keyboard-response,124,1045013,0.0-46.0-0.0,anomymised,656582f39349a91f9e20cf14,6567381efd348ca2d0c89d11,38957,1,woman,NA,null,M4 is being hugged by W2,hug3,sentence,NA,NA,NA,NA
13656.800000011921,NA,NA,NA,NA,survey-likert-extra-labels,125,1058672,0.0-46.0-1.0-0.0,anomymised,656582f39349a91f9e20cf14,6567381efd348ca2d0c89d11,38957,1,woman,NA,NA,M4 is being hugged by W2,hug3,rating_causation,"{""Q0"":6}",[0],M4 asked to hug W2,W2 asked to hug M4
3341.600000023842,NA,NA,NA,NA,survey-likert-extra-labels,126,1062016,0.0-46.0-2.0,anomymised,656582f39349a91f9e20cf14,6567381efd348ca2d0c89d11,38957,1,woman,NA,NA,M4 is being hugged by W2,hug3,rating_volition,"{""Q0"":6}",[0],M4 wanted to hug W2,W2 wanted to hug M4
null,Fred is being copied by Ruth,NA,NA,NA,html-keyboard-response,127,1064033,0.0-47.0-0.0,anomymised,656582f39349a91f9e20cf14,6567381efd348ca2d0c89d11,38957,1,woman,NA,null,M3 is being copied by W1,copy4,sentence,NA,NA,NA,NA
5541,NA,NA,NA,NA,survey-likert-extra-labels,128,1069576,0.0-47.0-2.0,anomymised,656582f39349a91f9e20cf14,6567381efd348ca2d0c89d11,38957,1,woman,NA,NA,M3 is being copied by W1,copy4,rating_volition,"{""Q0"":0}",[0],W1 wanted to copy M3,M3 wanted to copy W1
3710,NA,NA,NA,NA,survey-likert-extra-labels,129,1073288,0.0-47.0-3.0-0.0,anomymised,656582f39349a91f9e20cf14,6567381efd348ca2d0c89d11,38957,1,woman,NA,NA,M3 is being copied by W1,copy4,rating_causation,"{""Q0"":0}",[0],W1 started copying M3 first,M3 started copying W1 first
null,Fred is hiring Ruth,NA,NA,NA,html-keyboard-response,130,1075293,0.0-48.0-0.0,anomymised,656582f39349a91f9e20cf14,6567381efd348ca2d0c89d11,38957,1,woman,NA,null,M3 is hiring W1,hire,sentence,NA,NA,NA,NA
4801.300000011921,NA,NA,NA,NA,survey-likert-extra-labels,131,1080096,0.0-48.0-1.0-0.0,anomymised,656582f39349a91f9e20cf14,6567381efd348ca2d0c89d11,38957,1,woman,NA,NA,M3 is hiring W1,hire,rating_causation,"{""Q0"":6}",[0],M3 will work for W1,W1 will work for M3
3965.800000011921,NA,NA,NA,NA,survey-likert-extra-labels,132,1084064,0.0-48.0-2.0,anomymised,656582f39349a91f9e20cf14,6567381efd348ca2d0c89d11,38957,1,woman,NA,NA,M3 is hiring W1,hire,rating_volition,"{""Q0"":0}",[0],M3 is employing W1,W1 is employing M3
null,Dave is being challenged by Mike,NA,NA,NA,html-keyboard-response,133,1086076,0.0-49.0-0.0,anomymised,656582f39349a91f9e20cf14,6567381efd348ca2d0c89d11,38957,1,woman,NA,null,M4 is being challenged by M2,challenge2,sentence,NA,NA,NA,NA
5698.099999964237,NA,NA,NA,NA,survey-likert-extra-labels,134,1091776,0.0-49.0-1.0-0.0,anomymised,656582f39349a91f9e20cf14,6567381efd348ca2d0c89d11,38957,1,woman,NA,NA,M4 is being challenged by M2,challenge2,rating_causation,"{""Q0"":6}",[0],M4 started challenging M2 first,M2 started challenging M4 first
8957.599999964237,NA,NA,NA,NA,survey-likert-extra-labels,135,1100736,0.0-49.0-2.0,anomymised,656582f39349a91f9e20cf14,6567381efd348ca2d0c89d11,38957,1,woman,NA,NA,M4 is being challenged by M2,challenge2,rating_volition,"{""Q0"":6}",[0],M4 wanted to challenge M2,M2 wanted to challenge M4
null,Beth is being seduced by Jane,NA,NA,NA,html-keyboard-response,136,1102751,0.0-50.0-0.0,anomymised,656582f39349a91f9e20cf14,6567381efd348ca2d0c89d11,38957,1,woman,NA,null,W4 is being seduced by W2,seduce1,sentence,NA,NA,NA,NA
9663.800000011921,NA,NA,NA,NA,survey-likert-extra-labels,137,1112416,0.0-50.0-2.0,anomymised,656582f39349a91f9e20cf14,6567381efd348ca2d0c89d11,38957,1,woman,NA,NA,W4 is being seduced by W2,seduce1,rating_volition,"{""Q0"":6}",[0],W4 wanted to seduce W2,W2 wanted to seduce W4
9477.5,NA,NA,NA,NA,survey-likert-extra-labels,138,1121896,0.0-50.0-3.0-0.0,anomymised,656582f39349a91f9e20cf14,6567381efd348ca2d0c89d11,38957,1,woman,NA,NA,W4 is being seduced by W2,seduce1,rating_causation,"{""Q0"":6}",[0],W4 started seducing W2 first,W2 started seducing W4 first
null,Beth is being touched by Jane,NA,NA,NA,html-keyboard-response,139,1123913,0.0-51.0-0.0,anomymised,656582f39349a91f9e20cf14,6567381efd348ca2d0c89d11,38957,1,woman,NA,null,W4 is being touched by W2,touch1,sentence,NA,NA,NA,NA
5613.099999964237,NA,NA,NA,NA,survey-likert-extra-labels,140,1129528,0.0-51.0-2.0,anomymised,656582f39349a91f9e20cf14,6567381efd348ca2d0c89d11,38957,1,woman,NA,NA,W4 is being touched by W2,touch1,rating_volition,"{""Q0"":6}",[0],W4 wanted to touch W2,W2 wanted to touch W4
6350.100000023842,NA,NA,NA,NA,survey-likert-extra-labels,141,1135880,0.0-51.0-3.0-0.0,anomymised,656582f39349a91f9e20cf14,6567381efd348ca2d0c89d11,38957,1,woman,NA,NA,W4 is being touched by W2,touch1,rating_causation,"{""Q0"":6}",[0],W4 asked to touch W2,W2 asked to touch W4
null,Ruth is being looked at by Kate,NA,NA,NA,html-keyboard-response,142,1137895,0.0-52.0-0.0,anomymised,656582f39349a91f9e20cf14,6567381efd348ca2d0c89d11,38957,1,woman,NA,null,W1 is being looked at by W3,look1,sentence,NA,NA,NA,NA
6591,NA,NA,NA,NA,survey-likert-extra-labels,143,1144488,0.0-52.0-2.0,anomymised,656582f39349a91f9e20cf14,6567381efd348ca2d0c89d11,38957,1,woman,NA,NA,W1 is being looked at by W3,look1,rating_volition,"{""Q0"":0}",[0],W3 wanted to look at W1,W1 wanted to look at W3
6381.5,NA,NA,NA,NA,survey-likert-extra-labels,144,1150872,0.0-52.0-3.0-0.0,anomymised,656582f39349a91f9e20cf14,6567381efd348ca2d0c89d11,38957,1,woman,NA,NA,W1 is being looked at by W3,look1,rating_causation,"{""Q0"":0}",[0],W3 looked at W1 first,W1 looked at W3 first
null,Beth is being shouted at by Mike,NA,NA,NA,html-keyboard-response,145,1152876,0.0-53.0-0.0,anomymised,656582f39349a91f9e20cf14,6567381efd348ca2d0c89d11,38957,1,woman,NA,null,W4 is being shouted at by M2,shout3,sentence,NA,NA,NA,NA
6306.800000011921,NA,NA,NA,NA,survey-likert-extra-labels,146,1159184,0.0-53.0-2.0,anomymised,656582f39349a91f9e20cf14,6567381efd348ca2d0c89d11,38957,1,woman,NA,NA,W4 is being shouted at by M2,shout3,rating_volition,"{""Q0"":6}",[0],W4 wanted to shout at M2,M2 wanted to shout at W4
6093.699999988079,NA,NA,NA,NA,survey-likert-extra-labels,147,1165280,0.0-53.0-3.0-0.0,anomymised,656582f39349a91f9e20cf14,6567381efd348ca2d0c89d11,38957,1,woman,NA,NA,W4 is being shouted at by M2,shout3,rating_causation,"{""Q0"":6}",[0],W4 shouted at M2 first,M2 shouted at W4 first
null,Fred is being hugged by Luke,NA,NA,NA,html-keyboard-response,148,1167284,0.0-54.0-0.0,anomymised,656582f39349a91f9e20cf14,6567381efd348ca2d0c89d11,38957,1,woman,NA,null,M3 is being hugged by M1,hug2,sentence,NA,NA,NA,NA
8194.100000023842,NA,NA,NA,NA,survey-likert-extra-labels,149,1175480,0.0-54.0-1.0-0.0,anomymised,656582f39349a91f9e20cf14,6567381efd348ca2d0c89d11,38957,1,woman,NA,NA,M3 is being hugged by M1,hug2,rating_causation,"{""Q0"":6}",[0],M3 asked to hug M1,M1 asked to hug M3
6269.899999976158,NA,NA,NA,NA,survey-likert-extra-labels,150,1181752,0.0-54.0-2.0,anomymised,656582f39349a91f9e20cf14,6567381efd348ca2d0c89d11,38957,1,woman,NA,NA,M3 is being hugged by M1,hug2,rating_volition,"{""Q0"":6}",[0],M3 wanted to hug M1,M1 wanted to hug M3
2646,<p>Thank you for completing that task.</p><p>The final part of this session is a short questionnaire.</p><p>Press Continue.</p>,0,Continue,Continue,html-button-response,151,1184400,0.0-55.0,anomymised,656582f39349a91f9e20cf14,6567381efd348ca2d0c89d11,38957,1,woman,NA,NA,NA,NA,NA,NA,NA,NA,NA
30737.700000047684,NA,NA,NA,NA,survey-text,152,1216162,0.0-56.0,anomymised,656582f39349a91f9e20cf14,6567381efd348ca2d0c89d11,38957,1,woman,NA,NA,NA,NA,demographics,"{""Q0"":""68"",""Q1"":""Maltese"",""Q2"":""English"",""Q3"":""United Kingdom"",""Q4"":""British"",""Q5"":""Maltese"",""Q6"":""Female""}",NA,NA,NA
5387.199999988079,<p>This is the last question - thank you for taking part! Have you lived in the UK for the last 5 years or more?</p>,0,"Yes,No",Yes,html-button-response,153,1221552,0.0-57.0,anomymised,656582f39349a91f9e20cf14,6567381efd348ca2d0c89d11,38957,1,woman,NA,NA,NA,NA,fiveyears,NA,NA,NA,NA
